,Seq,Time,ACCx,ACCy,ACCz,ADGx,ADGy,ADGz,Keydown
0,1,1583586310568,0.7531,-0.30949998,0.3266,5.959637,-7.532636999999999,2.389327,-1
1,2,1583586310578,0.93539995,0.4687,-0.376,10.525284,0.6447585,-1.7395121,-1
2,3,1583586310588,0.96209997,0.0424,-0.1236,10.720239999999999,0.432479,-1.3033651000000002,-1
3,4,1583586310598,0.94589996,-0.15519999,0.0413,10.63921,0.23771550000000002,-1.0550481000000003,-1
4,5,1583586310608,0.7032,-0.1264,0.1564,10.337885,0.2737913,-0.8911889000000001,-1
5,6,1583586310618,0.39479998,-0.060599997999999995,0.23189999,10.105284,0.38594532,-0.7457651,-1
6,7,1583586310628,0.353,0.17449999,0.37,10.136542,0.63160956,-0.6114504,-1
7,8,1583586310639,0.4495,0.4043,0.6132,10.200219,0.8448180000000001,-0.31347764,-1
8,9,1583586310649,0.38939998,0.4716,0.9544,10.119774000000001,0.90735453,0.044072464000000006,-1
9,10,1583586310659,0.22129999,0.42749998,0.9769,9.956958,0.89699244,0.048602294000000004,-1
10,11,1583586310669,0.0918,0.42119998,0.746,9.868421000000001,0.9253014999999999,-0.22947945,-1
11,12,1583586310679,0.31469998,0.3947,0.3797,10.164325,0.94597787,-0.5105204000000001,-1
12,13,1583586310689,0.7739,0.2881,0.1435,10.6154785,0.8617498,-0.67502123,-1
13,14,1583586310700,1.0565,0.23709999,0.046099997999999996,10.884424000000001,0.85473955,-0.7162877,-1
14,15,1583586310710,1.3299999,0.301,0.0896,11.156203999999999,0.9017904,-0.6569881,-1
15,16,1583586310720,1.4767,0.1839,0.0778,11.343048,0.8155416999999999,-0.48169422,-1
16,17,1583586310730,1.6732,0.1389,0.53929996,11.502454,0.81580985,0.14842136,-1
17,18,1583586310740,1.7333,0.037000000000000005,1.3553,11.468341,0.74124485,1.2401294,-1
18,19,1583586310750,1.5586,0.023899998999999998,2.6351,11.165857,0.83278954,2.525404,-1
19,20,1583586310761,1.0310999,0.052199997000000005,3.5958,10.47218,0.9316030000000001,3.3393559999999995,-1
20,21,1583586310771,0.17979999,0.13509999,4.1512,9.578502,1.1445625,3.8747472999999997,-1
21,22,1583586310781,-0.6913,0.26819998,4.450999700000001,8.811964999999999,1.2186487,4.207714,-1
22,23,1583586310791,-1.2196,0.1148,4.6163,8.452346,1.1023862,4.5747256,-1
23,24,1583586310801,-1.2957,0.0295,4.9834,8.498296,1.0696622,5.1524944,-1
24,25,1583586310812,-1.2515,-0.1463,5.3269997,8.433479,0.8228776,5.8338265,-1
25,26,1583586310823,-1.3988999,-0.3601,5.723799700000001,8.146358,0.8463982,6.437405,-1
26,27,1583586310833,-1.7953999,-0.2645,6.1492996,7.423634,1.0669808,7.254450299999999,-1
27,28,1583586310843,-2.7716,-0.032199997,6.7749,6.0678167,1.3361465,7.989039,-1
28,29,1583586310853,-4.2673,0.0758,6.9512997,4.2626944,1.4101656999999999,8.162303,-1
29,30,1583586310863,-6.0102,-0.0422,5.9024,1.7532835,1.374607,7.946164,-1
30,31,1583586310873,-8.1213,-0.1355,5.6042,-0.33552343,1.2698941000000001,7.464144,-1
31,32,1583586310884,-10.11,-0.3166,5.0993,-1.9345053,1.1503469,6.624985700000001,-1
32,33,1583586310895,-11.595699,-0.48499998,4.2447,-2.7083595000000003,1.1933084999999999,5.560964599999999,-1
33,34,1583586310905,-12.1902,-0.40829998,3.1987997999999997,-2.826652,1.2676915000000002,4.560437,-1
34,35,1583586310915,-12.290199000000001,-0.39499998,2.4105,-2.9245367,0.76382697,4.063142299999999,-1
35,36,1583586310926,-12.4379,-1.008,2.0658,-3.262866,-0.08452489,3.9919674,-1
36,37,1583586310936,-12.932699000000001,-2.1663,2.1248,-3.5377970000000003,-1.8212214,3.9604692000000004,-1
37,38,1583586310946,-13.0112,-3.5990998999999997,2.1487,-3.1769524,-3.1994102000000004,2.6547099999999997,-1
38,39,1583586310957,-12.7485,-4.6038,1.1001999,-3.3438091,-3.5703769999999997,0.33542767,-1
39,40,1583586310966,-12.954499,-4.871,-1.0455999,-3.6473269999999998,-3.8807042000000003,-1.8996075000000001,-1
40,41,1583586310976,-13.2943,-5.075,-3.112,-3.6969730000000003,-4.08854,-2.9299953,-1
41,42,1583586310987,-13.3571,-5.2253,-4.1499,-3.4568727,-4.804128599999999,-3.4653672999999996,-1
42,43,1583586310997,-13.1621,-5.6972,-4.3887,-3.0339801,-5.7669425,-3.6589242999999994,-1
43,44,1583586311007,-11.651,-6.9785,-5.0695,-1.5538847,-6.636957000000001,-4.608723,-1
44,45,1583586311017,-9.9007,-7.3192,-6.7827997,-0.12735237,-7.107178,-6.1545734,-1
45,46,1583586311027,-8.2993,-7.274399799999999,-9.1196995,1.7841494999999998,-7.3340144,-9.044375,-1
46,47,1583586311038,-7.2078,-6.9768,-10.950399,2.7249942000000003,-7.379686,-10.6101055,-1
47,48,1583586311048,-6.7318997000000005,-6.9989,-11.3945,3.1029334,-7.8117339999999995,-11.043744,-1
48,49,1583586311058,-6.3199,-7.6727,-12.4269,3.6087992,-8.969532000000001,-12.186687,-1
49,50,1583586311068,-4.7427,-8.5226,-13.6424,5.458531,-9.968652,-13.212843,-1
50,51,1583586311078,-1.8298999,-8.801499,-14.3812,8.337442999999999,-10.688414999999999,-13.807945000000002,-1
51,52,1583586311088,0.8285,-9.2326,-15.664499,10.858825,-11.402969,-14.927378,-1
52,53,1583586311098,0.8285,-9.2326,-15.664499,12.957056,-11.678782,-15.65784,-1
53,54,1583586311109,4.6705,-9.366099,-17.1703,14.132139000000002,-12.339419,-15.798734,-1
54,55,1583586311119,5.237,-10.0988,-17.668999,14.4759655,-13.453584,-16.211159,-1
55,56,1583586311129,5.8229999999999995,-11.238299000000001,-18.182999,15.014420999999999,-15.011703,-16.42364,-1
56,57,1583586311139,7.2437997,-12.582,-18.175,16.526398,-16.533533,-16.177382,-1
57,58,1583586311149,9.7097,-13.0208,-18.057999,18.922878,-17.059251999999997,-15.993094000000001,-1
58,59,1583586311159,12.488299000000001,-12.4221,-18.3002,21.485317000000002,-16.658307999999998,-15.874965,-1
59,60,1583586311169,14.5701,-12.1345,-17.462,23.116985,-16.772993,-14.691903,-1
60,61,1583586311180,15.4789,-12.2891,-16.0761,23.644648,-17.202034,-13.039703,-1
61,62,1583586311190,15.750298999999998,-12.670199,-14.176398999999998,23.787533,-17.960459,-10.592426,-1
62,63,1583586311200,16.2237,-12.8349,-12.2637,24.247728,-18.122728,-8.75145,-1
63,64,1583586311211,17.1378,-12.7821,-10.7385,25.302881,-18.230524,-7.597156,-1
64,65,1583586311221,18.4797,-12.558499000000001,-10.084499000000001,26.430473,-18.138443,-7.15941,-1
65,66,1583586311231,19.3458,-12.305099499999999,-9.174,26.947277000000003,-18.020697,-5.6330585,-1
66,67,1583586311241,19.4443,-12.1584,-6.5448,26.604082000000002,-18.097185,-2.5953052000000003,-1
67,68,1583586311251,18.5068,-12.1825,-2.891,24.847351,-18.078255,1.8353471999999997,-1
68,69,1583586311262,16.4944,-12.159699,0.8005,22.480711,-18.18583,4.8619533,-1
69,70,1583586311272,14.1073,-12.343599000000001,3.5412998,20.73963,-18.236864,6.677514599999999,-1
70,71,1583586311282,12.856899,-12.2476,4.9616,20.381973000000002,-17.69811,7.318643600000001,-1
71,72,1583586311292,12.856899,-12.2476,4.9616,20.502172,-16.503826,7.268403999999999,-1
72,73,1583586311303,12.5518,-10.3217,5.5126,19.69979,-15.277163,7.836806299999999,-1
73,74,1583586311314,10.9577,-9.2628,6.836899799999999,17.262567999999998,-14.125081,9.590836999999999,-1
74,75,1583586311324,7.8627996,-8.4106,8.834,14.061701999999999,-13.03501,11.228011,-1
75,76,1583586311334,4.5031,-7.5003,10.2774,10.575092,-11.339725,12.094453,-1
76,77,1583586311345,1.5156,-6.3185,11.0504,8.250256,-9.7826605,12.50708,-1
77,78,1583586311355,-0.8102,-5.0622997000000005,11.4577,7.105148,-8.051748,12.077177,-1
78,79,1583586311365,-1.8969999999999998,-3.6359,11.055699,6.765583,-6.9354277,11.724492,-1
79,80,1583586311375,-2.4308,-2.697,10.6732,6.3489923,-5.6686845,11.150372500000001,-1
80,81,1583586311386,-2.8689999999999998,-2.0321,10.2808,6.2140455,-5.2380247,10.560967,-1
81,82,1583586311396,-3.0595,-2.0476,9.7816,5.941662,-5.050233400000001,9.911124000000001,-1
82,83,1583586311406,-3.4271,-2.1636,9.3654995,4.810976,-4.825006,9.431028,-1
83,84,1583586311416,-4.6482,-2.2382,9.0117,3.3795402,-4.6873684,8.832564,-1
84,85,1583586311427,-6.1717,-2.4064999,8.5289,1.9772371,-4.0925044999999995,7.630589,-1
85,86,1583586311437,-7.6331,-2.1102,7.3945,0.7493564,-3.0544362,6.213279,-1
86,87,1583586311447,-8.9142,-1.3589,6.0049,-0.007632715,-1.8620569,5.467533,-1
87,88,1583586311458,-10.166699000000001,0.4829,4.4725,-0.56004214,-0.4675397,4.467054,-1
88,89,1583586311468,-10.8089,1.2638999,3.6905,-1.2029235,0.48324567,3.7453933,-1
89,90,1583586311478,-11.532499000000001,1.6000999,3.7024998999999994,-1.8880578000000001,0.8653794,3.8408453000000002,-1
90,91,1583586311489,-11.7598,1.1718,3.8985,-1.8658013,0.4836862,3.8398779999999997,-1
91,92,1583586311499,-10.7169,0.6386,3.5558998999999996,-0.66054106,0.15857276,3.2868176,-1
92,93,1583586311509,-9.592199,0.6209,2.6008,0.34768596,0.32234573,2.1637168,-1
93,94,1583586311519,-9.417399000000001,0.81159997,1.3091999,0.23966917,0.73491454,0.41343075,-1
94,95,1583586311530,-9.7522,1.2451,-0.4326,0.019421763999999998,1.3683246,-1.4776821000000002,-1
95,96,1583586311540,-9.7234,1.8888999,-2.205,0.15319059999999998,1.9172193,-2.8429708,-1
96,97,1583586311550,-9.1839,2.2285,-4.0687,0.8080718000000001,2.1981262999999998,-4.7873209999999995,-1
97,98,1583586311560,-8.1139,2.2148,-5.5929,2.1928015,2.2247209999999997,-6.096184,-1
98,99,1583586311570,-6.935,2.1159,-5.5066,3.2673767000000002,1.9753026000000002,-5.519497,-1
99,100,1583586311580,-6.0294,1.5417999,-4.1059,3.9136865,1.4080683999999999,-4.202896599999999,-1
100,101,1583586311591,-5.4168997,0.5359,-2.1296,4.549893,0.22240219,-2.257349,-1
101,102,1583586311601,-5.0007,-0.1468,-1.3435,4.988185,-0.17283262,-2.0785598999999997,-1
102,103,1583586311611,-4.4874,-0.2094,-1.9706999,5.5410639999999995,-0.06857951,-3.2420557,-1
103,104,1583586311621,-3.8969998,-0.0009999999,-3.4626,6.1618996,0.18869182,-4.720178,-1
104,105,1583586311631,-3.1894999,0.2234,-4.5323,6.870564,0.38448966,-5.4957657,-1
105,106,1583586311641,-2.4329998,0.4044,-4.9059,7.549607300000001,0.5062587000000001,-5.658217,-1
106,107,1583586311652,-1.4405,0.3933,-4.7609997,8.912502,0.40852743,-5.328966,d
107,108,1583586311662,-0.5158,0.33519998,-4.3318,9.685992,0.33068714,-4.7805696,-1
108,109,1583586311672,0.0563,0.17809999,-3.6241,9.941186,0.07192182,-4.156123600000001,-1
109,110,1583586311682,0.2555,-0.1867,-2.7361999,10.0304985,-0.4090733,-3.0962104999999998,-1
110,111,1583586311692,0.20879999,-0.58169997,-1.8384,9.933025,-0.8131092,-2.3123294999999997,-1
111,112,1583586311703,0.1805,-0.965,-1.1194998999999999,10.057409,-1.085464,-1.7140567999999998,-1
112,113,1583586311713,0.3574,-1.0999,-0.7434,10.268798,-1.1078068,-1.9113008000000002,-1
113,114,1583586311723,0.5922,-1.0156,-1.3270998999999999,10.436564,-0.9912857,-2.7574403,-1
114,115,1583586311733,0.8178,-0.82449996,-2.4945,10.748194999999999,-0.70606923,-3.8187995000000003,-1
115,116,1583586311743,1.0447999,-0.5299,-2.9989,10.921955,-0.37578434,-3.9136290000000002,-1
116,117,1583586311754,1.1755999,-0.2819,-2.8774,10.936599000000001,-0.18557936,-3.5625434,-1
117,118,1583586311764,1.1215998999999999,-0.041899998,-2.2602,10.686049,0.021461625,-2.8054779,-1
118,119,1583586311774,0.7743,0.0945,-1.3723999,10.202574,0.04019386,-1.8334126,-1
119,120,1583586311784,0.39769998,0.0145,-0.58489996,10.120462,-0.24939920000000002,-1.5320497,-1
120,121,1583586311794,0.40299999999999997,-0.2768,-0.3832,10.3099785,-0.37425205,-1.7833546000000002,-1
121,122,1583586311804,0.613,-0.376,-0.6238,10.421911999999999,-0.41473317,-1.9378765,-1
122,123,1583586311815,0.69449997,-0.38369998,-0.79569995,10.500853999999999,-0.35880464,-2.587931,-1
123,124,1583586311825,0.7951,-0.32119998,-1.5112,10.757771,-0.2813187,-3.4157119,-1
124,125,1583586311835,1.082,-0.22999999,-2.2572,10.968001,-0.07074387,-3.6803572,-1
125,126,1583586311845,1.2325,-0.0075999996999999994,-2.3486,10.705174000000001,0.1184651,-3.270853,-1
126,127,1583586311855,0.87479997,0.1261,-1.8103,10.193811,0.15031756,-2.7390914,-1
127,128,1583586311865,0.19469999,0.1236,-1.0878,9.540396000000001,0.13942872,-2.0282335,-1
128,129,1583586311875,-0.24939999,0.080299996,-0.52099997,9.298658,0.17580144,-1.7547869999999999,-1
129,130,1583586311886,-0.42,0.1002,-0.23629999,9.269753999999999,0.21285412,-1.6378063999999999,-1
130,131,1583586311896,-0.4349,0.1357,-0.1573,9.249931,0.30641952,-1.8370806,-1
131,132,1583586311906,-0.4515,0.20539999,-0.31489998,9.1945095,0.4161793,-1.9874747,-1
132,133,1583586311916,-0.49879998,0.3073,-0.46109998,9.124771,0.45084733,-2.242553,-1
133,134,1583586311926,-0.5764,0.3421,-0.71059996,9.026150999999999,0.47201207,-2.3327856,-1
134,135,1583586311937,-0.67359996,0.35729998,-0.79389995,8.906467999999998,0.51757854,-2.5687773,-1
135,136,1583586311947,-0.79969996,0.40789998,-1.0799,8.745061999999999,0.56281936,-2.5423834,-1
136,137,1583586311957,-0.94339997,0.43219998,-0.9705,8.653804,0.4663905,-2.0142994,-1
137,138,1583586311967,-1.0363,0.3258,-0.4199,8.544417,0.37101507,-1.5242542,-1
138,139,1583586311978,-1.1044999,0.1209,0.43469998,8.588805,0.24330835,-1.2336842,-1
139,140,1583586311988,-0.9842,0.1449,0.25439999,8.719711,0.32953793,-1.464696,-1
140,141,1583586311998,-0.9842,0.1449,0.25439999,8.818802999999999,0.42489418,-1.6097271,-1
141,142,1583586312008,-0.85609996,0.2924,0.0622,8.908901,0.41987595,-1.8352418000000001,-1
142,143,1583586312018,-0.6308,0.31149998,-0.60389996,9.0757675,0.43125317,-2.3869522,-1
143,144,1583586312028,-0.424,0.4526,-1.0196,9.291207,0.56233096,-2.7291696,-1
144,145,1583586312038,-0.35279998,0.4328,-0.8578,9.314805,0.47588109999999995,-2.4589697999999998,-1
145,146,1583586312048,-0.4272,0.3098,-0.2559,9.205926,0.35038662,-1.8529494,-1
146,147,1583586312058,-0.4813,0.2236,0.1135,9.172398,0.27844566,-1.6171778,-1
147,148,1583586312069,-0.48729998,0.2076,0.174,9.169514999999999,0.28531224,-1.6064806,-1
148,149,1583586312079,-0.426,0.2445,-0.0082,9.242853,0.32534328,-1.8764508000000002,-1
149,150,1583586312089,-0.28759998,0.3938,-0.40399998,9.400144000000001,0.48470137,-2.2583642000000004,-1
150,151,1583586312099,-0.28759998,0.3938,-0.40399998,9.49165,0.5803256999999999,-2.4051,-1
151,152,1583586312109,-0.22549999,0.5004,-0.7003,9.401111,0.5086242,-2.5383612999999996,-1
152,153,1583586312119,-0.3592,0.42499998,-0.6612,9.253542,0.3825743,-2.4201741,-1
153,154,1583586312130,-0.4526,0.15439999,-0.1366,9.250324,0.008408437,-1.6645448,-1
154,155,1583586312140,-0.24139999,-0.043899997999999996,0.4393,9.519164,-0.12822387,-1.3800848999999997,-1
155,156,1583586312150,0.126,-0.0805,0.34489998,9.92115,-0.16225985,-1.7454976000000002,-1
156,157,1583586312160,0.50119996,-0.1043,-0.0256,10.157209,-0.17976624,-2.013514,-1
157,158,1583586312170,0.4816,-0.0023,-0.095,9.99493,-0.08783847,-1.9158496999999999,d
158,159,1583586312180,0.0977,0.0854,0.1906,9.525217,-0.029764716,-1.6460136000000003,-1
159,160,1583586312190,-0.2963,0.152,0.1506,9.241935,0.068091094,-1.9279453000000002,-1
160,161,1583586312201,-0.445,0.3003,-0.3103,9.214917999999999,0.19391118,-2.342937,-1
161,162,1583586312211,-0.25959998,0.45319998,-0.56259996,9.502452,0.31704977,-2.5273001,-1
162,163,1583586312221,0.08339999599999999,0.5315,-0.91959995,9.820881,0.31802659999999994,-2.8749094,-1
163,164,1583586312231,0.6527,0.4429,-1.0482,10.546372,0.10667605,-2.6393871,-1
164,165,1583586312241,1.2328,0.23079999,-0.1313,11.093562,-0.0733775,-1.4446039,-1
165,166,1583586312252,1.5390999,0.24329999,0.69229996,11.247548,0.013206416,-1.0555557,-1
166,167,1583586312262,1.7864,0.33429998,0.99689996,11.577048,0.2815581,-1.0996663999999998,-1
167,168,1583586312272,1.9534999,0.7626,0.4798,11.42694,0.70959353,-2.0648553,-1
168,169,1583586312282,1.6775,0.93399996,-0.5464,11.304453,0.45652637,-2.8847353,-1
169,170,1583586312292,1.8022,0.6098,-1.4333,11.872301,0.1377432,-3.9969281999999997,-1
170,171,1583586312302,2.6892,0.2276,-2.5026999,12.8773575,-0.3369025,-4.6557837,-1
171,172,1583586312312,4.251,-0.3627,-3.2698,15.042491,-0.823184,-5.287269,-1
172,173,1583586312323,6.107199700000001,-0.496,-3.4376,16.627317,-0.84447324,-4.7867755999999995,-1
173,174,1583586312333,7.3183,-0.60929996,-2.6694,17.065668,-1.1987002,-3.8420807999999997,-1
174,175,1583586312343,7.3153996,-1.1233,-1.5913999,16.726545,-1.7558596000000002,-2.4476976,-1
175,176,1583586312353,6.8535,-1.7585,-0.2157,16.179785,-2.3894134,-1.5038173000000001,-1
176,177,1583586312363,6.3624997,-2.5312997999999998,0.2586,15.915207,-3.1796912999999996,-1.69973,-1
177,178,1583586312374,6.3511996,-3.3927998999999995,-0.2456,16.328505,-3.763436,-2.4586346000000003,-1
178,179,1583586312384,6.9252996,-3.7898998,-0.99439996,16.986172,-3.8249763999999997,-2.8861525,-1
179,180,1583586312394,7.5562,-3.7986,-1.1690999,17.303375,-3.645603,-2.7056777000000003,-1
180,181,1583586312404,7.5216,-3.7719998,-1.1257,16.506603,-3.7598064,-3.1421025,-1
181,182,1583586312414,6.5782,-4.0225,-1.5899,15.212375,-3.9050962999999994,-3.0484605,-1
182,183,1583586312424,5.2774997,-4.2697997,-1.3070998999999999,13.764256,-3.9702568,-2.1731117,-1
183,184,1583586312435,3.7770998,-4.4814997000000005,-0.3283,12.22418,-3.9731681000000005,-1.0718842,-1
184,185,1583586312444,2.2625,-4.633,0.8168,10.778533,-3.9025295,0.09735782,-1
185,186,1583586312454,0.8702,-4.687599700000001,1.9944998999999999,9.284483999999999,-3.470654,0.83938795,-1
186,187,1583586312464,-0.6371,-4.3925,2.557,7.7657466,-2.8394754,0.6241492,-1
187,188,1583586312474,-2.0945,-3.9178,2.2035,6.719451400000001,-2.166226,0.037043087,-1
188,189,1583586312484,-3.3063,-3.2503,1.3876,5.5085120000000005,-1.3522258999999999,-1.0676416000000002,-1
189,190,1583586312495,-4.183799700000001,-2.7726998,0.5141,4.7713184,-0.47406152,-1.1639171999999998,-1
190,191,1583586312504,-4.9209,-2.0398,0.63199997,3.6969633,0.34642184,-0.53586066,-1
191,192,1583586312515,-5.8978,-1.5175999,1.2571,2.4253166,0.9721511999999999,0.41591114,-1
192,193,1583586312524,-7.3395996,-0.9604,2.3423,0.78377545,1.9404238,1.4244063999999999,-1
193,194,1583586312534,-8.944099000000001,-0.14459999,3.2479,-0.41515458,2.7674005,1.791131,-1
194,195,1583586312544,-10.264999000000001,0.71639997,3.5453,-1.6558490000000001,3.6096516000000003,1.6728096000000001,-1
195,196,1583586312554,-11.3659,1.2998999,3.1692,-2.6372228,4.3424973,0.75137717,-1
196,197,1583586312565,-12.004399000000001,1.7571,2.2558,-2.8598163,4.866876,-0.3491991,-1
197,198,1583586312575,-12.0917,2.2621,1.0936999,-2.6988015,5.7367563,-1.6342055,-1
198,199,1583586312586,-11.9197,3.1597,-0.088199995,-2.8915157000000002,6.887131699999999,-2.0734842,-1
199,200,1583586312596,-12.249599,4.2419,-0.3066,-3.903803,7.6455,-1.4497274,-1
200,201,1583586312606,-13.3918,4.8347,0.4446,-5.4028415999999995,7.9304104,-0.5755661,-1
201,202,1583586312616,-14.9158,5.0214,1.3844999,-6.907099700000001,7.9199905,0.62459934,-1
202,203,1583586312626,-16.3353,4.8828,2.6397,-7.989767,7.140553,1.8059176,-1
203,204,1583586312637,-17.165499,4.1984,3.5981998,-8.08838,6.472303,1.7073148,-1
204,205,1583586312647,-17.195999999999998,3.4215998999999995,3.3592,-7.411366,5.4569507,-0.11830229,-1
205,206,1583586312657,-16.6146,2.6733,1.7587,-6.676375,4.6418976999999995,-1.9917555,-1
206,207,1583586312667,-15.9282,2.0054,-0.0975,-6.1001,3.9176992999999993,-2.9399073,-1
207,208,1583586312677,-15.3959,1.4649999,-1.0313,-5.722621,3.0727952000000003,-2.332058,-1
208,209,1583586312687,-15.071098999999998,0.80579996,-0.4281,-5.5798693,1.7710963,-1.2542744,-1
209,210,1583586312698,-14.971399,-0.2902,0.6623,-5.3745804,0.32074640000000004,0.14363295,-1
210,211,1583586312708,-14.7513,-2.2148,3.7510000000000003,-5.262398,-0.8728971999999999,2.1851017,-1
211,212,1583586312718,-14.7513,-2.2148,3.7510000000000003,-5.399767400000001,-1.8835089,2.892435,-1
212,213,1583586312728,-15.0505,-3.9754998999999995,4.2213,-5.409555,-3.2137465,2.2335796,-1
213,214,1583586312738,-15.0505,-3.9754998999999995,4.2213,-4.569066,-4.5974708,1.6498540000000002,-1
214,215,1583586312748,-13.306299,-6.1161,3.2773,-3.4665837,-6.1380534,1.5474108,-1
215,216,1583586312758,-12.3702,-6.9153,3.8365998,-2.5368865,-7.2750497,2.306823,-1
216,217,1583586312769,-12.3702,-6.9153,3.8365998,-1.7664037000000001,-7.9587092,2.8054779,-1
217,218,1583586312779,-10.3242,-7.6973,4.5401,-0.42012495,-8.998578,3.0222487,-1
218,219,1583586312789,-8.545,-8.592299,4.1639,1.5339555,-10.344358999999999,2.8089445,-1
219,220,1583586312799,-6.1061,-9.3785,4.3055997,3.8193165999999996,-11.6498785,2.9997144000000002,-1
220,221,1583586312809,-4.5557,-10.7727995,3.9455,4.980045,-13.709888000000001,2.5117283,-1
221,222,1583586312819,-4.2404,-12.700299000000001,3.4234,5.053556400000001,-16.034744,2.164617,-1
222,223,1583586312830,-3.574,-13.607698999999998,3.6167998,6.0262823,-17.33897,2.4842812999999997,-1
223,224,1583586312840,-1.7522,-13.8052,3.7242,7.586076299999999,-17.895844,2.5143812000000003,-1
224,225,1583586312850,0.76669997,-13.7678995,2.7889999999999997,9.984013000000001,-18.226044,1.5365411,-1
225,226,1583586312860,3.6039999,-13.3424,0.8552,13.086266,-18.499164999999998,-0.74350494,-1
226,227,1583586312870,6.4175,-13.3175,-1.4758999,15.393434,-18.990694,-2.534272,-1
227,228,1583586312880,8.5248995,-13.361099,-2.4445999,16.779505,-19.46601,-2.4860625,-1
228,229,1583586312891,9.5514,-13.4024,-1.4809999999999999,17.06227,-20.152504,-0.8158576999999999,-1
229,230,1583586312901,9.802199,-14.2077,0.5670000000000001,16.859718,-21.456394,1.1451658000000002,-1
230,231,1583586312911,10.104899000000001,-15.385098999999999,1.9244,17.10298,-22.733252,1.9405675,-1
231,232,1583586312921,11.161099,-14.974298999999998,0.5538,18.08697,-21.767344,-0.062277973,-1
232,233,1583586312931,12.7399,-12.997499000000001,-1.5103999,19.12115,-20.029087,-0.96099424,-1
233,234,1583586312942,13.4072,-11.465899,-1.2393,18.962114,-19.168228,-0.08738836,-1
234,235,1583586312952,13.0147,-10.8171,-0.60499996,17.98619,-18.556921,0.6601197,-1
235,236,1583586312962,12.436,-9.9634,-0.2183,17.227814000000002,-17.716661,1.3122811,-1
236,237,1583586312972,12.0116,-8.9452,0.4155,16.731266,-16.913187,1.786879,-1
237,238,1583586312982,11.589399,-7.7878,0.72969997,15.931486999999999,-16.028270000000003,1.9974537,-1
238,239,1583586312992,10.809199000000001,-7.3141,0.522,14.921221,-16.14576,1.6442994,-1
239,240,1583586313003,10.5827,-7.5973997,0.14729999,15.167287,-16.337841,1.4300853999999998,-1
240,241,1583586313014,11.2209,-7.4743,-0.2297,15.488685,-15.636176999999998,0.55759996,-1
241,242,1583586313024,11.4002,-6.6021,-1.1481,14.728918,-14.609188,0.13764745,-1
242,243,1583586313034,10.5995,-5.5006,-1.4146999,13.346046,-13.4607,0.4940196,-1
243,244,1583586313044,9.189899,-4.3525,-0.94839996,11.659924499999999,-12.427669,1.5370774999999999,-1
244,245,1583586313054,7.5347,-3.3109,0.242,10.038466,-11.538644999999999,2.7177446,-1
245,246,1583586313064,5.9825,-2.4706,1.3814,8.51243,-11.194061,3.4880263999999994,-1
246,247,1583586313074,4.5369997,-2.2022998,2.0146,7.7027407000000006,-10.978439,3.2916732000000004,-1
247,248,1583586313084,3.9333,-1.9254999,1.6107,7.6764617,-10.854478,2.619161,-1
248,249,1583586313094,4.0906997,-1.9336,1.0144,8.164017,-10.924253,2.5091999,-1
249,250,1583586313104,4.6512,-1.8534,0.9079,8.318060000000001,-10.569567999999999,2.1039288,-1
250,251,1583586313114,4.6266,-1.5357,0.3574,7.7836647,-10.494954,1.6308247999999999,-1
251,252,1583586313124,3.8300998,-1.4393,-0.0394,6.8160240000000005,-10.141915,1.6072372,-1
252,253,1583586313135,3.0153,-1.0342,0.047,5.950807599999999,-9.525925,1.7284987,-1
253,254,1583586313145,2.1202,-0.4262,0.1532,5.14038,-9.116249,1.9053537,-1
254,255,1583586313155,1.3188,-0.113299996,0.48169997,4.619823,-9.055234,2.6014056,-1
255,256,1583586313165,0.85359997,-0.083299994,1.2155,4.6158867,-9.115281,2.8970416,-1
256,257,1583586313175,0.9263,-0.2277,1.3535,4.9681025000000005,-9.37012,2.6132902999999996,-1
257,258,1583586313186,1.262,-0.45999998,1.0331,5.147256,-9.465380999999999,2.0147207,d
258,259,1583586313196,1.3755,-0.5564,0.35279998,5.260885,-9.625533,1.3760434,-1
259,260,1583586313206,1.4969,-0.7436,-0.22909999,5.388074400000001,-9.811428999999999,1.2213972,-1
260,261,1583586313216,1.5917,-0.90389997,-0.3667,5.349566,-9.648796,0.95879155,-1
261,262,1583586313226,1.4893999,-0.75369996,-0.6037,4.9954634,-9.41334,1.0424546000000001,-1
262,263,1583586313237,1.0907,-0.5286,-0.5266,4.470271599999999,-9.3097,1.4896243999999998,-1
263,264,1583586313248,-0.021499999,-0.4186,0.70669997,3.9926186,-9.245736,2.2540739,-1
264,265,1583586313258,-0.301,-0.4235,1.1393,3.7691631,-9.227244,2.6831913,-1
265,266,1583586313268,-0.36569998,-0.565,0.8386,3.852692,-9.3966,2.185638,-1
266,267,1583586313279,0.109,-0.82269996,0.0021,4.474839,-9.667288000000001,1.3456659,-1
267,268,1583586313289,0.8851,-1.1274998999999999,-0.7324,5.302773999999999,-9.973431,0.7770524999999999,-1
268,269,1583586313300,1.5525,-1.5004,-0.9898,5.9137260000000005,-10.291064,0.7543938,-1
269,270,1583586313310,1.8091999,-1.7867998999999999,-0.66499996,6.067539,-10.570056,1.1503181,-1
270,271,1583586313320,1.7308999,-2.2041,0.26139998,5.9734087,-10.982328,2.390572,-1
271,272,1583586313330,1.5848999,-2.3996,1.2221999,5.9347568,-11.065886,3.0411534,-1
272,273,1583586313340,1.689,-2.6339998,1.5773,6.2711997,-11.406063,3.2966912000000006,-1
273,274,1583586313351,2.2293,-3.1320999,1.5253999,7.1083655,-11.908826,3.1087751,-1
274,275,1583586313361,3.3011,-3.6764,0.97129995,8.368128,-12.356763,2.355521,-1
275,276,1583586313371,4.5992,-3.9966998,0.0766,9.765441000000001,-12.599027,1.6289958,-1
276,277,1583586313381,6.0597,-4.2609,-0.34579998,11.0203285,-12.803961,1.4249907,-1
277,278,1583586313392,7.3409996,-4.7462,-0.2676,12.472566,-13.425533999999999,1.7635211,-1
278,279,1583586313402,8.1883,-5.3195996,0.3777,13.380379000000001,-13.692391,2.4538363999999997,-1
279,280,1583586313412,8.564199,-5.29,0.65169996,13.423447,-13.446304999999999,2.3203838,-1
280,281,1583586313422,7.9856997000000005,-5.1026,0.3252,12.538386000000001,-13.360508,2.1091862,-1
281,282,1583586313432,7.1004996,-5.3037996,0.51129997,12.489438999999999,-13.419175,2.4504845,-1
282,283,1583586313442,7.338299799999999,-5.3371,0.9242,13.345424,-13.177609,2.7335176,-1
283,284,1583586313453,8.0583,-5.2011,1.1402,14.176288000000001,-12.930144,2.6196396,-1
284,285,1583586313463,8.5589,-5.075999700000001,0.768,14.459369,-12.760626,1.7870703999999997,-1
285,286,1583586313473,8.3715,-5.0936,-0.21849999,14.200479500000002,-12.606698,0.8191618,-1
286,287,1583586313483,7.7953997,-5.0887,-0.8864,13.8136635,-12.384229,0.67431253,-1
287,288,1583586313493,7.2430997,-5.0703,-0.44489998,13.625929000000001,-12.281249,1.7552755000000002,-1
288,289,1583586313503,6.896,-5.1663,1.1139,13.444266,-12.004757000000001,3.4512322,-1
289,290,1583586313514,6.434,-5.0764,2.5282,12.813068,-11.484727000000001,4.094506299999999,-1
290,291,1583586313524,5.441,-4.7339997,3.1729,12.041341000000001,-10.979138,4.110796499999999,-1
291,292,1583586313534,4.1867,-4.3824,3.2124999,10.836732000000001,-10.285577,3.8204947,-1
292,293,1583586313544,3.0,-4.0551,3.0681,10.243132000000001,-9.746172999999999,3.6504107000000006,-1
293,294,1583586313554,2.1113,-3.6959998999999994,3.0605998,9.694103,-9.05378,3.781565,-1
294,295,1583586313564,1.531,-3.4196,3.3353998999999996,9.303016,-8.499023,3.7613485,-1
295,296,1583586313574,0.9248,-3.1381,3.3383,8.794382,-7.9742429999999995,3.4741687999999993,-1
296,297,1583586313585,0.14379999,-2.9417,3.1794,7.774298,-7.555161999999999,3.256411,-1
297,298,1583586313595,-1.1265,-2.8516998,3.1271,6.7388735,-7.381630400000001,3.3872303999999995,-1
298,299,1583586313605,-2.5513,-2.9743,3.6215,5.4714403,-7.1274429999999995,4.150004,-1
299,300,1583586313615,-3.5976998999999994,-3.0282998,4.4441,5.333755,-6.587119,4.812058,-1
300,301,1583586313626,-3.6861,-2.6564999,5.162999999999999,5.503992,-5.459345,4.9682655,-1
301,302,1583586313636,-3.7684998999999997,-1.7895999,5.3914,4.3714676,-4.2395277,4.904589,-1
302,303,1583586313646,-4.917,-1.1103,5.4702,2.6382666,-3.3877187000000006,4.502986,-1
303,304,1583586313656,-6.7398,-0.56009996,5.1953,1.1580466,-2.7303764999999998,4.498734,-1
304,305,1583586313667,-8.2936,-0.2076,5.3248,-0.43795693,-1.9886047999999998,4.934851999999999,-1
305,306,1583586313677,-9.9211,0.262,5.8717,-1.7047291,-1.4848361,4.4572663,-1
306,307,1583586313687,-11.2406,0.51629996,5.4972,-1.9728221999999997,-1.3121088,3.3666977999999994,-1
307,308,1583586313698,-11.5477,0.4863,4.473,-1.487958,-0.98662174,2.7169017999999996,-1
308,309,1583586313708,-11.0794,0.6418,3.8913,-0.49897079999999994,-0.7225222,1.8228973000000002,-1
309,310,1583586313718,-9.265699,0.48529997,2.2649999,0.54424036,-0.91706544,0.75136757,-1
310,311,1583586313728,-8.5133,0.457,1.7398,1.2061031,-0.72153574,0.32700965,-1
311,312,1583586313738,-8.4851,0.7829,1.9369999,1.0399071,-0.35918772,0.49079220000000007,-1
312,313,1583586313748,-9.1135,0.71669996,2.2435,0.37383065,-0.34756145,0.71627814,-1
313,314,1583586313759,-9.809,0.6983,2.4071999,-0.30935,-0.22265118,0.7647463000000001,-1
314,315,1583586313769,-10.0602,0.60249996,1.9904,-0.38642415,-0.35755008,0.09629479,-1
315,316,1583586313780,-9.1904,0.22219999,1.0019,1.1034875,-0.68769133,-1.1256674999999998,-1
316,317,1583586313790,-7.3862,-0.0137,0.1608,2.9296985,-0.9756276,-1.9813839,-1
317,318,1583586313800,-5.8357997,-0.3374,-0.5342,4.1743293,-1.1916038,-2.57935,-1
318,319,1583586313810,-5.1278996,-0.3955,-0.68399996,4.495726599999999,-1.1591383999999998,-2.585393,-1
319,320,1583586313820,-5.2616997,-0.3312,-0.39069998,4.145043,-1.1140125,-2.5315235,-1
320,321,1583586313830,-5.6289997000000005,-0.5196,-0.74729997,3.8644235,-1.2629606000000002,-3.0304465,-1
321,322,1583586313841,-5.6717997,-0.4592,-0.87979996,3.9175843999999995,-1.0118088,-2.9583428,-1
322,323,1583586313852,-5.4983997,-0.30719998,-0.4394,4.0888176,-1.0442071,-2.505398,-1
323,324,1583586313862,-5.2872,-0.50949997,0.1444,4.574917,-1.317577,-2.0363834,-1
324,325,1583586313872,-4.5281997,-0.7791,0.3035,5.7483059999999995,-1.5536165000000002,-2.5144289,-1
325,326,1583586313882,-3.2010999,-0.8824,-0.5762,7.0605199999999995,-1.5735172,-3.9019837,-1
326,327,1583586313892,-1.9125999,-0.89519995,-2.057,7.963286999999999,-1.8039352,-5.141893,-1
327,328,1583586313903,-0.9856,-1.3889999,-3.3769998999999995,8.915164,-2.5030901,-6.341387999999999,-1
328,329,1583586313913,-0.2447,-1.7775999,-3.8797,9.492474000000001,-2.4970182999999997,-6.269629,-1
329,330,1583586313923,0.0929,-1.4906,-3.4204,9.375311,-1.9486504,-5.53504,-1
330,331,1583586313933,-0.3173,-0.87289995,-2.5232,8.534831,-1.341768,-4.6787014000000005,-1
331,332,1583586313943,-1.2586,-0.3012,-1.6564,7.648038000000001,-0.85178035,-3.8126705000000003,-1
332,333,1583586313954,-2.0328999,-0.0055,-0.7499,7.083226700000001,-0.82096213,-3.0243652,-1
333,334,1583586313963,-2.3465,-0.24419999,0.092,7.302775,-1.3849403,-2.2325835,-1
334,335,1583586313973,-1.7085999,-0.80109996,0.7606,8.361213000000001,-1.7162883000000002,-2.0929153,-1
335,336,1583586313983,-0.5403,-0.93869996,0.42409998,9.362228,-1.7277517,-3.226608,-1
336,337,1583586313993,0.2839,-0.88189995,-0.9999,10.050925999999999,-1.7677348999999998,-4.8152947,-1
337,338,1583586314003,0.9802,-0.88009995,-2.6046,10.652042999999999,-1.8051323000000001,-6.4282975,-1
338,339,1583586314014,1.4691,-0.7594,-4.094599700000001,11.015052,-1.313641,-7.178478,-1
339,340,1583586314024,1.7021998999999999,-0.17999999,-4.1491,10.932538000000001,-0.8261241,-6.340315299999999,-1
340,341,1583586314034,1.3363,0.2642,-2.7358,9.95668,-0.75539935,-4.1810136,-1
341,342,1583586314044,1.3363,0.2642,-2.7358,8.954544,-0.8131571,-2.5912445,d
342,343,1583586314054,-0.765,0.15169999,0.92429996,8.153961,-0.6913305000000001,-1.7509276000000003,-1
343,344,1583586314065,-1.1406,0.2616,1.1931,8.5111475,-0.65918124,-2.4213521,-1
344,345,1583586314075,-0.62939996,0.34309998,0.3997,9.141694000000001,-0.56570196,-3.3994217000000004,-1
345,346,1583586314085,0.2034,0.40089998,-0.7909,10.10017,-0.823615,-4.5159144,-1
346,347,1583586314095,0.9841,0.12799999,-1.5936999,10.873507,-1.3691098999999998,-5.238608999999999,-1
347,348,1583586314106,1.7329999,-0.3337,-2.3288,11.365889,-1.5124748,-5.580731,-1
348,349,1583586314116,2.1246,-0.3585,-2.5063999,11.315639,-1.4533857,-5.0235142999999995,-1
349,350,1583586314126,1.9951999,-0.31599998,-1.8173,10.833438000000001,-1.4103572,-3.9968133000000003,-1
350,351,1583586314136,1.5649998999999999,-0.29819998,-0.96199995,10.46428,-1.3866353999999999,-3.6013966,-1
351,352,1583586314146,1.1312,-0.3259,-0.514,10.301991000000001,-1.4256992,-3.8882220000000003,-1
352,353,1583586314156,1.0483999,-0.3859,-0.7586,10.369087,-1.4749813999999999,-4.4580035,-1
353,354,1583586314166,1.1452,-0.4789,-1.3612,10.306177,-1.4951023,-4.9277654,-1
354,355,1583586314177,1.0933,-0.52419996,-1.6680000000000001,9.989136,-1.4319816,-6.0944785999999995,-1
355,356,1583586314187,0.7908,-0.4745,-2.8076,10.050504,-1.4305546,-7.245984599999999,-1
356,357,1583586314197,0.85539997,-0.4897,-3.9345999,10.442589,-1.5117755,-8.356808000000001,-1
357,358,1583586314207,1.2518,-0.5877,-5.0257,11.189666,-1.8937178,-9.377053,-1
358,359,1583586314217,2.6836998,-1.9072,-6.5884,11.912322,-2.916578,-10.188803,-1
359,360,1583586314227,2.7962,-3.0605998,-7.2351,11.883801,-4.043663,-10.892861,-1
360,361,1583586314237,2.7962,-3.0605998,-7.2351,11.435559,-4.5338709999999995,-11.396256,-1
361,362,1583586314248,2.3576,-3.8915,-7.7268996,10.086006,-3.8684459,-13.140642000000001,-1
362,363,1583586314258,1.3159999999999998,-3.4905998999999994,-9.010799,8.902821000000001,-3.5455637,-13.943802,-1
363,364,1583586314268,-1.5087,-3.4469,-8.9326,7.2801833,-3.8053348,-12.420563000000001,-1
364,365,1583586314278,-2.3123,-3.9153,-7.1373,6.5841503,-4.100194999999999,-10.926064,-1
365,366,1583586314288,-2.3123,-3.9153,-7.1373,6.344434,-4.7377324,-11.527037,-1
366,367,1583586314298,-2.1368,-5.7117996,-8.9317,7.0556455,-5.713178,-13.202116,-1
367,368,1583586314308,-1.1121,-6.0754,-10.4387,8.024359,-5.864549,-14.594795000000001,-1
368,369,1583586314319,-1.0361999,-6.2016,-10.7512,7.7981929999999995,-5.8007007,-14.427698999999999,-1
369,370,1583586314329,-2.3653,-6.0297,-8.7845,6.2778745,-5.482080000000001,-11.960617,-1
370,371,1583586314339,-2.3653,-6.0297,-8.7845,4.0934815,-5.126282700000001,-8.445997,-1
371,372,1583586314349,-6.7711997,-5.6608996,-2.0291997999999998,1.8222556,-4.6219487,-5.1178360000000005,-1
372,373,1583586314359,-9.0782995,-4.9756,0.3597,-0.5328823,-3.72601,-3.0098755,-1
373,374,1583586314369,-11.1894,-4.5376997,0.7438,-2.5723782,-3.0832624,-2.971099,-1
374,375,1583586314379,-11.7932,-4.0113997,-0.0831,-2.6001892000000004,-2.5161912,-3.633517,-1
375,376,1583586314390,-11.7932,-4.0113997,-0.0831,-1.4024659,-1.7504679,-3.8553064,-1
376,377,1583586314400,-9.6699,-2.9136,-0.35079998,-0.13253343,-1.3489603000000001,-2.8769972000000004,-1
377,378,1583586314410,-9.1068,-2.6636,1.5041,0.09226295,-1.1130548,-0.46152547,-1
378,379,1583586314420,-9.5788,-2.6186,4.5067997,-0.79266274,-1.1898226,3.3263123,-1
379,380,1583586314430,-10.921499,-2.8994,8.3482,-2.1804762,-1.2408956,7.241694,-1
380,381,1583586314440,-12.4409,-2.3718998,11.4704,-3.7222843,-0.28011203,9.951872999999999,-1
381,382,1583586314451,-14.0127,-1.1851,13.304198999999999,-5.0258985,0.88460964,11.658699,-1
382,383,1583586314461,-14.5492,-0.0682,14.787398999999999,-4.7851477,1.7846667,13.513515,-1
383,384,1583586314471,-13.335,0.4141,16.7691,-3.067882,1.6906607,15.691454,-1
384,385,1583586314481,-11.250299,-0.0638,18.6234,-0.7752138000000001,0.80465287,17.346058,-1
385,386,1583586314491,-8.9788,-0.84059995,19.4867,1.4567568000000002,-0.10011594,17.891237,-1
386,387,1583586314501,-7.2036996,-1.2781,19.1253,2.9728131,-0.53085196,17.447832000000002,-1
387,388,1583586314512,-6.2063,-0.96449995,18.9014,3.8960462,-0.050239927999999996,18.343262,-1
388,389,1583586314522,-5.6512,-0.19129999,20.3508,4.297793,0.37618655,20.729284,-1
389,390,1583586314532,-5.3107,0.3874,22.7013,4.5519137,0.59826314,22.531257999999998,-1
390,391,1583586314542,-5.1046,0.83739996,24.350399,4.875179,0.39873993,24.132223,-1
391,392,1583586314553,-4.65,0.1925,25.354,5.6099305,-1.6714592000000001,24.782084,-1
392,393,1583586314563,-3.6336,-1.9891,25.3433,7.159391,-4.357973599999999,23.374542,-1
393,394,1583586314573,-1.703,-4.2763,22.97,8.988982,-6.214007,20.843698999999997,-1
394,395,1583586314583,0.7593,-5.5839,19.4459,11.932883,-7.522112400000001,16.887539,-1
395,396,1583586314593,3.313,-5.9593,16.5038,14.363515,-8.155273,15.17764,-1
396,397,1583586314603,5.5459,-6.2717,15.478399,15.779129999999999,-8.968172000000001,15.164031,-1
397,398,1583586314613,6.4533,-7.0144997,15.8159,15.897231,-10.508544,15.565729000000001,-1
398,399,1583586314624,6.3153,-8.521999000000001,15.7155,15.530306,-12.119832,14.937932,-1
399,400,1583586314634,6.0432997,-10.3129,14.3616,15.637613,-14.727222,12.563975,-1
400,401,1583586314644,6.5126,-11.7472,12.356,16.269253,-16.177544,10.074791000000001,-1
401,402,1583586314654,7.2337,-12.8817,9.5443,16.777788,-16.953018,7.5770545,-1
402,403,1583586314664,7.9989,-13.266298999999998,6.1102,17.567617000000002,-17.121836,3.7240849000000003,-1
403,404,1583586314675,8.6659,-13.1397,2.7928998,17.634674,-17.318878,1.0695568000000002,-1
404,405,1583586314685,8.7354,-13.1966,0.204,17.50986,-17.795720000000003,-0.38712326,-1
405,406,1583586314695,8.6516,-13.5454,-1.2414,17.069422,-18.122335,-2.3353045,-1
406,407,1583586314706,8.1965,-13.7218,-3.4324,16.394852,-18.134815,-4.811273,-1
407,408,1583586314717,7.5793,-13.5919,-5.7019,15.526503,-17.918395999999998,-6.5332975,-1
408,409,1583586314727,6.8629999999999995,-13.346399,-7.053499700000001,14.503480999999999,-17.42388,-8.788799000000001,-1
409,410,1583586314737,5.8536,-12.8073,-9.2918,13.779091000000001,-16.689222,-11.343229,-1
410,411,1583586314747,5.0058,-11.8105,-12.5307,13.182388000000001,-15.469607,-15.064585000000001,-1
411,412,1583586314758,4.5536,-10.818,-15.634898999999999,12.775739,-14.479357,-16.999638,-1
412,413,1583586314768,3.3455,-8.746099000000001,-18.5087,11.761401,-13.196801999999998,-18.037897,-1
413,414,1583586314778,2.222,-7.693,-18.9651,10.631741,-12.102841999999999,-18.414371,-1
414,415,1583586314788,2.222,-7.693,-18.9651,9.778034,-11.296744,-18.487728,-1
415,416,1583586314798,0.106199995,-6.0176,-18.721199,8.444186,-10.3822155,-18.13717,-1
416,417,1583586314808,-1.2418,-5.7215,-17.668499,7.039077799999999,-10.115903999999999,-16.948812,-1
417,418,1583586314818,-2.9124,-5.6333,-16.491,5.512658999999999,-10.054852499999999,-16.25592,-1
418,419,1583586314828,-2.9124,-5.6333,-16.491,4.441665599999999,-10.072186,-16.337172,-1
419,420,1583586314838,-4.5776997,-5.3531,-16.0671,4.2723093,-9.601955,-15.906185,-1
420,421,1583586314849,-4.3944,-5.1054,-16.4097,4.448119999999999,-9.343869999999999,-16.356218,-1
421,422,1583586314859,-4.3349,-4.9098,-16.8507,4.5288334,-9.16826,-16.65309,-1
422,423,1583586314869,-4.1868,-4.8013,-16.3269,4.670714,-9.036052999999999,-15.8732605,-1
423,424,1583586314879,-4.3545,-4.8036,-14.411798999999998,4.3973629999999995,-9.069638000000001,-13.646069,-1
424,425,1583586314889,-5.0743,-4.9486,-11.249599,3.608464,-9.148188000000001,-10.485464,-1
425,426,1583586314899,-6.2068,-4.7623997000000005,-8.6466,2.2632103,-8.784249,-7.895799,-1
426,427,1583586314909,-7.089699700000001,-4.48,-7.4747996,1.678479,-8.580828,-7.255791,-1
427,428,1583586314920,-7.0903997,-4.3845,-7.6064,1.911454,-8.53122,-7.570810300000001,-1
428,429,1583586314930,-6.3931,-4.4818997000000005,-8.2258,2.8446372,-8.871417999999998,-8.1595545,-1
429,430,1583586314940,-5.4516,-5.0818,-8.451,3.7953076,-9.592694,-7.9396996,-1
430,431,1583586314950,-4.5453,-5.5759,-7.6738,4.493198400000001,-9.891424,-6.913314999999999,-1
431,432,1583586314960,-4.317199700000001,-5.7086997,-6.5813,4.332834200000001,-10.160303,-5.6047974,-1
432,433,1583586314970,-4.7393,-6.1205997000000005,-4.8044,3.8938625,-10.616158500000001,-3.4806137,-1
433,434,1583586314981,-5.0538,-6.3264,-2.3281999,3.6554290000000003,-10.656956,-1.0325328999999999,-1
434,435,1583586314991,-5.1394,-5.9577,-0.32029998,3.5898564,-10.17779,0.46369940000000004,-1
435,436,1583586315001,-5.0414,-5.3722997,0.34309998,3.8223907999999995,-9.730984,0.7528902,-1
436,437,1583586315011,-4.639199700000001,-5.1349,0.21759999,4.2336480000000005,-9.64303,0.45273396,-1
437,438,1583586315022,-4.1984,-4.9137,-0.1025,4.6838346,-9.435655,0.43664494,-1
438,439,1583586315032,-3.5052998,-4.4958,0.159,5.3979672999999995,-9.046942,1.2792603,-1
439,440,1583586315042,-2.5356,-3.7598998999999997,2.1306998999999998,6.6211743,-7.8595896,4.854751599999999,-1
440,441,1583586315052,-1.4509999999999998,-2.4766,5.8841,7.3114705,-7.1321449999999995,8.33255,-1
441,442,1583586315062,-0.93789995,-2.2466,10.791699000000001,7.470196700000001,-7.925861,14.322191,-1
442,443,1583586315073,-0.90529996,-3.3924,15.2836,7.6258387999999995,-9.3310175,17.112738,-1
443,444,1583586315083,-0.44619998,-4.5269,16.7454,8.480052,-10.102296,16.72573,-1
444,445,1583586315093,0.759,-4.9530997,15.293099,9.899995,-10.411321000000001,14.548663000000001,-1
445,446,1583586315103,2.3221,-4.9526997,12.884999,11.286506,-9.969169,12.57225,-1
446,447,1583586315113,3.6719999999999997,-3.9577,11.248899,12.160467,-8.5419655,11.739431,-1
447,448,1583586315123,3.964,-2.5391,10.780999999999999,11.056845,-7.4884787,12.205822,-1
448,449,1583586315133,2.6482,-1.8578999,11.5511,9.6749115,-7.026695,13.101033000000001,-1
449,450,1583586315143,0.9676,-1.2111,12.6031,8.361894,-6.211364,13.458707999999998,-1
450,451,1583586315153,-0.0514,-0.35729998,12.301399,7.9187937,-5.363098,11.881675999999999,-1
451,452,1583586315163,-0.1217,0.3543,10.1172,8.348188,-4.929355,9.157860000000001,-1
452,453,1583586315173,0.5451,0.6357,7.348799700000001,9.166928,-4.792885299999999,6.8195004,-1
453,454,1583586315183,1.2888,0.66099995,5.5478,9.700271,-4.9116087,5.683260400000001,-1
454,455,1583586315194,1.6703999,0.5104,4.5018,9.739489,-5.01545,4.9755054,-1
455,456,1583586315204,1.5655999,0.50049996,3.9415998,9.342195,-4.7968693,4.7707148,-1
456,457,1583586315214,1.1491,0.7276,3.9039998,8.834451,-4.687588,4.929594,-1
457,458,1583586315224,0.6188,0.7818,4.0580997000000005,8.356175,-4.699587999999999,4.8188095,-1
458,459,1583586315234,0.1744,0.7543,3.8616998,8.188533999999999,-4.6725144,4.389606,-1
459,460,1583586315244,0.0047,0.7754,3.3188,8.070653,-4.665926,3.9992075,-1
460,461,1583586315255,-0.0844,0.7593,3.1032,7.963297,-4.711329,3.7445602,-1
461,462,1583586315265,-0.2296,0.6771,2.7693,7.805586,-4.6774178,3.1491797000000004,-1
462,463,1583586315275,-0.3712,0.75509995,2.1090999,7.8476853,-4.440411,2.3951017999999995,-1
463,464,1583586315285,-0.27359998,0.97489995,1.3036,8.048300999999999,-4.377041,1.7678211,-1
464,465,1583586315295,-0.045199998,0.98359996,0.71349996,8.343544,-4.5238156,1.2835889999999999,-1
465,466,1583586315305,0.2625,0.84819996,0.2118,8.610717999999999,-4.6738167,1.0905589,-1
466,467,1583586315316,0.48,0.6831,0.226,8.533194,-4.945655,2.1438064999999997,-1
467,468,1583586315326,0.3217,0.3791,1.4241999,8.067234,-5.3935905,3.1697314,-1
468,469,1583586315336,-0.0835,-0.0056,2.2036998,7.8603271999999995,-5.5285087,3.0863845000000003,-1
469,470,1583586315346,-0.3017,-0.1463,2.1271,7.860901400000001,-5.39542,2.538189,-1
470,471,1583586315356,-0.3011,-0.010799999,1.5620999,7.886328,-5.2415970000000005,1.7648234,-1
471,472,1583586315367,-0.26839998,0.13599999,0.7597,7.9690523,-5.112808,1.2250842,-1
472,473,1583586315377,-0.1761,0.2748,0.1959,8.174341,-5.211266999999999,0.9928466999999999,d
473,474,1583586315387,0.0332,0.1698,-0.0521,8.399778999999999,-5.1258992999999995,1.0372831,-1
474,475,1583586315397,0.2606,0.2611,-0.0019999999,8.478931,-5.151441,1.0297174,-1
475,476,1583586315407,0.33899999999999997,0.2434,-0.0011999999,8.403408,-5.3162866,1.516947,-1
476,477,1583586315417,0.28759998,0.1256,0.3795,8.304537,-5.524218,2.2171263999999997,-1
477,478,1583586315428,0.1762,-0.11109999599999999,1.0971,8.181208,-5.540604,2.5185566,-1
478,479,1583586315438,0.0255,-0.15269999,1.536,8.007608,-5.500582700000001,2.6319556,-1
479,480,1583586315448,-0.1424,-0.1147,1.6574999,8.114773,-5.5247064,2.325622,-1
480,481,1583586315458,0.34739998,-0.1771,0.2801,8.602079,-5.565542,0.97893167,-1
481,482,1583586315468,0.93469995,-0.1611,-1.2366999,9.19858,-5.559298,-0.43109995,-1
482,483,1583586315478,1.6071,-0.1373,-1.7974,9.843597,-5.536668,-0.6729718000000001,-1
483,484,1583586315488,1.8699,-0.1291,-0.96669996,9.975662,-5.5509953,0.38493976,-1
484,485,1583586315499,1.8699,-0.1291,-0.96669996,9.573608,-5.673826999999999,1.7625633,-1
485,486,1583586315509,0.8029999999999999,-0.4723,2.2937999,8.856784,-5.8582954,3.497354,-1
486,487,1583586315519,0.60209996,-0.5308,2.8495,8.840425999999999,-5.889439599999999,3.8386044999999998,-1
487,488,1583586315529,1.2027,-0.45619997,2.6497998,9.571185,-5.76722,3.5590095999999996,-1
488,489,1583586315539,2.1336,-0.39569998,2.024,10.483836,-5.775178400000001,2.773089,-1
489,490,1583586315549,2.998,-0.6484,1.3184999,11.364423,-6.003700299999999,2.2749610000000002,-1
490,491,1583586315560,3.8588,-0.76699996,0.9191,12.320256,-6.0697417,2.0537080000000003,-1
491,492,1583586315570,4.7703,-0.8631,1.4607999,13.222937,-6.251931,2.9919762999999997,-1
492,493,1583586315580,5.621299700000001,-1.2149999,3.2721,13.998237,-6.5381527,4.817833,-1
493,494,1583586315590,6.3051,-1.3647,5.3342,14.760848000000001,-6.574018,6.9616585,-1
494,495,1583586315600,6.7657,-1.3140999,6.5199,15.185282,-6.4384966,7.780264999999999,-1
495,496,1583586315610,6.8782,-1.4346,6.9049997,15.199666,-6.6768155,7.8901205,-1
496,497,1583586315620,6.8603,-1.9296,6.4495997,15.344199,-7.0921235000000005,7.057408000000001,-1
497,498,1583586315631,7.1347,-2.2767,5.1535,15.811279,-7.160750999999999,5.699914,-1
498,499,1583586315641,7.7274,-2.1539,3.8925,16.440523000000002,-6.805259700000001,4.7332315000000005,-1
499,500,1583586315651,8.1333,-1.8691,3.4361,16.750717,-6.4389377,4.6373487,-1
500,501,1583586315662,8.0557995,-1.7301999,3.8621,16.526419,-6.2489147,5.2652135,-1
501,502,1583586315672,7.4279,-1.7777,4.6355,15.7644005,-6.0648193,5.835139,-1
502,503,1583586315682,6.7447996,-1.7443,4.8189,15.176767000000002,-5.8729005,5.429484400000001,-1
503,504,1583586315692,6.0216,-1.7729,4.3191,14.482698000000001,-5.8157554000000005,4.8295455,-1
504,505,1583586315703,5.1916,-1.9395,3.7508,13.799364,-5.763188400000001,3.9839133999999996,-1
505,506,1583586315713,4.482599700000001,-2.0749,2.932,13.393509,-5.6386037,3.2514791,-1
506,507,1583586315723,4.0238,-1.989,2.1852999,13.020042,-5.178237,2.511441,-1
507,508,1583586315733,3.6193,-1.8168999,1.9008,12.502367999999999,-4.951391,2.4145427,-1
508,509,1583586315743,2.8665,-1.9028,2.0175,11.726569999999999,-5.018619999999999,2.6955167999999996,-1
509,510,1583586315753,2.0400999,-2.3253999,2.5698,10.942708,-5.189776999999999,3.0594928,-1
510,511,1583586315763,1.3271998999999999,-2.5932,2.7538998,10.534133,-5.1213026,2.7138755,-1
511,512,1583586315773,0.50299996,-2.7056,1.9448999,9.446218,-4.9574723,1.193998,-1
512,513,1583586315783,-0.53999996,-2.6825,0.6752,8.25897,-4.3099940000000005,0.09928276,-1
513,514,1583586315793,-1.5367998999999999,-2.2472,0.2014,7.414536,-3.6858735,0.10637917,-1
514,515,1583586315804,-2.4278998,-1.8766999,0.4251,6.474984,-3.076578,0.44860634,-1
515,516,1583586315814,-3.3995,-1.4696,0.8829,5.573328,-2.4472668,0.39144242,-1
516,517,1583586315824,-4.3539,-1.0324,0.7978,4.4275494,-1.9142216,-0.40477332,-1
517,518,1583586315834,-5.527199700000001,-0.69879997,0.0569,3.4622836,-1.4808329,-1.1521186,-1
518,519,1583586315844,-6.4097,-0.48279998,-0.5128,3.0514486,-1.3762828999999999,-1.6137686000000002,-1
519,520,1583586315854,-6.6983,-0.6042,-0.7934,3.2757563999999997,-1.6467509999999999,-1.7138078,-1
520,521,1583586315865,-6.3648996,-1.0349,-0.7567,3.790912,-1.8769106,-1.5104731000000002,-1
521,522,1583586315874,-5.9110000000000005,-1.2923,-0.3917,3.8367273999999996,-1.7063571,-1.2392005,-1
522,523,1583586315884,-6.034,-1.1504999,-0.0797,3.241845,-1.5088643,-1.5105306,-1
523,524,1583586315894,-6.6366,-1.0547999,-0.4414,2.5598996,-1.1226125,-2.420538,-1
524,525,1583586315904,-7.2777996,-0.7069,-1.3608999,2.1512189999999998,-0.6827784,-3.3708062000000005,-1
525,526,1583586315915,-7.6141996,-0.37489998,-2.1289,2.1850537999999995,-0.5264083,-3.5070841,-1
526,527,1583586315925,-7.4589,-0.34039998,-2.0328999,2.6513102,-0.62979954,-3.057817,-1
527,528,1583586315935,-6.9391,-0.5248,-1.4426999,3.2363958,-0.8162695,-2.2704885,-1
528,529,1583586315945,-6.3212,-0.7273,-0.47469997,3.7562535,-1.0065416,-1.0313071,-1
529,530,1583586315955,-5.7826,-0.9748,1.2599,3.8028254999999995,-1.1819792,0.44652820000000004,-1
530,531,1583586315966,-5.9712996,-1.1446999,2.0902,3.1721543999999997,-1.4502255,-0.19383456,-1
531,532,1583586315976,-6.6129999999999995,-1.4294,1.1917,2.7193245999999998,-1.6429107,-1.9949542000000002,-1
532,533,1583586315986,-6.961199799999999,-1.6236,-0.70269996,3.1886362999999998,-1.6420968,-4.175957,-1
533,534,1583586315997,-6.4758,-1.5742999,-2.4404,4.213019,-1.3106913999999998,-5.1433295999999995,-1
534,535,1583586316006,-5.125499700000001,-1.1443,-3.5714,6.0400157,-1.0340844,-5.704023,-1
535,536,1583586316016,-3.6062,-0.9008,-3.8871,7.1439724,-1.154168,-4.3241963,-1
536,537,1583586316027,-2.3234,-1.2325,-0.101799995,7.199413000000001,-1.4928518999999998,-1.7515788,-1
537,538,1583586316037,-2.3234,-1.2325,-0.101799995,6.488277,-2.2603276,-0.7665851,-1
538,539,1583586316048,-3.1462998,-2.3720999,1.6585,6.534121,-2.5088742,-0.5304306,-1
539,540,1583586316058,-3.1462998,-2.3720999,1.6585,7.255274000000001,-1.9497900000000001,-1.8368508000000001,-1
540,541,1583586316068,-1.8855,-1.558,-1.0094,7.758391400000001,-1.7900296000000002,-3.472167,-1
541,542,1583586316078,-1.8855,-1.558,-1.0094,8.147803,-1.6505723,-4.1457424,-1
542,543,1583586316088,-0.97529995,-1.0643,-2.1283,8.609961,-1.312894,-4.4345117,-1
543,544,1583586316098,-0.97529995,-1.0643,-2.1283,8.748049,-1.1388258999999998,-4.617419,-1
544,545,1583586316108,-0.5489,-0.7707,-2.4215999,9.012599,-1.1857332,-4.711971,-1
545,546,1583586316118,-0.44219998,-1.0473,-1.8709999,9.08838,-1.5279603000000002,-4.016321,-1
546,547,1583586316129,-0.3539,-1.3400999,-0.6389,9.193130499999999,-1.8252148999999998,-2.7988408,-1
547,548,1583586316139,-0.1672,-1.3919,0.47709998,9.369727000000001,-1.8105049,-1.7831727,-1
548,549,1583586316149,-0.168,-1.1492,0.8817,9.257143,-1.5707017,-1.6773682,-1
549,550,1583586316159,-0.5537,-0.95089996,0.010199999,8.87929,-1.416381,-2.6974416000000003,-1
550,551,1583586316169,-0.6175,-0.696,-1.0654,8.955263,-1.1487284,-3.9821989999999996,-1
551,552,1583586316179,-0.3094,-0.541,-2.1072,9.347893,-1.1095496,-4.9659667,-1
552,553,1583586316190,0.2042,-0.46269998,-2.8077,9.911678,-0.97210336,-5.4125814000000005,-1
553,554,1583586316200,0.69089997,-0.1665,-2.8899,10.26853,-0.6618244000000001,-5.3525825,-1
554,555,1583586316210,0.88799995,0.1335,-2.6086,10.368972,-0.47977886,-5.0412693,-1
555,556,1583586316220,1.0015,0.0242,-1.5123,10.513284,-0.78807545,-3.3786016000000005,d
556,557,1583586316230,1.0992,-0.264,0.58959997,10.425532,-0.9247173000000001,-1.4610184,-1
557,558,1583586316241,0.8052,-0.3401,1.8291998999999999,10.039108,-0.9365159,-0.92388415,-1
558,559,1583586316251,0.3608,-0.21239999,1.2789999,9.560478,-0.53223103,-2.7164805,-1
559,560,1583586316261,0.1268,0.26479998,-0.7545,9.510553999999999,-0.16468278,-4.4859676,-1
560,561,1583586316272,0.24100000000000002,0.601,-2.7783,9.793922,0.03905422,-6.552748,-1
561,562,1583586316282,0.5204,0.6491,-4.1616,10.098331,-0.13252385,-7.6595974,-1
562,563,1583586316292,0.92939997,0.3197,-5.0269,10.516693,-0.70991915,-8.013508,-1
563,564,1583586316303,1.6478,-0.8175,-4.7936,11.588845,-2.1758506,-7.3251557,-1
564,565,1583586316312,2.6171,-1.7981,-4.2736,12.355881,-2.8458056000000003,-7.4907966,-1
565,566,1583586316322,3.1869,-2.3588998,-4.5562,12.532075,-3.2178934,-7.824682000000001,-1
566,567,1583586316332,3.1283998,-2.6469998,-4.8387,12.128680000000001,-3.113142,-8.161736999999999,-1
567,568,1583586316342,2.5648,-2.432,-5.0374,11.249214,-2.7907581,-8.236657000000001,-1
568,569,1583586316353,1.4951,-2.2549999,-5.0976,9.853634,-2.6446831000000004,-8.617393,-1
569,570,1583586316363,-0.0984,-2.233,-5.7801,8.225127,-2.7056107999999996,-10.047804,-1
570,571,1583586316373,-1.4999,-2.5403,-7.6345,7.333660000000001,-3.1188689999999997,-12.476289999999999,-1
571,572,1583586316383,-1.9052,-3.0056,-10.4545,7.685003999999999,-3.5446732000000005,-15.471982,-1
572,573,1583586316393,-1.1938,-3.5514,-13.053599,8.751334,-4.2723856,-16.616812,-1
573,574,1583586316403,-0.078,-4.4364,-12.9487,9.767769,-5.069808,-14.619015,-1
574,575,1583586316413,0.7179,-5.1716,-9.841599,9.65391,-5.47711,-9.90645,-1
575,576,1583586316424,0.122099996,-5.5253,-5.9701,8.219505,-5.440651,-7.720869500000001,-1
576,577,1583586316434,-2.0609999,-5.4821,-3.9141998,5.0553856,-4.645201,-6.780542,-1
577,578,1583586316444,-4.7295,-4.8005,-3.6441998,3.033482,-3.7922814,-7.1047554,-1
578,579,1583586316454,-6.5389,-4.1344,-4.1179,2.340562,-3.357868,-7.3805485,-1
579,580,1583586316464,-7.0122,-3.8781998,-4.5513997,2.6519997,-3.135552,-7.544915,-1
580,581,1583586316474,-6.7214,-3.7256,-4.8571,2.6378164,-2.9680057,-7.657576,-1
581,582,1583586316485,-6.957000000000001,-3.6548,-4.887,1.9546837,-3.0071652,-6.394808,-1
582,583,1583586316495,-7.6949,-3.7891,-3.5593998,1.0444752,-2.90636,-3.8464766000000004,-1
583,584,1583586316505,-8.6505995,-3.7589998,-0.86259997,0.24148875,-2.9086293999999997,0.24071305,-1
584,585,1583586316515,-9.4161,-3.8011,3.3383,-0.45165178,-2.0183983,4.6386986,-1
585,586,1583586316525,-10.1428995,-2.7549,7.382999999999999,-1.2443528,-0.27204835,7.776013000000001,-1
586,587,1583586316535,-10.9923,-1.0160999,10.0618,-2.2288964,1.4289745,8.814685,-1
587,588,1583586316545,-11.9762,0.5636,10.414599,-2.7499130000000003,2.4839652,7.898519500000001,-1
588,589,1583586316555,-12.3672,1.5411999,9.164599,-2.3397097999999996,3.2181040000000003,7.283726700000001,-1
589,590,1583586316565,-11.777699,2.2602,8.6001,-0.8023161999999999,3.3094954,8.085622,-1
590,591,1583586316576,-10.1053,2.3202,9.4601,1.1556716,2.7705509999999998,9.8621,-1
591,592,1583586316586,-8.211599,1.8562,11.2796,2.9512846,2.2122808,12.76484,-1
592,593,1583586316596,-6.4893,1.4444,14.312999999999999,4.4500836999999995,1.7803284,19.005717999999998,-1
593,594,1583586316606,-5.3321,1.2838,19.6255,4.7753596,1.8037533,23.364449,-1
594,595,1583586316617,-4.995199700000001,1.5591999,24.6582,4.960767,2.4716494,26.210236,-1
595,596,1583586316627,-4.8595,2.3053,26.4483,5.1862144,2.5512132999999997,25.283966,-1
596,597,1583586316637,-4.6285,2.5686,25.331,6.006324299999999,1.345436,22.432261999999998,-1
597,598,1583586316647,-4.0564,1.8619,22.7776,7.4904227,0.12318646,20.638239000000002,-1
598,599,1583586316658,-2.3109,0.5658,20.4126,9.980603,-1.0943992,19.739897,-1
599,600,1583586316668,2.5562,-1.1208,20.5935,12.6526375,-2.2401204,21.063822000000002,-1
600,601,1583586316678,3.4694998,-1.8224,21.1241,13.225121,-3.1561515,21.157532,-1
601,602,1583586316688,3.1887999,-2.7769999999999997,19.7015,12.812704,-4.37254,19.294565,-1
602,603,1583586316698,2.9019999999999997,-3.9620998,16.6775,12.634557000000001,-5.752941000000001,15.962162,-1
603,604,1583586316709,3.4838998,-5.081,13.3284,13.531559,-7.306385000000001,11.992077,-1
604,605,1583586316719,4.9449,-6.6731997000000005,8.6593,15.071232,-9.091033,6.8417187,-1
605,606,1583586316729,6.7152996,-8.031199,3.2763,16.641598000000002,-10.391860000000001,1.9939581999999998,-1
606,607,1583586316739,8.4395,-8.7253,-1.1104,18.258844,-11.095334,-2.1675284,-1
607,608,1583586316749,9.5554,-8.650499,-3.2443,19.141644,-11.066881,-3.88985,-1
608,609,1583586316759,9.3524,-8.2494,-2.8527,18.134775,-10.790983,-3.1977437,-1
609,610,1583586316770,7.2584995999999995,-8.2683,-2.7986,15.609668,-11.1910925,-4.500333,-1
610,611,1583586316780,4.9135,-8.9275,-5.8822,13.717492000000002,-12.034493,-8.615774,-1
611,612,1583586316790,4.0523,-9.6122,-10.6421995,13.451304,-12.531414,-12.651307000000001,-1
612,613,1583586316800,4.9632998,-9.8504,-15.731098999999999,14.938151999999999,-12.828334,-18.645689,-1
613,614,1583586316810,6.7307,-9.801,-19.6336,16.578583,-12.8085575,-21.908468,-1
614,615,1583586316821,7.7187996,-9.6758995,-21.6197,16.816114000000002,-12.555405,-23.286848000000003,-1
615,616,1583586316831,6.8485,-9.0223,-21.9287,15.241919000000001,-11.809064999999999,-23.2936,-1
616,617,1583586316841,4.5603,-8.3574,-21.724698999999998,12.737421000000001,-11.095095,-23.248686,-1
617,618,1583586316851,2.0365999,-7.6373,-21.3338,10.27148,-10.194645,-22.738796,-1
618,619,1583586316861,-0.42479998,-6.6958,-20.334099,7.8300165999999995,-9.153569000000001,-21.745749,-1
619,620,1583586316871,-2.6375,-5.8387,-19.2039,5.966016000000001,-8.155207,-20.68321,-1
620,621,1583586316882,-3.9843,-4.7844,-18.3962,4.979019999999999,-6.892792,-20.355646,-1
621,622,1583586316892,-4.6403,-3.6146998,-18.5853,4.396875,-5.5984287,-20.485048000000003,-1
622,623,1583586316902,-5.062999700000001,-2.8165,-18.479399,4.002071,-4.9215784000000005,-19.800392000000002,-1
623,624,1583586316912,-5.5432997,-2.3904998,-17.3433,3.4653485,-4.673999,-17.847816,-1
624,625,1583586316922,-6.1881,-2.3444,-15.0042,2.7526232999999998,-4.7286152999999995,-14.912773000000001,-1
625,626,1583586316932,-6.9582,-2.5324,-11.8438,1.9712803,-4.789418,-11.751928999999999,-1
626,627,1583586316942,-7.7359,-2.6849,-8.8286,1.4805552,-4.852491400000001,-9.475178,-1
627,628,1583586316953,-8.1874,-2.8693,-6.2938,1.1696441,-4.9255815,-6.835474499999999,-1
628,629,1583586316963,-8.2442,-2.9666997999999998,-4.3399,1.3056444,-4.9076633,-5.1688704,-1
629,630,1583586316973,-8.0547,-2.9496999,-3.1181997999999997,1.6841773000000002,-4.891229599999999,-4.7020874,-1
630,631,1583586316983,-7.6098,-3.0117998,-3.1655998,2.1530192,-5.0436254,-4.856389,-1
631,632,1583586316993,-7.1535997,-3.2171,-3.2568998,2.4602146,-5.189671499999999,-4.663981400000001,-1
632,633,1583586317003,-6.625,-3.5268,-2.4956,3.1852650000000002,-5.665227,-3.0446967999999996,-1
633,634,1583586317013,-6.22,-3.7459,-0.97249997,3.3948440000000004,-5.776471,-0.9111853000000001,-1
634,635,1583586317024,-6.1253,-3.8305998,1.3988,3.3591127,-5.9509225,1.9017814,-1
635,636,1583586317034,-6.2541,-3.9459998999999994,4.3733,3.088319,-5.93741,5.740759400000001,-1
636,637,1583586317044,-6.5092998,-3.8393,7.5106997,2.7168443,-5.745921599999999,8.56968,-1
637,638,1583586317054,-6.9009,-3.6181997999999997,10.102699000000001,2.4296167,-5.6309805,10.113328,-1
638,639,1583586317064,-7.1625,-3.4025,11.6282,2.4354682,-5.281503,11.244952,-1
639,640,1583586317074,-7.007000000000001,-2.9155998,12.1821995,2.9592428,-4.4770427,11.660634,-1
640,641,1583586317084,-6.4715,-2.0059,12.372,3.6722171,-3.5695155,12.0034075,-1
641,642,1583586317095,-5.6341996,-0.8398,12.6911,4.6308365,-2.757268,13.057909,-1
642,643,1583586317105,-4.6177998,-0.017199999,13.7934,5.1944504,-2.6287377,15.162738000000001,-1
643,644,1583586317115,-4.2383,0.1037,16.0536,4.518223,-3.0594257999999996,18.191105,-1
644,645,1583586317125,-5.115999700000001,-0.3337,19.0803,3.3429568,-3.7259907999999995,20.86066,-1
645,646,1583586317135,-6.1376,-0.7675,21.435799,3.0520134,-3.568165,22.069923,-1
646,647,1583586317146,-6.1805997,-0.2625,22.2319,3.5836122,-2.737262,21.594473,-1
647,648,1583586317156,-5.5063996,0.7355,21.314999,4.812863,-2.0034490000000003,19.39947,-1
648,649,1583586317166,-4.3596997,1.4875,19.309,5.8824773,-1.6330084999999999,18.060326,-1
649,650,1583586317176,-2.9380999,2.1151,17.6194,7.3098617,-1.7315154,16.745639999999998,-1
650,651,1583586317186,-1.6952,2.1699,16.5245,7.585310000000001,-2.5273767000000005,16.192284,-1
651,652,1583586317196,-1.3313,1.3316,15.7806,7.179836999999999,-4.033195500000001,15.196007999999999,-1
652,653,1583586317207,-1.6480999,0.253,14.888599,6.6961417,-5.1330540000000004,13.852514999999999,-1
653,654,1583586317217,-2.0296,-0.6401,13.5152,6.619603999999999,-6.4218807,12.381778,-1
654,655,1583586317227,-2.0012,-1.7358999,11.988,7.170873599999999,-7.560850599999999,10.937717999999998,-1
655,656,1583586317237,-1.3345,-2.6678998,10.501699,8.070758,-8.741729,9.382531,-1
656,657,1583586317248,-0.304,-3.6343,8.8747,9.209603,-9.476097,7.396685000000001,-1
657,658,1583586317258,0.8037,-4.0818,7.0722,9.583041,-9.697608,6.7468604999999995,-1
658,659,1583586317268,1.5534999,-4.2618,5.8563,9.408351,-10.271308,5.5593176,-1
659,660,1583586317278,0.6561,-4.8924,3.7442,8.258301,-10.8700485,4.4716214999999995,-1
660,661,1583586317288,-0.12799999,-5.4879,2.3,7.4613857,-11.77863,2.9156107999999996,-1
661,662,1583586317298,0.0424,-6.6085997,-0.0762,7.7311645,-13.035614,0.66883457,-1
662,663,1583586317309,0.0424,-6.6085997,-0.0762,9.07139,-13.831045000000001,-0.7408425999999999,-1
663,664,1583586317321,2.9615,-7.7517996,-2.5298998,10.407164,-14.304895000000002,-1.2090239999999999,-1
664,665,1583586317332,3.638,-7.5917997,-2.6808999,10.442003999999999,-13.877157,-1.3711785,-1
665,666,1583586317342,3.0346,-6.9068,-2.9982998,9.198456,-13.326203,-1.4598788999999999,-1
666,667,1583586317352,1.7409999,-6.3325,-3.0943,7.881367,-12.949739,-1.5837069,-1
667,668,1583586317363,0.7651,-6.0951,-3.7015,7.3986773,-13.199972,-2.900834,-1
668,669,1583586317373,0.8986,-6.4802,-5.7348,8.354365,-13.798684,-5.159495400000001,-1
669,670,1583586317383,2.4949,-7.0983996,-7.9563,10.244607,-14.503537,-6.944209599999999,-1
670,671,1583586317393,4.4951,-7.6176,-9.4303,11.764275,-14.824073,-7.314822,-1
671,672,1583586317403,5.6716,-7.6327996,-9.052899,12.099260000000001,-14.586395999999999,-6.0341062999999995,-1
672,673,1583586317413,5.5167,-7.271,-7.4259,10.762895,-14.071031,-3.9963727,-1
673,674,1583586317424,4.1017,-6.705,-5.7865996,9.364547,-13.442148999999999,-2.9305797,-1
674,675,1583586317434,2.3989,-5.8245997,-4.7216997,7.914081599999999,-12.413552000000001,-2.6207125,-1
675,676,1583586317444,1.2958,-4.7878,-5.1075,7.4304724,-11.360641000000001,-3.7186646,-1
676,677,1583586317454,1.2119,-3.9980998,-6.1219997,7.7282147,-10.636978,-4.4361587,-1
677,678,1583586317464,1.5739,-3.2742999,-6.9016,7.991768400000001,-10.168433,-4.8970910000000005,-1
678,679,1583586317474,1.7946999,-2.9190998,-7.3128996,7.9876413,-10.249099000000001,-4.4192557,-1
679,680,1583586317485,1.7794,-3.0695999,-6.5748,7.970058,-10.340308,-3.298166,-1
680,681,1583586317494,1.7641,-3.0405998,-5.1261,7.8608923,-9.988514,-1.7601022000000002,-1
681,682,1583586317504,1.6074,-2.6794,-3.9153,7.425808,-9.855493,-0.67694616,-1
682,683,1583586317514,1.1157,-2.5976999,-2.8327,6.813783,-9.857061999999999,0.19537644,-1
683,684,1583586317524,0.5151,-2.6002998,-2.0402,6.3696012,-9.684556,0.5717545,-1
684,685,1583586317534,0.1219,-2.372,-1.8435999,6.2326527,-9.351742,0.28434497,-1
685,686,1583586317545,0.024899999,-1.9906,-2.4477,6.287815599999999,-8.971696000000001,-0.9231754000000001,-1
686,687,1583586317555,0.1241,-1.666,-3.6144,6.473068700000001,-8.435089,-1.9707631999999997,d
687,688,1583586317565,0.3266,-1.1044999,-4.5196,6.775035400000001,-7.94013,-1.8350215,-1
688,689,1583586317575,0.63019997,-0.6653,-4.0587,6.8823433000000005,-7.807606,-0.43442309999999995,-1
689,690,1583586317586,0.6432,-0.62409997,-2.4512,6.605057,-8.017684,1.4546404,-1
690,691,1583586317596,0.28959998,-0.85819995,-0.52129996,6.0146365,-8.194443,3.141892,-1
691,692,1583586317606,-0.2395,-0.9788,0.84529996,5.716444,-8.260283,3.2584894,-1
692,693,1583586317616,-0.57559997,-1.0551,0.9144,5.722918,-8.193159,2.7381241000000003,-1
693,694,1583586317626,-0.5207,-0.95769995,0.24489999,5.919606,-7.8621464,1.5361388999999999,-1
694,695,1583586317636,-0.3531,-0.67509997,-0.81329995,5.991949,-7.7158895,0.6182786,-1
695,696,1583586317647,-0.2561,-0.5196,-1.9721999,6.257773,-7.5041466,-0.16681841,-1
696,697,1583586317657,-0.0287,-0.34129998,-2.5340998,6.5699863,-7.4219007,0.34403720000000004,-1
697,698,1583586317667,0.2677,-0.25669998,-2.0088,6.618052499999999,-7.4682527,1.6346843,-1
698,699,1583586317677,0.2929,-0.3074,-0.6544,6.3781343,-7.527552,3.248558,-1
699,700,1583586317687,0.021499999,-0.3797,1.0258,5.8318443,-7.628501400000001,4.0254864999999995,-1
700,701,1583586317698,-0.5505,-0.48569998,1.8407999,5.5238924,-7.859149,3.5661538,-1
701,702,1583586317707,-0.86719996,-0.7226,1.38,5.8199115,-7.974999400000001,2.7260475,-1
702,703,1583586317717,-0.5743,-0.8515,0.504,6.435423,-7.987938000000001,1.6409189,-1
703,704,1583586317727,0.051,-0.88009995,-0.6346,6.8764443,-7.9681425,0.36517322,-1
704,705,1583586317738,0.5106,-0.8684,-1.9477999,7.229426400000001,-8.141914,-0.2551836,-1
705,706,1583586317747,0.8548,-1.0516,-2.5788999,7.69958,-8.472333,0.26801652,-1
706,707,1583586317757,1.3145,-1.3801,-2.0635,7.9033265,-8.653008,1.2268847,-1
707,708,1583586317767,1.2523,-1.7314,-0.13759999,7.6065892999999996,-8.81909,2.229921,-1
708,709,1583586317777,1.2523,-1.7314,-0.13759999,7.216488000000001,-8.934567,2.5308435,-1
709,710,1583586317787,0.7506,-1.8772999,0.32529998,6.958757,-9.240805,2.2351022,-1
710,711,1583586317797,0.46089998,-2.2034,0.0337,7.5505266,-9.758402,1.1131697,-1
711,712,1583586317808,2.47,-3.3495,-3.0060000000000002,9.33935,-10.495635,-1.0696622,-1
712,713,1583586317818,2.47,-3.3495,-3.0060000000000002,10.438039,-10.950657000000001,-1.8486015,-1
713,714,1583586317828,4.2875,-4.1281,-4.3142,12.239284,-11.825009,-2.5897121,-1
714,715,1583586317838,6.2194,-5.4219,-4.4674997,12.826754,-12.462261,-2.0343533,-1
715,716,1583586317848,6.2776,-5.7711,-3.411,12.868336,-12.739327000000001,-0.8693155,-1
716,717,1583586317858,6.0306997,-6.0348,-2.3188,12.670077000000001,-12.944894,0.17224844,-1
717,718,1583586317869,6.0306997,-6.0348,-2.3188,12.691547,-12.948819,0.7833157,-1
718,719,1583586317879,6.2019,-6.143399700000001,-1.7681999,13.096369000000001,-12.857735,0.16069882,-1
719,720,1583586317889,6.6471995999999995,-6.0329,-3.122,13.64807,-12.624262,-1.184584,-1
720,721,1583586317899,7.089699700000001,-5.7606997,-4.1531997,14.108016000000001,-12.307260000000001,-2.0487759999999997,-1
721,722,1583586317909,7.1614,-5.7858996,-4.5360000000000005,14.171979,-12.2793045,-2.3148866000000003,-1
722,723,1583586317920,7.0539,-5.8826,-4.4597,14.200097,-12.31407,-2.1653256,-1
723,724,1583586317930,7.0502,-6.0705,-3.9266998999999996,14.266645,-12.447061999999999,-1.5619197,-1
724,725,1583586317940,7.0414996,-6.5393996,-2.2505,14.408354000000001,-12.853014,0.58459705,-1
725,726,1583586317950,7.0559997999999995,-6.7875,-0.028999999999999998,14.533887,-12.898465,2.2891824,-1
726,727,1583586317960,6.8693,-6.5979,2.1296,14.275504000000002,-12.262642,4.5411589999999995,-1
727,728,1583586317970,5.8835998,-5.9625998,3.6258998,13.169594,-11.459875,5.1475434,-1
728,729,1583586317981,4.3757997,-5.4239999999999995,3.3063998,11.716992999999999,-10.736310000000001,4.255885,-1
729,730,1583586317991,2.9212,-4.7792,2.2979998999999998,10.715442,-9.734498,3.251345,-1
730,731,1583586318001,2.9212,-4.7792,2.2979998999999998,10.44165,-8.916706,2.8314692999999997,-1
731,732,1583586318011,1.9718,-3.2944998999999995,1.7904999,10.367362,-7.9208045,2.8882406,-1
732,733,1583586318022,1.6425999,-2.7649,2.1608,9.782727000000001,-7.0401883000000005,3.1288004000000003,-1
733,734,1583586318033,0.6227,-2.303,2.5325,8.598353999999999,-6.382903,3.2598205,-1
734,735,1583586318043,-0.6818,-1.9567,2.8832,7.72244,-5.971656299999999,3.4406211000000004,-1
735,736,1583586318053,-1.3924999,-2.0008,3.4836998,7.725677,-6.181647,4.405063,-1
736,737,1583586318064,-1.0558,-2.6543,5.0674,8.665372,-6.405409,5.956841000000001,-1
737,738,1583586318074,-0.108799994,-2.6908998,6.6238,9.291016,-5.574439,6.640194,-1
738,739,1583586318084,-0.1662,-1.9363999,6.8431997,7.875602199999999,-4.4777317000000005,5.3032045,-1
739,740,1583586318094,-1.8892,-1.3804,5.3936,5.7346783,-3.6793902000000003,3.0110917,-1
740,741,1583586318104,-4.1138,-0.9295,3.1755,4.109063,-2.901236,0.6861974000000001,-1
741,742,1583586318114,-5.5927997000000005,-0.3811,0.9806,3.4091324999999997,-2.1175756000000003,-0.5704617,-1
742,743,1583586318125,-6.2314997000000005,0.088999994,0.24069999,3.2955612999999997,-1.3764745,0.2311075,-1
743,744,1583586318135,-6.2985,0.5578,1.4128,3.3567474,-0.658032,1.8743535,-1
744,745,1583586318145,-6.3238997,0.98359996,3.1754,2.9314508,-0.09359413400000001,3.4860535,-1
745,746,1583586318156,-6.8872,1.2468,4.8842,2.1282537,0.07430644,4.7862873,-1
746,747,1583586318166,-7.6944,1.0193,6.2576,1.6839283,-0.019833567,5.5766706,-1
747,748,1583586318176,-8.081099499999999,0.6852,7.1471,1.5437717,-0.27774656,5.8837795,-1
748,749,1583586318186,-8.1405,0.2738,7.3452997,1.5545839,-0.39964014,5.842532,-1
749,750,1583586318196,-8.094,0.0036,7.2938,1.7936593,-0.05507622,4.648084,-1
750,751,1583586318207,-7.9049997,0.1973,6.1285996,2.1936345,0.32693306,1.9185504,-1
751,752,1583586318217,-7.5153,0.44979998,3.3337998,2.995606,1.0699496000000002,-0.29013896,-1
752,753,1583586318227,-6.7348,1.0983,1.0446,4.063554,1.7119212,-1.3369414,-1
753,754,1583586318237,-5.6653,1.6626999,-0.0635,5.222414499999999,1.8570961,-1.6579176,-1
754,755,1583586318247,-4.5109,1.7407999,-0.4127,6.1678370000000005,1.4909652,-0.9518004999999999,-1
755,756,1583586318257,-3.5667998999999995,1.3025,0.3056,6.3242645,0.744999,0.38233486,-1
756,757,1583586318267,-3.4025,0.46409997,1.6594,5.4462247,0.12468045,1.629398,-1
757,758,1583586318277,-4.2753997,-0.265,2.9589,4.1801324,-0.1588888,2.5095544,-1
758,759,1583586318287,-6.3996997,-0.4719,4.026799700000001,3.2303336,0.2719047,2.635135,-1
759,760,1583586318298,-6.3996997,-0.4719,4.026799700000001,3.4183837999999995,0.87455404,2.2933578,-1
760,761,1583586318308,-5.1858997,0.80329996,3.0063,4.824364,1.5910045,1.6159999999999999,-1
761,762,1583586318318,-3.8061998,0.97419995,2.1162999,6.165682299999999,1.6945968,0.5837255,-1
762,763,1583586318328,-2.5428,0.9263,0.3549,7.4238734,1.5988288,-1.2844508999999997,-1
763,764,1583586318338,-1.4632,0.7553,-1.1306,8.411386,1.4080108,-2.5147447999999994,-1
764,765,1583586318349,-1.4632,0.7553,-1.1306,8.794889,1.1054507,-2.4279599999999997,-1
765,766,1583586318359,-1.0412999,-0.0241,-0.3225,8.5571165,0.58655065,-1.4496987,-1
766,767,1583586318369,-1.6909999999999998,-0.45369998,0.9508,7.829451,0.2059205,-0.15990394,-1
767,768,1583586318379,-2.4786,-0.66539997,2.323,7.070614,0.11773726,1.1200651000000001,-1
768,769,1583586318389,-3.0039999999999996,-0.5865,2.7375998,6.628491400000001,0.23927651,1.2555863999999999,-1
769,770,1583586318400,-3.0038998,-0.31379998,2.1046,6.854982400000001,0.6437338,0.37047875,-1
770,771,1583586318410,-2.3688998,0.0379,1.1996,7.7130355999999995,0.9479794,-0.64696115,-1
771,772,1583586318420,-1.4211999,0.3473,0.0418,8.597281,1.1965263000000002,-1.8088577000000001,-1
772,773,1583586318430,-0.6781,0.47849998,-1.0148,9.131581,1.1871793,-2.5814188,-1
773,774,1583586318440,-0.2659,0.1759,-1.6732999,9.53148,0.6331034999999999,-3.16433,-1
774,775,1583586318450,-0.0278,-0.4096,-1.5263,9.740253,0.116453975,-2.6858249,-1
775,776,1583586318460,0.1138,-0.6940000000000001,-0.7082,9.759638,-0.07153875,-1.9216628,-1
776,777,1583586318471,-0.117199995,-0.73609996,-0.21100000000000002,9.395173,-0.07833828,-1.7121990000000002,-1
777,778,1583586318481,-0.5458,-0.6798,-0.2172,9.053913,0.046983816,-1.7325305,-1
778,779,1583586318491,-0.8088,-0.46859998,-0.21239999,8.837036999999999,0.3456557,-1.7648907,-1
779,780,1583586318501,-0.72969997,-0.24319999,-0.2914,9.09042,0.5389826999999999,-1.8108976000000003,d
780,781,1583586318511,-0.32819998,-0.1468,-0.30539998,9.509606,0.5645623000000001,-1.8170745,-1
781,782,1583586318521,0.0534,-0.2592,-0.35689998,9.861142,0.34835637,-2.0667994,-1
782,783,1583586318532,0.23969999,-0.456,-0.76489997,9.959372,0.16274826,-2.5917234000000002,-1
783,784,1583586318542,0.4368,-0.6042,-1.6469999999999998,10.233996000000001,0.026489448,-3.5304134,-1
784,785,1583586318552,0.8208,-0.7272,-2.3513,10.707444,-0.0962086,-3.9366519999999996,-1
785,786,1583586318562,1.1753,-0.685,-2.2569999999999997,10.908452,0.24978228,-3.5890519999999997,-1
786,787,1583586318572,1.1863999,-0.3047,-1.9157,10.680879,0.67617047,-3.153968,-1
787,788,1583586318582,0.81509995,0.0709,-1.2667999,10.051874,0.9903376,-2.0160424999999997,-1
788,789,1583586318593,0.0517,0.3094,0.16129999,9.1302595,1.2280723,-0.54357,-1
789,790,1583586318602,-0.9181,0.4116,1.2608,8.507767,1.2734472,-0.16889656,-1
790,791,1583586318612,-1.4972,0.3983,1.0919,7.9904660000000005,1.2565823999999999,-0.6540767,-1
791,792,1583586318622,-1.8712,0.3234,0.65169996,7.715783999999999,1.2710146999999998,-0.4414429,-1
792,793,1583586318632,-1.9403,0.4863,1.4604,7.808803599999999,1.6220333999999998,0.8063767,-1
793,794,1583586318643,-1.7626,0.85069996,2.7832,7.936740400000001,1.8434012,2.3848548,-1
794,795,1583586318653,-1.9577999,0.9863,4.7689,6.5138664,2.0377145,5.4153585,-1
795,796,1583586318664,-3.5570998,1.1968,7.3924,4.697989,2.325421,7.304537299999999,-1
796,797,1583586318674,-6.0422997,1.5358,9.458,1.4436845,2.7335942,10.150582,-1
797,798,1583586318684,-8.7872,1.8873999,12.0975,-1.4271741000000002,3.3462512,13.454034,-1
798,799,1583586318694,-11.7225,2.5111,15.3019,-3.9275059999999997,3.8468692000000004,15.530045999999999,-1
799,800,1583586318704,-14.757999,3.1272,17.3577,-6.554941,4.5784035,17.217968,-1
800,801,1583586318714,-16.479599,3.8693,18.4593,-6.932114,5.1609793,18.370576999999997,-1
801,802,1583586318724,-16.5611,4.4241,19.674799,-6.1479845,4.5008693,19.436033,-1
802,803,1583586318734,-15.606198999999998,3.6627,20.484999,-4.44791,2.9662054,18.198355,-1
803,804,1583586318744,-13.759298999999999,2.3727,18.8909,-2.430402,1.6714113999999998,15.375448,-1
804,805,1583586318755,-11.754399000000001,1.4629999,16.0108,-0.5789563,0.62579644,11.219182,-1
805,806,1583586318765,-9.885799,0.6203,11.6792,1.2477909,-1.2596661,6.0821819999999995,-1
806,807,1583586318775,-8.0357,-1.1255,6.6889997,3.4159032999999996,-4.146604,1.2049538999999998,-1
807,808,1583586318785,-5.6506,-3.8362,1.8901999,6.3819360000000005,-7.663916,-4.5558305,-1
808,809,1583586318795,-2.4729,-7.0815997,-3.8025,9.792074000000001,-10.968748,-9.599953999999999,-1
809,810,1583586318806,1.0063,-9.7961,-8.3228,12.927242999999999,-13.128432,-12.396803,-1
810,811,1583586318816,4.1161,-11.475999999999999,-10.5994,15.093066,-14.870607000000001,-14.896482999999998,-1
811,812,1583586318826,6.1091,-12.7891,-13.311399,16.007767,-16.47476,-19.999111,-1
812,813,1583586318836,6.8371,-13.8552,-17.651,15.570001000000001,-17.334978,-22.585491,-1
813,814,1583586318846,6.2834,-14.5526,-20.650799,14.288557999999998,-17.527328,-24.872528,-1
814,815,1583586318857,5.250099700000001,-14.443,-22.596999999999998,13.535792,-17.743305,-26.54797,-1
815,816,1583586318867,4.5381,-14.4609995,-24.3676,13.683322,-17.759815,-26.945984000000003,-1
816,817,1583586318877,4.7265,-14.321098999999998,-24.8364,14.089552,-17.63074,-26.419078999999996,-1
817,818,1583586318887,5.1893997,-14.0394,-24.094599,13.066413,-17.484787,-24.912245000000002,-1
818,819,1583586318899,2.245,-13.3201,-21.9361,10.684844,-16.740623,-24.077423,-1
819,820,1583586318909,0.29299998,-11.543799,-22.4382,8.8057785,-14.795697,-24.548113,-1
820,821,1583586318919,-1.3168,-9.3825,-21.833199,7.2439637,-12.695427,-23.497366,-1
821,822,1583586318930,-3.2138999,-7.7837996,-19.9215,5.250446,-11.16198,-21.439241,-1
822,823,1583586318940,-5.4649,-6.4641,-18.407,2.730434,-9.655337,-19.274378,-1
823,824,1583586318950,-7.2181997,-5.3596997,-15.9661,1.2369403,-8.48552,-16.340139999999998,-1
824,825,1583586318960,-8.401299,-4.2681,-13.149099,0.44324335,-7.645433000000001,-14.096226999999999,-1
825,826,1583586318970,-9.0159,-3.6755,-10.5458,-0.022936452000000003,-7.225318,-10.725123,-1
826,827,1583586318981,-9.0307,-3.9634998,-7.303499700000001,0.20333476,-7.76363,-6.985983999999999,-1
827,828,1583586318990,-8.4795,-4.5011997,-3.7791,0.870072,-8.200610000000001,-3.964597,-1
828,829,1583586319000,-7.4045997,-4.8652997000000004,-0.82119995,1.9787598000000002,-8.52557,-1.4426118,-1
829,830,1583586319010,-6.4579997,-4.955899700000001,0.44349998,2.7182522000000002,-8.736433,-0.46983814,-1
830,831,1583586319021,-5.3566,-5.2285,1.2808,4.428373000000001,-8.988177,0.67951274,-1
831,832,1583586319031,-2.8621,-4.7338,2.3789,7.454146000000001,-8.501676,2.5572946,-1
832,833,1583586319042,0.5854,-4.5754,5.8262997,10.607702,-9.120597,7.493784,-1
833,834,1583586319052,2.9598,-5.8974,12.288899,12.270715,-10.922568,14.805121,-1
834,835,1583586319062,3.7921998999999995,-7.7054,19.812898999999998,12.614953,-13.043774,23.419287,-1
835,836,1583586319072,3.9991,-8.938399,25.850899,13.098535,-13.986820999999999,28.195488,-1
836,837,1583586319082,4.8273,-9.2985,29.4026,14.649593,-13.138276999999999,29.497896,-1
837,838,1583586319093,7.0822997,-7.7521996,28.914998999999998,17.580376,-11.410985,27.532324,-1
838,839,1583586319103,10.1643,-6.2068,26.4627,20.322453,-10.455221,25.459866,-1
839,840,1583586319113,12.585799,-5.4609,24.4744,21.99989,-9.903357000000002,23.958689,-1
840,841,1583586319123,13.637898999999999,-4.9907,23.2885,22.151844,-9.545299,23.212398999999998,-1
841,842,1583586319133,13.2813,-4.6937,22.3841,21.239386,-9.073095,21.807041,-1
842,843,1583586319143,12.0364,-4.1274,20.6554,19.593018,-8.013355,19.741457,-1
843,844,1583586319154,10.6153,-3.3521,19.0082,18.339882,-7.2153673,17.817764,-1
844,845,1583586319164,9.300099000000001,-2.7303998,17.022999,17.274883,-6.471853299999999,15.077648000000002,-1
845,846,1583586319174,8.1945,-2.1775,14.1795,16.674982,-6.1021113,12.285521000000001,-1
846,847,1583586319184,7.5186996,-2.0607,10.697499,16.2161,-6.0698376,8.121276,-1
847,848,1583586319194,7.0895,-2.3081,7.5060997,15.826832000000001,-6.2284584,5.150512,-1
848,849,1583586319204,6.5748997000000005,-2.7128,4.6296,15.300462,-6.553869000000001,1.7764977,-1
849,850,1583586319215,5.996,-3.2635999,1.4311,15.031410999999999,-6.782026299999999,-0.5982823,-1
850,851,1583586319225,5.7064,-3.6460000000000004,-0.4042,14.801682000000001,-6.548831,-1.0395241,-1
851,852,1583586319235,5.3143,-3.5964,-0.42200000000000004,13.868959,-6.4437165,-0.52865887,-1
852,853,1583586319245,4.1133,-3.8249998,0.2914,11.934722,-6.629899000000001,-0.01733402,-1
853,854,1583586319255,2.0063999,-4.282099700000001,0.8504,9.815928999999999,-6.733146700000001,-0.38011304,-1
854,855,1583586319266,-0.071499996,-4.5866,0.41349998,8.514413000000001,-6.5316215,-1.658023,-1
855,856,1583586319276,-1.1862,-4.6085997,-0.8037,8.224227,-6.0049453,-3.7051038999999997,-1
856,857,1583586319286,-1.3768,-4.3912997,-2.3816,8.237069,-5.3594203,-4.800365,-1
857,858,1583586319296,-1.3715998999999999,-3.9945998,-3.3123,7.5759916,-4.7468786,-4.793939,-1
858,859,1583586319306,-2.032,-3.6044998,-3.1497,6.0928984,-4.049936,-4.310453400000001,-1
859,860,1583586319316,-3.508,-3.1636,-2.4938998,3.9782245,-3.2861662000000003,-3.3117362999999997,-1
860,861,1583586319327,-5.6117,-2.6655998,-1.306,1.6798772000000002,-2.7798312000000003,-2.5746765,-1
861,862,1583586319337,-7.8924,-2.4341,-0.39859998,-0.22591688,-2.2047915000000002,-2.2673185,-1
862,863,1583586319347,-9.7448,-2.1118999,0.059499998,-1.2774119,-1.8264503,-2.0245943,-1
863,864,1583586319357,-10.9172,-1.8733,0.4662,-1.5287361000000002,-1.341998,-1.9056216000000001,-1
864,865,1583586319367,-10.8919,-1.5545,0.5888,-0.9093178,-0.34226552,-2.8457196,-1
865,866,1583586319377,-10.0139,-0.0841,-1.2514,-0.6870018,0.84579486,-4.263441,-1
866,867,1583586319388,-10.3749,0.6978,-1.8898,-1.2945065,1.7857968000000002,-4.9221725,-1
867,868,1583586319398,-10.3749,0.6978,-1.8898,-1.9870628000000001,2.334021,-5.064857,-1
868,869,1583586319408,-11.2829,1.3499,-2.1016998,-3.2727682999999996,3.1001177,-4.2733917,-1
869,870,1583586319418,-14.1536,2.4252,0.5075,-5.305953,3.7896383,-2.3197803,-1
870,871,1583586319428,-14.1536,2.4252,0.5075,-6.57534,4.045875,-1.7156563000000002,-1
871,872,1583586319438,-15.746599,2.6467,1.4315,-7.6088877,4.4156260000000005,-1.5556948,-1
872,873,1583586319449,-16.5417,3.1334999,1.3792,-7.283564,4.716596599999999,-1.9094044999999997,-1
873,874,1583586319459,-15.7956,3.4708,1.1481,-6.508483999999999,5.05166,-2.0716262,-1
874,875,1583586319469,-15.165899,3.7319998999999995,1.2994,-5.9851117,5.2616987,-1.8417348999999998,-1
875,876,1583586319479,-15.2971,4.0652,1.6304,-6.1985497,5.543305,-1.4846157,-1
876,877,1583586319489,-15.6086,4.3145,1.7141,-6.4649196,5.6490517,-1.5153476000000001,-1
877,878,1583586319499,-15.7183,4.2694,1.5302,-6.500985,5.376878700000001,-1.5326912,-1
878,879,1583586319510,-15.664499,3.9222,1.9222,-6.3998637,4.8265667,-1.0779366000000001,-1
879,880,1583586319520,-15.3013,3.0195,2.6176,-5.936883,3.6881912000000003,-0.34832759999999996,-1
880,881,1583586319530,-14.6678,2.0139,3.2384999,-5.270959400000001,2.4779222,0.30289525,-1
881,882,1583586319540,-14.0873995,0.8965,3.8265,-4.645958,1.0257814,1.0150266,-1
882,883,1583586319550,-13.4586,-0.2944,4.4604,-3.7682339999999996,-0.57041377,1.9119998,-1
883,884,1583586319561,-12.7469,-1.0316,5.3896,-3.195273,-1.6889465,3.0374662999999997,-1
884,885,1583586319571,-12.6067,-2.0051,6.0622997000000005,-3.2109692,-2.9785687999999997,3.554432,-1
885,886,1583586319581,-12.6313,-2.6689,5.8740997,-3.0508450000000003,-3.8529887,2.9343145,-1
886,887,1583586319591,-11.990999,-3.1327,4.3539,-2.067192,-4.758007,1.5369244,-1
887,888,1583586319601,-10.5744,-3.6950998,3.4575,-0.48918328,-5.804541,1.4557129,-1
888,889,1583586319612,-8.8608,-4.3943,3.9717,1.1561887,-6.791278,2.429023,-1
889,890,1583586319621,-7.6362,-4.6488,5.2021,1.6737959999999998,-7.5027479999999995,4.130745,-1
890,891,1583586319631,-7.9486,-5.3915997,7.1014,0.9047497,-9.026792,6.23068,-1
891,892,1583586319641,-8.5395,-6.8915,8.5692,0.5335335,-10.688761,7.341723399999999,-1
892,893,1583586319651,-8.0603,-8.4713,9.1407995,1.288253,-12.894653,7.748709700000001,-1
893,894,1583586319661,-6.7825,-9.2513,7.9495997,2.5996528,-13.916115,6.230747,-1
894,895,1583586319672,-4.8507,-9.877999,5.6387,4.6462449999999995,-15.175838,3.9201415,-1
895,896,1583586319682,-1.9978,-10.7339,3.0115,8.041203999999999,-16.394987,1.6192465,-1
896,897,1583586319692,1.0590000000000002,-10.8602,1.2472,10.177445,-16.726948,0.9100169,-1
897,898,1583586319702,2.7995,-10.887899,0.9219,10.417152,-17.5363,2.217883,-1
898,899,1583586319712,2.6323,-11.628099,2.9817998,9.080288000000001,-19.415443,5.4562800000000005,-1
899,900,1583586319723,1.671,-13.675999999999998,6.0063,9.102056,-21.926855,8.073267,-1
900,901,1583586319733,3.286,-15.3081,7.7244997,11.67046,-22.606195,8.468157000000001,-1
901,902,1583586319744,6.5905,-15.0926,6.5452,14.831275,-22.620686,5.0373906999999996,-1
902,903,1583586319753,9.469399000000001,-14.9323,2.7121,16.835625,-22.756878,1.2988065,-1
903,904,1583586319763,12.246699000000001,-14.8038,-2.0957,19.020151000000002,-22.658878,-1.9579015,-1
904,905,1583586319773,14.5692,-14.269898999999999,-4.2047,20.25939,-21.85049,-1.9366122,-1
905,906,1583586319783,15.4157,-13.1297,-3.2969999999999997,19.369101999999998,-20.942524,0.32539117,-1
906,907,1583586319793,13.9317,-12.2549,-0.75229996,16.5207,-20.236117999999998,3.1645985,-1
907,908,1583586319804,11.802899,-11.583799,1.1735,15.103122,-19.747920999999998,3.7044716,-1
908,909,1583586319814,10.621699000000001,-10.786799,1.2156,14.506515499999999,-18.75221,2.830454,-1
909,910,1583586319824,10.6772995,-9.5456,-0.1891,14.812657999999999,-17.133195999999998,0.76669043,-1
910,911,1583586319834,11.062799,-8.1522,-2.1346,14.362328,-16.01586,-1.1120108,-1
911,912,1583586319844,10.599899,-7.0741997,-3.9204,13.261876,-15.412961,-1.3791081,-1
912,913,1583586319854,9.6116,-6.5498,-3.7707,12.566494,-15.14299,0.06318777,-1
913,914,1583586319865,8.9338,-6.102999700000001,-1.5792999,11.679298,-14.401573,2.8599124,-1
914,915,1583586319875,8.1844,-5.3638997,0.5492,10.528751,-13.637804000000001,3.5686631,-1
915,916,1583586319885,6.9867,-4.6245,0.8735,9.143677,-12.989138,2.6672173,-1
916,917,1583586319895,5.7205997,-3.9057998999999994,-0.1506,8.333181,-12.174736,1.6087121000000002,-1
917,918,1583586319905,5.0464,-3.1345,-1.2267,8.04515,-11.747485000000001,0.6164016,-1
918,919,1583586319916,4.8255,-2.639,-2.4842,7.811112,-11.187903,-0.18146133,-1
919,920,1583586319926,4.599,-2.1517,-2.6971,7.186512,-10.692553,0.49901867,-1
920,921,1583586319936,3.8432,-1.6908,-1.8559999999999999,6.230038599999999,-10.420093,1.8436215,-1
921,922,1583586319946,2.8257,-1.4058,-0.31419998,5.2386856,-10.096492,3.3861291,-1
922,923,1583586319956,1.849,-1.0641999,1.1934999,4.267081,-9.6711,3.8450785000000005,d
923,924,1583586319966,1.0098,-0.7082,1.4879,3.8499339,-9.466166000000001,3.21457,-1
924,925,1583586319977,0.5082,-0.4456,0.6990000000000001,3.8463519999999995,-9.140938,2.3580398999999996,-1
925,926,1583586319987,0.5313,-0.1857,0.06,3.8375318,-8.994106,2.116503,-1
926,927,1583586319997,0.498,-0.044499997,-0.174,3.5382949999999997,-8.840417,2.1006632,-1
927,928,1583586320007,0.1775,0.095699996,-0.182,3.2081153,-8.861572,2.0146919999999997,-1
928,929,1583586320017,-0.1855,0.068799995,-0.24499999,3.1311178,-8.782679,2.3510485,-1
929,930,1583586320027,-0.25149998,0.1662,0.6085,3.2080482999999997,-8.762404,2.8148725,-1
930,931,1583586320037,-0.1568,0.1423,0.8196,3.3847593999999996,-8.7830715,2.9746517999999997,-1
931,932,1583586320048,-0.1568,0.1423,0.8196,3.543878,-8.872395,2.8177361000000003,-1
932,933,1583586320058,0.1771,0.0199,0.1882,3.7296205000000002,-8.877738,2.3221362,-1
933,934,1583586320068,0.1771,0.0199,0.1882,3.6828282,-8.819271,1.8189994999999999,-1
934,935,1583586320078,-0.0809,-0.0534,-0.6598,3.520032,-8.93021,1.4939531000000001,-1
935,936,1583586320088,-0.106599994,-0.1147,-0.5398,3.5196202000000003,-9.017491999999999,1.6583006,-1
936,937,1583586320098,-0.106599994,-0.1147,-0.5398,3.6223218,-9.311011,2.2126255,-1
937,938,1583586320109,0.1567,-0.6716,0.6207,3.9317388999999996,-9.577305,2.8468876,-1
938,939,1583586320119,0.61179996,-0.9923,0.7637,4.419706,-9.915577,2.8355200000000003,-1
939,940,1583586320129,1.0562999,-1.4031999,0.4687,4.9279660000000005,-10.340538,2.496434,-1
940,941,1583586320139,1.3995999,-1.8864,0.2235,5.2309856,-10.779461999999999,2.4352765,-1
941,942,1583586320149,1.5142,-2.2063,0.46989998,5.3445089999999995,-11.099337,2.6178105,-1
942,943,1583586320159,1.6834999,-2.5697,0.36389998,5.701696,-11.462852999999999,2.4340507999999996,-1
943,944,1583586320170,2.2426,-2.7591999,0.2034,6.1037300000000005,-11.523561,2.3660650000000003,-1
944,945,1583586320180,3.0533,-3.0384998,-0.28919998,7.164332400000001,-11.84855,1.7469531999999999,-1
945,946,1583586320190,4.0933,-3.4462,-0.8322,8.256960000000001,-12.251761,1.365011,-1
946,947,1583586320200,4.9674,-4.0894,-0.5931,9.155877,-12.981371000000001,1.7214502,-1
947,948,1583586320210,5.8525996,-5.0669,0.12109999,10.44548,-14.049960999999998,2.642873,-1
948,949,1583586320220,7.0726,-5.9596,0.8793,11.473732,-14.767005,3.1186202,-1
949,950,1583586320231,8.2034,-6.6935,0.8359,12.889559,-15.417174,2.7569997,-1
950,951,1583586320241,9.1407995,-6.9385,0.1778,13.80354,-15.51661,2.01021,-1
951,952,1583586320251,9.6721,-7.0783997,-0.5333,14.353191,-15.607418,1.4058561,-1
952,953,1583586320262,10.0,-7.1224,-0.64559996,14.811413,-15.472845000000001,1.579589,-1
953,954,1583586320272,10.2233,-7.1390996,-0.2701,15.069201000000001,-15.481646,1.8600458,-1
954,955,1583586320282,10.1003,-7.4247,0.1372,15.140127,-15.848954,2.3005883999999996,-1
955,956,1583586320292,10.0173,-8.0392,0.86609995,15.340081,-16.299954999999997,2.8336525000000004,-1
956,957,1583586320302,9.8797,-8.357699,0.9264,15.165391,-16.234507,2.21795,-1
957,958,1583586320313,9.255799,-8.306399,0.289,14.562933,-15.908953,1.6473066000000003,-1
958,959,1583586320323,8.2342,-8.122,-0.0393,13.682671,-15.464053,1.223485,-1
959,960,1583586320333,7.0924997,-7.7549996,-0.2377,12.8662,-14.726515,1.2647802,-1
960,961,1583586320343,5.907099700000001,-7.2110996,0.249,11.917666,-13.917054,1.8481417000000002,-1
961,962,1583586320353,4.6082997,-6.6528997,1.0274,10.663813000000001,-13.267028,2.5731826,-1
962,963,1583586320364,3.0785,-6.2992,1.8999,9.531317999999999,-12.571186,2.9958456,-1
963,964,1583586320375,1.7749,-5.7846,2.307,8.578933000000001,-11.413389,2.9429814999999997,-1
964,965,1583586320385,0.8286,-5.0766,2.3943,8.126686,-10.293564,3.1459236,-1
965,966,1583586320395,0.1339,-4.2019,2.9262998,7.5285287,-9.270301,4.063784,-1
966,967,1583586320406,-0.71,-3.6002,4.1776,6.8491693,-8.835916000000001,5.5366488,-1
967,968,1583586320416,-1.6446999,-3.5946998999999997,5.858,5.9679694,-8.69416,6.7504615999999995,-1
968,969,1583586320426,-2.7303998,-3.7357998,7.0688,5.1379660000000005,-8.224072999999999,6.864626400000001,-1
969,970,1583586320436,-3.701,-3.5481,7.1187,4.3788800000000005,-7.543373,5.051957,-1
970,971,1583586320446,-4.4674997,-3.3193,5.5506997,4.3644,-7.0720410000000005,2.3652892000000003,-1
971,972,1583586320456,-4.5304,-2.9977,2.3195999,4.922239299999999,-5.559787,-0.37924156,-1
972,973,1583586320467,-4.205,-1.9877,0.3437,4.674889599999999,-4.438639,-0.61500335,-1
973,974,1583586320477,-4.7581,-0.97639996,0.3786,2.6569988999999996,-3.4351239999999996,1.4741195,-1
974,975,1583586320487,-6.6703997,-0.5399,2.4768999,0.92176765,-3.033128,3.887724,-1
975,976,1583586320497,-8.908899,-0.37539998,5.5917997,-1.0959027,-2.219473,6.102551999999999,-1
976,977,1583586320508,-11.3491,0.037699997,7.6377997,-1.921864,-1.7069221999999997,5.923916,-1
977,978,1583586320518,-11.3491,0.037699997,7.6377997,-1.8107540000000002,-1.2721733999999998,5.195293,-1
978,979,1583586320528,-10.953199,0.8286,5.0909,-1.2657281999999999,-0.44965982,2.7874157000000004,-1
979,980,1583586320538,-10.5912,0.96,2.5015,-0.9347825000000001,-0.24371059,0.1925417,-1
980,981,1583586320548,-10.5912,0.96,2.5015,-0.48274767,0.04825753,-2.3073973999999997,-1
981,982,1583586320559,-9.3912,1.9269999,-2.3906999,0.34576106,1.1738868,-4.1706038,-1
982,983,1583586320569,-8.9807,2.7168999,-2.4672,0.7085592,1.9636189,-3.9964206,-1
983,984,1583586320579,-8.8281,2.6216,-1.1097,0.7938980999999999,1.8427213,-2.343301,-1
984,985,1583586320589,-8.9144,2.1251,1.7526,0.7617488,1.4052719,0.63748014,-1
985,986,1583586320599,-8.9144,2.1251,1.7526,1.1417756000000001,0.6370875,2.6968287999999996,-1
986,987,1583586320609,-7.8837,0.4858,5.4557,1.8263642,0.089677215,3.5386300000000004,-1
987,988,1583586320620,-7.7846,0.40089998,4.4944,1.8129278000000002,0.086650945,2.3165913,-1
988,989,1583586320630,-7.914499799999999,0.3161,2.8724,1.7183186000000001,0.10417651,0.62578684,-1
989,990,1583586320640,-7.6935,0.48009998,0.5585,2.208948,0.27000847,-2.5731158,-1
990,991,1583586320650,-6.7974,0.4712,-2.5611,3.3660657,0.27832118,-5.2249527,-1
991,992,1583586320660,-5.4195,0.601,-3.8818,4.8021845999999995,0.4730367999999999,-5.4749550000000005,-1
992,993,1583586320670,-4.1938,0.5987,-2.7640998,5.7357025,0.20825724,-3.7397811,-1
993,994,1583586320680,-3.6978,0.0622,-0.41759998,5.9668865,-0.33827198,-1.198365,-1
994,995,1583586320691,-3.6875,-0.28849998,2.1190999,5.976464,-0.5470845999999999,0.8463120000000001,-1
995,996,1583586320701,-3.5683,-0.66569996,3.1385,6.1203556,-1.0436708000000001,1.1296802,-1
996,997,1583586320711,-3.3058,-1.0306,2.8037,6.498093,-1.1222103,0.42913672,-1
997,998,1583586320721,-2.832,-0.82159996,1.5726,6.940082,-0.86408657,-1.1865473,-1
998,999,1583586320731,-2.4805999,-0.5797,-0.2995,7.1793203,-0.71468836,-2.6404788,-1
999,1000,1583586320742,-2.1699,-0.428,-1.7485,7.605038,-0.60294616,-4.115863,-1
1000,1001,1583586320752,-1.7014999,-0.33249998,-2.4977999,8.187719,-0.5473815,-4.4710374,-1
1001,1002,1583586320762,-1.2112,-0.31759998,-2.2554,8.748058,-0.653981,-3.6311709999999997,-1
1002,1003,1583586320772,-0.6387,-0.5144,-1.2002,9.27145,-0.99195606,-2.5840332999999998,-1
1003,1004,1583586320782,-0.13239999,-0.94269997,-0.2013,9.77541,-1.3926497,-1.6810744,-1
1004,1005,1583586320792,0.3351,-1.15,0.6626,10.032337,-1.4187752,-1.1421299999999999,-1
1005,1006,1583586320803,0.3793,-1.1146,0.9007,9.895945,-1.349688,-1.29081,-1
1006,1007,1583586320813,0.23359999,-0.9819,0.5732,9.742562,-1.1529996,-2.065162,-1
1007,1008,1583586320823,0.134,-0.7392,-0.46449998,9.7511425,-0.82079935,-3.2277765,-1
1008,1009,1583586320833,0.2003,-0.3466,-1.5753,9.921447,-0.4717152,-4.2366166,-1
1009,1010,1583586320843,0.35529998,-0.1393,-2.2919,10.097756,-0.57231957,-4.284299400000001,d
1010,1011,1583586320854,0.55009997,-0.2775,-2.1523,10.377935,-0.71267724,-3.7985830000000003,-1
1011,1012,1583586320864,0.98149997,-0.5069,-1.4478999,10.891224000000001,-1.1377534,-2.8558898,-1
1012,1013,1583586320874,1.5109999,-0.97499996,-0.36969998,11.501985000000001,-1.4779695,-1.7084928,-1
1013,1014,1583586320884,1.9614999,-1.1452999,0.41239998,11.522958000000001,-1.3523216999999998,-1.4678372,-1
1014,1015,1583586320894,1.8915,-1.0107,0.54539996,11.189972000000001,-1.1142423000000001,-1.7232792000000001,-1
1015,1016,1583586320905,1.4868,-0.74719995,0.22209999,10.689239500000001,-0.8366969000000001,-2.1535077,-1
1016,1017,1583586320915,1.0023,-0.5185,-0.21519999,10.299674000000001,-0.50110644,-2.3572637999999997,-1
1017,1018,1583586320925,0.5859,-0.1751,-0.4098,9.809092,-0.11551544,-2.5877106,-1
1018,1019,1583586320935,0.1013,0.1481,-0.7206,9.530330000000001,0.13803051,-3.2876315000000003,-1
1019,1020,1583586320946,-0.0874,0.3734,-1.4749999,9.757474,0.51369035,-3.3605015,-1
1020,1021,1583586320956,0.13849999,0.6469,-1.3917999,9.886052000000001,0.67024237,-2.4461656,-1
1021,1022,1583586320966,0.25,0.7779,-0.106599994,9.543077,0.43743023,-0.21181981,-1
1022,1023,1583586320976,-0.205,0.3705,2.3456,8.379524,-0.29298323,3.0425515,-1
1023,1024,1583586320986,-1.2299,-0.2697,5.0565,7.360628599999999,-0.25306714,4.5329804000000005,-1
1024,1025,1583586320996,-2.5142,-0.1934,6.8329997,5.984652,0.3454546,5.669278,-1
1025,1026,1583586321007,-3.9329,0.41239998,7.7911,3.9890462999999996,1.5535305,5.719795700000001,-1
1026,1027,1583586321019,-7.186,2.4148,7.1657996,2.1975226,2.7109737000000003,5.345391,-1
1027,1028,1583586321029,-7.186,2.4148,7.1657996,1.4121864,3.22883,6.1245785,-1
1028,1029,1583586321039,-9.0476,3.5518,9.5564995,0.43884759999999995,3.6810277,8.136972,-1
1029,1030,1583586321050,-9.8172,3.7517,12.340199,-0.33876997,3.8248330000000004,11.325206,-1
1030,1031,1583586321061,-10.5062,3.8472998,16.8699,-1.165057,3.9083620000000003,16.581112,-1
1031,1032,1583586321071,-11.0892,3.9856,20.1807,-1.6456498,3.809328,18.731133,-1
1032,1033,1583586321081,-11.309999000000001,3.7101,20.1146,-1.6283923,3.1539395,17.06791,-1
1033,1034,1583586321091,-10.9937,2.6945,16.2209,-1.1629403999999999,1.4737461,11.749439,-1
1034,1035,1583586321102,-9.9681,0.7402,9.0892,0.5583949,-1.0094625,3.6928837,-1
1035,1036,1583586321112,-6.7897,-1.7278999,1.0928,4.5407470000000005,-3.6094697,-3.7237690000000003,-1
1036,1037,1583586321122,-1.9275,-3.2171,-4.4585,10.521234,-4.6392636,-8.611073,-1
1037,1038,1583586321132,2.8151,-3.0389999999999997,-7.0301,13.869678,-4.568032,-10.154086999999999,-1
1038,1039,1583586321142,4.9902,-2.9945998,-7.9259996,13.915589,-5.9428015,-10.693692,-1
1039,1040,1583586321153,4.0102,-5.193,-8.172299,12.233652000000001,-9.504539999999999,-11.493174,-1
1040,1041,1583586321162,2.6355999,-8.7097,-9.850699,11.516253,-12.230291000000001,-14.371004000000001,-1
1041,1042,1583586321172,2.5699,-11.498199000000001,-14.6953,12.303180000000001,-14.971804999999998,-20.985006,-1
1042,1043,1583586321182,4.0791,-12.7118,-20.0173,14.5116205,-15.730585000000001,-25.74195,-1
1043,1044,1583586321193,6.4818997000000005,-12.9351,-24.7283,16.42615,-15.701146,-30.677845,-1
1044,1045,1583586321203,8.2249,-12.4016,-29.243000000000002,17.675864999999998,-15.094646,-33.650833,-1
1045,1046,1583586321213,9.0213995,-11.662,-30.771399,17.516113,-14.709735,-32.52239,-1
1046,1047,1583586321223,8.2012,-11.3244,-27.9177,15.441078,-14.215659,-28.069984,-1
1047,1048,1583586321233,5.318,-10.605,-22.7909,10.742189,-12.728064999999999,-21.620092,-1
1048,1049,1583586321243,1.1068,-9.3193,-17.427599,7.1865697,-11.458314999999999,-18.165804,-1
1049,1050,1583586321254,-3.2881,-7.9248996,-13.5889,3.4302589999999995,-9.8110075,-15.160151999999998,-1
1050,1051,1583586321264,-6.5501,-6.1773,-11.0491,0.75199956,-7.8063617,-13.117122,-1
1051,1052,1583586321274,-9.129499000000001,-4.5064,-9.3885,-1.6830281000000002,-6.3313417,-11.556352,-1
1052,1053,1583586321284,-11.006499,-3.5177998999999995,-8.5456,-2.762947,-5.3167367,-11.767951,-1
1053,1054,1583586321294,-11.876699,-2.589,-9.1557,-2.71785,-4.694732,-11.035565,-1
1054,1055,1583586321304,-11.793699,-2.1369998,-7.950999700000001,-2.6863612999999997,-4.716050599999999,-7.1180577000000005,-1
1055,1056,1583586321315,-11.9731,-2.2907999,-3.7853,-3.4299428,-4.739102,-1.9908075,-1
1056,1057,1583586321325,-12.900399,-2.2605999,1.3235999,-4.800614,-4.245006,3.1797776,-1
1057,1058,1583586321335,-14.352799,-1.7373999,6.2728996,-6.087813400000001,-3.4062690000000004,7.8211580000000005,-1
1058,1059,1583586321345,-15.6226,-0.9011,10.601299000000001,-6.916964,-2.495917,11.321174000000001,-1
1059,1060,1583586321355,-16.2932,0.0382,13.7009,-6.805442,-1.8506604,12.820337,-1
1060,1061,1583586321366,-16.029,0.6325,14.3326,-5.702921400000001,-2.0184462,10.684163,-1
1061,1062,1583586321376,-15.040099,0.5818,12.1426,-3.7494636,-2.234633,9.538403500000001,-1
1062,1063,1583586321386,-12.4381,0.5284,10.7645,-0.5496704000000001,-2.5297232000000003,10.2692,-1
1063,1064,1583586321396,-9.144999499999999,0.44509998,11.7859,3.1019373,-3.260941,13.809610999999999,-1
1064,1065,1583586321406,-6.0969,0.0162,14.8375,4.841027700000001,-3.6315824999999995,18.631065,-1
1065,1066,1583586321416,-4.2699,-0.096499994,19.5185,5.1084027,-4.1172705,24.146166,-1
1066,1067,1583586321426,-3.9131,-0.29639998,24.829199,4.451969999999999,-4.6843996,27.003884999999997,-1
1067,1068,1583586321437,-4.687999700000001,-0.78749996,27.709,3.8560152000000003,-5.9810414000000005,26.793215000000004,-1
1068,1069,1583586321447,-4.9281,-1.5889,26.8345,5.610026400000001,-6.707883,24.648201,-1
1069,1070,1583586321457,-3.0081,-2.0126,24.2808,9.871974,-6.027106,22.674201999999998,-1
1070,1071,1583586321467,1.4397999,-1.0397,21.9361,14.214127,-5.440632,22.288733999999998,-1
1071,1072,1583586321477,5.9968,-0.1699,21.271399,16.797929999999997,-7.2685184000000005,23.696476,-1
1072,1073,1583586321488,8.7691,-1.7418,22.4942,17.612755,-9.890754,25.357946,-1
1073,1074,1583586321498,9.7607,-4.1431,23.9938,18.092157,-13.073577,24.49391,-1
1074,1075,1583586321508,10.241799,-6.6755,23.472399,19.143508999999998,-14.597525,21.273106,-1
1075,1076,1583586321518,13.556398999999999,-9.4647,14.0805,21.237738,-15.8275795,14.981218,-1
1076,1077,1583586321528,15.172298999999999,-9.999,8.646999000000001,22.655287,-16.316792,9.986953,-1
1077,1078,1583586321538,16.5521,-9.8583,4.8959,23.849628,-16.11494,6.919119,-1
1078,1079,1583586321549,17.2002,-9.5854,3.7988,24.207813,-15.951159,6.4962254,-1
1079,1080,1583586321559,17.2002,-9.5854,3.7988,23.331219,-16.373773999999997,7.7935667,-1
1080,1081,1583586321569,15.0348,-10.753699000000001,4.8547,21.806465,-17.287516,6.995062400000001,-1
1081,1082,1583586321579,13.714298999999999,-11.697499,1.6728,20.65401,-18.121769,3.26232,-1
1082,1083,1583586321589,13.0411,-12.248099,-3.3385,20.139584,-18.495295000000002,-2.9290855,-1
1083,1084,1583586321600,12.834000000000001,-12.2014,-7.6594996,20.267769,-18.131424,-6.24244,-1
1084,1085,1583586321610,13.223498999999999,-11.660399,-8.8482,20.813523999999997,-17.322155,-6.5182332999999995,-1
1085,1086,1583586321620,13.2948,-10.573,-8.1023,20.540785,-15.814766,-5.6929426,-1
1086,1087,1583586321630,11.999,-8.837999,-7.0983996,18.859787,-13.904307000000001,-4.9984417,-1
1087,1088,1583586321640,9.5799,-7.2381,-6.2446,16.926165,-12.585341,-4.4319835,-1
1088,1089,1583586321650,6.8908997,-5.9852,-4.6991997,14.290272,-11.0415125,-2.7433147,-1
1089,1090,1583586321661,5.004699700000001,-4.9912,-2.7158,12.76553,-9.888867,-1.1806096000000001,-1
1090,1091,1583586321672,3.2579,-4.3153,-1.3629,10.722307,-8.988781,-0.30324003,-1
1091,1092,1583586321682,1.4308,-4.0387,-0.6907,8.730063000000001,-8.4466,-0.017832015,-1
1092,1093,1583586321692,-0.8595,-3.5881,-0.4326,7.0504355,-7.627917,-0.29282042,-1
1093,1094,1583586321702,-2.7407,-2.4659998,-1.1149,5.440814,-5.907721,-2.0408560000000002,-1
1094,1095,1583586321712,-3.7508,-1.4774,-2.8037999,5.001794,-5.014895,-3.8273036,-1
1095,1096,1583586321723,-4.0971,-0.88729995,-4.1735997000000005,4.984124700000001,-4.246643499999999,-4.858065,-1
1096,1097,1583586321733,-3.998,-0.46109998,-4.5291,5.4639707,-4.184921,-4.936383999999999,-1
1097,1098,1583586321743,-3.4882998,-0.94759995,-3.9046,5.8670297,-4.581104,-4.0530386,-1
1098,1099,1583586321753,-3.6201,-1.5590000000000002,-2.5848,4.6498075,-4.857759,-3.3207674,-1
1099,1100,1583586321763,-5.5116997,-1.9721999,-1.8270998999999999,2.409831,-4.828396,-3.5714116000000002,-1
1100,1101,1583586321773,-7.6688,-2.0500998,-2.3738,0.7347326,-4.4234695,-4.819815599999999,-1
1101,1102,1583586321783,-9.0918,-1.6513,-3.5198,-0.4703361,-3.6793612999999996,-6.5423665,-1
1102,1103,1583586321794,-10.0643,-1.3047,-5.2675,-0.7818218000000001,-3.7052379,-8.455535000000001,-1
1103,1104,1583586321804,-9.7807,-1.7719999999999998,-7.1229,0.47039359999999997,-4.235888500000001,-10.901212,-1
1104,1105,1583586321814,-8.0169,-2.4823,-9.6338,2.6235087000000004,-4.8758683,-13.231948000000001,-1
1105,1106,1583586321825,-6.0235996,-3.2166,-11.2343,3.5174462999999996,-5.7175546,-14.0546055,-1
1106,1107,1583586321835,-5.9512,-4.1236,-11.471499,2.1091769,-6.634419,-14.155392,-1
1107,1108,1583586321845,-7.5571,-5.1229997,-11.3056,0.22406854,-6.8370643,-13.179812,-1
1108,1109,1583586321856,-9.3919,-5.3852,-9.9519,-1.5014805,-6.6357307,-11.745235000000001,-1
1109,1110,1583586321866,-11.0568,-5.3556,-8.6192,-2.7685207999999997,-6.694255,-11.144941000000001,-1
1110,1111,1583586321876,-12.0356,-5.589299700000001,-8.1262,-2.5708842,-6.9568033,-12.186046000000001,-1
1111,1112,1583586321886,-11.847999999999999,-5.9505,-9.195,-1.4971517,-7.180852400000001,-13.253247,-1
1112,1113,1583586321896,-10.3995,-6.3746,-10.3902,0.7789295999999999,-7.9038825,-12.920176,-1
1113,1114,1583586321906,-8.0762,-7.1688,-9.7022,2.760409,-8.025469000000001,-11.401065,-1
1114,1115,1583586321917,-6.4554,-7.1032,-8.3832,2.306296,-7.0260243000000004,-10.954775999999999,-1
1115,1116,1583586321927,-7.0726,-6.3202,-8.1257,0.95083326,-5.9610449999999995,-10.172312,-1
1116,1117,1583586321937,-8.4501,-5.3822,-7.4048,0.79712546,-5.199804,-10.148819999999999,-1
1117,1118,1583586321947,-8.624599,-4.7346,-7.4477,2.1386732999999998,-4.3067855999999995,-9.385807000000002,-1
1118,1119,1583586321958,-6.2514,-3.3586,-4.8325996,3.331321,-3.583938,-6.8675666,-1
1119,1120,1583586321968,-6.2514,-3.3586,-4.8325996,3.5028415,-3.6294277000000004,-5.0824594,-1
1120,1121,1583586321978,-6.019,-3.3997998,-2.6869,4.3716016,-3.877065,-2.0100472,-1
1121,1122,1583586321988,-5.4365997,-3.7150998,-0.28959998,5.729229,-3.5630699999999997,0.16700035,-1
1122,1123,1583586321998,-2.0212,-3.3386998,5.047,7.9250945999999995,-3.5683086000000004,3.8161563999999997,-1
1123,1124,1583586322008,-0.85319996,-3.5813,8.2606,8.913805,-3.8444273,7.281351600000001,-1
1124,1125,1583586322019,-0.72349995,-3.84,11.255099000000001,8.938781,-4.094621,10.394703999999999,-1
1125,1126,1583586322029,-1.0002,-3.8453,13.628798999999999,8.685302,-4.062453,12.8948345,-1
1126,1127,1583586322039,-1.0002,-3.8453,13.628798999999999,8.494284,-3.7825417999999997,14.976727499999999,-1
1127,1128,1583586322049,-1.1769999,-3.2312999,16.6384,8.713582,-3.452889,16.058868,-1
1128,1129,1583586322059,-0.7546,-3.0544,16.9254,9.143858,-3.4697154,16.18829,-1
1129,1130,1583586322069,-0.1321,-3.3953998,15.9044,9.831750999999999,-3.876318,14.928049,-1
1130,1131,1583586322080,0.7967,-3.5142998999999997,13.2,10.779232,-3.9599905,12.123289,-1
1131,1132,1583586322090,0.7967,-3.5142998999999997,13.2,11.817836999999999,-3.5160766000000003,9.360515,-1
1132,1133,1583586322100,1.7070999,-3.2126,10.3862,12.0884495,-2.619898,8.865796000000001,-1
1133,1134,1583586322110,2.0008,-1.6685,9.2711,11.397138,-2.0921302,9.199116,-1
1134,1135,1583586322120,0.7644,-1.1872,9.6052,9.991328999999999,-1.4846061000000002,9.349923,-1
1135,1136,1583586322130,-0.4526,-0.5445,9.2224,9.132328,-0.87783885,8.587053,-1
1136,1137,1583586322141,-0.68869996,0.0613,8.0859995,9.230328,-0.13805924,7.226036,-1
1137,1138,1583586322151,-0.2667,0.7852,6.3504,9.749792999999999,0.4660553,5.166304,-1
1138,1139,1583586322161,0.2439,1.0958999,4.0669,10.216853,0.65586764,3.0070598,-1
1139,1140,1583586322171,0.6665,1.1859,2.7082999,10.536412,0.6905452,2.268736,-1
1140,1141,1583586322182,1.0397,1.1972,2.5454,10.983477,0.8187021,2.234786,-1
1141,1142,1583586322191,1.2063999,1.411,2.5658,10.9692545,0.9784431999999998,2.1569457,-1
1142,1143,1583586322201,1.0,1.5410999,2.3003,10.6484995,1.0976361000000001,1.7333637,-1
1143,1144,1583586322211,0.578,1.5983,1.8841,10.202938,1.0519357,1.5455052,-1
1144,1145,1583586322221,0.166,1.4088,2.0156,9.887986,0.8984481,1.6835835,-1
1145,1146,1583586322231,-0.1378,1.1922,1.994,9.614491000000001,0.69961447,1.4814553999999998,-1
1146,1147,1583586322241,-0.1765,1.1769999,1.6975,9.658909,0.7188351,1.241068,-1
1147,1148,1583586322251,-0.0385,1.1012,1.6632999,9.816993,0.50109684,1.2908291,-1
1148,1149,1583586322261,0.15869999,0.6805,1.8723999,10.127416,0.012344505,1.4545542,-1
1149,1150,1583586322271,0.71919996,0.3065,1.7500999,10.760059,-0.28068665,1.1059488000000002,-1
1150,1151,1583586322281,1.3291,0.1916,1.2559,11.31108,-0.30537564,0.58478856,d
1151,1152,1583586322291,1.6251,0.27089998,0.7883,11.388959,-0.26808354,0.14030021,-1
1152,1153,1583586322302,1.4399998999999999,0.2347,0.408,11.067302999999999,-0.36658102,-0.17295714,-1
1153,1154,1583586322312,1.0584999,0.151,0.40019998,10.704064,-0.43076476,0.0024325089,-1
1154,1155,1583586322322,0.74549997,0.062099997000000004,0.7502,10.377417999999999,-0.60793567,0.48407885,-1
1155,1156,1583586322332,0.5211,-0.107099995,1.1559,10.268271,-0.7392911999999999,0.70998615,-1
1156,1157,1583586322342,0.5323,-0.17729999,1.2615,10.458102,-0.6865709,0.6615371,-1
1157,1158,1583586322352,0.7497,-0.1169,1.2966,10.568447,-0.6569881,0.804605,-1
1158,1159,1583586322362,0.79039997,-0.0933,1.4252,10.526912,-0.70936364,0.70119464,-1
1159,1160,1583586322372,0.7722,-0.21609999,1.1967,10.616187,-0.87079984,0.27600357,-1
1160,1161,1583586322383,0.9794,-0.3387,0.7312,10.952189,-0.8916869000000001,-0.16443378,-1
1161,1162,1583586322393,1.265,-0.2968,0.3838,11.08863,-0.79235625,-0.38549522,-1
1162,1163,1583586322403,1.2657,-0.1827,0.2305,10.900675999999999,-0.6669767,-0.57689726,-1
1163,1164,1583586322413,1.0012,-0.0477,0.0382,10.57334,-0.52333415,-0.75471944,-1
1164,1165,1583586322423,0.74619997,0.060999997,-0.0547,10.350947999999999,-0.38580167,-0.87794423,-1
1165,1166,1583586322433,0.501,0.19669999,-0.18679999,10.212486,-0.21095789999999998,-0.9262879,-1
1166,1167,1583586322443,0.442,0.34329998,-0.0969,10.253532,-0.08460151,-0.6001880999999999,-1
1167,1168,1583586322454,0.50049996,0.4344,0.3116,10.3026705,-0.007489063000000001,-0.31231883,-1
1168,1169,1583586322464,0.5002,0.51019996,0.5311,10.222811,0.11116757,-0.2836363,-1
1169,1170,1583586322474,0.4412,0.5309,0.436,10.200151,0.031546,-0.4220882,-1
1170,1171,1583586322484,0.47059998,0.43699998,0.32189998,10.387425,-0.10523953,-0.43696097,-1
1171,1172,1583586322494,0.72569996,0.3064,0.2566,10.805578,-0.15571888,-0.7457746999999999,-1
1172,1173,1583586322505,1.1080999,0.31309998,-0.0567,11.090803999999999,-0.07974607,-1.1606419,-1
1173,1174,1583586322515,1.3627,0.3646,-0.46899998,11.241764,-0.14287637,-1.4763415000000002,-1
1174,1175,1583586322525,1.4602,0.2724,-0.7432,11.211232,-0.18802145,-1.4993066000000002,-1
1175,1176,1583586322535,1.4301,0.19409999,-0.7119,11.181344000000001,-0.36990416,-1.3348536,-1
1176,1177,1583586322545,1.3804,-0.0365,-0.5025,10.98884,-0.53342813,-0.97100204,-1
1177,1178,1583586322556,1.1343,-0.1837,-0.0777,10.540453999999999,-0.5660755000000001,-0.46948379999999995,-1
1178,1179,1583586322566,0.6236,-0.2377,0.3381,9.765967,-0.48715302,-0.6338218000000001,-1
1179,1180,1583586322576,-0.17119999,-0.1757,0.040799998,9.208483,-0.40627688,-1.1941129,-1
1180,1181,1583586322587,-0.593,-0.14819999,-0.5277,9.461225,-0.33383793,-1.8189516,-1
1181,1182,1583586322597,-0.19999999,-0.0907,-1.1216999,10.211797,-0.26162878,-2.1927056,-1
1182,1183,1583586322607,0.4382,-0.046699997,-1.3611,10.4104,-0.12091676,-1.8619418999999997,-1
1183,1184,1583586322617,0.63519996,0.0845,-1.0237,10.137222,-0.15010688,-1.3528004999999999,-1
1184,1185,1583586322627,0.3611,0.032899998,-0.5033,9.654417,-0.2502324,-0.95090985,-1
1185,1186,1583586322637,-0.118999995,-0.1029,-0.0919,9.293830999999999,-0.17842549,-0.87553084,-1
1186,1187,1583586322648,-0.48139998,-0.0546,-0.0037999998,9.283201,-0.14222516,-1.0985556,-1
1187,1188,1583586322658,-0.19569999,-0.0403,-0.4549,9.653823,-0.11269986,-1.3772118999999998,-1
1188,1189,1583586322668,-0.19569999,-0.0403,-0.4549,9.886349000000001,-0.07285077,-1.5185847,-1
1189,1190,1583586322678,0.108899996,-0.0264,-0.6224,9.820191000000001,0.06804321,-1.8137226000000002,-1
1190,1191,1583586322688,-0.2629,0.12,-1.0749999,9.443507,0.17070659,-1.992244,-1
1191,1192,1583586322698,-0.55689996,0.1078,-1.0547999,9.167858,0.16924134,-1.928606,-1
1192,1193,1583586322709,-0.6545,0.019,-0.8859999999999999,9.122214999999999,0.10173442,-1.7597191000000003,-1
1193,1194,1583586322719,-0.6545,0.019,-0.8859999999999999,9.176611,0.0034572273,-1.5706346000000002,-1
1194,1195,1583586322729,-0.4077,-0.2083,-0.32479998,9.404739999999999,-0.08918881,-1.2081141000000002,-1
1195,1196,1583586322739,-0.22,-0.23079999,-0.1671,9.580207000000001,-0.07500555,-1.0752456,-1
1196,1197,1583586322750,-0.1109,-0.2232,0.0179,9.683952,-0.016539145,-0.89925253,-1
1197,1198,1583586322760,-0.0905,-0.0788,0.1096,9.648595,0.16993086,-0.8295813,-1
1198,1199,1583586322770,-0.3355,-0.0039999996999999995,0.0865,9.2702055,0.25244462,-0.86436427,-1
1199,1200,1583586322781,-0.7672,0.0213,0.0387,8.900781,0.30839235,-0.90001875,-1
1200,1201,1583586322791,-0.9242,0.0298,-0.0365,8.838741,0.2997445,-1.0175644,-1
1201,1202,1583586322801,-0.89449996,-0.0052,-0.1268,8.914647,0.30380505,-1.0448104,-1
1202,1203,1583586322811,-0.73679996,-0.015899998999999998,-0.0924,9.151501,0.26742277,-1.0219122999999999,-1
1203,1204,1583586322821,-0.41189998,-0.1206,-0.1689,9.624164,0.088777,-1.1946683,-1
1204,1205,1583586322832,0.0407,-0.3112,-0.3102,9.998043,-0.05803545,-1.3713125,-1
1205,1206,1583586322842,0.5133,-0.4931,-0.48979998,10.486431,-0.28646144,-1.5647066,-1
1206,1207,1583586322852,0.78959996,-0.6128,-0.5941,10.542703999999999,-0.29506144,-1.5794356999999999,-1
1207,1208,1583586322862,0.5361,-0.585,-0.48799998,9.926446,-0.24286781,-1.3450338,-1
1208,1209,1583586322872,-0.139,-0.57559997,-0.22989999,9.1444235,-0.14162183,-0.9561867000000001,-1
1209,1210,1583586322882,-0.9317,-0.491,0.2047,8.380864,-0.007852982,-0.6387826,-1
1210,1211,1583586322892,-1.5576999,-0.44,0.3362,8.188668,-0.11947066,-1.0363829,-1
1211,1212,1583586322903,-1.37,-0.6213,-0.43129998,9.088552,-0.06434657,-2.0597796,-1
1212,1213,1583586322913,-0.015299999,-0.3867,-1.3698,10.700913,0.25437912,-2.6757886,-1
1213,1214,1583586322923,1.4672999,-0.1679,-1.7034,11.642284,0.25534642,-2.7933536,-1
1214,1215,1583586322933,1.9698,-0.3048,-1.744,11.423598,0.09064448,-2.64,-1
1215,1216,1583586322943,1.2961,-0.4253,-1.3102,10.1703005,-0.015878346,-1.6399898999999998,-1
1216,1217,1583586322953,0.2501,-0.59419996,-0.3728,9.497999,-0.11801499,-0.7530051999999999,-1
1217,1218,1583586322964,-0.3155,-0.6541,0.4561,9.144528999999999,0.34728375,-0.39967847,-1
1218,1219,1583586322974,-0.6569,-0.2033,0.6238,8.931378,0.8647090000000001,-0.5524573,-1
1219,1220,1583586322984,-0.8328,0.20529999,0.4378,8.905463000000001,1.1152383,-0.8532552,-1
1220,1221,1583586322994,-0.7152,0.4594,-0.1118,9.542962,1.3767809,-1.525978,-1
1221,1222,1583586323004,-0.0387,0.5999,-0.6544,10.209010000000001,1.3143208999999998,-2.0131693,-1
1222,1223,1583586323015,0.5793,0.4236,-1.0697,10.75732,0.75143456,-1.6823002,-1
1223,1224,1583586323025,1.1292,-0.2058,-0.5703,11.217247,0.19276196,-1.0023469,d
1224,1225,1583586323036,1.5227,-0.7183,-0.0668,11.249138,0.34926614,-1.4790516000000002,-1
1225,1226,1583586323046,1.4750999,-0.4626,-0.7452,10.817128,1.0914208,-1.9552583,-1
1226,1227,1583586323056,1.0849,0.1082,-1.1083,9.972022,1.8434012,-1.2904556,-1
1227,1228,1583586323066,0.2454,0.7822,-0.4849,9.089088,2.113065,-0.38295734,-1
1228,1229,1583586323076,-0.8562,0.9877,0.6362,7.8983755,2.485306,1.6587028999999998,-1
1229,1230,1583586323087,-1.8187,1.2445998999999999,2.3624,7.5307317,2.9506620999999997,4.086941,-1
1230,1231,1583586323097,-2.1725,1.6421,4.7881,7.3750029999999995,3.0963445,5.4991845999999995,-1
1231,1232,1583586323107,-2.3204,1.7271999,6.2072997,7.296416000000001,2.8014169,5.7015905,-1
1232,1233,1583586323117,-2.3957,1.4109,6.4139,7.649703999999999,2.350675,5.21007,-1
1233,1234,1583586323127,-2.0435,0.95369995,5.8998,8.153722,2.2504635,3.2847776,-1
1234,1235,1583586323137,-1.5414,0.8542,3.8567998,7.9280353,2.9648068,2.1574726,-1
1235,1236,1583586323148,-1.7802999,1.5696,2.6773999,6.393150299999999,3.9875142999999995,4.0510470000000005,-1
1236,1237,1583586323158,-6.1239,2.9357998,8.831699,2.95297,4.4831047,9.668581,-1
1237,1238,1583586323168,-9.127399,3.5137,14.7720995,0.004472369,5.1745019999999995,15.578496,-1
1238,1239,1583586323178,-11.4937,3.7537,18.4764,-2.4775486,5.1832647000000005,18.780520000000003,-1
1239,1240,1583586323188,-13.1981,3.0031,19.3744,-3.8082557,4.292171499999999,18.914557000000002,-1
1240,1241,1583586323198,-13.1981,3.0031,19.3744,-4.113296,3.6371849999999997,18.187839999999998,-1
1241,1242,1583586323209,-13.3652,1.2249,16.695999999999998,-3.5177237999999997,2.4641027,15.807745,-1
1242,1243,1583586323219,-12.7561,0.67069995,14.099898999999999,-3.0175946,1.8349736,13.126173000000001,-1
1243,1244,1583586323230,-12.9611,0.4134,11.479799,-3.3507714,1.3781121,10.509865,-1
1244,1245,1583586323240,-13.632999,-0.1449,9.849899,-4.0040054,0.53155106,9.079962,-1
1245,1246,1583586323250,-14.1213,-1.0357,9.6243,-4.4655213,-0.6627149999999999,8.878074,-1
1246,1247,1583586323260,-14.8061,-2.2391,9.7764,-5.5333734,-2.4916935000000002,8.74598,-1
1247,1248,1583586323270,-15.8031,-3.5656,9.1938,-6.221256299999999,-4.189039,7.230173,-1
1248,1249,1583586323281,-15.8939,-5.2857,6.7797,-6.029471400000001,-6.4838142,4.249201,-1
1249,1250,1583586323290,-15.279698999999999,-7.5353,4.1502,-5.1924486,-9.243151,1.5907076999999998,-1
1250,1251,1583586323301,-14.1335,-9.9534,1.6134,-4.1080766,-11.966297,-1.3155851,-1
1251,1252,1583586323312,-12.9375,-11.834000000000001,-0.7836,-2.930905,-13.877684,-3.3343854,-1
1252,1253,1583586323322,-12.9375,-11.834000000000001,-0.7836,-1.5647066,-15.134429,-5.054811,-1
1253,1254,1583586323332,-11.486099000000001,-12.726299000000001,-2.1608,-0.6577159,-15.831688,-6.651063400000001,-1
1254,1255,1583586323342,-7.9280996,-14.120899,-7.1615996,1.7032255,-17.07649,-9.701554,-1
1255,1256,1583586323354,-5.75,-14.1566,-9.4016,4.13583,-17.736427,-12.185673,-1
1256,1257,1583586323364,-4.3627,-14.1543,-10.408,4.821673400000001,-17.935328,-12.2941675,-1
1257,1258,1583586323374,-3.7930998999999996,-13.7961,-10.142999999999999,5.085265,-18.085464,-11.419078,-1
1258,1259,1583586323384,-3.3801,-13.619499,-9.5880995,5.472934700000001,-18.477001,-11.543768,-1
1259,1260,1583586323395,-2.7326,-13.6116,-10.060599,6.4432373,-18.456728,-11.857455999999999,-1
1260,1261,1583586323405,-1.5129,-13.1712,-10.644899,7.843127000000001,-18.553234,-12.683207000000001,-1
1261,1262,1583586323415,0.1927,-12.998,-11.966499,10.097527000000001,-18.830617999999998,-13.800648,-1
1262,1263,1583586323425,2.8358998,-13.029799,-13.3938,13.749814,-19.654595999999998,-14.934857000000001,-1
1263,1264,1583586323435,6.1366,-13.4526,-14.6893,15.908551000000001,-20.252628,-15.927732999999998,-1
1264,1265,1583586323446,8.919,-13.920198999999998,-16.2124,17.165766,-21.015,-16.596874,-1
1265,1266,1583586323456,10.0499,-14.5018,-16.987999,17.107853,-21.97427,-16.62304,-1
1266,1267,1583586323466,10.1448,-15.083798999999999,-17.2293,17.062642999999998,-22.585281,-16.576544000000002,-1
1267,1268,1583586323476,10.2802,-15.532599,-17.3977,18.129145,-22.793873,-16.871843,-1
1268,1269,1583586323487,11.5222,-15.6107,-17.8841,19.878270999999998,-22.169043,-15.986516,-1
1269,1270,1583586323497,13.9114,-14.6672,-16.805398999999998,22.085321,-21.536562,-12.944749,-1
1270,1271,1583586323508,16.4524,-13.747499,-11.9184,22.568005,-21.211123,-10.035843,-1
1271,1272,1583586323518,16.042799,-13.5934,-9.8077,21.863773000000002,-21.205053,-7.8195586,-1
1272,1273,1583586323528,14.999398999999999,-13.497998999999998,-7.3483,20.752653,-21.105242,-5.317828700000001,-1
1273,1274,1583586323538,14.2107,-13.3143,-4.5443997000000005,20.02814,-20.972775,-2.523364,-1
1274,1275,1583586323548,13.8498,-12.7911,-1.7341,19.735212,-20.289892000000002,0.25318202,-1
1275,1276,1583586323558,13.266998999999998,-11.5226,1.7375,19.034842,-18.906157999999998,3.7032937999999995,-1
1276,1277,1583586323569,11.925999999999998,-10.3852,5.2644997,17.452887,-17.74728,7.528021300000001,-1
1277,1278,1583586323579,9.8258,-9.6623,9.5342,15.454849,-16.986584,11.606582000000001,-1
1278,1279,1583586323589,8.0491,-8.906099000000001,13.1236,14.209760000000001,-16.1317,14.3451185,-1
1279,1280,1583586323599,7.1759996,-7.7955,15.259898999999999,13.601594,-14.8169,16.095968,-1
1280,1281,1583586323609,6.5295,-6.3690996,16.355299,12.932424000000001,-12.921660000000001,17.035282000000002,-1
1281,1282,1583586323619,5.4681,-4.9934998,16.9362,12.089799000000001,-11.709236,17.41029,-1
1282,1283,1583586323629,5.4681,-4.9934998,16.9362,10.850408,-10.556859,17.949762,-1
1283,1284,1583586323639,1.6516,-2.4613,18.3245,8.494484,-8.763411,18.483229,-1
1284,1285,1583586323649,-0.64199996,-1.2633,18.6264,6.477053,-7.365436,18.566229999999997,-1
1285,1286,1583586323660,-0.64199996,-1.2633,18.6264,5.1819525,-6.2355356,18.119318,-1
1286,1287,1583586323670,-4.0333,1.2033,17.3807,3.3526583,-4.006974,16.658367000000002,-1
1287,1288,1583586323680,-5.4209,2.4531,16.4098,2.2903414,-2.633306,15.495264,-1
1288,1289,1583586323690,-6.335099700000001,3.247,15.0791,1.7787386000000003,-1.8588200000000001,13.916306500000001,-1
1289,1290,1583586323700,-6.5973997,3.5154,13.398399,1.7750611,-1.4757668,12.054547,-1
1290,1291,1583586323710,-6.6703997,3.5447998,11.4684,1.9023944,-1.329711,9.889356,-1
1291,1292,1583586323721,-6.4804997,3.4498,8.9854,2.275727,-1.2902735,7.2110577000000005,-1
1292,1293,1583586323731,-6.0613,3.2066,6.3543,2.8037155,-1.4119182,4.6187596,-1
1293,1294,1583586323741,-5.6928,3.1590998,4.0717998,3.0478666000000003,-1.1806861000000002,2.7634928,-1
1294,1295,1583586323751,-5.9669,3.2414,3.2257,2.5548718,-1.1086782,2.370662,-1
1295,1296,1583586323761,-6.6582,2.8934999,3.1734998,2.0439298,-1.452907,2.2904657999999998,-1
1296,1297,1583586323772,-6.9796,2.3274999,3.0997,1.9187036,-1.8312578000000002,2.0593102,-1
1297,1298,1583586323782,-6.8494997,1.8357999,2.5718,2.3251242999999997,-2.3218392999999997,1.2456266000000003,-1
1298,1299,1583586323792,-6.4052997000000005,1.1452999,1.5597,2.8180904,-2.9047701,-0.21922268,-1
1299,1300,1583586323802,-6.089299700000001,0.7176,0.401,2.9826677000000004,-3.0251502999999995,-1.4158256,-1
1300,1301,1583586323812,-6.1001,0.6484,-0.6852,2.8563402,-2.9672107999999997,-2.425087,-1
1301,1302,1583586323822,-6.1549,0.6709,-1.4477999,3.1217327,-2.8132637000000003,-2.8835285,-1
1302,1303,1583586323833,-5.7344,0.7963,-1.7616999,3.6973562000000006,-2.6839576000000003,-3.2985778,-1
1303,1304,1583586323843,-5.1541,0.83489996,-2.256,4.231311,-2.7734146,-3.9796709999999997,-1
1304,1305,1583586323853,-4.7072997,0.6324,-2.9873998,4.491512999999999,-3.1590724,-4.7267575,-1
1305,1306,1583586323863,-4.5422,0.0919,-3.734,4.659326999999999,-3.7520876000000003,-5.5047197,-1
1306,1307,1583586323873,-4.2559,-0.50119996,-4.2866,5.283610299999999,-4.341406,-5.4119205,-1
1307,1308,1583586323884,-3.681,-0.9213,-3.8966,5.7703514,-4.563368,-4.8325043,-1
1308,1309,1583586323894,-3.0551,-1.1304,-3.1450999,6.3216980000000005,-4.70271,-4.213191999999999,-1
1309,1310,1583586323904,-2.5376,-1.2066,-2.5676,6.845185799999999,-4.619143,-3.6782885000000003,-1
1310,1311,1583586323914,-2.1495,-1.0529,-2.2289,7.057311500000001,-4.4893293,-3.8460648,-1
1311,1312,1583586323924,-1.9595,-0.9242,-2.5421,7.276984,-4.528173000000001,-4.4623610000000005,-1
1312,1313,1583586323934,-1.7019999,-0.9881,-3.2654,7.631575,-4.759328,-5.202045,-1
1313,1314,1583586323945,-1.3657,-1.1876,-3.9631998999999998,7.9822397,-4.9352636,-5.6177835,-1
1314,1315,1583586323955,-1.0090000000000001,-1.3298,-4.388999999999999,8.236742999999999,-5.0236095999999995,-5.581832,-1
1315,1316,1583586323965,-0.7499,-1.3786,-4.2801,8.459797,-4.93535,-5.0801225,-1
