,Seq,Time,ACCx,ACCy,ACCz,ADGx,ADGy,ADGz,Keydown
0,1,1583586281388,0.4605,0.49339998,-1.8398,4.4678197,-8.5707445,0.6504949999999999,-1
1,2,1583586281398,0.0801,-0.88689995,-2.2872999,10.034578,0.33046687,0.83023256,-1
2,3,1583586281408,0.3005,0.0099,0.030399999,10.079331,0.35435143,0.9856353999999999,-1
3,4,1583586281418,0.3311,0.0744,-0.5585,10.089041,0.41012675,0.25419718,-1
4,5,1583586281429,0.3897,0.0659,-1.426,10.1961,0.42252870000000003,-0.5915881,-1
5,6,1583586281439,0.6326,0.0752,-1.9189999,10.447348,0.44929589999999997,-0.99895674,-1
6,7,1583586281449,0.8933,0.16059999,-1.8234999,10.705979,0.5302774,-0.8651687,-1
7,8,1583586281459,1.0546,0.1642,-1.5904,10.84446,0.53466356,-0.71724534,-1
8,9,1583586281469,1.078,0.085099995,-1.3025,10.855300999999999,0.49084008,-0.48122498,-1
9,10,1583586281479,1.0235,0.021699998999999998,-0.8246,10.80419,0.41189846,-0.046370897,-1
10,11,1583586281489,0.91169995,-0.2297,-0.29659998,10.713861,0.19742587,0.41149625,-1
11,12,1583586281499,0.96029997,-0.29299998,0.0163,10.771456,0.2689263,0.5910996999999999,-1
12,13,1583586281510,0.9116,-0.049399998,-0.0718,10.616628,0.55370224,0.5843001,-1
13,14,1583586281520,0.5992,0.1392,0.2316,10.315629,0.6891757,0.9099116,-1
14,15,1583586281531,0.3563,0.2652,0.5945,10.124111,0.821556,1.296872,-1
15,16,1583586281541,0.43739998,0.2455,0.8136,10.336113000000001,0.82072276,1.5692077,-1
16,17,1583586281551,0.7838,0.2969,1.1528,10.6350155,0.9742677,1.8918023000000002,-1
17,18,1583586281561,0.9245,0.3769,1.1567,10.741605999999999,0.8766801,1.7676584,-1
18,19,1583586281572,0.987,0.1295,1.1137999,10.704523,0.7187489,1.8610034,-1
19,20,1583586281582,0.7952,0.0309,1.3951,10.259403,0.8310562,2.5085487,-1
20,21,1583586281592,0.2421,0.1462,2.1423,9.524718,1.0675553999999998,3.5111830000000004,-1
21,22,1583586281602,-0.6123,0.4033,3.1306998999999998,8.584037,1.4199053,4.6263447,-1
22,23,1583586281612,-1.5604,0.5983,4.3037,7.514450999999999,1.5815139,5.831710299999999,-1
23,24,1583586281623,-2.6276999,0.6252,5.210099700000001,6.496025,1.5874516,6.629123,-1
24,25,1583586281633,-3.5867998999999995,0.4714,5.5565,5.5043940000000005,1.6000353999999999,6.9131327,-1
25,26,1583586281643,-4.3711,0.4044,4.7956,4.524419,1.8842846000000002,7.059916499999999,-1
26,27,1583586281653,-5.3631997,0.6926,5.0127,3.4654057000000003,2.2890866,7.5122485,-1
27,28,1583586281664,-6.4451,0.97419995,5.4223,2.3136127,2.4264371,7.7962966,-1
28,29,1583586281674,-7.6310997,0.95229995,5.577999999999999,1.0258771,2.4076378,7.801094,-1
29,30,1583586281684,-8.6173,0.9123,5.5372,0.013560758999999999,2.4594007,7.686344999999999,-1
30,31,1583586281694,-9.601,0.92499995,5.4409,-1.033711,2.1507401,7.5799947,-1
31,32,1583586281704,-10.6911,0.48209998,5.4003,-2.1120882,1.2116958999999998,7.301147,-1
32,33,1583586281715,-11.7499,-0.5804,5.1589,-2.896486,-0.04513549,6.782438000000001,-1
33,34,1583586281726,-12.501699,-1.7688999,4.6142,-3.4429865,-1.1984416000000002,5.577599,-1
34,35,1583586281735,-13.042999,-2.8758,3.4473,-3.7620666,-2.2081819,3.9567056000000003,-1
35,36,1583586281745,-13.362599,-3.7317,1.8503,-3.8176982,-2.8726494,1.7659726999999998,-1
36,37,1583586281755,-13.3707,-4.276799700000001,-0.2981,-3.412839,-3.4985702000000005,-0.5295591,-1
37,38,1583586281765,-12.8987,-4.7360997000000005,-2.356,-2.7494822,-3.9669814,-2.3054438,-1
38,39,1583586281775,-12.317599000000001,-5.0532,-3.8644998,-2.2727008,-4.6450963,-3.3287833,-1
39,40,1583586281786,-11.870299000000001,-5.6548,-4.593499700000001,-1.7986103999999998,-5.720313,-3.9777076,-1
40,41,1583586281796,-11.4093,-6.5611997,-5.1858997,-1.0346781999999999,-6.7615705,-5.0467377,-1
41,42,1583586281806,-10.560699000000001,-7.3192,-6.1737,0.3202676,-7.294481299999999,-5.947963,-1
42,43,1583586281816,-9.1747,-7.5172,-6.8125,1.7063667000000002,-7.36987,-6.037075,-1
43,44,1583586281826,-8.082,-7.2890997,-6.7697,2.0680156000000003,-6.922403299999999,-5.9732747,-1
44,45,1583586281836,-7.7226,-6.5951,-6.718899700000001,2.0022613999999996,-6.9279003,-7.2349806,-1
45,46,1583586281847,-7.7521,-6.3452,-8.0765,2.3578577000000003,-7.391867599999999,-9.050101,-1
46,47,1583586281858,-7.1499,-6.6681,-10.5206995,4.65043,-8.41062,-11.598758,-1
47,48,1583586281867,-5.0341,-7.2507,-12.7225,7.380223,-9.408878,-11.702877,-1
48,49,1583586281877,-2.2481,-7.9206,-12.960099000000001,9.209546000000001,-10.394982,-10.117907,-1
49,50,1583586281887,-0.3419,-8.5879,-11.4949,9.704782000000002,-11.433539,-9.141033,-1
50,51,1583586281897,0.2443,-9.3168,-10.6598,9.660824,-12.108359,-10.028555,-1
51,52,1583586281907,0.3015,-9.6981,-11.755899000000001,10.506561,-12.678428,-11.356330999999999,-1
52,53,1583586281918,1.2854999,-9.9869995,-13.3621,12.410028,-13.440531,-12.720796,-1
53,54,1583586281929,3.3383,-10.4865,-15.042,15.002901000000001,-14.353172,-13.510461,-1
54,55,1583586281939,8.702499000000001,-11.538199,-16.0672,17.763645,-15.215028,-13.010475,-1
55,56,1583586281949,10.1599,-12.2842,-15.7878,18.739616,-16.332497,-12.575486999999999,-1
56,57,1583586281959,10.7048,-13.361899,-15.5857,19.201105,-18.007757,-11.819044,-1
57,58,1583586281970,11.729199000000001,-14.4526,-14.677898999999998,20.097944000000002,-18.909166,-10.920135499999999,-1
58,59,1583586281980,13.589298999999999,-14.7464,-13.748099,21.862597,-19.312673999999998,-9.771848,-1
59,60,1583586281991,15.5471,-14.5018,-12.2697,23.659760000000002,-19.135868,-7.7531815,-1
60,61,1583586282001,16.383999,-13.9136,-10.890999999999998,23.742092,-18.747854,-6.6244974,-1
61,62,1583586282011,16.072198999999998,-13.5246,-10.530399000000001,23.18364,-18.717121,-6.3377204,-1
62,63,1583586282022,15.8532,-13.5036,-9.8741,23.081484,-18.774668,-5.1109886,-1
63,64,1583586282032,16.232,-13.0982,-7.7331996,23.503094,-18.380516,-1.9635135,-1
64,65,1583586282042,16.6447,-12.7105,-4.7001,23.622152,-18.532942000000002,1.2962111,-1
65,66,1583586282052,16.4848,-13.037,-1.1867,22.9829,-19.132622,4.3674355,-1
66,67,1583586282062,15.5842,-13.5041,1.9064,21.862423,-19.543055,7.213069,-1
67,68,1583586282072,14.413098999999999,-13.5442,4.4082,20.664728,-19.03782,8.473892999999999,-1
68,69,1583586282083,13.1285,-12.700399,5.1246,19.560429,-17.815820000000002,8.545384,-1
69,70,1583586282093,12.0581,-11.282599000000001,5.5417,18.627789,-16.24736,9.470991999999999,-1
70,71,1583586282103,10.8758,-9.840899,6.8684997999999995,17.433897,-14.899731,10.570784,-1
71,72,1583586282113,9.483399,-8.7084,7.8768997,15.714544,-13.553298000000002,11.310879,-1
72,73,1583586282123,7.8209995999999995,-7.7439,8.5999,14.000229000000001,-12.435282,11.700876,-1
73,74,1583586282136,5.8594,-6.8164,9.1233,12.108225,-11.351887,11.833199,-1
74,75,1583586282146,3.7656998999999995,-5.9228,9.4598,10.397013000000001,-9.9065075,12.302759,-1
75,76,1583586282156,1.8958,-4.6155,10.2232,8.3461485,-7.9330053,12.919217999999999,-1
76,77,1583586282166,-0.0545,-3.2503,10.9318,6.622122999999999,-6.7211275,12.929293,-1
77,78,1583586282177,-1.9704,-2.3099,11.1333,5.7548275,-5.947887000000001,12.498135000000001,-1
78,79,1583586282187,-3.1001,-1.703,10.7127,5.905566,-5.828732,11.4426565,-1
79,80,1583586282197,-3.0007,-1.9613999,9.9498,6.691794,-5.463702,9.384830000000001,-1
80,81,1583586282207,-2.3441,-1.8639,8.0013,6.858248,-4.7006893,7.276496000000001,-1
81,82,1583586282217,-2.2837,-1.3697,5.9828,5.683326999999999,-3.7449529999999998,6.2133650000000005,-1
82,83,1583586282227,-3.2956998,-0.88949996,5.0179996,4.2695513,-3.0333674,6.648353599999999,-1
83,84,1583586282237,-7.152,0.1865,6.7997,1.9110326000000002,-2.1092725,8.057072999999999,-1
84,85,1583586282248,-9.1361,0.5864,7.725,0.061760828,-1.398415,8.723187,-1
85,86,1583586282258,-10.5843,1.0179,7.9719,-1.186959,-0.71966827,8.755156,-1
86,87,1583586282268,-11.065499,1.4751999,7.5709,-1.3874686,-0.056005165,8.123977,-1
87,88,1583586282278,-10.4842,1.6983999,6.3494997,-0.61327,0.34050336,6.683788000000001,-1
88,89,1583586282288,-9.3539,1.6547999,4.8413,0.60829,0.35632426,5.212081400000001,-1
89,90,1583586282298,-8.433499000000001,1.4283999,3.7047,1.3814735,0.35447592,3.976386,-1
90,91,1583586282309,-8.372399,1.6590999,2.5095,1.292438,0.7574105,2.7040594,-1
91,92,1583586282319,-9.0538,1.8330000000000002,0.90959996,0.55011094,1.0146530999999999,0.9731376,-1
92,93,1583586282329,-9.644,1.8958,-0.5923,0.10825623,1.2042834999999998,-0.38988137,-1
93,94,1583586282339,-9.476299000000001,1.8780999,-1.0344,0.4234481,1.271053,-0.7566826999999999,-1
94,95,1583586282349,-8.786799,1.7738999,-1.1703,1.1710806999999999,1.2294418,-0.9004401,-1
95,96,1583586282359,-8.0173,1.7269999999999999,-1.0328,1.9268248,1.2629223,-0.8022874,-1
96,97,1583586282370,-7.3447,1.4978,-0.7851,2.6704543,0.88229203,-0.5867996999999999,-1
97,98,1583586282380,-6.9452,0.9454,-0.6893,2.96225,0.378485,-0.8479688,-1
98,99,1583586282390,-6.6814,0.38239998,-1.1452999,3.2856398,-0.14419799,-1.4743207,-1
99,100,1583586282401,-6.2594,0.0157,-1.7508999,3.748276,-0.35216790000000003,-2.2996306,-1
100,101,1583586282411,-5.7091,-0.0558,-2.6416,4.3764763,-0.37623444,-3.2737644,-1
101,102,1583586282421,-4.9722,-0.0667,-3.4603998999999996,5.3296657,-0.38060147,-4.168037,-1
102,103,1583586282432,-4.1858997,-0.0284,-4.0633,5.889018,-0.32413658,-4.608876,-1
103,104,1583586282441,-3.5758997999999997,0.0369,-4.4947,6.404164,-0.31998983,-5.003355,-1
104,105,1583586282451,-3.0832,-0.0396,-4.7784,6.8726134000000005,-0.53044975,-5.314783,-1
105,106,1583586282461,-2.6783,-0.3572,-4.9726,7.321411,-0.888766,-5.49748,-1
106,107,1583586282471,-2.0866,-0.69119996,-4.8905,7.980056299999999,-1.2647226999999999,-5.2583184,-1
107,108,1583586282482,-1.367,-1.0052999,-4.4818,8.688127,-1.5438675,-4.9861546,-1
108,109,1583586282492,-0.7256,-1.097,-4.2401,9.237395,-1.5250586000000002,-4.6156855000000006,-1
109,110,1583586282502,-0.3786,-0.8908,-3.47,9.346925,-1.2964027,-3.6629178999999996,-1
110,111,1583586282512,-0.5222,-0.7291,-2.7131998999999998,9.105666000000001,-1.2236956,-3.2004537999999996,-1
111,112,1583586282523,-0.7446,-0.6371,-2.4733999,9.033600999999999,-1.0182156999999998,-3.2725193999999997,-1
112,113,1583586282533,-0.6729999999999999,-0.4118,-2.6234,9.325194999999999,-0.9258091,-3.5451615,-1
113,114,1583586282543,-0.258,-0.38349998,-2.918,9.801765,-1.0697197,-3.8677945,-1
114,115,1583586282553,0.2452,-0.5441,-3.1306,10.327456,-1.2594267,-3.8926272000000006,-1
115,116,1583586282564,0.7978,-0.65279996,-3.0300999,10.878582000000002,-1.4088249,-3.6271966,d
116,117,1583586282574,1.3015,-0.7827,-2.6344,11.244129,-1.5697823,-3.1757839,-1
117,118,1583586282584,1.5795,-0.89959997,-2.1677,11.353305,-1.6132897,-2.7002957000000003,-1
118,119,1583586282594,1.5825,-0.8591,-1.8166,11.207708,-1.4951694,-2.5406117000000004,-1
119,120,1583586282604,1.3201,-0.6906,-1.5835999,10.800464,-1.3374012,-2.108085,-1
120,121,1583586282614,0.9787,-0.5482,-1.1556,10.459415,-1.2136017,-1.7916291000000002,-1
121,122,1583586282625,0.6568,-0.4367,-0.87509996,10.262727,-1.1224401000000002,-1.8007653000000001,-1
122,123,1583586282635,0.51159996,-0.3628,-0.9167,10.4031315,-1.1708125,-1.9714909999999999,-1
123,124,1583586282645,0.7107,-0.4229,-1.0688,10.73425,-1.2265687,-2.0377817,-1
124,125,1583586282655,1.058,-0.44329998,-1.0538,10.913892,-1.2009315,-1.8360941000000002,-1
125,126,1583586282665,1.1803,-0.3988,-0.75689995,10.740456,-1.1294407,-1.4630584,-1
126,127,1583586282675,0.93969995,-0.3315,-0.3502,10.36314,-0.97937214,-1.4059901000000001,-1
127,128,1583586282687,0.56119996,-0.1542,-0.3459,9.958107,-0.8326075999999999,-1.6695343,-1
128,129,1583586282697,0.16239999,-0.024,-0.5973,9.649687,-0.66984975,-1.9176502,-1
129,130,1583586282707,-0.0997,0.1241,-0.8145,9.626644,-0.5245217,-2.134268,-1
130,131,1583586282718,-0.056199998,0.32259998,-0.9898,9.652244,-0.43766007,-2.165048,-1
131,132,1583586282728,-0.1424,0.2825,-0.77629995,9.553057,-0.49054322,-1.9257331000000002,-1
132,133,1583586282738,-0.2579,0.1637,-0.4637,9.443268,-0.61104816,-1.6627444,-1
133,134,1583586282748,-0.26549998,0.18239999,-0.3673,9.467056,-0.55677634,-1.6171396999999998,-1
134,135,1583586282758,-0.1753,0.22109999,-0.2642,9.551984,-0.55142295,-1.4870673,-1
135,136,1583586282768,-0.1251,0.1523,-0.097799994,9.600069,-0.6381601,-1.3616973999999997,-1
136,137,1583586282779,0.100899994,0.0535,-0.1717,9.858135,-0.67653435,-1.5038938999999998,-1
137,138,1583586282789,0.3559,0.21939999,-0.514,10.071938000000001,-0.49604028,-1.8624493999999998,-1
138,139,1583586282799,0.16899999999999998,0.3148,-0.7129,9.784413,-0.40868068,-1.9716538000000001,-1
139,140,1583586282809,-0.41009998,0.3788,-0.4306,8.988379,-0.32522836,-1.4920857,-1
140,141,1583586282819,-1.1065999,0.4164,0.029399997999999997,8.412785000000001,-0.31831390000000004,-1.1077971000000002,-1
141,142,1583586282830,-1.5469998999999999,0.33679998,0.40379998,8.147621000000001,-0.4659787,-0.8176678000000001,-1
142,143,1583586282840,-1.4373,0.2332,0.5018,8.417161,-0.60685354,-0.77267593,-1
143,144,1583586282850,-0.8462,0.0072,0.3712,9.174083,-0.9611761999999999,-1.0300909,-1
144,145,1583586282860,-0.0392,-0.2987,-0.0299,9.939164,-1.233646,-1.5339459,-1
145,146,1583586282870,0.5803,-0.34039998,-0.53929996,10.404339,-1.2455212,-1.8833843000000001,-1
146,147,1583586282880,0.6987,-0.304,-0.62909997,10.288192,-1.2518129999999998,-1.7529578999999997,-1
147,148,1583586282891,0.3168,-0.2914,-0.368,9.786108,-1.2584403,-1.4691491,-1
148,149,1583586282901,-0.2608,-0.2707,-0.1533,9.230557000000001,-1.2257068000000002,-1.3414424999999999,-1
149,150,1583586282911,-0.76909995,-0.23600000000000002,-0.0168,8.834833999999999,-1.1816343,-1.1145296,-1
150,151,1583586282921,-0.85469997,-0.1219,0.2347,8.910816,-1.0717883,-0.9773801999999999,-1
151,152,1583586282931,-0.63589996,0.0169,0.259,9.141511999999999,-0.91255474,-1.0137337,-1
152,153,1583586282941,-0.4565,0.14039999,0.23969999,9.240757,-0.86844397,-0.9921285,-1
153,154,1583586282951,-0.41459998,0.15779999,0.3049,9.279696000000001,-0.8823208,-0.97247684,-1
154,155,1583586282961,-0.3242,0.1867,0.3157,9.428643,-0.8272733,-0.91682607,-1
155,156,1583586282972,-0.1946,0.2956,0.33399999999999996,9.505372999999999,-0.74692386,-1.0362103999999999,-1
156,157,1583586282982,-0.1437,0.36679998,-0.053099997,9.632611,-0.7605708999999999,-1.7038002,-1
157,158,1583586282992,0.053999998,0.30249998,-0.6985,9.874578,-0.8358445,-2.2464411,-1
158,159,1583586283002,0.3304,0.2877,-1.1183,10.233325,-0.89205086,-2.4000340000000002,-1
159,160,1583586283012,0.72459996,0.2801,-1.1819,10.608191,-0.8495777,-2.3904762,-1
160,161,1583586283022,1.0404,0.36479998,-1.0634999,10.803817,-0.7764300999999999,-2.0073848,-1
161,162,1583586283033,1.1405,0.40219998,-0.5457,10.765518,-0.8158003,-1.4064881999999999,-1
162,163,1583586283043,1.0734,0.29569998,0.0433,10.903865,-0.97070515,-1.0655729999999999,-1
163,164,1583586283053,1.4664999,0.17799999,0.12879999,11.477514999999999,-1.0927040000000001,-1.4014316999999998,-1
164,165,1583586283063,1.9957,0.061699998,-0.3854,11.818479,-1.2278615,-1.9519639,d
165,166,1583586283073,2.1993,-0.095,-0.8253,11.919121,-1.4114681,-2.2326696,-1
166,167,1583586283083,2.2745,-0.3626,-1.1423,12.138296,-1.7940136000000002,-2.5155112999999996,-1
167,168,1583586283094,2.7128,-0.77,-1.3477,12.931878,-2.0471287,-2.3487597,-1
168,169,1583586283104,3.6513998999999995,-0.9177,-0.82089996,13.860636999999999,-2.2388754,-1.4802296,-1
169,170,1583586283114,4.3856,-1.2243,-0.045399997000000004,14.157345999999999,-2.7127743,-1.0528166,-1
170,171,1583586283124,4.4613,-1.6511999,0.1226,14.132273999999999,-2.9314702,-1.2912217,-1
171,172,1583586283134,4.4469,-1.8686,-0.2191,14.2022705,-3.0983555,-2.0079211999999997,-1
172,173,1583586283144,4.5683,-2.1162,-1.0245,14.750485000000001,-3.519965,-3.0430017000000005,-1
173,174,1583586283155,5.2183,-2.5486999,-2.1552,15.48426,-3.7086377,-3.9863746,-1
174,175,1583586283165,6.1812,-2.6812,-3.1836,16.429126999999998,-3.5874047,-4.07609,-1
175,176,1583586283175,6.7611,-2.6044,-2.7735999,16.239620000000002,-3.4543638,-2.260251,-1
176,177,1583586283186,6.3408,-2.5756,-0.6943,15.015312,-3.6174760000000004,0.21677102,-1
177,178,1583586283196,4.9702997,-2.8996,1.6252999,13.371913000000001,-3.7590785,1.3273933,-1
178,179,1583586283206,3.6402997999999998,-3.1107,2.3954,12.630084,-3.5464737,1.0555078000000002,-1
179,180,1583586283216,2.8906,-3.0244,2.1543999,12.505979,-3.3224912000000004,0.21329464,-1
180,181,1583586283226,2.7596998,-2.8978,1.3259999999999998,12.658806,-3.0592535,-0.18562724,-1
181,182,1583586283236,2.9136999,-2.7435,0.9503,12.811355,-2.8323118999999997,-0.46533704,-1
182,183,1583586283247,3.0672,-2.5884,0.5453,12.792268,-2.5082424,-1.0589841999999998,-1
183,184,1583586283257,3.0361998,-2.388,0.0714,12.305411,-2.1052408,-0.81759113,-1
184,185,1583586283267,2.5465,-2.108,0.3168,11.305525999999999,-1.6988584999999998,-0.2577119,-1
185,186,1583586283277,1.5609,-1.8474,0.91569996,10.060760499999999,-1.2985575,0.44193134,-1
186,187,1583586283287,0.3249,-1.6024,1.6386,8.933283,-0.9996174999999999,1.1703911,-1
187,188,1583586283297,-0.7891,-1.4718,2.4287999,7.9887137,-0.7106566,1.8334701,-1
188,189,1583586283308,-1.7142998999999999,-1.3485999,3.1378999,7.092420599999999,-0.3264925,1.7409773000000002,-1
189,190,1583586283318,-2.5986,-1.1195998999999999,3.0871,6.182595,0.06777506,0.7326928,-1
190,191,1583586283328,-3.4915998,-0.88,2.1304998,5.76745,0.5870295,-0.72098994,-1
191,192,1583586283338,-3.8834998999999994,-0.49069998,0.732,5.6844095999999995,1.2217516000000002,-1.6036937,-1
192,193,1583586283348,-4.3092,0.1276,-0.036199998,5.130860299999999,1.5107222,-1.5047556999999998,-1
193,194,1583586283358,-5.3020997,0.1278,0.5951,4.074644,1.5627816,-0.8356146999999999,-1
194,195,1583586283369,-5.3020997,0.1278,0.5951,3.3966732000000004,1.5936477,-0.091037124,-1
195,196,1583586283379,-7.0368,0.17639999,2.1798,2.2962119999999997,1.9862968,0.56129664,-1
196,197,1583586283389,-8.077,0.59889996,2.5332,1.1701325,2.5085773,0.82750314,-1
197,198,1583586283399,-9.2373,0.7804,2.5165,-0.00082360534,2.7267083999999997,0.6660669,-1
198,199,1583586283409,-10.245,0.7951,1.9237,-0.9795254000000001,2.8376462000000005,-0.039427716,-1
199,200,1583586283420,-10.7678995,1.0083,1.0088999,-1.4142358,3.1532114,-0.9844287,-1
200,201,1583586283430,-10.9523,1.4268999,0.1875,-1.6420871,3.7147954,-2.0094151,-1
201,202,1583586283440,-11.1792,1.8205999,-0.66459996,-1.8884121999999999,4.118161,-2.7235862999999996,-1
202,203,1583586283451,-11.4959,2.2124,-0.868,-2.3770017999999995,4.5537333,-2.5456494999999997,-1
203,204,1583586283461,-12.233399,2.6072,-0.23089999,-3.2975532999999997,4.880905599999999,-1.6915131,-1
204,205,1583586283471,-13.4614,2.7317998,1.028,-4.6608405,4.808687,-0.17434576,-1
205,206,1583586283481,-14.7894,2.4076998,2.7521,-5.9064574,4.5024977,1.2706218999999999,-1
206,207,1583586283491,-15.8298,2.1894999,3.3665,-6.7027116,4.2338486,1.2940277,-1
207,208,1583586283501,-16.1864,1.829,2.7321,-6.726078500000001,3.7071052000000004,0.2507687,-1
208,209,1583586283512,-15.752298999999999,1.5064,1.383,-6.016303,3.3516333,-0.9469642,-1
209,210,1583586283522,-14.9255,1.1768,0.6863,-5.2321925,2.6859782,-1.4017285,-1
210,211,1583586283532,-14.4078,0.621,0.37719998,-4.7585907,1.9569439,-1.4004451999999998,-1
211,212,1583586283542,-14.1851,0.35700000000000004,0.7028,-4.5881143,1.5131834,-0.8689803,-1
212,213,1583586283552,-14.0974,-0.1598,1.3957,-4.5705404000000005,0.77609485,-0.05992208,-1
213,214,1583586283562,-14.2498,-0.41169998,2.1508,-4.747989,0.36228102,0.7336887,-1
214,215,1583586283573,-14.395598999999999,-0.5697,2.5835,-4.886633,-0.34980246,1.2566111,-1
215,216,1583586283583,-14.613,-1.0976,3.0642998,-5.233533400000001,-1.3314252,1.3180558999999998,-1
216,217,1583586283593,-15.000298999999998,-2.0579998,2.6509,-5.192564,-2.9863453,0.5794159999999999,-1
217,218,1583586283603,-14.4393,-3.4803998,2.2391999,-3.8134174,-4.515292,1.1990162,-1
218,219,1583586283613,-12.788099,-4.4915,3.1076,-2.1852642999999996,-5.971139,2.1402056000000003,-1
219,220,1583586283623,-11.2301,-5.645,4.1889,-0.7969626999999999,-7.4661740000000005,4.0747013,-1
220,221,1583586283634,-9.969,-6.5002,6.3577,0.22410686,-8.287778,5.939488,-1
221,222,1583586283644,-8.8836,-6.611799700000001,7.4367,1.4395281,-8.711332,6.773771000000001,-1
222,223,1583586283654,-7.5881996,-6.6117,8.0637,2.8298123,-9.629402,6.813314,-1
223,224,1583586283664,-6.2736998,-7.1219997,7.3025,4.587214,-11.149778,4.928914499999999,-1
224,225,1583586283674,-4.2283,-8.2202,5.2967997,6.690864599999999,-13.044339,3.8447910000000003,-1
225,226,1583586283684,-2.0563,-9.7985,4.2858,7.9727397,-15.788065,2.965554,-1
226,227,1583586283695,-0.57699996,-11.9442,3.2595,9.496457000000001,-17.695898,1.9971856,-1
227,228,1583586283705,1.2445998999999999,-13.2352,2.4136,11.220597999999999,-18.690260000000002,2.1009502,-1
228,229,1583586283715,3.2491,-13.5949,2.5449998,12.700742,-18.843045999999998,2.6020854,-1
229,230,1583586283725,4.8922,-13.0856,2.9099998,13.448069,-18.704546,3.2670894,-1
230,231,1583586283735,5.8222,-12.7049,3.1817,13.764438,-19.913044,3.3057510000000003,-1
231,232,1583586283747,6.527199700000001,-13.8533,2.6987,15.119565,-22.763216,2.5986952999999997,-1
232,233,1583586283757,8.1663,-15.879399,1.7497,17.63346,-24.072836,2.3316364,-1
233,234,1583586283767,11.082499499999999,-16.8435,1.2100999,19.786621,-24.106287,2.204629,-1
234,235,1583586283777,14.3166,-15.4529,0.3856,20.095234,-23.244318,1.8933634,-1
235,236,1583586283787,14.3166,-15.4529,0.3856,18.569264999999998,-21.681248,1.4969602,-1
236,237,1583586283798,12.095699,-12.224299,-0.168,16.960764,-20.042379999999998,1.5811403999999998,-1
237,238,1583586283808,11.008699,-10.4348,-0.2959,15.729876,-18.422195000000002,1.5769361000000002,-1
238,239,1583586283818,10.3895,-8.998199000000001,-0.2713,15.089629,-17.401373,1.6325774,-1
239,240,1583586283828,9.982699,-8.6626,-0.373,14.384804999999998,-17.221951999999998,1.6483023999999997,-1
240,241,1583586283838,9.9386,-8.7884,0.0901,14.191754999999999,-17.407091,2.2374005,-1
241,242,1583586283848,9.925099000000001,-8.5813,0.41459998,14.021882000000002,-17.257704,2.5025058,-1
242,243,1583586283858,9.8679,-8.2497,1.1074,13.719781,-16.894732,3.395639,-1
243,244,1583586283869,9.5711,-7.4714,1.3418,13.204395000000002,-16.057394,3.3974392,-1
244,245,1583586283879,8.929299,-6.3844,0.089899994,12.425025,-15.02534,2.0894485,-1
245,246,1583586283889,8.4298,-5.348099700000001,-1.0763,11.919849000000001,-14.001043,1.0467737,-1
246,247,1583586283899,8.0928,-4.367,-1.7502999,11.499350999999999,-13.090662,0.48587929999999996,-1
247,248,1583586283910,7.5299997,-3.6643,-1.8634,10.730411,-12.321146,0.6263901999999999,d
248,249,1583586283920,6.777,-3.0342999,-1.2595999,9.868333999999999,-11.752158999999999,1.1599428999999999,-1
249,250,1583586283930,5.796,-2.5863,-0.9913,8.873917,-11.368205999999999,1.1117139999999999,-1
250,251,1583586283940,4.8234,-2.3212,-1.1379,8.075288,-11.143822,1.0525006000000001,-1
251,252,1583586283950,4.3057,-2.0112997999999997,-1.1905999,7.635923399999999,-10.788905,0.7324246,-1
252,253,1583586283960,3.9473998999999997,-1.7143999,-1.9763,7.380673,-10.493107,-0.21272962,-1
253,254,1583586283971,3.8407,-1.4190999,-3.0077,7.363290299999999,-10.206721,-1.0491488000000002,-1
254,255,1583586283981,3.7531998,-1.2203,-3.3005998,7.1932163000000005,-10.065032,-0.8261145000000001,-1
255,256,1583586283991,3.4729,-1.1467999,-2.3225,6.9554149999999995,-10.074274,0.39098272,-1
256,257,1583586284001,3.1985,-1.3375,-0.8859999999999999,6.6823125,-10.356551,1.7323294999999999,-1
257,258,1583586284011,2.8097,-1.6776999,0.2312,6.356107,-10.625841000000001,2.6470199,-1
258,259,1583586284021,2.5874999,-1.7479,0.6453,6.311996499999999,-10.598872,2.3929663,-1
259,260,1583586284032,2.5878,-1.8619999999999999,-0.1476,6.432818,-10.872999,1.4644278,-1
260,261,1583586284042,2.8595998,-2.2633997999999997,-1.0345,6.856141,-11.213589,0.6324428000000001,-1
261,262,1583586284052,3.2314,-2.5976999,-1.7838999,7.3861217,-11.577191000000001,-0.04890875,-1
262,263,1583586284063,3.7350998,-2.9526,-2.1527998,8.013058000000001,-11.963002000000001,-0.27858934,-1
263,264,1583586284073,4.3533998,-3.3766,-2.2128,8.777297,-12.275532,0.03065536,-1
264,265,1583586284083,5.0021,-3.5958997999999998,-1.5706999,9.380778999999999,-12.494026,0.9836913,-1
265,266,1583586284093,5.4058,-3.9069998,-0.4358,9.944268,-12.920003,2.0321505,-1
266,267,1583586284103,5.7537,-4.3491,0.3577,10.34683,-13.334554999999998,2.0933082,-1
267,268,1583586284114,6.2558,-4.8536,0.33159998,10.952687,-13.594192000000001,1.7406421000000003,-1
268,269,1583586284124,7.0250998,-5.1387997,-0.3913,12.034532,-13.889826999999999,0.46512634,-1
269,270,1583586284134,7.7191,-5.4424996,-1.5011,12.70711,-14.080903,-0.30458075,-1
270,271,1583586284144,8.1269,-5.6477,-1.7871,13.070081,-14.248985999999999,0.04164953,-1
271,272,1583586284154,8.1675,-5.9122996,-1.2325,13.048955,-14.485514000000002,0.66076136,-1
272,273,1583586284165,7.9694,-6.227999700000001,-0.53859997,13.064536,-14.631895000000002,1.1882231,-1
273,274,1583586284175,7.8100996,-6.4969997,0.1121,13.0907,-14.771372,1.5022563,-1
274,275,1583586284185,7.6619,-6.7,0.2373,13.305948,-14.776926999999999,1.2249694,-1
275,276,1583586284195,7.7295,-6.8276997,0.0309,13.7931595,-14.757054,1.2334735000000001,-1
276,277,1583586284205,8.078899,-6.9308996,0.2026,14.423954,-14.6318,1.6900574000000002,-1
277,278,1583586284216,8.393599499999999,-6.9635,0.7635,14.172946,-14.577279,1.8901648999999998,-1
278,279,1583586284226,7.6577997,-7.1008997,1.0638,12.9296465,-14.357242999999999,2.2378793,-1
279,280,1583586284236,6.0197997,-7.0151,1.6119999999999999,10.979522,-13.544123,2.943757,-1
280,281,1583586284246,4.115,-6.547999999999999,2.3502,9.90122,-12.759984,3.5210470000000003,-1
281,282,1583586284256,2.5426,-5.8215,3.2229,9.015108,-11.616341,3.86654,-1
282,283,1583586284267,1.4494,-4.9353,3.5147,8.173411999999999,-10.0426035,3.5212578999999997,-1
283,284,1583586284277,0.5083,-3.9120998,3.3367998999999995,7.344922500000001,-8.830247,2.9989865,-1
284,285,1583586284287,-0.5628,-3.0131997999999998,2.9571,6.566414,-8.189319,2.9811259999999997,-1
285,286,1583586284298,-1.7519,-2.5581,3.1880999,5.627456,-7.8351974,4.4007244000000005,-1
286,287,1583586284308,-2.7689,-2.7545,4.6979,5.3772235,-7.587340400000001,6.3390417,-1
287,288,1583586284318,-3.0249,-2.6638,8.3961,5.740855000000001,-7.1141977,8.018469,-1
288,289,1583586284328,-2.8883997999999997,-2.0009,8.1402,5.887265,-6.026234,7.137709,-1
289,290,1583586284338,-3.4194,-1.0935999,6.4591,5.317474,-4.673376599999999,5.216678,-1
290,291,1583586284348,-4.4305,-0.12889999,5.3278,4.282719,-3.3978127999999996,4.209265,-1
291,292,1583586284358,-5.888499700000001,0.6336,4.6872997000000005,2.875235,-2.4291763,3.5576112,-1
292,293,1583586284369,-7.4967,1.0267,4.4907,1.4824418,-1.8235773000000002,3.371218,-1
293,294,1583586284379,-8.999,1.2296,4.5678,0.12610739999999998,-1.3624348999999998,3.3089879,-1
294,295,1583586284389,-9.9848995,1.1769,4.4235,-0.6656647,-1.1554991000000001,3.0127964,-1
295,296,1583586284399,-10.260799,1.1004,3.9090998,-0.7301166,-0.96252656,2.4102714,-1
296,297,1583586284409,-9.720799000000001,1.2736,3.6543,-0.010649408999999999,-0.49313852,2.2594178,-1
297,298,1583586284419,-8.7676,1.6974,4.1039,1.0251493,0.15245318,2.8097775,-1
298,299,1583586284430,-8.7676,1.6974,4.1039,1.150184,0.07903738,3.0971490000000004,-1
299,300,1583586284440,-8.5561,0.93939996,5.1619,0.9661466000000001,-0.53046894,3.5151574999999995,-1
300,301,1583586284450,-8.6726,0.3154,5.2105,0.92868215,-0.9196511999999999,3.3003879,-1
301,302,1583586284460,-8.4212,0.35999998,4.1452,1.2212726999999999,-0.6151854,1.830961,-1
302,303,1583586284470,-8.2077,0.58529997,2.1581,1.2672988,-0.33285149999999997,-0.49811843,-1
303,304,1583586284481,-8.4661,0.5439,1.0708,1.0461513,-0.28670087,-1.0666839,-1
304,305,1583586284491,-8.5687,0.4795,1.3197,1.0682162,-0.40055949999999996,-0.5936375,-1
305,306,1583586284501,-8.24,0.1706,1.9101,1.5172822,-0.6294356,-0.22450908,-1
306,307,1583586284511,-7.6348,0.097399995,1.7456,2.0224971999999997,-0.6000253000000001,-0.652918,-1
307,308,1583586284521,-7.0256,0.0705,0.7678,2.777638,-0.7234416,-1.8848305,-1
308,309,1583586284531,-6.3029,-0.2512,0.0835,3.4929297,-0.9930287,-2.4561636,-1
309,310,1583586284542,-5.6436996,-0.23879999,-0.318,4.032037,-0.860093,-2.9938536,-1
310,311,1583586284552,-5.2272997000000005,-0.16049999,-0.71309996,4.373546,-0.91560024,-3.1729302,-1
311,312,1583586284562,-5.0849,-0.3811,-0.4522,4.2000523,-1.2380226,-2.8792667,-1
312,313,1583586284572,-5.3269997,-0.7382,0.014099998999999998,4.0396504,-1.5791963,-2.4330068,-1
313,314,1583586284582,-5.3073997,-1.0673,0.3865,4.2482333,-1.7484471999999998,-2.5459366,-1
314,315,1583586284593,-4.9381,-1.1744,0.1642,4.8460746,-1.9684552,-2.7254443,-1
315,316,1583586284603,-4.1686,-1.3917999,0.21499999,5.823378599999999,-2.1250741,-2.6188352000000004,-1
316,317,1583586284613,-3.1234,-1.38,0.1771,6.8538237,-2.0733596999999997,-3.1018798,-1
317,318,1583586284623,-2.1641998,-1.3195,-0.514,7.564978,-2.095597,-4.1293370000000005,-1
318,319,1583586284634,-1.4985,-1.3334999,-1.5295999,8.163145,-2.2232939999999997,-5.056362,-1
319,320,1583586284644,-0.92179996,-1.3685,-2.3035,8.638376,-2.2305532,-5.685176,-1
320,321,1583586284654,-0.4946,-1.2827,-2.7510000000000003,8.85642,-2.220124,-5.663560400000001,-1
321,322,1583586284664,-0.4037,-1.2959,-2.4201,8.71588,-2.3397193,-4.813265,-1
322,323,1583586284674,-0.6083,-1.4094,-1.4822999,8.243715,-2.4855932999999997,-4.1521397,-1
323,324,1583586284684,-1.0888,-1.5007,-0.98749995,7.941826,-2.5342624,-4.2716007000000005,-1
324,325,1583586284695,-1.2854999,-1.5223999,-1.1524,8.118451,-2.5010214,-4.5028515,-1
325,326,1583586284705,-0.8933,-1.3892,-1.4851999,8.912272,-2.2243762,-4.920640000000001,-1
326,327,1583586284715,-0.1576,-1.0905,-1.732,9.671043,-1.8322443,-5.023064,-1
327,328,1583586284725,0.5283,-0.6796,-1.8161,10.075644,-1.4463277,-5.18291,-1
328,329,1583586284735,0.8792,-0.2403,-1.9935,9.82206,-1.2893828999999999,-5.351021299999999,-1
329,330,1583586284745,0.52169997,-0.0916,-2.1265,9.287931,-1.2998408000000001,-5.488506299999999,-1
330,331,1583586284756,0.0163,-0.1356,-2.2993,9.125624,-1.562753,-5.6593566,-1
331,332,1583586284766,-0.018000000000000002,-0.4175,-2.4015,9.671435,-1.8471743999999999,-5.359449400000001,-1
332,333,1583586284776,0.48639998,-0.6028,-2.1027,10.163712,-1.8350693999999999,-4.869739,-1
333,334,1583586284786,1.0777,-0.5653,-1.4736999,10.414375,-1.8212693,-3.9024818,-1
334,335,1583586284797,1.2365,-0.5535,-0.6493,10.120521,-1.8126883999999999,-3.35669,-1
335,336,1583586284808,0.94299996,-0.53679997,-0.100899994,9.722019,-1.8235581000000003,-3.2339537,-1
336,337,1583586284818,0.2267,-0.30699998,-0.0682,9.367142,-1.5553596,-3.35986,-1
337,338,1583586284828,0.1696,-0.0874,-0.363,9.361999,-1.3486346000000002,-3.6420019999999997,-1
338,339,1583586284838,0.38959998,0.1374,-0.5449,9.632927,-1.1707455,-3.8768926,-1
339,340,1583586284848,0.838,0.0622,-0.94619995,10.124417999999999,-1.3370084999999998,-4.244594,-1
340,341,1583586284859,0.838,0.0622,-0.94619995,10.588357,-1.4630775,-4.1153264,-1
341,342,1583586284869,1.6291,-0.2057,-0.1109,10.7417965,-1.6528994,-3.2233902999999997,-1
342,343,1583586284879,1.2439,-0.525,0.7599,10.251425999999999,-1.9418125,-2.4201547999999997,-1
343,344,1583586284889,0.5349,-0.5571,1.1722,9.530809,-1.9399354,-2.1392097000000003,-1
344,345,1583586284900,0.0508,-0.49089998,1.1999999,9.15018,-1.8244201,-2.1681125,d
345,346,1583586284910,0.087299995,-0.1551,1.091,9.287788,-1.4086716000000001,-2.330717,-1
346,347,1583586284920,0.3507,0.16659999,1.0126,9.560075999999999,-1.143758,-2.3104622000000004,-1
347,348,1583586284930,0.6157,0.3454,1.2795,9.812377,-1.0063883,-1.9714336,-1
348,349,1583586284940,0.74399996,0.47739998,1.5374,9.747781,-0.9050370000000001,-1.9674879,-1
349,350,1583586284950,0.3224,0.4843,1.1839,9.108654,-1.0218357,-2.5711044999999997,-1
350,351,1583586284961,-0.3344,0.2784,0.22119999,8.640511,-1.3195883,-3.7456617,-1
351,352,1583586284971,-0.3518,-0.099599995,-1.0812,8.903347,-1.68796,-5.051105000000001,-1
352,353,1583586284981,0.3489,-0.24249999,-1.9466,9.804591,-1.776603,-5.50856,-1
353,354,1583586284991,1.3179,-0.2085,-1.9267999,10.515918,-1.7203297999999998,-5.4663167,-1
354,355,1583586285001,1.4251,-0.24219999,-1.7989,10.15719,-1.7922227,-5.411308,-1
355,356,1583586285011,0.57129997,-0.31599998,-1.9375,9.131783,-1.7646607,-5.867719,-1
356,357,1583586285022,-0.6149,-0.2857,-2.7663,7.475281699999999,-1.8015124,-7.4360075,-1
357,358,1583586285032,-1.976,-0.51309997,-4.4153,6.490661599999999,-2.1712537,-9.293476,-1
358,359,1583586285042,-2.5084,-1.0189999,-5.9782,6.528318,-2.8989377,-10.602771,-1
359,360,1583586285052,-2.0154998,-2.0140000000000002,-7.1226997,7.573185400000001,-4.097685299999999,-11.84017,-1
360,361,1583586285062,-0.8172,-3.2649,-8.3815,8.796,-5.2051476999999995,-13.215485999999999,-1
361,362,1583586285072,0.4692,-4.1549,-9.5645,9.973412,-5.6847449999999995,-14.183078,-1
362,363,1583586285083,1.3864,-4.4804,-10.5633,10.259633000000001,-5.8753324000000005,-15.750054,-1
363,364,1583586285093,1.1893,-4.7159,-12.637799000000001,9.363694,-6.0925536,-18.333044,-1
364,365,1583586285103,0.1171,-5.0561,-14.8712,8.289665,-6.338716000000001,-19.207829,-1
365,366,1583586285113,-0.9669,-5.3525,-14.4249,7.4309225,-6.289204,-16.381435,-1
366,367,1583586285123,-1.8750999,-5.3926,-10.605,6.272808599999999,-6.086941700000001,-12.201159,-1
367,368,1583586285134,-3.3316,-5.3251,-6.7784,3.7380671999999997,-5.6673919999999995,-9.629067,-1
368,369,1583586285144,-5.679199700000001,-5.1610000000000005,-5.5698,1.5181345,-5.349317,-10.429257000000002,-1
369,370,1583586285154,-7.7675,-4.9937,-6.7703,0.7000263000000001,-4.961293,-11.90829,-1
370,371,1583586285164,-8.3124,-4.737,-8.2722,1.2027894,-4.772476999999999,-12.509052,-1
371,372,1583586285175,-7.7313,-4.6865997,-8.7031,1.8848401000000001,-4.90616,-11.192768,-1
372,373,1583586285185,-7.2233,-4.9929,-7.2040997,1.6273004999999998,-5.398657,-8.590261,-1
373,374,1583586285196,-7.8012996,-5.5469,-4.7212,0.32540074,-5.39044,-6.1285534,-1
374,375,1583586285206,-9.2849,-5.52,-2.5096998,-1.2799785,-4.798363,-3.7303097000000003,-1
375,376,1583586285216,-10.9277,-4.9424,-0.204,-2.7572392999999997,-3.8652375,-0.58535355,-1
376,377,1583586285226,-12.3573,-4.1233,2.983,-3.7872536,-2.958266,4.459881,-1
377,378,1583586285236,-13.2026,-3.4735,7.1014,-4.1753919999999995,-2.4355545,7.421058,-1
378,379,1583586285246,-13.6854,-2.8755999,10.4704,-4.2194934,-1.5110955,9.900407000000001,-1
379,380,1583586285257,-13.7203,-2.0540000000000003,12.2006,-3.7670657999999997,-0.9646526,10.782173,-1
380,381,1583586285267,-13.316199,-1.4287,12.8991995,-2.7985632000000003,-0.78667724,11.212649,-1
381,382,1583586285277,-12.4011,-1.1362,13.139899,-1.3591692,-0.74661744,12.006480999999999,-1
382,383,1583586285288,-10.9899,-0.9274,13.7484,0.51909167,-0.51983863,13.913251999999998,-1
383,384,1583586285298,-7.6888,-0.0411,17.6561,2.2501472999999996,-0.28553249999999997,16.769716,-1
384,385,1583586285308,-6.6214,-0.2501,20.2208,3.308825,-0.75877994,19.458433,-1
385,386,1583586285318,-5.6924996,-0.77779996,22.8013,4.152446,-1.6480153000000002,22.128025,-1
386,387,1583586285328,-5.1289997000000005,-2.1309,24.7312,4.7295256,-3.3011732000000005,23.808296,-1
387,388,1583586285339,-5.1289997000000005,-2.1309,24.7312,5.4784217,-4.033243,23.612373,-1
388,389,1583586285349,-2.9587,-2.3962998,23.075499,7.003605,-3.6635501000000006,21.938704,-1
389,390,1583586285359,-1.4944998999999999,-1.4564999,21.3225,8.502108,-3.0244706000000003,20.478815,-1
390,391,1583586285369,0.3547,-1.0742999,21.0253,10.275856,-3.1557877,20.690117,-1
391,392,1583586285379,1.6563,-1.9231,22.0676,11.367469,-4.459985700000001,21.787062,-1
392,393,1583586285390,2.2693,-3.3409,22.2822,11.803500999999999,-6.197918,21.741861,-1
393,394,1583586285400,2.6134,-4.7292,20.5448,12.18823,-8.043302,19.062862,-1
394,395,1583586285410,3.3161,-5.7414,17.1838,12.879282,-8.941472000000001,16.210594,-1
395,396,1583586285420,4.7602,-6.2888,13.8572,14.646913,-9.777019500000002,12.891637,-1
396,397,1583586285431,6.2173,-6.5747,12.1823,15.728756,-10.164421,11.919417999999999,-1
397,398,1583586285441,6.7409,-6.570399799999999,11.8396,15.687816,-10.317496,11.872156,-1
398,399,1583586285451,6.1807,-6.7099,11.508699,14.755752,-10.870892,11.127149000000001,-1
399,400,1583586285461,5.0481,-7.3008,9.7459,13.558278,-11.706458999999999,8.918296,-1
400,401,1583586285472,4.2867,-8.1891,7.0023,13.119564000000002,-12.642514,6.713313,-1
401,402,1583586285482,4.381,-9.2472,4.3819,13.445904,-14.470162,3.0795372000000003,-1
402,403,1583586285492,5.0554,-10.6137,1.4819,14.451248000000001,-15.91809,0.09053913,-1
403,404,1583586285502,6.3058996,-11.7156,-1.6449,15.680498000000002,-16.604392999999998,-2.9950411,-1
404,405,1583586285512,7.468899700000001,-11.837,-4.6328998,16.375172,-16.262107999999998,-5.196366,-1
405,406,1583586285523,7.7727,-11.1237,-6.1292995999999995,15.6195135,-15.474357999999999,-5.521507700000001,-1
406,407,1583586285533,6.2525997,-10.2768,-5.8083,13.037118,-14.706509,-4.8843822,-1
407,408,1583586285543,3.2445998,-9.627,-5.5382,9.971217999999999,-14.3229475,-6.0737643,-1
408,409,1583586285553,0.70059997,-9.3733,-7.9926996,8.844354,-14.224623000000001,-10.039099,-1
409,410,1583586285563,0.7022,-9.256,-12.3702,10.279132,-14.007708,-14.062965,-1
410,411,1583586285573,2.8239,-8.9578,-15.6313,13.29394,-14.0634165,-16.713675,-1
411,412,1583586285584,5.3139,-9.138,-17.4466,14.625,-14.248297,-17.660217000000003,-1
412,413,1583586285594,6.3519998,-8.9445,-18.2675,13.762351,-12.883381,-17.428467,-1
413,414,1583586285604,4.8175,-7.5067997,-17.4812,10.306416,-11.363992,-15.440723,-1
414,415,1583586285614,1.0331,-6.1405,-15.3145,6.314793,-10.629872,-13.815253,-1
415,416,1583586285625,-2.8011,-5.617999999999999,-14.058599,4.1601076,-10.339829,-14.535092,-1
416,417,1583586285635,-4.4224,-5.3999,-15.198298999999999,5.018362000000001,-10.133631,-16.654239999999998,-1
417,418,1583586285645,-3.0658,-5.2423,-17.367199,7.4766226,-10.005407,-18.142475,-1
418,419,1583586285656,-0.6195,-5.1131997,-18.5346,8.8385315,-9.733436,-17.796991000000002,-1
419,420,1583586285665,0.2934,-4.9003,-18.031599,7.446475,-9.567259,-15.953189000000002,-1
420,421,1583586285676,-1.1208999,-4.7690997,-16.100199,5.660946400000001,-9.256644,-13.89339,-1
421,422,1583586285686,-3.3693,-4.4323997,-13.45,3.8110519999999997,-8.881857,-11.663115,-1
422,423,1583586285696,-5.0586,-4.1372,-11.282499000000001,2.9377623,-8.550135000000001,-9.967091,-1
423,424,1583586285706,-5.7197,-3.9066,-9.906,3.1383099999999997,-8.275175,-9.800933,-1
424,425,1583586285716,-5.5269,-3.6567,-9.7483,3.5556576,-8.252037,-10.104738000000001,-1
425,426,1583586285726,-5.1085997,-3.6334,-10.0889,3.8501922999999993,-8.536756,-9.595463,-1
426,427,1583586285736,-4.8108997,-3.9213,-9.630899000000001,3.9332902,-8.633252,-8.692714,-1
427,428,1583586285747,-4.7249,-3.9966998,-8.7962,4.0623093,-8.639965,-7.442883999999999,-1
428,429,1583586285757,-4.5785,-3.991,-7.5996,4.1143975,-8.76385,-6.1155,-1
429,430,1583586285767,-4.5309,-4.1035,-6.292000000000001,3.986882,-8.993905,-4.9390849999999995,-1
430,431,1583586285777,-4.6419997,-4.3163,-5.0936,3.6656760000000004,-9.450613,-3.9179769999999996,-1
431,432,1583586285787,-4.9589,-4.7544,-4.0632,3.3498714,-9.603057000000002,-3.6833644,-1
432,433,1583586285797,-5.2732997,-4.8943,-3.8242998,3.4348366,-9.618964,-3.4186327000000003,-1
433,434,1583586285808,-5.1703997,-4.8879,-3.5741,3.5633957,-9.615449,-2.544682,-1
434,435,1583586285818,-5.0441,-4.8354,-1.7527,3.4733449999999997,-9.667021,-1.2039771000000001,-1
435,436,1583586285828,-5.1407,-4.8420997,-0.4506,3.3952748999999995,-9.696651,0.08632534,-1
436,437,1583586285838,-5.1407,-4.8420997,-0.4506,3.4680779999999998,-9.751776,1.0000485000000001,-1
437,438,1583586285848,-4.4115,-4.8375,1.3319999999999999,4.1736107,-9.83312,1.8033318999999999,-1
438,439,1583586285858,-4.4115,-4.8375,1.3319999999999999,4.7773232000000005,-9.913844000000001,2.3937707,-1
439,440,1583586285868,-2.6313,-4.9234,3.4391,6.0307164,-10.097785,4.1891727,-1
440,441,1583586285879,-1.7718999,-5.0758,4.8929996,6.7297277,-10.362957000000002,5.819107499999999,-1
441,442,1583586285889,-1.7718999,-5.0758,4.8929996,6.972337,-10.425130000000001,6.9015070000000005,-1
442,443,1583586285899,-0.7453,-4.7082,8.1504,7.5801,-9.981112,8.723522,-1
443,444,1583586285909,-0.2854,-4.1426997000000005,8.7949,7.947418700000001,-9.416989,9.472659,-1
444,445,1583586285919,-0.192,-3.2423,9.4393,7.916792,-8.530942999999999,10.226230000000001,-1
445,446,1583586285929,-0.4098,-2.3321,10.1879,7.6170279999999995,-7.687101400000001,11.017925,-1
446,447,1583586285940,-0.59679997,-1.5673,10.998099,7.473606,-6.9799213,11.882739,-1
447,448,1583586285950,-0.46539998,-1.0110999,11.9189,7.721808,-6.5221887,12.9658375,-1
448,449,1583586285960,-0.040599998,-0.88519996,12.7652,8.209537,-6.5343029999999995,13.556372,-1
449,450,1583586285970,0.5725,-0.8165,12.8426,8.782036999999999,-6.3172164,13.145326999999998,-1
450,451,1583586285980,1.0208,-0.3662,11.8814,9.030717999999998,-5.9359155,11.861861,-1
451,452,1583586285990,1.0475,-0.0769,10.069099000000001,8.966725,-5.771597,9.915538,-1
452,453,1583586286001,1.0239999,0.0208,8.1817,8.941098,-5.668215,8.299615,-1
453,454,1583586286011,1.1257,0.3206,6.7742996,9.078467,-5.3443464999999994,6.9074636,-1
454,455,1583586286021,1.2904999,0.5664,5.3420000000000005,9.249539,-5.210970400000001,5.793595,-1
455,456,1583586286031,1.4965,0.5912,5.089699700000001,9.439427,-5.2484255,6.111554,-1
456,457,1583586286042,1.5976,0.5724,5.9077,9.417832,-5.3103776,6.902522,-1
457,458,1583586286052,1.3903999,0.4213,6.5041,9.132136000000001,-5.5176105,7.1746273,-1
458,459,1583586286062,1.1134,0.20789999,6.3810997,8.971792,-5.671882599999999,6.704320399999999,-1
459,460,1583586286072,1.2309999999999999,0.1999,5.6171,9.16511,-5.6353955000000004,5.947494,-1
460,461,1583586286082,1.3608999,0.3094,4.3539,9.140459,-5.443246,4.2931676,-1
461,462,1583586286092,1.1379,0.46499997,3.2984998,8.808594,-5.3451796,3.3806224,-1
462,463,1583586286103,0.79569995,0.5075,2.2858,8.456263,-5.3785644,2.360223,-1
463,464,1583586286113,0.5105,0.4615,1.2087,8.369124000000001,-5.3404393,1.4606736999999999,-1
464,465,1583586286123,0.6258,0.5214,0.4998,8.689956,-5.310818,1.3826036,d
465,466,1583586286133,0.95449996,0.4346,0.88729995,8.915258999999999,-5.5543275,2.3486542999999998,-1
466,467,1583586286143,1.0246,0.1498,1.9735999,8.81841,-5.721922,3.2563155,-1
467,468,1583586286153,0.79649997,0.066,2.6626,8.433585,-5.6893415,3.4784782,-1
468,469,1583586286164,0.3208,0.124299996,2.5944998,7.963316000000001,-5.527474,3.1017457999999998,-1
469,470,1583586286174,-0.095699996,0.3371,2.0744998,7.663867999999999,-5.268211,2.5384285,-1
470,471,1583586286184,-0.34309998,0.50159997,1.5087999,7.5234723,-5.1542087,2.0783107,-1
471,472,1583586286194,-0.45049998,0.5803,1.0339,7.518540400000001,-5.0903599999999996,1.5626571000000002,-1
472,473,1583586286204,-0.3793,0.61289996,0.47399998,7.726616,-5.0739264,1.3014019,-1
473,474,1583586286214,-0.1311,0.6189,0.35979998,8.021714999999999,-5.090599500000001,1.4345386,-1
474,475,1583586286225,0.0972,0.5585,0.57589996,8.133907,-5.19287,2.0788853,-1
475,476,1583586286235,0.17799999,0.43069997,1.3044,8.186618,-5.379503,2.8750532000000004,-1
476,477,1583586286245,0.20969999,0.2545,2.0658998,8.269486,-5.4580617,3.3059902,-1
477,478,1583586286255,0.31129998,0.1864,2.3769,8.46696,-5.4584827,3.2790797,-1
478,479,1583586286266,0.5426,0.1771,2.2777998,8.796757000000001,-5.4589233,2.9343336,-1
479,480,1583586286276,0.894,0.15869999,1.8397,9.259537,-5.5780973,2.396481,-1
480,481,1583586286286,1.3646,-0.0061999997,1.2471,9.887995,-5.7398877,1.9080255000000002,-1
481,482,1583586286296,1.8932999,-0.1327,0.8244,10.383949000000001,-5.941805400000001,1.8023837999999999,-1
482,483,1583586286307,2.5175998,-0.3979,0.6789,11.139167,-6.187239599999999,2.242371,-1
483,484,1583586286317,3.1376998,-0.6073,1.1173999,11.504560000000001,-6.463272,3.2014593999999996,-1
484,485,1583586286327,3.4873,-0.9007,2.0799,11.749419999999999,-6.8370934000000005,3.9438345,-1
485,486,1583586286337,3.7138,-1.2990000000000002,2.8212,12.169488000000001,-7.039728599999999,4.7567905999999995,-1
486,487,1583586286347,4.1133,-1.5374,3.6355998999999994,12.775058,-7.068536,5.281685400000001,-1
487,488,1583586286358,4.6875,-1.6050999,4.1503997,13.549104000000002,-7.0871725,5.3016434,-1
488,489,1583586286368,5.4372997000000005,-1.6692,4.1347,14.257701,-7.18226,4.8585153,-1
489,490,1583586286378,6.7998,-1.8808999,3.4234,15.08124,-7.1926894,4.734246700000001,-1
490,491,1583586286388,7.1898,-2.0621,3.721,15.464139999999999,-7.293485,5.1565833,-1
491,492,1583586286399,7.2732,-2.2389997999999998,4.532099700000001,15.528228,-7.3959,6.046374299999999,-1
492,493,1583586286408,7.2732,-2.2389997999999998,4.532099700000001,15.39238,-7.261547,6.930888,-1
493,494,1583586286418,7.0691,-2.2282,5.6187997,15.159070000000002,-7.1857367,7.819491999999999,-1
494,495,1583586286428,6.6976,-2.2649,6.6777997000000004,14.813309,-7.109074000000001,8.247402000000001,-1
495,496,1583586286438,6.3209995999999995,-2.3369,6.964699700000001,14.849260000000001,-6.912549,7.6430774,-1
496,497,1583586286448,6.3609,-2.2656999,4.9835,15.025637,-6.697511,5.9412303,-1
497,498,1583586286459,6.1979999999999995,-2.2587,3.4090998,14.916431,-6.5056305,4.458980599999999,-1
498,499,1583586286469,6.1979999999999995,-2.2587,3.4090998,14.731254999999999,-6.2261505,3.9064848,-1
499,500,1583586286479,5.3759,-1.9757999,2.9269998,14.165304,-5.838778,4.2621775,-1
500,501,1583586286489,4.5217,-2.0146,3.7635998999999996,13.358726500000001,-5.7482576,5.134107,-1
501,502,1583586286499,3.4220998,-2.241,5.309,12.323723,-5.7326956,6.5962462,-1
502,503,1583586286509,2.1301,-2.3978,6.0874,11.066747,-5.655995,6.892542999999999,-1
503,504,1583586286520,0.6576,-2.5421999,5.1294,9.721369000000001,-5.528068,5.5607824,-1
504,505,1583586286530,-0.56229997,-2.4428,3.4898998999999997,8.630695,-5.1566795999999995,3.8002013999999997,-1
505,506,1583586286540,-1.4199,-2.2006,2.1998,7.909283599999999,-4.525233,2.4429286,-1
506,507,1583586286550,-1.7477,-1.7327,1.8194,7.734344,-3.9130258999999996,2.135628,-1
507,508,1583586286560,-2.1438,-1.1448,1.6448,7.3388505,-3.175516,1.7943297999999999,-1
508,509,1583586286570,-2.8346,-0.8777,1.1694,6.652299,-2.771777,1.0988908000000002,-1
509,510,1583586286580,-3.5858,-0.8624,0.0602,5.815506500000001,-2.6225126,-0.6381313,-1
510,511,1583586286590,-4.1823997,-1.0490000000000002,-1.4817,5.424178599999999,-2.7070951,-1.9524523999999999,-1
511,512,1583586286600,-4.3508997,-1.4107,-2.5533,5.434857,-2.8920999,-3.0685813,-1
512,513,1583586286610,-4.1015,-1.6176,-2.7402,5.7029879999999995,-2.8676692999999998,-3.2105956,-1
513,514,1583586286620,-3.9843998,-1.5186,-2.4912,5.724824,-2.4484543999999997,-2.9244215000000002,-1
514,515,1583586286630,-4.1478,-1.0911,-1.9294,5.385144,-1.8182142,-2.4803642999999997,-1
515,516,1583586286640,-4.7781997,-0.5281,-1.2793,4.5723605,-1.1530666,-1.8977207999999999,-1
516,517,1583586286650,-5.8368998,-0.1371,-0.40739998,3.6624582,-0.78037566,-1.2692813,-1
517,518,1583586286660,-7.0586996,-0.1648,0.3764,2.4348745,-0.7745338,-0.6553888000000001,-1
518,519,1583586286671,-8.0514,-0.5341,0.7227,1.4825184,-1.1432313,-0.5808333000000001,-1
519,520,1583586286681,-8.1874,-0.99259996,0.6376,1.7529004000000001,-1.53996,-0.8437454,-1
520,521,1583586286691,-7.4577,-1.5974,0.3349,2.6207697,-2.1886356,-1.4161991000000003,-1
521,522,1583586286701,-6.3845997,-2.1783,-0.5396,3.7901745000000004,-2.5408225,-2.7469919999999997,-1
522,523,1583586286711,-5.3332,-2.2080998,-2.1506,4.550017400000001,-2.3180661,-4.3727800000000006,-1
523,524,1583586286721,-5.1586,-1.8283999,-3.072,4.244173,-1.9144037,-4.553474400000001,-1
524,525,1583586286732,-5.6927,-1.675,-2.4884999,3.6960442000000002,-1.8253009999999998,-3.7743727999999996,-1
525,526,1583586286742,-6.3837,-1.5363,-1.3363,2.8997612,-1.5280465,-2.4182777,-1
526,527,1583586286752,-6.9287996,-1.2612,-0.2625,2.6183755,-1.2466226,-1.54449,-1
527,528,1583586286762,-7.0091,-1.1177,0.5663,2.710428,-1.272298,-1.0409414000000001,-1
528,529,1583586286772,-6.6931,-1.3563,1.031,3.3195415,-1.6537994999999999,-0.9350411,-1
529,530,1583586286782,-5.9228997,-1.7205,0.85099995,4.1778626,-2.1108238999999998,-1.3856874,-1
530,531,1583586286794,-4.6407,-2.4378,0.0784,5.833712,-3.0196247000000005,-2.5760558,-1
531,532,1583586286804,-3.1908,-2.9494998,-0.81259996,7.116669,-3.1429548,-3.6882772000000004,-1
532,533,1583586286814,-2.3695,-2.8465998,-1.7116,7.236331,-2.8995602000000003,-4.5442047,-1
533,534,1583586286824,-2.3845,-2.4506,-2.6437,6.866005400000001,-2.3835043999999996,-5.172644,-1
534,535,1583586286835,-2.7447999,-1.9876,-2.8298,6.594253999999999,-2.013514,-4.596561,-1
535,536,1583586286845,-2.9587,-1.6488999,-2.0778,6.625464999999999,-1.8424531000000002,-3.8064263,-1
536,537,1583586286855,-2.8381,-1.4863,-1.3026,6.999841,-1.8219109,-3.3202597999999997,-1
537,538,1583586286865,-2.4115999,-1.4933,-0.82659996,7.469967,-2.1210904,-3.2395082000000004,-1
538,539,1583586286876,-1.9153999,-1.8248999,-0.77089995,8.102007,-2.4798663,-3.5641809999999996,-1
539,540,1583586286886,-1.2135999,-2.0885,-1.1122,8.880114,-2.508137,-4.174846,-1
540,541,1583586286896,-0.45479998,-2.0026999,-1.7375,9.532792,-2.2658343,-5.120191999999999,-1
541,542,1583586286906,0.085599996,-1.7419,-2.4907,9.598527,-1.8886324,-5.5671706,-1
542,543,1583586286916,0.16309999,-1.3339,-2.9169998,9.381143,-1.5072743999999998,-5.422742400000001,-1
543,544,1583586286927,-0.044999998,-0.9296,-2.7477,9.079177,-1.2276604,-4.8166839999999995,-1
544,545,1583586286937,-0.3414,-0.64419997,-2.1153998,8.907789999999999,-1.2212726999999999,-4.4655504,-1
545,546,1583586286948,-0.49989998,-0.6288,-1.7448,9.097239,-1.1736186000000002,-4.6389666,-1
546,547,1583586286958,0.076699995,-0.65099996,-1.7170999,9.547799000000001,-1.3089292,-4.4070263,-1
547,548,1583586286968,0.3006,-0.7193,-1.0841,9.701429,-1.3314347,-3.7706665999999998,-1
548,549,1583586286978,0.2573,-0.6516,-0.61579996,9.605355,-1.2625678999999999,-3.3831217000000002,-1
549,550,1583586286988,0.073,-0.48569998,-0.4148,9.417747,-1.0953376,-3.2283703999999998,-1
550,551,1583586286998,-0.065,-0.34669998,-0.4398,9.313932000000001,-0.9805118,-3.3099263,-1
551,552,1583586287008,0.030299998999999998,-0.20349999,-0.7858,9.514385,-0.790326,-3.6814584999999997,-1
552,553,1583586287018,0.33159998,0.0712,-1.084,9.794526,-0.59146357,-3.9632945,-1
553,554,1583586287028,0.6242,0.13069999,-1.3298999,10.066603,-0.5846353,-4.167261,d
554,555,1583586287039,0.9086,0.1179,-1.3338,10.354865,-0.58115894,-4.0498400000000006,-1
555,556,1583586287049,1.0181999,0.19669999,-0.8012,10.366137,-0.53517115,-3.460464,-1
556,557,1583586287059,0.73759997,0.1109,-0.2399,10.025471000000001,-0.66237026,-2.9552782000000004,-1
557,558,1583586287069,0.3409,-0.027099999,0.1998,9.653508,-0.75470024,-2.533391,-1
558,559,1583586287079,0.11109999599999999,0.0919,0.4436,9.479085000000001,-0.60684395,-2.4282662999999998,-1
559,560,1583586287090,0.3321,0.2192,0.1935,9.901125,-0.5217827,-2.8554877999999997,-1
560,561,1583586287099,0.3321,0.2192,0.1935,10.358083,-0.57378477,-3.4549959,-1
561,562,1583586287109,1.3577,0.074499995,-1.3945,10.7916155,-0.7771100000000001,-4.451041,-1
562,563,1583586287119,1.6827999,-0.24509999,-2.3543,11.086724,-1.1224878999999999,-5.377942,-1
563,564,1583586287129,1.9212999,-0.7417,-3.0414,11.312249000000001,-1.6242456,-6.024214,-1
564,565,1583586287139,2.004,-0.9578,-3.574,11.352979,-1.7397515,-6.572475999999999,-1
565,566,1583586287149,1.7743,-0.8849,-3.9903998,11.014391,-1.6461284999999999,-6.96841,-1
566,567,1583586287160,0.99549997,-0.9819,-4.325,10.117828999999999,-1.7591254,-7.359536599999999,-1
567,568,1583586287170,-0.0664,-1.4090999,-4.8518,9.100025,-2.2227097000000002,-7.965394,-1
568,569,1583586287180,-0.5283,-2.2433,-5.5706,8.909217,-3.2785912000000006,-8.976562,-1
569,570,1583586287190,0.088199995,-3.2524,-6.4992,9.883761999999999,-4.1676826,-10.068853,-1
570,571,1583586287200,1.1833999,-3.8920999,-8.3282995,10.7347,-4.630989,-12.475667999999999,-1
571,572,1583586287210,1.5577999,-4.2651997,-11.1024,10.844355,-4.938836,-15.231365,-1
572,573,1583586287220,1.4734,-4.5561,-13.1311,10.771456,-5.0279484000000005,-16.14869,-1
573,574,1583586287231,1.4533,-4.442,-11.8154,10.642093,-4.732264,-13.356763,-1
574,575,1583586287241,0.72859997,-4.3004,-7.5716996,9.380999000000001,-4.4815245,-8.866237,-1
575,576,1583586287251,-1.3777,-4.1675,-3.8688,6.8667336,-4.0970635,-6.148674,-1
576,577,1583586287261,-4.0859,-3.8569998999999995,-3.0397,4.320901999999999,-3.6318029999999997,-6.5317940000000005,-1
577,578,1583586287271,-6.0575,-3.6525,-4.9916,2.9761746,-3.4349038999999997,-9.477113000000001,-1
578,579,1583586287281,-6.2869997,-3.6892998,-7.4908,3.3930339999999997,-3.4266962999999997,-10.883677,-1
579,580,1583586287292,-5.5443997000000005,-3.7642,-8.6523,4.2080965,-3.5166225,-11.253638,-1
580,581,1583586287302,-4.9968,-4.0615997,-7.8680997,4.504748,-3.983061,-8.401129,-1
581,582,1583586287313,-5.1726,-4.5204997,-4.442199700000001,4.0672793,-4.0717419999999995,-5.069080400000001,-1
582,583,1583586287323,-6.1510997000000005,-4.322,-0.5572,2.4319917999999996,-3.3958497000000003,-1.1127483,-1
583,584,1583586287333,-7.9269996,-3.6555,1.6249,0.44859678,-2.42388,-0.008283937,-1
584,585,1583586287343,-9.778999,-2.7862,2.0621,-0.80800474,-1.5172535,0.49792692,-1
585,586,1583586287353,-10.544,-1.9301,2.6358,-0.90873367,-0.52666694,1.5427853,-1
586,587,1583586287363,-10.3898,-1.0875,3.7096998999999995,-0.31330523,0.09629479,3.205769,-1
587,588,1583586287374,-9.8048,-0.7019,4.9888997,0.6037123000000001,0.5841086,4.494951,-1
588,589,1583586287384,-8.8566,-0.1739,6.1633997,1.4482238,0.9091359,6.057176999999999,-1
589,590,1583586287394,-8.104199000000001,0.1375,7.7292,2.0352726000000003,1.2274593,8.720880000000001,-1
590,591,1583586287404,-7.615,0.49969998,10.4932995,2.2568509999999997,1.5128481000000003,12.047201,-1
591,592,1583586287414,-7.5263995999999995,0.8154,13.5828,2.0996479999999997,1.3090442,14.2207155,-1
592,593,1583586287424,-7.6720996,0.5417,15.269198999999999,2.3949008,0.472127,15.070235,-1
593,594,1583586287435,-7.1987,-0.2078,15.9141,3.7305877,-0.0059280433,15.990164000000002,-1
594,595,1583586287445,-5.7254996,-0.3673,16.7283,5.5642014,0.17321570000000003,17.21817,-1
595,596,1583586287455,-3.8709998,-0.0263,17.8793,7.2940309999999995,0.775367,18.518068,-1
596,597,1583586287466,-2.2305,0.81979996,19.029999,8.362267,1.4514704999999999,19.251547,-1
597,598,1583586287476,-1.341,1.5670998999999999,19.5436,8.601772,1.4614111,19.700182,-1
598,599,1583586287486,-1.2031,1.5265,19.9695,8.622967,0.47927129999999996,20.16412,-1
599,600,1583586287496,-1.1898,0.5552,20.2705,9.021180000000001,-0.9606302999999999,19.770933,-1
600,601,1583586287506,-0.7912,-0.45859998,19.8645,10.233775,-1.7503147000000001,19.170937,-1
601,602,1583586287517,0.43429998,-1.0799999,19.2599,11.592897,-2.1968715,18.052885,-1
602,603,1583586287527,2.1143,-1.4395,17.692,12.953254,-2.4502740000000003,15.527184,-1
603,604,1583586287537,3.395,-1.4887999,15.134198999999999,13.735956,-2.9457204,12.784289999999999,-1
604,605,1583586287547,3.9912,-1.7828,12.9109,13.979063,-3.7009760999999997,10.222571,-1
605,606,1583586287557,4.245899700000001,-2.3922,10.406099000000001,14.039072,-4.385296299999999,8.631403,-1
606,607,1583586287568,4.3252,-2.944,8.8857,14.056856,-5.3182116,8.726003,-1
607,608,1583586287578,4.428499700000001,-4.937599700000001,8.5137,14.140893,-6.928063000000001,7.798959,-1
608,609,1583586287588,4.9530997,-6.1658998,6.5334997,14.697287,-8.151682000000001,5.406442,-1
609,610,1583586287598,5.3813996,-6.6291,2.83,15.055142000000002,-8.568359,1.3720788000000002,-1
610,611,1583586287608,5.5452,-6.5246997,-1.5512999,15.153506,-8.507049,-3.012356,-1
611,612,1583586287619,5.6194997,-6.0221,-4.8354,15.190223999999999,-8.05531,-5.8036504,-1
612,613,1583586287629,5.5835,-5.4816,-5.2058,15.049598000000001,-7.718427,-5.72716,-1
613,614,1583586287639,4.8673997,-5.874,-5.1362,14.226528,-8.383738000000001,-6.052896,-1
614,615,1583586287649,4.5017,-6.8771996,-6.9863,14.064862,-9.397538,-8.274944999999999,-1
615,616,1583586287659,4.5017,-6.8771996,-6.9863,14.520939000000002,-9.728953,-11.024801,-1
616,617,1583586287669,5.7676997000000005,-7.2496,-12.9505,15.311916,-9.607099,-14.309885000000001,-1
617,618,1583586287679,5.6308,-6.6322,-14.446798999999999,14.852909,-8.95553,-15.782108,-1
618,619,1583586287689,4.1342,-6.1226,-15.2541,13.18255,-8.549714,-16.537632000000002,-1
619,620,1583586287699,2.2756,-5.843999999999999,-15.304998999999999,11.408303,-8.220329,-16.535373999999997,-1
620,621,1583586287710,1.1168,-5.4235,-15.6008,10.437609,-7.760708999999999,-17.166819,-1
621,622,1583586287720,1.0157,-5.1278996,-17.422698999999998,10.624145500000001,-7.5099216,-19.457628,-1
622,623,1583586287730,1.5345,-5.0067997,-18.949999,11.115177000000001,-7.3335357000000005,-20.648889999999998,-1
623,624,1583586287740,1.6912999,-4.8457,-19.504,10.9612875,-7.107791000000001,-20.75047,-1
624,625,1583586287750,1.0311999,-4.588,-18.593899,10.019465,-6.7269025,-19.117022,-1
625,626,1583586287761,-0.1924,-4.1302,-15.7555,8.77225,-6.2107124,-16.273552,-1
626,627,1583586287771,-1.8030000000000002,-3.7113,-12.9922,6.8384914000000006,-5.6341314,-13.651719,-1
627,628,1583586287781,-3.7512999,-3.1102,-11.1293,5.083168,-4.820179,-12.246762,-1
628,629,1583586287791,-4.9954,-2.4261,-10.1058,4.292909,-4.243483,-11.322649,-1
629,630,1583586287801,-5.1994,-2.1290998,-9.5159,4.6064725,-3.9677095000000002,-11.189503,-1
630,631,1583586287811,-4.607,-2.0822,-9.996699000000001,5.2761984,-3.9911437000000007,-11.752313000000001,-1
631,632,1583586287822,-3.7375,-2.1109999999999998,-10.4607,6.0208715999999995,-4.0159187,-11.680046,-1
632,633,1583586287832,-3.4048,-2.2602,-9.6213,6.0196266,-4.3167267,-9.962226,-1
633,634,1583586287842,-3.7268999,-2.6081,-7.8097997,5.5672565,-4.491819400000001,-8.304978,-1
634,635,1583586287852,-4.3606,-2.8,-5.4986997,4.847722,-4.6352987,-5.4608006,-1
635,636,1583586287862,-4.8940997,-2.9152,-3.182,4.437883,-4.538803,-3.4816384,-1
636,637,1583586287872,-5.2695,-2.6983,-1.4676,4.0697117,-4.2487507,-2.456537,-1
637,638,1583586287883,-5.6643,-2.5226,-0.98969996,3.7564163,-4.2435117,-2.7466092,-1
638,639,1583586287893,-5.7555,-2.6185,-1.6302999,4.1785045,-4.4334489999999995,-3.2666202,-1
639,640,1583586287903,-5.0519,-2.8402,-1.8714,5.0759754,-4.7110133,-2.9774964,-1
640,641,1583586287913,-4.2195,-3.0602999,-1.3852,5.641093700000001,-4.855594,-2.1260226,-1
641,642,1583586287923,-3.8667,-3.1049,-0.3735,5.587664599999999,-4.902626000000001,-0.8090199,-1
642,643,1583586287933,-4.2191,-3.1188998,1.1249,4.6556115,-4.9369206,1.2339811,-1
643,644,1583586287943,-5.1101,-3.1099,2.7853,3.7612812999999994,-4.8929152,3.1006253,-1
644,645,1583586287954,-5.9315,-3.0586,4.7427,3.2790892,-4.847569,5.1784573,-1
645,646,1583586287964,-6.3294,-2.9542,6.6626997,3.2246068,-4.739686,6.3724739999999995,-1
646,647,1583586287974,-6.3039,-2.7814999,7.641,3.4593627000000002,-4.613933,6.819941,-1
647,648,1583586287984,-5.8638,-2.4995,8.023,4.4005237,-3.99462,7.145275,-1
648,649,1583586287995,-4.9398,-1.7509999,8.248,5.246682,-3.431322,7.840339999999999,-1
649,650,1583586288005,-4.1783,-1.1976,8.9271,5.584983,-3.4255949999999995,8.794439,-1
650,651,1583586288015,-3.9334998,-1.1515,9.9594,5.300092,-3.6150339,10.459904,-1
651,652,1583586288025,-4.2749,-1.2429,11.675699,4.879881,-3.756828,12.411254,-1
652,653,1583586288035,-4.6924,-1.2523,13.5201,4.4955444,-3.8365455,13.793781,-1
653,654,1583586288046,-4.9295,-1.2615,14.7401,4.807509400000001,-4.117327700000001,14.956176000000001,-1
654,655,1583586288057,-4.5922,-1.3431,15.613199,5.158614,-3.9909427,15.328732500000001,-1
655,656,1583586288067,-4.1310997,-0.997,15.868198999999999,5.535222,-3.4748964,14.354494,-1
656,657,1583586288077,-3.7814,-0.3942,14.8082,5.977402,-2.9168942,12.769542,-1
657,658,1583586288087,-3.2777998,0.33409998,13.1173,6.619824400000001,-2.5821369,12.680918,-1
658,659,1583586288099,-2.5806,0.8418,12.9397,6.836106299999999,-2.8798895,14.00155,-1
659,660,1583586288109,-2.5340000000000003,0.38689998,15.474898999999999,6.403972,-3.53275,15.626285000000001,-1
660,661,1583586288119,-3.0168,-0.2074,16.3842,5.907252,-4.3348265,16.263678,-1
661,662,1583586288129,-2.9886,-0.86649996,15.6818,6.0043416,-5.152714700000001,15.401746,-1
662,663,1583586288139,-2.279,-1.2929,13.934799,6.681336,-5.758055000000001,13.667693,-1
663,664,1583586288150,-1.4661,-1.6676999,12.1461,7.4824839999999995,-6.576307300000001,11.695675999999999,-1
664,665,1583586288160,-0.7098,-2.3034,10.481199,8.070558,-7.4898195,10.485702999999999,-1
665,666,1583586288170,0.0253,-3.0985,9.604899000000001,8.723628,-8.5855875,9.844555,-1
666,667,1583586288180,0.96159995,-4.1158,8.5306,9.677957000000001,-9.888092,8.502844999999999,-1
667,668,1583586288190,2.3904998,-5.1622996,6.5787997,10.802217,-10.836281,6.898624000000001,-1
668,669,1583586288200,3.995,-5.8287997,4.7683,12.525333,-11.644210000000001,5.1321054,-1
669,670,1583586288211,5.1629,-5.9336,3.6927,13.021508,-11.813278,4.2642746,-1
670,671,1583586288221,4.9175997,-5.7584,2.9076,12.120187,-11.65055,3.7241904999999997,-1
671,672,1583586288231,3.5351,-5.3904,2.7294,10.468349,-11.432907,3.9680445,-1
672,673,1583586288241,2.0218,-5.1354,3.0182,8.992975,-11.408408999999999,4.2423434,-1
673,674,1583586288251,1.0914,-5.2697,2.6938999,8.361998,-11.885631,3.3649068,-1
674,675,1583586288262,1.4728999,-5.9953,-0.1778,9.269956,-12.800550999999999,-0.6090945,-1
675,676,1583586288272,3.3186998,-6.6650996,-5.3469,11.278203,-13.475333,-5.4516163,-1
676,677,1583586288282,5.4188,-7.0462,-9.3279,13.196563000000001,-13.722338,-8.325923,-1
677,678,1583586288292,7.1994996,-6.792000000000001,-10.1497,14.347398000000002,-13.324766,-7.736901,-1
678,679,1583586288302,7.232,-6.1176,-7.8704,12.902574000000001,-12.75353,-4.1474853,-1
679,680,1583586288312,4.9895,-5.9027,-4.807699700000001,10.028555,-12.817061,-2.0629783,-1
680,681,1583586288323,2.2043,-5.9063,-3.6339,8.002265,-12.532516000000001,-2.027027,-1
681,682,1583586288334,0.986,-5.3679,-4.0847,7.798202000000001,-11.800896,-2.7737114,-1
682,683,1583586288344,1.3038,-4.6882,-5.250499700000001,8.623148,-11.394715,-5.1797404,-1
683,684,1583586288354,2.1185,-4.4758,-7.744,9.33573,-11.345614,-7.013660400000001,-1
684,685,1583586288364,3.1016998,-4.3501,-9.6807995,10.322591000000001,-11.041062,-7.5393505,-1
685,686,1583586288375,3.7807998999999994,-4.0278,-9.4543,10.271039,-10.818076,-5.577312,-1
686,687,1583586288385,3.5233,-3.8569998999999995,-7.067,9.128622,-10.730025999999999,-2.6712682,-1
687,688,1583586288396,2.2180998,-3.7064,-4.184,7.582283500000001,-10.443862,-1.0575763,-1
688,689,1583586288406,0.6428,-3.4103,-2.9187999,6.311326,-10.021189999999999,-1.3320763999999998,-1
689,690,1583586288416,-0.5125,-2.9842,-3.4515998,5.8860493,-9.439906,-2.3015845,-1
690,691,1583586288426,-0.77889997,-2.3899,-4.4551,6.1838875,-8.833599000000001,-3.1453872000000005,-1
691,692,1583586288436,-0.37559998,-1.8376,-5.3092,6.7502985,-8.5660515,-3.709921,-1
692,693,1583586288447,0.22839999,-1.6502999,-5.8959,7.3986387,-8.586,-3.6599011,-1
693,694,1583586288456,0.7586,-1.6638998999999999,-5.7616,7.491111999999999,-8.7057295,-2.6707895,-1
694,695,1583586288466,0.8436,-1.8428999,-4.4129,7.317504,-8.980315,-1.1547618,-1
695,696,1583586288476,0.5916,-2.0253,-2.8939998,6.735186,-8.527887,0.07180689999999999,d
696,697,1583586288486,0.056399997,-1.5971999,-1.8691,6.259621,-8.127194,0.47636953,-1
697,698,1583586288496,-0.5665,-1.1352999,-1.3826,5.654606299999999,-7.8390856,0.13090536,-1
698,699,1583586288507,-1.0641999,-0.9199,-1.7309999999999999,5.9183803,-7.707739999999999,-0.30269409999999997,-1
699,700,1583586288517,-0.8149,-0.7984,-2.1447,6.5650830000000004,-7.606369,-0.30397743,-1
700,701,1583586288527,-0.1639,-0.69949996,-2.1550999,7.007128999999999,-7.6519639999999995,-0.18647,-1
701,702,1583586288537,0.4518,-0.9665,-1.9491999,7.1680193,-7.9786386,-0.08723513,-1
702,703,1583586288547,0.5153,-1.2606,-1.8419999999999999,7.2507253,-8.228058,0.06769845,-1
703,704,1583586288558,0.6595,-1.4606999,-1.6139,7.428183,-8.4011965,0.20536505,-1
704,705,1583586288567,0.6595,-1.4606999,-1.6139,7.4766035,-8.47648,0.27180892,-1
705,706,1583586288577,0.7202,-1.5771998999999999,-1.5116999,7.4828567999999995,-8.399759,0.49327257,-1
706,707,1583586288587,0.7109,-1.5115,-1.273,7.492855499999999,-8.192298,0.84318995,-1
707,708,1583586288597,0.70309997,-1.3113999,-0.9129999999999999,7.486956,-8.1016245,1.2373139,-1
708,709,1583586288607,0.6791,-1.2393,-0.5291,7.5824943,-8.224725,1.2308208,-1
709,710,1583586288617,0.76629996,-1.3729999,-0.5496,7.844027499999999,-8.562623,0.64755493,-1
710,711,1583586288628,1.0229,-1.7402999,-1.1613,8.688605,-9.137825,-0.16226941,-1
711,712,1583586288638,3.1229,-2.947,-2.688,10.249664,-9.858326,-0.9807415999999999,-1
712,713,1583586288648,4.4853997,-3.4297,-2.9013999,11.588032,-10.312814,-1.0856459999999999,-1
713,714,1583586288658,5.4839,-3.8516998,-2.2974,12.506706,-10.725219000000001,-0.4325748,-1
714,715,1583586288668,5.4839,-3.8516998,-2.2974,12.74333,-11.049662,0.11973882,-1
715,716,1583586288679,5.6828,-4.6457,-1.6797999,12.587946,-11.365735,-0.17446070000000002,-1
716,717,1583586288694,5.4786,-4.7409,-2.9601,12.541192,-11.381651,-1.5596212999999999,-1
717,718,1583586288704,5.8624,-4.8009996,-4.5252,13.568276000000001,-11.41676,-3.5863513999999994,-1
718,719,1583586288715,6.647,-4.9105,-5.4547,14.522804999999998,-11.597800999999999,-3.6703303,-1
719,720,1583586288725,7.5025997,-5.1591997,-5.3774,15.189582000000001,-11.663947,-3.291472,-1
720,721,1583586288735,8.0415,-5.2971,-4.9154,15.469242999999999,-11.970702000000001,-2.2842119999999997,-1
721,722,1583586288745,8.1629,-5.7900996,-3.6604,15.479299,-12.38602,-0.47240472,-1
722,723,1583586288755,8.0245,-6.1513,-1.6902,15.212738,-12.054173,0.99414915,-1
723,724,1583586288765,7.5467,-5.8561,-0.40269998,14.367078,-11.590407,1.1006433,-1
724,725,1583586288776,6.4877,-5.5530996,-0.43829998,13.31587,-11.177877,0.6256815,-1
725,726,1583586288786,5.303999999999999,-5.2574997,-0.8182,12.527152000000001,-10.460324,0.35998259999999993,-1
726,727,1583586288796,4.4807997,-4.6586,-0.8567,12.057736,-9.384677,0.80561054,-1
727,728,1583586288806,3.9812999,-3.9185998,-0.31649998,11.737277,-8.650835,1.2022818000000002,-1
728,729,1583586288816,3.4143999,-3.2034,0.30789998,10.889644,-7.8361073,1.8871577000000002,-1
729,730,1583586288826,2.5454,-2.7294998,1.0797,10.084119,-7.907933,3.034143,-1
730,731,1583586288837,1.6024,-2.9872,2.4150999,9.703125,-8.008347,4.15099,-1
731,732,1583586288847,1.0254999,-3.2807,4.0311,9.475235000000001,-7.5630820000000005,5.3969045,-1
732,733,1583586288857,0.7586,-3.0398,5.1693997000000005,9.261614999999999,-7.267771700000001,5.7141933,-1
733,734,1583586288867,0.4465,-2.9517999,5.6415,8.971227,-6.773513,5.551857,-1
734,735,1583586288877,0.051099997,-2.6748998,5.5846,8.504377,-5.912146,4.878933,-1
735,736,1583586288887,-0.5072,-2.0331,5.0021,7.741842699999999,-5.1253443,3.7842562000000006,-1
736,737,1583586288898,-2.1606,-1.0662999,3.1176999,6.929864,-4.340276,2.6627542999999996,-1
737,738,1583586288908,-2.6141999,-0.69589996,2.4032,6.622055499999999,-3.6755687999999993,1.7723221999999998,-1
738,739,1583586288918,-2.6141999,-0.69589996,2.4032,6.521403299999999,-3.1750178,1.4240042,-1
739,740,1583586288928,-3.0916997999999998,0.40969998,2.3488998,6.2062116,-2.1243942000000002,1.8433726000000001,-1
740,741,1583586288938,-3.0916997999999998,0.40969998,2.3488998,5.343159,-1.5202893,2.7076123,-1
741,742,1583586288948,-5.0736,1.0488,4.3722997,4.2207766,-1.1401955,3.6086364,-1
742,743,1583586288959,-5.8957,0.8175,4.9179,3.5938980000000003,-1.2480686,3.9237516,-1
743,744,1583586288969,-5.9754996,0.3518,4.9993,3.6503723,-1.4805647,3.8514662000000004,-1
744,745,1583586288979,-5.6596,0.2985,4.6984,4.0139556,-1.2704687,3.4050910000000005,-1
745,746,1583586288989,-5.3914,0.5255,3.5742,4.2986264,-0.80425066,1.8155231,-1
746,747,1583586288999,-5.3578997,0.8689,2.1478,4.277701400000001,-0.2748448,0.76334816,-1
747,748,1583586289010,-5.7135997000000005,1.4623,0.89559996,3.7930667000000002,0.5620053,-0.61063635,-1
748,749,1583586289020,-6.1728,1.7166,0.1471,3.3407730000000004,0.7110013000000001,-0.93035805,-1
749,750,1583586289030,-6.5676,1.4755,0.6493,3.0601057999999997,0.5482913,0.11104307,-1
750,751,1583586289040,-6.6625,1.0472,2.3925,3.1306772,0.13905524,2.0231388,-1
751,752,1583586289050,-6.4002,0.45549998,4.2349,3.4305462999999996,-0.26952967,3.3360422,-1
752,753,1583586289061,-5.7153,-0.0534,5.2415,4.2642937000000005,-0.51098967,3.8849561,-1
753,754,1583586289071,-5.2872996,0.12629999,4.3658,4.4302209999999995,-0.055698708,2.4253838,-1
754,755,1583586289081,-5.4795,0.4811,2.4424999,4.1277,0.24025336,0.51615155,-1
755,756,1583586289092,-5.8389997000000005,0.46109998,0.94629997,3.8012642999999997,0.22975717,-0.50037855,-1
756,757,1583586289102,-5.9435997,0.3102,0.6409999999999999,4.051449,0.00080445176,-0.25368962,-1
757,758,1583586289112,-5.4066997,-0.0492,1.0961,4.9497056,-0.42570823,0.31611124,-1
758,759,1583586289122,-4.3285,-0.447,1.6142,6.0560089999999995,-0.5541428,0.7463493,-1
759,760,1583586289132,-3.3858,-0.50549996,2.0188,6.5685020000000005,-0.50639284,1.0470131999999999,-1
760,761,1583586289143,-3.1083998999999998,-0.53569996,2.3760998,6.573137299999999,-0.5849226,1.3861661,-1
761,762,1583586289153,-3.2524,-0.58889997,2.6555998,6.3640275,-0.47511497,1.5681638999999998,-1
762,763,1583586289163,-3.3966,-0.57449996,2.6955,6.322081,-0.49993804,1.1528943,-1
763,764,1583586289173,-3.4050998999999997,-0.5768,1.986,6.3949323,-0.24519499,0.13246639,-1
764,765,1583586289183,-3.2688,-0.22,0.89449996,6.578404400000001,0.190272,-0.8775994,-1
765,766,1583586289193,-3.0651999,0.0634,-0.0222,6.8306192999999995,0.33422098,-1.5355835,-1
766,767,1583586289203,-2.7919,0.0953,-0.45749998,7.218833999999999,0.29693848,-1.5198678999999997,-1
767,768,1583586289214,-2.3112,0.044499997,-0.1541,7.754397999999999,0.37090972,-0.97770584,-1
768,769,1583586289224,-1.8291,0.1563,0.4556,8.076102,0.41947374,-0.324807,-1
769,770,1583586289234,-1.6409,0.13419999,0.912,8.192067,0.3553666,-0.35388216,-1
770,771,1583586289244,-1.4921,0.1047,0.7884,8.653162,0.330984,-0.91099375,-1
771,772,1583586289254,-0.96159995,0.089999996,0.1599,9.221689,0.38965154,-1.7766987,-1
772,773,1583586289264,-0.4222,0.1576,-0.7309,9.519768,0.43705672,-2.4222137999999998,-1
773,774,1583586289274,-0.2171,0.20359999,-1.2558,9.454500999999999,0.4180755,-2.5523912999999996,-1
774,775,1583586289285,-0.33519998,0.17549999,-1.3083999,9.264871000000001,0.33874124,-2.3844142,-1
775,776,1583586289295,-0.52129996,0.0735,-1.1106,9.148762,0.23031262,-2.0181970000000002,-1
776,777,1583586289305,-0.579,-0.039899997,-0.7108,9.384523,0.14585477,-1.5820597,-1
777,778,1583586289315,-0.2635,-0.121599995,-0.2658,9.8354,0.14247414,-1.2459139,-1
778,779,1583586289325,0.1893,-0.1205,0.061899997000000005,10.148092,0.12446018,-0.9841700999999999,-1
779,780,1583586289335,0.4457,-0.1276,0.2994,10.281162,0.08052179,-1.0803499,-1
780,781,1583586289346,0.584,-0.2129,0.101399995,10.356024,-0.10207918,-1.6788142,-1
781,782,1583586289356,0.6335,-0.3381,-0.5513,10.47218,-0.101868495,-2.4135275000000003,d
782,783,1583586289366,0.7414,-0.3175,-1.1492,10.660624,-0.095078535,-2.6240354,-1
783,784,1583586289376,0.9273,-0.3093,-1.3492998999999999,10.696143,-0.08057925,-2.5340135,-1
784,785,1583586289386,0.9561,-0.3055,-1.2666998999999999,10.581778,-0.002920926,-2.2584120999999997,-1
785,786,1583586289396,0.8084,-0.2471,-0.9199,10.399797999999999,0.14043429999999998,-1.7897615000000002,-1
786,787,1583586289407,0.6609,-0.1321,-0.5338,10.311549000000001,0.18262014,-1.2892393,-1
787,788,1583586289417,0.5725,-0.0958,-0.0371,10.1349535,0.22775562,-0.75235397,-1
788,789,1583586289427,0.4066,-0.0687,0.496,9.91324,0.23089679999999999,-0.5658073,-1
789,790,1583586289437,0.1827,-0.0694,0.6925,9.864417,0.17340724,-0.6990494,-1
790,791,1583586289447,0.1357,-0.1358,0.57879996,10.042316,0.1833767,-1.0054593,-1
791,792,1583586289458,0.3141,-0.1311,0.2884,10.148159,0.24927470000000004,-1.4711508,-1
792,793,1583586289468,0.2667,0.0106999995,-0.37,9.926542,0.37127364,-1.6668433,-1
793,794,1583586289478,0.2667,0.0106999995,-0.37,9.576731,0.45569322,-1.6647363000000002,-1
794,795,1583586289488,-0.7258,0.30719998,-0.5335,8.91343,0.69688505,-1.8330392,-1
795,796,1583586289498,-0.7258,0.30719998,-0.5335,8.591477000000001,0.8923476999999999,-1.8371476000000002,-1
796,797,1583586289509,-1.5811,0.8983,-0.4887,8.049383,1.4201734,-1.586695,-1
797,798,1583586289519,-2.0209,1.1565,0.9324,7.586498,1.6269175,0.1993987,-1
798,799,1583586289529,-2.0209,1.1565,0.9324,7.042103999999999,1.5623506999999999,2.534272,-1
799,800,1583586289539,-3.4973,0.90019995,7.180299799999999,6.030247,1.4461553,6.593392,-1
800,801,1583586289549,-4.4614,0.8369,10.226399,4.8388349999999996,1.473047,9.610814,-1
801,802,1583586289559,-5.349,1.0170000000000001,11.4851,4.196768,1.7348003,10.183392999999999,-1
802,803,1583586289570,-5.9983997,1.6376,11.293799,3.5530815000000002,2.514151,9.699744,-1
803,804,1583586289580,-6.3022,2.2712998,10.474,3.3838498999999995,2.9549239,9.052878999999999,-1
804,805,1583586289590,-6.5723996,2.7498999,10.0504,2.9772662999999997,3.333629,8.984127,-1
805,806,1583586289600,-7.0875998,2.8005998,10.479099,2.411124,2.961503,9.775286,-1
806,807,1583586289611,-7.4704,2.0630999,11.3742,2.35305,1.9535631999999998,10.815230999999999,-1
807,808,1583586289621,-7.0316997,1.1416,12.8201,3.0066195,0.9586671,12.352406,-1
808,809,1583586289631,-6.5144997,0.30589998,13.8796,3.2443923999999997,-0.015887922,12.76255,-1
809,810,1583586289641,-6.4698,-0.5567,13.8382,3.265605,-1.0405391,12.327831,-1
810,811,1583586289651,-6.4691997,-1.3231,12.8259,3.2814162000000002,-1.7519043999999997,10.503036999999999,-1
811,812,1583586289662,-6.2598,-1.6104,10.2439995,3.6580239999999997,-2.077286,7.4403553,-1
812,813,1583586289672,-5.6266,-1.6748999,7.4361997,4.6196980000000005,-2.5225310000000003,4.0175089999999996,-1
813,814,1583586289682,-4.5867,-2.0865,4.6368,5.458225,-3.259313,1.9324176,-1
814,815,1583586289692,-3.5091998999999996,-2.9406,2.3230999,6.797617999999999,-4.733327,-0.7642962,-1
815,816,1583586289702,-2.2948,-4.1960998,0.3608,7.921550999999999,-6.5038204,-2.7247167,-1
816,817,1583586289713,-1.1396998999999999,-5.8022,-1.4072,9.030766,-8.321785,-4.6772356,-1
817,818,1583586289723,0.0813,-7.2886996,-3.5714,10.22215,-9.713334,-7.758315,-1
818,819,1583586289733,1.3237,-8.0222,-7.1240997,11.430254,-9.967129,-11.821389,-1
819,820,1583586289744,2.5147,-7.5326996,-11.0646,12.334927,-9.350124000000001,-15.0866785,-1
820,821,1583586289754,3.2071998,-6.9522996,-14.0287,12.400260000000001,-9.639803,-17.882263000000002,-1
821,822,1583586289764,3.1181997999999997,-7.446099799999999,-16.6815,12.433617,-10.904017999999999,-20.509785,-1
822,823,1583586289774,3.3314998,-8.3933,-18.7645,13.062133,-11.864055,-22.399835999999997,-1
823,824,1583586289784,4.1114,-9.0771,-20.686699,14.1073065,-12.048016,-23.666128,-1
824,825,1583586289794,5.1809998,-8.981,-21.7628,14.717885999999998,-11.613381,-23.722786,-1
825,826,1583586289804,5.6151,-8.378799,-21.567299,14.206609,-11.002315,-22.26417,-1
826,827,1583586289814,4.8399,-7.73,-19.8491,12.874972,-10.5645485,-20.05144,-1
827,828,1583586289824,2.8525,-7.1598997,-16.9075,9.976514,-9.7870655,-16.683756,-1
828,829,1583586289834,0.3509,-6.4660997,-14.477098999999999,7.6786647,-8.983953999999999,-15.1713,-1
829,830,1583586289844,-1.8436999,-5.7146,-13.292299,6.308155999999999,-8.499742,-14.290367000000002,-1
830,831,1583586289854,-2.9879,-5.3012,-12.592,6.2126184,-8.245745,-13.481902999999999,-1
831,832,1583586289865,-2.8697,-5.0337996,-11.967,6.945761,-7.997706,-12.793446000000001,-1
832,833,1583586289875,-2.1153,-4.7311,-11.4709,7.484715,-7.718638400000001,-12.168922,-1
833,834,1583586289885,-1.689,-4.4537997,-10.978499000000001,7.5369663000000005,-7.6558910000000004,-11.15881,-1
834,835,1583586289895,-1.7602999,-4.389199700000001,-9.9864,7.124953,-7.7227845,-9.867453999999999,-1
835,836,1583586289905,-2.4094,-4.4632998,-8.2402,6.070106,-7.809636599999999,-6.815957000000001,-1
836,837,1583586289915,-3.3523998,-4.4976997,-5.5915,5.0846334,-7.8144445000000005,-4.5163455,-1
837,838,1583586289925,-4.2843,-4.4653,-3.5526,4.557458400000001,-7.5918220000000005,-3.220211,-1
838,839,1583586289936,-4.7025,-4.1987,-2.552,4.620435700000001,-7.536362599999999,-3.0368726,-1
839,840,1583586289946,-4.4769998,-4.1507998,-2.5999,5.3828163,-7.582742999999999,-3.2833316,-1
840,841,1583586289956,-3.6065998,-4.1535997,-2.9531,6.738701299999999,-7.6886053,-3.4667659,-1
841,842,1583586289966,-2.4256,-4.1717,-3.1430000000000002,7.6898884999999995,-7.881444,-2.8892555,-1
842,843,1583586289976,-1.4466,-4.282099700000001,-2.6206,8.157753999999999,-7.902129700000001,-1.944877,-1
843,844,1583586289986,-0.8792,-4.218899700000001,-1.4138,8.2227125,-8.074598,0.29351956,-1
844,845,1583586289997,-0.86249995,-4.3483,0.47349998,7.974023,-8.435922,2.5217647999999997,-1
845,846,1583586290006,-1.0831,-4.6411,2.6803,8.188621000000001,-8.3992815,4.382002,-1
846,847,1583586290016,-0.8426,-4.5520997,4.5214,8.509577,-8.450383,5.6701593,-1
847,848,1583586290026,-0.4921,-4.5375,5.7802997000000005,8.882536,-8.47986,6.7192216,-1
848,849,1583586290036,0.026899998999999997,-4.5199,6.995,9.915778,-8.460046,7.6966977,-1
849,850,1583586290047,0.96999997,-4.4108,7.6878996,11.0479,-8.160578999999998,8.312247,-1
850,851,1583586290057,2.1306998999999998,-4.045099700000001,8.2289,12.355795,-7.872489999999999,9.725181,-1
851,852,1583586290067,3.4766,-3.6841,9.5948,13.212172,-7.5651025999999995,12.186649000000001,-1
852,853,1583586290077,4.3561997,-3.3155,12.0299,13.422239000000001,-7.342873,14.497857999999999,-1
853,854,1583586290087,4.3143,-2.5249999,15.4284,13.079581,-6.7191834,15.714151000000001,-1
854,855,1583586290097,4.3143,-2.5249999,15.4284,12.787863,-6.1810822,15.753445999999999,-1
855,856,1583586290108,4.0133,-1.9713999,15.6073,12.721112,-5.718024,15.264070499999999,-1
856,857,1583586290118,4.3413997,-0.9105,13.943399,13.309003,-5.129491000000001,13.983766000000001,-1
857,858,1583586290128,4.9722,-0.6466,12.625299,13.931026000000001,-4.8533053,12.849499,-1
858,859,1583586290138,5.4603,-0.2667,11.9793,14.359368,-4.425356400000001,12.445166,-1
859,860,1583586290148,5.3998,-0.021399999,12.325999000000001,14.167928,-4.189278,13.038842,-1
860,861,1583586290158,4.5835,-0.0016,13.3046,13.251743,-4.1067165999999995,13.93909,-1
861,862,1583586290168,3.4851,0.0614,13.6542,12.263685,-3.9282146,14.136545000000002,-1
862,863,1583586290179,2.8657,0.168,13.1726,11.794834,-3.7568087999999995,13.351764000000001,-1
863,864,1583586290189,2.8567,0.1586,11.141999,11.936293,-3.6826653,11.128767,-1
864,865,1583586290199,3.2616,0.2298,8.6361,12.414185,-3.5117002,8.600154,-1
865,866,1583586290209,3.6076998999999996,0.26029998,6.3926,12.743818,-3.401289,6.479754,-1
866,867,1583586290219,3.6476,0.20600000000000002,4.9997,12.760645,-3.3946717000000004,5.2530220000000005,-1
867,868,1583586290230,3.4589,-0.1604,4.4465,12.558373,-3.9125947999999995,4.6336900000000005,-1
868,869,1583586290240,3.3276,-0.97529995,4.0965,12.560902,-4.498207,4.343168,-1
869,870,1583586290250,3.3276,-0.97529995,4.0965,12.789183999999999,-4.856945,4.311354,-1
870,871,1583586290260,3.7823,-1.9117998999999999,4.0056,13.28305,-5.224311,3.9685807,-1
871,872,1583586290270,4.3005,-2.4252,3.6176998999999994,13.914363,-5.498064,3.5491645,-1
872,873,1583586290280,4.8589,-2.7077,3.2122998,14.357942000000001,-5.755977,2.721968,-1
873,874,1583586290290,4.8589,-2.7077,3.2122998,14.474155999999999,-6.181503299999999,1.2147508999999999,-1
874,875,1583586290300,4.9398,-3.9805,-0.1986,14.294360999999999,-6.7192698,-1.0786643999999999,-1
875,876,1583586290310,4.5944,-4.4009,-1.5409,13.992299,-6.9399576000000005,-2.1537375,-1
876,877,1583586290320,4.3694997,-4.678499700000001,-1.8816998999999999,13.844845000000001,-6.969866000000001,-2.1777467999999995,-1
877,878,1583586290330,4.0979,-4.753,-1.239,13.469875,-6.796487299999999,-1.3391249,-1
878,879,1583586290340,3.3583998999999998,-4.7651997,-0.0735,12.476817,-6.6691065,-0.45179543,-1
879,880,1583586290351,1.9561,-4.9132,0.45749998,10.995228,-6.535423799999999,-0.4924010999999999,-1
880,881,1583586290361,0.5297,-4.7402,0.097799994,9.724797,-5.9589767,-1.1470716,-1
881,882,1583586290371,-0.52709997,-4.3038,-0.44869998,8.814876,-5.2964144,-1.7533313999999998,-1
882,883,1583586290381,-1.3526,-3.9289,-0.778,8.028553,-4.7132926,-2.179643,-1
883,884,1583586290391,-2.1138,-3.5449998,-1.2695,7.215175599999999,-3.9355407,-3.1633532000000004,-1
884,885,1583586290401,-2.7614,-3.0663,-2.1669,6.3823094000000005,-3.2570335999999998,-4.262761,-1
885,886,1583586290412,-3.7154998999999997,-2.5765998,-3.0140998,5.3206344,-2.4880834,-4.7174773000000005,-1
886,887,1583586290422,-4.8183,-2.0117,-3.0038,4.361641400000001,-1.9570493000000002,-4.5655894,-1
887,888,1583586290432,-5.8554997,-1.7425,-2.5001,3.1941907000000005,-1.4112383,-3.910986,-1
888,889,1583586290442,-6.7703,-1.4504,-1.7206999,2.3486352000000004,-0.9251290999999999,-3.3254309999999996,-1
889,890,1583586290453,-7.5354996,-1.1891,-1.1525999,1.5950651000000002,-0.43530416,-3.0109096,-1
890,891,1583586290463,-8.3192,-0.7593,-0.81659997,0.6961571999999999,0.30651528,-2.9646537,-1
891,892,1583586290473,-9.1814995,-0.2455,-0.82919997,-0.079583265,0.921308,-3.0483456,-1
892,893,1583586290483,-9.7606,0.1695,-0.6978,-0.49441224,1.3947469,-2.9936043999999997,-1
893,894,1583586290493,-10.0480995,0.38079998,-0.9026,-0.6130593000000001,1.5158074,-3.7879047,-1
894,895,1583586290504,-9.976299000000001,0.3868,-1.8261,-0.41110358,1.8437077000000002,-4.497747,-1
895,896,1583586290514,-9.8193,0.6123,-2.0932999,-0.57108414,2.1211286,-3.9942946000000004,-1
896,897,1583586290524,-10.0464,0.7352,-1.4172,-1.0331746,2.2055674,-2.8603816,-1
897,898,1583586290535,-10.528399,0.7141,-0.184,-1.6748781000000004,2.3150687000000003,-1.6548721999999998,-1
898,899,1583586290545,-11.1776,0.8085,0.9702,-2.4402182,2.7004104,-0.99402463,-1
899,900,1583586290555,-11.947000000000001,1.1635,1.4654,-3.0297282,3.0886254,-1.1413351,-1
900,901,1583586290565,-12.6037,1.5913999,1.1416,-3.6408242999999993,3.6136358,-1.7299448,-1
901,902,1583586290575,-13.0227995,2.0095,0.63269997,-3.7350218,3.9676807000000003,-2.348032,-1
902,903,1583586290586,-13.0574,2.3227,-0.0605,-3.5217175000000003,4.0065813,-3.1588907,-1
903,904,1583586290596,-12.814799,2.3507,-0.792,-3.2226722000000003,3.9492165999999997,-2.806876,-1
904,905,1583586290606,-12.5385,2.3813,-0.2076,-2.9707735,3.6757028,-1.9710121999999999,-1
905,906,1583586290616,-12.354000000000001,2.1065,0.5186,-3.1669638,3.0641184,-1.4658548,-1
906,907,1583586290626,-12.6417,1.5744,1.0002999,-3.4223964,2.3659402999999997,-0.7574392,-1
907,908,1583586290636,-12.861099000000001,1.1315,1.5643,-3.4117660000000005,1.8678412,-0.19265662,-1
908,909,1583586290647,-12.8761,0.7829,2.1074,-3.1441424,1.7138653999999998,0.8896565999999999,-1
909,910,1583586290657,-12.6387,0.7969,3.1309,-3.0024342999999996,1.1130931,1.9534099999999999,-1
910,911,1583586290667,-12.520999999999999,0.4195,4.1496997,-2.903123,0.38120479999999995,1.6103497,-1
911,912,1583586290677,-12.451699000000001,-0.072299995,3.7536,-2.4877287999999997,-0.40886262,0.0996371,-1
912,913,1583586290687,-12.053499,-0.56979996,2.1674,-1.6687203999999998,-1.4354771000000002,-0.9947524999999999,-1
913,914,1583586290697,-10.3605995,-1.6098,-0.0448,-0.57449347,-2.2490842,-2.2003,-1
914,915,1583586290708,-10.3605995,-1.6098,-0.0448,0.25792256,-2.9500778,-2.2527522999999996,-1
915,916,1583586290718,-9.336599,-2.1062,-0.3322,1.2289245,-3.7748036,-0.3622906,-1
916,917,1583586290728,-8.3286,-2.5600998,1.4984,1.6549392,-4.5207224,2.9418322999999997,-1
917,918,1583586290739,-7.8784,-2.9269,4.6939,1.512829,-5.2082505,5.7245073,-1
918,919,1583586290748,-8.1171,-3.4194,7.9670997,1.2562855,-5.918725,6.3142858,-1
919,920,1583586290758,-8.1171,-3.4194,7.9670997,1.1230338,-6.6478649999999995,4.6797543,-1
920,921,1583586290768,-8.1953,-3.8458,5.9451,1.4758912,-8.094901,2.3157389999999998,-1
921,922,1583586290778,-7.7202997,-4.8485,3.3901,3.3990864999999997,-10.069218,1.1110148000000002,-1
922,923,1583586290789,-6.0983996,-5.9996,2.0658998,5.3545169999999995,-11.341639500000001,1.1011508999999997,-1
923,924,1583586290799,-1.5965999,-7.6067995999999996,0.65599996,7.240209599999999,-12.429958000000001,-0.26824638,-1
924,925,1583586290809,-0.564,-7.9315996,-0.0093,7.9682,-13.342599,-0.18543571,-1
925,926,1583586290819,0.074499995,-8.7024,2.1448998,8.153089999999999,-14.734903,2.9656115,-1
926,927,1583586290830,0.1362,-10.1395,5.4828,7.8500795,-16.692,6.232787,-1
927,928,1583586290840,0.2539,-11.7101,6.9466996,7.801812599999999,-18.419464,7.036558599999999,-1
928,929,1583586290850,1.2271,-12.806999000000001,5.2365,8.675284,-19.732770000000002,5.209055,-1
929,930,1583586290860,3.593,-13.3777,2.2022998,11.479584,-20.699607999999998,1.7852892,-1
930,931,1583586290870,6.8441997,-13.6186,-0.8921,14.409091,-20.985388,-0.64377207,-1
931,932,1583586290880,9.9915,-12.9094,-2.5751998,16.445992,-20.345592,-1.37137,-1
932,933,1583586290891,11.705999,-11.527699,-1.8247,17.251966,-19.082047,0.48083230000000005,-1
933,934,1583586290901,10.823899,-10.7562,0.9414,15.132542,-18.831861,3.58774,-1
934,935,1583586290912,8.1714,-10.9018,3.8825,12.320131,-19.492507999999997,6.081818599999999,-1
935,936,1583586290922,6.5327997,-11.53,5.1224,11.574299,-20.021551000000002,6.2863503,-1
936,937,1583586290932,7.508599799999999,-11.4748,4.1398997,13.270744,-19.811435999999997,4.331436599999999,-1
937,938,1583586290942,9.5849,-11.0027,1.2985,14.550129,-19.272068,1.7229251,-1
938,939,1583586290952,11.0491,-9.9325,-2.0616,15.395914000000001,-18.258488,-0.9314115,-1
939,940,1583586290963,11.571099,-8.9768,-3.307,15.282362,-17.366688,-0.57782626,-1
940,941,1583586290973,11.2829,-8.335899000000001,-1.7831,14.424902,-16.752277,1.8086852999999998,-1
941,942,1583586290983,10.3166,-7.5186,0.5553,13.122745000000002,-16.021739999999998,3.4550724,-1
942,943,1583586290993,9.0008,-6.8322,1.6603,11.747849,-15.169595000000001,3.5722256000000003,-1
943,944,1583586291003,7.7840996,-5.7082996,1.2211,10.875642,-14.210104999999999,2.7713554,-1
944,945,1583586291014,6.9537997,-4.7222,-0.10529999400000001,10.058644000000001,-13.026698,1.084602,-1
945,946,1583586291024,6.6115,-3.8499,-1.1771,9.753528,-12.144933,0.32854193,-1
946,947,1583586291034,6.3315,-3.0488,-1.9435999,9.335203,-11.822405,-0.3508559,-1
947,948,1583586291044,5.9518,-2.7784,-2.6076999,9.104805,-11.522584,-0.63516253,-1
948,949,1583586291054,5.7235,-2.3413,-2.7273998,8.810491,-11.120655000000001,-0.19942743,-1
949,950,1583586291064,5.4388,-2.09,-2.1520998,8.398793,-11.055063,0.8327321,-1
950,951,1583586291074,4.9688,-2.0170999,-0.9959,7.7303796,-10.63468,1.9337487000000002,-1
951,952,1583586291085,4.2069,-1.4882,0.0207,6.713753,-9.908519,1.9472139,-1
952,953,1583586291095,3.0892,-0.79029995,-0.1493,5.5803475,-9.418387,1.4641979999999999,-1
953,954,1583586291105,1.9465,-0.39499998,-0.496,5.0058355,-9.217044999999999,1.580355,-1
954,955,1583586291115,1.4552,-0.1911,-0.3117,4.881662,-8.953403999999999,1.7804816000000003,-1
955,956,1583586291125,1.3019999,0.0206,-0.0771,4.6979218000000005,-8.937603,1.9552104,-1
956,957,1583586291136,1.0834,-0.0315,0.048699997,4.652011,-9.234685,1.77984,-1
957,958,1583586291146,1.0332,-0.40699998,-0.1788,4.940368,-9.690906,1.204609,d
958,959,1583586291156,1.2590000000000001,-0.77269995,-0.6533,5.401424400000001,-9.768410000000001,1.4625316000000002,-1
959,960,1583586291166,1.6894,-0.8743,-0.38259998,5.4231253,-9.778877,2.1320078,-1
960,961,1583586291176,1.661,-0.9005,0.3028,5.033263,-9.8533945,2.7103896,-1
961,962,1583586291186,1.0717,-0.9909,1.0465,4.2742248,-9.812750999999999,3.0462768,-1
962,963,1583586291196,0.3172,-0.9787,1.236,3.7677742999999997,-9.736797,2.4828637000000002,-1
963,964,1583586291207,-0.191,-0.9296,0.68869996,3.9575677000000002,-9.603850999999999,1.671603,-1
964,965,1583586291217,-0.054899998,-0.82049996,-0.1299,4.61808,-9.527822,1.1804851,-1
965,966,1583586291227,1.0442,-1.1216999,-0.77,5.1656528,-9.858997,1.0121248,-1
966,967,1583586291237,1.0442,-1.1216999,-0.77,5.700211,-10.403496,1.202914,-1
967,968,1583586291248,2.3188,-2.4772,-0.056599997,6.566892999999999,-11.172667,1.6486856,-1
968,969,1583586291258,3.0240998,-2.9057999,-0.0464,7.400486999999999,-11.582774,1.5805466000000001,-1
969,970,1583586291268,2.9533,-2.8727999,-0.21669999,7.3379506999999995,-11.510736999999999,1.4251724,-1
970,971,1583586291278,2.3218,-2.9176998,-0.4585,6.683155,-11.52788,1.1647503000000001,-1
971,972,1583586291289,1.7936,-3.1053998,-0.2644,6.4003239999999995,-11.656353,1.3983862,-1
972,973,1583586291299,2.0511,-3.2932,-0.1528,6.8730254,-11.821447000000001,1.4462701999999998,-1
973,974,1583586291309,2.9106998,-3.6076,-0.41979998,7.904821000000001,-12.104614,1.0643759,-1
974,975,1583586291319,4.1542997,-4.0782,-0.97489995,9.016372,-12.463706,0.61429465,-1
975,976,1583586291329,5.679199700000001,-4.6184998,-1.0284,11.231746000000001,-13.107651999999998,0.593197,-1
976,977,1583586291340,6.8606997000000005,-5.0958,-0.8071,12.193008,-13.594642000000002,0.83458996,-1
977,978,1583586291350,7.2121,-5.7709,-0.5047,12.396276,-14.107163,1.041315,-1
978,979,1583586291360,7.0657997,-6.3030996,-0.44,12.401783,-14.527470000000001,0.8443103999999999,-1
979,980,1583586291370,7.1007,-6.4371,-0.86689997,12.643367,-14.44465,0.45199656,-1
980,981,1583586291380,7.3961997,-6.3483,-1.4518,13.190069,-14.254157000000001,-0.36327702,-1
981,982,1583586291390,7.5785,-6.4293,-1.9472,13.461954,-14.237110000000001,-0.77398795,-1
982,983,1583586291400,7.4985,-6.5743,-2.0678,13.499648,-14.240348000000001,-0.8696315,-1
983,984,1583586291411,7.2770996,-6.6959,-1.854,13.512979500000002,-14.153782999999999,-0.59645313,-1
984,985,1583586291421,7.1552,-6.6468997000000005,-1.1560999,13.628572,-13.865464000000001,0.07447883,-1
985,986,1583586291431,6.8805,-6.5269,-0.315,13.403335,-13.615691,0.72574955,-1
986,987,1583586291441,6.2008,-6.4648,0.5872,12.718095,-13.219192499999998,1.4188423000000001,-1
987,988,1583586291451,4.8722997,-6.2759,1.146,11.496526,-12.960561,1.6296852,-1
988,989,1583586291461,3.5077998999999997,-6.3587,1.2736,10.547205,-12.750283,1.5169758999999998,-1
989,990,1583586291472,2.6692998,-6.219599700000001,1.2982999,10.131294,-12.384047,1.6799060000000001,-1
990,991,1583586291482,2.3766,-6.1327996,2.1708,10.31696,-11.4718275,2.7894653999999997,-1
991,992,1583586291492,2.4306,-5.2205,2.9608998,10.432916,-10.36153,2.8695082999999997,-1
992,993,1583586291502,2.0356998,-4.3217998,2.7354,9.832182000000001,-9.274247,2.2739074,-1
993,994,1583586291512,1.0969,-4.0049,2.5032,9.158971000000001,-8.8795,2.2308214,-1
994,995,1583586291522,0.081,-3.8234,3.1151998,8.224102,-8.200314,3.3205757000000005,-1
995,996,1583586291533,-0.87009996,-3.642,4.3519,7.3446255,-7.770382000000001,4.0300927,-1
996,997,1583586291543,-1.9412999,-3.6406,4.8518,6.528221599999999,-7.3261423,3.9255139999999997,-1
997,998,1583586291553,-2.7893,-3.3437997999999998,4.6018,5.997111299999999,-6.3593254,3.1926775000000003,-1
998,999,1583586291563,-3.3151998999999996,-2.6984,3.7201,5.715611,-5.6392739999999995,1.8239411,-1
999,1000,1583586291574,-3.6661,-2.5172,2.2092,5.622984,-5.204391,0.27028623,-1
1000,1001,1583586291584,-3.7057,-2.3513,1.0576,5.773857,-4.3147054,-0.29328012,-1
1001,1002,1583586291594,-3.7201998,-1.8923999,1.1201999,5.418528599999999,-3.4620349999999998,0.525623,-1
1002,1003,1583586291604,-4.2808,-1.3806,2.2101998,4.4863315,-2.7270436,1.7323868000000002,-1
1003,1004,1583586291615,-5.7318,-0.8152,3.8767998,2.370116,-1.6112403,3.3030982000000004,-1
1004,1005,1583586291625,-7.6418,-0.26549998,5.0442,0.5394328,-0.80905825,3.7541082,-1
1005,1006,1583586291635,-9.402699,0.2058,5.3761997,-0.59324485,-0.02072421,3.5462915999999995,-1
1006,1007,1583586291645,-10.3497,0.65459996,5.1955,-0.64519906,0.3939132,3.5226269999999995,-1
1007,1008,1583586291656,-10.1424,0.6902,5.2778997,0.4242334,0.48030559999999994,3.7216046,-1
1008,1009,1583586291666,-8.9592,0.6082,5.4094996,1.7324252,0.6110865,2.9009007999999996,-1
1009,1010,1583586291676,-7.7138,0.5553,4.1847,2.4741777999999996,0.47384125,-0.41489598,-1
1010,1011,1583586291686,-7.1942,0.26139998,1.2998999,2.3811294999999997,0.28336814,-2.8663957000000004,-1
1011,1012,1583586291696,-7.3322,-0.09559999400000001,-1.6371,2.2085266,0.3302083,-4.2846727,-1
1012,1013,1583586291707,-7.4599,-0.146,-2.6327999,2.2724900000000003,0.7118824,-3.0301782999999998,-1
1013,1014,1583586291717,-7.3887997,0.0844,-1.4140999,2.384098,1.3673861,0.48924077,-1
1014,1015,1583586291727,-8.1152,0.71639997,3.9843998,1.2205257,1.7479779,2.7743626,-1
1015,1016,1583586291737,-8.1152,0.71639997,3.9843998,-0.23376985,1.9495218999999997,3.5812662000000004,-1
1016,1017,1583586291748,-9.6193,0.79469997,5.0592,-0.82567394,1.9835004,3.1770767999999996,-1
1017,1018,1583586291758,-9.7225,0.3489,3.1049,0.15648502,1.5793495000000002,1.1357806000000001,-1
1018,1019,1583586291768,-7.6734,-0.5444,0.8896,2.4217157000000005,0.67272276,-1.182659,-1
1019,1020,1583586291780,-5.0311,-1.2889999,-1.0850999,5.048012,0.049119443,-3.0144436000000003,-1
1020,1021,1583586291790,-2.9510999,-1.2250999,-2.1239998,6.8960576,0.26068070000000004,-3.8524144000000002,-1
1021,1022,1583586291800,-2.0663,-0.74909997,-2.0254,7.468856,0.8323394000000001,-3.3383214,-1
1022,1023,1583586291810,-2.5779,-0.39569998,-0.94079995,6.467237,1.1498966999999998,-1.9701216000000001,-1
1023,1024,1583586291820,-3.9929,-0.2119,0.6813,5.006094,1.4474481000000001,-0.22529437,-1
1024,1025,1583586291831,-5.2539,-0.1188,2.6994998,4.0782739999999995,1.497554,1.3730651000000003,-1
1025,1026,1583586291841,-5.962999999999999,-0.3761,4.1201,3.4416745000000004,1.2131228,2.4777113999999996,-1
1026,1027,1583586291851,-5.8223,-0.7305,4.0647,4.066791,0.9098445,1.7791599999999999,-1
1027,1028,1583586291861,-4.5032,-0.9478,2.6971,5.683021,0.7717757,0.0081402855,-1
1028,1029,1583586291871,-2.5974998,-0.9637,0.82159996,7.5802913,0.8021725000000001,-1.8000375,-1
1029,1030,1583586291882,-1.0731,-0.86469996,-0.63049996,8.747781,0.9397719999999999,-3.0264816000000003,-1
1030,1031,1583586291892,-0.4428,-0.5537,-1.5259,8.972347000000001,1.2184476,-3.8187803999999996,-1
1031,1032,1583586291902,-0.6622,-0.4263,-1.9685999,8.554914,1.2638128999999998,-3.8820449999999997,-1
1032,1033,1583586291912,-1.0329,-0.30589998,-1.8095,8.368338,1.3986831,-3.7101699999999997,-1
1033,1034,1583586291922,-1.016,-0.1857,-1.4875,8.69732,1.5375083999999999,-3.0677001,-1
1034,1035,1583586291932,-0.5348,-0.096999995,-0.6324,9.185049000000001,1.6337363,-2.1865287,-1
1035,1036,1583586291943,-0.1312,0.012999999,0.080299996,9.369803,1.7630422,-1.8989276000000002,-1
1036,1037,1583586291953,-0.053799997999999995,0.1281,0.24499999,9.304998,1.8373008000000002,-1.9610332,-1
1037,1038,1583586291963,-0.1862,0.15179999,0.015,9.172531,1.7377787,-2.4025528,-1
1038,1039,1583586291973,-0.2932,-0.1506,-0.6198,9.262094,1.2580476,-3.1753244,-1
1039,1040,1583586291983,-0.0011999999,-0.48529997,-1.1840998999999999,9.798635,1.0751882,-3.6019517999999997,-1
1040,1041,1583586291994,0.622,-0.49289998,-1.5787,10.570045,1.2904651000000003,-3.9478470999999997,-1
1041,1042,1583586292004,1.2049999,-0.2665,-1.8226999,10.832633,1.5133749,-4.100692700000001,-1
1042,1043,1583586292014,1.3963,-0.037499998,-1.9517,10.764877,1.6713060000000002,-3.9702089999999997,-1
1043,1044,1583586292024,1.2468,0.103099994,-1.7636,10.321069,1.7458519000000001,-3.519965,-1
1044,1045,1583586292034,0.76659995,0.1567,-1.2365,9.873534,1.7576218999999997,-2.561183,-1
1045,1046,1583586292044,0.35709998,0.15699999,-0.1839,9.678742,1.7922514999999999,-1.4351803,-1
1046,1047,1583586292055,0.2323,0.1898,0.8527,9.682908,1.8363144,-1.1813757,-1
1047,1048,1583586292065,0.252,0.22129999,0.88409996,9.846864,1.7544422,-1.8022497,-1
1048,1049,1583586292075,0.45389998,0.1652,0.19899999999999998,10.215216,1.7515022,-2.4188142000000004,-1
1049,1050,1583586292085,0.83919996,0.1837,-0.4358,10.58151,1.6911205000000002,-3.1922655,-1
1050,1051,1583586292095,1.1643,0.093399994,-1.2743,10.650807,1.5609621,-3.979278,-1
1051,1052,1583586292106,1.1743,0.0072999996999999995,-1.9858999,10.647618,1.5735077,-3.8344386,-1
1052,1053,1583586292116,1.1599,0.0652,-1.6452,10.515047000000001,1.7203392,-2.921309,-1
1053,1054,1583586292126,0.96239996,0.1795,-0.6907,9.992612,1.8338436000000002,-1.9994169999999998,-1
1054,1055,1583586292136,0.38619998,0.30429998,0.15619999,9.391592,2.065382,-1.3209097,-1
1055,1056,1583586292146,-0.18769999,0.50659996,0.8071,9.006125,2.2685732999999995,-0.8783177,-1
1056,1057,1583586292156,-0.46739998,0.6486,1.1604999,9.172857,2.2119455,-0.8496543,-1
1057,1058,1583586292166,-0.299,0.58989996,1.1975,9.751277,2.0208786,-1.2232744,d
1058,1059,1583586292178,0.2859,0.429,0.8117,10.329142,1.9151218999999997,-2.1041967999999995,-1
1059,1060,1583586292188,0.95489997,0.27969998,-0.8323,10.418024,1.7904223000000001,-2.902845,-1
1060,1061,1583586292198,0.73039997,0.117599994,-1.1184,10.197902000000001,1.6421063000000002,-3.073906,-1
1061,1062,1583586292208,0.705,0.0927,-0.88839996,10.205515,1.6430736000000001,-2.693927,-1
1062,1063,1583586292218,0.6924,0.0896,-0.0905,10.176459,1.6041918,-1.8293328000000002,-1
1063,1064,1583586292228,0.62329996,-0.015299999,0.65639997,10.090525999999999,1.5214002,-1.1684183000000001,-1
1064,1065,1583586292238,0.5164,-0.011899999,0.96029997,9.995811,1.5610291,-0.93836427,-1
1065,1066,1583586292249,0.341,-0.0142,0.8463,9.814138999999999,1.5164011999999998,-1.1254183999999998,-1
1066,1067,1583586292259,0.2724,-0.1672,0.4969,9.804821,1.3595331,-1.4922868,-1
1067,1068,1583586292269,0.6243,-0.27519998,0.067099996,10.22304,1.2350633,-1.9703800999999999,-1
1068,1069,1583586292279,1.1906999,-0.4491,-0.4935,10.896701,1.0081984,-2.6319077,-1
1069,1070,1583586292289,1.6495999,-0.54039997,-0.97889996,11.188057,0.97020715,-2.9853206,-1
1070,1071,1583586292300,1.6000999,-0.6342,-1.3485,10.973747,0.8099968000000001,-3.2530978,-1
1071,1072,1583586292310,1.1507,-0.83199996,-1.151,10.544580999999999,0.6948835,-2.9319394,-1
1072,1073,1583586292320,0.5369,-0.9066,-0.39519998,9.758345,0.6832477,-1.9845346000000001,-1
1073,1074,1583586292330,-0.0954,-0.8804,0.3003,9.24271,0.81392324,-1.4041132,-1
1074,1075,1583586292340,-0.502,-0.6572,0.67289996,8.872356,1.117757,-1.1314231000000001,-1
1075,1076,1583586292350,-0.7524,-0.5061,0.6943,8.72719,1.2061988000000001,-1.2886360000000001,-1
1076,1077,1583586292361,-0.64059997,-0.54179996,0.20969999,8.923247,1.1678819999999999,-1.8316122,-1
1077,1078,1583586292372,-0.1082,-0.53069997,-0.6655,9.598766,1.2318934,-2.6904217999999998,-1
1078,1079,1583586292382,0.2874,-0.46299999999999997,-0.7163,9.703709,1.3632776000000002,-2.335266,-1
1079,1080,1583586292392,-0.17729999,-0.4367,-0.1388,8.870269,1.3277669,-1.7411497,-1
1080,1081,1583586292402,-1.3168,-0.5912,0.7582,7.3007545,1.3086993999999998,-0.26396552,-1
1081,1082,1583586292412,-2.7105,-0.4703,2.1388,5.8477135,1.5844539,1.3531071000000001,-1
1082,1083,1583586292423,-4.2437,-0.27199998,3.9555,4.2947764,1.9616078000000001,3.6133006,-1
1083,1084,1583586292433,-5.7018,0.1383,6.4072,3.0465548,2.3967972,6.1949873,-1
1084,1085,1583586292443,-6.821099799999999,0.51629996,8.7238,2.2978592,2.7343604999999997,7.6938725,-1
1085,1086,1583586292453,-7.5144997,0.86079997,10.0866995,1.7028903999999998,3.100951,8.914859,-1
1086,1087,1583586292463,-7.9193997000000005,1.2049,10.6769,1.3896712,3.4850093999999996,9.434178999999999,-1
1087,1088,1583586292474,-8.2888,1.6639999,11.3545,0.4422282,3.9390747999999998,10.860186,-1
1088,1089,1583586292484,-9.2876,2.1015,12.7961,-0.788583,4.235093599999999,13.398278,-1
1089,1090,1583586292494,-10.5511,2.4264997999999998,15.5082,-1.9716538000000001,4.198778,16.315737,-1
1090,1091,1583586292504,-11.716499,2.3832998,18.3603,-3.0324864,3.4619677,18.122421,-1
1091,1092,1583586292514,-12.7533,1.6134,19.750999999999998,-3.623155,1.8095856,16.931614,-1
1092,1093,1583586292525,-13.148999,0.0802,17.985899,-2.6771867,0.41048107,13.043878999999999,-1
1093,1094,1583586292535,-11.8139,-0.9246,13.922998999999999,-0.21660821,-0.63049865,7.944354,-1
1094,1095,1583586292545,-9.2647,-1.7221999,8.821,2.4774911,-2.0395246,2.4542672999999997,-1
1095,1096,1583586292555,-6.5051,-2.8160000000000003,3.5495,5.2715917,-3.4804988,-2.3573022,-1
1096,1097,1583586292565,-3.7552998,-4.014199700000001,-0.82729995,7.6860194,-5.586525,-5.9687543,-1
1097,1098,1583586292575,-1.3327999,-5.8964996,-3.9696998999999997,9.722431,-7.525061999999999,-8.645817,-1
1098,1099,1583586292586,0.63339996,-7.3897996,-6.2964997,11.165724,-9.081696,-11.274612,-1
1099,1100,1583586292596,1.8728,-8.406099000000001,-8.159699,11.997133999999999,-9.6299,-12.490454,-1
1100,1101,1583586292606,3.0405998,-8.7884,-9.424399000000001,13.10135,-9.659473,-14.57364,-1
1101,1102,1583586292616,4.2374997,-8.498,-11.6511,14.24436,-9.507844,-19.292793,-1
1102,1103,1583586292626,5.2436,-8.152999999999999,-15.611899,15.091275,-9.908825,-23.829155,-1
1103,1104,1583586292636,6.1419,-8.33,-20.1073,16.614113,-10.492589,-27.335579,-1
1104,1105,1583586292647,7.7124,-8.713699,-23.5889,18.060823000000003,-10.583185,-29.063578000000003,-1
1105,1106,1583586292657,9.205299,-8.6489,-25.264398999999997,18.532137,-10.195507000000001,-28.256846999999997,-1
1106,1107,1583586292667,9.7307,-8.1567,-24.4084,17.275536,-9.414423,-26.387559999999997,-1
1107,1108,1583586292677,8.492499,-7.3427,-22.4996,14.399639,-8.526058,-24.893703,-1
1108,1109,1583586292687,5.6205,-6.4891996,-20.9907,11.483971,-7.423012,-23.32462,-1
1109,1110,1583586292697,2.6855,-5.4466,-19.4286,9.115674,-6.5078235,-21.939268,-1
1110,1111,1583586292707,0.2724,-4.6110997000000005,-18.0987,7.673493400000001,-5.9482026,-20.892254,-1
1111,1112,1583586292717,-1.5188999,-4.0066,-16.800998999999997,6.376133,-5.4877305,-18.838860999999998,-1
1112,1113,1583586292727,-3.4327998,-3.4364,-13.3984995,5.362198,-5.0226235,-16.231491000000002,-1
1113,1114,1583586292737,-4.3666,-3.1701,-11.3883,4.515905,-4.784314,-14.208342000000002,-1
1114,1115,1583586292748,-5.805,-3.2698998,-9.1418,3.0487669,-4.8256764,-11.807705,-1
1115,1116,1583586292757,-5.805,-3.2698998,-9.1418,1.6960716,-4.7958446,-9.853471,-1
1116,1117,1583586292767,-9.2528,-3.235,-4.3856997,-0.27517040000000004,-4.5308447,-6.776586999999999,-1
1117,1118,1583586292777,-10.634299,-3.0321,-1.8522999,-1.529148,-4.2246265,-4.032113,-1
1118,1119,1583586292788,-11.4487,-2.7921,0.93759996,-2.1930888,-3.9516394,-1.2491796,-1
1119,1120,1583586292798,-11.875899,-2.7296999,3.0493,-2.5496428,-3.879842,0.8267753000000001,-1
1120,1121,1583586292808,-12.0716,-2.6139997999999998,4.1327,-2.6335835,-3.6938796000000003,1.7606096999999998,-1
1121,1122,1583586292818,-11.8287,-2.306,4.2325,-2.2927067,-3.470673,1.9820447,-1
1122,1123,1583586292828,-11.1467,-2.3507,5.4419,-1.5405252,-3.5807586000000002,3.5767743999999997,-1
1123,1124,1583586292838,-10.3101,-2.3813999,7.5182996,-0.6790052,-3.6760094,5.757672,-1
1124,1125,1583586292849,-9.5371,-2.0398,9.3833,-0.0067899562,-3.3483292999999996,7.5226293,-1
1125,1126,1583586292859,-9.467899000000001,-1.4243,10.6311,-0.07180689999999999,-2.8861146,8.828264,-1
1126,1127,1583586292869,-10.1221,-1.2602,11.707399,-0.8263731,-2.9261167,9.964744999999999,-1
1127,1128,1583586292879,-10.769299499999999,-1.3159999999999998,12.9571,-1.3950535,-3.192917,11.443480000000001,-1
1128,1129,1583586292889,-10.5708,-1.5357,14.9618,-0.9302335999999999,-3.624132,13.709247,-1
1129,1130,1583586292899,-8.787499,-1.7558999,17.9771,1.7307396000000002,-4.1048875,17.585814000000003,-1
1130,1131,1583586292909,-5.8507,-1.6741999,21.0985,4.570684,-4.2723474999999995,20.547537,-1
1131,1132,1583586292920,-3.4984998999999997,-1.9576999,23.191999999999997,6.3736525,-5.30037,22.049908,-1
1132,1133,1583586292930,-2.1955,-3.1374,23.4995,7.413809,-6.815239,21.68959,-1
1133,1134,1583586292940,-0.9115,-4.1242,21.955,8.558935,-7.7333193,20.386675,-1
1134,1135,1583586292950,1.3367,-4.667,20.5882,11.469489999999999,-8.656178,19.504573999999998,-1
1135,1136,1583586292960,4.4628,-4.8622,20.7726,14.627845,-9.14925,20.452842999999998,-1
1136,1137,1583586292970,7.531399700000001,-5.201699700000001,22.0446,17.248451,-9.900081,21.851305,-1
1137,1138,1583586292980,9.7108,-5.9108996,22.631199,18.907442,-11.063931,21.809023,-1
1138,1139,1583586292991,11.063499,-7.0113997,21.039799,20.028389,-12.345308000000001,19.504728,-1
1139,1140,1583586293001,12.4304,-7.7654996,17.8078,21.469334,-13.103351,16.101945999999998,-1
1140,1141,1583586293011,14.1937,-8.3868,13.9971,23.488889999999998,-14.292513,11.765873,-1
1141,1142,1583586293021,16.0072,-9.1235,10.306399,24.848576,-14.705445000000001,9.050187,-1
1142,1143,1583586293032,17.5905,-9.1684,6.817199700000001,26.054037,-14.748598999999999,5.802013,-1
1143,1144,1583586293042,18.239898999999998,-9.067599000000001,3.6346,25.996538,-14.682279999999999,2.6861124,-1
1144,1145,1583586293052,17.6546,-8.912499,1.3161,24.965310000000002,-14.462023,0.83805674,-1
1145,1146,1583586293062,16.5888,-8.5914,-0.41059998,24.107668,-14.009670999999999,-0.30102777,-1
1146,1147,1583586293072,15.9388,-8.1345,-1.2951,23.678501,-13.662493,-0.90120625,-1
1147,1148,1583586293083,15.267098999999998,-7.8209,-2.2430000000000003,22.73038,-13.321932,-2.3219445,-1
1148,1149,1583586293093,14.253699,-7.6568,-3.6652,21.821272,-13.084628,-3.990531,-1
1149,1150,1583586293103,13.3557,-7.4585,-5.4126997,21.197627999999998,-12.664187,-5.8681693,-1
1150,1151,1583586293114,12.8343,-7.1768,-7.0943,20.708513,-12.548423,-7.207016499999999,-1
1151,1152,1583586293124,12.2234,-7.2461,-7.8938,20.10484,-12.300001,-7.4482274,-1
1152,1153,1583586293134,11.3757,-6.9554,-7.7717,19.04257,-11.621455000000001,-7.1362534,-1
1153,1154,1583586293144,9.956099499999999,-6.311,-7.3573,17.14012,-10.351455,-6.768111,-1
1154,1155,1583586293154,8.2409,-5.3332,-6.8999996,15.968732000000001,-9.221833,-6.2886295,-1
1155,1156,1583586293164,6.6586,-4.1127,-5.9660997,14.055219000000001,-7.861026,-4.591485,-1
1156,1157,1583586293175,4.852999700000001,-3.4648,-4.183,12.082722,-7.628692999999999,-2.6827509999999997,-1
1157,1158,1583586293185,2.7308,-3.5588998999999997,-2.1378,10.047133,-7.5485063,-1.0659944,-1
1158,1159,1583586293195,0.63879997,-3.7203,-0.5146,8.314565,-7.4772353,-0.24905445,-1
1159,1160,1583586293205,-1.1284,-3.8102998999999995,0.2976,6.96524,-6.943482,-0.39496666,-1
1160,1161,1583586293216,-2.4238,-3.4261,0.0072,6.2291093,-6.0727777000000005,-1.8754357,-1
1161,1162,1583586293226,-3.1485999,-2.7983,-1.4805,5.792886,-5.337853400000001,-3.6241415,-1
1162,1163,1583586293236,-3.6081998,-2.2707999,-3.0421,5.315357,-4.711922599999999,-4.9684763,-1
1163,1164,1583586293246,-4.2061,-1.9488,-4.0155997,4.256728,-4.3090839999999995,-4.8802642999999994,-1
1164,1165,1583586293256,-5.1675997,-1.8407999,-3.6392,3.1762629000000002,-3.9935765,-3.7492910000000004,-1
1165,1166,1583586293267,-6.2748,-1.7696999,-2.2951,1.9935942999999998,-3.6323773999999998,-2.5847802000000004,-1
1166,1167,1583586293277,-7.4677997000000005,-1.6386,-0.91249996,1.0883658,-3.3609133,-2.5323951,-1
1167,1168,1583586293287,-8.601,-1.4908999,-0.8384,0.17193241,-2.6111642999999995,-4.0368347,-1
1168,1169,1583586293298,-9.3052,-1.0086,-2.0032,0.17877024,-2.3572927000000004,-5.4422692999999995,-1
1169,1170,1583586293308,-8.766,-1.5249,-4.7716,0.8435443000000001,-3.0161386,-7.4361897,-1
1170,1171,1583586293318,-7.9161,-2.3687,-6.5597997,1.6634721999999997,-3.7407773,-9.413589,-1
1171,1172,1583586293328,-7.3206,-2.9819999,-8.7634,2.207502,-4.223409999999999,-11.732028999999999,-1
1172,1173,1583586293339,-6.7888,-3.2981,-10.932899,2.7158196,-4.4072466,-13.951223,-1
1173,1174,1583586293349,-6.3912997,-3.0595999,-12.3446,3.066024,-3.9560256000000003,-15.051762,-1
1174,1175,1583586293359,-6.4209,-2.5909998,-12.1943,2.9064650000000003,-3.509986,-14.747842000000002,-1
1175,1176,1583586293369,-6.4209,-2.5909998,-12.1943,2.0440256999999997,-3.8817286,-13.436088,-1
1176,1177,1583586293379,-8.2781,-3.7903,-9.4629,0.95289224,-4.707546,-12.011747999999999,-1
1177,1178,1583586293389,-8.2781,-3.7903,-9.4629,0.72106653,-5.671193,-12.129313,-1
1178,1179,1583586293400,-7.9438996,-5.515,-10.2997,1.6446346,-6.043434599999999,-13.635964000000001,-1
1179,1180,1583586293409,-6.6396,-5.5264997000000005,-12.0935,2.9527977,-5.916848,-15.463776000000001,-1
1180,1181,1583586293419,-6.6396,-5.5264997000000005,-12.0935,3.892953,-5.869653700000001,-16.36777,-1
1181,1182,1583586293429,-4.8494997,-5.5653,-12.8982,4.521593599999999,-5.863591,-15.607954000000001,-1
1182,1183,1583586293439,-4.9188,-5.4519,-11.4444,4.3817916,-5.64661,-14.068598000000001,-1
1183,1184,1583586293449,-5.5541,-5.3046,-10.0074,3.499346,-5.311814,-12.163061,-1
1184,1185,1583586293460,-6.5573997,-5.0845,-8.5156,2.4419612999999996,-5.0847387,-10.797198,-1
1185,1186,1583586293470,-7.5051,-5.2499,-7.7110996,1.9175544999999998,-5.219312,-10.074378999999999,-1
1186,1187,1583586293480,-7.2275,-5.321000000000001,-6.898699799999999,2.7201482999999995,-5.098376,-8.636325999999999,-1
1187,1188,1583586293490,-6.065,-5.161299700000001,-4.9498,3.8792293,-4.854311,-6.2545743,-1
1188,1189,1583586293500,-5.2830997,-4.8673,-2.3467,4.4120345,-4.376696,-3.2994589999999997,-1
1189,1190,1583586293510,-5.1960998,-4.2086997,0.6141,4.283476,-3.5512907999999994,-0.27085125,-1
1190,1191,1583586293521,-5.5599,-3.4057998999999994,3.2891998,3.9107082,-2.7806356,2.5091042999999997,-1
1191,1192,1583586293531,-6.0413,-3.1139,5.7072997,3.476065,-2.884745,4.9509697,-1
1192,1193,1583586293541,-6.0516996,-3.7347,7.8497996,4.033981,-3.6474035000000002,7.262351,-1
1193,1194,1583586293551,-4.6684,-4.3389997000000005,9.9084,5.478604,-4.0623190000000005,9.030996,-1
1194,1195,1583586293561,-2.4105,-4.7123,11.9592,8.206269,-4.5613660000000005,11.835191,-1
1195,1196,1583586293572,-0.4139,-4.8792995999999995,14.592998999999999,10.149816,-4.7132635,15.580554999999999,-1
1196,1197,1583586293582,0.6956,-4.9445,17.4109,10.661888000000001,-4.981721,17.456757,-1
1197,1198,1583586293592,1.0751,-5.1836,18.445798999999997,10.971735,-5.118899,17.681562,-1
1198,1199,1583586293602,1.2731,-4.7486,17.1274,11.173681,-4.4535027000000005,15.891657,-1
1199,1200,1583586293612,1.4455,-3.8184998,14.6523,11.289149,-3.5277605000000003,13.402932,-1
1200,1201,1583586293622,1.5812,-2.7294998,12.3543,11.404321000000001,-2.226579,11.306225,-1
1201,1202,1583586293633,1.4925,-1.6984999,11.0427,11.031369999999999,-1.4244255,10.521999000000001,-1
1202,1203,1583586293643,0.9923,-0.9773,10.4368,10.510527,-0.65117496,10.049844,-1
1203,1204,1583586293653,0.5218,-0.1563,9.945399,10.148839,0.10301771,9.318521,-1
1204,1205,1583586293663,0.24759999,0.4217,9.090099,10.000322,0.29464963,8.008528,-1
1205,1206,1583586293673,0.19909999,0.40019998,7.9631996,10.145143,0.033509247,7.039192,-1
1206,1207,1583586293684,0.3858,0.18259999,7.0174,10.399205,0.0875799,6.095226,-1
1207,1208,1583586293694,0.78819996,0.3366,5.6464,10.986158,0.34243786,3.9729097,-1
1208,1209,1583586293704,1.2692,0.621,3.7041998,11.463611,0.5784199999999999,2.3161604,-1
1209,1210,1583586293714,1.8779,0.9611,1.8792,11.981571,0.83789396,1.0195277,-1
1210,1211,1583586293724,2.1826,1.095,1.0926,11.804832000000001,0.8183573000000001,0.7822048,-1
1211,1212,1583586293734,1.9088,1.0575,1.0395,11.332504,0.6855939999999999,1.1275828,-1
1212,1213,1583586293745,1.2138,0.8771,1.6782999,10.40882,0.38452795,2.0040904999999998,-1
1213,1214,1583586293755,0.46949998,0.5502,2.4677,9.9069,0.08812578,2.5432646,-1
1214,1215,1583586293765,0.0492,0.26479998,2.9053,9.925192,-0.031862035,2.2009993,-1
1215,1216,1583586293775,0.1777,0.2179,2.4392,10.401524,-0.07760087,1.3290213,-1
1216,1217,1583586293785,0.71779996,0.1749,1.5641999,10.881206500000001,-0.12747687,0.5949783000000001,-1
1217,1218,1583586293796,1.1501,0.1392,0.8828,11.225675,-0.3497833,0.014556747,-1
1218,1219,1583586293806,1.4848,-0.1024,0.3283,11.504216,-0.59795666,-0.78458947,-1
1219,1220,1583586293816,1.7414,-0.30969998,-0.5006,11.636835000000001,-0.65648055,-1.3970358,-1
1220,1221,1583586293826,1.8314999,-0.3101,-0.91069996,11.585044,-0.6213814999999999,-1.1183028,-1
1221,1222,1583586293836,1.7843,-0.2821,-0.5902,11.292213,-0.6772047,-0.43522757,-1
1222,1223,1583586293846,1.5014,-0.3523,0.13149999,10.828381,-0.7042209,0.11075577,-1
1223,1224,1583586293857,1.0318999,-0.4003,0.68219995,10.444264,-0.66023463,0.23555115,-1
1224,1225,1583586293867,0.6504,-0.3718,0.83449996,10.273147,-0.59155935,0.18214127,-1
1225,1226,1583586293877,0.45589998,-0.40269998,0.5002,10.283585,-0.68990356,-0.25252125,d
1226,1227,1583586293887,0.6629999999999999,-0.53889996,0.0888,10.501926,-0.803111,-0.65495783,-1
1227,1228,1583586293898,0.6629999999999999,-0.53889996,0.0888,10.767932,-0.85874265,-0.7116621,-1
1228,1229,1583586293908,1.1757,-0.5485,-0.051099997,10.945132000000001,-0.7605708999999999,-0.80031455,-1
1229,1230,1583586293918,1.1757,-0.5485,-0.051099997,10.750205000000001,-0.6870976,-0.92418104,-1
1230,1231,1583586293928,0.6885,-0.4409,0.049399998,10.440663,-0.62379485,-0.66926557,-1
1231,1232,1583586293938,0.60179996,-0.4152,0.22119999,10.386726,-0.5828349,-0.5644186999999999,-1
1232,1233,1583586293949,0.60179996,-0.4152,0.22119999,10.360649,-0.5043625,-0.4306594,-1
1233,1234,1583586293959,0.5155,-0.34019998,0.4966,10.272312,-0.48140693,-0.35063562,-1
1234,1235,1583586293969,0.4763,-0.4278,0.3432,10.293104,-0.5296069999999999,-0.52789277,-1
1235,1236,1583586293979,0.6623,-0.318,0.1935,10.491727000000001,-0.35364273,-0.66134554,-1
1236,1237,1583586293989,0.7991,-0.13,0.100899994,10.559942,-0.17245914,-0.7281055000000001,-1
1237,1238,1583586293999,0.7107,-0.0033,0.0907,10.485119000000001,-0.024698585,-0.7480730999999999,-1
1238,1239,1583586294010,0.6622,0.0822,-0.10789999,10.419709,0.15555608,-1.0630159,-1
1239,1240,1583586294020,0.5948,0.1767,-0.3098,10.284322999999999,0.21503761,-1.236222,-1
1240,1241,1583586294030,0.4398,0.123799995,-0.49409997,10.242347,0.1387009,-1.4611048,-1
1241,1242,1583586294040,0.5796,0.052199997000000005,-0.6735,10.496851,0.10844776,-1.5383512,-1
1242,1243,1583586294050,0.93509996,-0.0077,-0.4712,10.771456,0.062890895,-1.3007028,-1
1243,1244,1583586294061,1.2116,-0.0488,0.1449,11.00421,0.06358042,-0.48915458,-1
1244,1245,1583586294071,1.1635,-0.0433,0.92689997,10.855819,0.1013705,0.17360835,-1
1245,1246,1583586294082,0.90849996,0.0098,1.1779,10.565009,0.17439364,0.11538137,-1
1246,1247,1583586294092,0.7017,0.0354,0.73359996,10.543461,0.22521776,-0.53255665,-1
1247,1248,1583586294102,0.92579997,-0.0095999995,0.1343,11.022722,0.13395078,-1.1403391,-1
1248,1249,1583586294112,1.5038999,-0.0765,-0.4324,11.698902,0.14845966,-1.6268218,-1
1249,1250,1583586294123,2.1998,-0.070999995,-0.9206,12.314845,0.16868588,-2.117614,-1
1250,1251,1583586294133,2.6317,-0.072399996,-1.4605,12.515392,0.15670529,-2.604336,-1
1251,1252,1583586294143,2.7802,-0.1337,-1.7584,12.592744,0.17439364,-2.455953,-1
1252,1253,1583586294153,2.8609,-0.1087,-1.2669,12.616782,0.27388709999999994,-1.6765923999999999,-1
1253,1254,1583586294164,2.7659,-0.1024,-0.4887,12.285366999999999,0.25430253,-1.2112553,-1
1254,1255,1583586294174,2.3183,-0.19119999,-0.3014,11.703375,0.12031342,-1.3925538999999998,-1
1255,1256,1583586294184,1.89,-0.3906,-0.4553,11.521655,0.21731689999999998,-1.2076639999999998,-1
1256,1257,1583586294194,1.7451999,-0.2653,-0.2302,11.517392999999998,0.7029568,-1.14258,-1
1257,1258,1583586294205,1.7269,0.18699999,-0.292,11.440434,0.9787018,-1.4817905,-1
1258,1259,1583586294215,1.6690999,0.31829998,-0.6635,11.394361,0.95001924,-1.5298853000000001,-1
1259,1260,1583586294225,1.6022999,0.204,-0.5985,10.911776,0.8751764999999999,-1.0859716,-1
1260,1261,1583586294235,1.0173,0.056199998,-0.161,10.313216,0.7214111999999999,-0.8262678,-1
1261,1262,1583586294246,0.47309998,-0.15529999,0.010799999,9.988399000000001,0.5928043000000001,-0.9965050999999999,-1
1262,1263,1583586294255,0.22399999,-0.3284,-0.2435,9.882067999999999,0.64255583,-1.3607589,-1
1263,1264,1583586294265,0.112399995,-0.3048,-0.5985,9.684068,0.86188394,-1.6469522,-1
1264,1265,1583586294276,-0.1068,-0.1458,-0.8516,9.218405,1.0438144,-1.5881027,-1
1265,1266,1583586294286,-0.62939996,-0.049599998,-0.6953,8.542358,1.1174889,-1.1256483,-1
1266,1267,1583586294296,-1.3079,-0.06399999599999999,-0.1827,7.946153999999999,1.1941321000000003,-0.37288254,-1
1267,1268,1583586294306,-1.8379999,-0.0389,0.61179996,7.767259599999999,1.2424948,0.37497032,-1
1268,1269,1583586294316,-1.9264,-0.096999995,1.1795,7.960941,1.1679202,0.36128503,-1
1269,1270,1583586294326,-1.7206,-0.2267,1.1726999,8.125805999999999,1.0846692,-0.09469546400000001,-1
1270,1271,1583586294336,-1.5446,-0.36159998,0.75329995,8.076369999999999,1.0510738000000002,-0.48884812,-1
1271,1272,1583586294346,-1.6039,-0.4567,0.2926,7.9818373,1.0620583000000001,-0.5585768,-1
1272,1273,1583586294356,-1.6922,-0.4754,0.3784,7.870133999999999,1.3115531999999999,-0.03068409,-1
1273,1274,1583586294366,-1.8094,-0.2504,0.9041,7.474602,1.6711335999999999,0.25597847,-1
1274,1275,1583586294376,-2.1622,-0.0138,1.1019,7.187661599999999,2.002242,0.29457300000000003,-1
1275,1276,1583586294386,-2.4378,0.2777,1.1378,7.0484724000000005,2.2369312999999997,0.21756591,-1
1276,1277,1583586294397,-2.5781,0.46179998,1.0518,7.1686807,2.2047534,0.039130833,-1
1277,1278,1583586294407,-2.4455,0.4017,0.86869997,7.590251400000001,2.1715505,-0.24789564,-1
1278,1279,1583586294417,-2.0198,0.341,0.6027,8.121438000000001,1.9905297,-0.51925445,-1
1279,1280,1583586294427,-1.4771,0.1479,0.33069998,8.522037,1.8210009999999999,-0.87511903,-1
1280,1281,1583586294437,-1.0811,-0.0365,-0.0179,8.581833999999999,1.8969643,-1.0885094,-1
1281,1282,1583586294448,-1.0077,0.0196,-0.2294,8.323481,1.8358067999999998,-1.0282905,-1
1282,1283,1583586294458,-1.2667999,-0.0762,-0.1665,8.103626,1.8898582,-0.58168566,-1
1283,1284,1583586294468,-1.5781,0.0628,0.8134,7.987315700000001,2.053363,-0.012689269,-1
1284,1285,1583586294478,-1.5781,0.0628,0.8134,7.949966000000001,2.1487002,-0.0031028856,-1
1285,1286,1583586294488,-1.5497999,0.3166,0.5717,8.059122,2.3490567,-0.39635533,-1
1286,1287,1583586294498,-1.3220999,0.31689999,0.0241,8.334628,2.3166392000000005,-0.9816514000000001,-1
1287,1288,1583586294508,-0.8698,0.22489999,-0.5498,8.788052,2.2267513,-1.5453423000000002,-1
1288,1289,1583586294519,-0.4177,0.104899995,-0.95589995,9.230317999999999,2.1214445,-1.8688276000000001,-1
1289,1290,1583586294529,-0.4177,0.104899995,-0.95589995,9.385836,2.0622694,-1.7695736,-1
1290,1291,1583586294539,-0.2856,-0.0106,-0.47559997,9.212419,2.0173544999999997,-1.2779387,-1
1291,1292,1583586294549,-0.6836,-0.0385,-0.0716,8.802073,2.0276110000000003,-0.9126409,-1
1292,1293,1583586294559,-0.9640000000000001,0.0892,0.1328,8.579028,2.2202964,-0.7598526,-1
1293,1294,1583586294570,-0.9321,0.34939998,0.0769,8.64144,2.4764762000000005,-0.83866966,-1
1294,1295,1583586294580,-0.7646,0.5284,-0.0299,8.9180565,2.6408331,-0.95782435,-1
1295,1296,1583586294590,-0.3922,0.5076,-0.1637,9.283355,2.5814953,-1.1180156,-1
1296,1297,1583586294600,-0.1381,0.3631,-0.34299999999999997,9.522813000000001,2.3500717,-1.2648089,-1
1297,1298,1583586294611,0.077,0.1012,-0.48929998,9.649629,2.1512477000000003,-1.4135176,-1
1298,1299,1583586294621,0.126,-0.19209999,-0.752,9.664358,1.7870609,-1.6886688000000003,-1
1299,1300,1583586294631,0.1264,-0.4107,-0.81399995,9.708536,1.7173705000000001,-1.6767936,-1
1300,1301,1583586294641,0.2643,-0.22109999,-0.7744,9.8875065,2.017498,-1.6365709,-1
1301,1302,1583586294652,0.37289998,0.0929,-0.77959996,9.825967,2.4043627,-1.5293586000000001,d
1302,1303,1583586294662,0.1884,0.4025,-0.5488,9.598230000000001,2.616288,-1.1930498,-1
1303,1304,1583586294672,-0.1908,0.4833,-0.0475,9.1514435,2.540698,-0.64754534,-1
1304,1305,1583586294682,-0.4321,0.2795,0.23689999,9.21375,2.3467583999999997,-0.50877744,-1
1305,1306,1583586294693,-0.2128,0.168,0.37019998,9.464395,2.3273938,-0.39671922,-1
1306,1307,1583586294703,-0.0041,0.1086,0.4238,9.546084,2.1768754,-0.47446373,-1
