,Seq,Time,ACCx,ACCy,ACCz,ADGx,ADGy,ADGz,Keydown
0,1,1583586457673,0.6441,1.9535999,-2.5893,4.4180684,-6.5889869999999995,0.86865467,-1
1,2,1583586457683,0.6441,1.9535999,-2.5893,9.708517,0.43652043,-2.4691593999999997,-1
2,3,1583586457693,0.19759999,0.0088,-0.0506,9.656122,0.3986633,-2.4152515,-1
3,4,1583586457703,0.065799996,-0.2671,0.2421,9.408275,0.03601837,-1.8691723000000002,-1
4,5,1583586457714,-0.15869999,-0.391,0.5527,9.067924,-0.46982855,-1.3027426000000002,-1
5,6,1583586457724,-0.5898,-1.1223999,1.1092,9.201071,0.5869146,-1.0973008999999998,-1
6,7,1583586457734,-0.3347,0.1564,1.2106,9.243927000000001,0.4495832,-1.0671723999999998,-1
7,8,1583586457744,-0.2556,-0.057099998,1.2142998999999999,9.337319,0.42973047,-0.95554507,-1
8,9,1583586457754,-0.3215,-0.116299994,1.1567999,9.189147,0.5511644,-0.8248694999999999,-1
9,10,1583586457764,-0.34700000000000003,0.026999999,1.4165,9.332723,0.6943471999999999,-0.47172475,-1
10,11,1583586457774,-0.050499998,0.2103,1.923,9.672737,0.9282031999999999,-0.14121002,-1
11,12,1583586457785,0.0155,0.2154,1.4849,9.463455999999999,0.8632055000000001,-0.23976494,-1
12,13,1583586457795,-0.2715,0.1019,1.2224,9.30269,0.9562729,-0.25896642,-1
13,14,1583586457805,-0.38459998,0.19209999,1.0629,9.33685,1.1571943999999998,-0.5663628,-1
14,15,1583586457815,-0.3179,0.3414,0.5506,9.490644,1.2666283999999999,-1.1191553,-1
15,16,1583586457825,-0.19849999,0.3425,-0.071899995,9.649389,1.0988908000000002,-1.2881187,-1
16,17,1583586457835,-0.0069,0.0985,-0.2528,9.940773,0.8443679000000001,-1.4031267,-1
17,18,1583586457845,0.2853,-0.212,-0.4631,10.310975,0.45333729999999994,-1.2528571000000002,-1
18,19,1583586457856,0.5873,-0.58919996,-0.3243,10.531011,0.4101363,-0.12650004,-1
19,20,1583586457866,0.7999,-0.6206,0.65349996,10.423617,0.72296274,1.5048516,-1
20,21,1583586457876,0.6935,-0.3572,2.2203,9.979128999999999,1.0875326,2.7765844,-1
21,22,1583586457886,0.084699996,0.0354,3.6236,8.9139,1.5739961,3.9355695,-1
22,23,1583586457896,-1.0814999,0.41399997,4.503,7.278995500000001,1.9600276,4.7047596,-1
23,24,1583586457906,-2.4347,0.62369996,5.0116997,6.0458574,1.9345245,4.5624769999999994,-1
24,25,1583586457917,-3.6597998,0.5186,4.8107,5.232776599999999,1.8555637999999999,4.5965414,-1
25,26,1583586457926,-4.4646,0.3608,4.7894,5.228170400000001,1.6740066999999998,5.216639499999999,-1
26,27,1583586457936,-4.4677997000000005,0.125,5.3605,5.5412073,1.4765712,5.9524455000000005,-1
27,28,1583586457946,-4.1101,-0.14459999,6.2602997,5.1592080000000005,1.300425,7.6357603,-1
28,29,1583586457956,-4.5269,-0.31419998,7.6331,3.5646217000000004,1.2744528,8.648488,-1
29,30,1583586457966,-6.1087,-0.37359998,8.5739,1.2255726999999998,1.197934,8.545108,-1
30,31,1583586457976,-8.4442,-0.48799998,8.4313,-0.782473,1.129594,7.396417,-1
31,32,1583586457987,-10.4275,-0.607,7.2535996,-1.9199486000000001,1.5376903999999998,6.4395595000000005,-1
32,33,1583586457997,-11.5609,-0.21779999,6.2973,-2.420059,1.8011388,6.0681519999999995,-1
33,34,1583586458007,-12.714499,-0.253,5.7022,-3.2022638,1.3803914,5.7737803,-1
34,35,1583586458017,-13.2838,-0.7342,5.35,-3.7127172999999996,0.76868236,5.405255,-1
35,36,1583586458028,-13.2838,-0.7342,5.35,-3.8774767,-0.092904605,4.86226,-1
36,37,1583586458038,-13.2189,-2.6360997999999998,3.5872,-3.42096,-1.3967582,3.5059158999999998,-1
37,38,1583586458048,-12.592199,-3.3837,3.3104,-2.7384209999999998,-2.207837,3.5607622,-1
38,39,1583586458058,-12.592199,-3.3837,3.3104,-2.3300178,-2.4613159,3.9279752,-1
39,40,1583586458068,-11.700299000000001,-3.1733,2.1935,-1.9330976000000002,-2.1647701,1.6698791000000002,-1
40,41,1583586458078,-11.700299000000001,-3.1733,2.1935,-2.076309,-2.1288378,-0.9854726,-1
41,42,1583586458088,-11.9472,-3.1924999,-3.2372,-2.0703142,-2.7829243999999997,-3.5859970000000003,-1
42,43,1583586458099,-11.9472,-3.1924999,-3.2372,-0.7033973000000001,-3.5708370000000005,-4.555303599999999,-1
43,44,1583586458109,-8.8838,-4.5677,-5.2283998,1.3652122,-4.8116655,-5.567314,-1
44,45,1583586458119,-6.6650996,-6.0066,-6.4150996,3.626296,-6.566625,-6.855183599999999,-1
45,46,1583586458129,-3.9254,-6.875499700000001,-8.0826,6.478968,-7.600689999999999,-8.44638,-1
46,47,1583586458139,-1.3483,-7.258899700000001,-8.8928995,9.140152,-8.505142,-8.910041,-1
47,48,1583586458149,0.6658,-7.8782997,-8.9766,10.766716,-9.629145,-9.155159,-1
48,49,1583586458159,1.4506999,-8.808599000000001,-10.6369,11.312660000000001,-10.988189,-11.205879,-1
49,50,1583586458169,2.4786,-10.2771,-13.6248,12.880815,-13.063991,-14.016193,-1
50,51,1583586458179,5.2812,-11.3707,-15.770598999999999,16.273751999999998,-13.915742000000002,-15.664754,-1
51,52,1583586458191,8.9915,-11.387,-17.220299,19.5533,-14.356409,-16.333014000000002,-1
52,53,1583586458201,11.5364,-11.7364,-16.8766,21.129097,-15.16744,-14.648654999999998,-1
53,54,1583586458212,11.7992,-12.066199000000001,-15.0497,20.228542,-15.821747,-12.621839,-1
54,55,1583586458222,10.688399,-12.5875,-13.6468,19.262970000000003,-16.551203,-11.957897,-1
55,56,1583586458232,10.1396,-13.278398999999999,-13.7633,19.520674,-17.356249,-12.638244,-1
56,57,1583586458242,10.1396,-13.278398999999999,-13.7633,21.854042,-17.013514,-13.899576000000001,-1
57,58,1583586458252,14.268599499999999,-12.614599,-16.1997,23.966898,-16.735058,-13.58879,-1
58,59,1583586458262,15.9857,-12.3979,-15.4262,24.798134,-16.84412,-11.909152,-1
59,60,1583586458273,16.428798999999998,-12.365,-13.6207,24.468637,-16.97056,-10.135978,-1
60,61,1583586458283,15.474898999999999,-12.4654,-11.415299000000001,22.62779,-17.174557,-7.333938000000001,-1
61,62,1583586458293,13.6395,-12.4158,-9.1086,20.623587,-16.881037,-5.1483574,-1
62,63,1583586458303,11.853,-11.826099000000001,-7.1524997,19.38136,-15.989897000000001,-3.3208055,-1
63,64,1583586458313,11.0376,-10.685599,-5.1005,18.951544000000002,-14.588934,-0.6818687,-1
64,65,1583586458324,10.829599,-9.5756,-3.0059,19.132172,-13.92394,0.2755343,-1
65,66,1583586458334,11.145999999999999,-8.847799,-2.0298998,19.757288,-13.324411999999999,0.9910846,-1
66,67,1583586458344,11.7383995,-8.4138,-1.4745,20.431877,-12.791712,1.7677062,-1
67,68,1583586458354,12.3482,-7.8465996,-0.5376,20.431936,-12.505413,2.975648,-1
68,69,1583586458364,12.0589,-7.7559,0.8709,19.257379999999998,-12.765932000000001,5.1024650000000005,-1
69,70,1583586458374,10.6463995,-8.0711,3.2747998,17.462273,-12.729329,7.488804300000001,-1
70,71,1583586458385,8.6606,-8.0618,5.7081,15.289535500000001,-12.454474000000001,9.525886999999999,-1
71,72,1583586458395,6.403,-7.9125,7.746299700000001,13.612176999999999,-11.743311,10.6736,-1
72,73,1583586458406,4.7860000000000005,-7.2226,8.7667,12.842153999999999,-10.202661500000001,10.868785,-1
73,74,1583586458416,4.1099,-6.1099,8.9951,12.323253,-9.1916275,11.716419,-1
74,75,1583586458426,3.4710998999999996,-5.2964997,9.9717,11.420371000000001,-8.552653,12.436356,-1
75,76,1583586458436,2.2312999,-4.7254,11.0,10.143112,-7.521030400000001,13.25501,-1
76,77,1583586458447,1.0612,-4.0920997,11.816899000000001,9.059516,-6.5632253,13.975511,-1
77,78,1583586458457,-0.1496,-3.3808,12.6838,8.171401,-5.604328,14.318992999999999,-1
78,79,1583586458467,-1.1237,-2.6857,13.155999999999999,7.5056977,-4.626374,12.997297999999999,-1
79,80,1583586458477,-1.8898,-1.9655,11.9425,6.962396000000001,-3.6336226000000003,10.945908,-1
80,81,1583586458487,-2.5079,-1.2382,9.9598,6.379389,-2.9504897999999997,9.254796,-1
81,82,1583586458498,-3.1564,-0.8170000000000001,8.342199,5.917461,-2.629638,8.744755,-1
82,83,1583586458508,-3.6899998,-0.7609999999999999,7.9118996,5.675637200000001,-2.1700182,9.382407,-1
83,84,1583586458518,-4.5582,-0.0946,9.2012,4.84302,-1.1812608,9.917358,-1
84,85,1583586458528,-5.8322,0.3805,9.340099,3.4896637999999998,-0.49310976,9.781951,-1
85,86,1583586458538,-7.2240996,0.6885,8.6369,2.2139182,0.046083596,8.674969,-1
86,87,1583586458548,-8.135799,0.80439997,7.1492,1.5736704,0.30083624,7.224475,-1
87,88,1583586458558,-8.333799,0.7644,5.6593,1.5145242,0.48087063,5.7376084,-1
88,89,1583586458569,-8.0556,0.79289997,4.7485,1.8354621,0.6575436,4.963026999999999,-1
89,90,1583586458579,-7.5579996,0.5513,4.4196,2.3781319,0.50666094,4.5513678,-1
90,91,1583586458589,-6.9205,0.26729998,3.7686,2.9980001,0.39159563,3.8208587,-1
91,92,1583586458599,-6.6047997,0.15779999,3.1299,3.1578082999999997,0.4778348,3.1020713,-1
92,93,1583586458609,-6.8757,0.2067,2.6368,2.6942527000000003,0.6679151999999999,2.621019,-1
93,94,1583586458620,-7.5959997,0.3058,2.2651,1.8101793999999998,0.9998857,2.2068315,-1
94,95,1583586458630,-8.58,0.6186,1.8018999,1.0171719000000001,1.3475716,1.7656375,-1
95,96,1583586458640,-9.3970995,0.9306,1.2092999,0.20791247,1.7760189,1.0735313999999998,-1
96,97,1583586458650,-9.6565,1.0568,0.6265,0.18900786,1.8596244,0.090309285,-1
97,98,1583586458660,-9.1633,0.9179999999999999,-0.958,0.8400774999999999,1.6875099999999998,-1.4288213,-1
98,99,1583586458670,-7.6527,0.5311,-2.7034,2.5481105,1.2808021,-3.1565347000000004,-1
99,100,1583586458680,-5.3101997,0.0645,-3.8040998,5.372301,0.5889161,-4.3169565,-1
100,101,1583586458691,-3.2617998,-0.5794,-4.3129,7.113135000000001,0.0027676971999999996,-4.812355,-1
101,102,1583586458701,-2.1238,-0.835,-4.5938,7.807377000000001,-0.10785399400000001,-4.979614,-1
102,103,1583586458711,-2.0923,-0.7137,-4.3703,7.4101977,0.13598108,-4.655056,-1
103,104,1583586458721,-3.0007,-0.4396,-3.9706,6.046671400000001,0.42249042,-4.2212267,-1
104,105,1583586458731,-4.1632,-0.2556,-3.5203998,5.159696,0.68139935,-3.9080842000000002,-1
105,106,1583586458742,-4.7374997,-0.075899996,-3.392,5.1645994,0.6315138000000001,-4.3571024000000005,-1
106,107,1583586458752,-4.3813,-0.2692,-4.1138997,5.735119,0.41779777,-5.1149726,-1
107,108,1583586458762,-3.3599,-0.5482,-4.8747997000000005,7.246567999999999,0.15343961,-5.757969,-1
108,109,1583586458772,-1.9079,-0.6245,-5.1822,8.437559,0.108304106,-6.0539117,-1
109,110,1583586458782,-0.4858,-0.6935,-5.4934998,9.981226,-0.05498045,-6.167789,-1
110,111,1583586458792,0.5536,-0.7175,-5.1572,10.540137,0.014144943,-5.583469999999999,-1
111,112,1583586458803,0.877,-0.53749996,-4.1496,10.533567999999999,0.17286135,-4.570407,-1
112,113,1583586458813,0.4353,-0.48009998,-3.2361,9.769502000000001,0.21622515,-3.5632040000000003,-1
113,114,1583586458823,-0.23179999,-0.39479998,-2.5463998,9.283594,0.36041355,-3.0334537,-1
114,115,1583586458833,-0.5554,-0.2529,-2.0400999,9.187375999999999,0.46516466,-2.4487991,-1
115,116,1583586458843,-0.5452,-0.22379999,-1.4869999999999999,9.401263,0.4197227,-2.2051842,-1
116,117,1583586458853,-0.1428,-0.2452,-1.4856,9.99944,0.39860585,-2.5764482,-1
117,118,1583586458864,0.4552,-0.2188,-2.033,10.626797999999999,0.5050329000000001,-3.179768,-1
118,119,1583586458874,0.94479996,-0.101399995,-2.3992999,10.972827,0.54028517,-3.045166,-1
119,120,1583586458884,1.2478,-0.0744,-2.1139,11.012408,0.48483542,-2.3720026,-1
120,121,1583586458894,1.2174,-0.1325,-1.4315,10.843876,0.40122990000000003,-2.051668,-1
121,122,1583586458904,0.9424,-0.21769999,-1.18,10.537408000000001,0.3613808,-1.921002,-1
122,123,1583586458914,0.66789997,-0.20979999,-1.0823,10.279055,0.37262395,-1.7887752000000001,-1
123,124,1583586458924,0.49159998,-0.23199999999999998,-0.9148,10.252661,0.34679532,-1.2953013999999998,-1
124,125,1583586458935,0.4917,-0.24219999,-0.3254,10.271738000000001,0.33872208,-0.5594866,d
125,126,1583586458945,0.51129997,-0.22999999,0.3622,10.276057000000002,0.40076062,-0.29013896,-1
126,127,1583586458955,0.4822,-0.1969,0.5262,10.162811,0.37902126,-0.2326781,-1
127,128,1583586458965,0.3547,-0.20089999,0.6084,9.988935000000001,0.40375817,-0.3662937,-1
128,129,1583586458975,0.188,-0.1744,0.39839998,9.963212,0.34839466,-0.7962253,-1
129,130,1583586458986,0.2368,-0.2439,-0.0297,10.223998,0.33162567,-0.9900981,-1
130,131,1583586458996,0.648,-0.2038,-0.1681,10.711275,0.48255616,-1.0916601000000001,-1
131,132,1583586459006,0.99069995,-0.0383,-0.2863,10.778839999999999,0.48275727,-1.2202383999999997,-1
132,133,1583586459016,1.0006,-0.0755,-0.38169998,10.609397999999999,0.45673707,-1.0438623,-1
133,134,1583586459027,0.7956,-0.0808,-0.1196,10.176344,0.5160367,-0.58878213,-1
134,135,1583586459037,0.41459998,-0.0519,0.2626,9.744036999999999,0.42303628,-0.4195982,-1
135,136,1583586459047,-0.1038,-0.1516,0.47599998,9.401283,0.56992537,-0.39808872,-1
136,137,1583586459057,-0.3577,-0.0117,0.4633,9.477898,0.69391626,-0.8325501000000001,-1
137,138,1583586459067,-0.2886,0.1161,0.0471,9.707013,0.68861073,-1.1390941,-1
138,139,1583586459077,0.015199998999999999,0.113299996,-0.33139998,10.143092999999999,0.65994734,-1.3992194,-1
139,140,1583586459087,0.3876,0.094,-0.5234,10.285223,0.65645176,-1.5252596999999999,-1
140,141,1583586459097,0.5248,0.1019,-0.6566,10.288775,0.65217096,-1.2518611000000002,-1
141,142,1583586459107,0.5252,0.1041,-0.35689998,10.188392,0.7175135,-0.8187595,-1
142,143,1583586459118,0.1643,0.37379998,0.1845,9.845532,0.98927456,-0.72590286,-1
143,144,1583586459128,0.1643,0.37379998,0.1845,9.466453999999999,1.1734461999999999,-0.7467802,-1
144,145,1583586459137,-0.2951,0.5951,0.16129999,9.043647,1.2925528,-0.6531765,-1
145,146,1583586459147,-0.81329995,0.6996,0.2784,8.671827,1.2313476,-0.72984844,-1
146,147,1583586459157,-1.0867,0.6346,0.188,8.847743,1.1957216999999998,-0.83887076,-1
147,148,1583586459167,-0.9101,0.5998,0.093899995,9.065146,1.0578636000000001,-0.728115,-1
148,149,1583586459178,-0.37379998,0.2801,0.5527,9.449378,0.85019064,-0.30318254,-1
149,150,1583586459188,-0.37379998,0.2801,0.5527,9.611494,0.96204776,-0.26389850000000004,-1
150,151,1583586459198,-0.1506,0.41779998,0.63769996,9.699774,1.0803978,-0.46160209999999996,-1
151,152,1583586459208,-0.0639,0.5516,0.43339998,9.662759,1.1790103,-0.7524689,-1
152,153,1583586459218,-0.13159999,0.7908,-0.0579,9.628982,1.3177016000000001,-1.0318531,-1
153,154,1583586459228,-0.2175,0.7606,-0.2687,9.484103,1.262702,-1.2290968999999998,-1
154,155,1583586459239,-0.64559996,0.7459,-0.4423,8.988177,1.2587085,-1.4849317,-1
155,156,1583586459249,-0.64559996,0.7459,-0.4423,8.600873,1.0759256000000001,-1.6883240000000002,-1
156,157,1583586459259,-1.1583999,0.28,-0.49379998,8.68352,0.7829614,-1.4310048,-1
157,158,1583586459270,-0.51989996,0.312,0.119899996,9.374065,0.8352315999999999,-0.86035156,-1
158,159,1583586459280,0.1266,0.3335,0.22219999,10.025835,0.8019714,-0.9194405000000001,-1
159,160,1583586459290,0.4001,0.3181,-0.1593,10.1511755,0.7564528,-1.4036056000000001,-1
160,161,1583586459300,0.3902,0.2311,-0.789,10.123422,0.6050531,-1.9842378,-1
161,162,1583586459310,0.4694,-0.0369,-1.04,10.312459,0.30417854,-2.1473882,-1
162,163,1583586459320,0.4694,-0.0369,-1.04,10.473512,0.24281037,-2.0816243,-1
163,164,1583586459331,0.6393,-0.30699998,-0.6042,10.24274,0.02333868,-1.5353729,-1
164,165,1583586459341,0.1699,-0.4675,-0.1822,9.724423,-0.11713392,-1.2286181,-1
165,166,1583586459351,-0.1239,-0.46249998,-0.1422,9.606169,0.038182728,-1.363766,-1
166,167,1583586459361,-0.0853,-0.2289,-0.39339998,9.668475,0.28196037,-1.5257385,-1
167,168,1583586459371,-0.10569999,-0.0609,-0.243,9.502011,0.42890686,-1.0282905,-1
168,169,1583586459381,-0.36139998,0.0117,0.3114,9.148839,0.38827249999999996,-0.5381781999999999,-1
169,170,1583586459392,-0.7055,-0.0871,0.6793,9.027069000000001,0.25313416,-0.3846333,-1
170,171,1583586459402,-0.6283,-0.2262,0.6849,9.354328,0.102998555,-0.6285929,-1
171,172,1583586459412,-0.218,-0.2778,0.2086,9.716619,0.06087976,-1.3588531000000001,-1
172,173,1583586459422,0.0642,-0.32529998,-0.536,9.932824,-0.13909353,-1.9234537,-1
173,174,1583586459432,0.22899999,-0.4822,-0.9956,10.085142999999999,-0.24437138,-2.1554806,-1
174,175,1583586459442,0.40399998,-0.5463,-0.9736,10.308389,-0.37641640000000004,-1.5336201999999999,-1
175,176,1583586459452,0.66719997,-0.71559995,-0.0033,10.586758,-0.58685714,-0.37821683,-1
176,177,1583586459463,0.85179996,-0.82379997,1.0123,10.5274105,-0.500551,0.14884272,-1
177,178,1583586459473,0.6246,-0.6066,1.0754,10.101559,-0.24093330000000002,-0.21539196,-1
178,179,1583586459483,0.1722,-0.3557,0.52239996,9.679748,0.078280814,-1.060957,-1
179,180,1583586459493,-0.2015,-0.0947,-0.3627,9.474411,0.28691155,-1.6289669,-1
180,181,1583586459503,-0.2807,0.0826,-0.66389996,9.516971,0.45832682,-1.6798102,-1
181,182,1583586459513,-0.23199999999999998,0.21579999,-0.6261,9.698738,0.36121798,-1.2623763000000001,-1
182,183,1583586459524,0.07200000000000001,0.059699997000000005,0.0629,10.100878,0.19355685,-0.46094128,-1
183,184,1583586459534,0.4842,-0.1515,0.71709996,10.520601,-0.16785268,-0.38310102,-1
184,185,1583586459544,0.8178,-0.42049998,0.5361,10.771733,-0.41863096,-0.75664437,-1
185,186,1583586459554,1.0526999,-0.62259996,0.22,10.928314,-0.42341940000000006,-0.8808077,-1
186,187,1583586459564,1.1693,-0.575,0.0734,10.868996000000001,-0.29021555,-1.1233882,-1
187,188,1583586459574,1.0009,-0.38639998,-0.2565,10.528847,-0.036066253,-1.5063838,d
188,189,1583586459585,0.6857,-0.17469999,-0.654,10.2095175,0.26795906,-1.9816711,-1
189,190,1583586459596,0.3908,0.1217,-1.0841,9.911228,0.40508935,-1.9748811999999998,-1
190,191,1583586459607,0.0673,0.2015,-0.95669997,9.554675,0.43957543,-1.1568303,-1
191,192,1583586459617,-0.21599999,0.2155,-0.1929,9.477936,0.118532136,0.10260591,-1
192,193,1583586459627,-0.2931,-0.09559999400000001,1.0564,10.018796,-0.43751642,0.6884766,-1
193,194,1583586459637,0.2566,-0.60899997,1.655,11.075854,-0.9864110999999999,0.22283314,-1
194,195,1583586459648,1.3047999,-1.1319,1.1888,12.415947000000001,-1.1879838,-1.191326,-1
195,196,1583586459658,3.8572,-1.173,-1.9663999,13.832442000000002,-1.0289608000000001,-3.1109970000000002,-1
196,197,1583586459668,4.4804997,-0.89379996,-2.6028,14.297235,-0.70084983,-3.3897586000000004,-1
197,198,1583586459678,4.2815,-0.589,-1.8152,13.820884,-0.4579054,-2.13535,-1
198,199,1583586459688,3.2910000000000004,-0.5132,0.1249,12.779205000000001,-0.29439107,-0.3035752,-1
199,200,1583586459698,3.2910000000000004,-0.5132,0.1249,11.582085000000001,-0.13143210000000002,0.9021639000000001,-1
200,201,1583586459709,0.8161,-0.556,2.0146,10.501792,-0.2780243,1.0447530999999999,-1
201,202,1583586459719,1.1029,-0.7992,1.1297,11.095545,-0.44535983,0.08674672,-1
202,203,1583586459729,2.4856,-0.8935,0.1809,12.58651,-0.57099795,-0.8554674000000001,-1
203,204,1583586459739,4.062599700000001,-1.3219,-0.7714,14.115725,-1.0636671999999998,-1.7441664000000001,-1
204,205,1583586459749,5.1878,-1.9373,-1.1146,15.083078,-1.6553798,-1.9035628,-1
205,206,1583586459760,5.4804997,-2.2676,-1.0440999,15.240923,-1.8798506000000001,-1.7785662,-1
206,207,1583586459770,5.0597,-2.1876,-0.66819996,14.634998000000001,-1.6935625,-1.2772491000000001,-1
207,208,1583586459780,3.9160998,-1.9627999,0.2316,13.457396,-1.35802,-0.35801935,-1
208,209,1583586459790,2.6578,-1.5942999,0.6723,11.850743,-0.81614506,-0.14545254,-1
209,210,1583586459800,1.3134999,-1.3441,0.5674,10.571280999999999,-0.46174574,-0.23602039999999996,-1
210,211,1583586459810,0.1276,-1.0540999,0.51519996,9.487062,-0.1009587,-0.30596940000000006,-1
211,212,1583586459820,-0.6558,-1.0188,0.5027,9.008299000000001,-0.08486009,-0.23502441,-1
212,213,1583586459830,-0.8023,-1.1065,0.96919996,8.937441,-0.065218054,0.26385063,-1
213,214,1583586459840,-0.7923,-1.1736,1.3196,8.850472,-0.09108501,0.51248366,-1
214,215,1583586459850,-1.0366,-1.3059,1.2039,8.582888,-0.12347377,0.3177776,-1
215,216,1583586459860,-1.4168999,-1.5090000000000001,0.87729996,8.12524,-0.29876763,-0.22526565,-1
216,217,1583586459871,-1.7758,-1.6391,0.2589,7.760086500000001,-0.18818425,-0.88760716,-1
217,218,1583586459881,-2.2114,-1.4053999,-0.1461,7.3219,0.13025415,-1.1524538,-1
218,219,1583586459891,-3.0958997999999998,-1.2406,-0.2209,6.0770106,0.41146750000000004,-0.98555875,-1
219,220,1583586459901,-4.4186997,-1.0852,0.43179998,4.545621400000001,0.6801927,-0.2532778,-1
220,221,1583586459912,-6.0917997,-1.0316,1.1891,2.8862581,0.76259154,0.43943180000000004,-1
221,222,1583586459922,-7.5779,-1.0108,1.7248,1.4913578,1.0050858,0.67232054,-1
222,223,1583586459932,-8.6733,-0.7108,1.4276999,0.73926246,1.3460106,0.20189823,-1
223,224,1583586459942,-9.2720995,-0.3328,0.7044,-0.0023942017,2.0064273,-0.8574497999999999,-1
224,225,1583586459952,-9.6876,0.13,0.0683,-0.50279194,2.6063855,-1.353921,-1
225,226,1583586459962,-10.2518,0.68189996,-0.3302,-1.1027118,3.0118484,-1.7027561999999998,-1
226,227,1583586459973,-11.2969,1.023,-0.6371,-2.747672,3.4523623,-1.9051142,-1
227,228,1583586459983,-12.832299,1.406,-0.5979,-4.30851,3.9451847,-1.6883432,-1
228,229,1583586459993,-14.378599,1.8749,-0.3022,-5.7491007000000005,4.354622,-1.4224336000000002,-1
229,230,1583586460003,-15.654698999999999,2.1348999,0.0975,-6.8502135,4.3671293,-0.85145473,-1
230,231,1583586460013,-16.604399,1.9808999,0.87469995,-7.4732994999999995,3.9069924,0.43672156,-1
231,232,1583586460024,-16.9076,1.6279999,2.05,-7.324007000000001,3.6949525000000003,1.2175857,-1
232,233,1583586460034,-16.624699,1.505,2.7465,-6.737934599999999,3.4706826,1.2485473999999999,-1
233,234,1583586460044,-16.0982,1.4365,2.5209,-6.0755552999999995,3.2861567000000003,0.4883022,-1
234,235,1583586460054,-15.4421,1.4487,1.5259999,-5.1271544,3.1138508,-0.9835189000000001,-1
235,236,1583586460064,-14.5047,1.4559,0.06359999599999999,-4.0936637000000005,2.6964936,-1.9478555,-1
236,237,1583586460074,-13.5063,1.2314,-0.72959995,-3.2246354,2.005575,-1.7177153000000003,-1
237,238,1583586460084,-12.7766,0.6967,-0.36569998,-2.8744786,0.80125314,-1.2300928999999998,-1
238,239,1583586460095,-12.5309,-0.3209,0.0704,-2.7146416,-0.11767023,-0.6413396,-1
239,240,1583586460105,-12.2925,-0.92179996,1.0386,-2.427031,-1.0695378999999998,1.2913846000000002,-1
240,241,1583586460115,-12.1672,-1.5762999,2.8513,-2.5395105,-2.4436178,3.6521246,-1
241,242,1583586460125,-12.2434,-2.7402,5.1973,-2.2332156000000003,-4.216974700000001,5.151259,-1
242,243,1583586460136,-11.7885,-4.2321,6.2608,-0.96359915,-6.3036650000000005,4.026147,-1
243,244,1583586460146,-10.2393,-5.8493,4.5599,1.6175226999999999,-7.7983074000000006,1.4106541000000001,-1
244,245,1583586460156,-7.442199700000001,-6.6747,1.8684,5.485317,-9.046874,-0.5982823,-1
245,246,1583586460166,-4.1419997,-7.3013,0.2732,8.303293,-9.662011999999999,-0.34409466,-1
246,247,1583586460176,-1.2271999,-7.4382,0.4276,9.514347,-10.02866,1.2450709999999998,-1
247,248,1583586460186,0.09219999599999999,-7.3451996,1.9043,8.52557,-10.95195,2.3914626,-1
248,249,1583586460197,-0.7565,-7.8215,2.9557,6.780494,-12.058558999999999,2.9959027999999996,-1
249,250,1583586460207,-2.3504,-8.4927,3.4297998,6.4521246,-12.843255000000001,4.022431399999999,-1
250,251,1583586460217,-2.5042,-8.8319,4.2988,7.5868993,-13.600445,4.3166785,-1
251,252,1583586460227,-1.1501,-9.1263,4.3664,9.21872,-14.388998999999998,3.7713656,-1
252,253,1583586460238,0.73179996,-9.4485,3.5760998999999996,11.291879,-15.291614000000001,2.3909743,-1
253,254,1583586460249,5.0627,-10.3841,1.2911,13.180674,-16.444679999999998,1.9487173999999998,-1
254,255,1583586460259,6.1907,-11.4143,2.1151,13.822694,-17.955460000000002,3.1554046000000002,-1
255,256,1583586460269,6.8019,-12.3074,3.7303998,14.133509,-19.028194,4.892867,-1
256,257,1583586460279,6.8019,-12.3074,3.7303998,14.875558999999999,-19.157387,5.3888115999999995,-1
257,258,1583586460289,9.4354,-11.818399000000001,2.7767,16.091745,-19.06793,3.5564910000000003,-1
258,259,1583586460299,10.3932,-11.6283,0.0846,16.686207,-19.111849,1.2758222,-1
259,260,1583586460309,11.5515995,-11.064899,-0.99189997,17.490236,-18.699146,0.78847766,-1
260,261,1583586460320,12.3763,-10.437099,-0.36749998,17.874239000000003,-18.285458,1.8206946,-1
261,262,1583586460330,12.323999,-9.801,1.6824,17.123243,-17.60716,4.565283,-1
262,263,1583586460340,11.2465,-8.7855,3.4308,15.843687,-16.871662,5.324532,-1
263,264,1583586460350,9.4635,-8.1199,2.349,13.579779,-16.47275,3.4727607000000003,-1
264,265,1583586460360,8.3064995,-8.0316,0.56479996,12.855235,-16.529617000000002,2.290753,-1
265,266,1583586460370,8.6101,-8.6286,-0.19669999,13.439497,-17.43947,1.8626028000000001,-1
266,267,1583586460381,10.0448,-8.8601,-0.3342,14.89451,-17.194284,1.4267334999999999,-1
267,268,1583586460391,11.4484,-8.1335,-1.5769,15.694517999999999,-16.531723,0.3399479,-1
268,269,1583586460401,11.4409,-7.4525,-1.7220999,14.592209,-15.610253,1.430277,-1
269,270,1583586460412,9.9407,-6.532099700000001,-0.109,13.012889,-14.865924,2.8505461,-1
270,271,1583586460422,7.6965,-5.4009,1.5015,10.096579,-13.29755,4.264131,-1
271,272,1583586460432,5.4670997,-4.204,2.1049,8.487559,-12.480141,4.1894984,-1
272,273,1583586460442,3.5802,-3.1032999,1.6391,7.0725293,-11.405814,3.5980157999999998,-1
273,274,1583586460453,2.7761998,-2.2093,0.92999995,6.624018700000001,-10.61115,2.6205497,-1
274,275,1583586460463,2.7621,-1.7344998999999999,-0.16759999,6.9008455,-10.258733,1.368315,-1
275,276,1583586460473,3.2252,-1.4431,-1.3131,7.438363000000001,-9.960674000000001,0.7916188,-1
276,277,1583586460483,3.6899,-1.1392,-1.6107,7.55203,-9.754696000000001,0.8486583000000001,-1
277,278,1583586460493,3.5765,-1.0218999,-1.3087,7.1472664,-9.601946,1.5191306,-1
278,279,1583586460503,2.9233,-0.8189,-0.36519998,6.330087000000001,-9.515449,2.6919734,-1
279,280,1583586460514,2.0212998,-0.8262,0.87,5.2395477,-9.446782,3.5790919999999997,-1
280,281,1583586460524,1.0668,-0.73139995,1.2965,4.462466200000001,-9.322102000000001,3.0737526,-1
281,282,1583586460534,0.33449998,-0.64089996,0.63659996,4.158853,-9.245727,2.2377357000000004,-1
282,283,1583586460544,0.094799995,-0.5804,-0.23279999,4.4420967000000005,-9.255466,1.2604322000000001,d
283,284,1583586460554,0.5054,-0.6735,-1.2387999,5.296386,-9.350114,0.6741019,-1
284,285,1583586460564,1.4113,-0.7223,-1.7047,6.12976,-9.295266999999999,0.7999985,-1
285,286,1583586460574,2.123,-0.6694,-1.4963,6.1951410000000005,-9.347710000000001,1.1518983,-1
286,287,1583586460584,1.8857,-0.83309996,-0.8093,5.4184804,-9.632592,2.6570947,-1
287,288,1583586460595,1.1219,-1.0587,0.6816,4.8977227,-9.826178,3.936154,-1
288,289,1583586460605,0.6168,-1.3176,1.8967999,4.762316,-10.266729,4.43341,-1
289,290,1583586460615,0.5093,-1.8065,2.2333,4.907864,-10.785255000000001,3.9652002,-1
290,291,1583586460625,0.667,-2.3002,1.5324999,5.410197,-11.018191999999999,2.7957091,-1
291,292,1583586460635,1.226,-2.5328,0.3004,6.3413496,-11.004546000000001,1.6972208,-1
292,293,1583586460646,2.2,-2.4921,-0.8323,7.437473,-10.880603,0.7815632,-1
293,294,1583586460656,3.2356,-2.3629,-1.6357,8.029693,-10.759983,1.4451688999999999,-1
294,295,1583586460666,3.5856998,-2.3221,-0.91239995,7.77562,-11.193468,2.8755607999999997,-1
295,296,1583586460676,3.2457,-2.7828999,0.5582,7.6570497,-11.898848,4.238216,-1
296,297,1583586460686,3.0497,-3.5209,1.9799,8.060664,-12.899135000000001,5.0829763,-1
297,298,1583586460696,3.365,-4.5562997,2.8727999,9.345142999999998,-13.669082000000001,4.8118377,-1
298,299,1583586460707,4.5736,-5.370199700000001,2.6232998,10.8597355,-14.262939000000001,4.3501015,-1
299,300,1583586460717,8.3356,-6.5752997,0.72499996,13.241209,-14.782328,2.9970232999999995,-1
300,301,1583586460727,8.3356,-6.5752997,0.72499996,14.796952,-14.84405,1.4586912,-1
301,302,1583586460737,9.8102,-6.7098,-0.85709995,15.506421,-14.607848,0.5750871999999999,-1
302,303,1583586460747,9.9313,-6.4694,-1.4412,15.071979,-14.3962965,1.0421194,-1
303,304,1583586460758,9.9313,-6.4694,-1.4412,14.614695999999999,-14.220591,1.7220153000000002,-1
304,305,1583586460768,8.3309,-5.6884,0.91029996,13.985307999999998,-13.218214999999999,3.094314,-1
305,306,1583586460778,7.6256,-5.0615,1.1482999,13.473025,-12.504744,2.9898791,-1
306,307,1583586460788,6.7917,-4.8115,0.5567,12.924476,-12.147758,2.1076252,-1
307,308,1583586460798,6.4034,-4.6411,-0.4443,12.908012,-11.816727,0.9871198,-1
308,309,1583586460808,6.4042997,-4.6061997,-0.77199996,13.170073,-11.642714999999999,0.72299147,-1
309,310,1583586460819,6.4778,-4.7588,-0.1384,13.473533999999999,-11.577363,1.4153275,-1
310,311,1583586460829,6.3847,-4.7421,0.843,13.493557999999998,-11.292415,2.0896018,-1
311,312,1583586460839,5.7495,-4.7106,1.2569,12.965647,-11.046253,2.1783023,-1
312,313,1583586460849,4.4544,-4.4126997,1.2732999,11.844346,-10.367094999999999,2.0334241000000004,-1
313,314,1583586460859,3.1613,-3.5602,1.2154,10.811219,-9.165636,1.7905084999999998,-1
314,315,1583586460869,1.9638,-2.5983,1.0892998999999999,9.839499,-7.907367999999999,1.6691703999999998,-1
315,316,1583586460880,0.777,-1.7673,2.1058,8.870028999999999,-6.822833,2.8254262999999997,-1
316,317,1583586460890,-0.5518,-1.2872,3.847,7.6860485,-6.097735,4.352821400000001,-1
317,318,1583586460900,-2.1659,-1.1604999,4.9996,5.963592,-5.5969157,5.2189574,-1
318,319,1583586460910,-3.5416,-0.9849,5.0053997,4.9787908,-4.989334599999999,4.632742400000001,-1
319,320,1583586460920,-4.3143997,-0.5051,4.2599998,4.5367346,-4.138148,3.8452029999999997,-1
320,321,1583586460930,-4.5165997,-0.0241,3.944,4.756187000000001,-3.5525167,3.6458711999999998,-1
321,322,1583586460941,-4.053499700000001,0.1502,4.0629,5.388773400000001,-3.1024642000000004,3.666691,-1
322,323,1583586460951,-3.6655,0.332,4.290499700000001,5.5292273000000005,-2.7732995,3.8478269999999997,-1
323,324,1583586460961,-4.2497997000000005,0.1962,4.54,4.3604927,-2.7636557,3.5354123,-1
324,325,1583586460972,-5.5723,-0.0735,3.9980998,3.3285245999999997,-2.7062714,2.8202164,-1
325,326,1583586460982,-6.8269997,-0.0082,3.2893999,2.1440363,-2.0812506999999996,1.9725443999999999,-1
326,327,1583586460993,-7.6102996,0.3216,2.6912,1.6877206999999999,-1.6446346,1.2889042,-1
327,328,1583586461003,-7.9019,0.36319998,2.4945,1.6541443999999998,-1.4489516000000002,1.990616,-1
328,329,1583586461013,-8.0155,0.4324,3.912,1.3424863999999999,-1.2247682,3.6750996,-1
329,330,1583586461023,-8.3445,0.1485,5.9704,1.1884243,-2.1579707000000004,6.422791,-1
330,331,1583586461033,-8.3609,-1.003,8.3594,1.4794922,-2.8137617,7.4957476,-1
331,332,1583586461044,-7.8803997,-1.7925999,9.1595,2.0953574,-3.2651742,7.098578,-1
332,333,1583586461054,-7.2707996,-2.1998,8.352799000000001,2.6103504,-3.1179976000000003,5.4871273,-1
333,334,1583586461064,-6.9082,-1.859,6.1404,2.683316,-2.5149076,2.0359046000000003,-1
334,335,1583586461074,-6.9507,-1.2508999,2.1441998,2.5882373,-1.6660962,-2.009578,-1
335,336,1583586461084,-7.0462,-0.40199998,-1.3492,2.598408,-0.75518864,-4.261439299999999,-1
336,337,1583586461094,-6.937,0.3268,-2.6539,2.8883936,-0.23069570000000003,-4.015680000000001,-1
337,338,1583586461105,-6.5112,0.47219998,-1.4176999,3.3905248999999995,-0.4529734,-1.6093537,-1
338,339,1583586461115,-6.1365,-0.0734,1.5317999,3.5031576,-1.2211195,1.9855401999999998,-1
339,340,1583586461125,-6.1045,-0.8218,4.3796,3.505954,-1.8752058,3.2764173,-1
340,341,1583586461135,-6.035,-1.5850999,5.3424,3.9432502,-2.4096777,2.482385,-1
341,342,1583586461145,-5.473799700000001,-2.0765,4.2969,4.6593847,-2.0065996999999998,0.008475474,-1
342,343,1583586461156,-4.7795,-1.5485,1.6349,4.9919294999999995,-1.0115981,-3.7886900000000003,-1
343,344,1583586461166,-4.5441,-0.77199996,-1.4573,4.9161296,-0.5048318,-5.301251000000001,-1
344,345,1583586461176,-4.6299,-0.20729999,-3.1592,4.897693599999999,0.0034668040000000004,-5.35694,-1
345,346,1583586461186,-4.6288,0.1405,-3.0047,4.9961915,-0.10726981599999999,-3.9960565999999997,-1
346,347,1583586461196,-4.506,-0.0311,-1.4125999,5.378468499999999,-0.46856442,-2.2126446,-1
347,348,1583586461206,-4.0153,-0.43129998,0.5121,6.1790133,-0.5181148,-1.2742323999999998,-1
348,349,1583586461216,-3.3246,-0.475,1.1948,6.625407000000001,-0.45186248,-1.6759411,-1
349,350,1583586461226,-2.8004,-0.39749998,0.6903,6.902196400000001,-0.34858617,-2.6617775000000004,-1
350,351,1583586461236,-2.5237,-0.2987,-0.2945,7.171994000000001,-0.3264063,-3.7654855000000005,-1
351,352,1583586461247,-2.258,-0.29,-1.2459999,7.4955564,-0.42547837,-4.3519597,-1
352,353,1583586461257,-1.8758999,-0.3944,-1.7809,7.952742999999999,-0.59763104,-4.4693904,-1
353,354,1583586461267,-1.4951999,-0.5263,-1.8014,8.211172999999999,-0.7865719,-4.697156,-1
354,355,1583586461277,-1.2328,-0.7076,-2.0012,8.302660000000001,-0.7900674,-5.143607,-1
355,356,1583586461287,-1.1381,-0.6943,-2.4301,8.396331,-0.6359479,-5.1286674,-1
356,357,1583586461297,-1.0352,-0.2254,-1.8702999,8.38547,-0.30821994,-4.514698,-1
357,358,1583586461308,-1.0231999,-0.0626,-1.1927,8.393832000000002,-0.14839262,-3.908879,-1
358,359,1583586461318,-0.87,0.015099999499999999,-0.7772,8.548028,-0.1396873,-3.6145742,-1
359,360,1583586461328,-0.6663,-0.2129,-0.8096,8.7443905,-0.4533469,-3.7742292999999996,-1
360,361,1583586461338,-0.6663,-0.2129,-0.8096,8.959916999999999,-0.8060031999999999,-3.9875717000000006,-1
361,362,1583586461348,-0.1073,-0.8731,-1.4748,9.289769999999999,-1.096075,-4.5787,-1
362,363,1583586461359,0.066599995,-0.85249996,-1.8563999,9.402192999999999,-1.0578061,-4.880542,-1
363,364,1583586461369,0.0295,-0.5329,-1.7143999,9.326392,-0.6889746,-4.7086096,-1
364,365,1583586461379,-0.1269,-0.092999995,-1.5774,9.145017999999999,-0.29910284,-4.5965323,-1
365,366,1583586461389,-0.1269,-0.092999995,-1.5774,8.840954,-0.20405303,-4.1251807000000005,-1
366,367,1583586461399,-0.6818,-0.0139,-0.29189998,8.620783,-0.3335889,-3.1193671000000003,-1
367,368,1583586461410,-0.71209997,-0.104899995,0.59749997,8.617842999999999,-0.40369114,-2.3882928,d
368,369,1583586461420,-0.67039996,-0.044999998,0.8788,8.646458,-0.33978509999999995,-2.227575,-1
369,370,1583586461430,-0.6659,0.089899994,0.6157,8.618207,-0.1591761,-2.8437276000000002,-1
370,371,1583586461440,-0.6326,0.26139998,-0.1899,8.718735,-0.08655518,-3.7341597,-1
371,372,1583586461450,-0.40609998,0.37919998,-0.91709995,8.990026,0.04514507,-4.2680473,-1
372,373,1583586461460,-0.056199998,0.5363,-1.1172999,9.274141,0.17440324,-4.3442883000000005,-1
373,374,1583586461470,0.1445,0.52239996,-0.96999997,9.402883000000001,0.04474284,-4.171130000000001,-1
374,375,1583586461481,0.1214,0.1384,-0.76809996,9.364691,-0.5213518,-4.0139173999999995,-1
375,376,1583586461491,0.2489,-0.3091,-0.8401,9.653316,-0.90300673,-4.1971793,-1
376,377,1583586461502,0.79899997,-0.5007,-0.97859997,10.321643,-1.0197575,-4.234251,-1
377,378,1583586461512,1.6017,-0.48589998,-0.6437,11.115578999999999,-0.9018765999999999,-3.7470021,-1
378,379,1583586461522,2.1950998,-0.162,-0.092099994,11.483884,-0.51739657,-3.2255163,-1
379,380,1583586461532,2.1179,0.2296,0.3624,11.112102499999999,-0.12965082,-2.9335673,-1
380,381,1583586461542,1.3922,0.55,0.3153,10.171345,0.08835562,-3.203825,-1
381,382,1583586461552,0.2959,0.4612,-0.3035,9.18863,-0.19868043,-4.075937000000001,-1
382,383,1583586461562,-0.21759999,-0.17469999,-1.3238,9.174054,-1.1106702,-5.199267400000001,-1
383,384,1583586461572,0.2445,-0.91959995,-2.1553,9.737783,-1.5257673,-5.8460754999999995,-1
384,385,1583586461582,1.3478999,-1.3038,-2.8702,11.066258,-1.7820331000000003,-6.623856,-1
385,386,1583586461592,2.5497,-1.2477,-3.7120998,12.056289999999999,-1.4375458,-7.827383,-1
386,387,1583586461602,2.9638,-0.77349997,-4.6299,11.943686,-0.92429596,-8.351637,-1
387,388,1583586461613,2.5033,-0.44799998,-4.7855,11.106011,-0.92196876,-8.2642765,-1
388,389,1583586461623,1.5732,-0.7877,-4.8585997,10.109392,-1.8117881999999998,-9.20696,-1
389,390,1583586461633,0.6156,-2.2884998,-6.3497996,9.424736,-3.9327538,-11.286918,-1
390,391,1583586461643,0.36609998,-4.6145997,-8.4951,9.9830265,-5.89123,-13.505194,-1
391,392,1583586461653,1.4964,-6.1164,-10.649099,12.046656,-6.4151583,-15.547276,-1
392,393,1583586461664,3.3005,-6.1688,-12.0896,13.085471,-5.887514,-16.70267,-1
393,394,1583586461674,4.0882998,-5.5523,-13.658199,12.566705,-5.189997,-17.587069,-1
394,395,1583586461684,3.0921,-5.1368,-13.7511,10.776531,-4.9021277,-15.9130335,-1
395,396,1583586461694,0.44419998,-5.1253,-10.9558,7.1644380000000005,-5.020239,-11.027597,-1
396,397,1583586461704,-2.5974998,-5.5337,-6.712999999999999,4.797722,-5.150943,-7.653621,-1
397,398,1583586461714,-4.6481,-5.808399700000001,-3.8945,4.0137835,-4.705095,-7.030353,-1
398,399,1583586461725,-5.2102,-5.3858,-3.8593,4.050137,-3.9441314,-8.072137,-1
399,400,1583586461735,-5.1693997000000005,-4.7806,-5.1314,4.026147,-3.3554642,-9.244425,-1
400,401,1583586461745,-5.3157997,-4.3897,-6.5347,3.6747932,-3.1452147999999998,-10.387818,-1
401,402,1583586461756,-5.7507997,-4.3083,-7.7686,3.3793870000000004,-3.2391539000000003,-10.657568,-1
402,403,1583586461766,-6.0399,-4.5197997,-7.8967996,3.4632987999999996,-3.3172815000000004,-8.488269,-1
403,404,1583586461776,-5.9494,-4.6354,-5.4217,3.1519473,-2.895586,-3.8294106,-1
404,405,1583586461786,-6.3197,-4.3485,-1.7206,2.2151728,-2.4642944,-1.2249502,-1
405,406,1583586461796,-7.5698,-3.9055998,1.2149,0.3102311,-1.4139771,1.4987224,-1
406,407,1583586461807,-9.2042,-3.1160997999999998,3.1719999999999997,-1.2576454,-0.5734496,3.0921595,-1
407,408,1583586461817,-10.767000000000001,-2.3748999,4.5668,-2.0052972,0.12663412,4.395495400000001,-1
408,409,1583586461827,-11.536799,-1.7651999,5.6812997,-1.6637499,0.8766705,5.2811017,-1
409,410,1583586461837,-11.203,-1.0424,6.3854,-0.36351642,1.6343875,6.1033664000000005,-1
410,411,1583586461847,-9.9325,-0.2555,7.0250998,1.2073863999999999,2.2675482999999996,6.8242506999999994,-1
411,412,1583586461858,-8.3995,0.42859998,7.5648,2.3594763,2.7252624,7.9408197,-1
412,413,1583586461868,-7.1341,1.3048999,10.471399,2.4665543999999997,2.9556037999999996,10.529996,-1
413,414,1583586461878,-7.7229,1.1674,12.5462,1.7758465,2.6634439999999997,12.647036,-1
414,415,1583586461888,-8.5259,0.81329995,14.352098999999999,1.0618955,2.2349968,14.613719,-1
415,416,1583586461898,-8.5259,0.81329995,14.352098999999999,0.8463120000000001,2.2483375,16.060066,-1
416,417,1583586461908,-8.6893,1.2429,16.9991,1.1539572,2.4947295,17.241587,-1
417,418,1583586461919,-8.1187,1.3224,17.2174,1.8002003,2.3324312999999997,17.42095,-1
418,419,1583586461929,-7.1157,1.3313,17.0392,2.922468,2.1831958,17.336376,-1
419,420,1583586461939,-5.7086,1.3616999,16.8366,4.318096,1.9515234000000001,17.185389,-1
420,421,1583586461949,-5.7086,1.3616999,16.8366,5.096633,1.6513193,17.18129,-1
421,422,1583586461960,-4.3938,0.80609995,16.9089,5.4181742999999996,0.7561464,17.415979999999998,-1
422,423,1583586461970,-4.4061,0.2443,17.3739,5.4315050000000005,0.024449587000000002,17.955765,-1
423,424,1583586461980,-4.374,-0.2181,18.036499,5.485412999999999,-0.8159727,18.47137,-1
424,425,1583586461990,-4.111000000000001,-0.7942,17.865599,5.8758593,-1.5561545,17.866425,-1
425,426,1583586462000,-3.6462998,-1.1381,16.9251,6.239194,-2.0328112000000003,16.81146,-1
426,427,1583586462011,-3.5876,-1.3884,15.8649,5.989881,-2.658713,15.7445,-1
427,428,1583586462021,-4.092,-2.1657,15.0757,5.424303,-4.014703,15.108016000000001,-1
428,429,1583586462031,-4.4323997,-3.5651998999999996,14.7695,5.322205,-5.699962599999999,14.6950445,-1
429,430,1583586462041,-3.8711998,-5.0218,14.2106,6.4302707,-7.401253,13.897029000000002,-1
430,431,1583586462052,-1.9359,-6.2774997,12.9633,8.588941,-8.612853,11.987864,-1
431,432,1583586462062,0.40219998,-6.6408997,10.320499,10.742266,-9.063728999999999,9.163003,-1
432,433,1583586462072,2.2781,-6.7109,7.7942995999999996,12.406006,-9.398209,6.7632460000000005,-1
433,434,1583586462084,3.2171998,-6.687999700000001,6.3596997,12.514560000000001,-10.170971,6.161459,-1
434,435,1583586462094,3.0879998,-7.4049997,6.1320996,12.009996000000001,-12.140854,5.9921985,-1
435,436,1583586462104,2.7539999999999996,-9.2434,5.7279,12.425092999999999,-14.451353,4.427214,-1
436,437,1583586462114,3.4972,-11.3833,3.9178998,14.329948000000002,-16.193079,1.8024603,-1
437,438,1583586462124,5.7353997,-12.7183,1.1106,16.943373,-17.130454999999998,-1.1440933,-1
438,439,1583586462135,8.406,-13.288898999999999,-1.6741999,18.684760999999998,-16.985443,-2.9503076,-1
439,440,1583586462145,9.8933,-12.7767,-3.2872999,18.677225,-16.188568,-3.8439197999999997,-1
440,441,1583586462155,9.5722,-11.8222,-4.071399700000001,16.997175,-15.415335999999998,-4.136405,-1
441,442,1583586462165,7.6947,-11.016399,-4.5264997000000005,14.68609,-15.194101000000002,-6.069866,-1
442,443,1583586462175,5.5195,-10.9279995,-7.0216,13.657522,-15.879629000000001,-9.801153,-1
443,444,1583586462185,4.9758,-11.6271,-10.880999999999998,14.932406,-16.376389,-12.817656,-1
444,445,1583586462196,6.607199700000001,-11.913099,-13.5301,17.03353,-15.981373000000001,-13.793331,-1
445,446,1583586462206,8.6467,-11.3398,-13.9695,17.702785000000002,-14.97259,-13.061136,-1
446,447,1583586462216,8.9786,-10.465099,-13.1714,15.575439999999999,-14.0863905,-11.8269825,-1
447,448,1583586462226,6.8402996,-9.591000000000001,-11.8115,12.411628,-13.054682000000001,-11.039981,-1
448,449,1583586462236,3.6550998999999997,-8.625999,-10.9439,9.268137,-12.096359,-12.616629,-1
449,450,1583586462246,0.46969998,-7.7404,-12.495399,7.200417999999999,-11.431116000000001,-15.590466500000002,-1
450,451,1583586462257,-1.6360999,-7.1481,-15.4683,6.713159599999999,-10.709771,-17.689512,-1
451,452,1583586462267,-2.1552,-6.4821,-17.5871,7.505726299999999,-10.053694,-18.275928,-1
452,453,1583586462277,-1.3805,-5.8669996,-18.1591,8.309344,-9.6709175,-17.088434,-1
453,454,1583586462287,-0.7096,-5.1734,-14.5576,8.037957,-9.229225999999999,-14.277563,-1
454,455,1583586462297,-1.8937998999999999,-5.0632,-11.9003,6.7575389999999995,-9.035057,-11.866545,-1
455,456,1583586462307,-3.6241999,-4.5499,-10.5913,5.004619,-8.375693,-10.937671,-1
456,457,1583586462318,-3.6241999,-4.5499,-10.5913,3.6300502,-7.8524164999999995,-10.772749000000001,-1
457,458,1583586462328,-6.6254,-3.6137,-10.121799000000001,2.2816072,-7.341896,-10.621722,-1
458,459,1583586462338,-6.9644,-3.5372999,-9.9842,2.1551645,-7.2433605,-10.5068865,-1
459,460,1583586462348,-6.9644,-3.5372999,-9.9842,2.8564453,-7.181589999999999,-10.758288,-1
460,461,1583586462358,-5.4774,-3.5497,-10.3306,3.8178706,-7.234808,-10.753242,-1
461,462,1583586462368,-4.657,-3.6822998999999994,-9.6297,4.548121,-7.358435000000001,-9.820478999999999,-1
462,463,1583586462379,-4.657,-3.6822998999999994,-9.6297,4.7697477,-7.494292,-8.30108,-1
463,464,1583586462389,-4.3896,-4.1003,-5.7537,4.666232,-7.7461424,-5.9073,-1
464,465,1583586462399,-4.68,-4.1040998,-4.8735,4.395438700000001,-7.7271996,-5.2706723,-1
465,466,1583586462409,-4.7639,-4.0648,-5.2032,4.3797417,-7.6797943,-5.7390547,-1
466,467,1583586462419,-4.4727,-4.0078,-5.9556,4.7531514,-7.6304455,-6.345401,-1
467,468,1583586462430,-4.4727,-4.0078,-5.9556,5.144536,-7.734075999999999,-6.0435395,-1
468,469,1583586462440,-3.6546998,-4.468999999999999,-4.489,5.465464599999999,-8.196214,-4.3266287000000005,-1
469,470,1583586462450,-3.6905,-4.7826,-2.4185,5.358492,-8.454386,-1.8648725,-1
470,471,1583586462460,-3.9204,-4.7479997,-0.99619997,5.0720205,-8.369027,-0.86186475,-1
471,472,1583586462470,-4.0694,-4.638999999999999,-0.3371,5.1477637000000005,-8.323347,-0.2671067,-1
472,473,1583586462480,-3.5967998999999997,-4.5501,-0.118499994,5.820256,-8.192374000000001,-0.26151386,-1
473,474,1583586462491,-2.6497998,-4.316,-0.1725,6.834565,-7.981367999999999,0.11145488,-1
474,475,1583586462501,-1.7207999,-4.0889997000000005,0.78639996,7.506655,-7.8269997,1.4554352,-1
475,476,1583586462511,-1.5182999,-4.0218,2.4861999,7.3543652999999996,-7.99626,3.3948824,-1
476,477,1583586462521,-2.0427,-4.3802,4.4302,6.6165199999999995,-8.4482565,5.488898799999999,-1
477,478,1583586462531,-2.5461,-4.6193,5.7332997,6.406807,-8.484927,6.235133,-1
478,479,1583586462541,-2.4464998,-4.4382997,6.0938,6.782112599999999,-8.199067999999999,6.5463605000000005,-1
479,480,1583586462551,-1.7722,-3.7963,6.4799,7.4789114,-7.496619,7.1402273,-1
480,481,1583586462562,-0.9856,-3.0195,7.2535996,8.274571,-6.843317999999999,8.182568,-1
481,482,1583586462572,-0.1777,-2.4851,8.5651,9.0042,-6.533211,10.234082,-1
482,483,1583586462582,0.2562,-2.3748999,10.4233,9.159152,-6.6986604000000005,12.008502,-1
483,484,1583586462592,0.3146,-2.5072,11.8751,9.103808,-6.739198700000001,12.811651,-1
484,485,1583586462602,0.18349999,-2.3155,12.2097,8.871284,-6.440718700000001,12.557827,-1
485,486,1583586462612,0.08,-1.9648,11.303599,8.892984,-6.114351,11.394619,-1
486,487,1583586462622,0.2695,-1.5016999,9.3713,9.272186999999999,-5.5915813,9.098234,-1
487,488,1583586462633,0.7416,-0.9939,7.5813,9.845236,-5.0152589999999995,8.034644,-1
488,489,1583586462643,1.3061999,-0.33609998,7.1008,10.08432,-4.3933315,8.56518,-1
489,490,1583586462653,1.2145,0.1639,8.1378,9.558860000000001,-4.0877643,10.066382,-1
490,491,1583586462663,0.496,0.4168,9.5931,8.871935,-3.8669998999999997,10.807523,-1
491,492,1583586462673,-0.2943,0.6825,9.6156,8.199968,-3.6060796,9.768295,-1
492,493,1583586462683,-0.5031,0.8221,8.1362,8.439283,-3.5484655,8.064917,-1
493,494,1583586462694,-0.038599997999999996,0.8124,6.4181,9.183306,-3.626028,6.505458,-1
494,495,1583586462703,0.745,0.7502,4.8877997,9.785150999999999,-3.6444826,5.144957499999999,-1
495,496,1583586462713,1.1373,0.81409997,3.6125,9.802703999999999,-3.5575635,4.394576,-1
496,497,1583586462723,0.93789995,0.9201,3.0052998,9.303006,-3.4368480000000003,4.2335997,-1
497,498,1583586462733,0.3211,0.9691,3.1956,8.614118,-3.3595057,4.71244,-1
498,499,1583586462743,-0.2995,1.0629,3.6857,8.268673,-3.226474,5.169761,-1
499,500,1583586462753,-0.4499,1.1485,4.0276,8.319382000000001,-3.1827753,5.323737,-1
500,501,1583586462764,-0.27429998,1.1894,3.9959998,8.694295,-3.187123,4.9015245,-1
501,502,1583586462774,0.0415,1.1367999,3.4406,8.881894,-3.3871154999999997,4.0638510000000005,-1
502,503,1583586462785,0.213,0.9206,2.5444,9.026964,-3.5847902,3.1516986,-1
503,504,1583586462795,0.3671,0.7449,1.5802,9.109727000000001,-3.6763253,2.2486055,-1
504,505,1583586462805,0.40489998,0.65709996,0.6662,9.000236,-3.7827141,1.6620165,-1
505,506,1583586462818,0.21669999,0.5081,-0.1121,8.560171,-3.9739056000000006,0.9236064,-1
506,507,1583586462828,-0.1113,0.37669998,-0.6056,8.4514265,-4.0707655,1.2006633999999998,-1
507,508,1583586462838,-0.091299996,0.100499995,0.5743,8.604330000000001,-4.285056,2.3078573,-1
508,509,1583586462848,-0.0158,-0.0824,1.5029,8.653431,-4.4681644,3.138061,-1
509,510,1583586462859,-0.0665,-0.22549999,2.0147998,8.608410000000001,-4.577110299999999,3.5515586999999997,d
510,511,1583586462869,-0.1039,-0.1617,2.0084999,8.574939,-4.5125246,3.267702,-1
511,512,1583586462879,-0.07809999599999999,-0.22469999,1.3026,8.636441,-4.6907487,2.463739,-1
512,513,1583586462890,0.049,-0.3663,0.4497,8.7840395,-4.7157540000000004,1.6336979,-1
513,514,1583586462900,0.2552,-0.20539999,-0.5754,8.979797999999999,-4.475146,0.6307668000000001,-1
514,515,1583586462910,0.4197,-0.027099999,-1.347,9.087508999999999,-4.3928145999999995,0.23881683,-1
515,516,1583586462920,0.43219998,-0.1151,-0.9683,9.026456,-4.568453,1.175917,-1
516,517,1583586462931,0.3023,-0.3215,0.4062,8.887162,-4.766511,2.623959,-1
517,518,1583586462941,0.21,-0.48839998,1.9671999,8.854533,-4.919136,4.1376114,-1
518,519,1583586462951,0.2474,-0.5653,3.0990999,8.920364,-4.976999299999999,4.738757,-1
519,520,1583586462961,0.3787,-0.7382,2.7156,9.144721,-5.2015275999999995,3.7811437000000003,-1
520,521,1583586462971,0.7606,-0.93969995,1.3837,9.847782,-5.4249544,2.4124744,-1
521,522,1583586462981,1.5963,-1.0531,0.3031,10.60413,-5.415799,1.596741,-1
522,523,1583586462992,2.5577,-0.9249,-0.5015,11.452252,-5.257504,1.2973125,-1
523,524,1583586463002,3.0405,-0.8646,0.0157,11.595464,-5.225719000000001,2.5880650000000003,-1
524,525,1583586463012,2.8546,-0.8667,1.4195,11.248783,-5.3100615,3.9990062999999996,-1
525,526,1583586463022,2.4754,-1.0473,2.6725,10.99245,-5.4580903,5.0100684,-1
526,527,1583586463033,2.3009999,-1.1666,3.4726998999999994,10.948493,-5.4404883,5.340602,-1
527,528,1583586463043,2.3741999,-0.99539995,3.7242,11.233355,-4.9515347,5.475281,-1
528,529,1583586463053,2.7251,-0.5906,3.4197,11.712684,-4.6224947,4.9126816,-1
529,530,1583586463063,3.284,-0.41259998,2.7624,12.4774685,-4.450495200000001,4.447411499999999,-1
530,531,1583586463074,3.8904,-0.3358,2.4415,12.859314999999999,-4.423824,4.4978337,-1
531,532,1583586463084,4.335099700000001,-0.4116,2.702,13.443759,-4.4919915,5.5742283,-1
532,533,1583586463094,4.8122997000000005,-0.52459997,3.7535,13.852917999999999,-4.5236044,6.739917,-1
533,534,1583586463104,5.1096997,-0.64419997,4.7741,14.095116,-4.532549400000001,7.6057177,-1
534,535,1583586463114,5.3357,-0.68649995,5.6663,14.286192000000002,-4.2348356,8.210857,-1
535,536,1583586463125,5.4426,-0.4472,6.1692,14.2054405,-3.883692,8.437033,-1
536,537,1583586463135,5.2627997,-0.251,6.3013997,13.888209,-3.675789,8.376335000000001,-1
537,538,1583586463145,4.8768997,-0.1796,6.1789,13.534039499999999,-3.4931116,8.362707,-1
538,539,1583586463155,4.5165997,-0.1313,6.2297997,13.46139,-3.2999282,8.636441,-1
539,540,1583586463165,4.4391,-0.13,6.4958,13.568879999999998,-3.1995442,8.765422000000001,-1
540,541,1583586463175,4.5064,-0.15609999,6.5525,13.543204000000001,-3.2331874,8.321163,-1
541,542,1583586463186,4.3824997,-0.3615,5.9757,13.484077,-3.4206152000000003,7.0899779999999994,-1
542,543,1583586463196,4.2746,-0.7405,4.692,13.26767,-3.7527196000000003,5.440603299999999,-1
543,544,1583586463206,4.0168,-1.157,3.4057998999999994,12.969659,-3.8466777999999997,4.4658184,-1
544,545,1583586463216,3.5605998,-1.4266,2.293,12.570431,-3.6713934,3.8195178999999997,-1
545,546,1583586463226,3.1917,-1.4403,1.9607999,12.422899000000001,-3.2687461,4.434406299999999,-1
546,547,1583586463236,2.9808998,-1.2229999,2.7026,12.286766,-2.826882,5.1096379999999995,-1
547,548,1583586463246,2.7733,-0.9695,3.4935,11.930221000000001,-2.5907753,5.274264,-1
548,549,1583586463256,2.2454,-0.89739996,3.7937999,11.069016,-2.530748,4.9558063,-1
549,550,1583586463266,1.2213,-1.0261999,3.4469,9.552692,-2.4481479999999998,3.4632796999999997,-1
550,551,1583586463276,-0.1117,-1.1783,2.2767,8.446725,-2.3547740000000004,1.5769649,-1
551,552,1583586463286,-1.2627,-1.28,0.56049997,8.058922,-2.0912874,0.25426424,-1
552,553,1583586463296,-1.6815,-1.1187,-0.7874,8.368012,-1.7446451,-0.1405205,-1
553,554,1583586463307,-1.4069999999999998,-1.0452,-0.7522,8.909332000000001,-1.6174077,0.21485567,-1
554,555,1583586463317,-0.87979996,-1.0914999,-0.2083,8.903913000000001,-1.4034905,0.93739694,-1
555,556,1583586463327,-0.9036,-1.0483,0.7086,7.795070599999999,-1.1467076999999999,2.0376093,-1
556,557,1583586463337,-2.0284,-0.9690000000000001,2.0005,5.8506722,-1.0746997999999999,2.6536853,-1
557,558,1583586463348,-6.2025,-1.2664,2.031,3.1523685,-1.13964,1.3997175,-1
558,559,1583586463357,-6.2025,-1.2664,2.031,1.5867906999999999,-1.2745101,-0.39911345,-1
559,560,1583586463367,-8.2161,-1.5659999999999998,-0.022699999,0.93775135,-1.3217813,-2.7078803,-1
560,561,1583586463377,-8.8671,-1.7041998999999999,-2.2561,1.9834526000000001,-1.1485847,-3.925897,-1
561,562,1583586463387,-7.8041,-1.5636,-3.4213998,4.7742014,-0.882158,-4.0994577,-1
562,563,1583586463398,-5.5069,-1.3701,-3.5363,6.3625717,-0.5275863000000001,-4.241769000000001,-1
563,564,1583586463408,-3.425,-0.9145,-3.6183,6.965192299999999,-0.42894518,-4.280938,-1
564,565,1583586463418,-2.7631,-0.76119995,-3.5844998,6.0913949999999994,-0.6101671,-4.332289,-1
565,566,1583586463428,-5.3143,-1.1342,-3.6258,4.1778817,-0.7168144000000001,-4.560485,-1
566,567,1583586463438,-5.3143,-1.1342,-3.6258,3.4408126000000006,-0.7503045,-4.403157,-1
567,568,1583586463448,-6.5176997000000005,-1.2009,-2.3765,3.2658541000000003,-0.6998443,-3.2010286,-1
568,569,1583586463458,-6.0471,-1.0390999,-1.0339,3.8054495000000004,-0.5024376,-2.0044928,-1
569,570,1583586463469,-5.6864,-0.90129995,-0.21599999,4.044448399999999,-0.43995848,-1.3858405,-1
570,571,1583586463479,-5.7194,-1.1537,-0.035299998,3.9536602,-0.821125,-1.3787729,-1
571,572,1583586463489,-5.7194,-1.1537,-0.035299998,3.9296224000000004,-1.3093603,-1.9463613999999998,-1
572,573,1583586463499,-5.3458,-2.0187,-1.1041,4.657268,-1.6623803,-2.7373385,-1
573,574,1583586463509,-4.2036,-2.1404,-1.8435999,5.748986,-1.7588955000000002,-3.393168,-1
574,575,1583586463519,-2.9539999999999997,-1.8580999,-2.2646,6.9696929999999995,-1.4420756000000001,-3.8188474,-1
575,576,1583586463530,-2.0571,-1.4828,-2.5305,7.736624000000001,-1.1458937,-4.086031,-1
576,577,1583586463540,-1.7962999,-1.2753999,-2.6938999,7.861265700000001,-1.0231861,-4.2546496,-1
577,578,1583586463550,-2.0837998,-1.3237,-2.5409,7.4065204,-1.2340482,-3.9952714,-1
578,579,1583586463560,-2.4394999,-1.7986,-2.0347,7.2348757,-1.9194124,-3.4168417,-1
579,580,1583586463570,-2.1478,-2.5841,-1.2936,7.9081345,-2.5589228,-2.6302027999999997,-1
580,581,1583586463580,-1.0310999,-2.8248,-0.3108,9.0600815,-2.630902,-1.7481791000000002,-1
581,582,1583586463591,-0.118999995,-2.7201,0.2855,9.690608000000001,-2.5507633999999997,-1.5142176,-1
582,583,1583586463601,0.098,-2.6090999,0.0818,9.667116,-2.4426315,-2.0477893,-1
583,584,1583586463611,-0.076799996,-2.4243999,-0.6428,9.498181,-2.1523776000000003,-2.9101903,-1
584,585,1583586463621,-0.1257,-1.9185,-1.4261999,9.470504,-1.612811,-3.6292362000000002,-1
585,586,1583586463631,-0.15689999,-1.4043,-1.8962,9.483605,-1.1527028,-4.010997,-1
586,587,1583586463641,-0.1495,-1.0490000000000002,-2.0077,9.451082000000001,-0.9374353000000001,-3.8904724,-1
587,588,1583586463652,-0.1514,-0.97069997,-1.3526,9.453563,-0.92584735,-3.1100488,-1
588,589,1583586463662,-0.092999995,-0.97179997,-0.5933,9.542483,-0.988834,-2.4985697,-1
589,590,1583586463672,0.0645,-1.0404,-0.2519,9.75642,-1.0054976999999998,-2.3771071,-1
590,591,1583586463682,0.4868,-1.0677999,-0.0198,10.340289,-0.92647946,-1.9589357,-1
591,592,1583586463692,0.8876,-0.7822,0.41889998,10.416922999999999,-0.42597637,-1.8026901000000002,-1
592,593,1583586463702,0.68759996,-0.2859,0.38549998,9.777987,-0.10714532,-2.0507294999999996,-1
593,594,1583586463713,-0.1419,-0.059299998,0.097899996,8.857742,-0.007134721,-2.5529757,-1
594,595,1583586463723,-0.982,-0.04,-0.6435,8.315474499999999,-0.099809475,-3.7067127,-1
595,596,1583586463733,-1.1937,-0.203,-1.8719999999999999,8.659358000000001,-0.24606647,-4.8140116,-1
596,597,1583586463743,-0.53929996,-0.2438,-2.6764997999999998,9.610201,-0.21631134,-5.0361743,-1
597,598,1583586463753,0.5011,-0.1973,-2.3878,10.482523,-0.16512331,-4.007712000000001,-1
598,599,1583586463763,1.1425999,-0.1414,-0.82299995,10.6131315,-0.06779421,-1.7589912,d
599,600,1583586463774,1.0206,-0.0212,1.0692999,10.094155,0.10860099,-0.6743796,-1
600,601,1583586463784,0.2599,0.13849999,2.1612,8.9620905,0.23087765,-0.393511,-1
601,602,1583586463794,-0.6807,0.1425,2.1111,8.248963999999999,0.27224946,-1.2022818000000002,-1
602,603,1583586463804,-1.2816,0.1759,1.146,8.275463,0.20264523,-2.807077,-1
603,604,1583586463814,-1.0604,0.057499997000000004,-0.5212,9.124868,-0.11696154,-4.319791,-1
604,605,1583586463825,-0.0753,-0.2462,-1.8191998999999999,10.444225999999999,-0.26273009999999997,-4.730464,-1
605,606,1583586463835,1.2322999,-0.3148,-2.0224,11.388758000000001,-0.14509821,-4.2575707000000005,-1
606,607,1583586463845,2.0374,-0.1507,-1.4504,11.595608,0.30249299999999996,-3.669593,-1
607,608,1583586463855,2.0946999,0.31649998,-0.9367,11.152757000000001,0.98274314,-3.4968178,-1
608,609,1583586463865,1.5832,1.0195,-0.8066,10.458783,1.6385055,-3.1976385,-1
609,610,1583586463876,0.8211,1.5329,-0.457,9.381536500000001,1.7635976000000002,-3.2280257000000003,-1
610,611,1583586463886,-0.2972,1.3773999,-0.65419996,8.22755,0.6372024000000001,-4.7773423,-1
611,612,1583586463896,-1.341,-0.0095,-2.6257,8.309393,-1.3910408,-9.10603,-1
612,613,1583586463906,-1.0983,-1.694,-6.2957997,9.985804,-2.4905633999999996,-12.437811,-1
613,614,1583586463917,0.5920000000000001,-2.7849,-9.584499000000001,12.3101425,-2.668673,-14.305967,-1
614,615,1583586463927,4.4883,-2.6710000000000003,-11.7026,14.006070000000001,-2.2982996,-14.375065,-1
615,616,1583586463937,4.3852,-2.5103,-10.1974,13.540110999999998,-2.1274397,-12.525735000000001,-1
616,617,1583586463948,2.4726999,-2.5407,-7.3724,11.284581,-2.0496378,-9.62947,-1
617,618,1583586463958,2.4726999,-2.5407,-7.3724,8.146194,-2.1445534,-7.644715,-1
618,619,1583586463968,-0.639,-2.7426,-5.1152997000000004,5.9763584000000005,-2.2508175,-7.1676649999999995,-1
619,620,1583586463978,-4.7545,-3.1977,-5.4309998,4.560590299999999,-2.285189,-8.599197,-1
620,621,1583586463988,-4.3974,-3.2796,-7.7114,5.206421400000001,-2.3203932999999997,-10.914716,-1
621,622,1583586463998,-3.0282,-3.4262,-9.7046995,6.6558614,-2.4380922000000003,-12.545924000000001,-1
622,623,1583586464008,-1.7025,-3.6741998,-9.8306,7.897139999999999,-2.710131,-12.207488,-1
623,624,1583586464019,-1.7025,-3.6741998,-9.8306,8.189664,-3.0133520000000003,-10.836319,-1
624,625,1583586464029,-2.0822,-4.4611,-6.3494997,7.099756200000001,-3.3254888,-8.374908,-1
625,626,1583586464039,-3.5969,-4.6566,-4.8069997,5.5355669999999995,-3.3576572000000002,-6.806706,-1
626,627,1583586464049,-5.1856,-4.5250998,-3.3948,3.997589,-3.0481732000000004,-5.166764,-1
627,628,1583586464060,-6.4941998,-4.1899,-1.1000999,2.4675121,-2.4933214,-2.0570310000000003,-1
628,629,1583586464070,-7.9465,-4.0381,1.3057,1.2042547,-2.3934546,-0.28654763,-1
629,630,1583586464080,-9.470099000000001,-4.1913,2.2523,-0.39202657,-2.5072367,0.22567746,-1
630,631,1583586464090,-9.884,-4.237,1.4889,0.061339445,-2.2825265,-0.45682326,-1
631,632,1583586464100,-9.884,-4.237,1.4889,1.6517693,-1.6595361000000002,-0.22020909,-1
632,633,1583586464110,-6.1099,-2.6857,1.9995999,4.1218863,-0.59883773,1.0607367,-1
633,634,1583586464120,-4.8459997,-1.9995999,3.3207,4.890751,-0.24719654,2.7507365000000004,-1
634,635,1583586464131,-4.8325996,-1.9883,5.2236,4.4779134,-0.31840968,5.073706,-1
635,636,1583586464141,-5.8624997,-2.0200999,7.7332997,3.1755638,-0.42783427,7.8819227,-1
636,637,1583586464151,-7.3005,-2.1929998,10.4674,1.8590401,-0.5415684000000001,10.690628,-1
637,638,1583586464161,-8.1112995,-1.8330000000000002,12.9044,1.6471055000000001,0.30337408,13.474213,-1
638,639,1583586464171,-7.6906996,-0.8445,14.7575,2.8561006,1.6181165000000002,15.116482999999999,-1
639,640,1583586464182,-6.0285,0.79829997,16.0374,4.492920400000001,2.9512365000000003,16.075876,-1
640,641,1583586464192,-4.0218997000000005,2.4299998,16.685,6.5982666,4.3209114,17.224165,-1
641,642,1583586464202,-2.7364,3.2463999,17.796298999999998,7.1721954,4.473374400000001,18.567158,-1
642,643,1583586464212,-2.8876998,2.958,19.732398999999997,6.362044999999999,3.5402101999999998,20.69752,-1
643,644,1583586464222,-4.3605,1.4943999,21.361599,4.6347337,1.3436451,21.81995,-1
644,645,1583586464232,-5.3224,-0.22919999,21.4814,4.6727347,0.17554286,21.420912,-1
645,646,1583586464243,-4.058399700000001,-0.8289,20.4167,7.068948,0.08117301,19.964941,-1
646,647,1583586464253,-1.6068,-0.1802,19.062,9.700597,0.7444148,18.618988,-1
647,648,1583586464263,0.6022,0.45639998,17.7253,11.070855,0.8164898,17.465864,-1
648,649,1583586464273,1.4212999,0.5295,16.771,11.050218,0.32069853,16.894196,-1
649,650,1583586464283,0.8788,-0.0791,16.2398,10.280443,-0.66332793,16.093939000000002,-1
650,651,1583586464294,0.0046,-1.5819,14.7293,9.758469999999999,-2.9834914,13.406113000000001,-1
651,652,1583586464304,0.2321,-3.3455,12.0279,11.326298,-4.9287324,9.199759,-1
652,653,1583586464314,1.9656999,-4.6419,8.4767,13.139695000000001,-5.815554,6.19131,-1
653,654,1583586464324,4.334,-5.4136996,5.0929,15.443147,-6.4969535,3.372961,-1
654,655,1583586464334,6.3553996,-5.6164,2.9234,16.735346,-6.3578980000000005,1.57481,-1
655,656,1583586464344,6.9683,-5.1793,1.9167,15.896848,-6.217464,1.3431183999999998,-1
656,657,1583586464355,5.8478,-4.9124,1.9732,14.029093,-6.63961,0.801301,-1
657,658,1583586464365,3.9807,-5.3915997,1.1365,12.792363,-7.5871580000000005,-1.7438599,-1
658,659,1583586464375,3.0872,-6.252999999999999,-1.6158999,13.344379,-8.606849,-5.533096,-1
659,660,1583586464385,4.0341997,-7.082000000000001,-5.4041,15.171904000000001,-9.248486,-9.680131,-1
660,661,1583586464395,5.9599,-7.478399799999999,-9.3622,16.83138,-9.356512,-12.808442,-1
661,662,1583586464405,7.527,-7.3564,-11.9025,17.461727,-9.114065,-13.568007000000001,-1
662,663,1583586464416,7.915899799999999,-6.936,-12.061299,16.58633,-8.572181,-12.653547999999999,-1
663,664,1583586464426,6.8058,-6.3078,-10.8581,14.083776,-8.088762,-11.794497999999999,-1
664,665,1583586464436,4.6537,-5.9273,-10.1083,11.859677,-7.8445826,-12.429355000000001,-1
665,666,1583586464446,2.4424,-5.6872997000000005,-10.6483,10.565306,-7.7722874000000015,-14.625776,-1
666,667,1583586464457,1.1681,-5.6168,-12.7913,10.331228999999999,-7.7027884,-17.008648,-1
667,668,1583586464467,0.93299997,-5.5589,-15.122399,10.573014,-7.4660687,-18.21436,-1
668,669,1583586464477,1.2569,-5.2332,-16.497,10.734212,-7.0079913000000005,-19.139603,-1
669,670,1583586464487,0.6789,-4.5127997,-17.4009,9.844660000000001,-6.549291,-19.415041,-1
670,671,1583586464498,0.6789,-4.5127997,-17.4009,8.862655,-6.198052,-18.739042,-1
671,672,1583586464508,-0.5087,-4.1339999999999995,-16.6659,7.3200226,-5.9809074,-17.000679,-1
672,673,1583586464518,-3.4729997999999997,-3.8439,-13.217,5.6641544999999995,-5.6641449999999995,-15.107528,-1
673,674,1583586464528,-4.6618,-3.4857,-11.844299000000001,4.5347137,-5.238092,-13.7653,-1
674,675,1583586464538,-4.6618,-3.4857,-11.844299000000001,3.8377807,-5.0964220000000005,-12.80442,-1
675,676,1583586464549,-5.5751,-3.1762,-10.8103,3.9134662000000002,-4.7988324,-13.136745000000001,-1
676,677,1583586464559,-5.0327997,-3.0758997999999997,-11.6672,4.5874343,-4.7394085,-13.809669,-1
677,678,1583586464570,-4.1163,-3.0063,-11.3489,5.5065584,-4.644368,-13.162861,-1
678,679,1583586464579,-3.6181,-3.0203998,-9.953,5.839439,-4.6854815,-11.631606,-1
679,680,1583586464589,-4.089299700000001,-3.3818,-8.215899,5.224761,-5.068535,-9.842984,-1
680,681,1583586464599,-4.8940997,-3.7352998,-6.2461,4.4776362999999995,-5.289193599999999,-7.7778993000000005,-1
681,682,1583586464609,-5.2974997,-3.8337998,-4.1047,4.1963363,-5.357141,-5.6993876,-1
682,683,1583586464620,-5.3013997,-3.9989998,-2.5644,4.2491330000000005,-5.473576,-4.161879,-1
683,684,1583586464630,-5.1816998,-3.9713998,-1.8232,4.526832,-5.2081933,-3.4554843999999996,-1
684,685,1583586464640,-4.8292,-3.4587998,-1.5523,4.8347644999999995,-4.603274,-3.139536,-1
685,686,1583586464650,-4.7507997,-2.9083997999999998,-1.1745,4.7087727,-4.270346,-2.5464728,-1
686,687,1583586464660,-5.0811996,-2.8269,-0.59099996,4.384837,-4.296471599999999,-1.7183568,-1
687,688,1583586464671,-5.3581,-2.9607,0.6513,4.176283,-4.498657,0.09968498,-1
688,689,1583586464681,-5.4537,-3.2805,3.2452,4.1847962999999995,-4.880886599999999,3.2420173,-1
689,690,1583586464691,-5.3992,-3.6165,6.7576,4.218794,-5.0756597999999995,6.829383999999999,-1
690,691,1583586464701,-5.4427,-3.5031,10.053699499999999,4.0873904,-4.805833,9.823036,-1
691,692,1583586464711,-5.6942,-2.9735,12.178499,3.8351662,-4.187018,11.347184,-1
692,693,1583586464721,-5.9073997,-2.1606998,12.478,3.659365,-3.3278828000000003,11.136103,-1
693,694,1583586464732,-6.0794,-1.0929999,11.5222,3.5064902,-2.312952,10.179313,-1
694,695,1583586464742,-6.0989,-0.0381,10.5511,3.6251662000000002,-1.3593701999999999,9.724079,-1
695,696,1583586464752,-5.7584995999999995,0.8641,10.7829,4.2562489999999995,-0.6202227,11.1778,-1
696,697,1583586464762,-5.117,1.4246,12.6615,4.907376,-0.33753455,13.874322,-1
697,698,1583586464772,-4.5087,1.7008,15.5806,5.219676,-0.5400649000000001,16.876870999999998,-1
698,699,1583586464782,-4.3665,1.3281,18.178998999999997,5.0598,-1.2785995,18.802135,-1
699,700,1583586464792,-4.6614,0.74869996,19.4669,4.669651,-1.746618,19.180332,-1
700,701,1583586464802,-5.0885,0.475,18.827799,4.363796,-2.0110433000000003,17.649117,-1
701,702,1583586464812,-5.0278,0.6185,17.035999999999998,4.7432485,-1.9020209,15.857669,-1
702,703,1583586464822,-4.4084997,0.9174,15.1923,5.500582700000001,-1.8351939999999998,14.446719,-1
703,704,1583586464832,-3.4857,1.1417999,14.0545,6.349911,-1.8135502000000001,13.940967,-1
704,705,1583586464843,-2.7122,1.3342,13.7406,6.7178617,-1.9005556000000001,14.0012245,-1
705,706,1583586464853,-2.5017998,1.4106,13.8196,6.6382113,-2.1731594,14.008904999999999,-1
706,707,1583586464863,-2.5804,1.2031,13.483398999999999,6.422762400000001,-2.6222062000000004,13.292953,-1
707,708,1583586464873,-2.9168,0.4994,12.144899,5.898748,-4.3053684,11.692112,-1
708,709,1583586464883,-3.0972998,-1.0013,10.924399000000001,6.075641,-5.9062176,10.612711000000001,-1
709,710,1583586464894,-2.4724,-2.1199,9.7987995,6.8816156,-6.829862599999999,9.64552,-1
710,711,1583586464904,-1.5219999999999998,-2.6518998,8.988999,7.607710000000001,-7.533796300000001,9.243439,-1
711,712,1583586464914,-0.8477,-3.125,8.724999,7.877316499999999,-8.234760000000001,9.183449000000001,-1
712,713,1583586464924,-0.57,-3.5842,8.5931,7.9802669999999996,-8.939729,8.972826,-1
713,714,1583586464934,-0.3559,-3.8941998,8.309,8.084501,-9.517017999999998,8.403753,-1
714,715,1583586464944,-0.0959,-4.3271,7.4964,8.090371000000001,-10.472516,6.5396279999999996,-1
715,716,1583586464954,0.034199997999999995,-5.0989,5.1809998,8.174035,-11.272955,4.0487294,-1
716,717,1583586464964,0.43649998,-5.9049997,1.8469,8.802224,-12.264154,1.0505757,-1
717,718,1583586464974,1.54,-6.6959,-0.9324,10.323549,-13.254138000000001,-1.7809603999999999,-1
718,719,1583586464984,2.9768999,-7.2106,-3.2263,11.06328,-13.654476999999998,-3.2274317999999997,-1
719,720,1583586464994,3.6790998,-7.3508,-4.4217,10.732018,-13.670720000000001,-2.522847,-1
720,721,1583586465004,3.2186,-7.2014,-3.2933998,9.208109,-13.935441,-0.5703755,-1
721,722,1583586465015,1.8391,-7.3914,-1.6593,7.3743134,-14.772703,-0.39628828,-1
722,723,1583586465025,-0.03,-8.2967,-2.0194,6.5448856,-15.870139000000002,-3.2571487,-1
723,724,1583586465035,-0.2488,-9.1862,-5.4807997,8.417007,-16.206026,-7.5233479999999995,-1
724,725,1583586465046,2.2416,-9.2501,-9.728499000000001,11.845868,-15.943191,-10.361778999999999,-1
725,726,1583586465056,5.848,-8.8224,-12.161799,14.765789000000002,-15.498126999999998,-11.055292999999999,-1
726,727,1583586465066,8.6075,-8.225699,-12.500199,15.882225,-14.858263,-10.458113,-1
727,728,1583586465076,9.34,-7.4628,-11.6609,13.870425,-13.893274,-8.675294000000001,-1
728,729,1583586465086,7.4466,-6.6039996,-10.0463,11.261797999999999,-13.330426999999998,-6.8381658,-1
729,730,1583586465096,4.1699,-5.8704,-7.6937,8.297757,-12.442781,-4.587635,-1
730,731,1583586465107,1.3851,-4.9707,-5.5299,6.3135769999999996,-11.349062,-3.2864919,-1
731,732,1583586465116,-0.1434,-4.0786,-4.6021,6.0858693,-10.615393,-3.7335756,-1
732,733,1583586465126,-0.3638,-3.3488,-5.0983996,6.779958000000001,-10.153675999999999,-5.05483,-1
733,734,1583586465136,0.3434,-2.8839998,-6.4972997,7.8405128,-9.962943,-6.1947193,-1
734,735,1583586465146,1.4315,-2.6771,-7.7065997,8.612767,-9.939002,-6.605324700000001,-1
735,736,1583586465156,2.233,-2.6359,-8.1732,8.642599,-10.056806,-5.283706,-1
736,737,1583586465167,2.2774,-2.7561998,-6.8856997,8.006412,-10.027549,-2.8355873,-1
737,738,1583586465177,1.6495999,-2.727,-4.4442997,7.045877000000001,-9.901413,-0.7282108,-1
738,739,1583586465187,0.6678,-2.5978,-2.3292,6.2089887,-9.66567,0.7390901,-1
739,740,1583586465197,-0.1803,-2.3861,-0.87289995,5.737082,-9.218874000000001,1.5922782,-1
740,741,1583586465207,-0.66249996,-1.9512999,-0.047199998,5.5711637000000005,-8.643652000000001,1.3645034,-1
741,742,1583586465217,-0.833,-1.3884,-0.33699998,5.5000563,-8.189702,0.78198457,-1
742,743,1583586465227,-0.8972,-0.95089996,-0.9888,5.5789113,-7.9384165,0.24034911,-1
743,744,1583586465237,-0.80899996,-0.7058,-1.6025,5.973083,-7.857616999999999,-0.71416163,-1
744,745,1583586465247,-0.40379998,-0.6332,-2.6104998999999998,6.607603999999999,-7.8904557,-1.1204481000000002,-1
745,746,1583586465257,0.59959996,-1.0349,-2.1812,7.005855599999999,-8.343046000000001,0.050910305,-1
746,747,1583586465267,0.5833,-1.3580999,-0.5895,6.9074154000000005,-8.572027,1.6523151000000003,d
747,748,1583586465278,0.5833,-1.3580999,-0.5895,6.554098599999999,-8.437109,2.6153299999999997,-1
748,749,1583586465288,-0.31,-0.8264,1.1624,5.999726,-7.9307837,3.0222871,-1
749,750,1583586465298,-0.63699996,-0.3999,0.7978,5.7588115,-7.499693400000001,2.6282206,-1
750,751,1583586465308,-0.6709999999999999,-0.059000000000000004,0.55149996,5.795654,-7.183611,2.4732293999999997,-1
751,752,1583586465318,-0.35209998,-0.0854,0.1374,6.1526575,-7.303196400000001,1.9687616000000001,-1
752,753,1583586465328,0.22899999,-0.38169998,-0.76299995,6.7675276,-7.5968304,1.0912006,-1
753,754,1583586465338,0.22899999,-0.38169998,-0.76299995,7.286973,-7.7509312999999995,0.33493924,-1
754,755,1583586465348,1.3462,-0.7065,-2.2673,7.7728333,-7.910586,-0.15256812,-1
755,756,1583586465358,1.3787999,-0.9169,-1.6151999,7.721444,-8.120529,0.7122175000000001,-1
756,757,1583586465368,1.0644,-1.1227,-0.31129998,7.40992,-8.306866000000001,2.0053066999999998,-1
757,758,1583586465378,1.0644,-1.1227,-0.31129998,7.09289,-8.248379,2.9516964,-1
758,759,1583586465389,0.4772,-0.98249996,1.127,6.9032307,-8.005425,3.1072714,-1
759,760,1583586465399,0.29549998,-0.73219997,0.9833,6.7426276,-7.736307000000001,2.963581,-1
760,761,1583586465409,0.16129999,-0.5703,0.8822,6.665744999999999,-7.640788000000001,2.8836725,-1
761,762,1583586465419,0.3205,-0.72959995,0.48749998,6.934365,-7.8347855,2.4252784,-1
762,763,1583586465429,0.96809995,-1.0717,-0.57519996,7.662814999999999,-8.186933999999999,1.3309941,-1
763,764,1583586465440,1.9133999,-1.5967,-1.9691999,8.617258999999999,-8.74873,-0.03959052,-1
764,765,1583586465450,2.9643,-2.4047,-3.2817,9.944499,-9.727775999999999,-1.492009,-1
765,766,1583586465460,4.2159,-3.1534,-4.1258,11.000533,-10.239914,-1.8482854,-1
766,767,1583586465470,5.4974,-3.7366,-3.5935998,12.403784,-11.002583,-0.84200245,-1
767,768,1583586465480,6.1401,-4.5231,-2.286,12.738292999999999,-11.804314999999999,0.6390507,-1
768,769,1583586465490,6.0761,-5.282,-0.6691,12.553479,-12.449332,2.172173,-1
769,770,1583586465501,5.7311,-5.9157996,0.27339998,12.284371,-12.933563000000001,2.5056279,-1
770,771,1583586465511,5.7332997,-6.2534,-0.5323,12.638838,-13.125339000000002,1.2240309,-1
771,772,1583586465521,6.557699700000001,-6.4062,-2.0976999,13.818527,-13.186898999999999,-0.07596324,-1
772,773,1583586465531,8.05,-6.4774,-2.8892,15.399802,-13.263264999999999,-0.47944367,-1
773,774,1583586465541,9.3993,-6.7945,-3.1181997999999997,16.515959,-13.617454,-0.7614615,-1
774,775,1583586465552,9.932099000000001,-7.3278,-3.5602998999999995,16.773623,-14.215152,-1.3673095,-1
775,776,1583586465562,9.7316,-7.8877997,-3.8095999,16.506987,-14.609869,-1.20323,-1
776,777,1583586465572,9.3238,-8.1929,-3.0339,16.237103,-14.506286,-7.661445e-05,-1
777,778,1583586465582,8.817699000000001,-8.0486,-1.3641,15.725394,-13.973643,1.7019231,-1
778,779,1583586465592,7.9765997,-7.5435996,0.44219998,14.829982999999999,-13.172054000000001,2.8326185,-1
779,780,1583586465603,6.7117,-6.8381996,1.42,13.521369,-12.266702,3.272414,-1
780,781,1583586465613,5.1310997,-6.1341,1.8395,12.076947,-11.451428,3.2283032000000005,-1
781,782,1583586465623,3.5830998,-5.5641,1.8212,11.031217999999999,-10.6582575,2.9502025,-1
782,783,1583586465633,2.7208,-5.0116,1.7317,10.84878,-9.976888,2.6043265,-1
783,784,1583586465643,2.5862,-4.6672997,1.5356,11.033727,-9.433969,2.4366653,-1
784,785,1583586465654,2.5892,-4.2678,1.7084,10.970203,-8.701639,2.646311,-1
785,786,1583586465664,2.1966,-3.79,2.2754,10.501036000000001,-8.025307000000002,3.3801532,-1
786,787,1583586465674,1.6327,-3.4742,3.1622999,10.103024000000001,-7.354939999999999,3.9034967000000003,-1
787,788,1583586465684,0.90809995,-2.7937999,3.9801998,9.101318,-6.1225004,4.520137999999999,-1
788,789,1583586465694,-0.1424,-2.1717,4.72,8.073641,-5.7763944,5.170336,-1
789,790,1583586465704,-1.3303,-2.1933,5.6008,6.790483,-5.5354137,5.556826999999999,-1
790,791,1583586465715,-2.7519,-2.2474,6.1056,5.5154457,-5.0371037,5.799704599999999,-1
791,792,1583586465724,-4.0524,-2.0426,6.5428,4.6001806,-4.5178103,5.804828,-1
792,793,1583586465734,-4.976,-1.8234999,6.5189,4.0352354,-3.9457497999999998,4.4104066,-1
793,794,1583586465744,-5.5239,-1.5812,4.9052997000000005,3.9631126000000005,-3.5535316,2.363872,-1
794,795,1583586465754,-5.5021996,-1.3913,2.3195999,4.480385,-3.1111214,-0.54441273,-1
795,796,1583586465764,-4.9807,-1.3669,0.18609999,5.2425165,-2.8603432,-1.7491846000000002,-1
796,797,1583586465774,-4.2618,-1.4094,-0.5951,5.736814,-2.6714597,-1.44288,-1
797,798,1583586465785,-3.8641,-1.4908999,-0.0164,5.8820367,-2.25552,-0.47726974,-1
798,799,1583586465795,-3.8369999999999997,-1.2974,1.2057999,5.3349805,-1.5024191,1.0391219,-1
799,800,1583586465805,-4.5534,-0.83269995,2.9062997999999998,4.041336,-0.52577627,2.9474251000000002,-1
800,801,1583586465815,-5.9656997,-0.1792,5.0411,2.0130162,0.4782657,5.304076,-1
801,802,1583586465827,-8.156,0.41509998,7.547000000000001,-1.2555288999999998,1.1990450000000001,8.269362,-1
802,803,1583586465838,-10.8742,0.66359997,10.0385,-3.5063275999999997,1.258153,9.394991000000001,-1
803,804,1583586465848,-13.2104,0.070099995,10.3574,-3.2757563999999997,1.007662,8.434313000000001,-1
804,805,1583586465858,-10.618,-0.0569,8.8215,-0.32289162,1.0008816999999999,6.876798,-1
805,806,1583586465868,-7.1997,-0.0976,6.6059,3.0974457,0.92014915,4.5587800000000005,-1
806,807,1583586465878,-4.1363,-0.3261,3.5658,6.062349,0.68920445,1.4543052,-1
807,808,1583586465889,-4.1363,-0.3261,3.5658,7.9802284,1.2656708,-2.0484502,-1
808,809,1583586465899,-1.1834999,1.1011,-2.6771998,8.471509,2.4742925,-4.449585400000001,-1
809,810,1583586465909,-1.6031,1.8985,-3.4450998,7.564825,2.9388058,-4.4335637000000006,-1
810,811,1583586465920,-3.2517998,1.7021998999999999,-2.7698998,5.622600599999999,2.5930545,-3.3838593999999995,-1
811,812,1583586465930,-5.2567,1.2322,-1.3781999,3.7758381,2.2866828,-1.8130043999999998,-1
812,813,1583586465941,-6.6291,0.8185,0.2504,2.7942824,1.9047598999999997,-0.14401603,-1
813,814,1583586465951,-6.8234,0.24769999,1.8768,3.1646175,1.3343173000000002,1.4255171999999998,-1
814,815,1583586465961,-5.5982,-0.3308,3.2412,4.8491397,1.0351092,2.5465686,-1
815,816,1583586465971,-3.5335998999999996,-0.2729,3.9273,6.809981,1.2488059999999999,2.8234534,-1
816,817,1583586465981,-2.1296,0.1112,3.7454998,7.832085,1.8287966,2.3669076000000002,-1
817,818,1583586465992,-1.8546,0.57229996,3.1281998,7.428528,2.1417954,1.1905216,-1
818,819,1583586466002,-2.62,0.74579996,1.5188,6.3815145,2.2043605,-0.6893673,-1
819,820,1583586466012,-3.6018999,0.74329996,-0.4012,5.784171,2.2276130000000003,-2.6910157000000003,-1
820,821,1583586466022,-3.8688,0.7405,-2.4452,6.1260247,2.086681,-4.4331325999999995,-1
821,822,1583586466032,-3.1367,0.4854,-3.7977,7.294442699999999,1.6538476000000002,-4.918696,-1
822,823,1583586466042,-1.7767998999999999,0.0997,-3.668,8.724289,1.3879857,-3.8753028,-1
823,824,1583586466053,-0.46409997,-0.1051,-2.2244,9.6527605,1.2331671999999998,-2.2560945,-1
824,825,1583586466063,0.1063,-0.2069,-0.63449997,9.6138115,1.1936723999999999,-0.73566157,-1
825,826,1583586466073,-0.31939998,-0.2694,0.91639996,8.782794,1.166752,0.65196025,-1
826,827,1583586466083,-1.3015,-0.31579998,1.9526,7.4387465,1.0903578,0.89537394,-1
827,828,1583586466093,-2.3913999,-0.461,1.8985,6.566127000000001,0.85021937,0.36145744,-1
828,829,1583586466103,-3.1485999,-0.7263,1.3168,6.392384,0.75991005,-0.27729645,-1
829,830,1583586466114,-3.0784,-0.77669996,0.47509998,7.382607000000001,0.8809034,-1.4141496,-1
830,831,1583586466124,-1.9643999,-0.61259997,-0.46379998,8.900644999999999,0.9622584000000001,-2.2764165000000003,-1
831,832,1583586466134,-0.44309998,-0.5051,-1.3159,10.383098,0.8878753,-2.9544737000000003,-1
832,833,1583586466144,1.0083,-0.57809997,-1.9375,11.531032000000002,0.6624469,-3.1928213,-1
833,834,1583586466154,1.9516,-0.73069996,-2.0795,11.992374,0.5386858,-2.9529126,d
834,835,1583586466164,2.3983998,-0.83739996,-1.6509,11.732632,0.48227840000000005,-2.1888175,-1
835,836,1583586466175,1.9178,-0.8936,-0.9841,10.715939500000001,0.48491204,-1.7481407,-1
836,837,1583586466185,0.8426,-0.8859999999999999,-0.6202,9.612299,0.6788615,-1.298232,-1
837,838,1583586466195,-0.2505,-0.7143,-0.0925,8.751975999999999,0.92993665,-0.38763082,-1
838,839,1583586466205,-0.98069996,-0.5029,0.84669995,8.541266,1.3258322,0.3415281,-1
839,840,1583586466215,-1.0846,-0.0835,1.3973,8.748768,1.813129,0.2654212,-1
840,841,1583586466225,-0.81839997,0.355,1.1962,9.163491,1.9926941000000002,-0.26319936,-1
841,842,1583586466235,-0.38799998,0.4592,0.6064,9.752915,1.8056974,-1.2054998,-1
842,843,1583586466245,0.2365,0.20439999,-0.3832,10.612424,1.3085175,-2.3360896,-1
843,844,1583586466256,0.9683,-0.1732,-1.3047,11.150333999999999,1.1030086000000001,-2.8644323,-1
844,845,1583586466266,1.5929999,-0.3811,-1.9154999,11.499092,1.0648739,-2.8832796000000003,-1
845,846,1583586466276,1.8373,-0.3902,-1.8637999,11.108692999999999,1.1898799,-2.1847951,-1
846,847,1583586466286,1.4475,-0.2848,-1.176,10.413657,1.3532985,-1.0603153,-1
847,848,1583586466297,0.5537,-0.120299995,0.28419998,8.833302,1.8719880000000002,1.0430005,-1
848,849,1583586466307,-0.8045,0.2974,2.0153,7.2721577,2.1508646000000002,2.2038147,-1
849,850,1583586466317,-2.3555999,0.5179,3.1745,6.178228,2.3943455,2.6005533,-1
850,851,1583586466328,-3.9067998,0.89699996,3.5679,5.7350900000000005,2.6049106,2.5949986000000003,-1
851,852,1583586466338,-3.9067998,0.89699996,3.5679,6.072998,2.628278,2.4985888,-1
852,853,1583586466348,-2.8172,0.8573,3.6806,6.948739,2.4486362999999995,2.8288738999999996,-1
853,854,1583586466359,-2.4603999,0.6766,4.4927998,7.148463700000001,2.255204,3.776068,-1
854,855,1583586466369,-3.0426998,0.7475,5.914,6.361575599999999,2.3820584,5.3039804,-1
855,856,1583586466379,-4.5345,1.1372,7.7278,4.7429037,2.8093371,7.131082000000001,-1
856,857,1583586466390,-6.4561,1.8024,9.3877,2.3416154,3.8041089,9.014054,-1
857,858,1583586466400,-8.6824,2.9527,10.8027,0.0127658835,4.923092,10.354797999999999,-1
858,859,1583586466410,-11.107699,3.6713,11.768599499999999,-2.3836383999999997,5.143061599999999,10.878851,-1
859,860,1583586466421,-12.8701,3.115,11.9508,-3.37004,4.035293,11.054077000000001,-1
860,861,1583586466431,-12.4979,1.6067,12.3329,-2.0758207,2.2252765,11.340855,-1
861,862,1583586466442,-10.1452,0.0512,12.2379,0.10405201,0.9962848,10.902266000000001,-1
862,863,1583586466452,-7.0934,-0.5194,11.0447,3.6608589,0.36986583,8.962742,-1
863,864,1583586466463,-4.8022,-0.19849999,9.097199,5.376793,0.83391964,6.4771295,-1
864,865,1583586466473,-4.37,0.5671,7.3718996,4.868925,1.2542839,5.142180000000001,-1
865,866,1583586466483,-5.1892,0.99509996,6.3433,3.9125566,1.1070597,4.0644546,-1
866,867,1583586466493,-6.0241,0.8181,5.2155,3.5422214999999997,0.045480255,2.6033974,-1
867,868,1583586466504,-6.0586,-0.022499999,4.1308,4.200215,-1.507332,1.783891,-1
868,869,1583586466514,-5.1586,-1.4857999,3.4824,5.941259400000001,-3.774593,0.8316786,-1
869,870,1583586466524,-3.1717,-3.593,2.5558999,8.483385,-6.13315,-0.6871838,-1
870,871,1583586466534,-0.5308,-5.5729999999999995,1.1322,10.118911,-7.290373,-2.0520031000000003,-1
871,872,1583586466544,1.3749,-6.4848,-0.6354,11.647121,-8.336007,-5.348388,-1
872,873,1583586466554,2.3593,-6.9508996,-3.6007,11.882203,-9.082586000000001,-9.30359,-1
873,874,1583586466564,2.5789999999999997,-7.4515,-7.561,12.12078,-9.892832,-13.089953,-1
874,875,1583586466575,2.9554,-8.0358,-11.241899499999999,13.002957,-10.712261999999999,-16.144888,-1
875,876,1583586466585,4.0826,-8.5372,-14.0387,14.320955999999999,-10.933860000000001,-17.344212,-1
876,877,1583586466595,5.8478,-8.4324,-14.9914,15.986218,-10.768382,-17.233185,-1
877,878,1583586466605,7.0228,-8.0676,-14.6094,16.163801,-10.6614,-16.433704000000002,-1
878,879,1583586466615,6.9656,-7.884299799999999,-13.7246,15.223521,-10.962657,-15.524932999999999,-1
879,880,1583586466626,5.8785996,-8.2072,-12.9577,13.562214,-11.693913,-15.692517,-1
880,881,1583586466636,4.172,-8.8905,-13.3603,12.194685,-12.149308999999999,-16.60126,-1
881,882,1583586466646,2.623,-9.2668,-14.6105995,10.932567,-12.071986,-17.962670000000003,-1
882,883,1583586466656,1.7874999,-8.987599000000001,-15.6549,10.14431,-11.431308,-18.817965,-1
883,884,1583586466666,1.1154,-8.4397,-16.3876,9.685522,-10.857178,-18.635786,-1
884,885,1583586466676,0.5291,-7.6794,-16.172499,9.221603,-9.869043,-17.787836,-1
885,886,1583586466687,0.0144,-6.7093997000000005,-15.3707,8.589419,-9.029694000000001,-16.427069,-1
886,887,1583586466697,-0.5414,-6.0895996,-14.3157,8.061191,-8.598086,-14.804681,-1
887,888,1583586466707,-1.107,-5.7089,-12.776099,7.322187,-8.117033000000001,-13.002996000000001,-1
888,889,1583586466718,-1.8769,-5.2971997,-11.0569,6.237116,-7.778129600000001,-11.681704,-1
889,890,1583586466728,-4.1121,-5.0083,-9.1867,4.9718084000000005,-7.709282000000001,-10.843014,-1
890,891,1583586466738,-4.1121,-5.0083,-9.1867,4.5621222999999995,-7.642713499999999,-10.474776,-1
891,892,1583586466748,-4.691,-4.8068,-8.3875,4.727428,-7.399903,-9.798625,-1
892,893,1583586466758,-4.691,-4.8068,-8.3875,5.328812999999999,-7.2280664,-8.734019,-1
893,894,1583586466769,-3.6464,-4.582,-6.1791,5.830388500000001,-7.2186136,-7.174589,-1
894,895,1583586466779,-3.2010999,-4.696000000000001,-5.1966,6.251012,-7.3294559999999995,-6.271879,-1
895,896,1583586466789,-2.9002,-4.7125998,-4.6312,6.5628424,-7.278287,-5.5074396,-1
896,897,1583586466799,-2.7342,-4.4846,-3.2457,6.681594400000001,-7.066381,-3.9118958,-1
897,898,1583586466809,-2.929,-4.4697,-1.4024999,6.3992987,-7.0806026,-1.9161563000000001,-1
898,899,1583586466819,-3.4354,-4.3592997,0.7509,5.8614654999999996,-6.83943,0.63838995,-1
899,900,1583586466830,-3.7117998999999995,-4.1052,2.4168,5.6871195,-6.698516400000001,1.9205136000000003,-1
900,901,1583586466840,-3.6776998,-3.9059,3.5425,5.906994,-6.581057,3.2638907,-1
901,902,1583586466850,-3.0274,-3.9355998,4.4946,6.598122999999999,-6.738749,4.1115627,-1
902,903,1583586466861,-1.6036999,-4.2261,5.4456,8.563417999999999,-7.2530613,5.510552400000001,-1
903,904,1583586466871,0.45409998,-4.6489997,7.1333,10.547454,-7.8009315,7.7825727,-1
904,905,1583586466881,2.1515,-4.9453,9.8684,11.932845,-7.9681809999999995,10.780439,-1
905,906,1583586466891,2.983,-4.7662997,12.643399,12.328510000000001,-7.815689599999999,13.297645999999999,-1
906,907,1583586466901,2.9756,-4.3724,14.401,12.204357,-7.2616806,14.652246,-1
907,908,1583586466911,2.8655,-3.3486998,14.8271,12.11196,-6.2093906,14.758022,-1
908,909,1583586466922,2.9505,-2.0677,14.514899,12.386402,-4.847023,14.532747,-1
909,910,1583586466932,3.6741998,-0.945,14.320499,13.495416,-4.061380000000001,14.749652,-1
910,911,1583586466942,5.3798,-0.5767,15.0406,15.658586499999998,-4.1708426,15.834407,-1
911,912,1583586466952,7.0537,-1.0471,15.600598999999999,16.87513,-5.1411552,15.927695000000002,-1
912,913,1583586466962,7.906399700000001,-2.1527998,15.4275,17.298223,-6.141414599999999,15.484672,-1
913,914,1583586466972,8.1904,-2.8318,14.7682,17.52141,-6.165615,14.553002,-1
914,915,1583586466983,8.406899000000001,-2.4565,13.610399,17.66871,-5.2516623,13.261358,-1
915,916,1583586466993,8.4192,-1.4677,12.3608,17.458826000000002,-4.2496314,12.371951,-1
916,917,1583586467003,8.012,-0.68729997,11.6749,16.823107,-3.7420511,11.81935,-1
917,918,1583586467013,7.2349997,-0.5335,10.953099,16.02441,-3.8810010000000004,10.618601,-1
918,919,1583586467023,6.5025997,-0.9701,9.4754,15.658491,-4.4298573,8.687408999999999,-1
919,920,1583586467034,6.3866,-1.6468999,7.2985997000000005,16.048698,-4.858017,6.262455999999999,-1
920,921,1583586467044,6.9178,-1.9842999,5.0992,16.517473000000003,-4.7741337,4.528201599999999,-1
921,922,1583586467054,7.1138997,-1.9405999,3.7916,16.328495,-4.5980644,3.38113,-1
922,923,1583586467064,6.7679996,-1.9641,3.1029,15.793265,-4.4996147,3.4643428,-1
923,924,1583586467074,5.9589996,-1.9384999,3.6281998,14.721773,-4.255818,4.041269000000001,-1
924,925,1583586467085,5.0133,-1.9545,3.9605,14.0013685,-4.1934924,3.4371638,-1
925,926,1583586467095,4.3058,-2.0928,3.1952,13.460298000000002,-4.29537,2.0573661,-1
926,927,1583586467105,3.7424,-2.4717999,1.8230000000000002,13.036016,-4.5480160000000005,0.6420195,-1
927,928,1583586467115,3.3242,-2.8188,0.53,12.89766,-4.429426,-0.23931482,-1
928,929,1583586467125,3.2066998,-2.7615,-0.13509999,12.773842,-3.85681,-0.40697598,-1
929,930,1583586467136,2.965,-2.3480000000000003,-0.0299,12.097824000000001,-3.3335141999999998,0.3600592,-1
930,931,1583586467146,2.1682,-2.0646,0.98429996,10.982557,-2.9286451000000002,1.7655897,-1
931,932,1583586467156,0.9553,-1.8821,2.6141,9.610478,-2.6774166,2.9269116000000004,-1
932,933,1583586467166,-0.3881,-1.8812,3.6455,8.541583000000001,-2.707143,2.5651572,-1
933,934,1583586467176,-1.411,-2.2075999,3.1387,7.6800429999999995,-2.9302827999999996,0.8534275,-1
934,935,1583586467186,-2.0865,-2.5565999,1.7796999,7.4295907,-2.905182,-0.3863284,-1
935,936,1583586467196,-2.3679,-2.6715999,0.3575,7.346234299999999,-2.424905,-1.6180781000000002,-1
936,937,1583586467207,-2.3932,-2.2245998,-0.6967,7.2443466,-1.2758604,-2.0817487,-1
937,938,1583586467217,-2.5049,-1.4016,-0.9554,6.480491000000001,-0.37348590000000004,-1.8660887,-1
938,939,1583586467227,-3.2595,-0.6624,-0.68259996,5.20601,-0.22079328,-1.9818148999999998,-1
939,940,1583586467238,-4.5179,-0.6859,-0.72249997,4.4223300000000005,-0.56931245,-2.2385116000000003,-1
940,941,1583586467248,-5.4445,-1.5517,-1.0739,4.190179,-0.7577361,-2.6021428,-1
941,942,1583586467258,-5.6851,-1.7042999,-1.3275,3.8749006,-0.7068545999999999,-3.0787039000000003,-1
942,943,1583586467268,-5.6851,-1.7042999,-1.3275,3.4422300000000003,-0.41231027,-3.5669966,-1
943,944,1583586467278,-6.9628997,-1.3452,-1.5970999,2.4066514999999997,0.026958711,-3.265126,-1
944,945,1583586467289,-8.0793,-1.0318999,-0.784,1.1656218999999999,0.5952177,-2.4867806,-1
945,946,1583586467298,-9.3021,-0.6393,0.17359999,-0.28081113,1.2145211999999999,-1.42229,-1
946,947,1583586467308,-10.6814995,-0.2748,1.4965,-1.6814287,1.7061368000000001,-0.15947299,-1
947,948,1583586467318,-11.8677,0.0053,2.3230999,-2.661682,2.0628633,0.2984995,-1
948,949,1583586467328,-12.3741,0.3111,1.8687999,-3.0445724,2.4570925,-0.49257349999999994,-1
949,950,1583586467338,-12.1135,0.5379,0.2853,-2.6567402,2.7096617000000003,-2.212884,-1
950,951,1583586467348,-12.1135,0.5379,0.2853,-1.7931901000000001,2.8408446,-3.4620924,-1
951,952,1583586467358,-10.4881,0.7496,-1.8762,-1.0872643999999998,3.0014765,-4.265443,-1
952,953,1583586467368,-10.179,0.94949996,-2.419,-0.95710605,3.2267517999999997,-4.7747470000000005,-1
953,954,1583586467379,-10.179,0.94949996,-2.419,-1.3432143,3.498417,-4.8140116,-1
954,955,1583586467389,-11.5275,1.6554999,-2.0159,-2.5309775,3.9889219,-4.230583,-1
955,956,1583586467399,-12.7372,1.8585999,-1.1007,-3.9504998,4.103068,-2.9853012999999997,-1
956,957,1583586467409,-13.7982,1.7393999,0.1548,-4.755803599999999,3.9462094,-1.9049515,-1
957,958,1583586467420,-14.664499,1.4197999,1.3112999,-5.5017414,3.539042,-0.8618072,-1
958,959,1583586467430,-14.6797,0.92109996,1.786,-5.0510855,2.7529585,-0.66215,-1
959,960,1583586467440,-13.578798999999998,0.2383,1.1559,-3.6074107000000004,1.8863436000000002,-1.5835825000000001,-1
960,961,1583586467450,-11.9361,-0.3362,0.105799995,-1.9324846999999998,1.3247501,-2.5526214,-1
961,962,1583586467460,-10.5102,-0.3821,-0.696,-0.7155694,1.1514865,-2.9329544999999997,-1
962,963,1583586467470,-9.8848,-0.40809998,-0.305,-0.5327195,0.9479601999999999,-2.0588889999999997,-1
963,964,1583586467480,-10.488,-0.4626,0.80759996,-1.4122151,0.5307275,-0.9811917,-1
964,965,1583586467490,-11.4674,-0.89419997,1.6338999,-2.2366152,-0.03203442,-0.22054428,-1
965,966,1583586467500,-12.0595,-1.0216,2.3019,-2.6335645,-0.3019567,0.5260923000000001,-1
966,967,1583586467510,-12.1875,-1.1733,3.1397,-2.5911965,-0.8187883,1.4785919,-1
967,968,1583586467520,-12.087999,-1.6243,4.2242,-2.4839747,-1.575988,2.5499876,-1
968,969,1583586467531,-11.9071,-2.2236,5.0367,-2.1867201,-2.6497493,3.1848054,-1
969,970,1583586467541,-11.455999,-3.1639,5.1393,-1.5005995,-3.9963536,3.130773,-1
970,971,1583586467551,-10.3001995,-4.2142,5.1036997,-0.061732100000000005,-5.325088,3.3354774,-1
971,972,1583586467561,-8.6407995,-4.745199700000001,5.0596,1.6618538,-5.949993599999999,3.129892,-1
972,973,1583586467572,-6.9933996,-4.4937997,4.3963,3.1204207000000004,-5.8993797,2.5805185,-1
973,974,1583586467582,-5.8043,-3.9577,3.7789998,4.050788,-6.0277185,2.2745109,-1
974,975,1583586467592,-5.3356,-3.8995,3.7865998999999997,3.9935093,-6.7088213,3.2194254,-1
975,976,1583586467602,-5.5471,-4.4592,5.2042,3.4329214,-8.197161999999999,5.3597269999999995,-1
976,977,1583586467613,-5.9681,-5.8856997,7.369,3.193731,-10.660260000000001,7.0204987999999995,-1
977,978,1583586467622,-5.5780997,-8.0433,8.0264,4.101191,-12.58695,6.598707000000001,-1
978,979,1583586467632,-3.2812,-9.5258,6.2379,6.916417999999999,-14.192645,4.410876,-1
979,980,1583586467642,0.5014,-10.324599000000001,3.3127,11.343354,-15.678151999999999,0.96639556,-1
980,981,1583586467652,4.3068,-10.8981,0.31759998,14.232332000000001,-16.348125,-1.0130154,-1
981,982,1583586467663,6.8659,-10.8552,-1.1970999,15.400854999999998,-16.686188,-1.0319583,-1
982,983,1583586467672,7.598799700000001,-10.7877,-0.649,14.828201000000002,-17.006878,0.5478795,-1
983,984,1583586467683,6.6835,-10.773,1.2028999,12.823833,-17.480047,3.3375937999999996,-1
984,985,1583586467693,4.803999999999999,-11.075399,3.8495998,11.021056,-18.06452,5.72241,-1
985,986,1583586467703,3.8049,-11.2167,5.1798997,10.670555,-18.205671,5.4818506,-1
986,987,1583586467713,4.4641,-11.0057,3.5447,11.795446,-18.244192,3.4945671999999997,-1
987,988,1583586467723,7.1797,-10.8559,0.3083,15.220275,-18.448578,-0.21138886,-1
988,989,1583586467733,10.337,-10.9353,-2.5170999,17.50735,-18.84999,-1.4562492,-1
989,990,1583586467744,12.4246,-10.9979,-2.8544,18.406786,-18.84821,-0.5536255999999999,-1
990,991,1583586467754,12.9606,-10.698899,-1.6935999,17.663002,-18.59768,1.0640598999999997,-1
991,992,1583586467764,11.8463,-10.3954,-0.0651,15.305307,-18.719967,2.8607549999999997,-1
992,993,1583586467774,10.000199,-10.465899,1.1412,13.621035999999998,-18.880636,3.4826536,-1
993,994,1583586467784,8.684,-10.5491,1.5432999,13.068645,-18.815388000000002,3.5475557,-1
994,995,1583586467794,8.5556,-10.255199000000001,1.3880000000000001,13.440665,-18.080551,2.6870797000000004,-1
995,996,1583586467805,9.1535,-9.4141,0.0999,13.934991,-17.101753,0.76759064,-1
996,997,1583586467815,9.7915,-8.2901,-1.9117,14.235003,-15.639347,-0.31820855,-1
997,998,1583586467825,10.113299000000001,-6.7623997000000005,-2.7659,13.779722,-14.462999,-0.15428236,-1
998,999,1583586467835,9.5144,-5.6919,-2.4238,12.336363,-13.764610000000001,0.9671617,-1
999,1000,1583586467846,7.9687,-4.9908,-1.1525999,10.460286,-13.141897,2.4679048,-1
1000,1001,1583586467856,6.1362996,-4.3752,0.3558,8.916725,-12.533713,3.5875199999999996,-1
1001,1002,1583586467866,4.7104,-3.7372,1.3087,7.8284270000000005,-11.640494,3.5739207000000004,-1
1002,1003,1583586467877,3.8862,-2.9687,1.1820998999999999,7.480693,-10.963719000000001,2.8025568,-1
1003,1004,1583586467886,3.5658998,-2.2939,0.3637,7.303072,-10.543011,1.6718231,-1
1004,1005,1583586467896,3.4011998,-1.7793,-1.1697,7.358282000000001,-10.16013,-0.06287174,-1
1005,1006,1583586467906,3.4833998999999998,-1.5004,-2.5728,7.403063,-9.902409,-0.070456564,-1
1006,1007,1583586467916,3.5180000000000002,-1.2379,-2.5832999,7.048118,-9.741777,1.1199405,-1
1007,1008,1583586467926,3.1286,-1.0896,-1.3707,6.3642287,-9.593222,2.4433882000000002,-1
1008,1009,1583586467936,2.4076998,-0.932,0.036599997,5.6445794000000005,-9.406522,3.4691982000000006,-1
1009,1010,1583586467946,1.4521998999999999,-0.71,1.329,4.804713,-9.157094,4.1213403,-1
1010,1011,1583586467956,0.62729996,-0.43449998,1.854,4.301432,-8.900215,3.6410443999999997,d
1011,1012,1583586467966,0.2069,-0.27109998,1.3819,4.3692839999999995,-8.490625,2.9094915,-1
1012,1013,1583586467976,0.25,0.1252,0.6238,4.6163945,-8.099469000000001,1.7121031999999998,-1
1013,1014,1583586467986,0.4779,0.502,-0.59959996,4.803774400000001,-8.450249000000001,0.40679404,-1
1014,1015,1583586467997,0.6504,0.1352,-1.9203,5.0701336999999995,-8.903261,0.57259727,-1
1015,1016,1583586468007,0.89669997,-0.32529998,-1.7655,5.421574,-9.181859,1.9183302,-1
1016,1017,1583586468017,1.2317,-0.89629996,0.6358,5.4782305000000004,-9.465428,2.8733866000000003,-1
1017,1018,1583586468027,1.2317,-0.89629996,0.6358,5.1188703,-9.584171000000001,3.4875089999999997,-1
1018,1019,1583586468037,0.81159997,-1.0266,1.3159,4.365530000000001,-9.657931,3.747213,-1
1019,1020,1583586468047,-0.0055,-1.1244,1.6189,3.9427809999999996,-9.872356,3.4067383,-1
1020,1021,1583586468057,-0.4298,-1.2896999,0.87259996,4.1573687,-9.698078,2.8483624,-1
1021,1022,1583586468068,0.1064,-1.0174999,0.3335,4.8420815,-9.401351,2.2375442999999997,-1
1022,1023,1583586468078,0.1064,-1.0174999,0.3335,5.360991,-9.390155,1.5451316000000002,-1
1023,1024,1583586468088,1.505,-1.2897999,-1.2401,6.1804976,-9.814263,0.9266996999999999,-1
1024,1025,1583586468099,1.505,-1.2897999,-1.2401,6.7772380000000005,-10.478061,1.5121204,-1
1025,1026,1583586468109,2.4965,-2.5995,0.2307,7.181753,-11.131879,2.6088178,-1
1026,1027,1583586468119,2.6023,-3.388,1.6613,7.3235946,-11.930517,4.0671263,-1
1027,1028,1583586468129,2.8941998,-4.2515,2.7461998,7.747062,-12.722836000000001,4.9370837,-1
1028,1029,1583586468139,3.5325,-4.8959,2.5841,8.49231,-13.315304999999999,4.5322523,-1
1029,1030,1583586468150,4.5046,-5.4584,0.7417,9.940438,-13.859860999999999,1.9811923999999999,-1
1030,1031,1583586468160,6.1183996,-5.7296,-1.5759,11.34751,-13.945870000000001,0.35398751,-1
1031,1032,1583586468170,7.6942,-5.8915997,-2.4336998,13.221691,-14.182714,0.030760704,-1
1032,1033,1583586468180,8.9071,-6.2402,-1.5069,14.160639999999999,-14.453949,1.0147585,-1
1033,1034,1583586468190,9.535999,-6.7709,0.4193,14.814994,-14.977129999999999,2.8949822999999997,-1
1034,1035,1583586468200,9.697000000000001,-7.7352996,2.289,15.124545999999999,-16.230122,4.855671,-1
1035,1036,1583586468211,9.8747,-8.7373,3.4438998999999995,15.517980999999999,-16.712341000000002,5.1110077,-1
1036,1037,1583586468221,10.0777,-8.7716,2.2712,15.799366000000001,-16.559283999999998,3.1355138,-1
1037,1038,1583586468231,9.8901,-8.840899,0.0629,15.593264000000001,-16.502907,0.9912281999999999,-1
1038,1039,1583586468241,9.3594,-8.8048,-1.9472,15.261427,-16.212135,-1.1094443999999999,-1
1039,1040,1583586468251,8.8389,-8.533299000000001,-3.7245,15.034744,-15.666564000000001,-2.486503,-1
1040,1041,1583586468262,8.396999000000001,-8.055099499999999,-3.9009998,14.810541,-14.936782999999998,-2.1336265,-1
1041,1042,1583586468272,7.7532997,-7.4898,-2.6213,14.246908,-14.163445999999999,-0.5968266,-1
1042,1043,1583586468282,6.5397,-6.9020996,-0.5873,12.645408,-13.157546,1.2873813,-1
1043,1044,1583586468293,4.5676,-6.3339996,0.86319995,10.582046,-12.202478999999999,2.1734562000000004,-1
1044,1045,1583586468302,2.0495,-5.5492,1.7459999,8.256269999999999,-11.00648,2.4965587000000005,-1
1045,1046,1583586468312,-0.3956,-4.6554,2.168,6.5872345,-9.774519999999999,2.6778378,-1
1046,1047,1583586468322,-1.8749,-3.6673,2.6327999,6.007310400000001,-8.389847999999999,3.0886447,-1
1047,1048,1583586468332,-2.3035997999999998,-2.4917,3.2633,6.034987999999999,-7.050388000000001,3.3507714,-1
1048,1049,1583586468342,-2.4092,-1.114,3.4808998,5.9790206,-5.420740599999999,3.0837605,-1
1049,1050,1583586468353,-2.7171,-0.4874,3.2986,5.760276999999999,-4.942273999999999,2.897798,-1
1050,1051,1583586468363,-3.1023998,-0.4441,3.3379,5.503092,-4.956419,2.8599985,-1
1051,1052,1583586468373,-3.3428,-0.9752,3.4714,5.769107,-5.310751,2.961321,-1
1052,1053,1583586468383,-2.846,-1.2742,3.6976,6.826252,-4.9159474,2.9982014,-1
1053,1054,1583586468393,-1.7531999,-0.9073,3.7273,7.997371,-3.8729084000000005,2.6897898,-1
1054,1055,1583586468403,-1.0792,-0.2393,3.4754,8.016658999999999,-3.1023202000000003,2.1391714,-1
1055,1056,1583586468414,-1.5330000000000001,0.36519998,2.7687,6.937342999999999,-2.552018,1.5196093000000002,-1
1056,1057,1583586468424,-3.0537999,0.42200000000000004,2.478,4.8099513,-2.0699406000000002,1.3239936,-1
1057,1058,1583586468434,-4.9584,0.5918,2.487,3.4672542,-1.4794443000000002,1.3324403,-1
1058,1059,1583586468444,-6.417000000000001,1.0316,2.5012999,2.426619,-0.78336364,0.9182530000000001,-1
1059,1060,1583586468454,-7.4181,1.339,2.0600998,1.8625836,-0.37801573,0.47255796,-1
1060,1061,1583586468464,-7.7563996,1.4291999,1.9546,1.8146805,-0.16216406,1.1039568000000002,-1
1061,1062,1583586468475,-7.7297997,1.2839999,2.8587,2.2026849,-0.6427185999999999,2.4105779999999997,-1
1062,1063,1583586468485,-7.2149997,0.3796,4.2479,3.4104349999999997,-2.1974080000000002,2.939572,-1
1063,1064,1583586468495,-5.9426,-1.3254,4.4871,4.453426,-2.813503,1.7709144,-1
1064,1065,1583586468506,-5.0744,-1.7074,3.0805,4.4342527,-1.7260852999999998,0.004252102,-1
1065,1066,1583586468516,-5.3573,-0.6629,1.3212,3.3710358,-0.69362897,-1.4840411,-1
1066,1067,1583586468526,-6.6024,0.10669999599999999,-0.0734,1.5302396,0.36484759999999994,-2.3384742999999997,-1
1067,1068,1583586468537,-8.148,0.7712,-0.74259996,0.27768909999999997,0.9341122,-1.9397726000000002,-1
1068,1069,1583586468547,-9.413,1.1455,-0.3637,-0.4804684,0.6725696,-0.82997394,-1
1069,1070,1583586468557,-10.151899,0.73359996,0.7477,-0.31590053,-0.18608692,0.9807608,-1
1070,1071,1583586468567,-9.9836,-0.2288,2.5432,1.2037951,-1.0914781999999998,3.0520325,-1
1071,1072,1583586468578,-8.478,-1.2111,4.6393,3.297668,-1.8815361000000002,4.449164,-1
1072,1073,1583586468589,-4.8922,-2.3846,5.7847,4.8912773000000005,-2.1044364,3.8848126000000005,-1
1073,1074,1583586468598,-4.8922,-2.3846,5.7847,4.868513,-1.5122161,2.3779786,-1
1074,1075,1583586468608,-5.5933,-0.9098,1.4398999,3.9211757000000005,-0.41599736,-0.6458981,-1
1075,1076,1583586468618,-6.4186997,-0.1542,-1.3761,3.2061138,0.38345537,-3.286061,-1
1076,1077,1583586468629,-6.5737996,0.3243,-3.3592,3.2049357999999994,0.8202248,-5.00053,-1
1077,1078,1583586468639,-5.9582,0.17809999,-3.7905,3.9559394999999995,0.5755661,-4.818781400000001,-1
1078,1079,1583586468649,-4.9446,-0.4183,-1.2254,4.9959903,-0.034438197000000004,-1.9101324,-1
1079,1080,1583586468659,-3.8100998,-1.1651,1.9727,6.1110373,-0.8058787,1.1091091999999998,-1
1080,1081,1583586468669,-2.7057998,-1.5473,3.8794,7.1801057,-0.94722277,2.6347709999999998,-1
1081,1082,1583586468679,-2.0765,-0.9205,4.0006,7.6056795,0.017219098000000002,2.192543,-1
1082,1083,1583586468689,-2.2651,-0.1103,2.7391,7.36308,0.60136604,1.0095486999999999,-1
1083,1084,1583586468700,-2.6511998,0.1977,0.8199,6.8754196,0.81512034,-1.3016796,-1
1084,1085,1583586468710,-3.076,0.0115,-0.80979997,6.507498,0.48259446,-2.535948,-1
1085,1086,1583586468720,-3.076,0.0115,-0.80979997,6.4830194,0.10268252,-2.8665297,-1
1086,1087,1583586468730,-2.4733999,-1.119,-1.8141999,7.840838400000001,-0.5773761,-3.2646856,-1
1087,1088,1583586468740,-2.4733999,-1.119,-1.8141999,9.323328,-0.45909294,-3.2323065,-1
1088,1089,1583586468750,1.0149,-0.6303,-1.4261,11.182924,0.19916886,-2.6620266,-1
1089,1090,1583586468761,1.8287,-0.2695,-0.68799996,11.411733,0.39899850000000003,-1.9446568,-1
1090,1091,1583586468771,1.2212,-0.33359998,-0.0268,10.339475,0.20113209,-1.4849701000000002,-1
1091,1092,1583586468781,-0.1609,-0.6836,0.38819999,8.962895,-0.0829543,-1.0903003,-1
1092,1093,1583586468791,-1.2979,-0.87579995,0.7188,8.076361,-0.09726205,-0.97438264,-1
1093,1094,1583586468801,-1.6906999,-0.8064,0.6511,8.01119,0.13815501,-1.1133995,-1
1094,1095,1583586468811,-1.3015,-0.4366,0.5263,8.652644,0.61174726,-1.2720777,-1
1095,1096,1583586468822,-0.4154,0.0501,0.2847,9.606629,1.1132463,-1.7543081999999999,-1
1096,1097,1583586468832,0.23279999,0.3358,-0.2776,10.006891,1.2130271000000001,-2.3234673,-1
1097,1098,1583586468842,0.4685,0.34309998,-1.0173,10.08568,1.0975116000000003,-3.0267209999999998,-1
1098,1099,1583586468852,0.5186,0.0061,-1.5875,10.2846575,0.67212903,-3.4709222,-1
1099,1100,1583586468862,1.0201,-0.4534,-1.7163999,10.983984,0.2797768,-3.449968,-1
1100,1101,1583586468872,1.4925,-0.55,-1.6134,11.170972,0.39695865,-3.2535381,-1
1101,1102,1583586468882,1.4650999,-0.4168,-1.349,10.874225,0.53474975,-3.008161,-1
1102,1103,1583586468892,0.8596,-0.20979999,-1.0604,10.170061,0.91711336,-2.7123337000000003,-1
1103,1104,1583586468902,0.0676,0.28329998,-0.807,9.149096499999999,1.5204138999999999,-2.2900633999999997,-1
1104,1105,1583586468912,-0.7635,0.6397,-0.2703,8.5147,1.8115488000000002,-1.4796548999999999,-1
1105,1106,1583586468923,-1.2695999,0.8563,0.6012,8.198331,2.03895,-0.7441658,d
1106,1107,1583586468933,-1.4028,1.0387,1.1093998999999999,8.357535,2.120602,-0.6619775999999999,-1
1107,1108,1583586468943,-0.9974,0.97349995,1.0555,9.303773,1.8201584,-1.0267389999999998,-1
1108,1109,1583586468953,-0.1025,0.6874,0.6422,9.980871,1.6065094,-1.5893190000000001,-1
1109,1110,1583586468963,0.6343,0.4845,-0.1077,10.444714999999999,1.4661708,-2.3548697999999995,-1
1110,1111,1583586468973,0.85099995,0.4219,-0.7955,10.240565,1.4852287,-2.9527593,-1
1111,1112,1583586468983,0.4497,0.4829,-1.3449,9.698969,1.6919153000000002,-3.3988757000000005,-1
1112,1113,1583586468993,-0.18689999,0.7558,-1.6281999,8.889844,2.0630738999999996,-3.209868,-1
1113,1114,1583586469003,-1.0777,1.1258,-1.1582999,7.8910303,2.3609892999999995,-2.4654052,-1
1114,1115,1583586469014,-2.1136,1.2152,-0.2215,6.836317500000001,2.3729699,-0.6393476,-1
1115,1116,1583586469023,-2.8829,1.2082,1.5493,6.275327,2.544596,1.0585916000000002,-1
1116,1117,1583586469033,-3.6025998999999995,1.4261,3.7008997999999997,5.4588375,2.7041934,3.2860226999999997,-1
1117,1118,1583586469043,-4.5,1.4625,6.042000000000001,4.494701999999999,2.6157131000000002,5.355082,-1
1118,1119,1583586469053,-5.4402,1.3914,7.6419997,3.689685,2.6396842,6.179042,-1
1119,1120,1583586469063,-6.0829997,1.5749999,8.0103,3.2705562,3.0102968,5.638958000000001,-1
1120,1121,1583586469074,-6.4572,2.0832,6.6586,2.961321,3.5711815000000002,3.3999674,-1
1121,1122,1583586469084,-6.7195,2.8917,4.0815997,2.8699486000000003,4.3311777000000005,1.2998408000000001,-1
1122,1123,1583586469094,-6.7387,4.0664997000000005,1.8179,2.5963967,5.630597,0.032886755,-1
1123,1124,1583586469104,-7.228399799999999,4.8964,2.0658998,1.1990546,5.361202,3.2526474,-1
1124,1125,1583586469114,-8.823999,4.4582,5.8536,-0.48606125,4.3327293,8.182347,-1
1125,1126,1583586469124,-10.402599,3.5219,10.8309,-1.4677701,3.5494422999999995,12.583541,-1
1126,1127,1583586469135,-11.1605,2.8485,15.0708,-1.3233709999999999,2.6665563999999997,15.262174,-1
1127,1128,1583586469145,-10.786099,2.0785,17.3053,-0.41212829999999995,1.6902584999999999,14.737748000000002,-1
1128,1129,1583586469155,-9.7816,1.2852,16.2572,0.47598645,0.8266029,12.683791000000001,-1
1129,1130,1583586469165,-8.7235,0.43379998,13.5097,1.5281615,-0.6651571,8.629996,-1
1130,1131,1583586469176,-7.852999700000001,-0.65779996,10.026299,2.6914465,-2.5315905,4.6737595,-1
1131,1132,1583586469186,-6.5009,-2.2487,6.1510997000000005,4.7407107,-4.3256616999999995,1.22179,-1
1132,1133,1583586469196,-4.2626,-3.655,2.9506,7.277492,-5.2913485,-1.5776258,-1
1133,1134,1583586469206,-1.5984,-4.107199700000001,0.5373,9.580378999999999,-5.4248400000000006,-2.3792619999999998,-1
1134,1135,1583586469216,0.69699997,-3.8474998,0.3222,11.221719,-5.610486,-1.3821152,-1
1135,1136,1583586469226,2.1134999,-3.9729,1.6553999,11.205658999999999,-7.420493,-1.1309539,-1
1136,1137,1583586469236,2.0667,-5.3992,1.8302,10.68581,-9.425714,-3.5702238,-1
1137,1138,1583586469246,1.5351,-7.6881,-1.3909,10.724808,-11.805081,-10.351617999999998,-1
1138,1139,1583586469256,1.7910999,-9.325399,-7.0905,12.067246,-13.433395999999998,-17.008207000000002,-1
1139,1140,1583586469267,3.2533,-10.679399499999999,-13.6728,14.42179,-14.438711999999999,-23.97089,-1
1140,1141,1583586469277,5.6973,-11.401899,-20.6225,16.854681,-13.740523999999999,-27.208118,-1
1141,1142,1583586469287,8.2146,-10.4642,-23.864898999999998,17.283014,-13.7284,-24.843376,-1
1142,1143,1583586469298,8.9416,-10.113299000000001,-22.0455,15.526273999999999,-14.705398,-22.971169,-1
1143,1144,1583586469308,7.0204,-11.1897,-19.5606,12.210505,-15.2027025,-23.063221,-1
1144,1145,1583586469318,1.9258,-11.235499,-21.612099,10.069782,-14.611018,-25.525045000000002,-1
1145,1146,1583586469328,0.7744,-10.132,-23.136599,9.220472000000001,-13.396324,-26.568140000000003,-1
1146,1147,1583586469338,0.5232,-8.9179,-22.526999,8.993425,-12.193966,-25.481163000000002,-1
1147,1148,1583586469348,-0.3265,-7.9876,-20.1503,7.937678999999999,-11.2469635,-22.906832,-1
1148,1149,1583586469358,-2.4833998999999998,-7.3178997,-17.3324,5.6434492999999994,-10.497492,-19.87491,-1
1149,1150,1583586469368,-5.3808,-6.443,-13.7744,2.744167,-9.427649,-16.201477,-1
1150,1151,1583586469378,-8.4261,-5.5039997000000005,-10.475999999999999,-0.14162183,-8.339397,-12.928776,-1
1151,1152,1583586469388,-10.759,-4.3547997,-7.6754,-2.2184863,-7.033264,-10.098983,-1
1152,1153,1583586469398,-10.759,-4.3547997,-7.6754,-3.0874474,-6.2106069999999995,-8.301644999999999,-1
1153,1154,1583586469408,-12.2113,-2.7995,-3.4552998999999995,-3.1146362,-5.400572299999999,-5.6477685,-1
1154,1155,1583586469418,-11.9814,-2.2123,-0.9547,-2.9030172999999997,-4.7476444,-2.950413,-1
1155,1156,1583586469429,-12.2328,-1.5583,1.8259,-3.1980405,-4.0376296,0.036248215,-1
1156,1157,1583586469439,-12.2328,-1.5583,1.8259,-3.8879347,-3.0646259999999996,3.5516546,-1
1157,1158,1583586469449,-13.4726,0.29389998,8.6394,-4.3351235,-2.1659577000000003,7.2187767,-1
1158,1159,1583586469459,-13.662,0.8384,11.937699,-4.44677,-1.7767467000000001,10.553632,-1
1159,1160,1583586469469,-13.573998999999999,0.73249996,14.7109995,-4.270489700000001,-2.1155837,13.344754,-1
1160,1161,1583586469480,-12.979799,0.19559999,16.0767,-3.5648417,-2.7615297,14.473410000000001,-1
1161,1162,1583586469490,-11.749499,0.0262,15.827399,-1.9342085,-3.0211856,14.393548000000001,-1
1162,1163,1583586469501,-10.0581,0.3101,16.012499,-0.16361018,-2.8388145000000002,14.937472,-1
1163,1164,1583586469511,-8.042399000000001,0.81149995,16.7207,1.9030455000000002,-2.5737095,16.1661,-1
1164,1165,1583586469521,-5.9983,0.7891,19.0613,3.5776653,-3.3955717000000005,19.71312,-1
1165,1166,1583586469531,-4.8206997000000005,-0.4362,23.5178,4.392575,-5.1836,24.181046,-1
1166,1167,1583586469542,-4.1,-2.0788,26.795,4.910565,-6.993626,26.41811,-1
1167,1168,1583586469552,-3.4617,-3.3395998,27.079898999999997,5.7099795,-8.468244,25.501755,-1
1168,1169,1583586469562,-2.3325999,-3.8193998,25.0282,6.864789,-8.720467999999999,23.28546,-1
1169,1170,1583586469572,-0.111899994,-3.6653998,21.514398999999997,10.110465,-8.833647000000001,19.774258,-1
1170,1171,1583586469582,3.3163,-3.4564998,19.3188,12.98323,-9.1264,19.390362,-1
1171,1172,1583586469592,6.7851996,-3.9692,19.91,16.403566,-10.534325,21.49932,-1
1172,1173,1583586469602,9.3376,-5.1977,22.2452,17.48406,-11.932845,23.529123000000002,-1
1173,1174,1583586469612,10.0216,-6.944,23.8461,17.547544,-13.975664000000002,24.021534,-1
1174,1175,1583586469622,9.9855995,-8.6276,21.9797,17.329147,-15.875348,20.200588,-1
1175,1176,1583586469632,10.177899,-9.762199,17.5329,17.944092,-16.934179999999998,15.583082999999998,-1
1176,1177,1583586469642,11.3567,-10.5512,12.7755995,19.3395,-17.369839000000002,11.362096000000001,-1
1177,1178,1583586469653,13.032,-10.526199,8.6066,20.803064000000003,-17.264656,8.413406,-1
1178,1179,1583586469663,14.294498999999998,-10.4814,6.2124,21.280191000000002,-17.803829999999998,7.424658999999999,-1
1179,1180,1583586469673,14.3364,-11.2499,5.7714,20.600248,-18.72374,7.248398,-1
1180,1181,1583586469683,13.441899,-11.9885,5.2296,19.417607999999998,-19.100912,5.9976473,-1
1181,1182,1583586469693,12.1585,-12.3640995,3.2403,18.11228,-19.779238,2.5808249,-1
1182,1183,1583586469703,10.9049,-13.3067,-1.1769999,17.472443,-20.856482999999997,-3.3760830000000004,-1
1183,1184,1583586469714,10.726399,-14.1411,-5.9493,18.467636,-21.3291,-7.3329130000000005,-1
1184,1185,1583586469724,11.866199499999999,-14.5813,-9.6470995,19.94321,-20.9471,-9.85938,-1
1185,1186,1583586469734,13.1472,-14.0515995,-11.7943,20.512745000000002,-19.662113,-10.888005999999999,-1
1186,1187,1583586469744,13.308599,-12.7872,-12.4172,19.583880999999998,-18.27567,-10.635532000000001,-1
1187,1188,1583586469754,12.0237,-11.5308,-11.9113,18.086,-16.776966,-9.768985,-1
1188,1189,1583586469764,10.374,-10.1834,-10.776999,16.78913,-15.41952,-8.671721,-1
1189,1190,1583586469774,8.9951,-9.0238,-9.6423,16.013485,-14.161914000000001,-8.283392,-1
1190,1191,1583586469784,8.1322,-7.9879,-9.0533,15.282831,-13.141160000000001,-7.829241000000001,-1
1191,1192,1583586469794,7.0818996,-7.2623,-8.290999000000001,13.898992999999999,-12.342196000000001,-7.2051587,-1
1192,1193,1583586469804,5.4280996,-6.702999999999999,-7.4803,11.897219,-11.705262,-6.5877705,-1
1193,1194,1583586469814,3.1666,-6.3013997,-6.6591997,9.671607,-10.90896,-6.1091404,-1
1194,1195,1583586469824,0.84209996,-5.6607,-6.059,8.233037,-10.037164,-6.407592299999999,-1
1195,1196,1583586469834,-0.9435,-4.9315,-6.7858996,6.920612299999999,-9.409261,-8.132739,-1
1196,1197,1583586469844,-2.0702,-4.6867,-8.415999000000001,6.443534400000001,-8.754877,-9.485799,-1
1197,1198,1583586469854,-2.4389,-4.218899700000001,-9.127299,6.2260349999999995,-7.8284080000000005,-9.448286,-1
1198,1199,1583586469864,-2.8246999,-3.7175,-8.5182,5.44112,-7.206786599999999,-7.939000599999999,-1
1199,1200,1583586469874,-3.8667998,-3.4171998999999995,-6.4617,3.7569811,-6.4650245,-5.225086,-1
1200,1201,1583586469884,-5.8290997,-2.8999,-3.4542,1.7882771000000002,-5.6749477,-3.421525,-1
1201,1202,1583586469894,-8.4929,-2.31,-1.5221,-0.7943099,-4.9336357,-2.8996944,-1
1202,1203,1583586469904,-10.895599,-1.9188999,-1.5762999,-2.8588014,-4.457314,-4.3443074,-1
1203,1204,1583586469914,-12.3595,-1.9667,-2.8587,-3.5224642999999998,-5.112674,-6.405744,-1
1204,1205,1583586469924,-12.876599,-3.0877,-5.0903997,-3.1980405,-6.796928,-10.330224000000001,-1
1205,1206,1583586469935,-12.354199000000001,-4.9797997,-9.2911,-1.9418602999999999,-8.175117,-15.2130165,-1
1206,1207,1583586469945,-10.967999,-6.2099,-13.967198999999999,0.031038431000000002,-8.049919000000001,-17.640142,-1
1207,1208,1583586469955,-9.006,-6.0583,-15.3861,1.0882317,-8.201788,-15.058945000000001,-1
1208,1209,1583586469966,-8.373899,-6.5558996,-12.051399,0.37097678,-8.905367,-11.13028,-1
1209,1210,1583586469976,-9.3143,-7.3875,-8.0734,-1.0884999,-8.8811,-7.552825,-1
1210,1211,1583586469986,-10.7986,-7.3430995999999995,-4.6816998,-2.740863,-8.207084,-6.1130385,-1
1211,1212,1583586469996,-12.4872,-6.8989997,-3.6971998,-3.9845645,-7.8227572,-7.4397807,-1
1212,1213,1583586470006,-13.4081,-6.7335997,-4.9421,-3.2833986000000004,-7.5283275,-9.616197,-1
1213,1214,1583586470017,-12.709499000000001,-6.5304,-7.1610000000000005,-0.81466067,-7.8356185,-10.975366000000001,-1
1214,1215,1583586470027,-10.281899000000001,-6.867799799999999,-8.605,2.633593,-8.219706,-10.533147,-1
1215,1216,1583586470037,-6.877000000000001,-7.2627997,-8.2611,5.431687,-7.4186062999999995,-9.131878,-1
1216,1217,1583586470047,-3.7073,-5.8361998,-5.9227,5.781432,-6.5376263,-7.6453942999999995,-1
1217,1218,1583586470058,-4.5875998,-5.1454,-3.9122999,4.750431,-5.718905400000001,-5.304785,-1
1218,1219,1583586470068,-5.732,-4.2097,-0.46019998,3.727092,-4.607478599999999,-1.4423532,-1
1219,1220,1583586470078,-6.3296,-3.1627998,4.3739,3.2583268,-3.4839754000000003,3.6779153,-1
1220,1221,1583586470088,-6.4329996,-2.4965,9.2525,3.2949674,-2.9018874,8.564471000000001,-1
1221,1222,1583586470098,-6.4329996,-2.4965,9.2525,3.9155733999999995,-3.0934331000000004,11.477765,-1
1222,1223,1583586470108,-5.0745,-3.0293,12.4249,4.915545,-3.5710285,11.139013,-1
1223,1224,1583586470118,-3.8147998,-3.0509999,10.6032,6.2830653,-3.561356,9.698164,-1
1224,1225,1583586470128,-1.9433999,-2.8736,9.8452,8.269697,-3.4474301,9.523991,-1
1225,1226,1583586470139,-0.0044,-2.7702,11.156099000000001,10.014447,-3.4835922999999993,11.453526,-1
1226,1227,1583586470149,0.43649998,-3.1725,14.115298999999998,10.13139,-3.9195860000000002,14.609419,-1
1227,1228,1583586470159,-0.4565,-3.1216,16.2855,9.090813,-3.6989746,16.385965,-1
1228,1229,1583586470169,-1.5948,-2.3869,15.8827,8.038753,-2.8874838,15.604899,-1
1229,1230,1583586470179,-1.9179,-1.4337,13.6257,7.971303,-1.8813925,13.269403,-1
1230,1231,1583586470189,-1.1214,-0.3419,10.970799000000001,9.188994000000001,-0.6073036999999999,10.423866,-1
1231,1232,1583586470200,0.077599995,0.5635,9.2518,10.028449,-0.022936452000000003,9.358207,-1
1232,1233,1583586470210,0.077599995,0.5635,9.2518,10.329476,0.08507078,8.302498,-1
1233,1234,1583586470220,0.45299998,0.5793,7.5846,10.170817,-0.2898133,8.001642,-1
1234,1235,1583586470230,0.2767,0.2311,7.9918,10.0024185,-0.58296895,8.593049,-1
1235,1236,1583586470240,0.1592,0.104899995,8.3111,9.884922,-0.5712086,8.406588000000001,-1
1236,1237,1583586470250,0.032199997,0.32899999999999996,7.2851,9.78313,-0.19267578,6.986146499999999,-1
1237,1238,1583586470261,0.0032,0.87619996,5.4743,9.782564,0.29856652,5.4728580000000004,-1
1238,1239,1583586470270,0.033,1.5037,3.7405,9.846021,0.9981235,3.5797818,-1
1239,1240,1583586470280,0.042799998,1.8398,2.5374,9.787726,1.1695004999999998,2.6448650000000002,-1
1240,1241,1583586470290,-0.0652,1.7766998999999999,2.1619,9.667844,0.93845046,2.6123135,-1
1241,1242,1583586470300,-0.065299995,1.4239,2.4629,9.775583000000001,0.5065173,2.8858366,-1
1242,1243,1583586470311,0.1801,0.93939996,2.4875,10.129733,0.046562437000000005,2.684877,-1
1243,1244,1583586470320,0.6518,0.5574,2.1911,10.664253,-0.35673606,2.4128287,-1
1244,1245,1583586470330,1.3102,0.31399998,2.0073,11.372812,-0.5211219,2.1202476000000003,-1
1245,1246,1583586470340,1.8117,0.1955,1.5421,11.59872,-0.64377207,1.6651386000000001,-1
1246,1247,1583586470350,1.7439,0.1471,1.2967,11.399675,-0.7081569999999999,1.5959843,-1
1247,1248,1583586470360,1.7439,0.1471,1.2967,10.913298,-0.70680666,1.5427468999999998,-1
1248,1249,1583586470371,0.8411,0.192,1.023,10.398314,-0.5871923000000001,1.0949928999999998,-1
1249,1250,1583586470381,0.3592,0.28,0.5748,10.032155,-0.5037305000000001,0.723116,-1
1250,1251,1583586470391,0.1715,0.3216,0.35169998,9.962091000000001,-0.49509218,0.5071398,d
1251,1252,1583586470401,0.29819998,0.281,-0.023899998999999998,10.189981,-0.5373259,-0.024497472000000003,-1
1252,1253,1583586470411,0.6019,0.1867,-0.3769,10.596459,-0.66914105,-0.27245057,-1
1253,1254,1583586470421,0.9256,0.13409999,-0.258,10.799161999999999,-0.6741593000000001,0.11551544,-1
1254,1255,1583586470432,1.0237,0.109299995,0.2589,10.692965,-0.73392814,0.51477253,-1
1255,1256,1583586470442,0.77849996,0.080299996,0.5512,10.376298,-0.71306986,0.6309392,-1
1256,1257,1583586470452,0.3172,0.0862,0.6475,9.861152,-0.6613743000000001,0.54825306,-1
1257,1258,1583586470462,-0.0656,0.1891,0.3552,9.600653999999999,-0.55600065,0.015112201,-1
1258,1259,1583586470472,-0.2129,0.2843,-0.22109999,9.583453,-0.5751447,-0.58204955,-1
1259,1260,1583586470482,-0.104899995,0.1285,-0.71849996,9.87701,-0.73901343,-0.95346683,-1
1260,1261,1583586470493,0.26819998,0.0639,-0.9188,10.201875,-0.75063974,-0.95920336,-1
1261,1262,1583586470503,0.5239,0.0576,-0.6787,10.316108,-0.74765176,-0.6660189999999999,-1
1262,1263,1583586470513,0.5049,0.057099998,-0.39999998,10.181506,-0.77990645,-0.46656287,-1
1263,1264,1583586470523,0.2796,-0.0162,-0.23519999,9.866927,-0.87923706,-0.40426576,-1
1264,1265,1583586470533,-0.033999998,-0.14999999,-0.1584,9.656113000000001,-1.0727078,-0.37957674,-1
1265,1266,1583586470543,-0.0929,-0.30179998,-0.1322,9.765125,-1.1214919,-0.3923618,-1
1266,1267,1583586470554,0.17189999,-0.3525,-0.092999995,10.250708,-1.1459415000000002,-0.20153432,-1
1267,1268,1583586470564,0.5349,-0.34289998,0.1285,10.463868,-1.1517643,-0.0723432,-1
1268,1269,1583586470574,0.68189996,-0.3548,0.1607,10.416913000000001,-1.1234361000000002,-0.23123199,-1
1269,1270,1583586470584,0.4951,-0.2732,-0.0545,9.96303,-1.0328873,-0.26515305,-1
1270,1271,1583586470594,0.1021,-0.2546,0.030399999,9.781989999999999,-1.0764234,-0.25288516,-1
1271,1272,1583586470605,-0.0651,-0.3845,-0.0547,9.808413,-1.2039865,-0.50641197,-1
1272,1273,1583586470615,0.0815,-0.46429998,-0.2243,10.132855000000001,-1.2303611,-0.5956104,-1
1273,1274,1583586470625,0.4147,-0.48409998,-0.27719998,10.305113,-1.1617817,-0.6149650999999999,-1
1274,1275,1583586470635,0.5221,-0.40739998,-0.2669,10.276966999999999,-1.0324467,-0.4099352,-1
1275,1276,1583586470645,0.4524,-0.30429998,-0.0104,10.089587,-0.9764895,-0.022601265,-1
1276,1277,1583586470655,0.2744,-0.282,0.36499998,9.972951,-0.79264355,0.33679715,-1
1277,1278,1583586470665,0.17469999,-0.0641,0.6951,9.829462,-0.65423954,0.31969297,-1
1278,1279,1583586470675,0.0064999997,0.0078,0.50409997,9.698069,-0.71008193,-0.29096255,-1
1279,1280,1583586470685,-0.1026,-0.0659,-0.16489999,9.697714,-0.7377971999999999,-1.0697389,-1
1280,1281,1583586470695,-0.084,-0.14729999,-0.9061,9.937191,-0.9132443000000001,-1.4154233999999999,-1
1281,1282,1583586470706,0.21939999,-0.32529998,-1.1445999,10.300189999999999,-0.9723332,-1.2216653999999998,-1
1282,1283,1583586470716,0.5624,-0.3168,-0.8145,10.498996,-0.8398955,-0.5513272,-1
1283,1284,1583586470726,0.7190000000000001,-0.2032,-0.091299996,10.472794,-0.63984567,0.12153925,-1
1284,1285,1583586470736,0.67899996,-0.054899998,0.4298,10.323941,-0.5288983,0.27258465,-1
1285,1286,1583586470746,0.4425,0.0519,0.5868,10.070061,-0.5186128,0.19827822,-1
1286,1287,1583586470756,0.24489999,0.0313,0.4592,10.081811,-0.6207782,-0.0147578595,-1
1287,1288,1583586470766,0.33179998,-0.1047,0.2513,10.401877,-0.6980343000000001,-0.5573701999999999,-1
1288,1289,1583586470777,0.6053,-0.18869999,-0.2577,10.82047,-0.76790667,-1.2251322,-1
1289,1290,1583586470787,1.0162,-0.2816,-0.9324,11.214556,-0.8281351999999998,-1.7088758999999998,-1
1290,1291,1583586470797,1.4173,-0.34719998,-1.4209,11.352835,-0.8189510999999999,-1.7549976999999999,-1
1291,1292,1583586470807,1.5532999,-0.3692,-1.4775,11.430858,-0.8573156999999999,-1.5257291000000002,-1
1292,1293,1583586470818,1.6304,-0.4263,-1.2593,11.817244,-1.0669425,-0.9032269,-1
1293,1294,1583586470828,2.0114,-0.6716,-0.6392,12.271988,-1.2019277,-0.22848345,-1
1294,1295,1583586470838,2.461,-0.83989996,0.0243,12.473733,-1.2323051999999999,-0.018081011,-1
1295,1296,1583586470848,2.665,-0.90819997,0.2138,12.465009,-1.2834358000000001,-0.31037474,-1
1296,1297,1583586470859,2.5240998,-0.9352,-1.0798,12.3446,-1.1312411,-1.5822704,-1
1297,1298,1583586470870,2.6696,-0.90779996,-1.8341,12.629663,-1.061972,-2.0660715,-1
1298,1299,1583586470880,3.1392,-0.9005,-1.9761,13.068099,-1.0308857,-2.0137823,-1
1299,1300,1583586470890,3.6385998999999996,-1.0026,-1.5956999,13.543166000000001,-1.1120780000000001,-1.5430821000000001,-1
1300,1301,1583586470900,4.0697,-1.2271999,-1.0152,14.016853,-1.3542563,-0.6835829000000001,-1
1301,1302,1583586470910,4.2757998,-1.5777999,-0.2543,14.005591,-1.6593828999999998,-0.07129932,-1
1302,1303,1583586470920,3.9529,-1.9504,-0.0356,13.553719500000001,-1.8715188999999999,-0.05717354,-1
1303,1304,1583586470931,3.2584,-2.0628,-0.196,12.659638000000001,-1.8023837999999999,-0.11724885,-1
1304,1305,1583586470941,2.1928,-2.0017,-0.1072,11.599783,-1.5666506000000002,0.06349423,-1
1305,1306,1583586470951,1.3248999,-1.7897999,0.0053999997,10.898932,-1.1997440000000001,0.28968886,-1
1306,1307,1583586470961,0.8803,-1.4693999,0.3105,10.570879,-0.7758458,0.6862165,-1
1307,1308,1583586470971,0.6918,-1.1847,0.5482,10.40908,-0.44171107,0.74280584,-1
1308,1309,1583586470982,0.4554,-1.1424,0.19029999,10.061681,-0.38004598,0.28714138,-1
1309,1310,1583586470992,-0.0543,-1.2573,-0.26909998,9.391160000000001,-0.37531507,-0.0040701427,-1
1310,1311,1583586471002,-0.5631,-1.3356,-0.3121,9.070567,-0.33749625,0.27279535,-1
1311,1312,1583586471012,-0.6688,-1.3359999999999999,0.1434,9.1367235,-0.09692687,0.84684825,-1
1312,1313,1583586471022,-0.4791,-0.92429996,1.1101999,9.2662115,0.55235195,2.048613,d
1313,1314,1583586471033,-0.61149997,-0.42729998,2.3221,8.697866000000001,1.1381748,3.0466216,-1
1314,1315,1583586471043,-1.4277999,-0.1524,2.675,7.4789305,1.514821,2.9148544999999997,-1
1315,1316,1583586471053,-2.7517,0.0884,2.2705,6.2272224000000005,1.8988988000000002,2.3143982999999997,-1
1316,1317,1583586471063,-3.81,0.3719,1.5863999,5.4596515,2.2689369999999998,1.716068,-1
1317,1318,1583586471073,-4.339699700000001,0.6671,1.1538,5.2376227,2.7708766,1.7072573,-1
1318,1319,1583586471084,-4.3908997,1.1535,1.3862,5.2270117,3.4291098,2.3997564,-1
