,Seq,Time,ACCx,ACCy,ACCz,ADGx,ADGy,ADGz,Keydown
0,1,1580690544160,0.0,0.0,0.0,0.0,0.0,0.0,-1
1,2,1580690544170,-3.5651,-2.7704,0.72999996,-9.010233,2.0299,7.9240894,-1
2,3,1580690544180,-3.5651,-2.7704,0.72999996,-9.010233,2.0299,7.9240894,-1
3,4,1580690544190,-2.4905,0.3348,2.1705,-10.691557000000001,0.7841585,8.677218,-1
4,5,1580690544201,-3.8983,-0.5379,1.8397,-11.396563,0.45477384,8.120433,-1
5,6,1580690544211,-3.8158,-0.7554,1.7243998999999999,-10.823774,0.45135492,7.6800630000000005,-1
6,7,1580690544221,-2.9675,-0.7258,0.9892,-10.255161,0.5148204000000001,7.00915,-1
7,8,1580690544231,-2.0363998,-0.6336,-0.4581,-9.111728999999999,0.68053746,4.766731,-1
8,9,1580690544243,-1.4341999,-1.0386,-1.9607999,-8.773064,-0.12179783,2.9020405,-1
9,10,1580690544251,-1.28,-1.8761,-3.4155998,-9.174254,-0.48367664,2.017632,-1
10,11,1580690544262,-1.8159,-2.4645,-4.0362,-10.118471000000001,-0.8444444999999999,1.8265651000000003,-1
11,12,1580690544272,-2.5582,-2.8460999,-3.9821,-10.476442,-1.3015168,1.8221983,-1
12,13,1580690544282,-2.7552,-3.6189999999999998,-3.9599998,-10.341897,-2.1736,1.6224738,-1
13,14,1580690544292,-2.4364998,-4.6135,-4.2511,-9.782794,-2.7629759999999997,0.9803586,-1
14,15,1580690544302,-1.8699,-4.8876,-4.6689997000000005,-9.18547,-3.0837414,0.27606103,-1
15,16,1580690544312,-1.2198,-5.7037997,-5.3282,-8.4506035,-4.138636,-0.9094519,-1
16,17,1580690544323,-0.3876,-6.7665,-6.4129996,-7.4416766,-4.8989005,-1.9914299,-1
17,18,1580690544333,0.9291,-7.5364,-7.0973997,-5.640710400000001,-5.62827,-2.6155791,-1
18,19,1580690544343,3.4912,-7.6784,-6.8561997,-3.2083836,-5.7616754,-2.7935066,-1
19,20,1580690544353,6.0014,-7.8787,-6.7935996,-0.96499735,-5.645298,-2.4503028,-1
20,21,1580690544364,7.9964,-7.9816,-6.3645997,0.87922746,-5.8374085,-2.095367,-1
21,22,1580690544374,9.6951,-8.5401,-6.0273,2.1783407,-6.4836802,-1.8121137999999999,-1
22,23,1580690544384,10.6022,-9.3553,-5.8992,2.6806345,-6.7091084,-1.2429546,-1
23,24,1580690544394,11.151299,-9.7916,-5.2455,3.8890836,-6.468884,-0.13109691,-1
24,25,1580690544405,12.0735,-9.7822,-4.3687997,5.114148999999999,-6.9227576,-0.019574992,-1
25,26,1580690544416,13.1717,-10.4352,-4.3417,6.095196700000001,-7.53258,-0.25108472,-1
26,27,1580690544427,14.687598999999999,-11.672299,-4.7271,7.0031548,-7.9515457,-0.27126306,-1
27,28,1580690544438,14.687598999999999,-11.672299,-4.7271,7.489839,-8.606955000000001,-0.42222226,-1
28,29,1580690544448,14.8607,-13.7311,-5.1472,7.2941270000000005,-9.763564,-0.42755654,-1
29,30,1580690544458,15.276998999999998,-14.469999,-5.1095,8.250601,-10.271144999999999,-0.12460384,-1
30,31,1580690544468,17.5156,-13.9761,-4.4835997,10.952506,-9.369335000000001,0.8351933000000001,-1
31,32,1580690544478,20.7573,-12.6229,-3.1022,14.749326000000002,-7.884489,2.999906,-1
32,33,1580690544489,22.671298999999998,-11.7708,-0.80799997,16.680979,-7.249001,6.0433383,-1
33,34,1580690544499,24.983,-11.457399,2.8435,18.53998,-6.917088000000001,10.331756,-1
34,35,1580690544509,25.0334,-10.7936,6.5608997,18.194803,-6.534763,13.567003,-1
35,36,1580690544519,24.5571,-10.6451,8.7078,18.487759,-6.599003999999999,15.458383999999999,-1
36,37,1580690544529,25.7474,-10.3839,9.6171,19.651493,-6.175805,15.810398000000001,-1
37,38,1580690544540,25.609999,-9.436999,8.6015,19.153059,-5.7212705999999995,14.710454,-1
38,39,1580690544550,25.7186,-9.6355,8.2071,19.189814000000002,-6.2753559999999995,15.466916000000001,-1
39,40,1580690544560,24.717999,-9.492599499999999,9.3743,17.930560999999997,-6.3012424000000005,17.232143,-1
40,41,1580690544570,24.1395,-9.214499,11.0183,18.492096,-5.9549065,19.061054000000002,-1
41,42,1580690544580,24.9677,-8.3162,11.9018,19.213795,-5.2689676,18.337248000000002,-1
42,43,1580690544591,25.2031,-7.6031,10.0369,20.047646,-5.7829165,15.938584,-1
43,44,1580690544601,26.5873,-8.032599000000001,7.6656,20.692327,-6.0642734,15.044885999999998,-1
44,45,1580690544611,25.8822,-7.6017,6.8036,19.256403,-6.155138,14.662513,-1
45,46,1580690544622,24.432999,-7.4567,7.2363,18.799856,-6.7455006,16.997387,-1
46,47,1580690544632,23.939498999999998,-7.3598,10.0836,18.32819,-6.934585,19.602776000000002,-1
47,48,1580690544642,22.8016,-6.8731,13.086499,17.22065,-7.2420583,23.818333,-1
48,49,1580690544652,21.7774,-6.3553996,15.665799,16.865025,-7.151461599999999,25.159775,-1
49,50,1580690544662,20.805999999999997,-5.4298,16.3429,16.522683999999998,-6.954964,24.255407,-1
50,51,1580690544672,19.567799,-4.5062,14.9492,15.778267999999999,-7.127749000000001,22.246126,-1
51,52,1580690544683,18.6679,-4.3501997,13.1341,14.941532999999998,-7.265033,20.718245,-1
52,53,1580690544693,17.506899,-4.16,11.5591,13.902123999999999,-7.153826700000001,20.00866,-1
53,54,1580690544703,16.2825,-3.7982,11.1572,13.070302,-7.350208800000001,20.371668,-1
54,55,1580690544713,15.1171,-3.7447998999999994,11.696799,11.755673,-7.479611,21.035906,-1
55,56,1580690544723,13.4223995,-3.5892,12.3286,10.507691000000001,-7.405390299999999,21.431715,-1
56,57,1580690544733,11.95,-3.2089999,12.7609,9.839518,-7.123162,21.833185,-1
57,58,1580690544744,10.8345995,-2.6178,13.4635,9.084789,-6.352832,23.111086,-1
58,59,1580690544754,10.0338,-1.8309,14.451799,9.016448,-5.767249,23.715784,-1
59,60,1580690544764,9.653999,-0.9838,15.2008,9.222053,-5.2365403,24.318003,-1
60,61,1580690544774,9.4882,-0.4156,15.8538,8.991377,-5.157733,24.918995000000002,-1
61,62,1580690544784,8.859099,-0.3453,16.3697,8.019886,-5.342162999999999,24.806353,-1
62,63,1580690544794,7.5072,-0.5215,16.2662,6.854063000000001,-5.619306,24.280203,-1
63,64,1580690544805,5.9603996,-0.8562,15.7394,5.887754,-5.781327,23.359756,-1
64,65,1580690544815,4.6203,-1.1108999,14.809899,5.450036,-5.7207246,22.54836,-1
65,66,1580690544825,3.8,-1.1825,13.8026,5.4032245,-5.726969,21.757326000000003,-1
66,67,1580690544835,2.9731998,-1.7235999,12.992399,5.2042956,-5.865708000000001,21.610456,-1
67,68,1580690544845,2.9731998,-1.7235999,12.992399,5.3489146,-6.3734703,21.545353,-1
68,69,1580690544855,2.0841,-3.1053998,12.4828,4.8336635,-6.717334700000001,21.188742,-1
69,70,1580690544865,1.4382,-3.9562998,11.8667,4.4114127,-7.231350999999999,20.633835,-1
70,71,1580690544875,0.4441,-4.8634996,10.509399,3.611567,-7.757376700000001,19.344969,-1
71,72,1580690544885,-0.8214,-5.6626,9.0421,2.5216978,-8.147267,17.928223000000003,-1
72,73,1580690544896,-0.8214,-5.6626,9.0421,1.7811903000000002,-9.106126,16.730107999999998,-1
73,74,1580690544906,-3.3097,-8.0088,6.8773,-0.09671617,-9.695253,15.730229999999999,-1
74,75,1580690544916,-4.6653,-9.011000000000001,6.3107,-1.1017063,-10.134924,15.381031,-1
75,76,1580690544926,-5.723,-9.7712,5.4567,-2.1769805,-10.430722,14.578045000000001,-1
76,77,1580690544936,-5.8631997,-9.8727,4.0408,-2.1997923999999998,-10.033466,12.842699,-1
77,78,1580690544946,-5.3059,-9.9634,2.3687,-1.9086576000000002,-9.706755000000001,11.571425,-1
78,79,1580690544957,-4.6619,-10.6333,1.601,-1.4327860000000001,-9.920528,10.840016,-1
79,80,1580690544967,-5.0986,-10.6946,1.8899,-2.0887493999999998,-9.546333,11.265897,-1
80,81,1580690544977,-5.5463,-11.161699,2.9619999999999997,-2.6981982999999996,-9.655576,12.411044,-1
81,82,1580690544987,-6.4656997,-11.1092,3.8358998,-3.803812,-9.031494,13.061864,-1
82,83,1580690544997,-7.2419,-10.477799000000001,3.6181997999999997,-4.573385,-7.845923399999999,12.327562,-1
83,84,1580690545007,-6.9493,-9.9634,2.4161,-4.197026,-7.078476400000001,11.206491999999999,-1
84,85,1580690545018,-5.8018,-9.1953,1.0706999,-3.1013627,-5.9274974,9.763421000000001,-1
85,86,1580690545028,-4.3177,-8.569099000000001,-0.5388,-1.8107442999999999,-4.995751,7.950119,-1
86,87,1580690545038,-2.9053,-8.1614,-2.6994,-0.30273244,-4.056276,5.2322407,-1
87,88,1580690545048,-1.4214,-7.5931997,-4.7174997,1.0112054,-3.1167238,3.235275,-1
88,89,1580690545058,-0.0132,-6.8588996,-6.2718997000000005,2.042005,-2.096526,1.9405961999999999,-1
89,90,1580690545068,0.8170000000000001,-6.311,-6.9224,2.383648,-1.3435206,1.4216291,-1
90,91,1580690545079,0.9457,-5.7959,-7.1301,2.133722,-0.7582724000000001,1.1815096999999999,-1
91,92,1580690545089,0.5815,-5.8859997,-7.2791996,1.2926582,-0.92355853,0.8123239000000001,-1
92,93,1580690545099,-0.5873,-6.3595,-7.8599997,-0.06231628,-1.0833761999999998,-0.14722426,-1
93,94,1580690545109,-1.3543,-6.4651,-8.969299000000001,-0.56038684,-0.78751993,-1.376934,-1
94,95,1580690545120,-1.068,-6.053999999999999,-9.9025,0.014556747,-0.05329493,-2.1705064999999997,d
95,96,1580690545130,0.0044,-5.2883997,-10.1651,0.9726971,0.74351454,-2.3319619,-1
96,97,1580690545140,1.3945999,-4.3122997000000005,-10.2139,2.3366165,1.8192006,-2.455407,-1
97,98,1580690545150,2.5914,-3.4979,-10.1704,3.570818,2.834007,-2.4300287,-1
98,99,1580690545160,3.3381998999999998,-2.9654,-9.927,4.279904,3.3869815,-2.2349202999999997,-1
99,100,1580690545171,3.8779,-2.602,-9.804,4.6349730000000005,3.8515617999999994,-2.1299297999999998,-1
100,101,1580690545181,4.1345,-2.1685998,-9.6299,4.596925,4.337326,-1.9271888,-1
101,102,1580690545191,3.9194,-1.8145,-9.3638,4.195714,4.4650135,-1.8531121,-1
102,103,1580690545202,3.4987998,-1.8745999,-9.4267,3.8802730000000003,4.3720517,-1.8534473000000002,-1
103,104,1580690545212,3.2222,-1.8684,-9.161099,3.737004,4.487155400000001,-1.4918559,-1
104,105,1580690545222,3.1469998,-1.7652999,-8.7056,3.8922440000000003,4.5717955,-1.1160139999999998,-1
105,106,1580690545232,3.5019998999999995,-1.8212999,-8.4614,4.621001000000001,4.517734,-0.7688548000000001,-1
106,107,1580690545242,4.3101997,-1.6920998999999999,-8.0569,5.592491000000001,5.058757,-0.35703292,-1
107,108,1580690545252,5.0014,-1.1790999,-7.7695,5.909244,5.276313,0.049358862999999996,-1
108,109,1580690545263,5.1019,-1.046,-7.0909,5.2214475,5.030725,1.2587372,-1
109,110,1580690545273,4.2307,-1.2739999,-6.0499,4.225219999999999,4.879134,2.409563,-1
110,111,1580690545283,3.2624,-1.339,-4.8958,3.5496337,4.949016,3.7108687999999996,-1
111,112,1580690545293,2.5955,-1.169,-3.6515,3.1798637000000003,5.252179,4.7144129999999995,-1
112,113,1580690545303,2.2416,-0.82089996,-2.7407,3.378075,5.6501055000000004,5.3206053,-1
113,114,1580690545313,2.4671,-0.3949,-2.2372,4.0966705999999995,6.016964,5.3669667,-1
114,115,1580690545324,3.1048,-0.0231,-2.2449,4.9749694,6.353952400000001,5.309678599999999,-1
115,116,1580690545334,3.8202,0.2803,-2.2384,5.885934,6.677945599999999,5.2796555,-1
116,117,1580690545344,4.5234,0.61149997,-2.2045999,6.440757,7.050043,5.544961499999999,-1
117,118,1580690545354,4.7888,0.94579995,-1.8240999,6.3920107,7.1576960000000005,6.132326,-1
118,119,1580690545365,4.5178,1.0042,-1.2822,5.946000000000001,7.221094,6.8790298,-1
119,120,1580690545376,3.3539,1.02,0.4822,5.517773,7.149133999999999,7.848662400000001,-1
120,121,1580690545386,2.7108998,0.87369996,1.1201999,4.911168599999999,6.993511,8.548267,-1
121,122,1580690545396,2.1741,0.9205,1.4758999,4.512141000000001,7.034308,8.841203,-1
122,123,1580690545406,1.9729999,1.0403,1.5921999,4.498983,7.1192546000000005,8.8719635,-1
123,124,1580690545416,1.8928,0.9794,1.4871,4.4998059999999995,7.028505,8.709924,-1
124,125,1580690545426,1.8928,0.9794,1.4871,4.2962226999999995,6.8399186,8.605795,-1
125,126,1580690545436,1.1933,0.6296,1.5254999,4.0014677,6.683414,8.736596,-1
126,127,1580690545446,0.92149997,0.5651,1.9433,3.7329147000000003,6.554855,9.218385000000001,-1
127,128,1580690545456,0.5549,0.45769998,2.1652,3.3560866999999996,6.408578400000001,9.405275999999999,-1
128,129,1580690545467,0.1677,0.2832,2.3237997999999997,3.0815485000000002,6.1802964000000005,9.592935,-1
129,130,1580690545477,-0.0207,0.1283,2.472,2.9913156,6.060893,9.692045,-1
130,131,1580690545487,-0.0993,0.0896,2.4345999,2.9672777999999997,5.994142500000001,9.642906,-1
131,132,1580690545497,-0.0008,0.14649999,2.4777,3.113372,6.024156,9.735207,-1
132,133,1580690545507,0.0786,0.1304,2.5635,3.1961157000000004,5.9682565,9.783828999999999,-1
133,134,1580690545517,-0.0453,0.0967,2.3607,3.0564282000000005,5.9164367,9.530187,-1
134,135,1580690545527,-0.35189998,0.0050999997,1.9478999,2.7713554,5.8091764,9.080153,-1
135,136,1580690545537,-0.5293,-0.0645,1.2953,2.701943,5.7964964000000005,8.35404,-1
136,137,1580690545548,-0.5099,0.0279,0.6071,2.7471740000000002,5.8703145999999995,7.7227369999999995,-1
137,138,1580690545558,-0.5561,-0.025899999,0.28959998,2.6990027000000003,5.7808385,7.4504113,-1
138,139,1580690545568,-0.77529997,-0.18509999,0.24319999,2.46168,5.645135,7.4496164,-1
139,140,1580690545578,-0.8583,-0.1664,0.4513,2.5019026,5.6989183,7.7348037,-1
140,141,1580690545588,-0.79969996,-0.099599995,0.73139995,2.5816103999999997,5.8115606,7.908555499999999,-1
141,142,1580690545598,-0.7743,0.0418,0.7715,2.6370218,5.923456,7.861304,-1
142,143,1580690545608,-0.73149997,0.1392,0.6893,2.7295911,6.0403028,7.723617999999999,-1
143,144,1580690545618,-0.6385,0.2821,0.39399999999999996,2.842291,6.2325473,7.3495193,-1
144,145,1580690545628,-0.5607,0.4436,0.1173,3.0395539,6.3863606,7.0391064,-1
145,146,1580690545639,-0.29009998,0.5478,-0.0655,3.2760916,6.4824257,6.963277000000001,-1
146,147,1580690545649,-0.2563,0.6058,0.0982,3.1823057999999995,6.5622196,7.259334599999999,-1
147,148,1580690545659,-0.5572,0.6556,0.5897,2.837081,6.559289,7.782189999999999,-1
148,149,1580690545669,-0.93009996,0.5564,1.0306,2.4306223,6.394778700000001,8.100035,-1
149,150,1580690545679,-1.1840998999999999,0.41189998,1.1425999,2.2816455,6.3400474,8.027567,-1
150,151,1580690545690,-1.2648,0.3084,0.8907,2.3286006,6.250667,7.7097125,-1
151,152,1580690545700,-1.0864999,0.2474,0.6279,2.5242834,6.304546,7.377378500000001,-1
152,153,1580690545710,-0.98039997,0.2914,0.40899998,2.6571522,6.3765345,7.216411,-1
153,154,1580690545720,-0.85139996,0.3473,0.41239998,2.7719588,6.521317,7.3501225,-1
154,155,1580690545730,-0.76309997,0.4775,0.603,2.794838,6.642607000000001,7.499233199999999,-1
155,156,1580690545740,-0.7714,0.51449996,0.7147,2.7657435,6.632618400000001,7.5074119999999995,-1
156,157,1580690545751,-0.78859997,0.44579998,0.5445,2.7163177000000003,6.5338817,7.1410035999999995,-1
157,158,1580690545761,-0.8373,0.3279,0.1744,2.6312373,6.4533887000000005,6.7922735,-1
158,159,1580690545771,-0.8462,0.257,-0.1056,2.6358342,6.473337,6.562056500000001,-1
159,160,1580690545781,-0.8308,0.282,-0.32209998,2.6011374,6.4629273000000005,6.274082,-1
160,161,1580690545792,-0.8305,0.20709999,-0.6222,2.6094402999999997,6.462429,6.0594945,-1
161,162,1580690545802,-0.7963,0.2306,-0.70409995,2.6769855,6.5083117,6.1331690000000005,-1
162,163,1580690545812,-0.7359,0.22809999,-0.5617,2.5400662,6.458359,6.391494000000001,-1
163,164,1580690545822,-0.8908,0.1607,-0.2661,2.4193888,6.448093,6.628644,-1
164,165,1580690545832,-0.9456,0.1158,-0.042799998,2.5118816,6.4143248,6.775859,-1
165,166,1580690545842,-0.83339995,0.0923,0.0707,2.5392997000000004,6.4342356,6.7557287,-1
166,167,1580690545852,-0.8093,0.0885,0.0274,2.6407950000000002,6.4612417,6.729335000000001,-1
167,168,1580690545862,-0.65819997,0.1432,0.0435,2.8630917,6.5728016,6.7942176,-1
168,169,1580690545872,-0.43919998,0.2184,0.0985,2.9263369999999997,6.581785000000001,6.7622504,-1
169,170,1580690545882,-0.4242,0.19569999,0.024999999,2.7617307,6.645662299999999,6.6177363,-1
170,171,1580690545893,-0.57409996,0.27089998,-0.0982,2.6388316,6.713916,6.5430470000000005,-1
171,172,1580690545902,-0.6264,0.30699998,-0.14289999,2.6795428,6.7762899999999995,6.5308075,d
172,173,1580690545912,-0.5542,0.363,-0.1275,2.6994145,6.866465600000001,6.727764,-1
173,174,1580690545922,-0.52309996,0.4592,0.1135,2.7964852000000002,6.9021196,6.9228725,-1
174,175,1580690545932,-0.34469998,0.44869998,0.3827,3.042312,6.925372,7.359728,-1
175,176,1580690545942,-0.1471,0.48799998,0.7593,3.258499,7.010127000000001,7.6757727,-1
176,177,1580690545952,0.0806,0.5462,1.0577999,3.4763138,7.009035000000001,7.6931734,-1
177,178,1580690545963,0.30969998,0.52349997,0.9953,3.6185775000000002,7.0777197,7.421000500000001,-1
178,179,1580690545973,0.46159998,0.5954,0.70019996,3.8090696000000004,7.234884700000001,7.077642999999999,-1
179,180,1580690545983,0.8104,0.8118,0.27989998,4.2799997,7.343389999999999,6.8003564,-1
180,181,1580690545993,1.1807,0.7917,0.1836,4.375126,7.3183465,6.7313557,-1
181,182,1580690546004,1.2429999,0.75049996,0.096,4.3222523,7.201797,6.761359700000001,-1
182,183,1580690546014,1.1948,0.5693,0.19409999,4.1186876,6.9550410000000005,6.919693,-1
183,184,1580690546024,0.98579997,0.29600000000000004,0.3427,3.7061284,6.6143174,6.8019943,-1
184,185,1580690546034,0.5969,-0.1015,0.1422,3.1530487999999997,6.077997,6.2064129999999995,-1
185,186,1580690546044,0.18349999,-0.604,-0.34700000000000003,2.666748,5.609672,5.649004,-1
186,187,1580690546055,-0.2553,-1.1204,-0.88229996,2.038184,5.0981746,4.954628,-1
187,188,1580690546064,-0.8265,-1.6771,-1.5552,1.605523,4.7255797,4.5195155,-1
188,189,1580690546074,-1.2770000000000001,-2.1720998,-2.0351999,1.3585466,4.3830557,4.272578,-1
189,190,1580690546084,-1.4441,-2.5135,-2.2366,1.1949077,4.371439,4.0022335,-1
190,191,1580690546094,-1.4954,-2.4556,-2.5614998,1.3304387,4.5653690000000005,3.5210277999999997,-1
191,192,1580690546105,-1.2537999,-2.3327,-3.0193,1.7162595,4.683307599999999,3.1384152999999997,-1
192,193,1580690546116,-0.4775,-2.1905,-4.5460997,2.0423593999999996,4.7571639999999995,1.9173821,-1
193,194,1580690546126,-0.1174,-2.1657,-5.6505,2.4208252,4.796084,0.69020045,-1
194,195,1580690546136,-0.1174,-2.1657,-5.6505,2.4012504,4.918121,0.39755240000000003,-1
195,196,1580690546146,-0.4978,-2.1169,-6.4294,1.8578526999999998,4.8469462,0.083816215,-1
196,197,1580690546156,-0.4978,-2.1169,-6.4294,1.2951576999999999,4.485575,0.0053151280000000006,-1
197,198,1580690546166,-1.1481999,-2.6018,-6.5305,0.13593319,3.8980477,-0.19128715,-1
198,199,1580690546177,-2.8974,-3.7131,-7.3314996,-0.8062714,3.2260717999999997,-0.7200801,-1
199,200,1580690546187,-3.4387999,-4.411299700000001,-8.22,-1.5283625,2.401164,-1.8078521,-1
200,201,1580690546197,-3.5779998,-4.8499,-9.6875,-1.6361208,1.9640881000000001,-3.2910888,-1
201,202,1580690546207,-3.5779998,-4.8499,-9.6875,-1.2026458999999998,1.7830577,-4.4219375,-1
202,203,1580690546217,-2.3402,-5.1177998,-12.474299,-0.44480437,1.6606468999999997,-5.8640604000000005,-1
203,204,1580690546227,-1.7875999,-5.3048997,-13.5843,0.10660902,1.3269911,-6.950558999999999,-1
204,205,1580690546238,-1.7875999,-5.3048997,-13.5843,0.39695865,0.9595769000000001,-7.158212700000001,-1
205,206,1580690546248,-1.3464,-6.2542,-13.9695,0.17355089,0.07742848,-6.71179,-1
206,207,1580690546258,-2.1013,-7.0347,-13.6036,-0.51908207,-0.7300112,-6.280661599999999,-1
207,208,1580690546268,-2.9884,-8.0935,-13.0241995,-1.8325125,-2.5562987,-5.1716385,-1
208,209,1580690546278,-3.9824998,-9.191,-12.319799,-2.988299,-3.7257415999999997,-4.384367500000001,-1
209,210,1580690546288,-5.0759,-9.901899,-12.050799000000001,-3.6775032999999997,-4.4611444,-4.1504445,-1
210,211,1580690546299,-5.2281,-10.6375,-11.960199000000001,-3.3045058,-5.5208855,-4.0613036,-1
211,212,1580690546309,-4.1875,-10.8986,-12.4164,-2.3386272999999997,-5.832313500000001,-4.2033277,-1
212,213,1580690546319,-2.8711,-11.0036,-11.839399,-0.6928724,-6.2777023000000005,-2.9133124,-1
213,214,1580690546329,-1.8027999,-10.9032,-10.7720995,0.40874767,-6.644446,-1.8335084,-1
214,215,1580690546339,-0.82799995,-11.3234,-9.6213,1.2503191999999999,-7.715659599999999,0.060353033,-1
215,216,1580690546349,-0.7005,-12.1255,-6.8686,1.2069172,-8.920193,3.346864,-1
216,217,1580690546359,-0.6943,-12.8565,-3.8453998999999994,1.5841954,-10.314058000000001,6.412161,-1
217,218,1580690546369,-0.32349998,-13.8052,-1.1481999,1.9006512999999998,-11.468599000000001,8.559472999999999,-1
218,219,1580690546379,-0.49789998,-14.194799,0.4411,1.8390629,-12.163569,9.9297695,-1
219,220,1580690546389,0.084699996,-13.6852,1.1298,2.9040325,-12.1914,10.935976,-1
220,221,1580690546399,2.5275,-12.990999,4.3294,6.1208725,-11.846442999999999,15.618154,-1
221,222,1580690546409,4.3236,-11.615,9.0687,7.837793,-11.292731,20.628613,-1
222,223,1580690546420,5.9042997,-11.049000000000001,15.1728,8.438373,-11.507061,27.39228,-1
223,224,1580690546430,4.9575996,-10.5384,21.8427,7.0053673,-11.683444999999999,33.523144,-1
224,225,1580690546440,2.7317998,-9.8864,26.612299,4.6330867,-11.250009,36.51263,-1
225,226,1580690546450,1.2330999,-8.7134,26.6111,4.247438400000001,-10.1251745,33.36674,-1
226,227,1580690546460,1.9444,-7.224,22.1294,5.394845,-8.649255,27.889645,-1
227,228,1580690546470,2.8676999,-5.4761996,16.5808,5.8429150000000005,-7.411663000000001,23.40401,-1
228,229,1580690546481,3.0042999,-3.8026,11.2704,5.6554494,-5.863601,17.974957,-1
229,230,1580690546491,2.7614,-2.5989999999999998,8.2555,5.4075537,-5.3689013,17.165689999999998,-1
230,231,1580690546501,2.6606998,-2.03,8.9836,5.292373,-4.8896875,19.415492999999998,-1
231,232,1580690546512,2.6647,-1.2919999,11.6605,4.8226595,-4.695671599999999,22.166351000000002,-1
232,233,1580690546522,2.0509,-1.0236,14.3399,3.7726202000000004,-4.8727655,23.825256,-1
233,234,1580690546532,0.9941,-0.96989995,15.1271,2.5070547999999997,-5.0966716,22.800547,-1
234,235,1580690546542,0.15799999,-0.9271,13.8215,2.1860687999999997,-5.113421,21.562294,-1
235,236,1580690546552,-0.099599995,-0.7536,11.5961,1.9005938999999998,-4.9971013,18.646358,-1
236,237,1580690546562,-0.3511,-0.4922,9.1993,1.6056953999999999,-4.4461949999999995,16.551614999999998,-1
237,238,1580690546572,-0.41979998,0.2033,7.9238,1.9528737,-3.6117203,16.227028,-1
238,239,1580690546583,0.0718,1.1287999,7.7474,2.5643432,-2.9108512,16.058313000000002,-1
239,240,1580690546593,0.8091,1.8305999,7.5720997,3.1924189999999997,-2.580078,15.854346,-1
240,241,1580690546603,1.5342,2.2405,7.4568,3.5898468,-2.310079,15.933747,-1
241,242,1580690546613,1.9821999,2.5844,7.5783997,3.6141623999999997,-2.1665037,16.117613000000002,d
242,243,1580690546623,2.0874999,2.8284,7.8458996,3.2726152,-2.0783012,16.330256,-1
243,244,1580690546634,1.7646998999999999,2.9603999,8.0282,2.613252,-2.2046862000000003,16.166895,-1
244,245,1580690546644,1.1669999,2.8458997999999998,7.7960997,1.7527183999999998,-2.5376146,15.462807999999999,-1
245,246,1580690546654,0.50589997,2.5732,7.1674,1.3328904,-2.7507749,14.924697,-1
246,247,1580690546664,-0.1884,2.2266998,6.2511,0.40216842,-3.1617922999999997,13.583523000000001,-1
247,248,1580690546674,-0.76659995,1.8936,5.2471,0.21234654,-3.3536637000000002,12.915032,-1
248,249,1580690546685,-0.98829997,1.5554999,4.1013,0.15071021,-3.6022870000000005,11.605299,-1
249,250,1580690546695,-0.3023,1.5045998999999999,2.4094,0.66736937,-3.4641129999999998,10.829185,-1
250,251,1580690546705,0.4423,1.8211,2.3961,1.344689,-3.1131709,10.839489,-1
251,252,1580690546715,0.4423,1.8211,2.3961,2.0650468,-2.763426,10.991598,-1
252,253,1580690546725,1.5863999,2.3407,2.5642998,2.405215,-2.5290527000000003,11.060541,-1
253,254,1580690546736,1.5097,2.2614,2.6141999,2.3331207999999997,-2.5652627999999997,11.128613,-1
254,255,1580690546746,1.178,1.9454,2.4836,2.020304,-2.8113099999999998,11.031725,-1
255,256,1580690546756,0.68729997,1.5995,2.1334999,1.4750581,-3.150712,10.629758,-1
256,257,1580690546766,0.68729997,1.5995,2.1334999,1.1441219999999999,-3.450533,10.255851,-1
257,258,1580690546777,-0.1094,0.73649997,1.1343,0.832033,-3.7926452000000004,9.788282,-1
258,259,1580690546787,-0.2802,0.4572,0.7644,0.6689016999999999,-4.00254,9.463331,-1
259,260,1580690546797,-0.3301,0.3225,0.6721,0.64818704,-4.069358,9.399185000000001,-1
260,261,1580690546807,-0.1556,0.30069998,0.6605,0.83060604,-4.016934,9.450153,-1
261,262,1580690546817,-0.1556,0.30069998,0.6605,1.0460075,-4.024682,9.712271000000001,-1
262,263,1580690546827,0.2006,0.19849999,1.3944,1.1133612,-3.9988627,10.287396000000001,-1
263,264,1580690546837,0.08,0.13939999,1.4603,0.9872825999999999,-3.9872940000000003,10.268435,-1
264,265,1580690546847,-0.105399996,-0.036000000000000004,1.1901,0.775367,-4.143961,10.065885,-1
265,266,1580690546857,-0.6055,-0.28239998,1.0375,0.33939245,-4.2678657,9.968451,-1
266,267,1580690546868,-0.6055,-0.28239998,1.0375,-0.31389898,-4.583957700000001,9.689938,-1
267,268,1580690546878,-1.7638999,-1.0800999,0.315,-0.92590487,-4.9107857,9.284676,-1
268,269,1580690546888,-1.8657,-1.0205,0.48189998,-0.7850109000000001,-4.634648,9.802819,-1
269,270,1580690546898,-1.3332,-0.76919997,1.2501999,-0.27620468,-4.414821599999999,10.422717,-1
270,271,1580690546908,-0.85609996,-0.49839997,1.7744,0.21654119,-4.0003757,11.049519,-1
271,272,1580690546919,-0.85609996,-0.49839997,1.7744,0.47058514,-3.6505062999999995,11.525505,-1
272,273,1580690546929,-0.3965,0.0009,2.6345,0.60951585,-3.4240722999999997,11.880623,-1
273,274,1580690546939,-0.41700000000000004,0.091199994,2.9106998,0.49553272,-3.2638907,12.127215,-1
274,275,1580690546949,-0.5394,0.2163,3.0089,0.38368517,-3.0641088,12.1941,-1
275,276,1580690546960,-0.6859,0.2386,2.9780998,0.19380583,-2.99936,12.191132000000001,-1
276,277,1580690546970,-0.9604,0.1664,2.9756,-0.12660539,-3.0231872,12.257968,-1
277,278,1580690546980,-1.175,-0.0115,3.0509999,-0.3574735,-3.1279192000000005,12.588884,-1
278,279,1580690546990,-1.4512,-0.1876,3.4794,-0.6220998000000001,-3.2075791000000002,13.028527,-1
279,280,1580690547000,-1.7788,-0.42119998,3.8588998,-0.8129847,-3.250397,13.381241000000001,-1
280,281,1580690547010,-1.8881999,-0.48700000000000004,4.1207,-0.77865183,-3.055643,13.689298,-1
281,282,1580690547021,-1.8091999,-0.3619,4.4024,-0.57298034,-2.8190577,13.925358,-1
282,283,1580690547031,-1.5646,-0.29909998,4.5371,-0.20169713,-2.6046712000000003,14.09343,-1
283,284,1580690547041,-1.2407,-0.1322,4.7011,0.09185115,-2.2156613,14.232370000000001,-1
284,285,1580690547051,-0.96019995,0.0569,4.6981,0.35780865,-2.0114932,14.001982,-1
285,286,1580690547062,-0.77989995,0.0664,4.2243,0.51228255,-1.8555734,13.309251999999999,-1
286,287,1580690547071,-0.6874,0.0412,3.4866998,0.5129720999999999,-1.7189697,12.721322,-1
287,288,1580690547081,-0.76589996,-0.0056,2.9973,0.46423572,-1.6331806999999998,12.487074,-1
288,289,1580690547091,-0.97819996,-0.1787,2.7185,0.16713443,-1.7156273999999998,12.172409,-1
289,290,1580690547101,-1.3515999,-0.4763,2.4549,-0.20886058,-1.8739705000000002,11.959477,-1
290,291,1580690547112,-1.7131,-0.8358,2.2849998,-0.3366535,-1.8895327000000002,11.862666,-1
291,292,1580690547122,-1.8292999,-0.9787,2.1886,-0.04681143,-1.5344055,11.825787,-1
292,293,1580690547132,-1.5504999,-0.76739997,2.1457999,0.42730755,-1.0934894,11.721781,-1
293,294,1580690547142,-1.0837,-0.4488,2.0094,0.8048061,-0.61042565,11.529843,-1
294,295,1580690547152,-0.9212,-0.26,1.8579999,1.0066565,-0.30549058,11.513333,-1
295,296,1580690547163,-0.8134,-0.2516,1.8499,1.0650463,-0.35949418,11.120071000000001,-1
296,297,1580690547173,-0.8734,-0.54359996,1.3784,0.95608133,-0.38233486,10.716523,-1
297,298,1580690547183,-1.0922999,-0.7818,1.0722,1.0601143,-0.4084508,10.651056,-1
298,299,1580690547193,-1.0401,-0.9816,1.1085,1.2179973999999998,-0.23924778,10.9751835,-1
299,300,1580690547204,-1.0509,-1.0149,1.5568999,1.180667,-0.034035973,11.618735000000001,-1
300,301,1580690547214,-1.2291,-1.0695,2.1622999,1.1426758999999997,0.040816347999999995,11.877041,-1
301,302,1580690547224,-1.4132999,-1.2458999,2.4831998,1.140569,-0.00839886,11.822118,-1
302,303,1580690547234,-1.5616,-1.5069,2.5103,1.2077598999999999,-0.007776366999999999,11.414433500000001,-1
303,304,1580690547245,-1.6337,-1.7397,2.1813,1.5989916000000002,0.31566113,10.896386,-1
304,305,1580690547255,-1.3715,-1.6621,1.7451999,1.812382,0.69013345,10.263532000000001,-1
305,306,1580690547265,-1.2541,-1.4962,1.1897,1.9265853,0.9605440999999999,9.60571,-1
306,307,1580690547276,-1.0596,-1.2923,-0.449,2.1699896,1.3180176000000001,8.452461,-1
307,308,1580690547287,-1.2379999,-1.2181,-1.4861,2.020917,1.6190166000000001,7.139174499999999,-1
308,309,1580690547298,-1.4821,-1.2768999,-2.1392999,1.9191441999999999,1.7267461,6.5740757,-1
309,310,1580690547308,-1.5518,-1.2982999,-2.3188,1.9990147,1.9303491000000002,6.3245997,-1
310,311,1580690547318,-1.7391,-1.3282,-1.6043999,1.8711547999999998,2.0618196,7.049861,-1
311,312,1580690547329,-2.0454,-1.4563,-0.5182,1.8005929,2.0658321,8.075662,-1
312,313,1580690547339,-2.106,-1.6278,0.0635,1.8843995,2.0204668000000003,8.243715,-1
313,314,1580690547349,-2.1417,-1.9606999,0.0061999997,2.015056,1.8220258000000003,7.879337,-1
314,315,1580690547359,-2.0319,-2.1599998,-0.3502,2.3308895,1.9055164,7.278392299999999,-1
315,316,1580690547369,-2.0319,-2.1599998,-0.3502,2.4857464,1.9651607,6.6255507,-1
316,317,1580690547379,-2.1619,-2.4201,-1.5137999,2.0869584,1.8110700000000002,5.960806,-1
317,318,1580690547390,-2.7862,-2.6571999,-2.1199,1.4660176,1.7117201000000002,5.030428400000001,-1
318,319,1580690547400,-3.448,-2.9345,-2.8088999,0.8347624,1.3599256000000002,4.347238,-1
319,320,1580690547410,-4.1419997,-3.4413,-2.9643,0.3381858,0.99265516,4.355666,-1
320,321,1580690547420,-4.467,-3.7515,-2.6176,0.686341,1.0593768,4.752596,-1
321,322,1580690547430,-4.0029,-3.6859998999999997,-2.0830998,1.2887892,1.1520995,5.0420356,-1
322,323,1580690547440,-3.4487997999999997,-3.5619998,-1.6378,2.1826402999999996,1.4652513999999999,5.5441,-1
323,324,1580690547450,-2.7874,-3.1385999,-0.92179996,2.8454610000000002,1.9943796000000003,5.919194,-1
324,325,1580690547460,-2.1582,-2.4975998,-0.6746,3.5424511,2.4904102999999997,5.634505,-1
325,326,1580690547470,-1.9174,-2.4403,-1.0938,3.6126397000000003,2.222834,5.036912,-1
326,327,1580690547480,-2.2026,-2.7540998,-1.3449,3.334893,2.1369972,4.981146,-1
327,328,1580690547491,-2.5904999,-2.7299,-1.1683999,3.3116597999999997,2.069318,5.306068,-1
328,329,1580690547501,-2.4517,-2.9559999,-0.6261,3.6020858000000002,1.7969153999999998,5.6781559999999995,-1
329,330,1580690547512,-2.4287,-3.2299,-0.2883,3.7384503,1.7119691000000004,5.204899,-1
330,331,1580690547522,-2.125,-3.0514,-1.1487,4.7012160000000005,2.1571564999999997,4.163641,-1
331,332,1580690547532,-1.0359,-2.4199,-1.7887,5.9536805,2.7754736,3.8105445,-1
332,333,1580690547542,0.59929997,-1.5357,-1.8867999,8.114111999999999,4.319944400000001,3.8272845999999996,-1
333,334,1580690547552,1.8342999,-0.3083,-1.6883999,9.284321,4.7506129999999995,3.8550383999999998,-1
334,335,1580690547562,2.7680000000000002,-0.046299997999999995,-1.6543,9.327397999999999,4.5447407,3.4745421000000003,-1
335,336,1580690547573,2.2546,-0.36049998,-2.0999,8.30313,4.0139173999999995,3.0170772,-1
336,337,1580690547583,1.4376999,-0.8188,-2.3058,8.133084,3.7386800000000004,2.732464,-1
337,338,1580690547594,1.2718999,-1.1343,-2.7163,7.8935394,3.5029277999999997,2.281703,-1
338,339,1580690547605,0.8853,-1.2314999,-2.7998998,7.5480943,3.4275105000000003,2.6712682,-1
339,340,1580690547615,0.57989997,-1.3232,-2.3703,7.720745,3.3174922,3.0710425,-1
340,341,1580690547625,0.6942,-1.4196,-1.892,8.178708,3.4341757000000004,3.2129421000000002,-1
341,342,1580690547635,1.0798,-1.2867,-1.6653,8.8698845,3.594348,3.1955504,-1
342,343,1580690547646,2.4233,-0.9192,-1.4692,9.721876,3.826078,3.3027055,-1
343,344,1580690547656,2.5232,-0.5827,-1.1582999,9.812483,4.1342597,3.5191220999999997,-1
344,345,1580690547666,2.5832,-0.5779,-0.9892,9.9084425,4.0358005,3.5793028,-1
345,346,1580690547677,2.2993999,-0.759,-1.0299,9.548058000000001,3.8866992,3.4323945,-1
346,347,1580690547687,2.2993999,-0.759,-1.0299,9.036866,3.7504593999999996,3.3051187999999994,-1
347,348,1580690547698,1.2286,-1.0562999,-1.2249,8.604464,3.623471,3.1140997,-1
348,349,1580690547708,0.9665,-1.1255,-1.4782,8.327302,3.5675616000000003,2.7102458,-1
349,350,1580690547718,0.807,-1.2046,-1.7191,8.183219,3.5417235000000002,2.5153484,-1
350,351,1580690547729,0.60289997,-1.1740000000000002,-1.8709999,8.026523,3.5908620000000004,2.3564498,-1
351,352,1580690547739,0.5494,-1.1315,-1.8742,7.9785047,3.6721404000000004,2.4393467999999996,-1
352,353,1580690547749,0.43809998,-1.0777,-1.7141998999999999,7.8347955,3.7323593999999995,2.5435423999999998,-1
353,354,1580690547759,0.26839998,-1.0537,-1.5541999,7.7047419999999995,3.7668262,2.647518,-1
354,355,1580690547770,0.2254,-1.0109,-1.568,7.725227,3.8362582,2.5266395,-1
355,356,1580690547780,0.21139999,-1.0073,-1.689,7.6301103,3.8820638999999995,2.4056268,-1
356,357,1580690547790,0.118999995,-0.87659997,-1.7407,7.689247,4.014645,2.5429008,-1
357,358,1580690547800,0.23169999,-0.80439997,-1.3987,7.720323599999999,4.1263013,2.8605156000000003,-1
358,359,1580690547810,0.1682,-0.76159996,-1.0764999,7.4204836,4.1252575,3.1453393,-1
359,360,1580690547821,-0.2552,-0.7974,-0.7988,6.9674716,4.0006056,3.2086325,-1
360,361,1580690547831,-0.6752,-0.98829997,-0.8824,6.7249775,3.8937477999999994,3.060575,-1
361,362,1580690547841,-0.74109995,-1.0174,-1.0229,6.999927499999999,3.993174,2.9000201,-1
362,363,1580690547851,-0.2708,-0.84319997,-1.1467999,7.595681699999999,4.284232599999999,2.8827434,-1
363,364,1580690547862,0.3504,-0.48839998,-1.1371,8.151203,4.6108400000000005,2.838173,-1
364,365,1580690547871,0.78889996,-0.1433,-1.0961,8.396618,5.1413283,3.0834348,-1
365,366,1580690547881,0.91969997,0.4057,-0.74149996,8.517928,5.502756,3.2730078999999996,-1
366,367,1580690547891,0.99259996,0.6477,-0.6688,8.454884,5.6323214,3.1422174,-1
367,368,1580690547901,0.8443,0.68979996,-0.80539995,8.335921,5.599961,2.9931447999999996,-1
368,369,1580690547912,0.8293,0.5931,-0.9903,8.57831,5.4334492999999995,2.675281,-1
369,370,1580690547922,1.1133,0.35999998,-1.2938,8.794276,5.145743,2.5289092,d
370,371,1580690547933,1.2813,0.1471,-1.2971,9.113835,4.9798627,2.7037816,-1
371,372,1580690547943,1.6423999,0.013999999499999999,-1.0708,9.539102999999999,5.1876607,2.9955868999999997,-1
372,373,1580690547953,2.0564,0.3227,-0.77419996,10.018163000000001,5.7850327,3.0304945,-1
373,374,1580690547969,2.6132,0.91459996,-0.8009999999999999,10.7229395,6.186138,2.8398678,-1
374,375,1580690547980,4.3006,1.703,-1.0913,12.306839,6.683308599999999,2.4092374,-1
375,376,1580690547991,4.9132,1.5661,-1.2574999,12.974581,6.3460426,2.7725334,-1
376,377,1580690548001,5.5731997,1.1205,-0.655,13.204617,6.0348916,3.176148,-1
377,378,1580690548011,5.545099700000001,0.70699996,-0.3683,12.740246,5.4841104000000005,3.2737932,-1
378,379,1580690548021,4.9093,-0.0066,-0.3039,11.973192,4.8254657,3.196192,-1
379,380,1580690548031,4.2826,-0.6985,-0.36249998,11.580715,4.357926,2.9885287,-1
380,381,1580690548041,4.1025,-1.1050999,-0.63699996,11.632995,4.172921,2.6534936,-1
381,382,1580690548052,4.3549,-1.3027999,-0.9446,12.022523,4.221897,2.3543525,-1
382,383,1580690548062,4.8979,-1.2063,-1.1736,12.553422,4.5554,1.9793918000000001,-1
383,384,1580690548072,5.5139,-0.90809995,-1.714,13.422968,4.953718,1.0403381999999999,-1
384,385,1580690548082,6.285599700000001,-0.745,-2.3527,13.983507999999999,4.9496098,0.61950445,-1
385,386,1580690548093,6.7795997,-0.8743,-2.6732,14.078596,4.69841,0.46326846,-1
386,387,1580690548103,7.0053997,-1.3230000000000002,-2.7103999,14.735306,4.1993339999999995,0.27039158,-1
387,388,1580690548113,7.8953996,-1.9415,-2.873,15.187666,3.767123,-0.07041826,-1
388,389,1580690548123,8.084499000000001,-2.4473,-3.1413999,14.877225,3.117375,0.031795,-1
389,390,1580690548133,7.9659,-3.3372998,-3.0819,14.723622,2.308039,-0.5168794,-1
390,391,1580690548143,7.8703,-4.2465,-3.7487998,14.279248999999998,1.5119767,-1.3765126,-1
391,392,1580690548154,7.5428996,-5.2415,-4.6341,13.943429,0.5934939,-2.1867490000000003,-1
392,393,1580690548163,7.3950996,-6.3089,-5.3791,13.769810999999999,-0.28849173,-2.7587047,-1
393,394,1580690548173,7.4041996,-7.210099700000001,-5.9330997000000005,13.750484,-0.6716023,-3.419782,-1
394,395,1580690548183,7.6061997,-7.6801,-6.5730996,13.848101000000002,-0.8663179,-3.5420968999999998,-1
395,396,1580690548193,7.8048997,-8.036099,-6.603399799999999,13.466168,-1.2614952,-3.8735406,-1
396,397,1580690548204,7.468,-8.6859,-7.0813,12.13301,-2.2708044,-4.832227,-1
397,398,1580690548214,6.1341,-9.9248,-8.0171995,10.08591,-3.5605322999999998,-5.663436,-1
398,399,1580690548224,4.2798,-11.519899,-8.7961,6.7305894,-6.066505,-6.127921,-1
399,400,1580690548234,1.5996,-13.8524,-9.1629,2.4015377,-8.262658,-6.09242,-1
400,401,1580690548245,-2.4384,-16.1854,-9.2231,-1.9149591000000001,-9.8824215,-5.6034665,-1
401,402,1580690548255,-6.4351997,-17.915699,-8.8884,-5.406682,-10.995419,-5.647357,-1
402,403,1580690548265,-9.6381,-19.1141,-9.1325,-7.550267999999999,-11.4514,-6.076187,-1
403,404,1580690548276,-11.531799000000001,-19.5865,-9.783899,-8.157772999999999,-11.735399000000001,-6.395622,-1
404,405,1580690548286,-12.606299,-19.9224,-10.3075,-8.9616785,-11.809064999999999,-6.2048707,-1
405,406,1580690548296,-12.606299,-19.9224,-10.3075,-11.349388000000001,-11.889461500000001,-3.6328754,-1
406,407,1580690548306,-18.2906,-19.969599,-4.2026,-15.668679999999998,-12.067791999999999,1.19056,-1
407,408,1580690548316,-18.2906,-19.969599,-4.2026,-18.921087,-12.592409,4.2870865,-1
408,409,1580690548327,-22.3146,-20.3354,-0.6681,-22.693794,-14.721592000000001,7.787523700000001,-1
409,410,1580690548337,-29.2711,-24.5551,3.8091998,-26.420685,-17.768663,9.808413,-1
410,411,1580690548348,-30.7802,-26.5255,5.4702997,-27.375168,-19.833242000000002,11.982635,-1
411,412,1580690548358,-30.2664,-27.090999999999998,7.9396,-26.406033,-20.326035,14.691329000000001,-1
412,413,1580690548368,-28.047499,-25.4516,10.215899,-23.430212,-18.819996,17.27747,-1
413,414,1580690548378,-23.706799,-23.0712,13.293698999999998,-18.666296,-16.845633,20.877285,-1
414,415,1580690548388,-19.6623,-20.5059,17.5684,-14.585783,-14.888803,25.558410000000002,-1
415,416,1580690548398,-16.6514,-18.3694,21.758799,-11.491124000000001,-13.443558,29.777624,-1
416,417,1580690548408,-13.975598999999999,-16.8186,24.3664,-8.653172,-12.614722,32.303783,-1
417,418,1580690548418,-11.3468,-15.46,25.0061,-5.462036,-11.660433,32.48722,-1
418,419,1580690548428,-8.9053,-14.1957,23.7468,-2.981557,-11.122944,31.258907,-1
419,420,1580690548439,-6.6085,-13.157599,22.7307,-0.78861177,-10.53262,30.837078,-1
420,421,1580690548449,-4.4999,-11.8482,22.972399,1.2927923000000001,-9.65775,31.604631,-1
421,422,1580690548459,-2.3028998,-10.5271,23.8298,3.6244,-8.905118,32.825645,-1
422,423,1580690548469,0.50299996,-9.2302,25.1157,6.51401,-8.204345,33.91338,-1
423,424,1580690548480,3.3184998,-8.2669,25.212398999999998,9.079722,-7.7799106,33.830967,-1
424,425,1580690548489,6.3701,-7.3522997000000005,25.0632,11.263417,-7.074080499999999,33.612312,-1
425,426,1580690548499,7.4971,-6.2964,23.8498,12.13866,-6.851611,32.026375,-1
426,427,1580690548510,8.842299,-6.5403,22.2039,13.286498000000002,-7.4945889999999995,30.559887,-1
427,428,1580690548519,10.2153,-6.462000000000001,20.75,14.3791065,-7.249796000000001,29.33103,-1
428,429,1580690548529,11.4937,-5.8726997,19.7974,15.396747,-6.7204,28.650406,-1
429,430,1580690548540,13.046599,-4.9530997,18.8232,17.158133,-6.046106299999999,27.526328999999997,-1
430,431,1580690548550,15.9675,-4.3157,17.32,19.98312,-5.27841,25.4215,-1
431,432,1580690548560,16.8335,-3.4826,15.2519,18.160316,-4.802137,23.3257,-1
432,433,1580690548570,15.4275,-3.7573,13.1367,17.378532,-5.9790015,21.27186,-1
433,434,1580690548580,15.4732,-4.8497,10.5604,17.398674,-6.3104167,18.217222,-1
434,435,1580690548590,16.1122,-4.9512997,7.5652,18.066301,-6.228669,16.413823999999998,-1
435,436,1580690548601,17.9392,-4.6421,5.9681,19.978693,-5.2481475,14.882423999999999,-1
436,437,1580690548611,19.893,-3.7363,4.3554997,21.429121,-4.2830257000000005,12.758529,-1
437,438,1580690548621,21.3347,-2.8838,1.9794999,22.276342,-3.493667,10.295757,-1
438,439,1580690548631,21.8519,-2.3829,-0.318,22.4092,-3.2190714,8.079607000000001,-1
439,440,1580690548641,22.225899,-2.4234,-2.5491998,22.46196,-3.1699037999999997,5.967845,-1
440,441,1580690548651,22.719,-2.5846,-4.4514,23.306988,-3.0454435,4.872363,-1
441,442,1580690548662,23.595299,-2.1594,-5.0459,23.861245999999998,-1.7189124,5.0168867,-1
442,443,1580690548673,24.0611,-1.0643,-4.6478,24.009926,-0.6416556,5.841891,-1
443,444,1580690548683,24.010199,-0.0095999995,-3.8365998,23.475693,0.30272287,6.4019613,-1
444,445,1580690548693,23.289799,0.6997,-3.3974,22.099249,0.39167225,6.1001673,-1
445,446,1580690548703,21.615799,0.5735,-3.8892998999999997,19.978289999999998,-0.15554649,4.841085400000001,-1
446,447,1580690548714,19.4763,-0.1069,-5.3417,18.343138,-0.96582097,2.2818273999999996,-1
447,448,1580690548724,18.1605,-0.8055,-7.5288,17.884235,-1.2686205,0.6506291000000001,-1
448,449,1580690548734,17.5283,-1.2408999,-9.420899,16.75196,-1.9274856,-0.014556747,-1
449,450,1580690548745,16.4737,-1.8241999,-9.802199,14.94094,-2.9243642999999997,0.88746357,-1
450,451,1580690548755,14.623899,-2.7759,-8.927899,12.428684,-4.2378902,2.3002532,-1
451,452,1580690548765,12.059299000000001,-4.0065,-7.5028996,9.690838000000001,-5.461663,2.9295645,-1
452,453,1580690548775,7.1025996,-6.1459,-6.6594996,7.611809299999999,-6.496417500000001,3.134259,-1
453,454,1580690548786,5.894,-6.486000000000001,-6.7475,6.541303599999999,-6.889075999999999,3.0387017999999997,-1
454,455,1580690548796,6.2181,-6.388,-6.8018,7.035735000000001,-6.844084,2.9725737999999997,-1
455,456,1580690548806,6.8815,-6.1974998,-6.5969,7.8664179999999995,-6.7194804999999995,3.1589096000000003,-1
456,457,1580690548816,6.4605,-6.6,-6.065,7.334129300000001,-7.385777,3.9046175,-1
457,458,1580690548826,4.4296,-7.446099799999999,-4.3816,5.2478123,-8.341274,5.74188,-1
458,459,1580690548837,1.7235999,-8.1479,-2.2407,2.6791692000000005,-9.145227,7.7975607,-1
459,460,1580690548847,-0.6805,-8.8111,-0.54289997,0.5613541,-9.930066,9.412105,-1
460,461,1580690548858,-2.4055,-9.2795,1.0461999,-1.0472238999999999,-10.566924,11.13547,-1
461,462,1580690548868,-3.5507,-9.495299000000001,2.2714,-1.7788918000000002,-10.662654,12.215188000000001,-1
462,463,1580690548878,-4.2211,-9.0248995,3.3464,-1.8311238,-10.108913000000001,13.103437,-1
463,464,1580690548888,-3.9062,-8.465099,4.1024,-1.3134111000000002,-9.811898,13.613526,-1
464,465,1580690548898,-4.0713,-8.305699,4.753,-1.6611067,-9.8707285,14.261379000000002,-1
465,466,1580690548908,-5.0158997,-8.4972,5.1979,-2.4032805,-10.2140665,14.597774,-1
466,467,1580690548919,-5.8359,-8.8404,5.7595,-3.1333396000000002,-10.648116,15.332267000000002,-1
467,468,1580690548929,-7.1071,-9.1915,6.8389997000000005,-4.595679799999999,-11.003588,16.488224,-1
468,469,1580690548939,-9.111199000000001,-9.109799,8.2674,-6.248263400000001,-10.623292999999999,17.748466,-1
469,470,1580690548949,-9.8913,-8.3383,9.3377,-6.2340417,-9.80439,18.577847,-1
470,471,1580690548960,-9.6123,-7.2971997,9.7955,-5.952895,-8.447548,18.553818,-1
471,472,1580690548970,-9.6769,-6.0724998,9.3934,-5.8493505,-7.331563,17.765963,-1
472,473,1580690548980,-9.538099,-5.0339,8.5595,-5.4444623,-6.3728957,16.586551999999998,-1
473,474,1580690548990,-9.109,-4.0845,7.1246996,-4.823894999999999,-5.400189,14.979733999999999,-1
474,475,1580690549000,-8.3008995,-3.11,5.6974998,-3.6143730000000005,-4.5881233,13.964220000000001,-1
475,476,1580690549010,-7.086,-2.4289,4.9407,-2.6159337000000003,-3.9045503,13.555031,-1
476,477,1580690549021,-6.3187,-1.7396,4.7507,-2.0464966,-3.3442209000000003,13.491029999999999,-1
477,478,1580690549031,-5.9184,-1.3321999,4.6593,-1.9728605,-3.098193,13.286632,-1
478,479,1580690549041,-6.1306,-1.2303,4.3812,-2.4949307000000003,-3.0713587,12.956844,-1
479,480,1580690549051,-6.7232,-1.2942,4.0417,-2.9260879,-3.1851884999999998,12.545233999999999,-1
480,481,1580690549061,-7.0007,-1.4090999,3.5498,-2.931288,-3.1042549999999998,12.016355,-1
481,482,1580690549071,-6.799299700000001,-1.2257999,3.0309,-2.3275375,-2.7857112999999996,11.457442,-1
482,483,1580690549082,-5.9206,-0.8883,2.4552,-0.97035074,-2.2430894,10.9047165,-1
483,484,1580690549092,-4.6833,-0.4166,2.0211,-0.011243171000000001,-1.8204552,10.701967,-1
484,485,1580690549102,-3.4970999,0.12619999,1.6726999,0.95996,-1.3636415000000002,10.176362,-1
485,486,1580690549112,-2.6927,0.3908,1.0392,1.2285701999999998,-1.2415086000000002,9.294052,d
486,487,1580690549122,-2.6576,0.40379998,0.2597,0.7645165,-1.3260621000000001,8.729766999999999,-1
487,488,1580690549133,-3.1366,0.257,-0.2827,0.31774887,-1.4880921999999999,8.206998,-1
488,489,1580690549143,-3.4987998,0.0647,-0.82379997,0.07769663,-1.7366008000000002,7.8266935,-1
489,490,1580690549154,-3.6611998,-0.19649999,-1.1389999,0.076528266,-1.9301288,8.017138000000001,-1
490,491,1580690549164,-3.5584998,-0.3875,-0.85389996,0.43977654,-1.978099,8.68262,-1
491,492,1580690549175,-3.1992,-0.4041,-0.30879998,0.84788257,-1.8974049,9.086292,-1
492,493,1580690549185,-2.7656999,-0.3222,0.085099995,1.5379586,-1.6412541,9.34636,-1
493,494,1580690549195,-1.5811,0.115499996,0.5226,2.0174022000000003,-1.4616985,9.522631,-1
494,495,1580690549205,-1.6593,0.050899997,0.4136,1.9372348000000001,-1.5203851000000002,9.418397,-1
495,496,1580690549215,-1.9631,-0.19839999,0.17359999,1.6206543,-1.7695258000000003,9.183563000000001,-1
496,497,1580690549226,-2.1390000000000002,-0.4518,0.0579,1.4288788000000001,-2.0180247,9.074062,-1
497,498,1580690549236,-2.1390000000000002,-0.4518,0.0579,1.5283147,-2.0901476999999997,9.083602,-1
498,499,1580690549246,-1.6603999,-0.4518,0.19,1.9238368000000001,-2.0273046000000003,9.256798,-1
499,500,1580690549256,-1.369,-0.3998,0.3132,2.2070806,-1.9695373999999999,9.358331,-1
500,501,1580690549266,-0.95559996,-0.21139999,0.39909998,2.6291493999999997,-1.8033990000000002,9.451524000000001,-1
501,502,1580690549277,-0.65279996,-0.1217,0.4567,2.8299944,-1.7491751,9.510669,-1
502,503,1580690549287,-0.7909,-0.16059999,0.39609998,2.6839576000000003,-1.7925771000000001,9.437857000000001,-1
503,504,1580690549297,-0.9975,-0.2602,0.23719999,2.4687476000000004,-1.9065314999999998,9.240172,-1
504,505,1580690549307,-0.93439996,-0.3035,0.1484,2.5357566000000005,-1.9631688999999999,9.209863,-1
505,506,1580690549317,-0.9698,-0.30539998,0.2857,2.4411662,-1.9167116999999998,9.359614,-1
506,507,1580690549328,-0.98429996,-0.3247,0.5111,2.5376909,-2.049245,9.630877499999999,-1
507,508,1580690549338,-0.88009995,-0.3618,0.66789997,2.6103406000000002,-1.9785873999999999,9.742811,-1
508,509,1580690549348,-0.7722,-0.2811,0.784,2.676909,-1.9755228999999999,9.882556,-1
509,510,1580690549358,-0.7809,-0.27989998,0.8702,2.5865805,-1.9994936,9.910501,-1
510,511,1580690549368,-0.9456,-0.3396,0.84779996,2.4076667,-2.0535834,9.878964,-1
511,512,1580690549378,-1.0409,-0.3324,0.7366,2.3614203999999996,-2.0740778000000004,9.709302000000001,-1
512,513,1580690549389,-0.9597,-0.3358,0.61539996,2.4936664,-2.0316622,9.692053999999999,-1
513,514,1580690549399,-0.7829,-0.2219,0.7011,2.73391,-1.8620759999999998,9.796585,-1
514,515,1580690549409,-0.40359998,-0.0009,0.8663,3.224281,-1.6419626,10.003922,-1
515,516,1580690549419,0.0316,0.2871,1.1304,3.5491645,-1.3289831,10.316079,-1
516,517,1580690549429,0.2608,0.40579998,1.3744,3.6294181000000005,-1.3535093,10.519471000000001,-1
517,518,1580690549440,0.1884,0.3542,1.4893,3.3410702000000003,-1.4348929,10.510995,-1
518,519,1580690549450,-0.1638,0.2192,1.3859,2.9532766,-1.6497965,10.354377000000001,-1
519,520,1580690549460,-0.5603,-0.0266,1.2409999,2.4573894,-1.8528631999999998,10.277925,-1
520,521,1580690549470,-1.0800999,-0.2244,1.1434,1.9613492,-2.025734,10.171277,-1
521,522,1580690549480,-1.4492999,-0.3737,0.99549997,1.7570376,-2.1150951,9.994615,-1
522,523,1580690549490,-1.5327,-0.4051,0.857,1.7594508999999998,-2.088692,9.942746000000001,-1
523,524,1580690549500,-1.4218,-0.3575,0.8077,1.9129957999999998,-1.9820925,9.9303255,-1
524,525,1580690549510,-1.226,-0.2906,0.8183,2.0771518,-1.8813925,10.025058999999999,-1
525,526,1580690549520,-1.1127,-0.20459999,0.9874,2.114061,-1.78957,10.302605,-1
526,527,1580690549530,-1.1022999,-0.1399,1.295,2.0735033,-1.779275,10.636596,-1
527,528,1580690549541,-1.1752,-0.1866,1.6039,1.8645947,-1.7992903999999998,10.875613000000001,-1
528,529,1580690549551,-1.4264,-0.18879999,1.7851,1.7112508999999998,-1.7900488,10.932806,-1
529,530,1580690549561,-1.5644,-0.2227,1.7581999,1.5662962999999999,-1.7782598000000003,10.881494,-1
530,531,1580690549571,-1.5919999999999999,-0.2155,1.6978999,1.5213811000000002,-1.7853945,10.834309,-1
531,532,1580690549581,-1.6263,-0.2832,1.6340000000000001,1.3851415,-1.7866874,10.718899,-1
532,533,1580690549592,-1.7329999,-0.29209998,1.431,1.3098006000000002,-1.8700056,10.546113,-1
533,534,1580690549602,-1.7528,-0.41099998,1.3068,1.1898129,-1.9893038,10.44572,-1
534,535,1580690549612,-1.8483,-0.5428,1.2041998999999999,1.1153245,-2.0524628000000003,10.459463000000001,-1
535,536,1580690549622,-1.8836,-0.6282,1.2609999,1.054598,-2.1053653,10.716973,-1
536,537,1580690549633,-1.9745,-0.6845,1.5259999,0.78788394,-2.1136779999999997,11.051741,-1
537,538,1580690549643,-2.2056,-0.7205,1.8608999,0.7854418000000001,-2.014855,11.455948,-1
538,539,1580690549653,-2.1327999,-0.6095,2.2937999,0.8852705,-1.7879037,11.912628,-1
539,540,1580690549663,-2.0476,-0.4206,2.6966,0.7862175,-1.7005631,12.106511,-1
540,541,1580690549673,-2.1706998,-0.39139998,2.8516,0.41919598,-1.7493473999999998,12.260295,-1
541,542,1580690549684,-2.5602999,-0.5124,2.9842,-0.106723934,-1.9059283,12.369145,-1
542,543,1580690549694,-3.0139,-0.71559995,3.0563998,-0.570567,-2.1062176,12.326203,-1
543,544,1580690549704,-3.4104997999999997,-0.92539996,2.9717,-1.0502692,-2.2686593999999998,12.227179,-1
544,545,1580690549715,-3.9118,-1.1618,2.9178,-1.4294821000000002,-2.360185,12.419039999999999,-1
545,546,1580690549725,-4.2507997,-1.4614999,3.6286,-1.5353537,-2.5035977000000003,13.001616499999999,-1
546,547,1580690549735,-4.2507997,-1.4614999,3.6286,-1.6306908000000002,-2.5539813,13.495512,-1
547,548,1580690549745,-4.4886,-1.6106,4.7913,-1.8219683999999998,-2.5560400000000003,14.185837,-1
548,549,1580690549755,-4.565,-1.8115,4.8995,-1.9113103999999999,-2.6902687999999997,14.315497,-1
549,550,1580690549766,-4.565,-1.8115,4.8995,-1.9506519,-2.839255,13.887108,-1
550,551,1580690549776,-4.4672,-2.2668998,4.1282,-1.7823778000000001,-2.9667797,13.547667,-1
551,552,1580690549786,-4.2337,-2.1838,4.1302,-1.5184697,-2.7720833,13.547725,-1
552,553,1580690549796,-3.7503998,-2.0965,4.4756,-1.014318,-2.593945,13.87914,-1
553,554,1580690549806,-3.0949,-1.9619,5.0729,-0.33859759999999994,-2.3566701,14.487132999999998,-1
554,555,1580690549816,-3.0949,-1.9619,5.0729,0.17656758,-2.3764174,15.015332,-1
555,556,1580690549826,-2.2465,-2.2444,5.2349997,0.53102434,-2.4507816000000004,14.64448,-1
556,557,1580690549837,-1.5356,-2.4743,4.243,1.4188519,-2.5661723999999997,13.402769000000001,-1
557,558,1580690549847,-0.95769995,-2.6341999,2.9334998,2.0418997,-2.5239192999999998,12.052947,-1
558,559,1580690549857,-0.48049998,-2.6152,1.808,2.6797342,-2.2999756000000002,10.995142,-1
559,560,1580690549867,-0.48049998,-2.6152,1.808,3.557142,-1.7099771000000001,10.731971000000001,-1
560,561,1580690549877,0.935,-1.8291998999999999,1.9880999,4.550487,-1.0048752,11.599016,-1
561,562,1580690549888,1.4090999,-1.5301,2.9901,4.913093,-0.7318117,12.297979,-1
562,563,1580690549898,1.4222,-1.5516,3.5937,5.019712,-0.66005266,12.758317,-1
563,564,1580690549908,1.3934,-1.8216,3.4886,5.280498000000001,-0.8736633,12.14296,-1
564,565,1580690549918,1.7269999999999999,-2.1113,2.4445999,5.8980966,-0.89401406,10.912894999999999,-1
565,566,1580690549928,2.3219,-2.2180998,1.5428,6.6279163,-0.83543277,10.048647,-1
566,567,1580690549938,2.7184,-2.3107998,0.8225,7.049736500000001,-0.5394806,9.308119999999999,-1
567,568,1580690549949,2.8357,-2.0691,0.5352,7.339175999999999,-0.13291651,9.061546,-1
568,569,1580690549959,2.8355,-1.8996998999999999,0.45229998,7.326372,0.21583249,8.719654,-1
569,570,1580690549969,2.391,-1.8232,0.0309,6.9738784,0.37095759999999994,8.183745,-1
570,571,1580690549979,1.9670999,-1.9365,-0.2712,6.803603,0.35786609999999996,7.686259,-1
571,572,1580690549990,1.7026,-2.1482,-0.70239997,6.7091084,0.35196679999999997,7.135056,-1
572,573,1580690550000,1.5785999,-2.1527,-0.99009997,6.8016973,0.5461653000000001,6.8693576,-1
573,574,1580690550010,1.525,-2.302,-0.9098,6.539886,0.25325865,7.027011,-1
574,575,1580690550020,0.7916,-2.9055,-0.5359,5.5385647,-0.38420233,7.1512504,-1
575,576,1580690550031,-0.4143,-3.6281998,-0.389,4.7694125,-0.79277766,7.142976299999999,-1
576,577,1580690550040,-1.2361,-4.2342,-0.2385,4.3253455,-1.2374958999999999,6.881050599999999,-1
577,578,1580690550050,-1.4197999,-4.5439,-0.66209996,4.613559700000001,-0.9767673000000001,5.805527,-1
578,579,1580690550060,-0.9535,-4.058399700000001,-1.7414,5.757509,0.07875008,4.6307693,-1
579,580,1580690550070,0.4554,-2.9931997999999997,-2.7245,7.674326,1.2039483,3.5708559,-1
580,581,1580690550080,2.2417,-1.9856,-3.5579998,8.953979499999999,2.0065996999999998,2.8711746,-1
581,582,1580690550091,3.1799998,-1.3201,-4.0727,9.505134,2.5918,2.3437319,-1
582,583,1580690550101,2.9036999,-1.1747,-4.2407,8.469325999999999,2.3407822,2.2743862,-1
583,584,1580690550111,1.4088,-1.7710999,-4.0161,6.735195599999999,1.5457731000000001,2.6710863,-1
584,585,1580690550121,-0.36429998,-2.6344,-3.3214,5.3410425,1.2296141,3.4611727999999995,-1
585,586,1580690550132,-1.4401,-2.7172,-2.2431997999999997,5.4263625,1.568432,4.8960752,-1
586,587,1580690550142,-1.0425,-2.3950999,-0.82369995,6.793537599999999,2.1356568,5.857453,-1
587,588,1580690550152,0.2997,-1.8533,0.2215,8.300803,2.7027759999999996,6.4057055,-1
588,589,1580690550162,1.6277,-1.3319999999999999,0.9305,9.316863,3.1297197,6.3431406,-1
589,590,1580690550172,2.3492,-0.97429997,0.7175,9.660938999999999,3.423651,4.730751000000001,-1
590,591,1580690550184,2.5892,-0.7574,-0.84739995,10.127588000000001,3.565608,3.5039046000000003,-1
591,592,1580690550194,3.0358,-0.6598,-1.8161999,10.5503845,3.6763065000000004,2.9083707000000003,-1
592,593,1580690550204,3.2891,-0.61179996,-2.1418,10.25655,3.5475652,3.1203724999999998,-1
593,594,1580690550216,2.8349,-0.87369996,-1.6967,9.204777,2.7017226,3.9178143,-1
594,595,1580690550226,0.5287,-2.4942,-0.2643,7.659712,1.7931708999999998,4.4770803,-1
595,596,1580690550237,-0.6818,-3.2798998,-0.1432,6.532685,1.1709275,4.4202322999999994,-1
596,597,1580690550247,-0.6818,-3.2798998,-0.1432,6.1562967,1.1056615,3.935378,-1
597,598,1580690550258,-0.92759997,-3.4772,-0.67039996,6.857692699999999,1.2727002,3.4905927000000005,-1
598,599,1580690550268,-0.294,-3.1436,-0.99069995,7.376736,1.7416093000000001,3.0519845,-1
599,600,1580690550280,0.0734,-2.767,-1.4247,7.7987194,2.1229577,2.4892228,-1
600,601,1580690550290,0.4317,-2.4879,-1.7781,8.074579,2.4048605,2.1041967999999995,-1
601,602,1580690550300,0.4978,-2.398,-2.0404,7.722775500000001,2.3143887999999997,1.8048642,-1
602,603,1580690550310,-0.22809999,-2.6964998,-2.189,6.66449,2.0381744,1.7154741999999998,-1
603,604,1580690550320,-1.2102,-2.9815,-2.2772,5.956304599999999,1.96993,1.4690246999999999,-1
604,605,1580690550330,-1.7393,-3.0124,-2.5427,5.580951,2.0306182,1.0843532,-1
605,606,1580690550340,-2.0841,-2.9919,-3.1295998,5.3611445,2.1121647,0.56959975,-1
606,607,1580690550350,-2.0504,-2.888,-3.2726998,5.5285945,2.3377178,0.50910306,-1
607,608,1580690550361,-1.6704999,-2.6592,-3.303,6.198760500000001,2.7651209999999997,0.4038348,-1
608,609,1580690550371,-1.0027,-2.2769999999999997,-3.2789998,6.7717979999999995,3.2062,0.45030144,-1
609,610,1580690550381,-0.4937,-1.8508999,-3.1392,7.1847982,3.6371946000000004,0.55633587,-1
610,611,1580690550391,0.0078,-1.3038,-2.9886,7.7429247000000005,4.2086334,0.5965489,-1
611,612,1580690550401,0.4265,-0.95059997,-2.9989,8.001853,4.477396499999999,0.54915327,-1
612,613,1580690550412,0.57839996,-0.84309995,-2.9749,7.995321799999999,4.389251,0.7090476,-1
613,614,1580690550422,0.4727,-1.0919,-2.7452,7.495814299999999,4.003996,1.0220368,-1
614,615,1580690550433,-0.030299998999999998,-1.4629999,-2.4785,6.923926,3.852615,1.1245853000000001,-1
615,616,1580690550443,-0.66999996,-1.6314,-2.3744,6.354911,3.8233392,1.3903608,-1
616,617,1580690550453,-1.0383999,-1.6514,-2.0491,6.214266,4.017681,1.7659057,-1
617,618,1580690550463,-1.0993,-1.4320998999999999,-1.6965,6.3161244000000005,4.257887,1.9143078000000002,-1
618,619,1580690550473,-0.9209999999999999,-1.1977999,-1.5056,6.594235,4.581669000000001,2.11046,-1
619,620,1580690550483,-0.6185,-0.89849997,-1.2979,7.039862599999999,4.9998307,2.3699052000000003,-1
620,621,1580690550494,0.06399999599999999,-0.37759998,-1.0354999,7.9629330000000005,5.547135400000001,2.2397182,d
621,622,1580690550504,0.7754,0.0075,-1.2250999,8.341907,5.793221,2.1672504,-1
622,623,1580690550514,1.0569,0.1836,-1.2070999,8.052878,6.0414233,2.4789279,-1
623,624,1580690550524,0.7754,0.3858,-0.93079996,7.798642599999999,6.203281,2.6106662999999997,-1
624,625,1580690550534,0.48259997,0.5372,-0.7669,7.132106299999999,6.1783333,2.8780892000000002,-1
625,626,1580690550544,-0.096499994,0.4721,-0.5496,6.4587900000000005,5.979107,3.1840298,-1
626,627,1580690550555,-0.8975,0.1804,-0.1907,5.7141547,5.6133017999999995,3.3112671000000002,-1
627,628,1580690550565,-1.4476999,-0.1408,-0.1557,5.651427,5.614077,3.483822,-1
628,629,1580690550575,-1.4896,-0.1654,0.0266,6.3662972,5.901170700000001,3.8967357000000002,-1
629,630,1580690550585,0.0749,0.6534,0.75119996,7.4245152,6.592961,4.140561,-1
630,631,1580690550596,0.0749,0.6534,0.75119996,8.330759,6.912605999999999,4.172031,-1
631,632,1580690550606,1.1652,1.0798,0.82369995,9.165225,7.3323483,3.735692,-1
632,633,1580690550616,2.0061,1.4837999,0.4285,9.607021000000001,7.400104,3.0624616000000002,-1
633,634,1580690550626,2.4285997999999998,1.2902,-0.6935,9.504894,7.0996795,2.4656832000000004,-1
634,635,1580690550636,2.2147,0.7509,-1.2692,9.27623,6.5950869999999995,1.862823,-1
635,636,1580690550647,2.2187997999999998,0.2375,-1.8914,9.374324,6.1684885000000005,1.2287905000000001,-1
636,637,1580690550657,3.138,-0.089899994,-2.3309999,10.415391,5.892437,0.9179944,-1
637,638,1580690550667,4.4382997,-0.3491,-2.2145,11.7026,5.722506,0.9935937,-1
638,639,1580690550677,5.7296,-0.2403,-1.8813,13.075242999999999,5.9591392999999995,1.3694546,-1
639,640,1580690550687,7.2539997000000005,0.1082,-1.0189999,14.541107,6.3372126,2.0963438,-1
640,641,1580690550697,8.2328,0.17469999,-0.76669997,15.3317585,6.40086,2.0982877999999996,-1
641,642,1580690550708,8.5813,-0.015,-1.3061,15.588915,6.232710400000001,1.3619751,-1
642,643,1580690550718,8.7335,-0.78499997,-2.2891998,15.3980875,5.1990376,0.3119166,-1
643,644,1580690550728,8.215199,-1.9204999,-2.9972,14.801798000000002,4.0998019999999995,-0.46937844,-1
644,645,1580690550738,8.0949,-3.0463,-3.9464998,14.942079999999999,3.3717735,-1.3631723,-1
645,646,1580690550748,8.9291,-3.5014,-4.5575,15.920905,2.9974833,-1.8288254000000002,-1
646,647,1580690550758,10.1384,-4.1268,-5.1370000000000005,16.763474,2.6286322999999996,-2.3602613999999997,-1
647,648,1580690550769,11.140999999999998,-4.5165,-6.0632997,17.618309,2.4528307999999996,-3.598897,-1
648,649,1580690550779,11.781899000000001,-4.7258997,-7.1454,18.164070000000002,2.1170584999999997,-4.7787404,-1
649,650,1580690550789,12.1539,-5.3243,-8.5956,17.97355,1.7486674999999998,-5.976971,-1
650,651,1580690550799,12.0525,-5.9270997,-9.4276,17.489233,1.1401476000000001,-6.6162424,-1
651,652,1580690550809,11.1971,-6.8374996,-9.8685,15.981354000000001,0.31145692,-6.9040446,-1
652,653,1580690550820,9.3705,-8.071,-10.0223,13.665146,-0.9428366,-6.940618,-1
653,654,1580690550830,7.0836,-9.8927,-9.8719,10.791758999999999,-2.8684452,-6.434436,-1
654,655,1580690550840,4.1621,-11.9387,-9.293099,7.4842844,-4.5419345,-5.793815,-1
655,656,1580690550850,1.6006999,-13.6298,-8.769899,4.903306,-6.0279775,-5.1134405,-1
656,657,1580690550860,-0.0633,-14.832398999999999,-8.347199,2.619496,-7.054141499999999,-4.5615096,-1
657,658,1580690550870,-1.6802,-15.693,-8.189,1.1713008999999999,-7.5829825,-4.5235763,-1
658,659,1580690550881,-3.0140998,-16.2896,-8.1193,-0.7336216999999999,-8.1368475,-3.8780129999999997,-1
659,660,1580690550892,-4.4228,-16.689,-7.7841997,-2.737377,-8.359805999999999,-3.7052089999999995,-1
660,661,1580690550902,-6.3645,-16.8297,-7.4523997,-5.2830453,-8.492118,-1.3896521000000002,-1
661,662,1580690550912,-8.183499000000001,-16.9488,-5.14,-7.361136,-8.840858,1.7475756000000002,-1
662,663,1580690550923,-10.2078,-17.252699,-2.3028998,-9.8616495,-9.552482000000001,4.7119136,-1
663,664,1580690550933,-12.5373,-17.9265,0.4008,-12.048179,-10.657855,7.698747,-1
664,665,1580690550943,-14.702499,-18.938098999999998,3.0281,-14.817255,-11.940927499999999,9.964332,-1
665,666,1580690550953,-17.6292,-20.0872,4.9902,-18.504573999999998,-13.106731,12.90808,-1
666,667,1580690550963,-21.495499,-20.9307,8.079599,-21.980915,-13.7652235,17.870504,-1
667,668,1580690550974,-24.7461,-21.3708,13.1703,-23.270147,-14.273992000000002,24.452547,-1
668,669,1580690550984,-25.709599,-21.558899,19.7015,-23.235891,-14.458910000000001,32.770645,-1
669,670,1580690550995,-25.9023,-21.3891,26.365099,-22.691983999999998,-14.08642,37.429424,-1
670,671,1580690551004,-25.583000000000002,-20.742698999999998,30.8443,-21.012826999999998,-13.508679,38.815727,-1
671,672,1580690551014,-23.6339,-19.6695,32.103798,-18.555035,-11.91124,38.13834,-1
672,673,1580690551024,-21.5141,-17.7008,30.9935,-16.500818,-10.121938,35.759243,-1
673,674,1580690551034,-19.6877,-15.809099,28.2381,-13.547494,-8.2984085,31.393520000000002,-1
674,675,1580690551044,-17.3549,-14.0836,24.4658,-9.963366,-7.026369,27.633817999999998,-1
675,676,1580690551055,-13.9818,-12.611799000000001,20.6551,-5.869031400000001,-5.778291,24.614061,-1
676,677,1580690551065,-10.0977,-11.1608,17.600199,-1.1274104,-4.9155354,23.448322,-1
677,678,1580690551075,-5.5790997,-10.0735,16.3995,3.319781,-4.5268416,23.154047,-1
678,679,1580690551085,2.7735,-8.5494995,16.4762,7.6573080000000004,-3.8848796,23.596659,-1
679,680,1580690551096,2.7735,-8.5494995,16.4762,12.681453999999999,-2.5137297999999997,23.956228,-1
680,681,1580690551106,7.5997996,-6.9199,16.8111,17.589415,-0.42300758,23.462057,-1
681,682,1580690551116,15.635698999999999,-2.3796,14.439198999999999,21.309727,1.8278676,20.976147,-1
682,683,1580690551126,16.0798,-2.1292999,10.511,21.395899,1.363699,17.206371,-1
683,684,1580690551136,16.4567,-3.0351,7.4049997,22.08107,0.46057737,14.246448499999998,-1
684,685,1580690551147,18.7701,-3.0172,4.1633997,24.848854,0.40765595,10.997314999999999,-1
685,686,1580690551157,21.5007,-1.874,1.9986,27.1751,1.8033414,9.236417999999999,-1
686,687,1580690551167,23.536499,-0.1418,0.3405,29.905503999999997,3.1409914,7.8320274,-1
687,688,1580690551177,27.3776,0.99789995,0.38799998,33.357234999999996,4.312732700000001,7.8502426,-1
688,689,1580690551187,29.115799,2.1539,-0.3136,34.68828,5.2471323,7.186685000000001,-1
689,690,1580690551198,27.522099,2.9174,-0.8286,32.739292,5.71404,6.516184,-1
690,691,1580690551208,26.6882,1.7579999,-2.0411,32.225418,4.3282475,5.24041,-1
691,692,1580690551218,26.1507,0.84349996,-3.6255,31.291527000000002,3.5829515,3.4105019999999997,-1
692,693,1580690551228,25.1278,0.4743,-4.9016,30.444772999999998,3.3658357000000003,2.0079308,-1
693,694,1580690551238,24.6169,0.3951,-6.4094,30.141525,3.497469,0.6175604,-1
694,695,1580690551249,24.2115,0.5753,-7.0467,29.515633,3.7228591,0.112814784,-1
695,696,1580690551258,22.8848,0.4296,-7.5786,28.049164,3.5004665999999998,-0.5558953000000001,-1
696,697,1580690551268,20.5878,-0.2084,-8.3242,25.604656,2.9237322999999997,-1.7688936999999998,-1
697,698,1580690551278,19.3219,-1.0382,-10.3052,24.789726,2.0570025000000003,-3.9407601000000003,-1
698,699,1580690551288,17.9644,-2.0530999,-12.040299000000001,23.204620000000002,1.3665242,-5.1453690000000005,-1
699,700,1580690551298,16.595499,-3.4787,-13.3469,22.053797,-0.1430296,-6.875409599999999,-1
700,701,1580690551309,16.030699,-4.2225,-13.996799,21.24041,-0.5116505,-6.628874000000001,-1
701,702,1580690551319,14.910298999999998,-4.5906,-13.250198999999999,20.09686,-0.83376634,-6.070489,-1
702,703,1580690551329,13.8031,-5.1558,-12.701799000000001,18.77015,-1.4453125,-5.4106083,-1
703,704,1580690551339,11.826699000000001,-6.1833,-11.8491,16.882063,-2.2809656000000005,-4.805871499999999,-1
704,705,1580690551349,9.1261,-7.6053,-11.3255,13.63336,-3.8840847000000003,-4.2228165,-1
705,706,1580690551360,6.8245997,-8.9762,-10.717899000000001,11.557223,-5.049601,-3.6863138999999996,-1
706,707,1580690551370,4.9535,-10.0956,-10.2877,9.239828,-6.221256299999999,-3.2419597999999996,-1
707,708,1580690551380,3.1162999,-11.149099,-9.7185,7.605268,-7.003528,-2.5273767000000005,-1
708,709,1580690551390,1.632,-11.905999999999999,-8.9517,6.231694999999999,-7.5403943,-1.5813128,-1
709,710,1580690551400,0.2496,-12.547,-7.6910996,4.624477,-8.2656555,-0.0999244,-1
710,711,1580690551410,-1.4814,-13.4255,-6.2514997,2.7615488,-9.165904,1.1356082,-1
711,712,1580690551421,-3.3174998999999996,-14.3956995,-5.0332,0.75933546,-10.043207,2.2509902000000004,-1
712,713,1580690551431,-5.6714,-15.0701,-3.9807,-1.9459592000000001,-10.423531,3.1938843999999995,-1
713,714,1580690551441,-8.3581,-15.381398999999998,-3.0779998,-4.1684775,-10.68015,4.1315017,-1
714,715,1580690551451,-10.153999,-15.5404,-2.1355,-5.3720045,-10.916065,5.196308,-1
715,716,1580690551461,-10.958099,-15.7244,-1.0615,-6.048357,-11.190509,6.711206,-1
716,717,1580690551471,-11.5597,-15.722698999999999,0.6257,-6.4322333,-11.222571,8.472658000000001,-1
717,718,1580690551482,-12.199599000000001,-15.5736,3.0588999,-7.952915700000001,-11.235749,11.775622,-1
718,719,1580690551492,-14.1704,-15.2352,5.4828997,-10.910128,-11.132961,13.757581,-1
719,720,1580690551502,-16.6412,-15.0926,6.5572996,-13.139895999999998,-11.87524,13.696319,-1
720,721,1580690551512,-18.760199,-15.683,6.1947,-15.0736065,-12.795226,13.421952,-1
721,722,1580690551522,-20.6735,-16.4243,6.004699700000001,-15.946848999999998,-13.732144,14.572826000000001,-1
722,723,1580690551532,-21.4779,-17.083,7.4884996,-15.961013000000001,-14.267173000000001,17.031738,-1
723,724,1580690551542,-21.393599,-17.1768,10.0521,-15.63635,-14.255354999999998,20.419054,-1
724,725,1580690551552,-21.1632,-16.7087,13.4295,-15.797518,-13.877204999999998,23.536076,-1
725,726,1580690551562,-21.613699,-15.865298999999998,16.2853,-16.725079,-13.100238000000001,24.954842000000003,-1
726,727,1580690551573,-22.3596,-14.7314,17.097599,-15.506851000000001,-12.620709,24.109247,-1
727,728,1580690551583,-20.7388,-13.8076,15.9634,-12.887174,-11.712157000000001,22.93806,-1
728,729,1580690551593,-17.919698999999998,-12.450399,14.8187,-9.489036,-10.949633,22.71699,-1
729,730,1580690551603,-14.3214,-11.2720995,14.776998999999998,-5.919318700000001,-9.885314,23.751371,-1
730,731,1580690551613,-10.697499,-9.6774,15.8645,-3.2038822,-8.772153999999999,25.099804000000002,-1
731,732,1580690551624,-7.968499700000001,-8.1838,16.9912,-1.1644823999999998,-8.050024,25.53145,-1
732,733,1580690551634,-5.797999999999999,-7.1194,17.0054,0.37675159999999996,-7.7851586,24.394607999999998,-1
733,734,1580690551644,-4.1022,-6.5639,15.501598999999999,1.9916023,-7.7151136,22.249632000000002,-1
734,735,1580690551655,-2.5314,-6.1836996,13.6691,3.8551629000000003,-7.2645154000000005,22.18544,-1
735,736,1580690551665,-0.38729998,-5.4192,13.519098999999999,6.8025970000000004,-6.232069,22.872393,-1
736,737,1580690551675,6.0751,-2.4025,14.6874,9.673734,-4.822238400000001,23.493698000000002,-1
737,738,1580690551686,7.5855,-1.0737,13.8818,10.841328,-3.7213267999999995,22.755556,-1
738,739,1580690551696,8.121099000000001,-0.7303,11.778999,10.932595,-3.6412839999999997,20.15757,-1
739,740,1580690551707,7.6503,-1.6112,8.3622,10.101683,-4.745662,16.697634,-1
740,741,1580690551716,7.9866,-2.5216,5.3262997,10.502808,-5.4600725,14.0863905,-1
741,742,1580690551726,10.6244,-1.4146,4.7707,12.608115,-4.4178095,13.909958,-1
742,743,1580690551736,14.220699,0.759,5.9698997,16.005066,-2.2903414,15.133778,-1
743,744,1580690551746,16.622598999999997,2.5832999,8.347000000000001,18.474062,-0.25669673,17.974201,-1
744,745,1580690551756,17.0728,3.5419,9.9692,18.32818,0.5412906999999999,19.26665,-1
745,746,1580690551767,15.739699,3.8019998,9.9261,16.661392000000003,0.6627821,19.04465,-1
746,747,1580690551777,13.7913,3.2249,8.952499000000001,14.390866,-0.040969577,17.881698999999998,-1
747,748,1580690551787,11.4141,2.2870998,7.1288,11.82886,-0.9719597,16.062535999999998,-1
748,749,1580690551797,9.411099,1.2754999,5.6256,9.647369,-1.8920323000000001,14.697351999999999,-1
749,750,1580690551807,7.530999700000001,0.3373,4.0137,7.5764130000000005,-2.7149193,12.965282,-1
750,751,1580690551820,6.2099,-0.47239998,1.7924,6.10487,-3.4492977,10.317534,-1
751,752,1580690551830,5.7626,-0.9501,-0.5262,5.660525,-3.5876919999999997,7.4565496,-1
752,753,1580690551840,5.769,-1.0327,-2.9589,5.7750444000000005,-3.2369797,5.501579,d
753,754,1580690551851,6.1022,-0.65419996,-4.4238,5.9611025,-2.6864762000000004,4.8544545,-1
754,755,1580690551861,6.1872,-0.3505,-4.7134,5.468079,-2.5316384,5.024778400000001,-1
755,756,1580690551872,5.5853996,-0.44959998,-4.3378997,4.6549697,-2.833643,5.672582,-1
756,757,1580690551882,4.8192997,-0.8576,-3.7995,3.5533307,-3.235821,6.3108377,-1
757,758,1580690551892,3.9389999999999996,-1.2982,-3.1611,2.7553046,-3.4967413,6.975544999999999,-1
758,759,1580690551902,3.2105,-1.5652,-2.5089998,2.2096663,-3.647164,7.4298020000000005,-1
759,760,1580690551912,2.5339,-1.7493999,-2.074,1.5939159,-3.6867259,7.475703200000001,-1
760,761,1580690551922,2.1913,-1.7695999,-2.1989,1.6899425,-3.4144862000000002,7.125240299999999,-1
761,762,1580690551932,2.3518999,-1.459,-2.5698,1.9612439,-2.9880402000000004,6.883406599999999,-1
762,763,1580690551942,2.7807,-0.91999996,-2.803,2.6220912999999997,-2.2653074,6.735387299999999,-1
763,764,1580690551952,3.3398,-0.37309998,-2.8781998,3.0222487,-1.87579,6.8724794000000005,-1
764,765,1580690551962,3.7057998,0.057999999999999996,-2.6083,3.1573007,-1.5294448,7.492433999999999,-1
765,766,1580690551972,3.6903,0.2478,-2.003,2.8167400000000002,-1.528286,8.204777,-1
766,767,1580690551982,3.2438,0.20349999,-1.3077999,2.2269714,-1.7882387999999998,8.711484,-1
767,768,1580690551992,2.5637999,-0.099199995,-0.86679995,1.4260536,-2.215489,9.039462,-1
768,769,1580690552002,1.671,-0.508,-0.51379997,0.5066322,-2.5100043,9.612586,-1
769,770,1580690552012,0.74689996,-0.75839996,0.0749,-0.10313263,-2.6551123,9.98702,-1
770,771,1580690552022,0.22019999,-0.8427,0.3601,-0.25705108,-2.5937342999999995,10.020318,-1
771,772,1580690552033,0.070599996,-0.7224,0.3908,-0.14296257,-2.3320484,10.046942,-1
772,773,1580690552043,0.2033,-0.4243,0.40269998,-0.060525417000000005,-2.0568013,10.046118,-1
773,774,1580690552053,0.25169998,-0.1742,0.4055,-0.09365159,-1.8757229,9.929702,-1
774,775,1580690552063,0.2183,0.035499997,0.2514,-0.08945695,-1.6910630000000002,9.608496,-1
775,776,1580690552073,0.22309999,0.2224,-0.1092,-0.28171134,-1.6255863000000002,9.209843,-1
776,777,1580690552084,-0.023799999,0.25,-0.4901,-0.52320963,-1.6184133,8.815000999999999,-1
777,778,1580690552094,-0.2507,0.2776,-0.8714,-0.73545086,-1.6096313,8.713830999999999,-1
778,779,1580690552104,-0.49519998,0.2898,-0.8696,-0.94565225,-1.6391183999999996,9.065463000000001,-1
779,780,1580690552114,-0.72709996,0.2882,-0.47439998,-1.2854948,-1.7393109,9.524258999999999,-1
780,781,1580690552124,-1.0501,0.21239999,-0.098,-1.4220409,-1.7554,9.802025,-1
781,782,1580690552134,-1.2256,0.24599999,0.2591,-1.3326702,-1.6479099,10.076285,-1
782,783,1580690552144,-1.1034,0.36789998,0.4793,-1.077544,-1.5175695,10.0739,-1
783,784,1580690552155,-0.9147,0.49949998,0.46429998,-0.93437076,-1.4498711000000002,10.079867,-1
784,785,1580690552165,-0.7773,0.59279996,0.47919998,-0.90331316,-1.4591607,10.046242999999999,-1
785,786,1580690552175,-0.7722,0.5403,0.2338,-0.91128105,-1.5496135,9.827288000000001,-1
786,787,1580690552185,-0.7722,0.5403,0.2338,-0.92306054,-1.5821364,9.728877,-1
787,788,1580690552195,-0.78779995,0.509,0.14919999,-0.74250895,-1.5925176,9.824472,-1
788,789,1580690552205,-0.60969996,0.5261,0.2723,-0.6712861999999999,-1.604977,9.85985,-1
789,790,1580690552216,-0.60969996,0.5261,0.2723,-0.6680589,-1.6526887,9.76639,-1
790,791,1580690552226,-0.64739996,0.49139997,0.1969,-0.6306614,-1.6602447,9.769952,-1
791,792,1580690552236,-0.5335,0.5202,0.3561,-0.47552675,-1.6303651000000001,9.931531,-1
792,793,1580690552246,-0.5196,0.5737,0.6342,-0.43014228,-1.59654,10.201578,-1
793,794,1580690552256,-0.55939996,0.5748,0.86469996,-0.44575247,-1.613261,10.430541,-1
794,795,1580690552267,-0.55939996,0.5748,0.86469996,-0.50757074,-1.7116721999999998,10.610805000000001,-1
795,796,1580690552277,-0.7556,0.4244,1.1696,-0.686341,-1.8398483,10.766888,-1
796,797,1580690552287,-0.99719995,0.24229999,1.173,-0.9018575000000001,-2.018293,10.681185000000001,-1
797,798,1580690552297,-1.0886999,0.2253,0.79139996,-0.94745266,-2.029603,10.350833,-1
798,799,1580690552307,-0.92139995,0.28800000000000003,0.39799999999999996,-0.67593104,-1.9154763,9.873152000000001,-1
799,800,1580690552317,-0.588,0.4664,0.0925,-0.393511,-1.772619,9.647408,-1
800,801,1580690552328,-0.23349999,0.6281,0.27809998,0.049387593,-1.5576773000000002,9.907714,-1
801,802,1580690552338,0.2311,0.8925,0.7589,0.57639927,-1.2802945,10.453736,-1
802,803,1580690552348,0.6281,1.0598,1.3673999,0.9012158000000001,-1.1879933,11.072560000000001,-1
803,804,1580690552358,0.4425,0.95629996,1.6314,0.5973054,-1.3342024,11.190202000000001,-1
804,805,1580690552368,-0.29189998,0.5369,1.3634,-0.13434345,-1.777168,10.814186999999999,-1
805,806,1580690552378,-0.9654,0.1059,0.75,-0.8486583000000001,-2.2152974999999997,10.088218,-1
806,807,1580690552389,-1.3764,-0.20179999,0.2438,-1.0374267,-2.391003,9.758258999999999,-1
807,808,1580690552399,-1.4014,-0.31939998,0.0425,-0.92347234,-2.3965669999999997,9.639296,-1
808,809,1580690552409,-1.2142,-0.2429,0.1959,-0.65944934,-2.295714,9.947275999999999,-1
809,810,1580690552419,-0.90569997,-0.0512,0.7137,-0.35036746,-2.0059867,10.543519,-1
810,811,1580690552430,-0.6476,0.2687,1.2024,-0.033030406,-1.6897509999999998,10.8234005,-1
811,812,1580690552439,-0.4041,0.5232,1.1507,0.19208202,-1.4627709,10.603843,-1
812,813,1580690552449,-0.26459998,0.6328,0.77419996,0.3221255,-1.3699622,10.317305000000001,-1
813,814,1580690552459,-0.08109999400000001,0.75839996,0.6623,0.63457835,-1.1700655,10.322925999999999,-1
814,815,1580690552469,0.030399999,0.78639996,0.9629,0.56391114,-1.2336171999999999,10.781378,-1
815,816,1580690552479,-0.4416,0.5886,1.5778999,0.00869574,-1.4722712,11.453679,-1
816,817,1580690552489,-1.0179,0.1805,2.2027,-0.47895527,-1.8717678,11.972886,-1
817,818,1580690552500,-1.6121,-0.2312,2.6016,-1.1278031000000002,-2.2063048,12.389965,-1
818,819,1580690552510,-2.4394999,-0.5144,3.0491,-1.8689522,-2.4217541000000002,12.8754425,-1
819,820,1580690552520,-2.7488,-0.5688,3.3683998999999996,-1.8138568,-2.2782742999999996,13.09252,-1
820,821,1580690552530,-2.2621,-0.3179,3.7164998,-0.9034568000000001,-1.8368316000000002,13.596298,-1
821,822,1580690552540,-1.013,0.35999998,4.4958,0.63825583,-0.8470877,14.672788,-1
822,823,1580690552551,0.1828,1.1425999,5.3037,1.6620932000000002,-0.19807708,15.132292999999999,-1
823,824,1580690552561,0.9439,1.538,5.482599700000001,2.2813293999999997,0.16500838,15.058859,-1
824,825,1580690552571,1.4549999,1.7597,5.3471,2.8922818,0.39755240000000003,14.893764000000001,-1
825,826,1580690552581,1.9495,1.8342999,5.2419,3.4090176,0.6216114,14.97959,-1
826,827,1580690552592,2.3176,1.9662,5.4233,3.8445036,0.86658615,15.241009,-1
827,828,1580690552602,2.7577,1.9754,5.6654,4.854761,1.0576338,15.525862,-1
828,829,1580690552612,3.6122,2.0513,5.8789997000000005,5.523356400000001,1.2813959,15.817552,-1
829,830,1580690552622,4.1632,2.1531,6.3093,5.8949456,1.491377,16.001255,-1
830,831,1580690552632,4.4884,2.1824,6.2805,6.600795,1.7138461999999999,15.618727999999999,-1
831,832,1580690552643,5.0606,2.2323,5.8238997,7.2416844,1.9584091000000001,14.855898000000002,-1
832,833,1580690552652,5.5516996,2.2512,5.0492,7.586124000000001,2.1430689999999997,14.131431,-1
833,834,1580690552662,5.7457,2.2333998999999998,4.3603997,7.774049300000001,2.2740318999999998,13.661802999999999,-1
834,835,1580690552672,5.8721,2.126,3.8855998999999994,7.970766499999999,2.370068,13.412633999999999,-1
835,836,1580690552682,5.8290997,1.9842999,3.8107,7.6739625999999985,2.3186789,13.573927,-1
836,837,1580690552693,5.2918,1.6367999,4.0848,6.974874499999999,1.9537452000000002,13.703117,-1
837,838,1580690552703,4.5028,0.9661,4.2156997,6.2363305,1.3532985,13.687996,-1
838,839,1580690552713,3.6366,0.1549,4.1843,5.5657239999999994,1.0368426,13.387629,-1
839,840,1580690552723,2.7458,-0.4281,3.7770998,4.7827816,0.8760959,12.636022,-1
840,841,1580690552733,2.1073,-0.6764,3.1831,4.871070400000001,1.2689748,12.110025,-1
841,842,1580690552744,2.2858,-0.478,2.7961,5.7901278,1.7857776,11.932682000000002,-1
842,843,1580690552754,3.1727998,-0.1818,2.7731,7.139508999999999,2.6394734,11.946999,-1
843,844,1580690552764,4.2139997000000005,0.29099998,2.8676999,7.665515400000001,2.9612060000000002,11.940783999999999,-1
844,845,1580690552774,4.6919,0.4003,2.9701,7.520369500000001,2.9822752,11.879491999999999,-1
845,846,1580690552784,4.4069,0.1237,3.0105,6.804273599999999,2.586638,11.344168,-1
846,847,1580690552794,3.6211998,-0.528,2.5936,5.778607,1.9057558999999997,10.783360499999999,-1
847,848,1580690552805,2.5447,-1.4722998999999999,2.1381,4.312226,1.6097655,10.549398,-1
848,849,1580690552814,1.0564,-2.0067,2.0246,3.6892447,1.5762083999999998,10.594649,-1
849,850,1580690552824,0.327,-2.3044,2.2235,3.1324682,1.5864364,10.94583,-1
850,851,1580690552836,-0.3094,-2.4664,2.7484999,1.942866,1.9826576,11.278079,-1
851,852,1580690552847,-1.3472998999999999,-2.3334,3.0944998,1.9156965,2.5621502,11.636117,-1
852,853,1580690552857,0.0611,-1.5352,3.6668,3.6769862,3.3557801,11.41836,-1
853,854,1580690552867,1.2135999,-1.3979,3.1506998999999998,4.717104,3.699511,10.83335,-1
854,855,1580690552878,1.6961,-1.4442999,3.0345,5.0295663,3.8455286,10.469536999999999,-1
855,856,1580690552888,1.3613,-1.8381,2.4682999,4.4876437000000005,3.6296193999999997,9.772126,-1
856,857,1580690552898,0.39069998,-2.432,2.0812,3.126856,3.1754107000000005,9.150188,-1
857,858,1580690552908,-0.7273,-2.9905,1.5349,1.8626028000000001,2.9328206000000003,8.350353,-1
858,859,1580690552918,-1.7213,-3.3476998999999994,0.87509996,1.0178326,2.7837384,7.867261,-1
859,860,1580690552929,-2.3395998,-3.7849998,1.1931,0.4219541,2.580164,8.050197,-1
860,861,1580690552939,-2.9111,-4.119,1.0126,-0.30078837,2.4682112000000003,7.403388499999999,-1
861,862,1580690552949,-3.1267,-4.3532,0.43719998,-0.3380134,2.5453331,6.536161,-1
862,863,1580690552959,-2.8994,-4.2778,-0.48709998,-0.07985142,2.8117216,5.389913,-1
863,864,1580690552970,-2.4819999,-4.38,-1.2452999,0.22860795,2.8842661,4.555955,-1
864,865,1580690552980,-2.3518,-4.364,-1.8342999,0.095078535,3.0793169,4.027258,-1
865,866,1580690552990,-2.4073,-4.3954,-1.8298999,-0.06663542,3.1024543999999996,4.081424,-1
866,867,1580690553001,-2.4434,-4.5109997,-1.7693,-0.22214362,3.002894,3.7643937999999997,-1
867,868,1580690553011,-2.5716,-4.6638,-2.0941,-0.83399624,3.042293,3.4340034,-1
868,869,1580690553021,-3.0893,-4.6856,-2.465,-1.1883190000000001,3.0088603,2.9865369999999998,-1
869,870,1580690553031,-3.1757,-4.835099700000001,-2.8731,-1.5039418,3.0450703999999997,2.0125851999999997,-1
870,871,1580690553041,-3.3929,-4.8285,-3.6801,-1.4487506,3.1823921000000004,1.6077734,-1
871,872,1580690553052,-2.8962998,-4.7216,-3.8121998,-0.35302982,3.330162,1.8126883999999999,-1
872,873,1580690553062,-1.6414,-4.6463,-3.3488998,0.51137275,3.4697537000000005,2.4987612,-1
873,874,1580690553072,-1.1915,-4.6657,-2.3172,0.11624328,3.2009997,3.6582922999999994,-1
874,875,1580690553082,-1.9951999,-5.1991997,-1.2484,-1.5422969,2.530518,4.205779,-1
875,876,1580690553092,-3.2882998,-5.7314,-0.9489,-2.717419,2.1452430000000002,4.561711,-1
876,877,1580690553102,-4.2589999999999995,-6.1299996,-0.6681,-3.7479982000000005,2.0626047,4.453483599999999,-1
877,878,1580690553113,-5.1733,-6.1171,-0.80219996,-4.2411655999999995,2.3657298,4.121848,-1
878,879,1580690553123,-5.1754,-5.6684,-1.3303,-2.9128048,3.1635833,3.1947556,-1
879,880,1580690553133,-3.668,-4.9705997,-2.0643,-1.5179622,3.9752464,2.7282119,-1
880,881,1580690553143,-2.3286998,-4.246299700000001,-2.4031,-0.16748877,4.4987626,2.4259486,-1
881,882,1580690553154,-1.0718,-3.7865998999999997,-2.5814,0.47474146,4.9404639999999995,2.496846,-1
882,883,1580690553164,-0.6098,-3.4215,-2.362,0.12458468,5.0056725,3.048106,-1
883,884,1580690553174,-1.0756999,-3.5008,-1.6953,-0.774122,4.787896,3.6414564,-1
884,885,1580690553184,-2.0347,-3.7099998,-1.1229,-1.9916215,4.8831370000000005,3.9730627999999997,-1
885,886,1580690553195,-2.9768,-3.6107,-0.85349995,-2.2932045,5.1442776,4.0502996,-1
886,887,1580690553206,-3.2394,-3.3137999,-0.7418,-1.9232238999999998,5.5053134,3.9180822,-1
887,888,1580690553216,-2.8597999,-3.0275,-0.85099995,-1.1189541,5.878445,3.5147072999999995,-1
888,889,1580690553226,-0.9088,-2.2721,-1.5532,0.059720967,6.295083999999999,3.1497445,-1
889,890,1580690553237,-0.072299995,-1.643,-1.7910999,1.0182061,7.127088499999999,2.833758,-1
890,891,1580690553247,-0.072299995,-1.643,-1.7910999,1.6023914,8.037144,2.7356436,-1
891,892,1580690553257,0.9833,-0.162,-1.683,2.0352151000000003,8.5163,2.9384517999999997,d
892,893,1580690553267,0.9833,-0.162,-1.683,1.7619505000000002,8.562603999999999,2.6949804,-1
893,894,1580690553277,0.8936,-0.0453,-1.8215,1.173676,8.397327,2.4186609,-1
894,895,1580690553287,-0.4739,-0.6004,-2.3739998,0.29457300000000003,7.9563823000000005,2.2381477000000003,-1
895,896,1580690553298,-1.1589999,-0.97529995,-2.26,-0.42303628,7.569125,2.3706139999999998,-1
896,897,1580690553308,-1.4670999,-1.1212,-2.0140000000000002,-0.6687006,7.502383999999999,2.7110597999999997,-1
897,898,1580690553318,-1.6372,-1.1464,-1.1638,-0.8647568999999999,7.580013799999999,3.7522406999999998,-1
898,899,1580690553328,-1.6310999,-0.8287,-0.4971,-0.72777987,7.938292,4.2623496,-1
899,900,1580690553338,-1.2524998999999999,-0.4666,-0.23199999999999998,-0.25820988,8.338066,4.364783,-1
900,901,1580690553349,-0.79929996,-0.031999997999999995,-0.3669,0.07677726,8.751994999999999,3.9454818,-1
901,902,1580690553359,-0.6749,0.191,-1.1883,0.07748595,8.829098,3.0190978,-1
902,903,1580690553369,-0.8732,-0.049,-1.9580000000000002,-0.30986714,8.394799,2.3459917999999997,-1
903,904,1580690553380,-1.5409,-0.5712,-2.5082,-1.1994280000000002,7.970604,1.847548,-1
904,905,1580690553390,-2.465,-0.95089996,-2.7458,-2.3297307000000003,7.327512,1.8946946,-1
905,906,1580690553400,-3.3678,-1.6566,-2.517,-3.2255356,6.738222,2.2677305,-1
906,907,1580690553411,-4.2854,-2.1295,-1.9382,-4.421918,6.3884870000000005,3.0128443,-1
907,908,1580690553421,-5.3231,-2.3908,-1.4369,-4.9440550000000005,6.117444,3.497747,-1
908,909,1580690553431,-5.4804997,-2.5911,-0.7109,-4.618616,6.038914,4.540469,-1
909,910,1580690553441,-5.0295997,-2.5170999,0.2845,-4.005088,6.2170234,5.2491913,-1
910,911,1580690553451,-4.4648,-2.3694,0.7827,-3.5284693,6.15895,5.6763650000000005,-1
911,912,1580690553461,-4.2432,-2.5010998,1.0469998999999999,-3.4016721,5.6888914,5.528527700000001,-1
912,913,1580690553472,-4.2300997,-3.0942,0.81159997,-3.847032,4.681977,5.167923,-1
913,914,1580690553482,-4.8919,-4.1426997000000005,0.40579998,-4.880513,3.7718732000000004,4.684629,-1
914,915,1580690553492,-6.4115,-5.3198,-0.2163,-6.878321000000001,1.9995509999999999,4.2629814,-1
915,916,1580690553503,-8.1522,-6.920099700000001,-0.5028,-8.996433,0.16566917,3.8357122,-1
916,917,1580690553513,-10.335199000000001,-8.6613,-1.1425999,-11.217831,-1.4623976,2.9405587000000004,-1
917,918,1580690553523,-12.389000000000001,-10.252,-2.0392,-12.463525,-2.7544906000000005,2.3941348,-1
918,919,1580690553534,-13.5335,-11.299000000000001,-2.6599,-12.185864,-3.244852,1.9763560000000002,-1
919,920,1580690553545,-13.2134,-11.6234,-3.0042999,-10.903233,-3.6283362,2.7952497000000003,-1
920,921,1580690553555,-12.0931,-11.9439,-2.2570999,-10.543432000000001,-3.4415212,3.800297,-1
921,922,1580690553565,-11.9203,-11.6749,-1.3432,-9.603746000000001,-3.7415627999999996,5.0114665,-1
922,923,1580690553575,-11.1683,-11.8581,-0.2482,-8.966199000000001,-4.1688414,6.3650519999999995,-1
923,924,1580690553585,-10.7156,-12.148,0.94549996,-9.022203999999999,-4.568261,6.960644,-1
924,925,1580690553596,-10.9134,-12.7541,1.6758,-8.859447,-5.115643,7.472275,-1
925,926,1580690553606,-9.8175,-12.835,1.4459,-7.6086965,-5.401146400000001,7.440537,-1
926,927,1580690553616,-8.1784,-12.8067,0.46019998,-5.444482,-5.6151595,6.5244775,-1
927,928,1580690553626,-6.1182,-12.723499,0.0018,-2.9503939999999997,-5.705756,6.3556767,-1
928,929,1580690553636,-2.5753999,-12.3343,-0.0276,1.1805999,-5.4512334000000005,6.5449142,-1
929,930,1580690553647,1.903,-11.1984,0.2148,5.853258,-4.4032626,7.016074000000001,-1
930,931,1580690553657,5.6477,-9.1975,0.7272,9.633472,-2.7126975,7.720314,-1
931,932,1580690553667,9.0542,-7.405999700000001,1.0692999,13.17625,-1.2871995,8.2801075,-1
932,933,1580690553677,12.3352995,-5.7524,1.2251999,16.381903,-0.16767073,8.720075999999999,-1
933,934,1580690553688,14.9999,-4.7987,1.7369999999999999,18.986584,0.25475264,9.597665,-1
934,935,1580690553698,17.436498999999998,-4.290499700000001,2.1678,21.520176,0.45545375,10.140632,-1
935,936,1580690553708,20.4406,-3.1148,2.1831,24.550201,1.3545147,10.306598,-1
936,937,1580690553718,22.662198999999998,-2.0403,1.9358,26.818258,2.0857040000000002,9.989144999999999,-1
937,938,1580690553728,23.299,-1.4347,1.6006,26.800446,2.3123102,9.867674000000001,-1
938,939,1580690553738,22.2937,-0.99179995,1.2444998999999999,25.628989999999998,2.328639,9.446284,-1
939,940,1580690553749,21.3886,-1.0814999,0.7559999999999999,25.126245,1.5672731000000002,9.094108,-1
940,941,1580690553759,21.237299,-1.9203999,0.2155,25.250315,0.54321563,8.753842,-1
941,942,1580690553769,22.1229,-2.0786,0.0075,26.523607000000002,0.5219168,8.676442999999999,-1
942,943,1580690553780,23.4744,-1.4036,-0.0251,27.74714,1.0333854,8.920364,-1
943,944,1580690553790,24.5136,-0.5338,0.7412,28.780928000000003,1.5765531000000002,10.009151,-1
944,945,1580690553800,24.8202,0.34039998,1.4679999,29.294359999999998,2.009329,10.323798,-1
945,946,1580690553810,25.6132,0.29909998,1.5959999999999999,28.965502,1.4389631999999999,10.126151,-1
946,947,1580690553821,23.787198999999998,0.0972,0.6177,26.674318,1.0167887,8.573713,-1
947,948,1580690553831,22.082698999999998,-0.3597,-0.6468,25.61884,0.50012,7.619489,-1
948,949,1580690553841,20.7384,-0.45909998,-1.4880999,23.918602,0.24695712,7.186656500000001,-1
949,950,1580690553851,18.8941,-0.872,-1.3988999,21.97905,-0.7861121999999999,7.907186500000001,-1
950,951,1580690553861,16.6332,-1.9592999,-0.60319996,19.46513,-2.083942,8.239999000000001,-1
951,952,1580690553872,14.1058,-3.2071,-0.6414,17.176117,-3.576315,7.732697,-1
952,953,1580690553882,11.7998,-4.7434,-1.3749,14.347541,-5.7276773,6.4009175,-1
953,954,1580690553892,9.2435,-6.522,-2.5184999,12.146532,-7.4900970000000004,5.075296,-1
954,955,1580690553902,7.067199700000001,-8.205999,-3.6919,10.501093,-8.997659,4.9846992,-1
955,956,1580690553913,5.294699700000001,-9.4992,-3.3169,8.881827000000001,-9.7088995,6.645595,-1
956,957,1580690553923,3.4088,-10.047,-1.296,6.0692434,-10.089176,9.385711,-1
957,958,1580690553933,0.3159,-10.2016,1.4847,3.2697423,-9.857953,11.609511999999999,-1
958,959,1580690553943,-2.4217,-9.7251,3.6599998,1.4485781999999998,-9.348936,13.499773000000001,-1
959,960,1580690553954,-4.1772,-9.148399000000001,5.7079997,0.3452918,-9.515113000000001,15.520316000000001,-1
960,961,1580690553964,-5.2897997000000005,-9.2535,7.8683996,-0.5278161,-9.4675255,18.260182999999998,-1
961,962,1580690553975,-6.3192997,-8.9463,10.7338,-1.2053752,-9.206769,19.686869,-1
962,963,1580690553986,-7.4251,-8.4408,12.7293,-2.8282703999999996,-8.958757,22.494349,-1
963,964,1580690553997,-10.132299,-7.874399700000001,15.650499,-4.5003138,-8.46763,23.600145,-1
964,965,1580690554007,-11.1692,-7.5224,17.0197,-5.023667,-8.328632,25.06007,-1
965,966,1580690554017,-10.8657,-7.572,19.3974,-4.6213746,-8.413359,27.503641,-1
966,967,1580690554027,-11.452499000000001,-7.2981,22.8377,-5.330604,-8.128142,31.046246000000004,-1
967,968,1580690554037,-12.0257,-6.7257,26.3837,-5.4513,-7.497663,34.261986,-1
968,969,1580690554047,-11.1987,-5.6688,28.3631,-4.4271946,-6.3985905999999995,35.76024,-1
969,970,1580690554057,-9.9513,-4.5120997,28.393099,-3.05571,-5.2483873,35.42459,-1
970,971,1580690554067,-8.3166,-3.4483,27.428798999999998,-1.2869409,-4.166313,34.402733000000005,-1
971,972,1580690554077,-6.3331,-2.5727,26.028599,0.5962424,-3.2879667,32.804943,-1
972,973,1580690554087,-4.9175997,-2.089,23.609,1.8861426,-2.764786,30.420631,-1
973,974,1580690554098,-3.6952,-1.7686,21.0702,2.9518592,-2.3295584,27.880337,-1
974,975,1580690554107,-2.6292,-1.5353999,18.1316,3.9594924,-1.9816233,24.976954,-1
975,976,1580690554117,-1.3989999,-1.4635999,15.004999,5.127336,-1.7052557000000002,21.984049,-1
976,977,1580690554127,0.1021,-1.2509999,12.331699,6.541955000000001,-1.2313762,19.543885999999997,-1
977,978,1580690554137,0.1021,-1.2509999,12.331699,7.4280586,-1.005536,18.092445,-1
978,979,1580690554147,1.9283999,-1.4979,9.2738,7.826501400000001,-1.1202183000000001,16.969220999999997,-1
979,980,1580690554158,1.7628,-1.9706999,8.532499000000001,7.471565700000001,-1.3747411,16.286098000000003,-1
980,981,1580690554168,1.5522,-2.8293998,7.5892,7.125862,-2.2099056,15.270774,-1
981,982,1580690554178,1.6319,-3.8862997999999997,6.8142,7.179559700000001,-2.7633204,14.534451500000001,-1
982,983,1580690554188,2.1708,-4.395,5.8504996,7.6310773,-2.8814982999999996,13.770260999999998,-1
983,984,1580690554198,2.8442,-4.8433,4.9934,8.055416000000001,-2.9675937,12.987175,-1
984,985,1580690554208,3.2443,-5.0215,4.2300997,8.341111,-2.851772,12.019591,-1
985,986,1580690554218,3.4740998999999997,-5.3978996,3.1650999,8.19722,-2.8964765,10.7874775,-1
986,987,1580690554228,3.2735,-5.6466,1.8935,7.7897940000000006,-2.7836041000000002,9.676186,-1
987,988,1580690554239,2.9775,-5.8789,0.9816,7.3640666,-2.763474,8.940802,-1
988,989,1580690554249,2.6808999,-6.2904,0.1073,6.848719,-2.8341506,7.8922753,-1
989,990,1580690554260,2.6014,-6.4817995999999996,-0.7928,6.498007,-2.6461387000000003,6.809914,-1
990,991,1580690554271,2.5159,-6.5347,-1.5569998999999999,6.3959184,-2.3705566000000005,6.1400642,-1
991,992,1580690554281,2.4505,-6.5671,-2.3602,5.6664433,-2.3240802000000005,4.905288,-1
992,993,1580690554291,1.6653999,-6.9995,-3.6079998,4.6526713,-2.478286,3.3326137000000005,-1
993,994,1580690554302,1.0573,-7.4536,-5.1682997,4.329856400000001,-2.5106747000000005,1.6849721999999998,-1
994,995,1580690554312,1.1911,-7.5572,-6.5266,4.6938515,-2.0295549999999998,0.3343359,-1
995,996,1580690554323,1.7322999,-7.3718,-7.3854,4.899542299999999,-1.5933509,-0.14240712,-1
996,997,1580690554333,2.0275,-7.1513995999999995,-7.6710997,4.79166,-1.2800646999999998,-0.3124146,-1
997,998,1580690554343,2.0107,-7.0467997,-7.6979999999999995,4.4415507000000005,-0.8849544,-0.44083956,-1
998,999,1580690554353,1.8644999,-6.8388,-7.7851996,4.394068700000001,-0.57412,-0.84769106,-1
999,1000,1580690554363,2.0008,-6.7465997,-8.1661,4.1117926,-0.41883206,-1.9182823,-1
1000,1001,1580690554374,1.9034,-6.7714,-9.0383,3.9401665,-0.048899174000000004,-3.3517387000000003,-1
1001,1002,1580690554384,1.9059,-6.56,-10.3728,4.100607,0.3831489,-4.561203,-1
1002,1003,1580690554394,2.2273,-6.2762,-11.5047,3.8512169999999997,0.60603946,-5.551608,-1
1003,1004,1580690554404,2.0346,-6.1527,-12.5948,3.3007614999999997,0.68990356,-5.982114299999999,-1
1004,1005,1580690554414,1.3945999,-6.1296,-12.8509,1.9153517,0.8455458,-6.544675,-1
1005,1006,1580690554424,0.4983,-6.1394,-13.2821,1.1264813999999999,0.80934554,-7.344587299999999,-1
1006,1007,1580690554435,-0.28509998,-6.2244,-14.2296,0.8028524,1.0778504999999998,-8.041013000000001,-1
1007,1008,1580690554445,-0.3906,-5.9385,-14.7872,0.887272,1.7918781000000004,-8.356328999999999,-1
1008,1009,1580690554455,-0.0053,-4.7223997,-14.822598999999999,0.9957964,2.4360237000000002,-8.198656,-1
1009,1010,1580690554465,-0.0053,-4.7223997,-14.822598999999999,1.4546881999999999,3.0843542,-8.414996,-1
1010,1011,1580690554475,0.5298,-4.0703998,-15.0541,2.354276,3.5956984,-8.953165,-1
1011,1012,1580690554486,2.4759,-3.0305998,-16.1115,3.2858887,4.076042,-9.4005165,-1
1012,1013,1580690554496,2.4253,-3.0932999,-16.3801,3.1494956000000003,3.9085724,-9.690732,-1
1013,1014,1580690554507,2.3265998,-3.4698,-16.8922,3.0520517999999996,3.5399803999999997,-10.071296,-1
1014,1015,1580690554517,2.1441998,-4.120899700000001,-17.333,2.720407,2.6450758,-10.413159,-1
1015,1016,1580690554527,1.2423999,-5.0018997,-17.1096,1.72055,1.6517311000000001,-10.082386,-1
1016,1017,1580690554537,0.375,-6.0867996,-17.061498999999998,0.9250142,0.4289739000000001,-9.967167,-1
1017,1018,1580690554547,-0.30699998,-7.0857997,-17.0845,0.25486755,-0.68864906,-9.862369000000001,-1
1018,1019,1580690554558,-0.79289997,-8.0721,-16.827799,-0.36287478,-2.1094449,-9.174657,-1
1019,1020,1580690554568,-1.3671,-8.9647,-15.976199,-0.81308043,-2.8639536,-8.203378,-1
1020,1021,1580690554578,-1.4707999,-9.3012,-14.977799,-0.63728863,-3.5097177000000004,-6.932592999999999,-1
1021,1022,1580690554588,-0.98639995,-9.675799000000001,-14.216,-0.23150015,-4.153461,-6.029078500000001,-1
1022,1023,1580690554598,-0.67899996,-9.8972,-14.1447,0.27780402,-4.5177627000000005,-6.312810400000001,-1
1023,1024,1580690554609,0.3272,-9.8461,-14.9317,1.2496583,-4.787205999999999,-6.6569343,-1
1024,1025,1580690554619,1.4225,-10.1574,-14.7618,2.2605286,-5.4520664000000005,-6.143407,-1
1025,1026,1580690554629,1.9508,-10.805099499999999,-14.410998999999999,2.822869,-6.7632270000000005,-5.4655510000000005,-1
1026,1027,1580690554639,1.9037,-11.6236,-13.7343,2.1009216,-8.258233,-4.2724533,-1
1027,1028,1580690554650,-0.319,-13.3904,-12.176399,-0.84630245,-10.802437,-2.2793567,-1
1028,1029,1580690554660,-3.7451,-15.5083,-10.1649,-4.0130267,-13.438548999999998,0.34550247,-1
1029,1030,1580690554670,-6.0167,-17.6408,-6.1891,-5.7933745000000005,-16.486520000000002,6.8145394,-1
1030,1031,1580690554680,-6.8410997,-19.327599,-0.37469998,-6.042065,-18.423248,12.561189,-1
1031,1032,1580690554690,-6.976,-20.1751,4.8508997,-5.893653400000001,-19.05773,16.857632000000002,-1
1032,1033,1580690554701,-6.5582,-19.658499,8.377,-4.9994283,-18.818023999999998,19.09326,-1
1033,1034,1580690554711,-4.6155,-18.1036,10.085,-1.8356918999999998,-16.960047,20.377317,-1
1034,1035,1580690554721,-1.4576,-15.678598999999998,11.5292,1.5460798,-15.620347,23.011210000000002,-1
1035,1036,1580690554731,1.9975,-13.913098999999999,15.0414,4.887485,-14.444621,27.499561,-1
1036,1037,1580690554741,4.6203,-12.222000000000001,19.7281,5.90707,-13.822348999999999,31.788984000000003,-1
1037,1038,1580690554752,4.290499700000001,-11.4838,23.7284,3.5812373,-14.331375,34.54492,-1
1038,1039,1580690554762,1.1814,-11.7891,25.3228,0.012133813,-15.312673,33.5468,-1
1039,1040,1580690554772,-2.2315,-12.0873995,23.3172,-3.117653,-15.584548999999999,30.734251,-1
1040,1041,1580690554782,-4.1186,-11.718699,21.489199,-2.4213805,-14.187923999999999,30.289526000000002,-1
1041,1042,1580690554792,-2.0063,-8.834499000000001,21.166399,2.0921588,-10.258493,30.038488,-1
1042,1043,1580690554803,2.0575,-5.318,21.2416,5.6227540000000005,-7.215434599999999,29.7076,-1
1043,1044,1580690554813,5.5232,-2.1081,20.9009,7.9057302,-4.9368534,28.948590000000003,-1
1044,1045,1580690554823,7.6246996,0.22829999,20.199999,7.771472999999999,-4.3213042999999995,27.348381,-1
1045,1046,1580690554833,7.0799,0.64169997,18.5842,5.1353135000000005,-4.6525946,25.219189,-1
1046,1047,1580690554843,4.8887,0.48099998,16.8521,2.6783167999999997,-5.330604,23.540356,-1
1047,1048,1580690554854,2.5059,-0.090399995,15.2385,0.5138436,-5.8156977,21.842197,-1
1048,1049,1580690554864,0.3951,-0.5062,13.5787,-0.9946280000000001,-6.123286,20.207722,-1
1049,1050,1580690554874,-1.0361999,-0.769,11.983299,-1.7713835999999998,-6.246999,18.483622,-1
1050,1051,1580690554884,-1.7585,-0.8555,10.2775,-1.8679179,-6.119943,16.824228,-1
1051,1052,1580690554894,-1.8136,-0.7240000000000001,8.619599000000001,-1.0187232,-5.76157,15.356485999999999,-1
1052,1053,1580690554904,-0.9165,-0.35439998,7.1568,0.42611045,-4.885091,15.077542999999999,-1
1053,1054,1580690554914,0.53389996,0.4953,6.8739,1.2759274999999999,-4.0780916,15.104148,-1
1054,1055,1580690554925,1.4476999,1.6911,6.5965,1.3234763999999999,-3.6404699999999997,14.842220999999999,-1
1055,1056,1580690554935,1.4476999,1.6911,6.5965,0.78080666,-3.6143157,14.355967999999999,-1
1056,1057,1580690554945,0.7273,1.6595,5.9322996,-0.14176548,-3.7135122000000003,13.214442000000002,-1
1057,1058,1580690554955,-0.0287,1.5367,4.907099700000001,-0.56467724,-3.7520876000000003,12.110503999999999,-1
1058,1059,1580690554965,-0.4655,1.4347,3.7693,-0.66082835,-3.8058996,11.131908000000001,-1
1059,1060,1580690554975,-0.5633,1.2617999,1.7559999,-0.6641994999999999,-3.7851178999999995,10.1784315,-1
1060,1061,1580690554986,-0.4798,1.1738,0.99969995,-0.5986845000000001,-3.8034767999999994,9.464729,-1
1061,1062,1580690554996,-0.44099998,1.1594,-0.0233,-0.56572115,-3.7451637000000004,8.484812,-1
1062,1063,1580690555006,0.1143,1.2384,-1.0387,0.016759411999999998,-3.5896745,7.515026,-1
1063,1064,1580690555017,0.606,1.4074999,-1.5814999,0.5312925000000001,-3.3178847,7.0118985,-1
1064,1065,1580690555027,0.40379998,1.3532,-1.3913,0.27664524,-3.3586724,7.306203,-1
1065,1066,1580690555037,0.0372,1.1085,-0.98609996,-0.13111606,-3.5946064,7.7836356,d
1066,1067,1580690555047,-0.42949998,0.7779,-0.5349,-0.5746563,-3.8588593,8.174781,-1
1067,1068,1580690555057,-0.80109996,0.5306,-0.5221,-0.8898577,-4.080687,8.147364,-1
1068,1069,1580690555067,-0.9422,0.3322,-0.58779997,-0.96628064,-4.2140629999999994,8.118288,-1
1069,1070,1580690555077,-0.78599995,0.2793,-0.73249996,-0.7673321,-4.237124,7.9542565000000005,-1
1070,1071,1580690555088,-0.6083,0.1945,-0.84889996,-0.6290142,-4.3021793,7.8616962,-1
1071,1072,1580690555098,-0.44919997,0.069,-1.2405,-0.43504560000000003,-4.352706400000001,7.4029675,-1
1072,1073,1580690555108,-0.114199996,0.1287,-1.7402999,-0.016089035,-4.2516327,6.951392,-1
1073,1074,1580690555118,0.2359,0.14209999,-2.062,0.32030588,-4.1740704,6.6334615,-1
1074,1075,1580690555128,0.4421,0.2198,-2.2436,0.47918513,-4.1176534,6.696486500000001,-1
1075,1076,1580690555138,0.4364,0.17979999,-1.7436999,0.39199787,-4.152330999999999,7.4015116999999995,-1
1076,1077,1580690555148,0.22299999,0.0714,-1.0131999,0.20776883,-4.242094,7.9293084,-1
1077,1078,1580690555159,0.0616,-0.041699997999999995,-0.594,0.057834335,-4.388859,8.328767,-1
1078,1079,1580690555169,-0.0958,-0.2025,-0.4193,-0.15635096,-4.560398999999999,8.461865,-1
1079,1080,1580690555179,-0.3692,-0.3644,-0.33339998,-0.42627326,-4.722611,8.500507,-1
1080,1081,1580690555189,-0.6235,-0.5489,-0.44509998,-0.6257773,-4.857021,8.294357000000002,-1
1081,1082,1580690555199,-0.7219,-0.5895,-0.6956,-0.6586257,-4.854876,8.143772,-1
1082,1083,1580690555209,-0.5829,-0.5311,-0.7299,-0.42094854,-4.7129188,8.1430435,-1
1083,1084,1580690555220,-0.34939998,-0.3696,-0.6735,-0.19335572,-4.5646605000000005,8.197076,-1
1084,1085,1580690555230,-0.1652,-0.2302,-0.5941,-0.03615245,-4.4333243,8.337012,-1
1085,1086,1580690555240,0.0722,-0.0756,-0.37489998,0.3307542,-4.217185,8.634037,-1
1086,1087,1580690555250,0.3461,0.0997,-0.0863,0.43502647,-4.1389713,8.807359,-1
1087,1088,1580690555260,0.38009998,0.1469,0.15269999,0.3440851,-4.166409,9.093533,-1
1088,1089,1580690555270,0.16499999,0.044999998,0.28309998,-0.011626243999999999,-4.369083,9.1683655,-1
1089,1090,1580690555281,-0.20969999,-0.1475,0.35349998,-0.30514577,-4.487912000000001,9.20536,-1
1090,1091,1580690555291,-0.45909998,-0.2741,0.4226,-0.4946325,-4.5840154,9.2669115,-1
1091,1092,1580690555301,-0.68,-0.29569998,0.353,-0.66188186,-4.618176,9.206615,-1
1092,1093,1580690555311,-0.71419996,-0.32899999999999996,0.40019998,-0.6015958,-4.577771,9.214813000000001,-1
1093,1094,1580690555321,-0.5887,-0.2741,0.3394,-0.41071093,-4.4469037,9.100792,-1
1094,1095,1580690555332,-0.3338,-0.1016,0.24919999,0.08780974,-4.193827,9.0935135,-1
1095,1096,1580690555342,0.0884,0.13059999,0.2478,0.3084402,-3.997388,9.248466,-1
1096,1097,1580690555352,0.235,0.2862,0.4531,0.27163655,-3.9464777,9.521222999999999,-1
1097,1098,1580690555362,0.192,0.33499998,0.7374,0.2759365,-3.8847551,9.747869,-1
1098,1099,1580690555372,0.1955,0.38259998,1.0015,0.17608875,-3.9432025,9.935305,-1
1099,1100,1580690555382,0.0202,0.27969998,1.0974,-0.0724677,-4.052789700000001,10.00354,-1
1100,1101,1580690555393,-0.21609999,0.18239999,1.1618,-0.24107695,-4.151008999999999,9.976495,-1
1101,1102,1580690555403,-0.3457,0.0906,1.0967,-0.23092553,-4.1312714,9.899134,-1
1102,1103,1580690555413,-0.3049,0.104499996,0.9913,-0.08446744,-4.0824203,9.732660000000001,-1
1103,1104,1580690555423,-0.1894,0.12879999,0.8764,-0.10109277,-3.9890559999999997,9.884931,-1
1104,1105,1580690555433,-0.2077,0.20459999,1.0372,-0.09422620400000001,-3.9316623,9.998646,-1
1105,1106,1580690555444,-0.1857,0.2717,1.1299,0.00040222588,-3.8403663999999997,10.173873,-1
1106,1107,1580690555454,-0.0981,0.35709998,1.3397,0.16671306,-3.7481322,10.514778,-1
1107,1108,1580690555464,0.0328,0.42029998,1.7053,0.07880754,-3.7653801,10.911842,-1
1108,1109,1580690555474,-0.1078,0.3515,2.0787,-0.044129923,-3.8435557,11.099194,-1
1109,1110,1580690555484,-0.1871,0.26549998,2.1743999,-0.19469649,-3.8981720999999996,11.151549000000001,-1
1110,1111,1580690555494,-0.408,0.1722,2.2375998,-0.31359252,-3.9298809,11.157258,-1
1111,1112,1580690555504,-0.52099997,0.113699995,2.2107,-0.32890585,-3.8751209,11.320638,-1
1112,1113,1580690555515,-0.55009997,0.122999996,2.3601,-0.2862316,-3.796208,11.636089,-1
1113,1114,1580690555525,-0.54539996,0.2138,2.9449,-0.31287426,-3.7066839,11.942641,-1
1114,1115,1580690555535,-0.3469,0.41579998,3.25,-0.108715914,-3.4578497,12.270983,-1
1115,1116,1580690555545,-0.0862,0.7479,3.3760998,0.18241902,-3.0779283,12.41295,-1
1116,1117,1580690555555,0.2954,0.93719995,3.4905,0.5843672,-2.8337965,12.548959,-1
1117,1118,1580690555566,0.2954,0.93719995,3.4905,1.0465246,-2.6603892000000005,13.321272,-1
1118,1119,1580690555576,0.7341,1.0606999,4.2342997,1.0691451,-2.7676013,14.516198000000001,-1
1119,1120,1580690555586,0.6676,0.4563,6.7900996,1.0148255,-3.1703062,15.904260999999998,-1
1120,1121,1580690555596,0.049799997,0.0325,8.5589,0.40123948,-3.5600343,17.691370000000003,-1
1121,1122,1580690555606,-0.1555,-0.4007,9.908999,0.25719473,-3.9676998,19.197695,-1
1122,1123,1580690555616,0.2538,-0.59599996,10.2167,0.7833062,-3.9961526,19.376791,-1
1123,1124,1580690555627,0.2538,-0.59599996,10.2167,1.2998695,-3.8258288,18.98605,-1
1124,1125,1580690555637,1.3723999,-0.4888,8.9333,1.9237123,-3.55968,18.110689999999998,-1
1125,1126,1580690555647,1.3865,-0.5726,8.2338,1.9648255000000001,-3.4866567,17.438025,-1
1126,1127,1580690555657,1.5258,-0.71209997,7.4459,2.2213595,-3.3842232000000005,16.757026999999997,-1
1127,1128,1580690555667,2.0665998,-0.8276,7.0042995999999995,2.7950392,-3.2925828,16.437601,-1
1128,1129,1580690555678,2.4003,-0.9162,6.6938996,3.0391614,-3.1652112,16.226673,-1
1129,1130,1580690555688,2.6803,-1.1223,6.2594,3.4741970999999996,-3.089727,15.718432,-1
1130,1131,1580690555698,3.0272,-1.188,5.9561,3.7699769999999995,-2.8742967,15.453739,-1
1131,1132,1580690555708,3.096,-1.2462,5.4912,3.7793050000000004,-2.6519327,15.033010500000001,-1
1132,1133,1580690555718,2.9828,-1.3174,5.112,3.7067127,-2.4188907000000004,14.671132,-1
1133,1134,1580690555728,2.8014,-1.4164,4.6933,3.6031299,-2.2133439,14.239285,-1
1134,1135,1580690555739,2.5588999,-1.5295999,4.1879,3.4363115,-2.0210032,13.798359,-1
1135,1136,1580690555749,2.3660997999999998,-1.7466999,3.9394998999999995,3.4045355,-1.9223907,13.660664,-1
1136,1137,1580690555759,2.2700999,-1.9832,3.7612997999999997,3.3123684,-1.8422903000000002,13.341745999999999,-1
1137,1138,1580690555769,1.9255999,-2.2273998,3.3286,2.9820835999999997,-1.7116147000000002,12.899318,-1
1138,1139,1580690555779,1.5496,-2.4375,2.9836,2.6439266,-1.6328743000000001,12.549601,-1
1139,1140,1580690555789,1.1787,-2.6411,2.6473,2.3525044999999998,-1.5018253000000001,12.18234,-1
1140,1141,1580690555800,0.8264,-2.8888,2.2612997999999997,1.9402515,-1.4357836000000002,11.724099,-1
1141,1142,1580690555810,0.33949998,-3.0446,1.9832,1.562753,-1.2166471,11.552242999999999,-1
1142,1143,1580690555820,0.08549999400000001,-3.1269999,2.1759,1.2261186000000002,-1.0602770000000001,11.956595,-1
1143,1144,1580690555830,-0.42499998,-3.3423,2.7705998,0.6629161,-0.9055924000000001,12.307413,-1
1144,1145,1580690555841,-0.93179995,-3.4824998,2.9266999,0.38947916,-0.7207216999999999,12.114306,-1
1145,1146,1580690555851,-1.1175,-3.6197,2.7925,0.27093744,-0.5343091999999999,11.921966000000001,-1
1146,1147,1580690555861,-1.2253,-3.6883,2.5609999,0.24460122,-0.18393214,11.113224,-1
1147,1148,1580690555871,-1.247,-3.6125,1.6186999,0.31497159999999996,0.25785553,9.968958,-1
1148,1149,1580690555881,-1.0879999,-3.4840998999999995,0.677,0.47890738,0.5747329000000001,9.093494,-1
1149,1150,1580690555892,-0.8732,-3.4273998999999997,-0.0495,0.5869529,1.0417554,8.241781,-1
1150,1151,1580690555902,-0.7216,-3.2684,-0.667,0.7164026,1.2974083,7.808497,-1
1151,1152,1580690555912,-0.5182,-3.3337,-0.7412,0.8422323,1.4255171999999998,7.443554,-1
1152,1153,1580690555922,-0.36339998,-3.5391998,-1.1527,0.67238766,1.3415190000000001,6.32142,-1
1153,1154,1580690555933,-0.42319998,-3.8018,-2.2323,0.5997667,1.589386,5.2040653,-1
1154,1155,1580690555943,-0.37809998,-3.7847998,-3.1476,0.88281876,1.7919451000000002,4.3160944,-1
1155,1156,1580690555953,-0.0050999997,-3.7879998999999995,-3.7445,1.1323329,2.1276026000000003,4.2782273,-1
1156,1157,1580690555963,0.2443,-3.6908998,-3.4766998,0.94101703,2.3473616,4.6042223,-1
1157,1158,1580690555973,-0.0049,-3.7198,-3.0709999,0.3234758,2.2078178,4.6180415,-1
1158,1159,1580690555983,-0.5879,-4.104,-2.9282,-0.44937250000000006,1.7684531000000003,4.4264383,-1
1159,1160,1580690555993,-1.2962999,-4.8044,-3.0681998999999998,-1.5715158,1.165057,3.6471449999999996,-1
1160,1161,1580690556004,-2.3402,-5.5824,-3.7493,-2.5829031000000002,0.5947197,2.8924830000000004,-1
1161,1162,1580690556014,-3.1927,-6.2658,-4.2806997,-3.1391240000000002,0.54459465,2.4512796000000003,-1
1162,1163,1580690556024,-3.5251,-6.3718,-4.5274997,-3.1986535,0.663213,2.4810252,-1
1163,1164,1580690556034,-3.3769,-6.3517,-4.2651,-2.9327726000000003,1.397103,2.8470316,-1
1164,1165,1580690556044,-3.0491998,-5.7893,-3.843,-2.5959373,2.0789428,3.270834,-1
1165,1166,1580690556054,-2.641,-5.2098,-3.3058,-1.7786428,2.6752043,3.7168449999999997,-1
1166,1167,1580690556065,-1.7593,-4.714699700000001,-2.7484999,-1.5159893999999998,3.058928,3.9788089,-1
1167,1168,1580690556075,-1.4541,-4.4344997,-2.3646998,-1.4880538,3.212444,3.8564364999999996,-1
1168,1169,1580690556085,-1.3734,-4.379699700000001,-2.369,-1.6393483,3.5249736000000005,3.7862002999999995,-1
1169,1170,1580690556095,-1.0006,-3.819,-2.6887999,-1.2542266000000002,3.9743364000000003,3.2857738,-1
1170,1171,1580690556105,-0.5212,-3.5268,-3.3305,-0.84937656,4.3494697,2.5250112999999996,-1
1171,1172,1580690556116,-0.3207,-3.4255,-3.9543,-0.72263706,4.540603599999999,1.7809988,-1
1172,1173,1580690556126,-0.40269998,-3.2983,-4.513099700000001,-0.8929319,4.7442255,0.95852345,-1
1173,1174,1580690556136,-0.4797,-3.3525,-4.869,-1.0480762,4.7625459999999995,0.50001466,-1
1174,1175,1580690556146,-0.2543,-3.3047,-5.6099,-0.8983332,4.882524500000001,-0.24883416,-1
1175,1176,1580690556156,-0.2543,-3.3047,-5.6099,-0.96152097,5.047791,-0.6278746000000001,-1
1176,1177,1580690556166,-0.2622,-2.938,-6.0214,-1.0095966,5.4457746,-0.91676855,-1
1177,1178,1580690556177,-0.2865,-2.6368,-6.0105996,-1.0752168,5.7979045,-0.94453174,-1
1178,1179,1580690556187,-0.5072,-2.3244,-5.8789997000000005,-1.3666295,6.099315,-0.8862664000000001,-1
1179,1180,1580690556197,-0.7655,-2.4185998,-5.7205,-1.6999790000000001,5.9611025,-0.7125335999999999,-1
1180,1181,1580690556207,-1.2633,-2.7208,-5.3039,-2.1748354,5.7128816,-0.3824785,-1
1181,1182,1580690556217,-1.8584,-2.8414,-4.9096,-3.002597,5.5933437,0.12577221,-1
1182,1183,1580690556228,-2.6023998,-2.8065999,-4.4701,-3.8451166,5.63122,0.68885016,-1
1183,1184,1580690556238,-2.8232,-2.6719999999999997,-3.9968,-3.8323412000000006,5.8562365,1.1041675,-1
1184,1185,1580690556248,-2.4046,-2.1980999,-3.7775,-3.2261868,6.447978,1.1835976000000001,-1
1185,1186,1580690556259,-1.5618,-1.5733,-3.9559998999999997,-2.3409544999999996,6.989316499999999,0.9232136999999999,-1
1186,1187,1580690556269,-0.7475,-1.1474,-4.2125998,-1.6026595,7.343351400000001,0.81780183,-1
1187,1188,1580690556279,-0.0103,-0.81619996,-3.9664998,-0.8154938,7.6527114,1.3241564,-1
1188,1189,1580690556289,0.45299998,-0.7021,-3.2045999,-0.6124943,7.584486500000001,2.2796822,-1
1189,1190,1580690556299,0.2021,-0.862,-2.1919999999999997,-1.134976,7.4576607,3.2698379,-1
1190,1191,1580690556309,-0.67399997,-0.75949997,-1.3943,-2.0556808,7.5627565,4.219043,-1
1191,1192,1580690556320,-1.3399,-0.7316,-0.1892,-2.5239005,7.4404416,5.569191,-1
1192,1193,1580690556330,-1.7253,-0.91029996,0.8307,-3.0105362,7.163844,6.1833706,-1
1193,1194,1580690556340,-2.0973,-0.9978,0.77239996,-3.122604,7.2869635,6.011783,-1
1194,1195,1580690556350,-1.9347999,-0.7995,0.68549997,-2.5372696,7.521289,6.0832644,-1
1195,1196,1580690556360,-1.9347999,-0.7995,0.68549997,-1.7092876000000001,7.8731313,5.8118669999999995,-1
1196,1197,1580690556371,-0.41489998,-0.0999,0.2952,-0.7084347,8.224275,5.664029599999999,-1
1197,1198,1580690556382,0.49229997,0.20549999,0.2321,0.03847961,8.497519500000001,5.9761763,-1
1198,1199,1580690556392,0.84889996,0.44259998,0.57589996,-0.114931256,8.623664999999999,6.457382,d
1199,1200,1580690556403,0.5743,0.56079996,0.98859996,-0.62041426,8.568694,6.6305785,-1
1200,1201,1580690556413,0.0391,0.5182,1.0524,-0.97900826,8.411788,6.811101400000001,-1
1201,1202,1580690556423,-0.24509999,0.3803,1.2411,-1.1722968999999999,8.204709,7.267657000000001,-1
1202,1203,1580690556433,-0.45209998,0.2241,1.7034999,-1.3935117,8.099249,8.178842,-1
1203,1204,1580690556443,-0.691,0.18429999,2.5994,-1.446864,8.083132,8.887861000000001,-1
1204,1205,1580690556454,-0.69629997,0.100999996,3.2763,-1.538581,7.810547,9.123173,-1
1205,1206,1580690556465,-0.8882,-0.059000000000000004,3.2389997999999998,-1.7052080000000003,7.895914599999999,9.000829,-1
1206,1207,1580690556475,-1.0109,0.0569,3.1153,-1.4350557,7.804791000000001,8.751314,-1
1207,1208,1580690556485,-0.7528,-0.030499997999999997,2.8539999,-1.3650301999999999,7.6154194,7.681661999999999,-1
1208,1209,1580690556495,-0.6978,-0.20269999,1.7875999,-1.4234582,7.456253,6.5846386,-1
1209,1210,1580690556505,-0.6094,-0.44739997,0.5668,-1.2732459999999999,7.364967,6.48097,-1
1210,1211,1580690556515,-0.6094,-0.44739997,0.5668,-1.2143774,7.1842237,6.328028,-1
1211,1212,1580690556526,-0.5586,-0.6109,0.39299998,-1.4196467,6.9218864,5.834861,-1
1212,1213,1580690556536,-1.5636,-1.3572999,-0.3681,-2.4321928,6.2811785,5.610735,-1
1213,1214,1580690556546,-2.8088,-2.0983999,-0.41459998,-3.8233392,5.450668299999999,5.545766,-1
1214,1215,1580690556556,-4.3585,-3.1278,-0.76,-5.055376,4.6244197,5.235372,-1
1215,1216,1580690556567,-4.3585,-3.1278,-0.76,-6.512047,3.9445144999999995,4.720686,-1
1216,1217,1580690556578,-7.1575,-4.9307,-2.6060998,-7.9814067,2.6520092,3.0521857999999997,-1
1217,1218,1580690556588,-7.6568,-5.7397,-4.1219,-8.339694,1.6545466,1.4138431999999999,-1
1218,1219,1580690556598,-7.6552,-6.6503997,-5.3427,-8.314316,0.72765535,0.060314726,-1
1219,1220,1580690556608,-7.7994,-7.626,-6.7081,-8.644945,-0.34970668,-1.1054030000000001,-1
1220,1221,1580690556618,-8.3404,-8.9158,-7.6755996,-9.192959,-1.7404984000000001,-1.9057941000000003,-1
1221,1222,1580690556629,-9.3757,-10.0899,-8.4001,-10.286984,-2.999973,-2.508022,-1
1222,1223,1580690556639,-10.3057995,-11.4095,-8.8449,-11.405565,-4.412810299999999,-2.7035517999999996,-1
1223,1224,1580690556649,-11.789000000000001,-12.5562,-9.376599,-12.609523,-5.277673,-3.4610677000000005,-1
1224,1225,1580690556659,-12.5534,-12.894799,-10.098499,-13.054289,-5.7000675,-3.7445028,-1
1225,1226,1580690556669,-12.848599,-13.4436,-10.1271,-12.788476,-6.3690553,-3.3631830000000003,-1
1226,1227,1580690556679,-12.669,-13.9042,-9.373199000000001,-11.955906,-7.1011257,-2.0611777,-1
1227,1228,1580690556690,-11.8536,-14.5604,-8.1546,-10.733483999999999,-7.833694,-0.63450176,-1
1228,1229,1580690556700,-10.0394,-15.1256,-6.4851,-7.043961500000001,-8.499444,1.4710549,-1
1229,1230,1580690556710,-6.5396,-15.0174,-5.0642,-3.5548437000000006,-8.234771,2.8436892000000005,-1
1230,1231,1580690556720,-1.5378,-14.2279,-3.2047,2.5985515,-7.33005,5.029193,-1
1231,1232,1580690556730,4.6857,-12.0432,-1.7918999,10.533521,-4.159810500000001,5.700106,-1
1232,1233,1580690556740,10.5465,-8.6338,-1.9574,13.976295,-2.3544102000000002,5.6543193,-1
1233,1234,1580690556751,14.725598999999999,-5.8812,-1.5957999,19.300722,0.5301529,7.2512419999999995,-1
1234,1235,1580690556761,17.2645,-4.0092,0.45139998,21.288475,1.309772,10.494599000000001,-1
1235,1236,1580690556771,18.9653,-3.2114,4.092,23.282051,1.3908876000000001,14.891570000000002,-1
1236,1237,1580690556781,20.529,-2.8588998,8.318399000000001,25.066132999999997,1.4915206,18.434701999999998,-1
1237,1238,1580690556792,21.8843,-2.2535,11.130899000000001,26.21037,1.8600361,20.036144,-1
1238,1239,1580690556802,22.8734,-1.7078999,11.6841,27.205340999999997,1.9894474999999998,19.396519,-1
1239,1240,1580690556812,23.422698999999998,-1.1995,10.6689,27.70572,3.0296037,18.725243,-1
1240,1241,1580690556822,23.9716,0.21100000000000002,10.229899000000001,28.575715999999996,3.8915641000000005,18.429895000000002,-1
1241,1242,1580690556833,26.3266,1.875,9.4258995,32.183685,5.9991035,17.258736,-1
1242,1243,1580690556843,28.594799,3.5277,8.414,33.935413,7.1030507,15.572931,-1
1243,1244,1580690556853,30.0154,4.6355,6.659,34.221283,7.401426,14.20135,-1
1244,1245,1580690556863,29.6537,4.7037,5.0049996,31.315851000000002,6.565878,12.049930999999999,-1
1245,1246,1580690556874,26.483,3.6780998999999994,3.0121,27.914915,4.9003177,9.204298,-1
1246,1247,1580690556884,23.1035,1.9449999,0.16059999,24.631546,3.3994025999999997,7.2044883,-1
1247,1248,1580690556894,19.888199,0.42209998,-1.5367998999999999,21.644138,2.0534205,6.3170150000000005,-1
1248,1249,1580690556904,16.9545,-0.98029995,-2.2768,18.33201,0.46767380000000003,5.6275325,-1
1249,1250,1580690556914,14.286098999999998,-2.3474998,-2.8658,16.074066000000002,-0.81830937,4.4348183,-1
1250,1251,1580690556924,12.1003,-3.6671998999999995,-4.0717,13.864429000000001,-2.3422954,2.5051202999999997,-1
1251,1252,1580690556935,7.8394,-7.2639,-8.3749,11.649275999999999,-4.2886185999999995,0.16787185,-1
1252,1253,1580690556945,5.7565,-9.0064,-10.7414,9.5209255,-5.953604,-2.230467,-1
1253,1254,1580690556955,5.7565,-9.0064,-10.7414,7.967558400000001,-6.838213400000001,-3.2665818,-1
1254,1255,1580690556965,3.7758,-10.1391,-11.8265,5.0953207,-8.193677000000001,-3.0172877000000002,-1
1255,1256,1580690556975,-2.0209,-12.722899,-10.5774,1.8308748,-9.570888499999999,-2.1419005,-1
1256,1257,1580690556985,-2.0209,-12.722899,-10.5774,-0.93192863,-10.927097999999999,-1.7076021000000001,-1
1257,1258,1580690556996,-8.8647995,-15.6587,-9.7438,-4.9764247,-12.652522,-1.2746921999999998,-1
1258,1259,1580690557006,-8.8647995,-15.6587,-9.7438,-6.853517,-13.300144,-0.32827377,-1
1259,1260,1580690557016,-11.3944,-16.150098999999997,-8.6074,-10.996252,-13.470066000000001,0.6884861999999999,-1
1260,1261,1580690557026,-18.0885,-17.1246,-6.5125,-13.977789999999999,-14.672846,2.054091,-1
1261,1262,1580690557036,-18.0885,-17.1246,-6.5125,-15.435657999999998,-16.959394,3.952808,-1
1262,1263,1580690557046,-20.8333,-21.4834,-0.46629998,-16.879476999999998,-20.323007999999998,9.996645,-1
1263,1264,1580690557056,-23.283298000000002,-23.366498999999997,6.5895996,-19.274931,-22.400973999999998,17.279425,-1
1264,1265,1580690557067,-25.7809,-24.535598999999998,13.9944,-21.28225,-23.537024,23.799715,-1
1265,1266,1580690557077,-28.1575,-23.8982,20.4418,-22.9546,-23.196835999999998,28.721953999999997,-1
1266,1267,1580690557087,-29.3755,-21.7093,24.682299,-23.965557,-21.452745,32.861645,-1
1267,1268,1580690557097,-27.199,-19.3699,26.397999,-20.963526,-19.180246,34.598457,-1
1268,1269,1580690557107,-23.339499,-16.719099,26.8667,-16.966155999999998,-17.022879,35.115726,-1
1269,1270,1580690557117,-23.339499,-16.719099,26.8667,-13.607216000000001,-15.607245,35.44417,-1
1270,1271,1580690557128,-15.7079,-12.293799,25.986599,-9.881828,-13.665184,33.722122,-1
1271,1272,1580690557138,-13.0491,-10.440999999999999,24.510399,-7.399299000000001,-12.338183,32.32762,-1
1272,1273,1580690557149,-10.3963995,-9.1607,23.1903,-4.342871,-11.334955,30.896013,-1
1273,1274,1580690557159,-7.1168,-7.8698997,22.5752,-0.919316,-10.279487,30.82572,-1
1274,1275,1580690557169,-3.1864998,-6.4921,23.3391,2.770331,-9.327906,32.020638,-1
1275,1276,1580690557179,0.392,-5.4294996,24.6339,5.6806936,-8.525389,33.1477,-1
1276,1277,1580690557189,3.2061,-4.2774,25.2738,8.306214,-7.5995603,33.52904,-1
1277,1278,1580690557199,6.5744996,-3.3811998,24.939299,11.428434,-7.0337243,32.700794,-1
1278,1279,1580690557209,9.2443,-3.0196,23.1292,12.872617,-6.9244046,31.115543,-1
1279,1280,1580690557220,10.0692,-3.4413998,21.3769,13.161223000000001,-7.437846,29.587716999999998,-1
1280,1281,1580690557230,10.4938,-4.4281,19.4631,13.530716,-8.563121,26.981866999999998,-1
1281,1282,1580690557240,11.364699,-5.3301997000000005,16.4595,15.124651,-8.630973,23.680706,-1
1282,1283,1580690557250,13.717099,-4.9455,14.092198999999999,16.854864000000003,-8.069954,22.734247,-1
1283,1284,1580690557260,16.8678,-4.2989,12.7241,20.232470000000003,-6.924903,21.36422,-1
1284,1285,1580690557271,18.857,-3.4812,11.8671,21.728329000000002,-5.607632,20.835404999999998,-1
1285,1286,1580690557281,19.9138,-2.7073998,11.257199,22.2839,-4.778137,19.813139000000003,-1
1286,1287,1580690557291,19.8221,-3.0149,9.6089,21.5577,-5.20397,17.453298999999998,-1
1287,1288,1580690557301,18.5811,-4.0242,6.9553,20.037477,-5.621164,15.264567999999999,-1
1288,1289,1580690557311,16.4059,-4.8677,3.9413998,17.33836,-5.987238,11.857705000000001,-1
1289,1290,1580690557321,14.1486,-5.5059,1.4568,15.614179,-5.8113402999999995,10.273596000000001,-1
1290,1291,1580690557332,12.1977,-5.531399700000001,-0.1219,13.675583999999999,-5.063928,8.817749000000001,-1
1291,1292,1580690557342,10.821899,-5.3371,-1.0306,12.587745,-4.10686,7.6579880000000005,-1
1292,1293,1580690557352,10.017999999999999,-5.0195,-2.0751998,12.357654,-3.6867452000000003,6.748977,-1
1293,1294,1580690557362,9.6959,-4.7567,-3.8655,12.2278,-2.6056097,3.3115065,-1
1294,1295,1580690557373,9.5708,-4.5053997,-6.4632998,12.008052000000001,-1.9970229,1.2364709999999999,-1
1295,1296,1580690557383,9.1079,-4.205,-8.7852,11.552454,-1.3654993999999998,-0.9012446,-1
1296,1297,1580690557393,8.4923,-4.1826,-10.4098,10.433366,-1.2753242,-2.5046892000000005,-1
1297,1298,1580690557404,7.3373,-4.6339999999999995,-11.4655,8.951767,-1.5432832,-3.1883297,-1
1298,1299,1580690557415,5.7304997,-5.240999700000001,-11.823,7.2466645000000005,-1.6845603,-2.8585522,-1
1299,1300,1580690557425,4.3606,-5.6078997,-11.360499,6.8165507,-2.059837,-2.0924175,-1
1300,1301,1580690557435,3.9903998,-6.4753,-9.8574,7.245812,-2.0761943,-1.6088269,-1
1301,1302,1580690557445,3.9903998,-6.4753,-9.8574,8.587427,-1.8086468999999998,-1.8558894000000001,-1
1302,1303,1580690557456,5.6345997,-6.3093996,-10.0355,10.975394,-1.1587744,-2.561662,-1
1303,1304,1580690557466,7.9821,-5.7981,-10.6484995,12.82775,-0.9215761,-2.9406064,-1
1304,1305,1580690557476,11.4387,-6.1053,-11.0911,14.547112,-1.2294610000000001,-3.1748263999999997,-1
1305,1306,1580690557486,11.4655,-7.0909996,-10.1137,14.620489000000001,-2.1210136000000004,-2.285725,-1
1306,1307,1580690557496,10.7585,-7.8044996,-8.7274,13.968616,-2.7313723999999997,-0.9802053,-1
1307,1308,1580690557506,10.353499000000001,-8.319799,-7.5167,13.6058655,-3.1651826,0.1729667,-1
1308,1309,1580690557517,10.1411,-8.643599499999999,-6.5860996,13.455357000000001,-3.4395580000000003,1.2077502,-1
1309,1310,1580690557527,10.5837,-8.9611,-5.9086,14.022226000000002,-3.766807,1.8423287,-1
1310,1311,1580690557537,11.4807,-9.1775,-5.303999999999999,14.968138,-3.8341322,2.3433490000000003,-1
1311,1312,1580690557548,12.678599,-8.847199,-4.825,16.201687,-3.3622062000000006,2.8142116,-1
1312,1313,1580690557558,13.7441,-8.2409,-4.545,17.141037,-2.7486968,3.0261082999999998,-1
