,Seq,Time,ACCx,ACCy,ACCz,ADGx,ADGy,ADGz,Keydown
0,1,1580692733036,-0.3748,0.0964,0.6042,-0.4897579000000001,-2.0111198,10.386928,-1
1,2,1580692733046,0.5948,0.58169997,0.6586,-0.39435375,2.0743268,9.591182,-1
2,3,1580692733056,-0.0023999998999999998,0.0116,0.0539,-0.45658383,2.0790195,9.723848,-1
3,4,1580692733066,0.0605,-0.013999999499999999,0.1731,-0.36342067,2.1003182000000002,9.828802,-1
4,5,1580692733076,0.093499996,0.039899997,0.2429,-0.35736814,2.138271,9.797447,-1
5,6,1580692733087,0.13699999999999998,0.0358,0.18519999,-0.31422459999999997,2.2130563,9.725477,-1
6,7,1580692733097,0.1422,0.1392,0.0883,-0.38745844,2.1890185,9.626089,-1
7,8,1580692733108,0.0058999998,0.04,0.089099996,-0.6347507,2.0347459999999997,9.688061,-1
8,9,1580692733118,-0.30629998,-0.12979999,0.118099995,-1.1723831,1.7793418999999997,9.906986,-1
9,10,1580692733128,-0.8851,-0.42459998,0.4691,-1.8511106,1.524302,10.298209,-1
10,11,1580692733138,-1.5091,-0.5906,0.8684,-2.5365033,1.4741578000000002,10.877864,-1
11,12,1580692733148,-2.1199,-0.5573,1.5044999,-2.9376662000000002,1.3931669,11.270963,-1
12,13,1580692733159,-2.2698998,-0.5954,1.6617,-3.1114087,1.3925538999999998,11.334811,-1
13,14,1580692733169,-2.4394,-0.6042,1.7724999,-3.3117172999999993,1.3135835,11.064153,-1
14,15,1580692733179,-2.4778,-0.6642,1.3863,-3.3213227,1.3431758999999999,10.47969,-1
15,16,1580692733190,-2.411,-0.6156,0.7287,-3.4617572,1.47411,9.784854,-1
16,17,1580692733200,-2.5068,-0.5476,0.132,-3.6169013999999997,1.3170600000000001,9.472841,-1
17,18,1580692733210,-2.5203,-0.7234,-0.12979999,-3.9664261,1.1024532,9.3183,-1
18,19,1580692733220,-2.8000998,-0.93179995,-0.18419999,-4.6828194000000005,0.789895,9.356952,-1
19,20,1580692733231,-3.4122,-1.2722,-0.108899996,-5.9591203,0.21715410000000002,9.503860000000001,-1
20,21,1580692733241,-4.3473997,-1.7032,0.0087,-6.785512,-0.068598665,9.586211,-1
21,22,1580692733251,-5.1661997,-2.009,0.0613,-7.4710875,-0.41412985,9.432762,-1
22,23,1580692733261,-5.6236997,-2.2672,-0.03,-7.867136,-0.36776853,9.058741,-1
23,24,1580692733271,-5.7711,-2.1973999,-0.3636,-7.828742500000001,-0.18227535,8.52875,-1
24,25,1580692733281,-5.5877,-2.0124,-0.84999996,-7.561913499999999,-0.07846278,8.066113,-1
25,26,1580692733292,-5.1686997,-1.9125999,-1.2713,-7.425128,-0.063896455,7.421154,-1
26,27,1580692733302,-4.4031997,-1.8413999,-2.3030999,-7.1315894,0.10293152,6.759109,-1
27,28,1580692733313,-3.7356,-1.6858,-3.5161998,-6.708122299999999,0.21955788,5.645039,-1
28,29,1580692733323,-2.9721,-1.7191,-5.1969,-6.2058377,0.21004811,3.8755517,-1
29,30,1580692733333,-2.3539,-1.8316,-6.6116,-5.9381566,0.099244446,2.3248273999999998,-1
30,31,1580692733343,-1.6777999,-2.1897,-7.791,-5.924605400000001,-0.37324646,0.87152773,-1
31,32,1580692733353,-1.6621,-3.2656,-8.668099,-6.4565779999999995,-1.6471533999999999,-0.40462968,-1
32,33,1580692733364,-2.0916,-4.0288,-9.451,-6.925726400000001,-2.3963757,-1.3565833999999999,-1
33,34,1580692733375,-2.135,-4.8019,-10.3255,-6.731183000000001,-2.999906,-2.1598382000000003,-1
34,35,1580692733385,-1.2437,-5.2475,-10.720699,-5.664489700000001,-3.3242054,-2.4557900000000004,-1
35,36,1580692733395,0.042999998,-5.5193996,-10.854199000000001,-4.06727,-3.559182,-2.6948654999999997,-1
36,37,1580692733405,1.4742,-5.8037996,-10.769999499999999,-2.800335,-3.7349641000000005,-2.0266151000000003,-1
37,38,1580692733415,2.3336,-5.7749,-9.5541,-2.153029,-3.6225708,-0.75713277,-1
38,39,1580692733426,2.8429,-5.5885997000000005,-8.5934,-1.5874611,-3.5829995,-0.11794795,-1
39,40,1580692733436,3.4994,-5.729,-8.3173,-0.9482858000000001,-3.9297372999999998,0.14823939,-1
40,41,1580692733446,4.2269998,-6.1644998,-7.7724,-0.3018801,-4.4285455,1.1775546000000001,-1
41,42,1580692733456,4.8066998,-6.5371,-6.2349,0.39602009999999993,-4.7893514999999995,2.8192587000000002,-1
42,43,1580692733467,5.5882,-6.7198,-4.9785,1.5405346000000002,-4.8777647,3.7900405,-1
43,44,1580692733477,7.5955997,-6.5239,-4.4249,4.187555000000001,-4.762077,4.202811,-1
44,45,1580692733488,10.2827,-6.4027996,-4.2299,6.948739,-4.427137999999999,4.8398595,-1
45,46,1580692733498,11.823999,-5.7879,-3.6134998999999994,7.950281599999999,-3.7255409,4.3745513,-1
46,47,1580692733511,12.066199000000001,-5.0787997,-4.3759,7.097429300000001,-3.4185847999999996,4.4792643,-1
47,48,1580692733518,11.3417,-4.9728,-3.9266,6.516806,-4.293005,6.227826,-1
48,49,1580692733529,10.8426,-5.7742996,-2.0602,6.4502764,-5.0000987,7.6759353,-1
49,50,1580692733539,11.1242,-6.3436,-0.3673,7.8004723,-5.452909,9.511981,-1
50,51,1580692733549,13.1305,-6.3106,1.5878999,10.6498785,-5.1406956,11.6553,-1
51,52,1580692733559,15.557799,-5.7426996,3.2001998,13.468189,-4.7950306,13.231545,-1
52,53,1580692733570,18.265999,-5.1218,4.751,15.052931,-3.9259546000000003,14.234994,-1
53,54,1580692733580,19.615,-3.9243,5.5783,14.361973999999998,-3.0522337000000004,15.005602,-1
54,55,1580692733591,18.439999,-2.9271998,6.4006996,12.382753999999998,-3.0820749,15.800381,-1
55,56,1580692733601,16.5107,-2.8369,7.1775,10.711084,-3.203806,15.567147,-1
56,57,1580692733611,15.002,-2.6919,6.6168,10.142106,-3.5890519999999997,13.615826,-1
57,58,1580692733621,14.811998999999998,-2.9448,4.4003,11.3130245,-3.9818637000000003,10.440904,-1
58,59,1580692733631,15.8424,-3.0152,1.7921,12.37989,-4.0382620000000005,10.983228,-1
59,60,1580692733641,16.8676,-2.8446999,2.3422,12.370027,-4.200349299999999,14.017676999999999,-1
60,61,1580692733652,16.824,-2.7143,5.3992,11.235625,-4.5665949999999995,17.4207,-1
61,62,1580692733662,15.6741,-2.7388,8.8652,9.695799000000001,-4.9977527,20.46193,-1
62,63,1580692733672,12.9662,-2.6144,13.8185,8.584947,-5.1418643,22.23024,-1
63,64,1580692733682,12.293699,-2.129,12.8897,7.9809465,-4.9559207,21.235085,-1
64,65,1580692733693,12.293699,-2.129,12.8897,7.6986227,-5.1931577,18.961369,-1
65,66,1580692733704,11.358299,-2.2549,9.9411,7.209861,-5.586755,18.151861,-1
66,67,1580692733714,11.064,-2.0407,10.1585,7.1559334,-5.473346,18.625051000000003,-1
67,68,1580692733725,11.064,-2.0407,10.1585,7.5971947,-5.483095,20.087688,-1
68,69,1580692733735,11.657499000000001,-1.3636,13.983298999999999,8.168959,-5.1910124,23.001986,-1
69,70,1580692733745,11.6772995,-0.92719996,15.948198999999999,8.284388,-5.2577915,24.815382,-1
70,71,1580692733755,11.3656,-1.203,17.2249,7.660976,-5.9175663,25.541393,-1
71,72,1580692733765,9.7128,-1.7867998999999999,17.367898999999998,5.9833110000000005,-6.7402619999999995,25.292576,-1
72,73,1580692733776,7.9354997,-2.5935,16.8883,4.500553,-7.735810000000001,24.792408,-1
73,74,1580692733786,6.1594996,-3.5279998999999997,16.234,2.7866017999999997,-8.701141,23.97409,-1
74,75,1580692733796,4.1271,-4.1594,15.083098999999999,1.1080364999999999,-9.112906,22.796152,-1
75,76,1580692733806,2.5242999,-4.2395997,13.7546,-0.014288596,-8.976073,21.470665,-1
76,77,1580692733816,1.5295999,-4.0833,12.198299,-0.5395669,-8.746613,19.841343,-1
77,78,1580692733826,1.1251,-3.8765,10.2732,-0.65938234,-8.476527,18.061083,-1
78,79,1580692733836,0.8305,-3.7575998,8.9437,-0.63008684,-8.263931,17.42906,-1
79,80,1580692733847,0.52889997,-3.5396998,9.038,-0.98606634,-7.989863000000001,17.94213,-1
80,81,1580692733857,-0.57809997,-3.7203,9.637,-2.5963488,-8.362994,18.704058,-1
81,82,1580692733867,-2.435,-4.237,10.1111,-3.9617044999999997,-8.641755999999999,19.088001000000002,-1
82,83,1580692733877,-4.2813,-4.7461,10.3386,-5.813591000000001,-9.045237,19.171148000000002,-1
83,84,1580692733887,-5.9062,-5.1493,9.9824,-6.9869127,-9.11352,18.517914,-1
84,85,1580692733897,-6.9551997000000005,-5.4316,8.9732,-7.350390400000001,-9.338018,17.153212,-1
85,86,1580692733908,-7.2514,-5.9234,7.2549,-7.363175999999999,-9.434735,15.402245,-1
86,87,1580692733917,-7.3634,-6.2092,5.5498,-7.2272906,-9.457758,14.530679000000001,-1
87,88,1580692733927,-7.1222997,-6.4084997,5.5611,-6.600842999999999,-8.837793,16.059739999999998,-1
88,89,1580692733937,-6.6749997,-5.6266,7.4289,-6.1446037,-7.6020117,17.964022,-1
89,90,1580692733947,-6.4846,-4.855,9.0397,-6.2176747,-7.104583,18.934572,-1
90,91,1580692733958,-6.9519,-5.0106997,9.1807995,-7.054094,-7.4015307,17.705236,-1
91,92,1580692733968,-7.9837,-5.8901,7.0653996,-8.120605,-8.370455,14.995996,-1
92,93,1580692733978,-9.0302,-7.3483996,4.1397,-9.134482,-9.276947,12.050103,-1
93,94,1580692733989,-10.1248,-8.4847,1.0879999,-10.161873,-9.758142999999999,8.938359,-1
94,95,1580692734000,-10.9175,-9.1998,-2.0654,-10.462862,-9.721789999999999,5.6455082999999995,-1
95,96,1580692734010,-10.8579,-9.409699,-4.6129,-9.676789,-8.949028,3.8379629,-1
96,97,1580692734021,-9.941199000000001,-8.8975,-6.1152997000000004,-8.376986500000001,-7.777228999999999,3.462188,-1
97,98,1580692734031,-8.505199000000001,-8.0478,-6.3515997,-6.614432300000001,-6.507086,3.4479089,-1
98,99,1580692734041,-6.992799799999999,-7.2654,-6.3268,-5.436964,-5.6448574,3.6420980000000003,-1
99,100,1580692734052,-5.7619,-6.6301,-6.1122,-4.6996455,-5.072327,4.398771,-1
100,101,1580692734062,-4.8099,-6.1011,-5.1405997,-3.6692769999999997,-4.2275089999999995,5.180286,-1
101,102,1580692734072,-3.9136998999999997,-5.5832996,-4.5397,-3.0235415,-3.5639224,5.4639034,-1
102,103,1580692734082,-2.7863,-4.8196,-4.2118998,-2.5062025,-3.0376961,5.3933897,-1
103,104,1580692734093,-2.4085,-4.7345,-4.8182,-2.2637846,-2.8244207,4.6020959999999995,-1
104,105,1580692734103,-2.276,-4.7608,-5.9131,-2.1376294999999996,-2.7138755,3.4445763,-1
105,106,1580692734113,-1.8146,-4.7606997,-6.665499700000001,-1.6094111,-2.4832947,2.8986216000000002,-1
106,107,1580692734123,-0.5997,-4.1639,-6.2453,-0.3112558,-1.671239,3.4739002999999995,-1
107,108,1580692734133,1.0091,-3.2310998,-5.0467997,1.2851117,-0.6401041999999999,4.7193832,-1
108,109,1580692734143,2.3407,-2.3488998,-3.8641998999999996,2.4032805,0.2875149,5.8023386,-1
109,110,1580692734154,2.8594,-1.7635,-3.2925,2.6402586,0.95379245,6.292115,-1
110,111,1580692734165,2.7584999,-1.4391999,-3.1706998,2.243913,1.1262228,6.2691407,-1
111,112,1580692734175,2.2247999,-1.4094,-3.4559,1.7713453999999997,1.1831091999999999,6.0009804,-1
112,113,1580692734185,2.3606,-1.1955999,-4.381,1.8928558999999998,1.525231,4.784257,-1
113,114,1580692734195,3.1232,-1.0041,-5.7117,2.736333,1.887943,3.2637277,-1
114,115,1580692734205,3.7510998,-0.7795,-6.5014997,3.0283492,2.0781766999999998,2.8711267000000005,-1
115,116,1580692734215,4.1394997,-0.53279996,-6.6082997,3.5528135,2.5425557999999997,2.6734326,-1
116,117,1580692734225,4.6651,-0.1566,-6.6327,4.059283,3.0957315,2.7805395,-1
117,118,1580692734236,5.1004,0.4134,-6.1644998,4.2147144999999995,3.6482847,3.3915112,-1
118,119,1580692734245,5.0176,0.7353,-5.5169,4.0003853,3.8003642999999996,3.8752644,-1
119,120,1580692734255,4.5973,0.662,-5.1092,3.5983894,3.716596,4.1667824,-1
120,121,1580692734265,4.3159,0.7428,-4.5669,3.2062862,3.8137046999999997,4.845136,-1
121,122,1580692734275,4.1706,0.79459995,-3.7817,2.956954,3.7484102,5.90346,-1
122,123,1580692734285,3.8423,0.66429996,-2.6641998,2.5937154,3.7035138999999995,7.078236599999999,-1
123,124,1580692734295,3.6369998,0.7391,-1.7325,2.5936866000000003,3.8209160000000004,7.7096076,-1
124,125,1580692734305,3.8234,0.85969996,-1.5037999,2.8619905,3.9709752000000003,7.658792500000001,-1
125,126,1580692734316,4.0709,0.9108,-2.0362,3.02222,3.9525970999999998,6.782026299999999,-1
126,127,1580692734326,4.0222,0.8307,-3.1743,2.899723,3.9591572,5.7717977,-1
127,128,1580692734336,3.8367998999999995,0.8936,-3.5885,2.7207325,4.0491695,5.756503599999999,-1
128,129,1580692734346,3.6053,0.8619,-3.1057,2.4090555,3.9574144,6.459537,-1
129,130,1580692734356,3.095,0.7367,-2.3536,1.9896679,3.8361049,7.026656,-1
130,131,1580692734366,2.8100998,0.5628,-1.7912999,1.7869171999999998,3.5900192000000004,7.625609,d
131,132,1580692734376,2.6625,0.385,-1.4955,1.5900564,3.4278263999999994,7.829978,-1
132,133,1580692734387,2.3371,0.32709998,-1.2987,1.2940085,3.376495,8.087671,-1
133,134,1580692734397,2.1627998,0.25939998,-0.9454,1.2340673999999998,3.3587297999999994,8.678828,-1
134,135,1580692734407,2.1180000000000003,0.33699998,-0.37649998,1.1634288000000002,3.444806,9.306567999999999,-1
135,136,1580692734417,1.9197999,0.3619,0.252,0.92906517,3.2931576000000002,9.845877,-1
136,137,1580692734427,1.62,0.2236,0.6472,0.6816770999999999,3.1825836,9.899985000000001,-1
137,138,1580692734437,1.3874999,0.1157,0.44709998,0.587834,3.0852737,9.573723,-1
138,139,1580692734447,1.2333,0.0591,-0.0346,0.40234083,3.1158142000000004,8.94332,-1
139,140,1580692734458,1.0013,0.1074,-0.58379996,0.31184953,3.1516025,8.407738,-1
140,141,1580692734468,0.9271,0.0998,-1.0258,0.2788766,3.145004,8.31829,-1
141,142,1580692734478,0.8613,0.1096,-0.81299996,0.3621278,3.1934533,8.920469,-1
142,143,1580692734488,0.9697,0.1692,-0.0937,0.54870313,3.1849012,9.527985000000001,-1
143,144,1580692734498,1.1752,0.1774,0.62329996,0.76172006,3.1874678,10.347605999999999,-1
144,145,1580692734508,1.227,0.21869999,1.2907,0.82052165,3.2135262000000004,11.038132000000001,-1
145,146,1580692734518,1.2161,0.22039999,1.9195,0.7809406999999999,3.156209,11.458401,-1
146,147,1580692734529,1.0063,0.1372,2.2567,0.56638193,3.1442189999999997,11.478474,-1
147,148,1580692734539,0.8809999999999999,0.2184,1.8821,0.53574574,3.2381387000000004,10.850379,-1
148,149,1580692734549,0.89659995,0.3351,1.208,0.68902254,3.4592001000000003,10.083631,-1
149,150,1580692734559,1.0206,0.5123,0.6249,0.7941088000000001,3.6010902000000002,9.612556,-1
150,151,1580692734570,1.0407,0.5997,0.1994,0.654728,3.606702,9.336725,-1
151,152,1580692734580,0.8799,0.58169997,-0.030499997999999997,0.5505036,3.5624860000000003,9.239597,-1
152,153,1580692734590,0.7823,0.49929997,-0.0949,0.5047648,3.4564803,9.19135,-1
153,154,1580692734602,0.7273,0.3717,-0.16049999,0.41842985,3.3561919000000002,9.0657215,-1
154,155,1580692734612,0.61939996,0.2103,-0.32279998,0.38782236,3.2708051,9.008979,-1
155,156,1580692734622,0.5829,0.1961,-0.3313,0.36161065,3.2622721,8.9964905,-1
156,157,1580692734632,0.5829,0.1961,-0.3313,0.12425907,3.2675107000000003,9.215953,-1
157,158,1580692734642,0.14209999,0.2217,0.081199996,-0.07947792,3.3015275,9.407125,-1
158,159,1580692734652,0.14209999,0.2217,0.081199996,-0.08685206,3.2901022000000006,9.443458999999999,-1
159,160,1580692734662,0.2549,0.1558,0.1809,0.08823112,3.2368555,9.504138000000001,-1
160,161,1580692734673,0.4044,0.153,0.2207,0.28608796,3.2400922999999997,9.5455,-1
161,162,1580692734683,0.5182,0.1911,0.2994,0.38090792,3.2783613,9.619883,-1
162,163,1580692734693,0.5873,0.1619,0.3089,0.46448472,3.2411935,9.627075,-1
163,164,1580692734703,0.6709,0.1539,0.24949999,0.55163366,3.2361562000000004,9.5696335,-1
164,165,1580692734713,0.6609,0.15709999,0.21899999999999997,0.54313904,3.2357638,9.543489,-1
165,166,1580692734723,0.4098,0.0448,0.3153,0.28505364,3.1213877,9.637725,-1
166,167,1580692734734,0.4098,0.0448,0.3153,-0.09156385,3.0391996,9.818401,-1
167,168,1580692734744,-0.1034,-0.1231,0.597,-0.25543258,2.9429142,9.916936999999999,-1
168,169,1580692734754,-0.1435,-0.19299999,0.5385,-0.292265,2.8807514,9.871657,-1
169,170,1580692734764,-0.076699995,-0.1871,0.48099998,-0.18581879,2.9112823,9.781798,-1
170,171,1580692734774,0.022799998999999998,-0.152,0.3549,-0.12192232,2.9288845,9.656389,-1
171,172,1580692734784,0.022799998999999998,-0.152,0.3549,-0.08235096,2.9447722,9.647963,-1
172,173,1580692734795,0.1369,-0.057299998,0.3464,-0.026834214,3.0308964,9.659042999999999,-1
173,174,1580692734805,0.1779,0.0099,0.1803,0.0361716,3.0876582000000004,9.454856,-1
174,175,1580692734815,0.1907,-0.0112,0.033999998,0.012593501000000002,3.0513525,9.359805999999999,-1
175,176,1580692734825,0.1549,-0.0504,0.0637,-0.07076302,3.0242023,9.379793,-1
176,177,1580692734835,-0.016099999,-0.07809999599999999,0.0831,-0.23102131,3.000653,9.398036,-1
177,178,1580692734845,-0.2139,-0.1331,0.1999,-0.49893248,2.9264424,9.577649000000001,-1
178,179,1580692734855,-0.45949998,-0.1677,0.3558,-0.8106288,2.8805692,9.650663,-1
179,180,1580692734865,-0.6466,-0.1951,0.2478,-0.95651233,2.8927798,9.522927000000001,-1
180,181,1580692734876,-0.6608,-0.16839999,-0.0058,-0.89538354,2.9076815,9.222398,-1
181,182,1580692734886,-0.5225,-0.1739,-0.21939999,-0.7735283000000001,2.9217880000000003,9.05307,-1
182,183,1580692734896,-0.16059999,-0.070999995,-0.4136,-0.3380517,3.0715117000000003,8.902073,-1
183,184,1580692734906,0.1336,0.045599997,-0.25599998,-0.112786055,3.1851118,9.194491000000001,-1
184,185,1580692734916,0.3222,0.21669999,0.0174,0.057805605,3.3752690000000003,9.406244000000001,-1
185,186,1580692734926,0.4637,0.40039998,0.2215,0.15335341,3.5011656,9.608056,-1
186,187,1580692734936,0.4409,0.46699998,0.39609998,0.015495273,3.4689398000000002,9.720919,-1
187,188,1580692734947,0.3121,0.3554,0.3163,-0.16101484,3.3589883,9.488911,-1
188,189,1580692734956,0.1041,0.1705,-0.055999997999999995,-0.37492242,3.0955591,9.126899,-1
189,190,1580692734966,-0.10969999400000001,-0.077599995,-0.3389,-0.5632982,2.9808671,8.943425999999999,-1
190,191,1580692734976,-0.3213,-0.0726,-0.38619998,-0.7730399,2.9846406,9.003031,-1
191,192,1580692734987,-0.4094,-0.0757,-0.1301,-0.8082729000000001,3.006198,9.361894,-1
192,193,1580692734997,-0.33089998,-0.0468,0.23279999,-0.68929064,3.0440167999999996,9.633233,-1
193,194,1580692735007,-0.1926,-0.0381,0.34109998,-0.5148204000000001,3.0227180000000002,9.531986999999999,-1
194,195,1580692735017,-0.0134,-0.0418,0.077599995,-0.36829525,3.0231297,9.262994,-1
195,196,1580692735027,0.18689999,-0.0563,-0.23439999,-0.15783536,3.0156407000000005,8.985305,-1
196,197,1580692735037,0.3302,-0.0788,-0.35079998,-0.086785026,3.0187054,9.032011,-1
197,198,1580692735047,0.3375,-0.019,-0.13509999,-0.12154883,3.0661869999999998,9.248063,-1
198,199,1580692735058,0.2181,-0.0265,0.040999997,-0.38778406,3.0327928,9.447194,-1
199,200,1580692735068,-0.0207,-0.0458,0.1785,-0.5537884,3.0575776,9.4939,-1
200,201,1580692735078,-0.1656,-0.0401,0.0818,-0.6236225000000001,3.023551,9.282396,-1
201,202,1580692735088,-0.16759999,-0.0682,-0.0821,-0.5220317,3.0932033,9.138505,-1
202,203,1580692735098,-0.0155,0.049599998,-0.2262,-0.37097678,3.2116685,9.086483,-1
203,204,1580692735109,0.1859,0.1405,-0.14559999,-0.25575820000000005,3.2205557999999996,9.310677,-1
204,205,1580692735119,0.1829,0.13669999,0.081,-0.20480959,3.253835,9.473952,-1
205,206,1580692735129,0.2411,0.14389999,0.17009999,-0.16609056,3.249219,9.471031,-1
206,207,1580692735139,0.2902,0.14109999,0.1416,-0.06596504,3.299526,9.375742,-1
207,208,1580692735149,0.39819998,0.1964,0.074099995,-0.03137362,3.3482432,9.358877,-1
208,209,1580692735159,0.3881,0.2129,0.094799995,-0.18252437,3.3245788,9.58125,-1
209,210,1580692735169,0.22029999,0.2008,0.3505,-0.27265170000000005,3.310137,9.7496395,-1
210,211,1580692735180,0.110999994,0.1497,0.4982,-0.36320996,3.2589203999999996,9.773323,-1
211,212,1580692735190,0.060799997,0.1257,0.4506,-0.4250090999999999,3.1541598,9.556647,-1
212,213,1580692735200,-0.018299998999999997,0.0009,0.2078,-0.46703213,3.1225562,9.261155,-1
213,214,1580692735210,-0.0099,0.0019999999,-0.0932,-0.33227688,3.2622912,8.958269,-1
214,215,1580692735220,0.1436,0.121,-0.35529998,-0.23507229999999998,3.2926211000000003,8.907082,d
215,216,1580692735231,0.177,0.1358,-0.3637,-0.2326015,3.3121769999999997,9.035354,-1
216,217,1580692735241,0.2003,0.1856,-0.12889999,-0.25048139999999997,3.3668892,9.584276,-1
217,218,1580692735251,0.1362,0.2215,0.408,-0.34934276,3.3166493999999997,10.089023,-1
218,219,1580692735261,0.0368,0.15339999,0.87509996,-0.48267105,3.1666477000000004,10.365409,-1
219,220,1580692735271,-0.0669,0.0357,1.0681,-0.60681516,3.1074438,10.586308,-1
220,221,1580692735281,-0.188,-0.0168,1.2918999,-0.6207686,3.0689642000000004,10.606859,-1
221,222,1580692735292,-0.12529999,-0.019,0.87439996,-0.55144215,3.1181509999999997,10.163521000000001,-1
222,223,1580692735302,-0.0786,0.0229,0.57589996,-0.5010585,3.1729302,9.872558,-1
223,224,1580692735312,-0.0786,0.0229,0.57589996,-0.39375997,3.3100126000000003,9.726731,-1
224,225,1580692735322,0.0148,0.1313,0.44489998,-0.16745047,3.4104160000000006,9.583941000000001,-1
225,226,1580692735332,0.24489999,0.22019999,0.3041,0.010199299,3.3858705000000002,9.537733,-1
226,227,1580692735342,0.3981,0.1038,0.3333,-0.025464728,3.288082,9.669816,-1
227,228,1580692735352,0.26569998,0.0477,0.5615,-0.19173725,3.3041706,9.869896,-1
228,229,1580692735363,0.26569998,0.0477,0.5615,-0.31196448,3.3765235000000002,10.143083,-1
229,230,1580692735373,-0.0951,0.1187,1.4672999,-0.532729,3.357686,10.733053,-1
230,231,1580692735383,-0.2977,0.2582,1.8334,-0.74656,3.5017211,11.094023,-1
231,232,1580692735393,-0.2052,0.2801,1.7813,-0.66807806,3.5381415,11.0238905,-1
232,233,1580692735403,-0.3565,-0.012,1.3014,-0.8359595,3.2823260000000003,10.542867999999999,-1
233,234,1580692735413,-0.5657,-0.4687,0.7558,-1.0685897,2.7863338,9.909611,-1
234,235,1580692735423,-0.493,-0.71279997,0.3389,-0.9801383,2.6480732000000002,9.438757,-1
235,236,1580692735434,-0.3638,-0.66179997,0.0001,-0.88372856,2.7376737999999996,9.198053,-1
236,237,1580692735445,-0.28309998,-0.48639998,0.3455,-0.7940035,2.964826,9.626549,-1
237,238,1580692735455,-0.2357,-0.4608,0.6397,-0.7790253,2.99031,9.812608,-1
238,239,1580692735465,-0.1906,-0.47239998,0.57089996,-0.72244555,2.9996473999999997,9.687945,-1
239,240,1580692735475,-0.1906,-0.47239998,0.57089996,-0.41368935,2.9933746,9.271564999999999,-1
240,241,1580692735485,0.32899999999999996,-0.529,-0.1821,-0.2979632,2.9906166,8.868832000000001,-1
241,242,1580692735495,0.35639998,-0.5211,-0.5408,-0.34049377,2.9796414,8.51472,-1
242,243,1580692735505,0.1927,-0.67469996,-0.7409,-0.5720993000000001,2.8761451,8.293878999999999,-1
243,244,1580692735515,-0.2561,-0.92109996,-1.1449,-0.96132946,2.7040977,7.94942,-1
244,245,1580692735526,-0.51,-1.1611999,-1.6846,-1.2022245,2.4505613,7.118345,-1
245,246,1580692735536,-0.34649998,-1.1987,-2.5172,-0.92853844,2.64747,6.1222324,-1
246,247,1580692735546,0.1775,-1.021,-3.6339,-0.49392378,2.7575362,5.1650686,-1
247,248,1580692735556,0.4635,-1.0156,-4.4481997,-0.2915946,2.7745926,4.381753,-1
248,249,1580692735566,0.3624,-1.0899,-4.7662,-0.46478158,2.7339964,4.122662,-1
249,250,1580692735576,0.30679998,-1.1568999,-5.2247,-0.4944697,2.7975863999999997,3.5213919000000002,-1
250,251,1580692735586,0.39519998,-1.0424,-5.7444997,-0.24214956,2.8455088,3.0161004,-1
251,252,1580692735597,0.69879997,-1.0473,-6.3363,0.019689914,2.8834232999999996,2.1492843999999995,-1
252,253,1580692735607,0.9551,-0.99719995,-7.4602,0.41133344,2.8752735,1.0943321000000001,-1
253,254,1580692735617,1.3567,-1.0462999,-8.4016,0.8504875,2.9491297999999997,0.08667968,-1
254,255,1580692735627,1.6537,-0.88909996,-9.0637,0.8856917999999999,3.1335597,-0.076528266,-1
255,256,1580692735637,1.6083,-0.64169997,-9.0647,0.6383229,3.2780644999999997,-0.24077049,-1
256,257,1580692735647,1.1243,-0.5538,-9.4909,0.12508267,3.2587382999999996,-1.2653835,-1
257,258,1580692735657,0.6073,-0.6802,-10.8299,-0.32341835,2.8178412999999995,-2.6681654,-1
258,259,1580692735667,0.3046,-1.2213,-12.309000000000001,-0.43166497,2.260414,-3.920036,-1
259,260,1580692735677,0.1064,-1.9435999,-13.6374,-0.47609179999999995,1.4847976999999999,-4.925619999999999,-1
260,261,1580692735687,0.1248,-2.7093,-13.975698999999999,-0.55952495,0.47852429999999996,-4.3453035,-1
261,262,1580692735697,-0.0567,-3.3634,-12.9147,-0.7231350999999999,-0.24022463,-2.852653,-1
262,263,1580692735707,-0.3074,-3.9176,-11.3638,-0.7187968000000001,-0.9355582,-1.1474643,-1
263,264,1580692735717,-0.2297,-4.329,-9.9269,-0.5103193,-1.3304865,-0.06379111,-1
264,265,1580692735728,-0.054899998,-4.5187,-9.0991,-0.2099715,-1.6518363999999999,0.55275416,-1
265,266,1580692735738,0.4253,-4.7567997,-8.3485,0.36143827,-2.0887878,1.4367987,-1
266,267,1580692735748,0.46789998,-4.8574,-7.733,0.028519731,-2.4069006,2.0293446,-1
267,268,1580692735758,-0.4587,-5.2432,-7.0263,-1.4113628,-3.2963848,2.839188,-1
268,269,1580692735768,-1.8556999,-5.8108997,-6.5505,-2.3988272999999998,-3.9609193999999994,3.2324977,-1
269,270,1580692735779,-2.4433,-6.1979999999999995,-6.0797,-2.1742225,-4.416210700000001,3.9925803999999996,-1
270,271,1580692735789,-1.3531,-6.3029,-4.9665,-0.07763918,-4.6229734,4.925830400000001,-1
271,272,1580692735799,0.33089998,-6.1339999999999995,-4.6226,1.1005188,-4.569813,5.440057299999999,-1
272,273,1580692735809,1.4642,-5.7935,-3.2751,2.3055779999999997,-4.5631949999999994,7.3484755,-1
273,274,1580692735819,1.9688,-5.5559998,-1.9045999,2.4413195,-4.654558,9.267055000000001,-1
274,275,1580692735829,2.0716999,-5.3301997000000005,0.0021,2.9690783,-4.6793237,11.693779,-1
275,276,1580692735839,2.9354,-4.7708,3.3904,4.202207,-3.6781163,16.008589999999998,-1
276,277,1580692735850,3.7445998,-3.4810998,6.780999700000001,3.9577782,-3.6038675000000002,17.990147,-1
277,278,1580692735860,3.1922,-3.3846998,8.367599499999999,2.9188669,-4.3842144,18.211054,-1
278,279,1580692735870,1.6956999,-4.1767,7.7254,0.7317541999999999,-5.95346,14.989264000000002,-1
279,280,1580692735881,-0.1637,-5.4287,4.5561,-1.1105744,-7.860863,11.318569,-1
280,281,1580692735891,-2.0492,-7.0848,0.8502,-2.4583855,-8.598851,9.468896,-1
281,282,1580692735901,-2.9768,-7.2510996,0.1722,-0.34004366,-8.2212,15.094437,-1
282,283,1580692735911,-0.92039996,-6.6095,5.4347,1.293501,-7.7246428,18.920025,-1
283,284,1580692735921,1.6918,-5.2053,11.6897,3.9569737999999997,-5.7547417,26.142576000000002,-1
284,285,1580692735931,3.5029,-3.3741,16.627499,4.572724299999999,-4.726652,27.593338,-1
285,286,1580692735942,4.2278,-2.0144,18.164998999999998,4.1324687,-4.0737057,25.52646,-1
286,287,1580692735952,2.1989,-0.9392,11.327499000000001,2.3451014,-4.0687065,20.636793,-1
287,288,1580692735962,2.1989,-0.9392,11.327499000000001,-0.05787264,-4.511011,17.149015,-1
288,289,1580692735972,-3.0384,-2.1543,3.8830998,-3.0197012,-5.480165,13.125176000000002,-1
289,290,1580692735983,-3.5523998999999997,-2.5026999,3.6815998999999997,-3.5166705,-5.885608,13.097757000000001,-1
290,291,1580692735993,-3.5523998999999997,-2.5026999,3.6815998999999997,-3.0068014,-5.701437,13.826582,-1
291,292,1580692736003,-1.0382,-1.3605,6.881,-1.0607461999999999,-5.041614,15.984629,-1
292,293,1580692736013,-0.3495,-0.68039995,8.703,-0.40688979999999997,-4.522713700000001,17.74386,-1
293,294,1580692736023,0.099599995,0.0396,9.5144,-0.01604115,-3.947397,18.486187,-1
294,295,1580692736033,0.3384,0.6914,9.687799,0.21609107,-3.425681,18.599298,-1
295,296,1580692736044,0.0148,0.76769996,8.8554,-0.15064317,-3.4236891000000003,17.588217,-1
296,297,1580692736054,0.2638,1.0882,8.509,0.274433,-3.0945153,17.360836,-1
297,298,1580692736064,0.80579996,1.3943,8.5483,0.7913603,-2.8847353,17.37406,-1
298,299,1580692736074,1.1565,1.5088999,8.5069,1.1834538000000001,-2.8115587000000004,17.329107,-1
299,300,1580692736084,1.5501,1.6230999,8.6911,1.5280465,-2.7396178,17.50285,-1
300,301,1580692736094,1.6469999999999998,1.6920998999999999,8.666699000000001,1.5929389999999999,-2.705352,17.379720000000002,-1
301,302,1580692736104,1.7383,1.7248,8.231999,1.7654843,-2.680328,16.781084,-1
302,303,1580692736114,1.8953999,1.7448,7.305299799999999,1.8169978999999998,-2.6857004,15.739531,-1
303,304,1580692736124,1.6464,1.6155,6.1226,1.5619676000000002,-2.7965136000000004,14.564532,-1
304,305,1580692736135,1.3598,1.4898,4.9226,1.3619177,-2.8459203,13.514454,-1
305,306,1580692736145,1.1214,1.3262,3.9248998,1.1432792,-2.9666169,12.449188000000001,-1
306,307,1580692736155,0.8254,1.1777999,3.0042,0.8895033999999999,-3.056352,11.661534,-1
307,308,1580692736165,0.4649,0.90999997,1.8773999,0.5321832,-3.3266763999999998,10.385549000000001,-1
308,309,1580692736175,0.2446,0.703,0.9776,0.43889546,-3.3976976999999997,9.809801,-1
309,310,1580692736185,0.1733,0.5614,0.9051,0.38208586,-3.4915410000000002,10.044577,-1
310,311,1580692736196,0.055499997,0.4364,1.3362,0.29079974,-3.6088470999999998,10.394014,-1
311,312,1580692736206,-0.0504,0.29029998,1.3158,0.25911966,-3.6322050000000004,10.057839,-1
312,313,1580692736216,0.0385,0.3313,0.5761,0.3951103,-3.5170155,9.27213,-1
313,314,1580692736226,0.0257,0.3055,-0.3231,0.26535416,-3.5235276,8.311223,-1
314,315,1580692736236,-0.33769998,0.102699995,-1.3788999,-0.14768395,-3.7586477,7.3186345,-1
315,316,1580692736247,-0.8509,-0.2096,-2.0585,-0.63880175,-3.9979339,7.024903999999999,-1
316,317,1580692736257,-1.1812999,-0.42029998,-1.8892,-0.7422791,-4.0622134,7.465571000000001,-1
317,318,1580692736267,-1.0555,-0.42279997,-1.4405,-0.54224837,-3.9883664,7.8747115,-1
318,319,1580692736277,-0.7959999999999999,-0.3204,-1.0481,-0.17606,-3.8486025,8.147008999999999,-1
319,320,1580692736287,-0.2549,-0.12709999,-0.94909996,0.5204803,-3.5675714,8.189941000000001,-1
320,321,1580692736297,0.28039998,0.0559,-0.9386,0.84190667,-3.4369435,8.229092,d
321,322,1580692736308,0.40129998,0.089099996,-0.9486,0.65098345,-3.5028224000000003,8.11462,-1
322,323,1580692736318,0.0267,-0.058199997999999996,-1.1168,0.10562260400000001,-3.6538966,7.967625599999999,-1
323,324,1580692736328,-0.5276,-0.266,-1.3441,-0.42081445,-3.8569632000000005,7.5907497,-1
324,325,1580692736338,-1.0175999,-0.4996,-1.7565998999999999,-0.8288056,-4.022422,7.279762,-1
325,326,1580692736349,-1.2925,-0.6748,-1.9598999,-0.8243428,-4.089258,7.224906,-1
326,327,1580692736359,-1.1029999,-0.6246,-1.8558999,-0.4842321,-3.9061785,7.8165702999999995,-1
327,328,1580692736369,-0.8073,-0.45909998,-1.2487999,-0.30020416,-3.7196220999999996,8.398256,-1
328,329,1580692736379,-0.6401,-0.2791,-0.7281,-0.12449849,-3.6150434000000002,8.585397,-1
329,330,1580692736390,-0.4308,-0.1963,-0.6094,0.17267939999999998,-3.4668422,8.505278,-1
330,331,1580692736401,-0.18079999,-0.0565,-0.6875,0.44066718,-3.3126462,8.614942,-1
331,332,1580692736411,0.0962,0.110999994,-0.58959997,0.7854323000000001,-3.0804949,8.879778,-1
332,333,1580692736421,0.45899999999999996,0.33789998,-0.3148,0.8474229,-2.9993985,8.904736,-1
333,334,1580692736431,0.49109998,0.4095,-0.3141,0.48328397,-3.1464982000000004,8.79397,-1
334,335,1580692736441,0.1726,0.2766,-0.40129998,0.20814233,-3.2321436,8.734584,-1
335,336,1580692736451,-0.088599995,0.1938,-0.4585,-0.0057269307,-3.3907356,8.7066965,-1
336,337,1580692736462,-0.49859998,-0.0937,-0.3451,-0.2461814,-3.5394347,8.839938,-1
337,338,1580692736472,-0.5959,-0.18899999999999997,0.1103,-0.34973540000000003,-3.6435153,9.291456,-1
338,339,1580692736482,-0.5566,-0.1564,0.5758,-0.32318850000000005,-3.6202435,9.7570715,-1
339,340,1580692736492,-0.5566,-0.1564,0.5758,-0.009844957,-3.4811212999999994,9.976505,-1
340,341,1580692736503,-0.2332,-0.00029999999,0.79469997,0.63057524,-3.2171178,10.021707000000001,-1
341,342,1580692736513,0.8358,0.47509998,0.7078,1.0810203999999999,-2.9903674,9.830966,-1
342,343,1580692736523,0.8358,0.47509998,0.7078,0.9539553,-3.045252,9.770307,-1
343,344,1580692736533,0.32889998,0.29839998,0.6092,0.52860147,-3.186644,9.779902,-1
344,345,1580692736543,0.023799999,0.21,0.5991,0.19319291,-3.2823260000000003,9.792409,-1
345,346,1580692736553,-0.009699999,0.111499995,0.7165,0.17855957,-3.3772895,9.899535,-1
346,347,1580692736563,-0.0641,0.072299995,0.77529997,0.13631627,-3.4372212999999996,9.959083999999999,-1
347,348,1580692736573,0.1373,0.015,0.815,0.35987726,-3.4460319999999998,10.008587,-1
348,349,1580692736583,0.5391,0.326,1.043,0.7044507,-3.1670307999999996,10.210207,-1
349,350,1580692736594,0.8211,0.66639996,1.7454,0.97369313,-2.8390539,10.915117,-1
350,351,1580692736604,0.5901,0.6727,2.5592,0.6453044,-2.8893322999999995,11.856326,-1
351,352,1580692736614,0.3947,0.61469996,3.2275999,0.5042189,-2.9914113999999996,12.510585,-1
352,353,1580692736624,0.4446,0.37899998,3.7879,0.5165251000000001,-3.2109787,12.925548,-1
353,354,1580692736635,0.17469999,0.13769999,4.3364,0.1434893,-3.5207693999999994,13.655339000000001,-1
354,355,1580692736645,-0.1626,0.038,5.745899700000001,-0.22948903,-3.608857,15.243154999999998,-1
355,356,1580692736655,-0.4763,-0.0202,7.574,-0.48400223,-3.6631476999999997,16.691502,-1
356,357,1580692736665,-0.6356,-0.049799997,8.5605,-0.62939733,-3.6757220999999998,17.803226000000002,-1
357,358,1580692736675,-0.384,-0.049399998,8.8492,-0.32850364,-3.6475282,17.984811999999998,-1
358,359,1580692736685,-0.1417,-0.1557,8.6858,-0.14483005,-3.7095377,17.803620000000002,-1
359,360,1580692736696,-0.111899994,-0.31399998,8.5341,-0.15070064,-3.7740855000000004,17.686764,-1
360,361,1580692736707,-0.111899994,-0.31399998,8.5341,-0.16231729,-3.7914672,17.630356,-1
361,362,1580692736717,-0.3109,-0.48979998,8.2203,-0.6569881,-3.8237891000000004,17.18802,-1
362,363,1580692736727,-0.9065,-0.71489996,7.3645997,-1.1595407,-3.6943872000000004,16.333579999999998,-1
363,364,1580692736737,-1.1169,-0.7563,6.7158,-1.2255631999999999,-3.6593074999999997,15.819754999999999,-1
364,365,1580692736747,-1.1709,-0.90419996,6.0155,-1.3337809999999999,-3.5702815,15.090625,-1
365,366,1580692736758,-1.2239,-0.95879996,5.3933,-1.3077416000000002,-3.4578784,14.526599,-1
366,367,1580692736768,-1.1465,-1.0925,4.7236,-1.1732258999999998,-3.3388866999999998,13.757341,-1
367,368,1580692736778,-1.0636,-1.1462,3.7819998,-1.1106702,-3.1810224,12.750283,-1
368,369,1580692736788,-0.97419995,-1.1942999,2.7168999,-0.91605985,-2.9958742000000003,12.015771,-1
369,370,1580692736798,-0.7140000000000001,-1.0846,1.912,-0.64219195,-2.6037998,11.178116000000001,-1
370,371,1580692736808,-0.5862,-1.0073999,1.2209999999999999,-0.5469027,-2.4209017999999998,10.686864,-1
371,372,1580692736818,-0.50049996,-1.1051999,0.8596,-0.44039905,-2.344661,10.466416,-1
372,373,1580692736828,-0.51489997,-1.1991,0.61179996,-0.5451789,-2.3311384,10.178192,-1
373,374,1580692736838,-0.6976,-1.3691,0.2021,-0.6784975999999999,-2.2785618,9.715249,-1
374,375,1580692736848,-0.96239996,-1.3723999,-0.48799998,-1.0504034,-2.0424743000000003,9.023449000000001,-1
375,376,1580692736858,-1.4113,-1.4044,-0.7628,-1.5500828000000002,-2.0820648999999998,9.488557,-1
376,377,1580692736869,-2.0216,-1.5816,0.1525,-2.142073,-1.9632741000000002,10.426241000000001,-1
377,378,1580692736879,-2.5828,-1.4999,0.8454,-1.747049,-1.7799932,11.349828,-1
378,379,1580692736889,-2.0312997999999998,-1.5318999,1.6393,-0.6842054,-1.4433492,11.862186999999999,-1
379,380,1580692736899,-0.5603,-1.0911,2.1028,1.113936,-0.7731739000000001,11.622222,-1
380,381,1580692736909,0.7043,-0.80509996,1.6956999,1.7473555,-0.5958306,10.907121,-1
381,382,1580692736919,1.1144999,-0.80719995,0.97599995,1.7320517,-0.5858133000000001,10.44098,-1
382,383,1580692736930,0.89779997,-1.0172,0.5029,1.0497136999999999,-0.5488851,9.987392999999999,-1
383,384,1580692736940,0.1978,-1.0845,0.1108,0.5714672,-0.5221945,9.629288,-1
384,385,1580692736950,-0.375,-1.3457,-0.3561,-0.21769996,-0.7847906,8.640789,-1
385,386,1580692736960,-1.1320000000000001,-1.7299,-1.3198999,-0.97799313,-0.9638673000000001,7.692867,-1
386,387,1580692736970,-1.8291,-2.1106,-2.1638,-1.3765318000000002,-1.1694143,7.191234,-1
387,388,1580692736981,-2.2723,-2.4993,-2.7322,-1.8573738000000002,-1.4693406999999998,6.5460634,-1
388,389,1580692736990,-2.7073,-2.9902,-3.2517,-2.1819319999999998,-1.8598446,6.224187000000001,-1
389,390,1580692737000,-3.0186,-3.5226,-3.5367,-2.3824127,-1.9707824,5.8676996,-1
390,391,1580692737010,-3.0607998,-3.5851998,-3.8332998999999996,-1.7924335,-1.5891848999999998,5.621853400000001,-1
391,392,1580692737021,-2.2700999,-3.2544,-4.0741997,-0.47719312,-0.98801047,5.4646983,-1
392,393,1580692737031,-0.8779,-2.6072,-4.1721,0.66022503,0.026096797999999997,5.408885,-1
393,394,1580692737041,0.22119999,-1.6661999,-4.1953998,1.3180176000000001,0.58469284,5.6531987,-1
394,395,1580692737051,0.9475,-1.1741999,-3.7791997999999998,1.585766,0.98274314,6.2712665,-1
395,396,1580692737061,1.0508,-0.96559995,-3.3423,1.4571016,1.015467,6.4529385999999995,-1
396,397,1580692737072,0.6472,-1.0814999,-3.0488,1.1659761999999998,0.96618485,6.5489745,-1
397,398,1580692737082,0.5323,-1.2382,-2.8004,1.0600568000000001,0.8660114999999999,6.7761655,-1
398,399,1580692737092,0.47239998,-1.1736,-2.5602999,1.0130442,0.9919082,7.0056066999999995,-1
399,400,1580692737102,0.4574,-1.0114,-2.4082,1.0046357,1.2107956,7.1351614,-1
400,401,1580692737112,0.9648,-0.8962,-2.4138,1.4969698,1.3910791,7.117539999999999,-1
401,402,1580692737123,1.5482,-0.5112,-2.5486,2.1082861,1.900412,6.8956933000000005,-1
402,403,1580692737133,1.5482,-0.5112,-2.5486,2.1236856,1.9667888,6.4827227999999995,-1
403,404,1580692737143,1.6518999,-0.4249,-3.0284998,1.9487269,1.6482834,6.094057,-1
404,405,1580692737153,1.0493,-1.0752,-3.5983,1.2647418,1.3986831,5.92315,-1
405,406,1580692737163,0.55289996,-1.1963999,-3.1471999,0.8649868000000001,1.33833,6.332711,-1
406,407,1580692737173,0.4868,-1.0449,-2.8023999,0.7723982,1.5303642,6.6664724,-1
407,408,1580692737184,0.4868,-1.0449,-2.8023999,0.98836476,1.966875,6.630636,-1
408,409,1580692737193,1.0959999999999999,-0.4037,-2.8358,1.3655856000000002,2.2634015,6.6122103,-1
409,410,1580692737203,1.5747,-0.289,-3.138,1.8275133000000001,2.4169276,6.297861,-1
410,411,1580692737213,2.0269,-0.3443,-3.5502,2.2453015,2.4027157000000003,5.8766065,-1
411,412,1580692737223,2.0269,-0.3443,-3.5502,2.2636700000000003,2.427079,5.6823406,-1
412,413,1580692737233,2.0881998999999998,-0.341,-3.7296998999999995,1.8883356,2.5473444,5.643689,-1
413,414,1580692737243,1.7796999,-0.2573,-3.7626998,1.3058838,2.5743127,5.9062085,-1
414,415,1580692737254,0.858,-0.23189999,-3.2196999,0.91408706,2.5852207999999997,6.1866746,-1
415,416,1580692737264,0.6676,-0.2294,-2.9822,0.7014437,2.582118,6.449261,-1
416,417,1580692737274,0.7655,-0.3663,-2.9205,0.8174570999999999,2.4093522999999997,6.467189,-1
417,418,1580692737285,0.7655,-0.3663,-2.9205,0.85100466,2.244411,6.3930739999999995,-1
418,419,1580692737295,0.88449997,-0.68509996,-3.0337,1.00024,2.1695585,6.3958224999999995,-1
419,420,1580692737305,0.98099995,-0.56,-2.7024,1.0610527,2.3191197,6.8307533,-1
420,421,1580692737315,0.85179996,-0.2537,-1.944,0.8555249,2.6863134,7.7537084,-1
421,422,1580692737325,0.63379997,0.0016999998999999999,-1.3842,0.59573483,2.8074887000000004,8.118172999999999,-1
422,423,1580692737335,0.3816,-0.0089,-1.3632,0.41103655,2.6830380000000003,7.9226527,-1
423,424,1580692737345,0.32299998,-0.3015,-1.7126,0.34238043,2.2665236,7.570867999999999,-1
424,425,1580692737356,0.2926,-0.6699,-2.0403,0.34430537,1.9453751,7.370626400000001,-1
425,426,1580692737365,0.2864,-0.7967,-2.0235999,0.33311966,1.9119998,7.474305,-1
426,427,1580692737375,0.2013,-0.7248,-1.4976,0.30550972,2.0794599999999996,8.257572999999999,-1
427,428,1580692737385,0.2618,-0.4409,-0.67899996,0.3745872,2.240561,8.7710905,-1
428,429,1580692737395,0.3096,-0.2012,-0.1461,0.5170135,2.5081275,9.342089,-1
429,430,1580692737405,0.42589998,-0.0801,-0.1621,0.64696115,2.5251935000000003,9.1876335,-1
430,431,1580692737416,0.5164,-0.15879999,-0.3929,0.67043394,2.3541229,9.049517999999999,-1
431,432,1580692737426,0.4166,-0.3198,-0.37739998,0.5305168,2.2229493,9.19225,-1
432,433,1580692737436,0.14559999,-0.5215,-0.057299998,0.14392026,1.9469457,9.625897,-1
433,434,1580692737446,-0.39389998,-0.764,0.5476,-0.35822046,1.7343501000000001,10.276154,-1
434,435,1580692737456,-0.6933,-0.8452,0.968,-0.48972917,1.7176672999999998,10.425714,-1
435,436,1580692737466,-0.53459996,-0.7202,0.6653,-0.11659762,1.9719220000000002,9.919791,-1
436,437,1580692737477,-0.0911,-0.3658,0.1192,0.38787982,2.3692157000000003,9.427609,-1
437,438,1580692737487,0.40899998,0.07,-0.1827,0.94501054,2.8064258,9.279408,-1
438,439,1580692737497,0.84209996,0.41689998,-0.0951,1.2337416,3.067614,9.458974000000001,-1
439,440,1580692737507,0.9123,0.52709997,0.1858,1.1426662,3.0817973999999997,9.903683000000001,-1
440,441,1580692737517,0.75949997,0.5123,0.574,0.9975871999999999,3.0301976,10.17483,-1
441,442,1580692737528,0.54499996,0.4547,0.7475,0.6875380999999999,2.9697869999999997,10.170789,-1
442,443,1580692737538,0.23869999,0.36089998,0.6679999999999999,0.37510437,2.7372909,10.179255,-1
443,444,1580692737548,-0.0614,0.1148,0.70769995,0.06537128,2.5948837000000005,10.149883,-1
444,445,1580692737558,-0.3452,0.090799995,0.65029997,-0.098114386,2.6301744,10.093638,-1
445,446,1580692737569,-0.40559998,0.0843,0.6132,0.007967903,2.6758363,10.024253999999999,-1
446,447,1580692737579,-0.30089998,0.1558,0.5273,0.3044467,2.8096914,9.897753999999999,-1
447,448,1580692737589,0.0009,0.2871,0.4019,0.52833325,2.8956144,9.734996,-1
448,449,1580692737600,0.1592,0.34299999999999997,0.2461,0.6003987,2.868177,9.724547,-1
449,450,1580692737610,0.2616,0.2553,0.2854,0.6125326,2.6067492999999997,9.819339999999999,-1
450,451,1580692737620,0.1863,0.0028,0.36339998,0.32312146,2.358461,9.967138,d
451,452,1580692737630,-0.1267,-0.2298,0.5298,0.0026048915,2.2970547999999997,10.135603999999999,-1
452,453,1580692737640,-0.4141,-0.23799999,0.67689997,-0.16941372,2.3307362,10.171191,-1
453,454,1580692737651,-0.6161,-0.23789999,0.7364,-0.3423038,2.253164,10.336113000000001,-1
454,455,1580692737660,-0.8311,-0.3277,0.9338,-0.46907198,2.134766,10.4149885,-1
455,456,1580692737670,-0.8944,-0.4603,0.9363,-0.44631750000000003,1.9662716,10.354778,-1
456,457,1580692737681,-0.9152,-0.6468,0.87189996,-0.43794740000000004,1.7291307,10.317305000000001,-1
457,458,1580692737691,-0.9199,-0.8842,0.83769995,-0.18671902,1.6404686999999998,10.291017,-1
458,459,1580692737701,-0.6272,-0.9328,0.8420000000000001,0.40893924,1.9410366999999997,10.395537,-1
459,460,1580692737712,-0.051099997,-0.5531,0.9715,1.1115321000000002,2.5225213,10.721896000000001,-1
460,461,1580692737722,0.5273,-0.069,1.2652999,1.6416179,2.9690208,10.904755999999999,-1
461,462,1580692737732,1.0462999,0.3875,1.4502,1.863072,3.196853,10.949173,-1
462,463,1580692737742,1.4157,0.6469,1.2551,1.989687,3.2295002999999998,10.617767,-1
463,464,1580692737752,1.4419999,0.581,0.956,2.0262034,3.1863186000000003,10.401752,-1
464,465,1580692737762,1.4419999,0.581,0.956,2.2121947,3.134173,10.451601,-1
465,466,1580692737773,1.9456999,0.45749998,1.0774,2.5491161,3.109206,10.508639,-1
466,467,1580692737783,1.9456999,0.45749998,1.0774,2.8636472,3.091623,10.656315,-1
467,468,1580692737793,2.4501998,0.504,1.5596,3.051793,3.1962593,10.981083,-1
468,469,1580692737804,2.7433,0.70769995,1.7221999,3.3413190000000004,3.4249248999999997,11.142758,-1
469,470,1580692737813,3.3899,0.98319995,1.4650999,3.9740973,3.7272741999999996,10.871839999999999,-1
470,471,1580692737823,4.2609997,1.1429,0.9065,4.8341617999999995,3.9231388999999997,10.314173,-1
471,472,1580692737833,4.2609997,1.1429,0.9065,5.5540404,3.8996565000000003,9.8134985,-1
472,473,1580692737843,5.8234997,0.7442,-0.19649999,6.3839664,3.6083205,9.175683,-1
473,474,1580692737853,6.3936,0.48700000000000004,-0.3505,6.9529533,3.3953707000000004,9.015031,-1
474,475,1580692737863,6.7228,0.41149998,0.2395,7.312112299999999,3.3822696000000003,9.741652499999999,-1
475,476,1580692737873,6.8665,0.5263,0.81869996,7.437578,3.5009742,10.154738,-1
476,477,1580692737883,6.8665,0.5263,0.81869996,7.4416866,3.4708550000000002,10.252948,-1
477,478,1580692737893,6.9319,0.233,0.7905,7.4887853,3.2675586,10.111624,-1
478,479,1580692737903,7.1222997,-0.1205,0.5086,7.6544256,2.960124,9.825353999999999,-1
479,480,1580692737913,7.3139,-0.47829998,0.3164,7.8826313,2.586188,9.56815,-1
480,481,1580692737924,7.4905996,-0.6999,0.065799996,7.995609,2.484789,9.268405,-1
481,482,1580692737934,7.6766,-0.6954,-0.2047,8.148214999999999,2.526218,9.066172,-1
482,483,1580692737944,7.7844996,-0.7759,-0.1235,8.200016999999999,2.474666,9.1062975,-1
483,484,1580692737954,7.7651,-0.856,-0.4446,8.171104,2.4156156,8.680916,-1
484,485,1580692737964,7.7496,-0.9309999999999999,-1.0775,8.023544000000001,2.438705,7.994354700000001,-1
485,486,1580692737974,7.4519997,-1.0292,-1.7184,7.6620774,2.2893836,7.3995004,-1
486,487,1580692737985,7.1769,-1.4011999,-2.2412999,7.3016252999999995,1.9803016,6.815076400000001,-1
487,488,1580692737995,6.6980996,-1.6934999,-2.8130999,6.722468400000001,1.7285561999999999,6.325183999999999,-1
488,489,1580692738005,5.9358,-2.2082999,-2.7186,5.807768,1.2217516000000002,6.471393,-1
489,490,1580692738015,4.7945,-2.7979998999999998,-2.7326999,4.543198599999999,0.6478421999999999,6.3450465,-1
490,491,1580692738025,3.4793,-3.4543,-3.3646998,2.8857121,-0.05683835,5.370654,-1
491,492,1580692738035,2.3573,-4.0263,-4.3019,2.00478,-0.48961425,4.652279,-1
492,493,1580692738045,1.4049,-4.45,-4.8498,0.7303081,-0.88304865,4.135466,-1
493,494,1580692738056,0.5179,-4.5373,-5.1169,-0.10279745,-0.86218077,3.9003365,-1
494,495,1580692738066,-0.0315,-4.4716997,-5.3459997,-0.7176955,-0.7371268,3.635107,-1
495,496,1580692738076,-0.2795,-4.1751,-5.7402,-0.9036579,-0.29735029999999996,3.0746434,-1
496,497,1580692738086,-0.4525,-3.6562997999999998,-6.5424,-1.2878889999999998,0.27039158,2.1010556,-1
497,498,1580692738096,-1.1434,-3.3295,-7.5365996,-2.1629793999999998,0.29505184,1.0434889,-1
498,499,1580692738106,-2.1292999,-3.7744,-8.5496,-2.9666362,-0.111081384,0.2852356,-1
499,500,1580692738117,-3.5342998999999997,-4.3848,-9.283,-4.7791424000000005,-0.9891884,-0.72996336,-1
500,501,1580692738127,-5.4126997,-5.4428,-9.9472,-6.886423,-2.1214638,-0.9608219000000001,-1
501,502,1580692738137,-7.6126,-6.5632,-9.8019,-9.018431,-3.1829665,-0.67194706,-1
502,503,1580692738147,-9.5638,-7.371,-9.6419,-10.862053,-3.9260693,-0.5145331,-1
503,504,1580692738157,-11.1585,-7.784,-9.1409,-12.444313000000001,-4.2216864,0.58903104,-1
504,505,1580692738167,-12.0581,-7.6006,-8.159699,-12.696251,-3.9666943999999997,1.2717806999999999,-1
505,506,1580692738177,-11.856899,-7.1445,-7.3704996,-12.211922999999999,-3.8326383,2.6150908,-1
506,507,1580692738188,-11.5383,-7.0765,-6.1239,-12.0010605,-3.7868513999999998,3.765591,-1
507,508,1580692738198,-11.380199000000001,-6.68,-5.191,-11.672039999999999,-3.5409763,4.4917808,-1
508,509,1580692738208,-10.9314995,-6.4716997,-4.3628,-11.398431,-3.8469553,5.4110775,-1
509,510,1580692738218,-11.3608,-6.7365,-3.9034998,-12.399322,-4.3146195,5.375529,-1
510,511,1580692738229,-12.683499000000001,-7.0948997,-4.2062,-13.445932,-4.999955,5.2268295,-1
511,512,1580692738239,-13.4144,-7.669699700000001,-4.2938,-13.734951,-5.589676,5.2612677,-1
512,513,1580692738249,-13.6222,-7.7762,-4.1871,-13.732681,-5.520991,6.670361,-1
513,514,1580692738259,-13.5527,-7.3950996,-2.4824,-12.956443,-5.296453,9.142144,-1
514,515,1580692738270,-12.6564,-6.9382,-0.058799997,-11.608497999999999,-5.0157185,11.186859,-1
515,516,1580692738280,-11.361799000000001,-6.3722,1.8518,-10.420112,-4.768483,12.844317,-1
516,517,1580692738290,-10.3656,-5.9704,3.3392,-9.935247,-5.1181617,13.541767000000002,-1
517,518,1580692738300,-10.0405,-6.1798,3.7166,-9.731242,-5.541571,12.8754225,-1
518,519,1580692738311,-9.9337,-6.377999999999999,2.9930000000000003,-9.353763,-6.126111,12.829416,-1
519,520,1580692738321,-9.5005,-6.8122997000000005,3.0498,-9.07231,-6.564269,12.440368,-1
520,521,1580692738331,-9.4071,-6.8964,2.6403,-8.762252,-6.770658500000001,13.226873000000001,-1
521,522,1580692738341,-9.1377,-6.8943996,3.4213998,-7.422753,-7.0062194,14.465116,-1
522,523,1580692738351,-7.8394,-6.9035997,4.6579,-6.2890505999999995,-7.039623700000001,15.863454,-1
523,524,1580692738362,-6.7170000000000005,-6.7022,6.0660996,-4.915785,-7.211508,17.734714999999998,-1
524,525,1580692738372,-3.4854,-6.3926,8.9966,-3.0898418,-7.223986,18.767696,-1
525,526,1580692738382,-2.3449,-6.4121,8.5351,-1.9898881000000002,-7.4660020000000005,18.291233,-1
526,527,1580692738392,-1.3747,-6.6464,7.2598996,-1.0585053,-7.8807735,16.9921,-1
527,528,1580692738402,-1.3747,-6.6464,7.2598996,-0.6960998,-8.313742,14.90515,-1
528,529,1580692738412,-0.98249996,-6.9426,5.1893997,-0.18856733,-8.233113000000001,15.584625,-1
529,530,1580692738422,1.0205,-5.7261,8.3714,1.5929295,-7.124608,18.475557000000002,-1
530,531,1580692738433,2.4685,-4.3142,10.288899,2.7696414000000003,-6.101719,19.937963,-1
531,532,1580692738443,2.4685,-4.3142,10.288899,4.5847144,-5.265414700000001,21.265145999999998,-1
532,533,1580692738453,4.0302997000000005,-3.3978998999999996,11.6178,4.982171,-5.156564,19.606136,-1
533,534,1580692738463,4.9572997,-3.451,8.1875,5.600172,-5.6522502999999995,17.0439,-1
534,535,1580692738473,6.1454997,-4.1359,5.5109997,6.7061779999999995,-6.3935814,14.215035999999998,-1
535,536,1580692738484,6.8148,-4.6109,3.1485,7.1454663,-6.619259,12.564522,-1
536,537,1580692738494,7.545099700000001,-4.1347,3.4387,7.851219,-6.0799794,13.298641,-1
537,538,1580692738504,8.7555,-3.2173,4.9995,9.008557000000001,-5.138866999999999,14.934513,-1
538,539,1580692738514,9.9057,-2.0702,6.7588,10.001510000000001,-4.0884540000000005,16.599632,-1
539,540,1580692738524,10.8474,-1.2212,7.4768,10.793492,-3.320911,16.957632,-1
540,541,1580692738534,11.5220995,-0.5589999999999999,6.5119,11.351628999999999,-2.7070475,15.804077,-1
541,542,1580692738545,12.024099,-0.10300000000000001,5.1289,11.685724,-2.2502623,14.011107,-1
542,543,1580692738555,12.224299,0.0155,3.2603998,11.802992999999999,-2.2139182,12.009210000000001,-1
543,544,1580692738565,12.462199,-0.0683,1.4081999,12.166222,-2.1236186000000004,10.499321,-1
544,545,1580692738575,13.2549,0.2958,0.5359,13.038296,-1.5163149999999999,9.984117999999999,-1
545,546,1580692738585,14.2713995,0.853,0.25329998,13.975788,-1.025427,9.802839,-1
546,547,1580692738596,14.852699,1.1171,0.16939999,14.159663,-0.83661073,9.629106,-1
547,548,1580692738606,14.609798999999999,1.0784999,-0.1766,13.663489000000002,-0.9853193000000001,9.304558,-1
548,549,1580692738616,14.0364,0.7732,-0.4136,13.043946,-1.3911556,9.102544,-1
549,550,1580692738626,13.7232,0.4317,-0.6019,12.908933,-1.5571983999999999,8.834325999999999,-1
550,551,1580692738636,13.607698999999998,0.3128,-1.1256,12.776485000000001,-1.6254905000000002,8.14922,-1
551,552,1580692738646,13.4864,0.2322,-1.5625,12.727797,-1.6580805,8.036253,-1
552,553,1580692738657,13.4116,0.1953,-1.5777,12.641634,-1.6877686,8.025584,-1
553,554,1580692738667,13.268398999999999,0.17300000000000001,-1.5926,12.544649,-1.6999502,8.045494999999999,-1
554,555,1580692738677,12.931,-0.0011,-1.3519,12.176028,-1.9183589,8.338189999999999,-1
555,556,1580692738687,12.068,-0.3478,-1.1205,10.884577,-2.4394329,8.471174000000001,-1
556,557,1580692738697,11.1469,-0.72069997,-1.2608,10.432083,-2.628977,8.289866,-1
557,558,1580692738707,10.3904,-0.9622,-1.6251999,9.351177,-2.9110715,7.802828,-1
558,559,1580692738718,9.484099,-1.1393,-1.8998,8.566166,-3.1895075,7.671932000000001,-1
559,560,1580692738727,8.7248,-1.4498,-1.9186,8.125097,-3.4124076,7.7490063,-1
560,561,1580692738737,7.8873997000000005,-1.8871,-1.5353999,7.144221300000001,-3.9733212,8.237213,-1
561,562,1580692738747,6.9663997,-2.3962998,-1.3101,6.4504676,-4.4007535,8.302431,-1
562,563,1580692738757,6.0611,-2.8437,-1.5863,5.478460299999999,-4.9297857,7.918908,-1
563,564,1580692738767,5.3023,-3.2545,-1.7843,4.8409705,-5.258203,7.7784642999999996,-1
564,565,1580692738777,4.8169,-3.4027998,-1.9018999,4.5288143,-5.413654,7.8213973,-1
565,566,1580692738787,4.3206997000000005,-3.5748,-1.4758999,3.8339502999999997,-5.6631203,8.961488000000001,-1
566,567,1580692738797,3.2818,-3.7628998999999994,0.049599998,2.5672069,-5.7734547,10.6601925,-1
567,568,1580692738807,2.0433,-3.7682,1.5791,1.8316599999999998,-5.8592052,11.55843,-1
568,569,1580692738817,1.1245999,-3.9722,2.1638,0.6577255,-6.12726,11.672661999999999,-1
569,570,1580692738827,-0.29029998,-4.1919,1.8801,-0.56023365,-6.311853,11.225617,-1
570,571,1580692738838,-1.8026999,-4.250499700000001,1.1819998999999999,-1.7753005000000002,-6.006305,10.503305000000001,-1
571,572,1580692738848,-2.5592,-3.8702998,0.81869996,-2.006322,-5.5387273,10.559549,-1
572,573,1580692738858,-2.7069,-3.4494998,1.1646999,-2.0370443,-5.2579827,10.97525,-1
573,574,1580692738868,-2.9845998,-3.3230998999999994,1.611,-2.4853153,-5.394462,11.403717,-1
574,575,1580692738878,-3.4559998999999997,-3.6801,1.9102999,-3.0421207000000003,-5.908459,11.609225,-1
575,576,1580692738888,-4.4603,-4.4131,2.0516999,-4.7641067999999995,-6.7126713,11.601411,-1
576,577,1580692738899,-6.2739,-4.942199700000001,1.8768,-6.4813433,-7.204592999999999,11.076727,-1
577,578,1580692738909,-7.848099700000001,-5.4388,1.1307,-7.893309599999999,-7.5036674,10.076343,-1
578,579,1580692738919,-8.9684,-5.5544996,0.3942,-8.520236,-7.071255000000001,9.984664,-1
579,580,1580692738929,-9.4725,-5.0611,0.47349998,-8.254011,-6.5053816,10.296312,-1
580,581,1580692738939,-8.9126,-4.3406997,0.9177,-6.951919,-5.564211,11.015933,-1
581,582,1580692738949,-7.6871,-3.4945998,1.5586,-5.6293809999999995,-4.693986,11.476147000000001,-1
582,583,1580692738959,-6.3733997,-2.6322,1.9241999,-4.9734940000000005,-4.29922,11.480417,-1
583,584,1580692738970,-5.5028,-2.0797,1.778,-4.192726,-3.7177260000000003,10.943762,-1
584,585,1580692738980,-5.0698,-1.7461,1.2472999,-3.9264333,-3.523786,10.338,-1
585,586,1580692738990,-4.8863997,-1.5926,0.6369,-3.9254660000000006,-3.4020169,9.742697,-1
586,587,1580692739000,-4.8929996,-1.525,0.0363,-3.8303684999999996,-3.463347,9.238621,-1
587,588,1580692739010,-4.7967997,-1.5837,-0.39659998,-3.5752900000000003,-3.4452276,9.131111,-1
588,589,1580692739020,-4.5211,-1.5834999,-0.4455,-3.1044369,-3.3953516,9.291437,-1
589,590,1580692739031,-3.9996998,-1.4804,-0.2181,-2.4355736,-3.122834,9.730648,-1
590,591,1580692739041,-3.3181998999999998,-1.1761999,0.25579998,-1.7243136000000003,-2.848372,10.369546000000001,-1
591,592,1580692739051,-2.5784,-0.87219995,0.9368,-0.986708,-2.462829,11.267678,-1
592,593,1580692739061,-1.9824,-0.5172,1.6962999,-0.93956137,-2.3111707999999997,11.964468,-1
593,594,1580692739072,-1.9174,-0.34579998,2.3959,-1.0720565,-2.3852377000000002,11.964458,-1
594,595,1580692739082,-2.1188,-0.4946,1.5703,-1.1550969,-2.4696765,11.140077999999999,-1
595,596,1580692739093,-2.1188,-0.4946,1.5703,-1.180648,-2.5709512,10.231487,-1
596,597,1580692739103,-2.1389,-0.7515,-0.43159997,-1.1872559,-2.6636642999999998,9.153292,-1
597,598,1580692739113,-2.1531,-0.6899,-0.76,-1.2088995,-2.5906029,8.82225,-1
598,599,1580692739123,-1.9836999,-0.6146,-0.41959998,-1.0265571,-2.4785352,9.310457000000001,-1
599,600,1580692739133,-1.7531999,-0.4012,0.3247,-0.8364478999999999,-2.272854,10.065808,-1
600,601,1580692739143,-1.5936999,-0.3029,0.92289996,-0.7216315,-2.2193196,10.505996000000001,-1
601,602,1580692739154,-1.6330999,-0.2676,1.089,-0.79194444,-2.1914130000000003,10.667489999999999,-1
602,603,1580692739164,-1.6330999,-0.2676,1.089,-0.8396178,-2.2967577,10.419221,-1
603,604,1580692739174,-1.6278,-0.32459998,0.35869998,-0.80920184,-2.2388659,9.954669,-1
604,605,1580692739184,-1.4727,-0.25869998,-0.39049998,-0.6548333000000001,-2.1472637999999997,9.078938,d
605,606,1580692739195,-1.3834,-0.20989999,-0.8649,-0.5964914000000001,-2.06995,8.673973,-1
606,607,1580692739204,-1.272,-0.094,-0.89659995,-0.47318044,-1.9425691000000003,8.747513,-1
607,608,1580692739214,-0.9948,0.0881,-0.6814,-0.19631496,-1.7674763,8.96482,-1
608,609,1580692739224,-0.7229,0.20539999,-0.4847,0.017257405,-1.6796666,9.14135,-1
609,610,1580692739234,-0.6547,0.26479998,-0.40489998,0.07092583,-1.6531197,9.267725,-1
610,611,1580692739244,-0.7104,0.2759,-0.14800000000000002,-0.02756205,-1.6777034,9.519921,-1
611,612,1580692739255,-0.80799997,0.1408,0.0308,-0.18314685,-1.8514457999999998,9.649083000000001,-1
612,613,1580692739265,-1.0117999,-0.0037999998,0.072299995,-0.31059499999999995,-1.9752067,9.670487,-1
613,614,1580692739275,-0.89879996,-0.0708,0.035,-0.14900553,-2.0212233,9.601515,-1
614,615,1580692739285,-0.6832,-0.0106999995,-0.1594,0.081287935,-1.9484493000000003,9.347873,-1
615,616,1580692739295,-0.47239998,0.0508,-0.40309998,0.2577023,-1.9122105999999999,9.143197,-1
616,617,1580692739306,-0.23969999,0.1539,-0.5287,0.49178818,-1.8325603,9.085421,-1
617,618,1580692739316,-0.0991,0.21939999,-0.4673,0.5956581999999999,-1.7839675,9.138860000000001,-1
618,619,1580692739326,-0.0451,0.2058,-0.39569998,0.5744169,-1.8599116999999998,9.240911,-1
619,620,1580692739337,-0.1961,0.0734,-0.20600000000000002,0.3850068,-2.041488,9.458264,-1
620,621,1580692739347,-0.4518,-0.060999997,-0.0162,0.07267839,-2.182947,9.644122,-1
621,622,1580692739357,-0.64959997,-0.13849999,0.074999996,0.011118673,-2.2309651,9.6507015,-1
622,623,1580692739367,-0.53139997,-0.1296,0.038399998,0.38770747,-2.1405217999999997,9.526031,-1
623,624,1580692739378,-0.1751,0.024799999,-0.12619999,0.67225355,-1.9924258999999997,9.3192005,-1
624,625,1580692739388,0.0276,0.1204,-0.3205,0.74521923,-1.9584283,9.180461,-1
625,626,1580692739398,0.066,0.11009999,-0.45569998,0.7659243,-2.020323,9.107821000000001,-1
626,627,1580692739408,0.046299997999999995,0.06359999599999999,-0.4039,0.69652116,-2.0737906,9.248571,-1
627,628,1580692739418,-0.1214,-0.0188,-0.1651,0.48555368,-2.235284,9.569203,-1
628,629,1580692739429,-0.28849998,-0.1484,0.1232,0.30599815,-2.381656,9.802914999999999,-1
629,630,1580692739439,-0.47469997,-0.27879998,0.2936,0.16556384,-2.4560678,9.860223,-1
630,631,1580692739449,-0.6213,-0.2852,0.3162,0.019249381,-2.480824,9.897793,-1
631,632,1580692739460,-0.6602,-0.2952,0.3184,0.16879122,-2.4236313999999997,9.702129,-1
632,633,1580692739470,-0.5299,-0.23889999,0.1629,0.31688696,-2.3769922,9.506006,-1
633,634,1580692739481,-0.34559998,-0.183,-0.0517,0.4681526,-2.359505,9.627908,-1
634,635,1580692739490,-0.1777,-0.15429999,0.1358,0.53704816,-2.3568041,9.823361,-1
635,636,1580692739500,-0.1346,-0.1724,0.363,0.31571859999999996,-2.498675,9.999576,-1
636,637,1580692739510,-0.4139,-0.29909998,0.47239998,-0.1021558,-2.629772,10.073967999999999,-1
637,638,1580692739520,-0.9489,-0.48729998,0.59099996,-0.6902196,-2.8783092,10.172752000000001,-1
638,639,1580692739530,-1.5044999,-0.72749996,0.6109,-1.2733322,-3.1210814,10.006116,-1
639,640,1580692739540,-1.9393,-0.9012,0.434,-1.5506765,-3.2227487999999997,9.985536,-1
640,641,1580692739551,-2.2796,-1.0243,0.49249998,-2.059406,-3.3170898,10.232656,-1
641,642,1580692739561,-2.6924,-1.0554,0.7477,-2.408385,-3.2321627,10.579948,-1
642,643,1580692739572,-2.9153,-0.9668,1.0425,-2.2697031,-3.0270276000000003,11.106586,-1
643,644,1580692739582,-2.3876998,-0.4554,2.1131,-1.9516096,-2.7477489,11.648472,-1
644,645,1580692739592,-2.2991,-0.31849998,2.5156999,-1.902404,-2.6145833,12.050257,-1
645,646,1580692739602,-2.2991,-0.31849998,2.5156999,-2.054139,-2.4904583,12.372105,-1
646,647,1580692739612,-2.4015,-0.18349999,2.8295,-2.1743758,-2.4576578,12.606085,-1
647,648,1580692739622,-2.501,-0.14999999,3.0936,-2.4148972,-2.4766197,12.725143,-1
648,649,1580692739633,-2.8051,-0.19909999,3.2391999,-3.1241555,-2.7164996,12.959211,-1
649,650,1580692739643,-3.3342,-0.4085,3.4234,-3.7704175,-2.902146,13.269785999999998,-1
650,651,1580692739653,-3.9225998,-0.6017,3.7247999,-3.8551724000000003,-2.9088783,13.876793,-1
651,652,1580692739663,-3.4436998,-0.5566,4.9927,-3.3907452000000005,-2.826805,14.545197,-1
652,653,1580692739673,-2.8518,-0.294,5.2620000000000005,-2.727235,-2.4989336,14.859535999999999,-1
653,654,1580692739683,-2.1269999,-0.11109999599999999,5.382000000000001,-2.208948,-2.3318950000000003,14.949107999999999,-1
654,655,1580692739693,-1.8021,-0.12709999,5.3136,-1.9480948,-2.3024080000000002,14.885318,-1
655,656,1580692739704,-1.8693999,-0.2747,4.9191,-2.092494,-2.3924203,14.508507999999999,-1
656,657,1580692739714,-1.8695998999999999,-0.55189997,4.5132,-2.1634486,-2.6396842,14.050391000000001,-1
657,658,1580692739724,-1.8073,-0.66209996,4.3610997000000005,-2.1554425,-2.6302605,13.978833999999999,-1
658,659,1580692739734,-1.311,-0.4757,4.5123997000000005,-1.5944809,-2.286453,14.218473999999999,-1
659,660,1580692739744,-0.7694,-0.2374,4.8889,-1.1525878999999999,-1.938566,14.577959,-1
660,661,1580692739754,-0.4991,0.0018,4.8828,-1.0117610000000001,-1.6841677,14.540820000000002,-1
661,662,1580692739765,-0.3003,0.0906,4.2194,-0.8508131,-1.4265898000000001,13.683342000000001,-1
662,663,1580692739775,-0.1555,0.0578,3.0168,-0.80551475,-1.3880624,12.222983000000001,-1
663,664,1580692739785,-0.2741,-0.22809999,1.7369999999999999,-1.0515430000000001,-1.5415403,11.188948,-1
664,665,1580692739795,-0.4807,-0.50299996,0.705,-1.2594458999999998,-1.6572185000000001,10.428664,-1
665,666,1580692739805,-0.461,-0.66679996,0.41239998,-1.2836752,-1.6641426,10.144826,-1
666,667,1580692739815,-0.2512,-0.6166,0.47689998,-1.0892851000000001,-1.38857,10.235441999999999,-1
667,668,1580692739825,-0.020399999,-0.3157,0.55439997,-0.910716,-0.97677684,10.332522,-1
668,669,1580692739836,0.3357,-0.051999997,0.68299997,-0.6386485,-0.7282874,10.437935000000001,-1
669,670,1580692739845,0.43989998,-0.0365,0.5967,-0.6834104999999999,-0.7107332,10.333011,-1
670,671,1580692739855,0.3592,-0.1935,0.3831,-0.8432091,-0.8830677,10.203321,-1
671,672,1580692739865,0.3866,-0.48189998,0.9540000000000001,-0.89579535,-1.1182455,11.107488,-1
672,673,1580692739875,0.1925,-0.74829996,1.9748,-1.1872271,-1.3046483999999998,12.083335,-1
673,674,1580692739886,-0.0502,-0.9177,2.8458997999999998,-1.3619081,-1.333417,12.681838,-1
674,675,1580692739896,-0.2216,-0.9109,2.9498,-1.4722903999999999,-1.1126621,12.286535,-1
675,676,1580692739906,-0.0945,-0.7898,2.1118999,-1.143576,-0.87583727,11.295643,-1
676,677,1580692739917,0.49429998,-0.6031,0.6882,-0.5656637,-0.60127026,9.885122,-1
677,678,1580692739927,0.8193,-0.46069998,-0.4958,-0.39417177,-0.25920585,8.991961,-1
678,679,1580692739937,1.1578,-0.1555,-0.84309995,0.22730552,0.23240037,8.920661,-1
679,680,1580692739947,1.7608,0.08800000000000001,-0.7582,0.5879585,0.42377370000000003,9.02095,-1
680,681,1580692739957,2.0807,0.1277,-0.4777,0.6230671,0.3803716,9.493584,-1
681,682,1580692739967,1.8188,-0.1592,-0.17909999,0.21815008,0.08539639,9.434256,-1
682,683,1580692739977,1.2622,-0.6428,-0.6071,-0.32884840000000004,-0.36520198,8.881396,-1
683,684,1580692739987,0.8104,-1.1298,-1.2027999,-0.8388325000000001,-0.60176826,8.086435,-1
684,685,1580692739997,0.38189998,-1.1336,-1.8774998999999999,-1.0748146,-0.46408248,7.6929913,-1
685,686,1580692740007,0.257,-1.1463,-1.9346,-1.0386813,-0.46839200000000003,7.988703999999999,-1
686,687,1580692740018,0.3267,-1.1836,-1.6003,-0.9137136,-0.49727570000000004,8.23751,-1
687,688,1580692740028,0.6367,-1.2573,-1.2269,-0.36227146,-0.47634079999999995,8.606733,-1
688,689,1580692740038,1.1711,-1.2241,-1.1078,0.16723977,-0.4262541,8.472783,-1
689,690,1580692740048,1.6693,-1.1934,-1.3307999,0.6071408,-0.43104252,8.299864,-1
690,691,1580692740058,1.9983,-1.2547,-1.3964,0.6736996,-0.39698738,8.238755000000001,-1
691,692,1580692740069,1.9246999,-1.1762999,-1.423,0.38353196,-0.28254452,8.282473,-1
692,693,1580692740079,1.6729,-1.1510999,-1.4409,0.2203719,-0.51934063,8.263617,-1
693,694,1580692740089,1.4298999,-1.4792,-1.3137,-0.10275914,-0.6553217,8.518933,-1
694,695,1580692740099,1.0356,-1.5839,-1.1199,-0.31362128,-0.72166985,8.591486999999999,-1
695,696,1580692740109,0.98969996,-1.681,-1.0931,-0.15805562,-0.5378143,8.538834,-1
696,697,1580692740119,1.0313,-1.4609999999999999,-1.2123,-0.054961298,-0.34824142,8.248044,-1
697,698,1580692740129,1.1255,-1.3699,-1.6527,0.19645862,-0.3619171,7.5462937000000005,-1
698,699,1580692740140,1.3359,-1.4813,-2.2870998,0.3457323,-0.41853517,6.9419208,-1
699,700,1580692740150,1.4458,-1.5870999,-2.8415,0.27999709999999994,-0.5998912,6.405227,-1
700,701,1580692740160,1.28,-1.8341999,-3.3758,-0.16213535,-0.80035293,6.122386,-1
701,702,1580692740170,0.86139995,-2.0678,-3.5251,-0.51446605,-0.78246343,6.472628599999999,-1
702,703,1580692740180,0.5901,-2.0544,-3.1987997999999997,-0.61102897,-0.44751462,6.792196799999999,-1
703,704,1580692740190,0.4876,-1.6340000000000001,-2.7858,-0.3623768,0.028414385,7.304594,-1
704,705,1580692740200,0.7609999999999999,-1.2529,-2.2942998,0.07007349,0.31716466,7.343275500000001,-1
705,706,1580692740210,1.1423,-1.0565,-2.4201,0.62891847,0.3953689,6.8777084,-1
706,707,1580692740220,1.7125,-1.0406,-2.8583998999999998,1.5172438999999998,0.5584428000000001,6.210386799999999,-1
707,708,1580692740230,2.4120998,-0.94049996,-3.4529,1.5944042999999999,0.58189636,5.9269705,-1
708,709,1580692740241,2.4312,-0.9762,-3.7238,1.1069448,0.5727984,6.10825,-1
709,710,1580692740251,1.9675,-0.9899,-3.5447,0.44682510000000003,0.5744743,6.398504,-1
710,711,1580692740261,1.2882,-1.0058,-3.2489998,-0.059309165999999996,0.72376716,6.9003763,-1
711,712,1580692740271,0.7827,-0.8638,-2.7486,-0.27468200000000004,0.8775324000000001,7.2727704,-1
712,713,1580692740281,0.5256,-0.7348,-2.3765,-0.09909122,1.0203226,7.741307000000001,-1
713,714,1580692740292,0.6482,-0.6083,-1.9066,0.19871874,1.1510938,8.020576,-1
714,715,1580692740302,1.3046,-0.24069999,-1.4661,0.696933,1.4281701,8.188189,-1
715,716,1580692740312,1.8686999,0.022000000000000002,-1.4851999,1.4626848999999997,1.7737778000000002,8.155207,-1
716,717,1580692740322,1.8686999,0.022000000000000002,-1.4851999,1.9000290000000002,2.001179,8.152888,-1
717,718,1580692740333,2.4150999,0.28869998,-1.4943,2.0635242,2.1414986000000003,8.1254225,-1
718,719,1580692740343,2.1612,0.336,-1.3070998999999999,1.7058783,2.0712717,8.345402,-1
719,720,1580692740353,1.6639999,0.3098,-1.0816,1.1540626,2.071176,8.628694,-1
720,721,1580692740363,1.6639999,0.3098,-1.0816,0.9080824000000001,2.1245189,9.03905,-1
721,722,1580692740374,1.1028,0.361,-0.2773,0.7075728,2.1332335,9.406617,-1
722,723,1580692740384,0.8714,0.39929998,-0.257,0.5549185000000001,2.1685147000000002,9.39433,-1
723,724,1580692740394,0.7987,0.3594,-0.40299999999999997,0.5054064,2.1194909,9.188974,-1
724,725,1580692740405,0.8441,0.2333,-0.6666,0.572377,1.9728127,8.873563,-1
725,726,1580692740416,0.87289995,0.1564,-0.9596,0.6279511999999999,1.9319867,8.65727,-1
726,727,1580692740426,0.92929995,0.159,-0.9292,0.64339864,1.9792004,8.778656,-1
727,728,1580692740436,0.8082,0.14479999,-0.7719,0.48674121,1.9228886000000003,8.927538,-1
728,729,1580692740447,0.5925,0.0849,-0.5954,0.24858518,1.8881345,9.159775999999999,-1
729,730,1580692740457,0.31219998,0.1454,-0.4096,0.007307104,2.0001736,9.235872,-1
730,731,1580692740467,0.23869999,0.2245,-0.4883,0.0096821515,2.0418615,9.0639305,-1
731,732,1580692740477,0.2302,0.25149998,-0.7234,-0.023262065,2.0591857,8.764435,-1
732,733,1580692740487,0.1762,0.23699999,-0.98759997,-0.03503196,2.0051343,8.596468,-1
733,734,1580692740497,0.14639999,0.086399995,-1.056,-0.06663542,1.8338723000000001,8.653736,-1
734,735,1580692740507,0.1251,-0.10759999599999999,-0.87049997,-0.0023175871,1.6410433,8.91662,-1
735,736,1580692740518,0.156,-0.16679999,-0.6078,0.023951594,1.6246573999999998,9.112581,-1
736,737,1580692740528,0.2419,-0.20899999,-0.19919999,0.10365935400000001,1.6195241000000002,9.700118,-1
737,738,1580692740538,0.2455,-0.1094,0.1498,0.09985736,1.653541,9.902169,-1
738,739,1580692740548,0.203,-0.1086,0.3324,0.08349060000000001,1.6419148000000001,10.081505,-1
739,740,1580692740558,0.2456,-0.073199995,0.4962,0.17964174,1.6594021,10.185872,-1
740,741,1580692740569,0.3117,-0.074599996,0.54359996,0.21403205,1.6452092,10.224869,-1
741,742,1580692740581,0.2748,-0.1026,0.5823,0.12716085,1.6016443,10.238813,-1
742,743,1580692740591,0.1568,-0.1269,0.5144,-0.047433924,1.5295502,10.013710000000001,-1
743,744,1580692740601,0.028199999,-0.2056,0.3493,-0.13292608,1.4561534,9.816581,-1
744,745,1580692740611,-0.08109999400000001,-0.2977,0.116299994,-0.075101316,1.4682969,9.571894,-1
745,746,1580692740621,-0.042099997,-0.29189998,-0.0871,0.13917015,1.620166,9.495481,-1
746,747,1580692740632,0.1282,-0.1459,-0.1636,0.42746080000000003,1.8252148999999998,9.439264,-1
747,748,1580692740642,0.40109998,0.0438,-0.22129999,0.6293494000000001,1.9077191000000002,9.669175,-1
748,749,1580692740652,0.6003,0.1313,0.014099998999999998,0.6920105,1.9180333999999999,9.920767999999999,-1
749,750,1580692740662,0.4937,0.13589999,0.3762,0.5351807,1.9096824000000001,10.030432000000001,-1
750,751,1580692740672,0.3213,0.0659,0.40579998,0.35657325,1.8424147000000002,10.05603,-1
751,752,1580692740682,0.3213,0.0659,0.40579998,0.3025409,1.8265651000000003,9.928371,-1
752,753,1580692740692,0.26549998,-0.0169,0.0457,0.31819898,1.7807019,9.692121499999999,-1
753,754,1580692740703,0.16899999999999998,-0.0251,-0.0409,0.23292710000000003,1.7739599,9.6138115,-1
754,755,1580692740713,0.16899999999999998,-0.0251,-0.0409,0.39200744,1.8730127,9.718975,-1
755,756,1580692740724,0.3178,0.027099999,0.3035,0.3517657,1.826297,10.010674,-1
756,757,1580692740734,0.2006,0.036599997,0.4899,0.27703786,1.8460636000000001,10.132769999999999,-1
757,758,1580692740744,0.3089,0.0628,0.4218,0.39616376,1.8638381000000002,10.036035,-1
758,759,1580692740754,0.19049999,-0.003,0.2074,0.19768445,1.8084075000000002,9.822021000000001,-1
759,760,1580692740764,-0.0655,0.0069999998,0.0327,-0.030664936,1.8407963999999999,9.647272000000001,-1
760,761,1580692740775,-0.067999996,0.0165,-0.16139999,0.033873167,1.8506987000000001,9.455957000000001,-1
761,762,1580692740785,-0.012999999,0.0169,-0.23809999,0.081422016,1.8718443999999999,9.401648,-1
762,763,1580692740795,0.0799,0.0589,-0.1778,0.20288466,1.8930473,9.487264,d
763,764,1580692740805,0.20189999,0.0243,-0.1082,0.28635612,1.8569715,9.540443,-1
764,765,1580692740815,0.12,-0.077599995,-0.1564,0.13378799,1.7487439999999999,9.494657499999999,-1
765,766,1580692740826,-0.088599995,-0.1293,-0.048,-0.08303092,1.7491462,9.640129,-1
766,767,1580692740836,-0.22829999,-0.0718,-0.028099999,-0.20975122,1.8033031000000002,9.590693,-1
767,768,1580692740846,-0.3963,-0.0134,-0.018199998999999998,-0.35899618,1.8792664000000001,9.646219,-1
768,769,1580692740856,-0.43699998,0.0758,0.0109,-0.28152940000000004,1.9616748,9.620410000000001,-1
769,770,1580692740866,-0.3311,0.076699995,-0.028299998,-0.20662919,1.9118754,9.589343,-1
770,771,1580692740877,-0.268,0.0665,-0.1165,-0.1479521,1.9330688999999999,9.4401455,-1
771,772,1580692740887,-0.2279,0.0647,-0.2729,-0.1241633,1.9137908,9.32804,-1
772,773,1580692740897,-0.24,0.0632,-0.3215,-0.12613612,1.9573748,9.350622,-1
773,774,1580692740907,-0.1964,0.122499995,-0.2233,0.047041275,2.0457592,9.554492999999999,-1
774,775,1580692740917,-0.0379,0.2236,0.021399999,0.1853974,2.1688403999999997,9.846327,-1
775,776,1580692740928,-0.0179,0.3069,0.3542,0.16986382,2.1672887999999997,10.151473,-1
776,777,1580692740938,0.0014,0.2537,0.6674,0.24666981,2.0116754,10.376718499999999,-1
777,778,1580692740948,0.0211,0.0808,0.74549997,0.27087998,1.87647,10.459769,-1
778,779,1580692740958,0.0607,-0.0158,0.88299996,0.6419333,1.8503348999999998,10.753816,-1
779,780,1580692740968,0.48229998,0.013599999,1.1875,1.161226,2.0126522000000002,11.111317999999999,-1
780,781,1580692740978,0.97529995,0.19919999,1.5410999,1.6732023,2.2669644,11.495577,-1
781,782,1580692740989,1.4925,0.4509,1.9147999,2.155672,2.443139,11.711486,-1
782,783,1580692740999,1.9719,0.5979,2.0837,2.8072877,2.3617172,11.639871000000001,-1
783,784,1580692741010,2.6238,0.4211,1.9704,3.4723778,2.11476,11.538366,-1
784,785,1580692741020,3.2809,0.17799999,1.9174999,4.275096400000001,2.049427,11.821534,-1
785,786,1580692741030,4.0758,0.110999994,2.3258,5.041212000000001,2.2589006,12.979686000000001,-1
786,787,1580692741040,4.6756,0.29549998,3.3699,5.1618223,2.7116537,13.963232999999999,-1
787,788,1580692741051,4.7962,0.8188,4.500499700000001,5.028829,2.9770653,14.233107999999998,-1
788,789,1580692741061,4.6821,0.9914,4.5631,4.9542546,2.9327056000000002,13.844825,-1
789,790,1580692741071,4.746299700000001,0.82729995,3.9343,5.7942743,2.604317,12.119631,-1
790,791,1580692741081,5.5269,0.4755,2.5384,6.975401400000001,2.447918,10.704399,-1
791,792,1580692741091,6.6973,0.2263,1.1398,7.94128,2.5936291000000002,10.272036,-1
792,793,1580692741101,7.6519,0.2572,0.7341,8.3445015,2.6391668,10.31626,-1
793,794,1580692741112,8.0484,0.2109,0.807,8.083113,2.8221798,10.495434,-1
794,795,1580692741122,7.4470997,0.3029,0.90459996,7.684947,2.8890831,10.375149,-1
795,796,1580692741133,7.4844,0.2297,0.109799996,7.672018,2.8868134,9.563696,-1
796,797,1580692741142,7.4844,0.2297,0.109799996,7.756342,2.7870326000000003,8.8305435,-1
797,798,1580692741152,7.8753,-0.3509,-1.6988,7.993473,2.4516720000000003,7.7020893,-1
798,799,1580692741162,7.8753,-0.3509,-1.6988,8.002772,2.2749417000000003,7.6491966,-1
799,800,1580692741172,7.6397,-0.7418,-1.1544,7.705153999999999,2.2198656000000003,8.214506,-1
800,801,1580692741183,7.6397,-0.7418,-1.1544,7.2102056,2.2522542000000003,8.530406,-1
801,802,1580692741193,7.1664996,-0.7646,-0.8111,6.706187700000001,2.2139854,8.395191,-1
802,803,1580692741203,6.5365996,-0.91609997,-1.0259,5.863036,1.7862947,7.430108000000001,-1
803,804,1580692741213,5.665,-1.5483999,-3.1313,5.543343,1.6569599999999998,6.155215,-1
804,805,1580692741223,5.1658,-1.7206999,-3.8855,4.8061300000000005,1.5089887,5.292603,-1
805,806,1580692741233,4.4460998,-2.0749,-4.101,4.0138983999999995,1.1202183000000001,5.1086617,-1
806,807,1580692741244,4.4460998,-2.0749,-4.101,3.3021597999999996,0.8262485999999999,4.634389,-1
807,808,1580692741254,2.5688999,-2.8332,-5.5473,1.9560533,0.55631673,3.4257674,-1
808,809,1580692741264,1.5547999,-2.9545999,-6.9937,0.9997898999999999,0.55039823,1.7872236000000001,-1
809,810,1580692741274,0.8986,-2.9721,-8.5504,0.32114866,0.5795309000000001,0.42838016,-1
810,811,1580692741284,-0.0642,-2.9634,-8.6755,-0.7667861999999999,0.6000731,0.59007496,-1
811,812,1580692741295,-1.1672,-2.9754999,-7.9907,-1.8870236,0.60552233,1.3471693999999999,-1
812,813,1580692741305,-1.5870999,-2.9596,-7.4726996,-2.1499069,0.54064906,1.830961,-1
813,814,1580692741315,-2.0037,-3.0667999,-6.7341,-2.6941759999999997,0.38598362,2.5159516,-1
814,815,1580692741325,-2.8471,-3.3602,-6.515,-3.9434896,-0.16076586,2.5143044,-1
815,816,1580692741335,-4.2278,-3.9060998,-7.1073,-5.541283999999999,-0.79173374,1.8184057,-1
816,817,1580692741345,-6.138,-4.3944,-7.8360996,-6.7903485,-1.0656591999999998,1.3725479999999999,-1
817,818,1580692741356,-7.7594,-5.1198,-9.2437,-8.964647,-2.167442,-0.17535134,-1
818,819,1580692741366,-9.1866,-5.8515,-9.129399000000001,-10.633694,-2.9631693,0.57839125,-1
819,820,1580692741376,-10.7906,-6.5755,-8.024,-11.953273,-3.8306459999999998,1.6365231000000002,-1
820,821,1580692741386,-11.6482,-7.4301,-6.7869997,-12.645847,-4.9625287,3.0576255,-1
821,822,1580692741396,-12.512199,-8.4791,-5.6807,-13.571819,-5.7395906,3.9961428999999997,-1
822,823,1580692741407,-14.5866995,-8.5847,-4.3114,-16.276415,-5.8802166,5.53934,-1
823,824,1580692741418,-16.7869,-8.4943,-3.4817,-18.418259,-5.998912000000001,6.321076000000001,-1
824,825,1580692741428,-18.0856,-8.4359,-2.8867,-18.840576000000002,-6.0214934,7.190219,-1
825,826,1580692741438,-17.865,-8.1993,-1.8887,-17.593945,-5.706944,8.343573,-1
826,827,1580692741448,-16.2162,-7.5779,-0.7040000000000001,-15.544537,-5.3242449999999995,9.749275,-1
827,828,1580692741458,-14.2927,-7.2485,0.7118,-14.143162,-5.326716,10.73018,-1
828,829,1580692741469,-12.9035,-7.1154,1.4629999,-12.679109,-5.249230000000001,11.489677,-1
829,830,1580692741479,-12.032599000000001,-6.861399700000001,2.1598,-11.96917,-5.125239,12.184906,-1
830,831,1580692741489,-11.3403,-6.5302997000000005,2.8995,-11.158599,-4.8937864,12.777673,-1
831,832,1580692741499,-10.9352,-6.3156,3.2208,-10.548891000000001,-5.196366,13.63539,-1
832,833,1580692741509,-10.474899,-6.5564,4.1624,-10.116584,-5.4643345000000005,14.463161999999999,-1
833,834,1580692741519,-9.7584,-6.7317995999999996,5.7539,-8.511588,-5.612785,16.963427,-1
834,835,1580692741529,-8.4559,-6.5656,7.4568996,-6.7352057,-5.476564,17.792395000000003,-1
835,836,1580692741539,-6.7798,-6.2777996,8.0564995,-5.2571115,-5.414286,17.645065,-1
836,837,1580692741549,-4.9634,-6.2079,7.444,-3.4358612999999996,-5.6546445,16.29416,-1
837,838,1580692741559,-3.3823,-6.3494,5.8719,-2.2930515,-5.691688,15.16404,-1
838,839,1580692741569,-2.1606998,-6.0414,5.0248,-0.62030894,-4.928158,14.748742000000002,-1
839,840,1580692741579,-0.9835,-5.2135997000000005,4.9516,0.39390359999999996,-4.1771255,14.755034,-1
840,841,1580692741589,-0.005699999599999999,-4.3679,5.0056,1.2729492,-3.7225335,15.116951,-1
841,842,1580692741599,1.2061,-3.7854,5.7374997,2.9107747,-3.2025417999999997,16.512157000000002,-1
842,843,1580692741609,2.5788999,-3.2308,6.9033,3.7921665,-2.9239235,16.85631,-1
843,844,1580692741620,3.3969998,-2.9064999,6.8648996,4.5481787,-2.8862388,15.768767,-1
844,845,1580692741630,4.1552,-2.8781,5.6805997,6.7001925,-2.7903366000000003,14.385905,-1
845,846,1580692741640,6.569,-2.6806,4.3986,8.849505,-2.3379476,13.897785,-1
846,847,1580692741650,9.014999000000001,-1.8885,4.214299700000001,11.147307000000001,-1.075485,15.078346,-1
847,848,1580692741660,10.7111,-0.713,5.6958,12.436796000000001,0.013330915,17.017796,-1
848,849,1580692741671,11.9317,0.3958,7.48,13.132963,0.85894376,17.653627,-1
849,850,1580692741681,12.503699000000001,1.2159,7.8314,13.365333999999999,1.068829,17.195578,-1
850,851,1580692741691,12.789499000000001,1.2868998999999999,7.2310996,13.500539000000002,0.74615777,16.175093,-1
851,852,1580692741701,12.8945,0.7811,5.4933,13.621341000000001,-0.04679228,13.084723,-1
852,853,1580692741711,13.032499000000001,0.1864,3.2851,14.368082999999999,-0.117076464,12.25227,-1
853,854,1580692741722,13.7653,0.053,2.461,15.578869000000001,0.39992747,12.572222,-1
854,855,1580692741732,16.236599,1.2412,3.6099,16.879935999999997,1.1679298999999999,13.404397,-1
855,856,1580692741742,16.236599,1.2412,3.6099,17.7882,1.8418497,13.646173499999998,-1
856,857,1580692741753,17.4431,2.3745,3.411,18.04644,2.3377368,13.213435999999998,-1
857,858,1580692741763,17.4431,2.3745,3.411,17.971320000000002,2.3733049999999998,11.692419000000001,-1
858,859,1580692741773,17.1903,2.0962,0.79029995,17.584023000000002,2.1180832,10.291792,-1
859,860,1580692741783,16.0004,1.6985999,-0.4443,16.34712,1.7478439,9.176008,-1
860,861,1580692741793,15.0674,1.1636,-1.0406,15.464369,1.2965273000000002,8.713381,-1
861,862,1580692741803,13.9593,0.7538,-0.9697,14.543673499999999,1.0371969,8.828686,-1
862,863,1580692741814,12.600999999999999,0.3015,-0.85969996,13.196581,0.64406896,8.93042,-1
863,864,1580692741824,11.4836,-0.1794,-1.3282,12.075003,0.22782266,8.458245,-1
864,865,1580692741834,10.498,-0.6818,-2.6399,10.904928,-0.32172322,6.8594265,-1
865,866,1580692741844,9.7106,-1.0648999,-4.0102997,10.150514999999999,-0.62344056,5.5815163,-1
866,867,1580692741854,9.009399,-1.3187,-4.6061997,9.583797,-0.7611167,5.180583,-1
867,868,1580692741864,8.0328,-1.7006999,-4.3203,8.379122,-1.2018414,5.569162,-1
868,869,1580692741875,6.8599997,-2.2335,-3.7215,7.4234233,-1.6361591999999998,6.055912999999999,-1
869,870,1580692741885,5.6446,-2.8272,-3.3583998999999998,5.9639945,-2.3315599999999996,6.4412837,-1
870,871,1580692741895,4.285599700000001,-3.3809998,-3.3184998,4.5791306,-2.8839693,6.4436874,-1
871,872,1580692741905,2.9413,-3.9046998,-3.4843998,3.0411916000000003,-3.4819736000000003,6.2182015999999996,-1
872,873,1580692741915,1.7971,-4.3135,-3.7096998999999995,1.9685414,-3.8330402,5.923426999999999,-1
873,874,1580692741926,0.779,-4.6433,-4.0833,1.0263081,-4.1593127,5.5601405999999995,-1
874,875,1580692741936,0.022499999,-4.7363,-4.3501,0.43863690000000005,-4.079231299999999,5.402027599999999,-1
875,876,1580692741946,-0.2803,-4.4449,-4.4411,0.18656579,-3.8255801,5.3583193,-1
876,877,1580692741956,-0.54249996,-4.183,-4.3461,-0.055057064,-3.6622665,5.479810700000001,-1
877,878,1580692741967,-0.727,-3.9343,-4.3591,-0.20180248,-3.4456010000000004,5.412514,-1
878,879,1580692741977,-0.74469995,-3.7998998,-4.3424997,-0.37835088,-3.4870303,5.482549,-1
879,880,1580692741987,-1.3503,-4.0645,-4.3355,-1.3674626,-4.002224,5.4021615999999995,-1
880,881,1580692741997,-2.843,-4.7335997,-4.6612,-3.3250767999999997,-5.0035653,4.6236053,-1
881,882,1580692742007,-4.4301,-5.5576,-5.525,-4.2303724,-5.538143,4.136204,-1
882,883,1580692742017,-5.9502,-6.3455997,-6.0834,-6.0505977,-6.451109400000001,3.5291300000000003,-1
883,884,1580692742028,-7.5653,-6.8539,-6.5228,-7.810767,-6.8953679999999995,3.1222305,-1
884,885,1580692742038,-8.807899,-6.9965,-6.6768,-8.402565,-6.9475803,3.2895373999999995,-1
885,886,1580692742048,-9.2498,-6.7553,-6.1335998,-8.57174,-6.62625,4.10687,-1
886,887,1580692742058,-9.292,-6.4603996,-5.3052,-8.527236,-6.608705499999999,4.879335,-1
887,888,1580692742068,-9.2817,-6.3982997,-4.309,-8.491964999999999,-6.810680400000001,6.074923,-1
888,889,1580692742078,-9.3569,-6.5067997,-3.3212,-8.692484,-7.1256804,6.982881,-1
889,890,1580692742088,-9.7415,-6.7173996,-2.4586,-9.418321,-7.4841022,7.609817,-1
890,891,1580692742099,-10.738,-6.892299700000001,-2.0643,-10.701545,-7.811064,7.735866499999999,-1
891,892,1580692742109,-12.2109995,-7.0643997,-2.0011,-12.511389999999999,-8.0401125,7.7329845,-1
892,893,1580692742119,-13.6721,-7.0456996,-2.0238,-13.2709255,-7.9566693,7.3936687,-1
893,894,1580692742129,-14.3489,-6.6872,-2.5537,-12.748339,-7.487473,6.9584503,-1
894,895,1580692742139,-13.5061,-6.1184998,-2.6875,-11.460708,-7.1983495,7.2540674,-1
895,896,1580692742149,-11.833099,-5.7002997,-2.0709999,-9.261911999999999,-6.992046,8.576988,-1
896,897,1580692742159,-10.094999000000001,-5.3589997,-0.7427,-7.827881,-6.996326400000001,10.287799,-1
897,898,1580692742170,-8.7792,-5.2276,1.0616,-7.0042467,-7.091022,11.552483,-1
898,899,1580692742180,-8.1451,-5.1440997,2.4185998,-7.4207134,-7.252717,12.667176,-1
899,900,1580692742190,-8.8994,-5.1484,3.3555,-8.2049675,-7.379169,13.433128,-1
900,901,1580692742201,-9.5855,-5.0376,4.0874,-8.154469500000001,-7.182002000000001,13.912275,-1
901,902,1580692742210,-9.3764,-4.624399700000001,4.5938,-7.563867,-6.9323535000000005,14.245126999999998,-1
902,903,1580692742220,-8.5113,-4.1507998,5.0014997,-5.9986916,-6.5351360000000005,14.508632999999998,-1
903,904,1580692742230,-7.0688996,-3.6725,5.2311,-4.414783,-6.124722,14.579214000000002,-1
904,905,1580692742240,-5.4613,-3.138,5.232599700000001,-2.7762682,-5.9052696,13.908866,-1
905,906,1580692742250,-3.8149,-2.8344,4.504699700000001,-1.4358603,-5.8422065000000005,13.303860999999998,-1
906,907,1580692742261,-2.4596999,-2.6037998,4.0984,-0.5018247,-5.62035,13.499716000000001,-1
907,908,1580692742271,-1.5824,-2.2547,4.4385,-0.41208999999999996,-5.477675,14.281116500000001,-1
908,909,1580692742281,-1.5259999,-2.0053,5.369,-0.5299039000000001,-5.417743,15.247435999999999,-1
909,910,1580692742291,-1.5213,-1.8424,6.2897,-0.44666225,-5.4128875999999995,15.571563000000001,-1
910,911,1580692742302,-1.3342,-1.7082,6.4996,-0.097635545,-5.3022849999999995,15.27811,-1
911,912,1580692742312,-0.79969996,-1.5319999999999998,6.093,0.81672925,-5.261555,14.342101000000001,-1
912,913,1580692742322,0.2443,-1.4301,5.0494,2.0291338,-5.1460204,12.92278,-1
913,914,1580692742332,2.688,-0.9526,3.6457998999999996,3.3086336000000003,-4.83758,12.632622,-1
914,915,1580692742342,2.688,-0.9526,3.6457998999999996,4.734103,-4.376218,12.822061,-1
915,916,1580692742353,4.6956997000000005,0.051799998,4.3409,5.0376496,-3.8368902,13.453019,-1
916,917,1580692742363,4.6275997,0.48099998,4.995199700000001,4.919491000000001,-3.4663446,14.113732,-1
917,918,1580692742373,4.6275997,0.48099998,4.995199700000001,4.862097299999999,-3.4114597,14.433876000000001,-1
918,919,1580692742383,4.6735,0.6532,5.4989,4.552009,-3.4839177,14.525220000000001,-1
919,920,1580692742393,4.2971,0.5298,5.0381,4.345955,-3.538496,13.973873000000001,-1
920,921,1580692742403,4.217,0.40309998,4.1914997000000005,4.189882,-3.6806254000000003,12.940315,-1
921,922,1580692742414,4.2832,0.1864,3.0168998,4.2555118,-3.814739,11.713555,-1
922,923,1580692742424,4.8792,0.32799998,1.9884,4.8638587,-3.5432172,10.878774,-1
923,924,1580692742434,5.9024997,0.8181,1.8264999,5.6285667,-3.0989013,10.823267,-1
924,925,1580692742444,6.7163997,1.1852,1.6674999,6.3922696,-2.6443288,10.661226,-1
925,926,1580692742454,6.7917,1.3777,1.3233,6.3264002999999995,-2.4495652000000003,10.211586,-1
926,927,1580692742464,6.6632,1.4027,0.6157,6.068487,-2.410396,9.441179,-1
927,928,1580692742475,6.3501997,1.3030000000000002,0.1441,5.610936,-2.5659044,9.081983000000001,-1
928,929,1580692742485,5.8083,1.0837,-0.030399999,5.1234193,-2.7281735,9.03,-1
929,930,1580692742495,5.1014,0.6679999999999999,0.053299997,4.2097344,-3.2903035000000003,9.152621,-1
930,931,1580692742505,4.308399700000001,0.1699,0.1881,3.4289853999999997,-3.7287008999999998,9.306425,-1
931,932,1580692742516,3.6408,-0.2006,0.332,2.8328290000000003,-4.0546665,9.400469000000001,-1
932,933,1580692742525,3.1353,-0.47829998,0.30609998,2.470931,-4.2285337,9.367811999999999,-1
933,934,1580692742535,2.7928998,-0.5956,0.20809999,2.2013152000000002,-4.354928,9.266021,-1
934,935,1580692742545,2.7387,-0.755,0.1285,2.2000990000000002,-4.42821,9.123142999999999,-1
935,936,1580692742555,2.5739,-0.7637,-0.106,2.0572417,-4.372799,8.980114,-1
936,937,1580692742565,2.6111,-0.626,-0.1104,2.2660832,-4.2261489999999995,9.003108000000001,-1
937,938,1580692742576,2.9083997999999998,-0.4692,-0.031799997999999996,2.5192077,-4.029518,9.136436,-1
938,939,1580692742586,3.1143,-0.2482,0.15699999,2.6260272999999996,-3.8488708,9.353897,-1
939,940,1580692742596,2.9545999,-0.2039,0.4341,2.2847867,-3.8672967000000003,9.63625,-1
940,941,1580692742606,2.53,-0.2435,0.5416,1.8253682,-3.9666846,9.54278,-1
941,942,1580692742616,2.1815,-0.3707,0.30159998,1.638812,-4.073964,9.232022,-1
942,943,1580692742627,1.8842,-0.4759,-0.1475,1.2228433,-4.0724797,8.761083,-1
943,944,1580692742637,1.5054,-0.4553,-0.4308,0.97828996,-4.0824300000000004,8.668074,-1
944,945,1580692742647,1.3442999,-0.42069998,-0.46699998,0.9786155999999999,-3.9558915999999997,8.703805000000001,-1
945,946,1580692742657,1.454,-0.29119998,-0.363,1.0675746000000002,-3.8490527,8.991433,-1
946,947,1580692742667,1.3541,-0.2722,0.0579,0.79154223,-3.8813362000000002,9.484879,d
947,948,1580692742677,1.0181999,-0.3084,0.5391,0.3764451,-3.9783013,9.846959,-1
948,949,1580692742688,0.54039997,-0.44599998,0.76379997,-0.030664936,-4.1309266000000004,9.830217999999999,-1
949,950,1580692742698,0.1742,-0.6019,0.583,-0.34261984,-4.202284,9.481364,-1
950,951,1580692742708,-0.09999999400000001,-0.63989997,0.18249999,-0.41534609999999994,-4.184863,9.202038,-1
951,952,1580692742718,-0.0052,-0.5469,-0.0927,-0.18369274,-4.0280623,8.972463000000001,-1
952,953,1580692742728,0.1999,-0.4052,-0.33859998,0.03539588,-3.7981138,8.724097,-1
953,954,1580692742739,0.29479998,-0.22039999,-0.47469997,0.32956666,-3.510685,8.72518,-1
954,955,1580692742749,0.60679996,0.0312,-0.43089998,0.59434617,-3.3346633999999997,8.837458,-1
955,956,1580692742759,0.8542,0.2042,-0.2262,0.530421,-3.2179124,9.111412,-1
956,957,1580692742769,0.6878,0.26569998,-0.0387,0.35376725,-3.2506366,9.184175999999999,-1
957,958,1580692742780,0.5399,0.2191,0.011399999,0.20873608,-3.3213131000000002,9.231305,-1
958,959,1580692742790,0.3848,0.1484,0.0696,-0.047137044,-3.4782483999999996,9.174083,-1
959,960,1580692742800,0.13229999,-0.0365,-0.070999995,-0.26163837,-3.6075256,8.786739,-1
960,961,1580692742810,-0.0672,-0.1682,-0.47869998,-0.3101449,-3.6078897000000003,8.534324,-1
961,962,1580692742820,-0.110599995,-0.1425,-0.6606,-0.24012886,-3.5527367999999995,8.576002,-1
962,963,1580692742830,-0.0105,-0.110599995,-0.60469997,-0.0015801731,-3.4620636,8.7021,-1
963,964,1580692742841,0.188,-0.0218,-0.4966,0.15987521,-3.3256898,8.917883999999999,-1
964,965,1580692742851,0.38639998,0.1427,-0.2286,0.32065064,-3.2444212,9.060464,-1
965,966,1580692742861,0.5604,0.2224,-0.1162,0.40059784,-3.1515641,9.1550255,-1
966,967,1580692742871,0.62439996,0.33089998,-0.0139,0.28393316,-3.1633341,9.2706175,-1
967,968,1580692742881,0.5148,0.3085,0.0968,0.027389668,-3.260376,9.256539,-1
968,969,1580692742891,0.24839999,0.2126,0.0779,-0.16763243,-3.3860620000000003,9.253810000000001,-1
969,970,1580692742902,-0.0407,-0.029399997999999997,0.0552,-0.26223212,-3.5034068,9.235988,-1
970,971,1580692742912,-0.0407,-0.029399997999999997,0.0552,-0.28094518,-3.5218036,9.222991,-1
971,972,1580692742922,-0.074999996,-0.053799997999999995,0.043199997000000004,-0.17121416,-3.52302,9.200764,-1
972,973,1580692742932,0.0324,-0.0561,0.0127,-0.017113755,-3.4767449999999998,9.366864,-1
973,974,1580692742943,0.1863,-0.013599999,0.19039999,0.117421225,-3.3557992,9.604177,-1
974,975,1580692742953,0.36389998,0.1629,0.7669,0.19124882,-3.3224432,9.977836,-1
975,976,1580692742963,0.36139998,0.1924,0.8296,0.16303556,-3.3063733999999996,10.007524,-1
976,977,1580692742973,0.2093,0.13949999,0.7829999999999999,0.0063781533,-3.3626468000000003,9.952371000000001,-1
977,978,1580692742983,0.0139,0.0145,0.7938,-0.2101343,-3.4928339,9.967378,-1
978,979,1580692742994,-0.125,-0.0554,0.6559,-0.33601183,-3.5698887999999998,9.817021,-1
979,980,1580692743004,-0.048499997999999996,-0.098299995,0.5858,-0.22469103,-3.5689599999999997,9.749955,-1
980,981,1580692743014,0.1375,0.0455,0.6434,-0.043229707,-3.4267540000000003,9.823008,-1
981,982,1580692743024,0.3275,0.1628,0.7905,0.15644671,-3.3445752,9.97568,-1
982,983,1580692743035,0.43379998,0.17600000000000002,0.84099996,0.25335443,-3.3124928,10.064285,-1
983,984,1580692743045,0.5737,0.21239999,1.1872,0.36321953,-3.3104436,10.445098,-1
984,985,1580692743055,0.6263,0.1718,1.5732,0.39031234,-3.365242,10.79198,-1
985,986,1580692743065,0.5683,0.048899997,1.7811999,0.30305806,-3.487308,10.973785000000001,-1
986,987,1580692743076,0.39799999999999996,-0.07,1.9377999,0.08704359,-3.5803656999999998,11.175711999999999,-1
987,988,1580692743086,0.3019,-0.0581,2.0427,0.07628884,-3.5735855000000005,11.162084,-1
988,989,1580692743096,0.4217,-0.0705,1.8909999,0.20543209,-3.5600532999999994,11.009469000000001,-1
989,990,1580692743106,0.5173,-0.0537,1.808,0.25393862,-3.5208652000000003,11.029148,-1
990,991,1580692743116,0.532,0.0074,2.0115,0.24645913,-3.4336300000000004,11.366808,-1
991,992,1580692743126,0.583,0.1047,2.3158998,0.33175015,-3.2842797999999993,11.727307000000001,-1
992,993,1580692743137,0.7559999999999999,0.2553,2.7201998,0.6085678000000001,-3.178226,12.078748,-1
993,994,1580692743147,1.0875,0.3096,3.0370998,0.85141647,-3.1618881,12.363121000000001,-1
994,995,1580692743157,1.2607,0.363,3.3046,0.8190755999999999,-3.1087177,12.668545,-1
995,996,1580692743167,1.1065999,0.39499998,4.0028,0.5471038,-3.180582,13.805206,-1
996,997,1580692743177,0.8163,0.24489999,5.0123997000000005,0.16195339,-3.2830538999999996,14.606095000000002,-1
997,998,1580692743187,0.436,0.20629999,5.6231,-0.09078813,-3.2770492999999994,14.841091,-1
998,999,1580692743198,0.3103,0.096599996,5.5288997,-0.16812085,-3.4637873,14.34915,-1
999,1000,1580692743208,0.1635,-0.1296,4.8494,-0.45867157,-3.4968274,13.659486,-1
1000,1001,1580692743218,-0.1175,-0.154,4.1205,-0.6415503,-3.5902489999999996,13.14908,-1
1001,1002,1580692743228,-0.2723,-0.4596,3.9373,-1.0285875,-3.7978932999999997,13.502560999999998,-1
1002,1003,1580692743238,-0.5887,-0.527,4.3231,-1.3318561000000002,-3.7898297,13.910158,-1
1003,1004,1580692743248,-0.759,-0.6087,4.7362,-1.5239956000000001,-3.8896296,14.304732000000001,-1
1004,1005,1580692743259,-0.9483,-0.7281,5.4653,-2.0003363999999997,-4.0265684,15.510663000000001,-1
1005,1006,1580692743269,-1.2791,-0.9113,6.718899700000001,-2.136959,-4.0932517,16.242302,-1
1006,1007,1580692743279,-1.1687,-0.94579995,6.7812,-1.5863885,-3.8681678999999995,15.137082000000001,-1
1007,1008,1580692743289,-0.55219996,-0.8156,5.5399,-1.0089071,-3.5007634,13.658184,-1
1008,1009,1580692743299,-0.0359,-0.56949997,4.0297,-0.6548236999999999,-3.1007402,12.400433,-1
1009,1010,1580692743309,0.299,-0.36159998,2.7903,-0.3512677,-2.794972,11.661878999999999,-1
1010,1011,1580692743320,0.5219,-0.2489,2.1538,-0.3820284,-2.6514729999999997,11.684383,-1
1011,1012,1580692743330,0.4292,-0.30589998,2.2129,-0.7642196,-2.6821189999999997,11.579423,-1
1012,1013,1580692743340,0.0626,-0.5038,2.0056,-0.8795530999999999,-2.6179349999999997,11.412489,-1
1013,1014,1580692743350,0.1195,-0.4915,1.8644999,-0.48883852,-2.3155759999999996,11.453517,-1
1014,1015,1580692743360,0.6031,-0.29119998,1.8469,0.11877156,-1.8438991000000002,10.876916,-1
1015,1016,1580692743370,1.1703,0.010799999,1.2929,0.66806847,-1.3927358,10.511158,-1
1016,1017,1580692743381,1.7813,0.35259998,0.9167,1.0679002,-1.1850532,10.746796,-1
1017,1018,1580692743391,2.2281,0.45009997,1.1384,1.1836838,-1.0908461999999999,11.400661999999999,-1
1018,1019,1580692743401,2.3639,0.4366,1.7794,0.92511,-1.1745473999999998,12.057917999999999,-1
1019,1020,1580692743411,1.9871999,0.1679,2.5439,0.24392127,-1.4337628999999998,12.420179,-1
1020,1021,1580692743421,1.2239,-0.19749999,2.725,-0.23377943,-1.5823854,11.965923,-1
1021,1022,1580692743431,0.8379,-0.4824,2.2673,-0.29218838,-1.6106273000000002,11.485292,-1
1022,1023,1580692743441,0.6940000000000001,-0.6759999999999999,1.6656,-0.48233587,-1.6148987,10.777662,-1
1023,1024,1580692743451,0.4987,-0.83739996,1.0395,-0.5284865,-1.4675499,10.357948,-1
1024,1025,1580692743461,0.46609998,-0.80719995,0.5162,-0.26779625,-1.2379556,10.0647545,-1
1025,1026,1580692743471,0.76269996,-0.7137,0.28059998,0.11163683,-0.87584686,9.97841,-1
1026,1027,1580692743481,1.008,-0.5489,0.2042,0.20159177,-0.6957454000000001,10.074226,-1
1027,1028,1580692743491,1.1007,-0.5117,0.3356,0.11216356,-0.6168899999999999,10.0481,-1
1028,1029,1580692743501,0.9503,-0.59419996,0.2724,0.10794977,-0.566267,9.980919,-1
1029,1030,1580692743512,0.9259,-0.6684,0.1528,0.15083470000000002,-0.5517677,9.496409,-1
1030,1031,1580692743522,0.92329997,-0.8312,-0.2877,-0.16747920000000002,-0.5927373,9.116909,-1
1031,1032,1580692743532,0.6071,-1.0182999,-0.6663,-0.65375113,-0.5354297,8.995016,-1
1032,1033,1580692743542,-0.3206,-1.3719,-0.6512,-1.1857715,-0.72893864,9.118432,-1
1033,1034,1580692743552,-0.3206,-1.3719,-0.6512,-1.4102135,-0.85813934,9.061402000000001,-1
1034,1035,1580692743563,-0.6392,-1.6721,-0.69009995,-1.6438781000000002,-0.9288449000000001,9.063403,-1
1035,1036,1580692743573,-0.8804,-2.0312997999999998,-0.8519,-1.6341097,-0.9489945,8.8751335,-1
1036,1037,1580692743583,-0.67219996,-1.9806999,-1.8858999,-1.4007228999999999,-0.75305307,7.825659299999999,-1
1037,1038,1580692743593,-0.2899,-1.6678,-2.5061998,-0.98557794,-0.28919083,7.189136500000001,-1
1038,1039,1580692743603,0.17809999,-1.6980000000000002,-2.5470998,-0.47666642,-0.18526332,7.127165,-1
1039,1040,1580692743613,0.57199997,-1.8888999,-2.7642,-0.04971319999999999,-0.2538237,6.8894496,-1
1040,1041,1580692743624,0.47,-1.9405999,-2.9422998,-0.2481255,-0.19297266,6.751380999999999,-1
1041,1042,1580692743634,-0.0327,-2.1362,-2.6018,-0.8248503,-0.3650583,7.044967,-1
1042,1043,1580692743644,-0.63479996,-2.3095999,-2.7422,-1.4695513999999998,-0.45661260000000004,6.781643400000001,-1
1043,1044,1580692743654,-0.96559995,-2.4208,-3.0878,-1.7843506000000002,-0.47516283,6.4294275999999995,-1
1044,1045,1580692743664,-0.97779995,-2.4736,-3.4821,-1.8197561999999998,-0.46561477,5.990408,-1
1045,1046,1580692743675,-0.87369996,-2.5205,-4.0228,-1.7185867,-0.44854888,5.3674846,-1
1046,1047,1580692743685,-0.815,-2.4929,-4.6811,-1.8631008000000002,-0.28223807,4.821204,-1
1047,1048,1580692743695,-1.0654,-2.3930000000000002,-4.517299700000001,-2.0097983,-0.15619773,5.048481,-1
1048,1049,1580692743705,-1.1543,-2.2062,-4.3554997,-2.131558,0.23244825,5.207455599999999,-1
1049,1050,1580692743715,-1.0981,-1.8615999,-4.0775,-1.9516574,0.59853125,5.527282700000001,-1
1050,1051,1580692743725,-0.8373,-1.6834999,-3.8695,-1.7068073000000001,0.70436454,5.577685400000001,-1
1051,1052,1580692743736,-0.607,-1.7249,-4.0051,-1.6439737,0.6539427,5.4298387,-1
1052,1053,1580692743746,-0.6387,-1.8413999,-4.0332,-1.7005535,0.51476294,5.3732586,-1
1053,1054,1580692743756,-0.6077,-2.0458,-4.1794,-1.6870694,0.37011483,5.185343,-1
1054,1055,1580692743766,-0.66609997,-2.1239,-4.2578,-1.8319569,0.39017826,5.237977,-1
1055,1056,1580692743777,-0.7958,-2.0539,-4.0337,-1.9012067,0.543388,5.4949129999999995,-1
1056,1057,1580692743786,-0.7295,-1.8932999,-3.6936998,-1.7939179,0.6810067,5.8055177,-1
1057,1058,1580692743796,-0.5793,-1.6413,-3.2568998,-1.6399993999999998,1.1919198,6.3751370000000005,-1
1058,1059,1580692743806,-0.54429996,-1.2294999,-2.9578,-1.6081756,1.5032809,6.512209400000001,-1
1059,1060,1580692743816,-0.4842,-0.97319996,-2.8055,-1.5113446000000001,1.7180026000000002,6.634227799999999,-1
1060,1061,1580692743827,-0.2411,-0.7452,-2.8587,-1.2337129999999998,1.9675548999999999,6.471393,-1
1061,1062,1580692743837,0.0246,-0.5672,-3.0093,-1.0066278,2.158344,6.3853645,-1
1062,1063,1580692743847,0.1892,-0.4091,-2.9738,-0.8023640000000001,2.3248081000000003,6.413750599999999,-1
1063,1064,1580692743858,0.4075,-0.3489,-2.9977999,-0.58855224,2.3211498,6.3032246,-1
1064,1065,1580692743868,0.6033,-0.3455,-3.1011,-0.47659937,2.3431382000000003,6.425118,-1
1065,1066,1580692743879,0.6501,-0.3464,-2.8727,-0.5258241,2.3489132,6.949927000000001,-1
1066,1067,1580692743889,0.5469,-0.33069998,-2.323,-0.7496916,2.5369248,7.432598,-1
1067,1068,1580692743899,0.31379998,-0.1537,-1.8239,-1.0230137,2.6585982000000006,8.099344,-1
1068,1069,1580692743909,0.011000000000000001,-0.0033,-1.1589999,-1.2583063,2.8427603,8.44955,-1
1069,1070,1580692743919,-0.2502,0.2253,-0.8566,-1.3453785,3.0113119999999998,8.587197,-1
1070,1071,1580692743930,-0.2324,0.3245,-0.78849995,-1.1780046,3.0251502999999995,8.631105999999999,-1
1071,1072,1580692743940,-0.0457,0.3232,-0.7391,-0.8314775,3.0000112,8.740511999999999,-1
1072,1073,1580692743950,0.3331,0.2888,-0.6008,-0.5834286,3.0368532999999998,8.8456745,-1
1073,1074,1580692743960,0.774,0.41669998,-0.45209998,0.016759411999999998,3.2762928,9.081323,-1
1074,1075,1580692743970,1.1219,0.57089996,-0.2638,0.12130941,3.4318678,9.186657,-1
1075,1076,1580692743980,1.1103,0.7448,-0.1733,-0.09960837,3.6630807,9.143801,-1
1076,1077,1580692743991,0.92149997,0.951,-0.2394,-0.18788737,3.7668644999999996,9.165463,-1
1077,1078,1580692744002,0.6867,0.9152,-0.353,-0.37489367,3.6584744,9.012905,-1
1078,1079,1580692744012,0.51129997,0.6782,-0.4493,-0.5736220000000001,3.4374222999999997,8.906698,-1
1079,1080,1580692744022,0.32799998,0.4904,-0.25239998,-0.75104195,3.2372766,9.115319,-1
1080,1081,1580692744032,0.33229998,0.3908,0.1592,-0.74541074,3.1450136000000004,9.523454,-1
1081,1082,1580692744042,0.33229998,0.3908,0.1592,-0.60939133,3.19828,9.780764,-1
1082,1083,1580692744053,0.6594,0.51269996,0.48259997,-0.40030092,3.2811482000000005,9.845867,-1
1083,1084,1580692744063,0.71779996,0.5493,0.4147,-0.33573413,3.3203267999999997,9.776722999999999,-1
1084,1085,1580692744073,0.62549996,0.6155,0.2297,-0.44773486,3.3836101999999997,9.588144999999999,d
1085,1086,1580692744083,0.3215,0.52489996,-0.072299995,-0.74716336,3.30283,9.286525,-1
1086,1087,1580692744093,-0.021399999,0.24759999,-0.3646,-1.1073662,3.0244226000000003,8.986952,-1
1087,1088,1580692744103,-0.39609998,0.0007,-0.56909996,-1.5579644,2.731918,8.760029,-1
1088,1089,1580692744114,-0.7431,-0.2146,-0.68619996,-1.9132832,2.512887,8.63531,-1
1089,1090,1580692744124,-1.0425,-0.4287,-0.91169995,-2.2142918,2.313699,8.38596,-1
1090,1091,1580692744134,-1.3723999,-0.6121,-1.1377,-2.5445,2.1264917999999997,8.205724,-1
1091,1092,1580692744144,-1.7425,-0.7549,-1.2073,-2.9072406,1.9742012999999998,8.137155,-1
1092,1093,1580692744154,-2.0246,-0.8874,-1.3654,-3.1677206,1.8633306,7.9193487000000005,-1
1093,1094,1580692744165,-2.1399,-0.93289995,-1.7387999,-3.2723374,1.8524034,7.5464473,-1
1094,1095,1580692744175,-2.2459,-0.87189996,-2.0823998,-3.3713326,1.8573643,7.207389999999999,-1
1095,1096,1580692744185,-2.3816,-0.9794,-2.6118999,-3.5716699999999997,1.7525747999999999,6.588891,-1
1096,1097,1580692744196,-2.78,-1.1676999,-3.4347,-4.063899,1.4586626,5.6614156,-1
1097,1098,1580692744207,-3.2989,-1.5234,-4.0025997,-4.6949816,1.0802159,5.206699400000001,-1
1098,1099,1580692744216,-4.0415,-1.8783,-4.3852997,-5.4338994000000005,0.80406874,4.825983,-1
1099,1100,1580692744226,-4.7295,-2.1713,-4.691,-6.0556254,0.38072595,4.631985,-1
1100,1101,1580692744236,-5.2411,-2.6543999,-4.8612,-6.456128,-0.041525036,4.329119,-1
1101,1102,1580692744247,-5.5046,-2.9652,-5.3856997,-6.530989599999999,-0.36677256,3.6010612999999996,-1
1102,1103,1580692744257,-5.3335,-3.056,-5.9796,-6.3039427,-0.15902287,3.148069,-1
1103,1104,1580692744267,-5.2506,-2.4754,-6.672999999999999,-6.404824700000001,0.35644877,2.4766772,-1
1104,1105,1580692744277,-5.3947997,-2.1548998,-7.338299799999999,-6.415167299999999,0.44076297,1.7577653999999998,-1
1105,1106,1580692744287,-5.3883,-2.274,-7.8391,-6.4201765,0.2294603,1.0637343000000001,-1
1106,1107,1580692744297,-5.3194,-2.5614,-8.6461,-6.0547733,-0.24627715,0.5002541,-1
1107,1108,1580692744308,-5.022599700000001,-3.0728,-9.0243,-5.9332337,-0.9554589,0.25164974,-1
1108,1109,1580692744318,-5.1754,-3.7403,-9.2297,-6.085908,-1.7040682,0.28438327,-1
1109,1110,1580692744328,-5.3712,-4.5446,-9.0081,-6.2824717,-2.6863134,0.9221219999999999,-1
1110,1111,1580692744338,-5.7567997,-5.1447997,-8.507299,-6.7742119999999995,-2.7043946,1.1459511999999998,-1
1111,1112,1580692744349,-6.393399700000001,-4.8714,-8.187699,-6.708092999999999,-2.3558752999999997,2.3706906,-1
1112,1113,1580692744359,-6.0516996,-4.3592997,-6.8041,-5.4325876,-1.6868875,4.293579599999999,-1
1113,1114,1580692744369,-4.6752996,-3.5173,-5.0013,-3.6098337,-1.1955781,5.673013,-1
1114,1115,1580692744379,-2.9125,-2.9153,-3.7059998999999997,-1.4957247999999999,-1.0629393,6.874960000000001,-1
1115,1116,1580692744389,-0.83169997,-2.6343,-2.7096999,0.31916624,-1.0613209,6.9263296,-1
1116,1117,1580692744399,1.2836,-2.6286,-2.9822,2.8891695,-1.6635776000000002,6.660123,-1
1117,1118,1580692744409,3.1801,-3.0795999,-2.9859998,3.7617792999999997,-2.1109486,7.0201826,-1
1118,1119,1580692744419,3.8822,-3.6044998,-2.2137,3.4993364999999996,-2.7361512,8.558822,-1
1119,1120,1580692744430,3.0261,-3.5672998,-0.8322,2.494241,-2.4387529999999997,10.968086999999999,-1
1120,1121,1580692744440,2.1055,-2.9578,1.7680999,2.1610255,-2.1373708,13.394716,-1
1121,1122,1580692744450,1.7924999,-2.2199,4.5973,2.6938982000000005,-1.9140685000000002,15.745160999999998,-1
1122,1123,1580692744460,2.6573,-1.9521998999999999,6.1843,4.3439440000000005,-1.8580729,16.42653,-1
1123,1124,1580692744471,5.1591997,-1.6911999,6.5692997,6.1607695,-1.9256374,16.240195999999997,-1
1124,1125,1580692744483,8.3185,-1.7953999,5.694,9.309987,-2.251105,15.380132000000001,-1
1125,1126,1580692744493,10.826099000000001,-1.8313999,5.557699700000001,12.771266,-2.6446257,16.57054,-1
1126,1127,1580692744503,12.2752,-1.8248999,8.6291,12.629481,-2.8368802000000004,18.659431,-1
1127,1128,1580692744513,11.6172,-1.7723,9.5695,11.947296000000001,-2.9178615000000003,19.33221,-1
1128,1129,1580692744524,11.2851,-1.5185,9.1753,11.701574,-2.8178797,18.896065,-1
1129,1130,1580692744534,11.496799000000001,-1.3809999,8.1124,11.973135000000001,-2.7970693,17.579397,-1
1130,1131,1580692744544,12.4346,-1.1108999,6.7239,12.979455999999999,-2.5907657000000004,16.087513,-1
1131,1132,1580692744554,13.6198,-0.93939996,5.4514,14.107575,-2.6002467,14.974170999999998,-1
1132,1133,1580692744564,14.701799,-0.9331,5.2181997,15.082676000000001,-2.5874328999999996,15.015638000000001,-1
1133,1134,1580692744574,15.4163,-0.6423,6.2904,15.7359,-2.3798747000000002,16.21475,-1
1134,1135,1580692744585,15.530999,-0.6365,7.4414997000000005,15.607810999999998,-2.5551877,17.166895,-1
1135,1136,1580692744595,14.7386,-0.96459997,7.4435997,14.711297,-2.9521272,16.957957999999998,-1
1136,1137,1580692744605,14.2008,-1.2236999,6.5594997,14.259089000000001,-3.19805,15.935491,-1
1137,1138,1580692744615,14.2191,-1.3721,5.3761997,14.331806,-3.3478217000000003,14.700791,-1
1138,1139,1580692744625,14.305099499999999,-1.2943,3.4519,14.05902,-2.965688,12.171499,-1
1139,1140,1580692744636,13.7772,-0.5459,1.1012,13.625201,-2.2965853,9.795579,-1
1140,1141,1580692744645,13.7212,-0.32439998,-1.1151,13.574701999999998,-2.1736,8.101011,-1
1141,1142,1580692744656,13.4253,-0.22459999,-3.1259,12.977733,-2.0466306,5.8790674,-1
1142,1143,1580692744666,12.5769,-0.44869998,-4.526799700000001,11.891291,-2.4978516,4.795825,-1
1143,1144,1580692744676,11.183,-1.357,-5.031399700000001,10.293755,-3.601004,4.7166348,-1
1144,1145,1580692744686,9.303599,-2.5476,-4.7753,8.208252,-4.6644607,5.045052,-1
1145,1146,1580692744696,7.0546,-3.234,-4.2285,6.0715423,-5.146806,5.732111499999999,-1
1146,1147,1580692744707,5.4592,-3.3667998,-3.4413,4.269387999999999,-5.1353903,6.9666866999999995,-1
1147,1148,1580692744717,4.2328997,-3.0897,-2.3386,3.6484473,-4.656732,7.8288484,-1
1148,1149,1580692744727,3.8478,-2.4791,-1.5423,3.7732042999999997,-4.308567,8.1365795,-1
1149,1150,1580692744737,4.0288997,-2.2687,-1.5834,3.8487557999999997,-4.4929304000000005,7.7710422999999995,-1
1150,1151,1580692744747,3.8716,-2.7436,-1.9496,3.5973453999999996,-5.471814,7.6629205,-1
1151,1152,1580692744757,3.2961998,-3.9062997999999998,-1.8719999999999999,2.3105482999999998,-6.882363000000001,7.7658233999999995,-1
1152,1153,1580692744767,1.3948,-5.2874,-1.7213999,-0.29927522,-8.319975999999999,8.352978,-1
1153,1154,1580692744778,-1.6143,-6.565,-0.72319996,-3.4419807999999996,-9.389705000000001,9.455842,-1
1154,1155,1580692744788,-4.657,-7.337999999999999,0.11,-6.1566133,-9.862819,9.852361,-1
1155,1156,1580692744798,-7.1793,-7.5193,0.5505,-8.1502075,-9.985832,10.512815,-1
1156,1157,1580692744808,-8.8914995,-7.6183996,1.2161,-9.487417,-10.373185000000001,10.749141999999999,-1
1157,1158,1580692744818,-9.8658,-7.9097,1.234,-9.844880999999999,-10.539755,10.8268,-1
1158,1159,1580692744828,-10.3201,-8.0,1.5756999,-10.243458,-10.665948,11.581663,-1
1159,1160,1580692744838,-10.8645,-7.933399700000001,2.5661,-10.665133,-10.195986,12.698233,-1
1160,1161,1580692744849,-11.3119,-7.1449,3.7847,-10.731511,-9.307545,13.937444000000001,-1
1161,1162,1580692744859,-11.1431,-6.2391996,4.9955997000000005,-10.284436999999999,-8.576509,14.971872,-1
1162,1163,1580692744869,-10.7891,-5.4086,5.9417995999999995,-10.101521,-7.835839,15.807160999999999,-1
1163,1164,1580692744879,-10.7076,-4.666,6.7085,-10.250028,-7.209803,16.148853,-1
1164,1165,1580692744889,-10.9746,-4.2015,6.7528,-10.641547000000001,-7.049765,15.919688,-1
1165,1166,1580692744899,-11.5118,-4.0305,6.5049996,-11.043475,-6.896546000000001,15.738228,-1
1166,1167,1580692744909,-11.7862,-3.9113998,6.3394,-10.812952000000001,-6.6365447,15.300557999999999,-1
1167,1168,1580692744920,-11.505099000000001,-3.5992,5.8753,-10.485732,-6.198483,15.039054,-1
1168,1169,1580692744930,-11.1139,-3.0823998,5.7033,-9.988811,-5.683806,15.102920999999998,-1
1169,1170,1580692744940,-10.7315,-2.6908998,5.7558,-9.71546,-5.2875559999999995,14.964823,-1
1170,1171,1580692744950,-10.4331,-2.3916,5.5804,-9.427313,-5.1989417,14.878804999999998,-1
1171,1172,1580692744960,-10.136399,-2.3283,5.5197,-9.062456,-5.0877647,14.761479000000001,-1
1172,1173,1580692744970,-9.7308,-2.2673,5.3485,-8.489322999999999,-4.9211089999999995,14.723249,-1
1173,1174,1580692744981,-9.118199,-2.1401,5.361000000000001,-7.5022216,-4.534465,14.928346,-1
1174,1175,1580692744991,-8.058,-1.7571,5.5481,-6.3227706,-3.991843,14.955228,-1
1175,1176,1580692745001,-6.8508,-1.3025,5.4879999999999995,-5.1444693,-3.519649,14.727089000000001,-1
1176,1177,1580692745011,-5.6953998,-0.93289995,5.19,-4.112032,-3.2368072999999997,14.068875,-1
1177,1178,1580692745022,-4.8420997,-0.81839997,4.5853,-3.5680788,-3.132315,13.34617,-1
1178,1179,1580692745032,-3.9103,-0.90999997,3.2039999999999997,-3.227518,-3.1116672000000003,12.750139,-1
1179,1180,1580692745042,-3.8119,-1.1510999,2.8025,-3.1519377,-3.2187933999999996,12.382447,-1
1180,1181,1580692745052,-3.5444,-1.3489,2.5686998,-2.9082656000000005,-3.3028779999999998,12.170973,-1
1181,1182,1580692745062,-3.1838,-1.6013,2.2184,-2.502592,-3.4595735,11.763316,-1
1182,1183,1580692745072,-2.9441,-1.9259,1.8892,-2.2324495,-3.6150818,11.509436,-1
1183,1184,1580692745083,-2.4493,-2.0626,1.7681999,-1.6793984,-3.5898275,11.452855,-1
1184,1185,1580692745093,-1.7698,-2.1331,1.8656,-0.98106724,-3.4935617,11.702791,-1
1185,1186,1580692745103,-1.2578,-2.0474,2.4164,-0.5161325,-3.3068714,12.325954,-1
1186,1187,1580692745113,-1.2578,-2.0474,2.4164,0.084256746,-3.1333492,12.808356,-1
1187,1188,1580692745123,-0.092,-2.0023,3.0906,0.5504460999999999,-3.0636012999999997,12.800274,-1
1188,1189,1580692745133,0.2487,-2.2547,2.8011,0.81941074,-3.1961732000000005,12.5011425,-1
1189,1190,1580692745143,0.5333,-2.4710999,2.4737,1.1125376,-3.2242427000000005,12.158599,-1
1190,1191,1580692745154,0.89309996,-2.5990999,2.0599,1.4531751,-3.2021490000000004,11.763173,-1
1191,1192,1580692745164,1.0677,-2.7024,1.7073,1.472118,-3.1319797,11.443384,-1
1192,1193,1580692745174,0.92359996,-2.8263,1.4649999,1.335093,-3.0772388,11.074332,-1
1193,1194,1580692745184,0.7948,-2.9227998,0.97999996,1.1623371,-3.0438924,10.702321000000001,-1
1194,1195,1580692745194,0.6397,-3.1481,0.5665,1.0076716000000001,-3.0990164,10.279860000000001,-1
1195,1196,1580692745205,0.83989996,-3.1388,-0.1285,1.176798,-2.8419175,9.63241,-1
1196,1197,1580692745215,0.9873,-2.9742,-0.5753,1.4296066,-2.5053693999999997,9.123555999999999,-1
1197,1198,1580692745225,1.6516,-2.6095,-0.9791,2.2037572999999995,-1.7398185000000002,8.674365,-1
1198,1199,1580692745235,2.1411,-2.0274,-1.3295,2.613118,-1.051361,8.249299,-1
1199,1200,1580692745245,2.5909998,-1.5977,-1.9698999,3.150731,-0.41055772,7.438219500000001,-1
1200,1201,1580692745255,3.1931998999999998,-1.1991,-2.8514,3.7158873,0.12120406,6.591821,-1
1201,1202,1580692745266,3.5461998,-0.9923,-3.5237,3.9465062999999994,0.42785344,6.013180999999999,-1
1202,1203,1580692745276,3.5498,-0.98039997,-3.8704998,3.7817469,0.5595536,5.730244,-1
1203,1204,1580692745286,3.2391,-1.1214,-3.9619,3.2873442,0.48562074,5.5253190000000005,-1
1204,1205,1580692745297,2.6253998,-1.3481,-4.2002997,2.6751373,0.4407534000000001,5.2058372,-1
1205,1206,1580692745307,2.1934,-1.4779999,-4.6148,2.4525437,0.62717545,4.816052,-1
1206,1207,1580692745317,2.0521998,-1.3270998999999999,-4.8420997,2.3995168,0.9154278,4.7506900000000005,-1
1207,1208,1580692745327,2.0439,-1.2178,-4.8434,2.4446907,1.1746912,4.531697299999999,-1
1208,1209,1580692745337,2.1725,-1.0328,-5.1193,2.6857867000000004,1.518125,4.276035,-1
1209,1210,1580692745347,2.372,-0.82089996,-5.2483997,2.6943099999999998,1.6693141,4.0767894,-1
1210,1211,1580692745357,2.3499,-0.8656,-5.6138997,2.7006116000000002,1.7207797999999999,3.5337174,-1
1211,1212,1580692745368,2.4229,-0.8731,-6.108,2.7856057,1.8168736,3.2137082,-1
1212,1213,1580692745378,2.5114,-0.8305,-6.4474998,2.8680812999999996,1.9745269,2.7118547000000004,-1
1213,1214,1580692745388,2.5442998,-0.72889996,-6.8479,2.7003817999999997,2.1408665,2.4307275,-1
1214,1215,1580692745398,2.1871,-0.63659996,-7.0842,2.1882045,2.2353609,2.241289,-1
1215,1216,1580692745408,1.8097,-0.6624,-7.1756997,1.8496453000000002,2.280592,2.188693,-1
1216,1217,1580692745419,1.4241999,-0.7022,-7.1899996,1.4907257999999999,2.2062185000000003,1.9022603,-1
1217,1218,1580692745429,1.2542,-0.8181,-7.685,1.5431875,2.1862414,1.2253428999999998,-1
1218,1219,1580692745439,1.4869,-0.86219996,-8.3375,2.0836356,2.1889324,0.6298283,-1
1219,1220,1580692745449,1.9382999,-0.907,-8.737599000000001,2.5625331,2.1671548,0.3391626,-1
1220,1221,1580692745459,2.5667999,-0.94519997,-8.986199000000001,2.977506,2.1553369,0.98155564,-1
1221,1222,1580692745469,2.7168,-0.96309996,-8.0746,2.7603803,2.20189,2.3165913,-1
1222,1223,1580692745479,2.4266999,-0.88449997,-6.7472997,2.4429380000000003,2.170143,3.4970381,-1
1223,1224,1580692745489,2.1864998,-0.90669996,-5.7362,2.5734317000000004,2.1278515,3.7401739999999997,-1
1224,1225,1580692745500,2.3788,-0.9212,-5.6657,2.877936,2.1370645,3.413557,-1
1225,1226,1580692745510,2.8422,-0.88159996,-6.0841,3.4083567,2.1121552,2.7920987999999998,-1
1226,1227,1580692745520,3.1794999,-0.9399,-6.7086997,3.2699242,1.7979113999999998,2.1589377,-1
1227,1228,1580692745530,2.9738,-1.2392,-7.2957997,2.8740764,1.491128,1.7221876,-1
1228,1229,1580692745540,2.6213,-1.5329,-7.727699799999999,2.1642818,1.0552205,1.397237,-1
1229,1230,1580692745551,1.8211,-1.9676,-8.0337,0.9011009,0.4948815,0.9464566999999999,-1
1230,1231,1580692745561,0.51699996,-2.4843,-8.5669,-0.45197737,0.06543832,0.6742071999999999,-1
1231,1232,1580692745571,-0.7046,-2.7984998,-8.6798,-1.3219538,-0.18478449,1.0290853000000002,-1
1232,1233,1580692745581,-1.3658999,-2.9250998,-8.393499,-1.1178241000000002,-0.44505337,1.084832,-1
1233,1234,1580692745591,-1.0258,-3.1457999,-8.3558,-0.36268327,-0.50385493,0.9357785,-1
1234,1235,1580692745601,-0.33499998,-3.0911,-8.5683,-0.38310102,-0.45821187,1.3564972,-1
1235,1236,1580692745611,-0.4044,-2.8960000000000004,-8.1509,-0.4720312,-0.21943338,2.3781223,-1
1236,1237,1580692745622,-0.43469998,-2.4989998,-7.1615,-0.4908209,0.15139973,3.7024126,-1
1237,1238,1580692745632,-0.3964,-1.9668,-5.8905,-0.45861414,0.20412005,4.7035813,-1
1238,1239,1580692745642,0.1015,-2.1081,-4.3599997,-0.07797436,-0.4208719,5.297248000000001,-1
1239,1240,1580692745652,0.1015,-2.1081,-4.3599997,0.32667446,-1.0795552,5.395937,-1
1240,1241,1580692745662,0.4985,-2.5918999,-4.3022,-0.06909666,-1.9008237000000001,4.667955999999999,-1
1241,1242,1580692745673,-0.8189,-4.3729,-5.7542995999999995,-0.9798796999999999,-3.2129421000000002,3.9856083,-1
1242,1243,1580692745682,-0.8189,-4.3729,-5.7542995999999995,-1.8393215,-3.8742685,4.305502400000001,-1
1243,1244,1580692745692,-1.6795,-4.8142,-5.4639,-2.2543325000000003,-3.9567633,6.223756,-1
1244,1245,1580692745702,-1.3995999,-4.450999700000001,0.21499999,-1.6240541000000002,-4.1047244,10.023651,-1
1245,1246,1580692745712,-0.3685,-4.0334997,3.6223,-0.65114623,-4.024902,13.433742,-1
1246,1247,1580692745723,0.1126,-3.6894,5.6597,-0.14441824,-4.112826999999999,15.732404999999998,-1
1247,1248,1580692745733,0.64059997,-3.7284,6.3834995999999995,0.26531586,-4.37752,16.165747,-1
1248,1249,1580692745743,0.5187,-3.1518,5.2407,-0.027102364,-3.9982017999999995,14.710712,-1
1249,1250,1580692745753,0.025999999,-2.9419999999999997,3.8762999,-0.48011404,-4.112961,13.610673,-1
1250,1251,1580692745763,-0.81549996,-3.1302,2.4177,-1.553157,-4.5692477,11.850436,-1
1251,1252,1580692745773,-1.3532,-3.1125,1.7583,-1.9039171000000001,-4.750508,11.553211,-1
1252,1253,1580692745784,-0.7829999999999999,-3.0115,3.3026,-1.2757456,-4.889994000000001,13.451277,-1
1253,1254,1580692745794,-0.29569998,-2.8144,6.2879,-0.91330177,-4.942801,16.463614,-1
1254,1255,1580692745804,-0.525,-2.6719999999999997,8.8694,-1.2187827,-5.087573,18.684916,-1
1255,1256,1580692745814,-0.63229996,-2.6292999,9.7662,-1.316629,-5.2541237,19.175919,-1
1256,1257,1580692745825,-0.95919997,-2.4754999,9.344999000000001,-1.826297,-5.282576000000001,18.388417999999998,-1
1257,1258,1580692745835,-1.3627,-2.406,8.2016,-2.0141175,-5.440354,17.109282,-1
1258,1259,1580692745845,-1.0649998999999999,-2.4831,5.7282,-1.696378,-5.5477576,14.135836,-1
1259,1260,1580692745855,-0.7941,-2.0632,4.3807,-1.1167132,-5.05778,13.793082,-1
1260,1261,1580692745865,0.4912,-1.2024,5.2643,0.33891362,-4.2180184999999994,15.019162,-1
1261,1262,1580692745876,1.714,-0.2616,6.5660996,1.2585743999999999,-3.5189017999999996,16.279642000000003,-1
1262,1263,1580692745886,2.0937,0.34059998,7.9902997000000004,1.187208,-3.3940968999999996,17.384404999999997,-1
1263,1264,1580692745896,1.5749999,0.1732,8.4939995,0.407541,-3.8319294000000004,17.415022,-1
1264,1265,1580692745906,0.489,-0.2259,8.277699,-0.8567603000000001,-4.448053400000001,17.138645,-1
1265,1266,1580692745916,-0.8095,-0.8522,8.0437,-2.4256232000000004,-5.328707700000001,16.547028,-1
1266,1267,1580692745926,-2.0815,-1.4567,7.3167995999999995,-3.3507714,-5.8074427,15.883316,-1
1267,1268,1580692745937,-2.8501,-1.6787,6.595,-3.4866662000000006,-5.7758392999999995,15.056923999999999,-1
1268,1269,1580692745947,-2.0005,-1.2383,5.6650996,-1.9829927999999999,-5.012855,14.097874,-1
1269,1270,1580692745957,-0.70849997,-0.3681,5.1319,-0.7832583000000001,-4.098318,14.042826000000002,-1
1270,1271,1580692745967,0.4143,0.3363,5.3844,-0.083787486,-3.787311,14.306207,-1
1271,1272,1580692745977,0.89019996,0.7109,5.4926,0.27315927,-3.4684227,14.233692000000001,-1
1272,1273,1580692745987,1.078,0.86259997,5.3385997000000005,0.29305990000000004,-3.3944511,13.950267000000002,-1
1273,1274,1580692745998,0.9729,0.97419995,5.0873,0.0086382795,-3.3945087999999997,13.8012705,-1
1274,1275,1580692746008,0.6792,0.90239996,4.9992,-0.35913026,-3.4303163999999997,13.633657000000001,-1
1275,1276,1580692746018,0.3746,0.9539,4.7265997,-0.5045445,-3.3964913,13.180204999999999,-1
1276,1277,1580692746028,0.34129998,0.90779996,4.1296,-0.38588786,-3.452956,12.216146,-1
1277,1278,1580692746038,0.45389998,0.8434,3.2382998,-0.27707618,-3.4205193999999994,11.482381,-1
1278,1279,1580692746049,0.5884,0.85429996,2.2324,-0.02308968,-3.3094474999999997,10.488097,-1
1279,1280,1580692746059,0.76919997,0.91969997,1.5385,0.15123694,-3.1764927000000003,10.066124,-1
1280,1281,1580692746069,0.85499996,0.9801,1.1319,0.057987563,-3.192668,9.744361999999999,-1
1281,1282,1580692746079,0.7044,0.8839,0.68189996,-0.23602998,-3.2583745,9.315859,-1
1282,1283,1580692746089,0.4382,0.8095,0.3759,-0.51927364,-3.3668892,9.258186,-1
1283,1284,1580692746099,0.14199999,0.6679999999999999,0.38,-0.7440126,-3.4956973,9.432512,-1
1284,1285,1580692746110,-0.0346,0.5417,0.5632,-0.91017973,-3.6502093999999996,9.671894,-1
1285,1286,1580692746120,-0.1884,0.36409998,0.7938,-1.0450402,-3.782149,9.774482,-1
1286,1287,1580692746130,-0.33399999999999996,0.2465,0.8235,-1.0187423,-3.7946277000000004,9.474822999999999,-1
1287,1288,1580692746140,-0.2529,0.2066,0.436,-0.6983982,-3.7082927000000003,8.877767,-1
1288,1289,1580692746150,0.0707,0.2866,-0.1902,-0.43539038,-3.5590764999999998,8.563044,-1
1289,1290,1580692746161,0.3283,0.40579998,-0.4728,0.027140671,-3.396692,8.3823,-1
1290,1291,1580692746171,0.7593,0.56949997,-0.5564,0.37550658,-3.0642622000000004,8.615707,-1
1291,1292,1580692746181,1.0611,0.8296,-0.38059998,0.22878033,-3.0831093999999997,8.750463,-1
1292,1293,1580692746191,0.7809,0.7428,-0.2312,-0.26923275,-3.2326605,8.621578,-1
1293,1294,1580692746201,0.4033,0.5999,-0.39429998,-0.44345403,-3.4056847,8.245344000000001,-1
1294,1295,1580692746212,0.2411,0.41709998,-0.7833,-0.8133965,-3.6949046,8.0013075,-1
1295,1296,1580692746221,-0.1311,0.1175,-1.025,-0.9770257999999999,-3.8620004999999997,7.854313,-1
1296,1297,1580692746231,-0.2828,-0.111499995,-1.2075,-0.9073258,-3.9882517,7.904361200000001,-1
1297,1298,1580692746241,-0.2024,-0.1996,-1.0846,-0.6200983,-3.8232144999999997,8.305122,d
1298,1299,1580692746251,0.1321,-0.0081,-0.6263,0.001043872,-3.6612132000000006,8.882057000000001,-1
1299,1300,1580692746261,0.6459,0.1095,-0.156,0.22849302,-3.5292256,9.221574,-1
1300,1301,1580692746271,0.85899997,0.2491,0.17809999,0.05005797,-3.5479198,9.266977,-1
1301,1302,1580692746281,0.68189996,0.23189999,0.22809999,-0.24485022,-3.6852126000000003,9.1448345,-1
1302,1303,1580692746291,0.32799998,0.056199998,0.0519,-0.6805757,-3.9327826,9.011975999999999,-1
1303,1304,1580692746301,-0.1357,-0.218,-0.0462,-1.2317879999999999,-4.1482606,9.0759115,-1
1304,1305,1580692746311,-0.5902,-0.36409998,0.0324,-1.4568622,-4.2634892,9.154306,-1
1305,1306,1580692746321,-0.8179,-0.4994,0.1017,-1.3260143,-4.2159595,9.205581,-1
1306,1307,1580692746332,-0.6816,-0.42929998,0.1709,-0.8823878,-4.005921,9.417266999999999,-1
1307,1308,1580692746342,-0.2421,-0.22209999,0.37719998,-0.38263175,-3.7152362,9.719387,-1
1308,1309,1580692746352,0.2571,0.081999995,0.6813,-0.051025227,-3.4705966,10.00354,-1
1309,1310,1580692746362,0.6106,0.33449998,0.9745,-0.034917038,-3.4529178,10.011805,-1
1310,1311,1580692746372,0.3733,0.22999999,0.8441,-0.26064235,-3.5447303999999997,9.886109,-1
1311,1312,1580692746383,-0.0717,0.0736,0.70269996,-0.7049390999999999,-3.6990513999999997,9.746096000000001,-1
1312,1313,1580692746393,-0.0717,0.0736,0.70269996,-1.0143563,-3.8781567000000003,9.56109,-1
1313,1314,1580692746403,-0.5363,-0.2226,0.4973,-1.1649802,-3.9715304,9.552434,-1
1314,1315,1580692746413,-0.4488,-0.1357,0.6888,-1.0747668,-3.8699398,9.748260499999999,-1
1315,1316,1580692746423,0.060099997,0.0973,0.89949995,-0.44796473,-3.5784792999999997,9.989988,-1
1316,1317,1580692746433,0.51989996,0.3091,1.0703,-0.06404011,-3.3773663000000003,10.163903,-1
1317,1318,1580692746444,0.51989996,0.3091,1.0703,-0.012306198,-3.3356112999999996,10.161481,-1
1318,1319,1580692746453,0.49089998,0.25149998,1.0099,-0.1960085,-3.4795797,10.123077,-1
1319,1320,1580692746463,0.1161,0.0016999998999999999,1.2293999,-0.59374285,-3.7106103999999998,10.382800999999999,-1
1320,1321,1580692746473,-0.32349998,-0.2503,1.4966999,-1.0339121,-3.945453,10.618716000000001,-1
