,Seq,Time,ACCx,ACCy,ACCz,ADGx,ADGy,ADGz,Keydown
0,1,1583237919502,3.6030998,0.0931,0.5003,9.674691000000001,-0.8231936,6.486381,-1
1,2,1583237919512,2.6638,-0.33299999999999996,-0.3633,1.1226987,9.194846,2.794206,-1
2,3,1583237919523,-0.018199998999999998,-0.15789999,-0.048499997999999996,0.8181944999999999,9.2545185,2.86313,-1
3,4,1583237919533,-0.2461,-0.0752,0.0025,0.7660679,9.250237,2.7589726000000003,-1
4,5,1583237919543,-0.28309998,-0.0919,-0.081,0.65182614,9.119226,2.7348773,-1
5,6,1583237919553,-0.3674,-0.2262,-0.096599996,0.5911093000000001,9.150141,2.8104767999999996,-1
6,7,1583237919563,-0.40899998,-0.2022,-0.0098,0.7017118,9.2153015,2.9849086,-1
7,8,1583237919573,-0.2641,-0.1354,0.15349999,0.9308082000000001,9.2221,3.153317,-1
8,9,1583237919583,-0.0167,-0.1331,0.31509998,1.2385875,9.334341,3.0509026,-1
9,10,1583237919593,0.299,-0.0104,0.1871,1.4228549,9.369258,3.164828,-1
10,11,1583237919604,0.48549998,0.0358,0.28149998,1.6225983999999998,9.487397,3.1348529999999997,-1
11,12,1583237919614,0.5258,-0.0223,0.2007,1.5305653000000001,9.242844999999999,3.1230062999999997,-1
12,13,1583237919624,0.5258,-0.0223,0.2007,1.2597332,9.100351,3.2620327000000002,-1
13,14,1583237919634,0.11199999599999999,-0.19919999,0.32639998,0.89618796,9.048272,3.4177134,-1
14,15,1583237919644,-0.3075,-0.22989999,0.4077,0.77697587,9.14132,3.3502927000000002,-1
15,16,1583237919655,-0.39909998,-0.053799997999999995,0.0251,0.79147524,9.190785,3.073676,-1
16,17,1583237919665,-0.3746,-0.10349999,-0.29600000000000004,0.77149796,9.165235000000001,2.6838713,-1
17,18,1583237919675,-0.48029998,-0.039,-0.5656,0.6328161999999999,9.235125,2.45262,-1
18,19,1583237919685,-0.48029998,-0.039,-0.5656,0.59885687,9.255945,2.3785627000000003,-1
19,20,1583237919695,-0.42209998,0.1183,-0.7098,0.6767163,9.444896,2.2762729999999998,-1
20,21,1583237919706,-0.2003,0.26909998,-0.5215,0.9091549999999999,9.629650999999999,2.4685943,-1
21,22,1583237919716,0.18699999,0.41709998,-0.1564,1.2920452,9.771638000000001,2.775416,-1
22,23,1583237919726,0.41,0.55189997,0.1165,1.4578198,9.961306,3.0367575,-1
23,24,1583237919736,0.41,0.55189997,0.1165,1.3493912000000001,9.977433,3.1272488,-1
24,25,1583237919747,0.034399997,0.4877,0.4028,0.91426903,9.745436,3.2812247,-1
25,26,1583237919757,-0.2954,0.26049998,0.7924,0.52076757,9.549647,3.7312198,-1
26,27,1583237919767,-0.7018,0.092599995,0.75509995,0.024966735,9.31874,3.4457638,-1
27,28,1583237919777,-1.3256999,-0.2216,0.64199996,-0.75110894,9.088256,3.6620559999999998,-1
28,29,1583237919787,-1.8449,-0.23789999,1.0911,-1.1232253,9.172196000000001,4.2051663,-1
29,30,1583237919798,-1.8721,-0.0545,1.5403,-1.0928094,9.328384,4.5788727,-1
30,31,1583237919808,-1.6679,0.0716,1.7325,-0.9811343000000001,9.425263000000001,4.744724,-1
31,32,1583237919818,-1.5162,0.1393,1.7889999,-0.8950674999999999,9.49868,4.7576237,-1
32,33,1583237919828,-1.5098,0.1576,1.574,-1.0570114,9.422429,4.55992,-1
33,34,1583237919839,-1.6721,-0.0396,1.4080000000000001,-1.3282839,9.148341,4.5000553,-1
34,35,1583237919849,-2.0471,-0.3428,1.4621998999999999,-2.0603926,8.678205499999999,4.864108,-1
35,36,1583237919859,-2.6218998,-0.7984,1.956,-2.796552,8.120136,5.6715193,-1
36,37,1583237919869,-3.2891,-1.3553,2.8659,-3.6501233999999996,7.577169400000001,6.828943300000001,-1
37,38,1583237919879,-4.0113997,-1.8652999,3.8876,-4.448608999999999,7.005377,7.6304355,-1
38,39,1583237919891,-4.552,-2.4462,4.338,-4.8890367,6.342269,7.846048,-1
39,40,1583237919901,-4.6977997,-3.0266,4.2037997,-5.05438,5.792225,7.747799400000001,-1
40,41,1583237919911,-4.5327,-3.4872,3.7884998,-5.0944970000000005,5.066389,6.812834700000001,-1
41,42,1583237919921,-4.3216,-4.033,2.6976,-5.587281,4.2852855000000005,6.1161127,-1
42,43,1583237919931,-4.7992,-4.8096,2.0778,-6.3291297,3.4550247000000005,5.8143187,-1
43,44,1583237919942,-5.5351,-5.6587996,1.8571,-7.173881,2.5396638,5.9013433,-1
44,45,1583237919951,-6.2900996,-6.5667995999999995,1.9779999,-7.684027,1.7761049,5.966475,-1
45,46,1583237919961,-6.8257,-7.546,2.0128,-8.065798,0.7518272,5.821884,-1
46,47,1583237919971,-7.0002,-8.363999,1.8093,-7.905893300000001,-0.15382268,5.3379970000000005,-1
47,48,1583237919981,-6.7806997,-9.2485,1.4101,-7.250045,-0.91058195,4.995808,-1
48,49,1583237919992,-6.0253997,-9.984,0.9227,-6.165088,-1.608214,3.9777267,-1
49,50,1583237920002,-5.0007,-10.698,-0.1321,-5.163709,-2.02945,3.1254387,-1
50,51,1583237920012,-3.7702,-11.1591,-0.95049995,-3.1857057,-2.3066218,2.3346242999999998,-1
51,52,1583237920022,-2.1854,-11.3685,-1.5202,-1.7565396,-2.3253157000000004,2.0489962,-1
52,53,1583237920033,-0.5629,-11.3258,-1.67,0.42412806,-2.2352076000000003,1.3687364,-1
53,54,1583237920043,0.94869995,-11.3833,-2.5168,1.1900043,-2.7157428,0.38619432,-1
54,55,1583237920053,1.2629,-11.920799,-3.4571998,1.14824,-3.2861855,-0.44863509999999995,-1
55,56,1583237920063,1.0354999,-12.4571,-4.2867,1.4931008999999997,-3.6266506,-1.0120865,-1
56,57,1583237920074,1.3426,-12.716499,-4.8598,3.082439,-3.8090696000000004,-2.1904932999999995,-1
57,58,1583237920084,3.7795,-12.6904,-5.6864,5.083283,-3.5741026,-1.6544412,-1
58,59,1583237920094,3.7795,-12.6904,-5.6864,7.329025,-2.8054395,-0.5262934,-1
59,60,1583237920105,6.1739999999999995,-11.730599,-4.3824,10.272675999999999,-1.9275240000000002,0.24009055,-1
60,61,1583237920115,8.7836,-10.7702,-3.7278998,12.380475,-1.3546681,0.2427912,-1
61,62,1583237920125,11.2444,-9.4223995,-4.8327,13.393098,-0.77469665,-0.7930362,-1
62,63,1583237920135,10.9899,-9.1591,-5.7377996,13.182198000000001,-0.69209665,-1.4362049,-1
63,64,1583237920145,10.3588,-8.781199,-6.3271,12.703489999999999,-0.47202167,-1.6769276000000002,-1
64,65,1583237920156,10.3588,-8.781199,-6.3271,12.371758999999999,-0.12626062,-1.5345109,-1
65,66,1583237920166,10.356999,-7.0832996,-6.0197,13.373772,0.9479985000000001,-0.5781135000000001,-1
66,67,1583237920176,10.356999,-7.0832996,-6.0197,14.852545000000001,1.7741417000000002,0.49781197,-1
67,68,1583237920187,13.032499000000001,-5.2275,-4.6033,16.332736999999998,2.1485757999999997,1.3167918,-1
68,69,1583237920197,14.122998999999998,-4.607599700000001,-5.0392,17.538946,2.5698214,0.73893684,-1
69,70,1583237920207,14.122998999999998,-4.607599700000001,-5.0392,17.981768,2.9795072,0.472625,-1
70,71,1583237920217,15.5252,-2.8325999,-5.6717,19.30173,3.762373,1.5161331,-1
71,72,1583237920228,16.8799,-1.8898,-4.7039,20.882935999999997,4.2773085,2.9843627999999995,-1
72,73,1583237920238,18.401,-1.0931,-3.3084,22.150406,4.6356535,4.620512000000001,-1
73,74,1583237920248,18.8416,-0.65819997,-2.2268999,21.90545,4.4389935,5.715917,-1
74,75,1583237920258,17.5469,-0.6434,-1.5798999,20.23064,4.1270676,6.813841,-1
75,76,1583237920268,16.055999999999997,-0.2258,-0.0764,19.335497,4.318565400000001,9.047746,-1
76,77,1583237920278,16.469099,0.57949996,2.3885,20.610992,4.868456,11.694947,-1
77,78,1583237920289,18.5549,1.8837999,4.6615,23.847792000000002,6.324906299999999,14.35389,-1
78,79,1583237920298,21.445099,3.6617,6.5155997,26.316259999999996,7.3883529999999995,15.663528,-1
79,80,1583237920308,23.8464,5.2706,7.5811,28.147125,8.499886,16.234344,-1
80,81,1583237920318,24.6225,6.2837996,7.3427997000000005,28.481415000000002,8.805855000000001,15.920445,-1
81,82,1583237920328,23.8757,6.3540998,7.4266,27.224411,8.445001,16.403624,-1
82,83,1583237920338,21.815699,6.0464,8.3832,25.126516,7.692388,17.554392,-1
83,84,1583237920348,19.7388,5.1528,9.894,22.839018,6.059351,20.104485,-1
84,85,1583237920358,17.5295,3.8657,12.7596,21.276562,5.1872487000000005,22.544501999999998,-1
85,86,1583237920368,15.4563,3.3446998999999997,15.7432995,19.500629999999997,4.820437999999999,25.124187,-1
86,87,1583237920378,13.7576,3.2207,17.7673,18.158860999999998,4.733471,26.511618,-1
87,88,1583237920388,12.203,3.2865,18.3795,16.787338000000002,4.8527308,26.402164000000003,-1
88,89,1583237920398,10.791699000000001,3.2958998999999998,17.6835,15.676035,4.8704767,25.293324,-1
89,90,1583237920408,9.6461,3.1324,16.5777,14.787604,4.749943,24.09538,-1
90,91,1583237920419,8.7619,2.6246,15.7534,14.199732999999998,4.277299,23.310112,-1
91,92,1583237920429,7.9656,1.8822,15.5309,13.101291999999999,3.638612,23.191463,-1
92,93,1583237920439,6.581,1.1353999,15.8213,11.608611999999999,3.0801787,23.480729999999998,-1
93,94,1583237920449,5.0389,0.3145,16.2542,10.429535000000001,2.5502653,23.58168,-1
94,95,1583237920459,3.9001,-0.37359998,16.3198,9.349549,2.2520723,23.144672,-1
95,96,1583237920470,2.6964,-0.9295,15.890999999999998,8.342165,1.9370528000000002,22.288572,-1
96,97,1583237920480,1.7529999,-1.6840000000000002,15.1249,7.4167295,1.3330723999999998,21.21465,-1
97,98,1583237920490,1.0291,-2.4947999,14.4546995,6.826865,0.9185499,20.49567,-1
98,99,1583237920500,0.19209999,-3.4166,13.743,5.819222,0.2704969,19.483622,-1
99,100,1583237920511,-0.8326,-4.4051,12.789000000000001,4.7575755,-0.23416251,18.029851999999998,-1
100,101,1583237920522,-1.8036,-5.1475,11.4052,3.5569887000000002,-0.70880824,16.007555,-1
101,102,1583237920532,-2.7014,-5.8619,9.849999,2.4510305,-0.96606994,14.354666,-1
102,103,1583237920543,-3.6883,-6.416,8.4373,1.6186624,-1.1562365,13.12464,-1
103,104,1583237920553,-4.273,-6.9336996,7.4550996,1.1081994,-1.4066988,12.368025,-1
104,105,1583237920563,-4.601,-7.4736,6.9393,0.5253262,-1.5508107,11.833075,-1
105,106,1583237920573,-5.0483,-7.8911996,6.5411997,-0.13090536,-1.5691597,11.170617,-1
106,107,1583237920583,-5.4698997,-8.1489,5.9891,-0.4496215,-1.4808233999999998,9.978707,-1
107,108,1583237920594,-5.3905,-8.462299,5.1991,-0.46511679999999994,-1.3459531,8.861496,-1
108,109,1583237920604,-5.3059998,-8.465199,4.1927,-0.72077924,-1.2083343999999998,7.6118570000000005,-1
109,110,1583237920614,-5.4305,-8.513599000000001,3.0676,-1.0566283,-1.2767607,6.210971400000001,-1
110,111,1583237920624,-5.5841,-8.775499,1.8161999,-1.4280647,-1.2353411,4.868369599999999,-1
111,112,1583237920634,-5.773,-8.916699000000001,0.61109996,-1.6031479,-0.9085708,3.9395633,-1
112,113,1583237920644,-5.3905,-8.5489,-0.57089996,-1.3694258999999998,-0.50597143,3.4539517999999996,-1
113,114,1583237920655,-5.3905,-8.5489,-0.57089996,-1.2550693000000002,-0.15390886,3.3180282,-1
114,115,1583237920665,-5.0653996,-8.2414,-0.7026,-1.0147585,0.39865375,3.0801404,-1
115,116,1583237920675,-4.665499700000001,-7.8036,-0.8756,-0.52795017,0.92020667,2.5834968,-1
116,117,1583237920686,-4.0469,-7.3781996,-1.3038,-0.1224299,1.1374757,1.7734331,-1
117,118,1583237920696,-3.3532998999999997,-7.0347,-2.9959998,-0.06368577,1.5938106,0.28269777,-1
118,119,1583237920706,-3.2881,-6.8009996,-3.8142,-0.16716316,1.8298308999999997,-0.48310202,-1
119,120,1583237920716,-3.2981,-6.6548,-4.1839,-0.21054609,2.04031,-0.68007773,-1
120,121,1583237920726,-2.9047,-6.1236997,-4.0903997,0.23070528,2.7137222000000003,-0.6403149,-1
121,122,1583237920736,-2.9047,-6.1236997,-4.0903997,0.75583035,3.1432517000000004,-0.6384474,-1
122,123,1583237920746,-1.5098,-5.229,-3.9108,1.4845487,3.6820904999999997,-0.50640243,-1
123,124,1583237920756,-1.1606,-4.745199700000001,-3.6455998,1.6454678,4.1798263,-0.28935364,-1
124,125,1583237920766,-1.1596999,-4.4276,-3.5616999,1.5419041999999998,4.479858,-0.3244718,-1
125,126,1583237920777,-1.1571,-4.1991,-3.702,1.5729905,4.80635,-0.6118526,-1
126,127,1583237920787,-0.94009995,-3.9217,-3.9283997999999998,1.7650821,5.032822599999999,-0.8260666999999999,-1
127,128,1583237920797,-0.66569996,-3.6524,-4.0889997000000005,2.0389023,5.4697356,-1.1168376,-1
128,129,1583237920807,-0.3996,-3.2424,-4.2599,2.3096673,5.9001269999999995,-1.3250948,-1
129,130,1583237920817,-0.1585,-2.8665,-4.351,2.4455335,6.1925360000000005,-1.4638245,-1
130,131,1583237920828,-0.0578,-2.5140998,-4.4663,2.5939739,6.718925,-1.6674657,-1
131,132,1583237920838,0.26479998,-1.9483999,-4.5804996,3.0202663,7.333593400000001,-1.7788918000000002,-1
132,133,1583237920848,0.7798,-1.4343,-4.5769997,3.4992212999999994,7.752588,-1.652478,-1
133,134,1583237920858,1.0683,-1.1008999,-4.1689,3.6022870000000005,8.090563000000001,-1.0834624,-1
134,135,1583237920868,0.9655,-0.7643,-3.5751998,3.44472,8.444799,-0.35250312,-1
135,136,1583237920879,0.8337,-0.5157,-2.9635,3.2828336000000005,8.553362,0.08220731,-1
136,137,1583237920889,0.5239,-0.41579998,-2.6195998,2.9345253,8.66452,0.40389225,-1
137,138,1583237920899,0.2794,-0.2694,-2.2647998,2.7885362999999996,8.761783,0.79556453,d
138,139,1583237920909,0.3032,-0.31129998,-2.0358999,2.9082272000000002,8.66452,0.84235674,-1
139,140,1583237920919,0.3608,-0.41279998,-2.0643,2.9047318,8.638012,0.7690272,-1
140,141,1583237920930,0.38639998,-0.30679998,-1.9971,3.0721822,8.908758,0.9656389999999999,-1
141,142,1583237920940,0.5579,-0.03,-1.7748,3.209686,9.121976,1.2103549999999998,-1
142,143,1583237920950,0.6041,0.10349999,-1.5084,3.1303517999999997,9.118986999999999,1.4763126,-1
143,144,1583237920960,0.43719998,0.1025,-1.1445999,3.0162442000000005,9.153119,2.0059867,-1
144,145,1583237920970,0.4271,0.1906,-0.6658,3.1750562,9.249797000000001,2.6728772999999997,-1
145,146,1583237920980,0.5897,0.2385,-0.121199995,3.2522357000000004,9.232797999999999,3.0083718,-1
146,147,1583237920991,0.6502,0.23439999,0.1715,3.3456957000000003,9.2740555,3.0253804,-1
147,148,1583237921001,0.6781,0.2654,0.038599997999999996,3.3231807,9.280356,2.6841204,-1
148,149,1583237921011,0.6265,0.2737,-0.2593,3.2321147999999997,9.262764,2.3187267999999994,-1
149,150,1583237921021,0.419,0.26029998,-0.6986,2.985895,9.2085495,1.8686744,-1
150,151,1583237921031,0.155,0.1487,-1.0508,2.729993,9.1054945,1.7232411,-1
151,152,1583237921041,-0.16499999,0.0289,-0.9596,2.4777787,8.992486999999999,2.1554708,-1
152,153,1583237921052,-0.2888,-0.0196,-0.52349997,2.5881990000000004,9.023899,2.4363396,-1
153,154,1583237921062,-0.1406,0.0126,-0.2789,2.7738549999999997,9.04268,2.5838513,-1
154,155,1583237921072,0.0045,0.026899998999999997,-0.1344,2.8674204,9.034549,2.6996636,-1
155,156,1583237921082,0.0699,0.0321,-0.0106,3.0032099999999997,9.07955,2.7366397,-1
156,157,1583237921092,0.1926,0.1064,-0.0431,3.118553,9.168902000000001,2.6139896,-1
157,158,1583237921102,0.2755,0.1999,-0.10300000000000001,3.2311285,9.265284,2.6631758,-1
158,159,1583237921113,0.3584,0.2927,-0.0423,3.3795786,9.325617,2.636313,-1
159,160,1583237921123,0.4721,0.3547,-0.066599995,3.4905162000000005,9.371393,2.6064525,-1
160,161,1583237921133,0.56949997,0.3955,-0.0793,3.4938488,9.356885,2.5985131,-1
161,162,1583237921143,0.5251,0.38599998,-0.0736,3.3248279999999997,9.284121,2.5148215,-1
162,163,1583237921153,0.3111,0.2677,-0.15089999,2.9530084,9.115444,2.4200304,-1
163,164,1583237921164,-0.014699998999999998,0.1299,-0.2251,2.4144664000000002,8.860605,2.6366767999999996,-1
164,165,1583237921173,-0.5431,-0.1147,-0.0122,2.0390937,8.682851,2.9277064999999998,-1
165,166,1583237921183,-0.9741,-0.3375,0.3311,1.9978943,8.690301,3.2418256000000003,-1
166,167,1583237921194,-0.9702,-0.2853,0.5819,2.4414917999999997,8.919971,3.2222602000000005,-1
167,168,1583237921204,-0.5445,-0.0444,0.561,2.9684174,9.094049,3.0948985,-1
168,169,1583237921214,-0.0464,0.1282,0.4375,3.3337152000000003,9.13455,2.8984107999999997,-1
169,170,1583237921224,0.47849998,0.2857,0.0503,3.5293117,9.248045,2.6684432,-1
170,171,1583237921235,0.47849998,0.2857,0.0503,3.3020637,9.096923,2.6285844,-1
171,172,1583237921245,0.22809999,0.1426,-0.0143,2.8532946,8.698719,2.780942,-1
172,173,1583237921255,-0.22299999,-0.24579999,0.14119999,2.4766482999999995,8.458781,3.2339919,-1
173,174,1583237921265,-0.6189,-0.508,0.73429996,2.5217167999999996,8.413013000000001,3.4041525999999998,-1
174,175,1583237921276,-0.3936,-0.5092,0.7876,2.771413,8.412105,3.4627051,-1
175,176,1583237921285,-0.28079998,-0.51989996,0.7277,2.8645283999999998,8.408014,3.3449297,-1
176,177,1583237921295,-0.26839998,-0.4134,0.47619998,2.9220946,8.508513,3.0619924,-1
177,178,1583237921305,-0.26839998,-0.4134,0.47619998,3.0392954,8.521922,2.8222563,-1
178,179,1583237921315,-0.0744,-0.4759,-0.052899998,3.1776516,8.400736,2.5382848,-1
179,180,1583237921325,0.15529999,-0.3604,-0.2708,3.5251843999999997,8.5688095,2.330765,-1
180,181,1583237921336,0.5104,-0.12719999,-0.3385,3.8740292000000003,8.763775,2.2289537999999998,-1
181,182,1583237921346,0.5104,-0.12719999,-0.3385,3.9435279999999997,8.802014,1.9598839,-1
182,183,1583237921356,0.3868,-0.0462,-0.9051,3.70451,8.82542,1.6036745000000001,-1
183,184,1583237921366,0.1555,0.0081,-1.1452,3.5063946,8.852378999999999,1.3505979,-1
184,185,1583237921376,-0.0436,-0.082899995,-1.2272999,3.357504,8.754178999999999,1.3571006,-1
185,186,1583237921387,-0.0468,-0.07369999599999999,-1.1012,3.4263036000000002,8.764033,1.4768682,-1
186,187,1583237921397,0.1531,-0.0131,-0.88119996,3.693851,8.839843,1.7260567,-1
187,188,1583237921407,0.5456,0.12719999,-0.68009996,4.1379757,8.988484,1.8963131000000002,-1
188,189,1583237921417,1.0048,0.4046,-0.6319,4.7038593,9.287232000000001,1.8773031000000002,-1
189,190,1583237921427,1.2597,0.5725,-0.7761,4.796812,9.353447000000001,1.6939936000000002,-1
190,191,1583237921437,1.0986999,0.5415,-0.9774,4.574553,9.321958,1.5654344999999998,-1
191,192,1583237921448,0.8548,0.5184,-0.9145,4.401921700000001,9.278758,1.6427001,-1
192,193,1583237921458,0.67249995,0.4657,-0.81549996,4.2684307,9.227158,1.7952778000000003,-1
193,194,1583237921468,0.6085,0.4727,-0.5437,4.205061,9.228211,2.1860687999999997,-1
194,195,1583237921478,0.5538,0.42209998,-0.0401,4.213201000000001,9.132749,2.7046626,-1
195,196,1583237921488,0.5282,0.3523,0.3154,4.173831,9.092967999999999,2.928511,-1
196,197,1583237921498,0.5212,0.43899998,0.3013,4.312254,9.247441,2.7439563,-1
197,198,1583237921509,0.6805,0.55439997,0.114199996,4.4716024,9.306971,2.6017408,-1
198,199,1583237921519,0.8897,0.62009996,-0.061899997000000005,4.703782599999999,9.388910000000001,2.3818667000000002,-1
199,200,1583237921529,1.0327,0.70449996,-0.24849999,4.7545013,9.427514,2.2430797,-1
200,201,1583237921539,0.9737,0.6702,-0.2997,4.5842543,9.280845,2.3805162999999996,d
201,202,1583237921550,0.7614,0.50729996,-0.0777,4.351327400000001,9.117771000000001,2.66082,-1
202,203,1583237921560,0.52099997,0.3534,0.1937,4.1689467,9.019101,2.9103722999999997,-1
203,204,1583237921570,0.36789998,0.28800000000000003,0.4464,4.080380399999999,8.945446,3.1729207,-1
204,205,1583237921580,0.3302,0.2332,0.6507,4.120699,8.962119,3.2227007999999997,-1
205,206,1583237921590,0.3786,0.32639998,0.6297,4.214953400000001,9.16215,3.2129133,-1
206,207,1583237921600,0.49429998,0.53819996,0.7058,4.3543444000000004,9.359949,3.4231815,-1
207,208,1583237921610,0.552,0.7206,0.9176,4.291462999999999,9.503727,3.4790623,-1
208,209,1583237921620,0.5051,0.8817,0.7676,4.2883596,9.56339,3.1231593999999996,-1
209,210,1583237921630,0.5105,0.9036,0.3742,4.477071,9.651055,2.7692582999999997,-1
210,211,1583237921640,0.7819,1.0424,0.0502,4.741496,9.794871,2.4600232,-1
211,212,1583237921650,1.016,1.1709,-0.1766,4.866924,9.975173,2.5002169999999997,-1
212,213,1583237921660,1.0469998999999999,1.4171,0.0233,4.8209167,10.259001,2.8914583,-1
213,214,1583237921671,0.97239995,1.7226,0.513,4.685232599999999,10.609876,3.5477279999999998,-1
214,215,1583237921681,0.8498,1.9984,1.0409,4.5028806,11.079369999999999,4.06116,-1
215,216,1583237921691,0.70669997,2.5377998,1.5547,4.6723614,11.660528,4.6823883,-1
216,217,1583237921701,0.9518,3.0955,2.1673,5.336925,12.103235,5.1058645,-1
217,218,1583237921711,1.7695999,3.5142998999999997,2.5386,6.631,12.604992999999999,5.145331,-1
218,219,1583237921721,3.1132,4.0385,2.5709999,8.056719000000001,13.289351000000002,5.042600599999999,-1
219,220,1583237921731,4.4688,4.7553997,2.4945,8.893482,14.081565,4.873416400000001,-1
220,221,1583237921741,5.1284,5.5364,2.3507,8.937574,14.846357999999999,4.722256,-1
221,222,1583237921751,5.1229,6.2377996,2.302,8.893127999999999,15.119517000000002,4.9048386,-1
222,223,1583237921761,5.1619997,6.3143997,2.5495,9.063471,14.462434,5.2579255,-1
223,224,1583237921771,5.370199700000001,5.5162,2.9942,9.004362,13.562270999999999,5.857424,-1
224,225,1583237921781,5.2886,4.5441,3.6906998,8.512709,12.530006,6.5457764,-1
225,226,1583237921792,4.8192997,3.4371,4.3981,7.834489,11.497233999999999,6.9667244,-1
226,227,1583237921802,4.2349,2.3917,4.8354,7.331036,10.665623,7.1402273,-1
227,228,1583237921812,3.8950998999999995,1.5274,5.0534,7.1697817,9.840093,6.988253599999999,-1
228,229,1583237921822,3.8859,0.6207,4.9129,6.883876,8.917061,6.3814764,-1
229,230,1583237921832,3.6225,-0.4062,4.3697,6.2021985,7.9836282999999995,5.599291,-1
230,231,1583237921842,3.0393,-1.3852,3.6499,5.492001999999999,7.025353999999999,4.654059999999999,-1
231,232,1583237921853,2.4887,-2.4313998,2.7932,4.717822,6.0030107,3.4918475,-1
232,233,1583237921863,1.8312,-3.4944,1.7184,3.5314093,4.9009404000000005,2.32748,-1
233,234,1583237921873,0.9859,-4.4659,0.8594,2.6931322,4.27705,1.8214703999999997,-1
234,235,1583237921883,0.0962,-5.3157997,0.3258,1.3625401000000001,3.3189572999999997,1.5319635,-1
235,236,1583237921893,-0.8420000000000001,-6.1615,0.20189999,0.7190363000000001,2.8451831000000003,1.543312,-1
236,237,1583237921903,-1.4983,-6.8072996,0.3074,-0.44638455,2.0731297,1.5102625,-1
237,238,1583237921914,-2.2963998,-7.4979997,0.33969998,-1.2390378,1.5089408000000002,0.91487235,-1
238,239,1583237921924,-2.9341,-8.0963,-0.1721,-1.8157625,1.1280233,-0.13192052,-1
239,240,1583237921934,-3.3648998999999997,-8.5133,-1.104,-2.4140349999999997,0.76805985,-1.4256705,-1
240,241,1583237921945,-3.8356,-8.895599,-2.3169999999999997,-3.1626543999999996,0.4325748,-2.5863411,-1
241,242,1583237921954,-4.4543,-9.2628,-3.4154,-3.8724008000000003,0.26510516,-3.5502467,-1
242,243,1583237921964,-5.0464997,-9.4487,-4.3203998,-4.540441,0.08912177,-4.2632685,-1
243,244,1583237921974,-5.6131,-9.640699,-4.9881,-5.0009513,-0.15848657,-4.793182,-1
244,245,1583237921984,-6.3083,-10.2026,-6.0277,-5.485547,-0.5413099,-5.4178677,-1
245,246,1583237921994,-6.3083,-10.2026,-6.0277,-5.9877839999999996,-0.76334816,-5.563895,-1
246,247,1583237922004,-6.848799700000001,-10.5048,-6.1526,-6.8124137000000005,-1.0769407,-5.8658514,-1
247,248,1583237922015,-8.2301,-11.053699499999999,-6.4336996,-7.5132537,-1.307847,-5.8153915000000005,-1
248,249,1583237922025,-8.2301,-11.053699499999999,-6.4336996,-7.731030499999999,-1.4805839,-6.1529355,-1
249,250,1583237922035,-8.6928,-11.6188,-7.0948,-7.9183054,-1.9472903999999998,-6.52917,-1
250,251,1583237922045,-8.8316,-11.9241,-7.1523,-7.9645324,-2.2270675,-6.548362,-1
251,252,1583237922056,-8.6949,-12.0962,-7.4249997,-7.6645384000000005,-2.4207582000000003,-6.686775,-1
252,253,1583237922066,-8.3216,-12.389299000000001,-7.3178,-7.165883999999999,-2.7590682999999996,-6.390546,-1
253,254,1583237922076,-7.7198,-12.5477,-7.0769997,-6.31554,-2.8630917,-6.014809,-1
254,255,1583237922086,-6.7795,-12.4923,-6.7335997,-5.149296,-2.9111865000000003,-5.338399400000001,-1
255,256,1583237922097,-6.3185997,-12.7619,-6.0737,-4.6628704,-3.4048612,-4.5136449999999995,-1
256,257,1583237922107,-6.2249,-13.3158,-5.6703997,-4.4800973,-3.8905585,-4.1847196,-1
257,258,1583237922117,-6.3136997,-13.729099,-5.4923997,-4.363126,-4.458904,-3.8677754,-1
258,259,1583237922127,-6.331,-14.2331,-5.5961,-4.0973125,-4.974864,-3.7707527,-1
259,260,1583237922137,-6.1211,-14.8516,-5.4709,-3.6452296000000004,-5.8711953,-3.0821707000000003,-1
260,261,1583237922148,-6.2219,-15.422899,-4.5972,-3.5009932999999998,-6.451425,-1.6348183,-1
261,262,1583237922158,-6.1643,-15.678498999999999,-3.1424,-2.9511697,-6.8582387,0.1894484,-1
262,263,1583237922168,-5.4414997000000005,-15.8517,-1.5999999,-1.7036468999999996,-7.191453999999999,2.1035168,-1
263,264,1583237922179,-4.4136,-15.842298999999999,-0.243,0.19995415,-7.3737106,3.727839,-1
264,265,1583237922189,-2.8888,-15.5878,0.4831,1.8710878,-7.110147,4.231493,-1
265,266,1583237922199,-0.8603,-14.686298999999998,0.6523,4.965669999999999,-6.250657,4.689456,-1
266,267,1583237922209,1.3555,-13.575999,0.8153,7.199211599999999,-5.5769095,5.4053793,-1
267,268,1583237922219,2.9575,-12.643599499999999,1.3913,9.255543,-5.3193417,6.3603115,-1
268,269,1583237922230,5.1052,-12.139899,2.148,12.488760000000001,-5.4931893,7.7636204,-1
269,270,1583237922241,8.2878,-11.9429,3.5830998,15.703167,-5.9511614,10.265417999999999,-1
270,271,1583237922251,10.6269,-11.8313,6.3964996,17.120161,-6.1836677,15.309856,-1
271,272,1583237922261,10.9836,-11.2617,10.5661,17.288157,-4.9743085,19.40285,-1
272,273,1583237922271,11.1795,-9.0567,14.0348,19.169338,-2.4526873,21.866234,-1
273,274,1583237922281,13.190999999999999,-5.8764,16.0481,21.595049,-0.4031357,23.110281,-1
274,275,1583237922292,15.4283,-3.3488998,16.7871,23.532991,1.303844,22.37687,-1
275,276,1583237922301,16.9051,-1.2659,15.434299,23.792534,2.1637743,19.539242,-1
276,277,1583237922311,16.8209,-0.0925,12.210199000000001,22.479246,2.0824575000000003,17.133884,-1
277,278,1583237922321,15.2406,0.1037,10.2583,20.365242000000002,1.5081076999999998,17.21519,-1
278,279,1583237922331,13.075399,0.080299996,10.5771,18.826221,1.1778706,18.677301,-1
279,280,1583237922341,11.8640995,0.19569999,12.0351,19.056591,1.6739205000000001,20.393167000000002,-1
280,281,1583237922352,12.414599,1.3047,13.7032995,20.126455,2.7009467999999996,21.72017,-1
281,282,1583237922362,13.5125,2.7301,14.713799,20.607132,3.4358230000000005,21.490402,-1
282,283,1583237922372,13.814098999999999,3.6992,14.121099,20.114752,3.5402101999999998,19.777216,-1
283,284,1583237922382,12.8153,3.9023,12.1661,17.83168,2.8654957000000003,17.096563,-1
284,285,1583237922392,11.1779995,3.5983,9.9154,16.933595999999998,2.1545997000000003,15.536789,-1
285,286,1583237922402,10.3319,3.0916997999999998,8.3284,16.303959,1.534214,15.340062,-1
286,287,1583237922413,9.7504,2.675,8.1181,14.914373000000001,1.0387674999999998,16.149158,-1
287,288,1583237922423,8.403399,2.3513,8.921,13.0941,0.5734975,16.947212,-1
288,289,1583237922433,6.6224,2.0365,9.7069,11.536594000000001,0.28655723,17.038002,-1
289,290,1583237922443,5.1025,1.8824999,9.7978,10.610086,0.19743545,16.297255,-1
290,291,1583237922453,4.2186,1.8993,9.043,10.2449045,0.2592154,14.998889000000002,-1
291,292,1583237922463,3.8846998,2.0505,7.7345,10.20043,0.3285611,13.668565,-1
292,293,1583237922474,3.8915,2.1815999,6.3849998,10.156797000000001,0.3641485,12.471042,-1
293,294,1583237922484,3.8718,2.2642,5.1744,9.982385,0.35475367,11.229869,-1
294,295,1583237922494,3.7182,2.2788,3.9157,9.530427,0.3114952,10.163501,-1
295,296,1583237922504,3.2856,2.2395,2.8432999,9.109153,0.2913073,9.653277000000001,-1
296,297,1583237922514,2.7903,2.2113,2.2526,8.678215,0.20836258,9.426796000000001,-1
297,298,1583237922524,2.4592,2.1316,2.0753,8.338133000000001,0.010821791,9.289128999999999,-1
298,299,1583237922534,2.1271,1.9326999,1.9277999,7.843165400000001,-0.21950041,9.1658945,-1
299,300,1583237922545,1.1035,1.4244,1.6057999,7.201979,-0.56112427,8.9264555,-1
300,301,1583237922555,1.1035,1.4244,1.6057999,7.046806299999999,-0.7292834,8.723801,-1
301,302,1583237922565,1.0544,1.2226,0.93149996,7.314583,-0.62531763,8.238496000000001,-1
302,303,1583237922575,1.3637999,1.3271998999999999,0.4897,7.582464999999999,-0.5427559000000001,7.8238389999999995,-1
303,304,1583237922585,1.4653,1.26,0.166,7.655862299999999,-0.58149415,7.546284,-1
304,305,1583237922595,1.5639,1.2766,0.0596,7.725821000000001,-0.5292335,7.491619999999999,-1
305,306,1583237922606,1.4113,1.1702,0.094399996,7.514547,-0.6309679,7.5386133,d
306,307,1583237922616,0.9654,0.9083,0.0466,7.0653562999999995,-0.8551993,7.4417534,-1
307,308,1583237922626,0.51339996,0.6006,-0.1443,6.643527000000001,-1.1215781,7.2161813,-1
308,309,1583237922636,0.1105,0.28300000000000003,-0.3644,6.2780757000000005,-1.3832836000000002,7.026627499999999,-1
309,310,1583237922646,-0.070099995,0.0792,-0.4411,6.1791954,-1.4979945,6.9727006,-1
310,311,1583237922657,0.005699999599999999,0.0133,-0.2897,6.289836,-1.5024285,7.181483999999999,-1
311,312,1583237922667,0.2183,0.035,0.0423,6.503542400000001,-1.4708443000000002,7.560707000000001,-1
312,313,1583237922677,0.32729998,0.0308,0.26369998,6.625636999999999,-1.4520066999999999,7.7715883,-1
313,314,1583237922687,0.4852,0.0046,0.4164,6.796257499999999,-1.4306313,7.9424863,-1
314,315,1583237922697,0.6956,0.0218,0.5634,6.956917999999999,-1.3604428999999998,8.077136,-1
315,316,1583237922708,0.7797,0.119399995,0.6281,7.088858,-1.2237531000000001,8.103932,-1
316,317,1583237922718,1.0052999,0.16129999,0.6573,7.313941499999999,-1.1387589,8.105627,-1
317,318,1583237922728,1.1115,0.1688,0.55979997,7.3027463,-1.1013998,7.9752674,-1
318,319,1583237922738,0.9055,0.1051,0.5099,7.0818566999999994,-1.133913,8.032958,-1
319,320,1583237922748,0.9291,0.044299997,0.7224,7.4844565,-1.0857035,8.473664,-1
320,321,1583237922759,1.4395,0.050499998,1.2351999,7.9795490000000004,-1.0114449,9.26625,-1
321,322,1583237922769,1.8987999,0.183,2.1941,8.307631,-0.7996059,10.084607,-1
322,323,1583237922779,2.3393,0.48929998,3.0067,8.892813,-0.30117142,10.774635,-1
323,324,1583237922789,2.9059,0.9716,3.3906,9.43325,0.29843247,11.129647,-1
324,325,1583237922799,3.4687997999999998,1.5073999,3.7185998,10.065415,0.85627186,11.527660000000001,-1
325,326,1583237922809,4.1854997,1.9322,4.1067,10.724022999999999,1.1825441,11.8567,-1
326,327,1583237922820,4.7202997,2.0957,4.3605,10.948367999999999,1.2707656999999999,12.1612425,-1
327,328,1583237922830,4.7671,2.0345,4.7075,10.800138,1.3093313999999998,12.709992999999999,-1
328,329,1583237922840,4.6057997,2.0045,5.4168,10.730113000000001,1.4690151000000002,13.677787,-1
329,330,1583237922850,4.6106997000000005,2.0783,6.527199700000001,10.896510000000001,1.6781248,14.864429000000001,-1
330,331,1583237922860,4.692199700000001,2.1694999,7.6797,10.764704,2.0926855,16.023874,-1
331,332,1583237922870,4.5566998,2.4236,8.5525,10.819493,2.4010396000000003,16.594220999999997,-1
332,333,1583237922881,4.6688,2.5147998,9.0062,11.085604,2.4992688,16.639855999999998,-1
333,334,1583237922891,4.9856,2.4199,8.9959,11.345432,2.5893482999999997,16.64859,-1
334,335,1583237922901,5.3231,2.3530998,9.0781,11.836866,2.821739,16.74726,-1
335,336,1583237922911,5.7741,2.3118,9.102099,12.161778,2.8419654,16.73412,-1
336,337,1583237922921,6.0228,2.0478,9.1405,11.963883000000001,2.8034953999999996,16.85312,-1
337,338,1583237922931,5.7139,1.7255,9.2572,11.410008,2.772495,16.561163,-1
338,339,1583237922942,5.1056,1.3909999,8.9142,10.637151,2.7416291,15.851828,-1
339,340,1583237922952,4.2998,0.98609996,8.2598,10.05943,2.612936,15.199628,-1
340,341,1583237922962,3.5746,0.3985,7.5006,9.204183,2.2690232000000004,14.055801999999998,-1
341,342,1583237922972,2.9174,-0.2642,6.652,8.838492,2.0568584999999997,13.018434,-1
342,343,1583237922983,2.6397998,-0.85319996,5.7358,8.716148,1.8930953999999998,12.072006,-1
343,344,1583237922993,2.5565999,-1.4107,4.9452,8.464383999999999,1.8122957999999998,11.150717,-1
344,345,1583237923003,2.2819,-1.8575,4.205,7.817288400000001,1.7138175,10.475734,-1
345,346,1583237923013,1.6348,-2.3434,3.7372,6.940216499999999,1.6845411,9.855108,-1
346,347,1583237923023,0.7865,-2.7516,3.2937999,5.6882496,1.609909,9.136782,-1
347,348,1583237923034,-0.2041,-3.2066,2.9343,4.7812877,1.4934742,8.815087,-1
348,349,1583237923044,-1.0323,-3.7115998,2.8504,4.270595,1.4772893999999999,8.356117999999999,-1
349,350,1583237923054,-1.4703,-4.0824,2.6411998,3.790232,1.5673593000000001,7.540758,-1
350,351,1583237923064,-2.0297,-4.6533,1.8364999,3.389883,1.5437428999999998,6.840388000000001,-1
351,352,1583237923074,-2.0297,-4.6533,1.8364999,3.0286555,1.4383694,6.3751370000000005,-1
352,353,1583237923085,-2.9705,-5.4751997,0.94409996,2.2052991000000004,1.3303813,5.4903830000000005,-1
353,354,1583237923096,-3.3838,-5.6435,0.4524,1.7184813,1.4357452,4.7950497,-1
354,355,1583237923106,-3.4742,-5.7791,0.0144,1.5455052,1.5561353999999998,4.0714163999999995,-1
355,356,1583237923116,-3.3996,-5.7551,-0.5394,1.5489719,1.7919163,3.3188421999999997,-1
356,357,1583237923126,-3.1201,-5.7198997,-0.8499,1.7109636000000001,1.9825523,2.8551333,-1
357,358,1583237923136,-2.9782999,-5.9516,-0.89589995,1.6685,1.8354237,2.6411493,-1
358,359,1583237923146,-3.2875997999999997,-6.6320996,-0.8368,0.9396571,1.1592723999999999,2.4045734,-1
359,360,1583237923156,-4.2064,-7.2633996,-0.99069995,-0.3103843,0.8431517,1.9504125,-1
360,361,1583237923167,-5.3752,-7.4909,-1.3289,-1.4760541,0.788516,1.4082502000000001,-1
361,362,1583237923177,-5.3752,-7.4909,-1.3289,-1.9126416000000002,0.7815632,1.060344,-1
362,363,1583237923187,-5.9936,-7.7481,-1.8698,-1.802039,0.7686633,0.4731996,-1
363,364,1583237923197,-5.5909,-7.7886,-2.2059,-1.2945257,0.90777594,-0.054128114000000005,-1
364,365,1583237923207,-4.8416,-7.6720996,-2.5732,-0.552802,1.1090133999999998,-0.50546384,-1
365,366,1583237923217,-4.0078998,-7.4803,-2.6966,0.22540929999999998,1.3535571000000002,-0.5478125,-1
366,367,1583237923227,-3.3799998999999996,-7.2867,-2.4921,0.6207878000000001,1.4764947,-0.40330806,-1
367,368,1583237923237,-3.1204,-7.2338996,-2.1822,0.8287481,1.5739675,-0.10427227,-1
368,369,1583237923247,-3.0047998,-7.1492,-1.8972,0.9270349,1.7377212,0.066836536,-1
369,370,1583237923257,-2.9292998,-6.8568997000000005,-1.8300999,1.026921,2.1696925,-0.09199481,-1
370,371,1583237923267,-2.7278,-6.4544997,-1.9598,1.2238966999999998,2.4449682,-0.31615913,-1
371,372,1583237923278,-2.3198,-6.166,-2.1792998,1.7806157,2.8451543,-0.64828277,-1
372,373,1583237923288,-1.8880999,-5.803999999999999,-2.2563,2.1519852000000004,3.1972072,-0.87835604,-1
373,374,1583237923298,-1.6538,-5.5849,-2.4452,2.4533672,3.4184985,-1.1432313,-1
374,375,1583237923308,-1.1565,-5.214299700000001,-2.5535997999999998,3.1294036,3.8646245,-1.2918441999999999,-1
375,376,1583237923318,-0.3495,-4.7018,-2.6267,3.9933657999999994,4.405791000000001,-1.4150593999999999,-1
376,377,1583237923329,0.49449998,-4.118,-2.6592,4.962251,5.0906663,-1.5363209,-1
377,378,1583237923339,1.0855,-3.5932998999999994,-2.7716,5.243761,5.495325,-1.8052856,-1
378,379,1583237923349,1.1420000000000001,-3.2965,-3.0365999,5.1116204000000005,5.5898959999999995,-2.0493503,-1
379,380,1583237923359,0.7528,-3.1595,-3.1668,4.652451,5.969396,-2.2021005000000002,-1
380,381,1583237923370,0.4822,-2.7282999,-3.1782,4.5705504,6.2839274000000005,-2.1648946,-1
381,382,1583237923380,0.48459998,-2.5003998,-2.9682,4.712134,6.5486298,-1.8748131000000001,-1
382,383,1583237923390,0.67109996,-2.1213,-2.5496,4.9159184,7.0933204,-1.1718467,-1
383,384,1583237923400,0.7782,-1.6696999,-1.9196999,5.032258000000001,7.4158,-0.59165514,-1
384,385,1583237923410,0.9341,-1.2544999,-1.2472,5.338294,7.8252854,-0.041055772000000004,-1
385,386,1583237923420,1.3346,-0.84749997,-0.8785,5.9800935,8.327599000000001,0.12585839999999998,-1
386,387,1583237923431,1.8727,-0.4021,-0.9137,6.4300213,8.6151905,-0.13234189,-1
387,388,1583237923441,2.2475,-0.1469,-1.2131,6.5397425,8.737898,-0.5425930999999999,-1
388,389,1583237923451,2.2855,-0.0541,-1.6274998999999999,6.365359,8.7679205,-0.84180135,-1
389,390,1583237923461,2.0662,-0.0255,-1.8304,6.170308,8.840963,-0.84206945,-1
390,391,1583237923471,1.8824999,0.0762,-1.7483,6.0054050000000005,8.991176,-0.66351944,-1
391,392,1583237923482,1.6288999,0.2312,-1.4425,5.677792,9.025557000000001,-0.31150478,-1
392,393,1583237923492,1.2212,0.1901,-1.0904,5.0712543,9.001222,0.16891572,-1
393,394,1583237923502,0.73759997,0.1997,-0.7166,4.7791524,9.114755,0.58537275,-1
394,395,1583237923513,0.5175,0.3401,-0.3655,4.675637,9.116977,0.9726492,-1
395,396,1583237923523,0.4229,0.2965,-0.032899998,4.5814867,8.946423,1.4461936000000002,-1
396,397,1583237923533,0.3459,0.16499999,0.3171,4.630185,8.955817999999999,1.6822810000000001,-1
397,398,1583237923543,0.39429998,0.17909999,0.51159996,4.657,9.044327000000001,1.5113733,-1
398,399,1583237923554,0.4217,0.2591,0.341,4.6201963,9.137815,0.8536190999999999,-1
399,400,1583237923564,0.38059998,0.35549998,-0.2965,4.5771203,9.226995,0.32268095,-1
400,401,1583237923574,0.3208,0.46019998,-0.9059,4.2792234,9.164601,-0.05478891,-1
401,402,1583237923584,0.0371,0.36929998,-1.1329,3.9759357000000004,9.027700999999999,0.09118078,-1
402,403,1583237923594,-0.2547,0.2314,-1.0188999,3.7147667,8.832507000000001,0.7102352,-1
403,404,1583237923605,-0.5281,0.0477,-0.4163,3.6173227,8.621827,1.5827684,d
404,405,1583237923615,-0.6832,-0.22369999,0.6623,3.5191891,8.545337,1.9121819,-1
405,406,1583237923625,-0.8416,-0.0783,0.8294,3.4160182,8.756860000000001,2.0608714,-1
406,407,1583237923635,-0.74039996,0.1654,0.73789996,3.5814673999999997,8.94988,1.8870715,-1
407,408,1583237923645,-0.4966,0.3311,0.40559998,3.8509872000000005,9.121171,1.5491443,-1
408,409,1583237923656,-0.1373,0.5359,0.062,4.290122,9.314488,1.1662731000000002,-1
409,410,1583237923666,0.3592,0.7111,-0.29839998,4.784774,9.462019999999999,0.83064437,-1
410,411,1583237923676,0.5552,0.6595,-0.37669998,4.880033999999999,9.3458805,0.7810461,-1
411,412,1583237923686,0.30629998,0.49789998,-0.32459998,4.5931516,9.190019,0.81222814,-1
412,413,1583237923696,0.30629998,0.49789998,-0.32459998,4.2636614,9.108128,0.85516095,-1
413,414,1583237923706,-0.3367,0.33049998,-0.19749999,4.059561,9.044786,0.9746220999999999,-1
414,415,1583237923717,-0.1699,0.3181,-0.0585,4.436781400000001,9.063672,1.1842201,-1
415,416,1583237923727,0.52,0.5143,0.056199998,5.361834,9.371624,1.2133909999999999,-1
416,417,1583237923737,1.5561999,0.9472,-0.0973,6.4079657,9.795436,0.928299,-1
417,418,1583237923747,2.4629,1.3492,-0.5453,7.0567946,10.090775,0.4823263,-1
418,419,1583237923757,2.9817998,1.5803,-1.2721,7.573625999999999,10.261108,-0.583036,-1
419,420,1583237923768,3.1759999,1.5609,-2.1763,7.687810400000001,10.189608,-1.4048886999999999,-1
420,421,1583237923778,3.135,1.3795998999999999,-2.6873999,7.524669599999999,9.88972,-1.8206946,-1
421,422,1583237923788,2.8774998,0.9683,-2.855,7.3636737000000005,9.522908000000001,-1.8735873,-1
422,423,1583237923798,2.9915,0.7468,-2.7235,7.704828699999999,9.411712,-1.7367921999999998,-1
423,424,1583237923809,3.7775998,0.7927,-2.7314,8.827863,9.654973,-2.0913063999999997,-1
424,425,1583237923819,4.6851,1.0576999,-3.2305,9.477188,9.79465,-2.5849526000000003,-1
425,426,1583237923829,5.3473,1.1256,-3.827,10.032088,9.760949,-3.3188614999999997,-1
426,427,1583237923839,5.6222,0.97319996,-4.3525,10.14043,9.530771000000001,-3.7623824999999997,-1
427,428,1583237923850,5.6408997,0.6971,-4.5715,10.054163,9.169141999999999,-3.9450126000000005,-1
428,429,1583237923860,5.5509,0.2498,-4.6349,10.043111999999999,8.653114,-4.071551,-1
429,430,1583237923870,5.6821,-0.2872,-4.6552997000000005,10.391305000000001,8.092382,-4.125018,-1
430,431,1583237923880,6.0801,-0.72569996,-4.6112,10.775469000000001,7.934806,-4.09849,-1
431,432,1583237923890,6.6053,-0.8490000000000001,-4.5104,11.471339,8.003146000000001,-3.9311547,-1
432,433,1583237923901,7.229099799999999,-0.75619996,-4.3064,11.992747999999999,8.06959,-3.8911333,-1
433,434,1583237923911,7.7299,-0.7341,-4.2843,12.117447,7.967558400000001,-4.299852,-1
434,435,1583237923921,7.7798,-0.903,-4.7072,11.773228999999999,7.7011223,-4.895539299999999,-1
435,436,1583237923931,7.4416,-1.225,-5.2195,11.411206,7.2879114000000005,-5.1462507,-1
436,437,1583237923941,7.1861997,-1.7096,-5.3197,11.11262,6.7491875,-4.871118,-1
437,438,1583237923951,6.9442,-2.2874,-4.9456,10.547071,6.095312,-4.298511,-1
438,439,1583237923962,6.403,-3.0272,-4.2784,9.690119000000001,5.30014,-3.3735546999999997,-1
439,440,1583237923972,5.5908,-3.8495998,-3.3404998999999997,8.530024000000001,4.611836,-2.2889814,-1
440,441,1583237923982,4.4649997,-4.5955997,-2.2416,6.962894,3.9337212999999998,-0.93551993,-1
441,442,1583237923992,3.0023,-5.312,-0.92929995,5.4838233,3.37457,0.29533914,-1
442,443,1583237924002,1.7250999,-5.888,0.1362,4.3252883,2.9063790000000003,1.2503574,-1
443,444,1583237924013,0.9309999999999999,-6.3019,0.8190000000000001,3.7442634,2.6868305,1.6670731,-1
444,445,1583237924023,0.4508,-6.5536,1.1759,3.5669582,2.6047957000000004,1.6075723999999998,-1
445,446,1583237924033,0.3631,-6.6731,1.0102999,3.4078394999999997,2.5314755,1.2439219,-1
446,447,1583237924043,0.3081,-6.7693,0.6295,3.0914028,2.5968087000000004,1.04663,-1
447,448,1583237924054,-0.0133,-6.7258997,0.35,2.2515457000000003,2.4094192999999997,1.1950034999999999,-1
448,449,1583237924063,-0.6581,-6.9353,0.45209998,1.1532103,1.9930387999999999,1.9328198,-1
449,450,1583237924073,-1.6659,-7.3676996,1.101,0.14030979999999998,1.7382,2.690652,-1
450,451,1583237924083,-2.8534,-7.7469997,1.9417,-1.5078394,1.0914016000000002,3.7528822,-1
451,452,1583237924093,-4.1453,-8.3071995,2.6980999,-2.5985131,0.6579458,4.252935400000001,-1
452,453,1583237924103,-5.429199700000001,-8.8309,3.1753,-3.8793154000000003,0.40627688,4.8815284000000005,-1
453,454,1583237924114,-6.3973,-8.9828,3.5605,-4.2962894,0.7614232,5.2507334000000006,-1
454,455,1583237924125,-6.633899700000001,-8.118199,3.7077,-4.11636,1.3401208,5.3866762999999995,-1
455,456,1583237924135,-6.5344996,-7.535599700000001,3.7837,-4.083273,1.8888528000000002,5.687522,-1
456,457,1583237924145,-6.7688,-7.0657,4.3259,-4.3335047,2.2493331000000003,6.4817165999999995,-1
457,458,1583237924156,-7.2374,-7.0645,5.1275997,-4.8391223,2.1043596,7.460869000000001,-1
458,459,1583237924166,-8.0872,-7.6889,6.2953,-5.726595400000001,1.300559,8.860241,-1
459,460,1583237924176,-8.0872,-7.6889,6.2953,-6.422494,0.5115547,10.05852,-1
460,461,1583237924188,-10.0625,-9.268599499999999,9.0595,-7.8622136,-0.28965050000000003,12.257939,-1
461,462,1583237924198,-11.453,-9.054,10.4626,-9.051767,0.21501847,13.816296,-1
462,463,1583237924208,-11.651899,-8.3022995,11.6363,-8.205408,0.8012627,15.059520000000001,-1
463,464,1583237924218,-10.059299000000001,-7.7897997000000005,12.403299,-6.1315312,1.2645216000000001,15.796520999999998,-1
464,465,1583237924228,-8.032599000000001,-7.0139,12.5863,-4.2368654999999995,1.9245073000000001,15.805256,-1
465,466,1583237924239,-6.7597,-6.4557,12.0468,-2.889926,2.2073486,15.105412,-1
466,467,1583237924249,-6.1531,-6.2056,11.3474,-2.6218138,2.3425732000000004,14.836867999999999,-1
467,468,1583237924259,-6.4238,-6.0046,11.3636,-3.2340397999999997,2.2608542000000003,15.531951999999999,-1
468,469,1583237924269,-7.3736997,-6.0523,12.1268,-3.9954053999999997,1.9847261999999999,16.372183,-1
469,470,1583237924280,-8.0931,-6.2837996,12.832999000000001,-4.133503,1.4607791,17.321635999999998,-1
470,471,1583237924290,-8.0293,-6.8127,13.7673,-3.4298568,0.7278085999999999,18.498798,-1
471,472,1583237924300,-7.197499799999999,-7.2465997,14.6837,-2.0217502,0.51834464,19.220306,-1
472,473,1583237924310,-5.6959995999999995,-6.9125,14.934999,-0.16771862,1.1556811000000002,19.202522000000002,-1
473,474,1583237924320,-4.0592,-5.852999700000001,14.582999,1.5598128999999998,2.2391913,18.747087,-1
474,475,1583237924330,-2.6034,-4.4941998,13.8824,3.0149703,3.4317050000000004,18.334616,-1
475,476,1583237924341,-1.3132,-3.1831,13.5884,4.581908,4.332097,18.51483,-1
476,477,1583237924351,0.2522,-2.3033,13.7209,6.71315,4.6432095,18.675376999999997,-1
477,478,1583237924361,1.8198999,-2.0646,13.6156,7.9294142999999995,4.1946797,18.216045,-1
478,479,1583237924371,2.8044999,-2.3937,12.901299,8.647033,3.4906025,17.208584,-1
479,480,1583237924381,3.3351,-2.9775999,11.7317,9.135441,2.635001,16.095251,-1
480,481,1583237924392,3.7814,-3.6471998999999995,10.5265,10.236238,2.2957234,15.176691,-1
481,482,1583237924402,5.0311,-3.6288,9.6227,12.331547,2.965774,15.206418,-1
482,483,1583237924412,7.1907997,-2.6001,9.709,15.039782,4.353721599999999,15.529882999999998,-1
483,484,1583237924422,9.9505,-0.94329995,9.8019,17.946629,5.811465,15.236068,-1
484,485,1583237924433,12.739699,0.6289,9.207,20.33856,6.562353599999999,13.797238,-1
485,486,1583237924443,14.5974,1.2958,7.8128996,20.67398,6.3347516,11.867426,-1
486,487,1583237924453,14.9283,1.1949999,5.776,19.564095000000002,5.608982599999999,10.141848,-1
487,488,1583237924464,13.8375,0.556,3.9715998,17.576342,4.414496,8.766025,-1
488,489,1583237924474,11.882899,-0.5825,2.5089,15.903131,3.2716,7.6999059999999995,-1
489,490,1583237924484,9.9168,-1.9334999,1.1429,14.840967000000001,2.6021044,6.7550289999999995,-1
490,491,1583237924494,9.265699,-2.3121998,0.32709998,16.081335,3.5903449999999997,6.0922956,-1
491,492,1583237924504,10.5728,-1.2637,-0.4262,18.796417,4.9390273,5.248119,-1
492,493,1583237924514,13.337299,0.1466,-1.3587999,20.956045,5.8753233,3.671604,-1
493,494,1583237924525,15.5288,1.1424999,-3.0045,21.522226,6.180957299999999,1.5496326999999999,-1
494,495,1583237924535,16.1238,1.4695,-5.1699,20.248281,5.896401999999999,-0.40816352,-1
495,496,1583237924545,12.5513,0.3423,-8.7697,17.367002,4.8842382,-2.3146183,-1
496,497,1583237924555,10.0989,-0.75979996,-9.5247,14.983728,3.880005,-2.8028536,-1
497,498,1583237924565,8.7824,-1.1047,-9.2078,14.042635,3.8147101,-2.407255,-1
498,499,1583237924576,9.61,-0.5058,-8.9057,15.216004000000002,4.4631557,-2.1508743999999997,-1
499,500,1583237924586,11.4889,0.0801,-9.0626,17.067125,4.9921885,-2.4472954,-1
500,501,1583237924596,12.8282995,0.475,-9.892099,18.254265,5.353128400000001,-3.3305067999999998,-1
501,502,1583237924606,13.4892,0.7503,-10.6599,18.898629999999997,5.598333,-4.1263204,-1
502,503,1583237924616,13.807099,0.7589,-11.2695,19.048270000000002,5.4815629999999995,-4.6214128,-1
503,504,1583237924627,13.5285,0.4229,-11.300999999999998,18.565089999999998,5.0088134,-4.3624177,-1
504,505,1583237924637,12.7613,-0.1674,-10.6967,17.506970000000003,4.2999,-3.5820417,-1
505,506,1583237924647,11.288799000000001,-0.99219996,-9.6524,15.838351999999999,3.4871163,-2.4144759999999996,-1
506,507,1583237924657,9.5121,-1.6673,-8.4431,14.466092000000002,3.0073182999999997,-1.4422096000000002,-1
507,508,1583237924667,8.174399000000001,-2.0623,-7.5006,13.099941000000001,2.5864754,-0.52360237,-1
508,509,1583237924677,7.4810996,-2.3144999,-7.197,12.639317,2.31911,-0.42328528,-1
509,510,1583237924688,7.3243,-2.5312997999999998,-7.2875,12.652772,2.0741258,-0.54122365,-1
510,511,1583237924698,7.3992996,-2.7226,-7.4184,12.741050999999999,1.8324741000000002,-0.57615983,-1
511,512,1583237924708,7.4673996,-2.9587998,-7.173899700000001,12.769283,1.5660473,-0.044264,-1
512,513,1583237924718,7.2890997,-3.2217,-6.3338,12.50571,1.2057103999999998,0.92139417,-1
513,514,1583237924728,6.816,-3.6225,-5.4259996,11.951319,0.6916656999999999,1.7082821,-1
514,515,1583237924739,6.1404,-4.0831,-4.7571,11.354655000000001,0.30356562,2.270632,-1
515,516,1583237924749,5.5007,-4.2872,-4.2623997000000005,10.626252000000001,0.029132647,2.8504026000000002,-1
516,517,1583237924759,4.8299,-4.4771,-3.7882,10.167408,-0.1865562,3.1789827,-1
517,518,1583237924769,4.2665997,-4.6791,-3.3864,9.648681,-0.44193134,3.6737971,-1
518,519,1583237924780,3.918,-4.803,-2.9104,9.55343,-0.6119675,4.2010293,-1
519,520,1583237924790,3.9104997999999997,-4.896,-2.2916,9.789661,-0.7619499,4.972393,-1
520,521,1583237924800,4.1435,-4.9024997,-1.4799,10.105360000000001,-0.8258368,5.7616559999999994,-1
521,522,1583237924810,4.3377,-4.8409,-0.66539997,10.292558999999999,-0.7083389,6.856132000000001,-1
522,523,1583237924820,4.4221,-4.6363997,0.2678,10.2991085,-0.7207216999999999,7.766762,-1
523,524,1583237924830,4.2391,-4.6373997000000005,1.1898999,9.842315,-0.9563782,8.634122999999999,-1
524,525,1583237924841,3.6624,-4.798899700000001,2.0829,9.309403,-1.0168749,9.196636999999999,-1
525,526,1583237924851,2.972,-4.7860000000000005,2.6276,8.430616,-1.0015329,9.382838000000001,-1
526,527,1583237924861,1.9922999,-4.6802,2.8202,7.8659678,-0.9830591999999999,9.452164999999999,-1
527,528,1583237924871,1.4283,-4.678499700000001,2.9898999,7.68805,-1.3007795,10.036062,-1
528,529,1583237924881,1.2120999,-4.9881997,3.8072998999999994,7.578711500000001,-1.5484643,11.587419,-1
529,530,1583237924892,1.0722,-5.0903997,5.4751,7.438009,-1.6128588,12.994224,-1
530,531,1583237924902,0.70739996,-5.0323,7.2598,6.7563414999999996,-1.2502809,15.061588,-1
531,532,1583237924912,-0.082899995,-4.5115,8.965899,5.628289700000001,-0.57816136,16.299112,-1
532,533,1583237924922,-1.2886,-3.7710998,10.038199,4.540172599999999,-0.042262445999999995,16.575336,-1
533,534,1583237924932,-2.3973,-3.2465,10.2016,3.7990043,0.4702691,16.074,-1
534,535,1583237924943,-3.1341,-2.7384,9.6992,3.396922,0.8158482,15.472337,-1
535,536,1583237924953,-3.5554997999999998,-2.4046,9.2007,3.4062690000000004,1.2617922,14.98979,-1
536,537,1583237924963,-3.5604,-2.0119998,8.8847,3.6608300000000003,1.4618229999999999,14.689001999999999,-1
537,538,1583237924973,-3.3522,-1.7925999,8.638599000000001,3.699329,1.5570356,14.806739000000002,-1
538,539,1583237924983,-3.3713,-1.6192,8.8434,3.5632330000000003,2.0031903000000004,14.956913,-1
539,540,1583237924993,-3.5426998,-1.2123,8.995399,3.1230830000000003,2.33088,14.591137,-1
540,541,1583237925003,-4.0281,-0.88409996,8.6832,2.7062714,2.586983,13.966001,-1
541,542,1583237925013,-4.5538,-0.57809997,7.9286,2.7176776,2.8885758,12.892154,-1
542,543,1583237925024,-4.5273,-0.35599998,7.1057,2.8663668999999996,3.096335,12.357978999999998,-1
543,544,1583237925034,-4.4131,-0.1521,6.6144,2.9330312999999997,3.0928967000000003,12.016594,-1
544,545,1583237925044,-4.3649,-0.1718,6.3027997000000004,2.8407299999999998,3.032429,11.803931,-1
545,546,1583237925054,-4.4644,-0.23969999,6.1165,2.7232702,3.0767597999999996,11.593797,-1
546,547,1583237925065,-4.4758,-0.1815,5.3092,2.8852236,3.110164,10.813709,-1
547,548,1583237925075,-4.1363,-0.1726,4.4476,3.2692537,3.1241746,9.906355,-1
548,549,1583237925085,-3.7765,-0.2705,3.5254998,3.5884582999999997,3.01747,9.014974,-1
549,550,1583237925095,-3.7299,-0.43469998,2.9150999,3.5859777999999998,2.87445,8.498028,d
550,551,1583237925105,-3.6941998,-0.47779998,2.9122,3.6681087,2.8229554,8.583606,-1
551,552,1583237925116,-3.4343998,-0.5265,3.1049,3.9945150000000003,2.8049319,8.747877,-1
552,553,1583237925126,-2.7230000000000003,-0.23979999,3.0798,4.820083599999999,3.1983566000000003,8.641314999999999,-1
553,554,1583237925136,-1.6554999,0.33069998,2.5707998,5.898738400000001,3.7419841,8.00013,-1
554,555,1583237925146,-0.75,0.8772,1.4501,6.7542729999999995,4.3300667,6.8226323,-1
555,556,1583237925156,0.14989999,1.3781999,0.2294,7.6553454,4.7132545,5.6051135,-1
556,557,1583237925166,0.7782,0.98219997,-0.86469996,8.120461,4.175957,4.600535400000001,-1
557,558,1583237925177,0.4409,0.16749999,-1.4319998999999999,7.394789,3.1883872,4.2019005,-1
558,559,1583237925187,-0.5476,-0.78639996,-1.1552,6.246233,2.1952147,4.888146,-1
559,560,1583237925197,-1.8008,-1.5191,0.03,5.1422567,1.8580251,6.2186613,-1
560,561,1583237925207,-2.2942,-1.1994,1.1946,5.1604147000000005,2.5713152999999997,7.168355,-1
561,562,1583237925217,-1.3791,0.0357,1.6402999,6.713092999999999,4.000328,7.2132125,-1
562,563,1583237925227,0.97819996,1.3604,1.0292,9.326316,5.0123185999999995,6.277826999999999,-1
563,564,1583237925238,3.517,2.1578,-0.2753,11.202259,5.604558,5.1793385,-1
564,565,1583237925248,5.3957,2.6403,-1.7486,13.038516,5.819069,3.4623413,-1
565,566,1583237925258,5.7900996,2.1804,-2.9139999999999997,12.553278,5.176293,2.7604954,-1
566,567,1583237925269,4.139199700000001,1.4621998999999999,-2.9338999,9.944039,4.2036815,3.2376118,-1
567,568,1583237925279,1.854,0.47469997,-2.2726998,7.771607400000001,3.3050134,4.200464,-1
568,569,1583237925289,-0.0656,-0.33339998,-1.1352999,6.228889,2.6905656000000002,5.516556700000001,-1
569,570,1583237925299,-1.3457,-0.83269995,0.20709999,5.1561627,2.5235844,6.8838563,-1
570,571,1583237925309,-2.1534998,-0.7249,1.4589,4.8781095,3.1003572999999998,8.097928,-1
571,572,1583237925319,-1.9126999,0.0964,2.5061,5.8283396,3.9956737,8.896184,-1
572,573,1583237925329,-0.518,0.97779995,3.0124998,7.595642999999999,4.780924,9.107878999999999,-1
573,574,1583237925339,1.3431,1.8105999,2.9945,9.176735,5.6361136,8.997639999999999,-1
574,575,1583237925349,2.6626,2.6618,2.8386998,10.049172,6.2713337,9.009381,-1
575,576,1583237925360,3.3030998999999994,3.1034,3.0484,10.320167999999999,6.417112,9.649676,-1
576,577,1583237925370,3.3134,3.1065998,3.9562998,9.795254,6.443563,10.9940405,-1
577,578,1583237925380,2.5207999,3.1664999,5.5657997,8.868659,6.5920415,12.681598,-1
578,579,1583237925390,1.5985999,3.2795,7.2681,7.6270647,6.640357000000001,14.855735000000001,-1
579,580,1583237925400,0.65209997,3.2547,8.954599,7.209899000000001,6.827880400000001,16.042656,-1
580,581,1583237925410,0.5469,3.5746,10.2493,7.869692999999999,7.388985000000001,17.129564000000002,-1
581,582,1583237925420,1.8856,4.2083,11.179399499999999,9.734067,8.134099,17.836601,-1
582,583,1583237925431,3.8472,4.9086,11.6023,11.524232000000001,8.809168,17.818904999999997,-1
583,584,1583237925441,5.1531,5.2613,11.2992,11.851241,8.891912,17.245943,-1
584,585,1583237925451,5.3398,5.1138997,10.458799,11.217628999999999,8.805807000000001,16.172363,-1
585,586,1583237925461,4.6614,4.9009,9.622399,10.142901,8.723791,15.52409,-1
586,587,1583237925471,3.642,4.5758,9.0955,9.199662,8.430808,15.12127,-1
587,588,1583237925481,2.8662999,4.0056,8.797999,8.62016,7.9830440000000005,14.881620000000002,-1
588,589,1583237925491,2.4371998,3.3285,8.6317,8.314392999999999,7.667728,14.723832999999999,-1
589,590,1583237925502,2.2286,2.7165,8.4753,8.035831,7.211402400000001,14.2947445,-1
590,591,1583237925512,2.1599998,2.0819,8.1549,8.033389999999999,6.724671000000001,13.844173999999999,-1
591,592,1583237925522,2.3339,1.3048999,7.7574,8.070615,6.123755,13.264538,-1
592,593,1583237925532,2.4494,0.4597,7.2458,7.723014999999999,5.657633000000001,12.564789999999999,-1
593,594,1583237925542,2.1498,-0.24149999,6.6787,7.0176353,5.2556367,11.74647,-1
594,595,1583237925552,1.5143,-0.9361,6.0202,6.1571492999999995,4.7988615,10.902341999999999,-1
595,596,1583237925562,0.8092,-1.6873,5.3757997,5.4134912,4.3928523,9.915366,-1
596,597,1583237925573,0.3502,-2.2913,4.7976,5.1263494000000005,4.2113624000000005,9.008672,-1
597,598,1583237925583,0.1293,-2.8009,3.8481,4.8703904,3.9919674,7.031636,-1
598,599,1583237925593,0.0809,-3.2503,2.4398,4.7547984,3.834611,5.7187996,-1
599,600,1583237925603,0.0689,-3.7124,1.092,4.54996,3.620847,4.583613,-1
600,601,1583237925614,-0.1329,-4.2531,0.0537,3.8276677,3.1716373,3.0080080000000002,-1
601,602,1583237925624,-0.51739997,-4.772,-0.7892,3.1801033,3.0901387000000002,2.1819603,-1
602,603,1583237925634,-0.9996,-5.0511,-1.385,2.6132232999999996,3.3342992999999996,1.7774075,-1
603,604,1583237925644,-1.426,-4.9719996,-1.5723,2.4326336,3.7589252,1.7497879,-1
604,605,1583237925654,-1.2530999,-4.3922,-0.9888,2.5062982999999996,4.2634315,2.0471766,-1
605,606,1583237925665,-1.2238,-4.1763997,-0.6439,2.38089,4.5262575,2.193223,-1
606,607,1583237925675,-1.1044999,-4.3349,-0.6092,2.4421527000000003,4.367139,1.9694512,-1
607,608,1583237925685,-1.1044999,-4.3349,-0.6092,2.6666236,4.1149817,1.2662646,-1
608,609,1583237925695,-0.4219,-5.0085998,-2.3025,2.8907304,3.9356367999999997,-0.2896218,-1
609,610,1583237925705,-0.3442,-5.1119,-3.3974998,2.8064353,3.9074616,-1.5851531,-1
610,611,1583237925716,-0.5633,-5.3157997,-4.3757997,2.4637485,3.7767766000000003,-2.6657040000000003,-1
611,612,1583237925726,-0.78599995,-5.6282997,-4.7077,2.1800162999999997,3.5183752,-2.9974735,-1
612,613,1583237925736,-0.9086,-5.8525996,-4.2191,1.9570109,3.3904195,-2.5854602000000004,-1
613,614,1583237925746,-1.1891999,-5.8127,-3.5832998999999996,1.6192847,3.5104167,-2.1778998,-1
614,615,1583237925756,-1.3045,-5.7159,-3.4441,1.532586,3.617658,-2.3356395,-1
615,616,1583237925767,-0.95049995,-5.826699700000001,-3.7217,1.9409793999999998,3.4324138,-2.7743914000000003,-1
616,617,1583237925777,-0.52709997,-6.1843,-3.8913,2.1941613999999996,3.097848,-2.9252834,-1
617,618,1583237925787,-0.56009996,-6.4275,-3.6381,2.0461328,2.9432400000000003,-2.6198409,-1
618,619,1583237925797,-0.57879996,-6.586899799999999,-3.1546998,2.181568,2.7874252999999998,-2.0884812,-1
619,620,1583237925807,-0.0971,-6.565,-2.4586,2.7799652000000004,2.9500396,-1.3765126,-1
620,621,1583237925818,0.3852,-6.3926997000000005,-1.7103,3.0180445,3.0567922999999997,-0.78040445,-1
621,622,1583237925828,0.3715,-6.258899700000001,-1.2081,2.8420419999999997,3.2448905,-0.45416093,-1
622,623,1583237925838,0.3715,-6.258899700000001,-1.2081,2.3819146,3.2962508,-0.92528236,-1
623,624,1583237925848,-0.5313,-6.1770000000000005,-1.9085,1.7368017,3.2669458,-1.3602992,-1
624,625,1583237925858,-1.054,-6.1081,-1.9994999,1.499048,3.4529366,-1.3547255,-1
625,626,1583237925868,-0.9138,-5.7598,-1.9366,2.0747193999999998,3.8141165,-1.3072437,-1
626,627,1583237925879,0.1116,-5.3466997,-1.8389,3.5335638999999994,4.296366,-1.083089,-1
627,628,1583237925889,1.2136999,-4.968499700000001,-1.4201,4.486935,4.7308946,-0.43762177,-1
628,629,1583237925899,1.9504999,-4.4417,-0.8109999999999999,4.9217699999999995,5.1759005,-0.12415372599999999,-1
629,630,1583237925909,2.1622999,-3.8572998,-0.72889996,5.0166283,5.8504043,-0.30025205,-1
630,631,1583237925919,2.0664,-3.2942998,-0.9165,4.817085700000001,6.430471400000001,-0.42453027,-1
631,632,1583237925930,1.7601999,-2.7231,-1.0619,4.596809400000001,6.882573,-0.7218518,-1
632,633,1583237925940,1.5654,-2.3295999,-1.3909999,4.5002947,7.223153,-0.95352435,-1
633,634,1583237925950,1.5103999,-1.9955,-1.4733,4.546206,7.413396400000001,-0.94660985,-1
634,635,1583237925960,1.5946,-1.819,-1.3772,4.8363543,7.5684643,-0.7198981,-1
635,636,1583237925970,1.9065,-1.6920998999999999,-1.0733,5.184012,7.691832499999999,-0.40015727,-1
636,637,1583237925980,2.1526,-1.5561,-0.8092,5.25239,7.921245,-0.37202063,-1
637,638,1583237925991,2.0307999,-1.2055,-0.92609996,4.961188,8.469355,-0.7227233000000001,-1
638,639,1583237926001,1.7757,-0.7475,-1.2443,4.8230143,8.682677,-0.9191053,-1
639,640,1583237926011,1.6107999,-0.59319997,-1.395,4.5018080000000005,8.777249000000001,-0.7283928000000001,-1
640,641,1583237926021,1.2307999,-0.4676,-1.1585,4.0128255,8.801517,-0.16124469,-1
641,642,1583237926031,0.7632,-0.4789,-0.5746,4.0122029999999995,8.724289,0.5551961999999999,-1
642,643,1583237926042,0.8422,-0.5582,0.0655,4.181339299999999,8.741355,1.1322371999999998,-1
643,644,1583237926052,0.9661,-0.48029998,0.5577,4.2582603,8.964398,1.1597416,-1
644,645,1583237926062,1.0009,-0.2173,0.4655,4.2284093,9.23254,0.6998251,-1
645,646,1583237926073,0.93899995,0.053799997999999995,-0.0201,4.273593,9.438346000000001,0.21619642,-1
646,647,1583237926083,1.0156,0.295,-0.6085,4.4172254,9.6263,-0.49790779999999996,-1
647,648,1583237926094,1.1032,0.41869998,-1.1173999,4.3262553,9.660134,-0.74282503,-1
648,649,1583237926104,0.9772,0.4446,-1.2809,4.048681299999999,9.624796,-0.44185472,-1
649,650,1583237926114,0.68689996,0.4218,-0.99179995,3.7218440000000004,9.488758,0.06186617,-1
650,651,1583237926124,-0.12799999,0.07369999599999999,-0.047399998,3.1816354,9.246503,0.6669958,-1
651,652,1583237926134,-0.442,0.0925,0.3111,2.9652667,9.307029,1.017076,-1
652,653,1583237926144,-0.40919998,0.2305,0.47599998,3.0800447,9.419613,1.1240681000000001,-1
653,654,1583237926155,-0.1665,0.3502,0.2926,3.4220037000000003,9.552798,0.82869065,-1
654,655,1583237926165,-0.1665,0.3502,0.2926,3.7660122000000005,9.679096000000001,0.59505486,-1
655,656,1583237926175,0.2599,0.52889997,-0.0448,4.184691,9.820115,0.27320716,-1
656,657,1583237926186,0.6579999999999999,0.60899997,-0.5894,4.215154599999999,9.728484,-0.0638773,d
657,658,1583237926198,0.57409996,0.6078,-0.765,4.1648765,9.725908,-0.22130086,-1
658,659,1583237926209,0.64779997,0.6554,-0.8041,4.535289,9.849401,-0.26300785,-1
659,660,1583237926219,1.1704999,0.82159996,-0.8322,5.2799234,10.077463,-0.5594866,-1
660,661,1583237926229,1.8885,1.0568,-1.3191,5.8367863,10.237089,-1.2528666000000002,-1
661,662,1583237926239,2.248,1.1825,-2.0300999,6.0310516,10.290001,-1.9334327,-1
662,663,1583237926250,2.3988,1.1974,-2.5635,6.314793,10.226057,-2.3391926,-1
663,664,1583237926260,2.7909,1.0629,-2.8402998,6.5728974000000004,10.101521,-2.4419037999999995,-1
664,665,1583237926270,3.139,0.8577,-2.7545,7.3150144,9.9281225,-2.2670696,-1
665,666,1583237926280,3.7259998,0.87689996,-2.6227,8.175462,10.105972999999999,-2.3269246,-1
666,667,1583237926290,4.6387997,1.0719,-2.6926,9.124303,10.297682,-2.4412622,-1
667,668,1583237926300,5.5646,1.2560999,-2.7972,9.735667,10.435884,-2.6641814999999998,-1
668,669,1583237926310,6.0773,1.3585,-3.0523999,9.716351,10.245124,-3.0455012000000004,-1
669,670,1583237926321,5.9667,1.0727,-3.4922998,9.322188,9.900675,-3.7313347,-1
670,671,1583237926331,5.6145997,0.72249997,-4.1619,9.034539,9.587849,-4.378075599999999,-1
671,672,1583237926341,5.3908,0.39769998,-4.7581997000000005,8.791288,9.378969,-4.714201999999999,-1
672,673,1583237926351,5.1856,0.1778,-5.0102997,8.311278999999999,9.146367,-4.7303586,-1
673,674,1583237926362,4.7141,-0.10349999,-4.9132,7.7366714000000005,8.830419000000001,-4.365846,-1
674,675,1583237926372,4.2788997,-0.4454,-4.4982,7.5649977,8.528348,-3.9426660000000004,-1
675,676,1583237926383,4.2777,-0.74829996,-4.1154,7.7599525,8.271325,-4.037553,-1
676,677,1583237926393,4.5318,-1.0015,-4.2421,7.997438000000001,8.119188000000001,-4.278314,-1
677,678,1583237926403,4.8471,-1.1761,-4.4722,8.260149,7.912636,-4.427157,-1
678,679,1583237926413,5.1857,-1.4096999,-4.6391,8.1254225,7.465571000000001,-4.6589246,-1
679,680,1583237926423,5.148,-1.8891,-4.8959,7.342461,6.898624000000001,-4.5510707,-1
680,681,1583237926434,4.4628,-2.4775999,-4.8402,6.401674,6.353138400000001,-3.73959,-1
681,682,1583237926443,3.6285,-3.0565,-4.0951,5.576383,5.650957599999999,-2.6347997000000003,-1
682,683,1583237926453,2.9154,-3.7812,-3.0753999,4.7381926,4.976454,-1.8923098999999999,-1
683,684,1583237926463,2.1836998,-4.4941998,-2.4120998,3.8972528,4.2479744,-1.5203084999999998,-1
684,685,1583237926473,1.4525,-5.2444997,-2.1204998,3.2150008999999997,3.5435717,-1.138261,-1
685,686,1583237926483,0.8859999999999999,-5.9628997,-1.8163999,2.2801034,3.0798628,-0.6528318000000001,-1
686,687,1583237926494,0.060099997,-6.4529,-1.4133999,1.3508563999999998,2.9825527999999997,-0.15948255,-1
687,688,1583237926504,-0.7708,-6.5667995999999995,-0.9959,0.66315556,2.8095383999999997,0.5315415,-1
688,689,1583237926514,-1.9819,-7.1022,0.30539998,-0.20813273,2.3877566000000003,1.5242542,-1
689,690,1583237926524,-1.9819,-7.1022,0.30539998,-0.86784065,2.0000205,2.0477703000000003,-1
690,691,1583237926534,-2.5856,-7.4817995999999996,0.6875,-1.4446901,1.5987712,2.4656734,-1
691,692,1583237926544,-3.1189999999999998,-7.8985996,1.0145998999999999,-1.8748515,1.3558078000000002,2.9296124,-1
692,693,1583237926555,-4.2176,-8.3195,2.3377,-2.7907677000000004,1.2092633999999998,4.3742642,-1
693,694,1583237926565,-5.3178997,-8.2352,3.5723998999999997,-3.9030563999999996,1.2691376,5.6881638,-1
694,695,1583237926575,-6.6456,-8.3406,4.9474,-5.3136625,1.0709169,7.297363799999999,-1
695,696,1583237926585,-8.1635,-8.5054,6.5726,-6.7510449999999995,0.8703784999999999,9.139978999999999,-1
696,697,1583237926596,-9.345699,-8.8351,8.4932995,-7.880409700000001,0.44159612,11.391525,-1
697,698,1583237926606,-10.370399,-9.083099,11.0154,-8.722469,0.23040839999999999,14.171126999999998,-1
698,699,1583237926616,-10.4676,-8.877999,13.5141,-8.572314,0.5094286,17.401356,-1
699,700,1583237926626,-10.198299,-8.3124,15.8396,-8.284636500000001,0.9811534,19.341337,-1
700,701,1583237926636,-9.8313,-7.3149,17.5767,-7.73601,1.9563118000000002,21.05121,-1
701,702,1583237926647,-9.1755,-6.3036,18.2362,-6.916609299999999,2.8364587,21.677523,-1
702,703,1583237926657,-8.4711,-5.5466,18.1821,-6.0249414,3.6052367999999997,21.469763,-1
703,704,1583237926667,-8.0487995,-4.8285,17.489,-5.473499299999999,4.302773,20.701810000000002,-1
704,705,1583237926677,-7.5376,-4.1668997,16.6318,-4.8737330000000005,4.6960444,20.061398,-1
705,706,1583237926687,-6.6549997,-3.8421,15.9452,-3.5546233999999997,5.0542555,19.267854999999997,-1
706,707,1583237926698,-5.5464,-3.3988,15.349898999999999,-2.0732445999999998,5.3840237,18.755323,-1
707,708,1583237926708,-3.9654998999999997,-3.1963,15.0145,0.039264906,5.6163373,18.562056,-1
708,709,1583237926718,-2.48,-2.6739,14.9744,1.8350311999999998,6.508934,18.431867999999998,-1
709,710,1583237926728,-0.64379996,-1.5962,14.7262,4.1752677,7.329609,17.916578,-1
710,711,1583237926739,1.6044999,-0.9264,14.027999999999999,6.4435053,7.748584700000001,16.931248,-1
711,712,1583237926749,3.389,-0.5045,12.8203,7.734832300000001,8.032767,15.248326,-1
712,713,1583237926759,4.058799700000001,-0.2101,10.965,8.146855,8.093206,13.277822,-1
713,714,1583237926769,4.1823,-0.22109999,9.091599,8.368941,7.9528103,11.575275,-1
714,715,1583237926779,4.4114,-0.2489,7.5578,9.250217999999998,8.068891,9.846652,-1
715,716,1583237926790,5.5214,-0.0222,5.7419996,10.940707000000002,8.262869,7.675733999999999,-1
716,717,1583237926800,7.1842,0.19849999,3.6007998,12.757657,8.479141,5.4622946,-1
717,718,1583237926810,8.7753,0.5013,1.4756,14.259722,8.679105999999999,3.2451583999999998,-1
718,719,1583237926820,9.9389,0.6489,-0.5793,15.275170000000001,8.663256,1.1882518999999998,-1
719,720,1583237926830,10.6054,0.60899997,-2.4448,15.664323000000001,8.567536,-0.20799868,-1
720,721,1583237926840,10.753099,0.5261,-3.8943,15.891993,8.225653999999999,-2.0333765,-1
721,722,1583237926850,10.7733,0.2629,-4.9598,16.055613,8.202746000000001,-2.9540906000000002,-1
722,723,1583237926861,10.892000000000001,0.41939998,-5.8374996,16.481023999999998,8.755021000000001,-4.1598873,-1
723,724,1583237926871,11.287,1.0257,-7.0435996,17.1403,9.165741,-5.6909019999999995,-1
724,725,1583237926881,11.809199000000001,1.4417,-8.5307,17.535795,9.32281,-7.381371499999999,-1
725,726,1583237926891,12.0571995,1.5738,-10.1605,17.377537,9.135143,-8.999842999999998,-1
726,727,1583237926902,11.7041,1.2894,-11.6194,16.744387,8.719586999999999,-10.025346,-1
727,728,1583237926911,11.0645,0.89959997,-12.4108,16.508786999999998,8.459155,-10.37829,-1
728,729,1583237926921,10.9011,0.66249996,-12.564899,16.636513,8.248569999999999,-10.2530155,-1
729,730,1583237926932,11.031799000000001,0.46399999999999997,-12.3673,16.85132,8.086962,-10.085604,-1
730,731,1583237926942,11.2715,0.2629,-12.079499,16.602037,7.736231,-9.743165,-1
731,732,1583237926952,10.8186,-0.120299995,-11.767799,15.664535,7.1314649999999995,-9.395268,-1
732,733,1583237926962,9.831099499999999,-0.79429996,-11.4024,14.497869,6.5340157,-8.993158,-1
733,734,1583237926972,8.7366,-1.344,-11.0237,13.76348,6.3266873,-8.649341,-1
734,735,1583237926982,8.1645,-1.4999,-10.715799,13.69559,6.295592,-8.106863,-1
735,736,1583237926993,8.1985,-1.5449,-10.2654,13.866948,6.2573419999999995,-7.585942,-1
736,737,1583237927003,8.3984995,-1.6292,-9.6552,13.300144,5.933368,-7.0197225,-1
737,738,1583237927013,7.8673,-1.9438,-9.214399,12.319039,5.6119223,-6.501627,-1
738,739,1583237927023,6.9308996,-2.294,-8.7181,11.261654,5.1095233,-5.985935,-1
739,740,1583237927033,5.919699700000001,-2.8235,-8.2189,10.140756,4.6042414,-5.437107599999999,-1
740,741,1583237927043,4.8508997,-3.3628,-7.6723,9.225942,4.2692065,-4.9978194,-1
741,742,1583237927053,3.7512999,-3.8107998,-7.1414,8.038762,3.7960165,-4.1593604,-1
742,743,1583237927064,2.8434,-4.2139997000000005,-6.4424,7.5435452000000005,3.6348195,-3.4875474000000004,-1
743,744,1583237927074,2.378,-4.3835998,-5.8092,7.545824499999999,3.6390620000000005,-2.8767962000000002,-1
744,745,1583237927084,2.4024,-4.3879,-5.2297997,7.9741855,3.6972508,-2.210375,-1
745,746,1583237927094,2.8483999,-4.3261,-4.6042,8.068211,3.5886595000000003,-1.3864439,-1
746,747,1583237927104,2.3687,-4.9199,-2.9083,7.293409,2.9353297,-0.16110104,-1
747,748,1583237927115,1.4477999,-5.754699700000001,-1.4372,6.3289766,2.074863,1.4477354,-1
748,749,1583237927125,1.4477999,-5.754699700000001,-1.4372,5.4844074,1.5336872,2.677934,-1
749,750,1583237927135,-0.68399996,-6.6467,1.2054,4.1761584,1.3472747999999999,4.046268,-1
750,751,1583237927145,-1.7558,-6.3385,1.9039999,3.204725,1.6887835999999998,4.7201014,-1
751,752,1583237927155,-2.1943,-5.9542,2.2059999,2.948172,2.0176225,4.96636,-1
752,753,1583237927165,-1.9324,-5.737,2.0994,3.3451786,2.1460282999999998,4.869068599999999,-1
753,754,1583237927177,-1.4771,-5.8241997,2.1591,3.9096549,1.8671325,5.293647,-1
754,755,1583237927187,-1.1915,-6.111000000000001,3.1792,4.150981,1.5294831,6.728789,-1
755,756,1583237927197,-1.3522999,-6.4767,5.1091,3.748611,1.0295163,9.029185,-1
756,757,1583237927207,-2.1025,-6.7682,7.5211,3.0787039000000003,0.8515314,11.006691,-1
757,758,1583237927218,-3.4624,-6.4097,9.6494,1.4785823999999999,1.4119469,13.259060999999999,-1
758,759,1583237927228,-4.6587,-5.5906997,10.406199,0.6745711,2.1760325000000003,13.426692000000001,-1
759,760,1583237927238,-5.2414,-4.8321,9.6972,0.449746,2.7960541,12.299388,-1
760,761,1583237927248,-4.9951,-4.5036,8.3108,0.92095363,2.7484572,11.19251,-1
761,762,1583237927258,-4.4691997,-4.4439,7.7379,1.537882,2.9559197,10.92797,-1
762,763,1583237927268,-4.0347,-4.033,7.7556,1.9030935000000002,3.1623572999999996,11.157832,-1
763,764,1583237927279,-4.0688,-4.0077,8.1131,1.7904319,2.956102,11.707732,-1
764,765,1583237927289,-4.6857,-4.2416,8.788199,0.56133497,2.6268606,12.733303,-1
765,766,1583237927299,-6.1486998,-4.2939997000000005,9.584499000000001,-1.0589938,2.477702,13.495444,-1
766,767,1583237927309,-7.6678,-4.3501997,10.1062,-1.7975667000000002,2.392947,13.794806,-1
767,768,1583237927319,-7.8795,-4.1415,10.0795,-0.8983332,2.7408054,13.549773000000002,-1
768,769,1583237927330,-6.4287,-3.5777997999999998,9.662,1.1042825,3.157914,13.252049,-1
769,770,1583237927340,-4.5976,-3.1062999,9.3027,2.7414183999999997,3.4157693,12.904842,-1
770,771,1583237927350,-3.3070998,-2.7242,8.8481,3.6669114,3.6292553,12.50436,-1
771,772,1583237927360,-2.8402998,-2.4622998,8.477,3.546943,3.4623125,12.317047,-1
772,773,1583237927370,-3.6102,-2.6506998999999998,8.2676,2.043997,3.1998026000000004,12.390884,-1
773,774,1583237927380,-5.3996,-2.6768,8.3585,0.57017434,3.0352349999999997,12.749699,-1
774,775,1583237927391,-6.4419,-2.7191,8.784599,0.5129338,2.8058321,13.749460000000001,-1
775,776,1583237927401,-5.8652,-2.8102,9.842299,2.2756314,2.4400169999999997,15.297388,-1
776,777,1583237927411,-4.2795,-2.9322999,10.9225,3.8052292000000003,2.0871406,16.226568,-1
777,778,1583237927421,-2.8178,-3.0769,11.5822,4.836546,1.8633592,16.46461,-1
778,779,1583237927431,-1.9876,-3.0598,11.477799000000001,5.1730366,1.8826853,15.871804000000001,-1
779,780,1583237927441,-1.7793,-2.8274,10.642099,5.4064045,2.0246421999999997,14.895009,-1
780,781,1583237927452,-1.4659,-2.5044,9.4803,6.260493,2.2011237,13.696529,-1
781,782,1583237927462,-0.47700000000000004,-2.1141,8.141,7.5460258,2.4993742,12.706134,-1
782,783,1583237927472,0.8088,-1.6715,7.0860996,8.937584,2.3426306,12.129475999999999,-1
783,784,1583237927482,2.2296999,-1.7808,6.4256,10.139942,1.6442898999999997,12.011489,-1
784,785,1583237927492,3.3637998,-2.3253,6.2903,10.616341,1.0806661,12.713785000000001,-1
785,786,1583237927502,3.7256,-2.6325998,6.9161,10.537695,0.75780314,13.477104999999998,-1
786,787,1583237927512,3.6929998,-2.7003,7.3911,10.7395935,0.93793327,13.500453,-1
787,788,1583237927523,4.1365,-2.2007,7.0926,11.93181,1.8001715,12.731866,-1
788,789,1583237927533,5.5571,-1.0655,6.0374,14.319414000000002,3.3110564,10.967445,-1
789,790,1583237927543,7.6850996,0.35079998,4.357599700000001,16.526321,4.1667633,9.096463,-1
790,791,1583237927553,9.9808,1.3454,2.3301,17.939764,3.5619593000000003,7.225567,-1
791,792,1583237927563,11.499599,0.83889997,0.33359998,17.23015,2.144247,5.7204947,-1
792,793,1583237927573,10.8818,-0.5185,-1.2817999,15.30751,1.1989683999999998,4.6400394,-1
793,794,1583237927583,9.0542,-1.4157,-2.4675,13.566227,1.1909333,4.2114296,-1
794,795,1583237927593,7.398,-1.4006,-2.9857,13.320228,2.3411942000000003,4.379225,-1
795,796,1583237927603,7.2377996,-0.2201,-2.8929,14.718670999999999,4.137631,4.3070154,-1
796,797,1583237927613,8.7224,1.6212,-3.0554,16.47889,5.9348526,3.5007059999999997,-1
797,798,1583237927623,10.562799,3.4652998,-3.9445,18.022660000000002,7.361021000000001,2.5721867,-1
798,799,1583237927633,12.187099,4.9354997,-4.9551,18.497871,7.128064999999999,1.9674113000000002,-1
799,800,1583237927644,12.742499,4.7174997,-5.6161,17.384949,5.4456215,1.8720167,-1
800,801,1583237927654,11.6959,3.0214999,-5.7574997,15.531320999999998,4.3405347,1.8305109,-1
801,802,1583237927664,9.8866,1.8915,-5.8194,14.092529,4.1149817,1.7429883000000002,d
802,803,1583237927674,8.4702,1.6132,-5.9124,13.560241,4.691668,1.6781056,-1
803,804,1583237927684,7.9426,2.1489,-5.9756,13.542553,5.341081,1.3183911,-1
804,805,1583237927694,7.9719996,3.0904,-6.7742996,13.520745999999999,5.6953273,0.81194085,-1
805,806,1583237927705,7.9719996,3.0904,-6.7742996,13.132943,5.813744,0.8483040000000001,-1
806,807,1583237927715,6.8437996,2.7484999,-5.9361,11.993045,5.115288700000001,2.2469487,-1
807,808,1583237927725,5.2019,1.9361999,-4.0285,10.339771,4.389395700000001,4.015814,-1
808,809,1583237927735,2.912,1.1506,-2.3181,7.986559,3.6134440000000003,5.693306,-1
809,810,1583237927746,0.6617,0.4085,-0.8344,5.879106,2.9292004,7.068526299999999,-1
810,811,1583237927756,0.6617,0.4085,-0.8344,4.7320150000000005,2.6625247000000005,7.8330235,-1
811,812,1583237927766,-1.3772,0.1917,0.5907,4.312081299999999,2.8865166,8.193216,-1
812,813,1583237927776,-0.7698,0.368,0.4694,5.21483,3.0208218,7.996509,-1
813,814,1583237927786,0.0491,0.30069998,0.44889998,5.950673,2.949618,8.022999,-1
814,815,1583237927797,1.1678,0.3796,0.7559999999999999,7.288744400000001,3.1180646,8.445661999999999,-1
815,816,1583237927807,1.8431,0.5238,1.1348,7.633404700000001,3.2329957,8.650566,-1
816,817,1583237927817,1.5907999,0.56079996,1.2004,7.295563700000001,3.2654612000000003,8.594418,-1
817,818,1583237927827,1.0712,0.54969996,1.0482,6.7464867,3.2881007000000007,8.342931,-1
818,819,1583237927838,0.6692,0.5072,0.6835,6.3533974,3.2941055,7.877067599999999,-1
819,820,1583237927848,0.32819998,0.5065,0.17119999,6.181781,3.2890394,7.3267169999999995,-1
820,821,1583237927858,0.34059998,0.4438,-0.3024,6.2199919999999995,3.2336855,6.961898,-1
821,822,1583237927868,0.368,0.3891,-0.4104,6.1851425,3.1818557000000003,7.024272,-1
822,823,1583237927878,0.3272,0.19299999,-0.12879999,6.2246084,2.879784,7.4228773,-1
823,824,1583237927888,0.5,-0.11699999999999999,0.4276,6.482483,2.7904517999999996,8.226267,-1
824,825,1583237927899,0.74979997,0.084,1.0828,6.679736,3.1619072,8.540299000000001,-1
825,826,1583237927909,0.951,0.62329996,1.1022,6.810278,3.717247,8.284666,-1
826,827,1583237927919,0.97639996,0.9855,0.7428,6.7681975,4.0311174,7.917911999999999,-1
827,828,1583237927929,0.9241,1.2839,0.27089998,6.789927499999999,4.265107599999999,7.4537059999999995,-1
828,829,1583237927939,1.0455999,1.2953,-0.1525,6.966264999999999,4.1206510000000005,7.146855,-1
829,830,1583237927949,1.2554,0.94479996,-0.131,7.234051700000001,3.6065582999999997,7.3753576,-1
830,831,1583237927959,1.4919,0.39699998,0.1287,7.260235000000001,3.4230669000000002,7.496896700000001,-1
831,832,1583237927970,1.4316,0.5322,0.1765,7.2288995,4.006658,7.3754053,-1
832,833,1583237927980,1.4674,1.1539999,0.0021,7.5009380000000005,4.772276000000001,6.9590440000000005,-1
833,834,1583237927990,1.9544,1.7157999,-0.4165,8.293688000000001,5.0486245,6.2628675000000005,-1
834,835,1583237928000,2.5758,1.8491,-1.1065,8.503572,4.9727283,5.9445443,-1
835,836,1583237928010,2.6887,1.6538999,-1.2485,8.337568,4.643132700000001,6.2712765,-1
836,837,1583237928021,2.4377,1.1608,-0.6645,7.773034,3.9960854,7.428020500000001,-1
837,838,1583237928031,1.8865,0.6224,0.415,7.195026400000001,3.7615495,8.409692,-1
838,839,1583237928041,1.2232,0.37489998,1.6272999,6.7002406,3.8814797,9.690311,-1
839,840,1583237928051,1.037,0.62619996,2.6002998,7.391561500000001,4.637281400000001,10.064813000000001,-1
840,841,1583237928061,1.9023,1.3519999999999999,2.8202,8.637188,5.399279,9.52493,-1
841,842,1583237928071,3.1360997999999998,2.049,2.1589,9.594227,6.215913,8.369458999999999,-1
842,843,1583237928082,3.9850998,2.7384,1.0487,10.374737,6.377732,7.3700614,-1
843,844,1583237928092,4.7251997,2.6058,0.22209999,10.677574,6.0513639999999995,7.0957527,-1
844,845,1583237928102,4.871299700000001,2.2101,0.1792,10.263607,6.22706,7.7725368,-1
845,846,1583237928112,4.396,2.4101,1.082,9.941568,6.694571000000001,8.988839,-1
846,847,1583237928122,4.2244997,2.7923,2.2888,10.298850999999999,7.238964999999999,10.012408,-1
847,848,1583237928133,4.6788,3.2814,3.3618998999999996,10.774989999999999,7.958537,10.999834,-1
848,849,1583237928144,5.8181,4.7795997,4.9444,11.662511,9.234724,11.7711115,-1
849,850,1583237928155,6.727999700000001,5.3115,5.3733,12.592228,9.80213,12.167161,-1
850,851,1583237928165,7.7847,5.4754996,6.0428,13.614331,10.043819000000001,12.78792,-1
851,852,1583237928175,7.7847,5.4754996,6.0428,14.092223,9.926858,13.100775,-1
852,853,1583237928185,8.4433,4.8550997,6.7689,13.901855,9.700539,13.309367000000002,-1
853,854,1583237928196,7.9708,4.3736997,7.2759,13.288182999999998,9.384858,13.704467999999999,-1
854,855,1583237928206,7.351999799999999,3.6125,7.3824,12.57361,8.81907,13.550042000000001,-1
855,856,1583237928216,6.5055,2.6497998,6.7523,11.547235,8.08339,12.663105,-1
856,857,1583237928226,5.4403996,1.61,6.0325,10.196138000000001,7.213653,11.692286,-1
857,858,1583237928236,4.5375,0.7202,5.6593,9.250860000000001,6.718858,11.257067999999999,-1
858,859,1583237928247,3.8251998,0.1648,5.5200996,8.564796000000001,6.5465617,10.910414999999999,-1
859,860,1583237928257,3.4510998999999996,-0.19039999,5.2896,8.131427,6.4709907,10.325377,-1
860,861,1583237928267,3.1523,-0.5988,4.887,7.748738,6.314448400000001,9.822605000000001,-1
861,862,1583237928278,2.4331,-1.1379,4.6124,6.599148,5.965221,9.240249,-1
862,863,1583237928288,1.5228,-1.7172999,4.4112,5.591762999999999,5.7081027,8.744381,-1
863,864,1583237928298,0.85319996,-2.0582,4.1784,4.923024,5.663733000000001,8.351061999999999,-1
864,865,1583237928308,0.5409,-2.3819999999999997,4.2295,4.433937,5.465043,8.220607000000001,-1
865,866,1583237928318,0.14400000000000002,-2.9241,4.2286,3.7196126000000005,5.078906,7.825783299999999,-1
866,867,1583237928329,-0.6012,-3.5988998,3.8441,2.4088542,4.4300776,6.9889526,-1
867,868,1583237928339,-1.5688,-4.349,3.3148,1.1244034,3.8456912000000005,6.159898,-1
868,869,1583237928349,-2.6469,-5.1059,2.7043,0.12764926,3.353271,5.586687599999999,-1
869,870,1583237928359,-3.5572998999999994,-5.8292,2.1327,-1.1950802,2.8991675,4.466718,-1
870,871,1583237928369,-4.3951,-6.1256,1.4045,-2.1690316000000003,2.9521754000000002,3.7479506000000002,-1
871,872,1583237928379,-5.0401998,-6.151,1.0696,-2.7418685000000003,2.9366417,3.4063551,-1
872,873,1583237928390,-5.205,-6.3764,0.963,-2.9221807,2.6808739,2.9123645000000002,-1
873,874,1583237928400,-5.3208,-6.7739997,0.5158,-3.3283519999999998,2.3948243,2.136921,-1
874,875,1583237928410,-5.8325,-7.3648996,-0.5518,-4.0939894,1.6370401,0.29526255,-1
875,876,1583237928420,-6.0822,-8.0899,-2.0149999,-4.024749,1.1197298999999998,-1.3377458999999998,-1
876,877,1583237928430,-5.5474,-8.4674,-3.3832998,-3.22883,1.209225,-2.7222168,-1
877,878,1583237928440,-4.6115,-8.1746,-4.4293,-2.473785,1.7490313999999998,-3.4798572,-1
878,879,1583237928450,-3.7888,-7.6854,-4.7044997,-1.8033893,2.1394205000000004,-3.1568508,-1
879,880,1583237928461,-3.2889999999999997,-7.4631996,-4.0608997,-1.7482748,2.2985675,-2.0588794,-1
880,881,1583237928471,-3.2551,-7.3043,-2.8783998,-1.9698247,2.4573798,-1.1578742,-1
881,882,1583237928481,-3.4315,-7.1709,-1.9728999,-2.075246,2.5756536,-0.060257267,-1
882,883,1583237928491,-3.3718,-7.0828,-0.81149995,-1.8551425,2.5787084,1.2557492000000001,-1
883,884,1583237928501,-3.0881,-7.0793,0.4508,-1.4861863000000002,2.8675642000000003,2.0366995,-1
884,885,1583237928512,-2.6283998,-6.7109,1.0709,-0.9084462999999999,3.437585,2.1491599999999997,-1
885,886,1583237928522,-2.0307,-6.1359997,1.0713,-0.45319366,3.9509114999999997,1.807402,-1
886,887,1583237928533,-1.5859,-5.6013,0.6956,-0.010821791,4.7469645,1.2428492,-1
887,888,1583237928543,-1.0564,-4.7839,0.13589999,1.0717596999999999,5.508732299999999,0.45246583,-1
888,889,1583237928553,-0.107499994,-4.1935,-0.46109998,1.7075158,5.923495,0.057058617,-1
889,890,1583237928563,0.5498,-3.7905998,-0.7887,1.620118,6.235574,-0.6200791,-1
890,891,1583237928574,0.4991,-3.4865,-1.3571,1.2069842,6.081971,-1.2225944,-1
891,892,1583237928584,0.1215,-3.6423,-1.8992,0.34901714,5.9579997,-1.0785878999999998,-1
892,893,1583237928594,-0.7055,-3.7760000000000002,-1.7192999,-0.463211,6.322972,-0.24803929,-1
893,894,1583237928604,-1.4691,-3.4160000000000004,-0.8914,-0.7026503000000001,6.72242,0.9448764999999999,-1
894,895,1583237928614,-1.6956999,-3.0233,0.2408,-0.27971935,7.2643433,1.8027285,-1
895,896,1583237928625,-1.2702,-2.4712,1.0587,1.1735802,8.134741,1.8507371,-1
896,897,1583237928635,1.3822,-0.9145,0.6162,2.6775699,8.958768,1.2502233999999999,-1
897,898,1583237928646,2.2742,-0.36409998,-0.2182,3.355981,9.418608,0.4363289000000001,-1
898,899,1583237928656,1.8700999,-0.41489998,-0.7665,2.6674376,9.233095,-0.037751775,-1
899,900,1583237928666,0.5142,-0.8698,-0.89059997,1.222872,8.759378,-0.13312720000000003,-1
900,901,1583237928677,-0.6968,-1.276,-0.7642,-0.028969841,8.409116000000001,0.14415967,-1
901,902,1583237928687,-1.1793,-1.2982999,-0.3532,-0.25346935,8.53238,0.65966964,-1
902,903,1583237928698,-1.0095,-1.0433999,0.2608,0.048449066,8.820564,1.2440559,-1
903,904,1583237928709,-0.5591,-0.69839996,0.5923,0.6284109,9.217083,1.4138431999999999,-1
904,905,1583237928719,0.0579,-0.3033,0.43339998,1.3021009,9.640396,1.0168366,-1
905,906,1583237928729,0.5135,0.0132,-0.0438,1.6090089,9.829299,0.61581737,-1
906,907,1583237928739,0.774,0.1821,-0.4547,1.8584273,9.993205999999999,0.3584982,-1
907,908,1583237928750,0.94089997,0.35979998,-0.44739997,2.0216832,10.214813000000001,0.49885586,d
908,909,1583237928760,1.0644,0.5463,-0.2685,2.0012558,10.342788,0.607907,-1
909,910,1583237928770,0.9695,0.5944,-0.3302,1.8741523000000002,10.279975,0.34813607,-1
910,911,1583237928780,0.7834,0.5141,-0.5557,1.6610683000000002,10.225903500000001,0.35568259999999996,-1
911,912,1583237928791,0.6895,0.48259997,-0.4292,1.5884954,10.117495,0.5426123,-1
912,913,1583237928800,0.5771,0.34329998,-0.2166,1.325229,10.00738,0.7630416999999999,-1
913,914,1583237928811,0.21059999,0.24329999,0.0721,0.832167,9.976417999999999,1.125926,-1
914,915,1583237928822,-0.28309998,0.22199999,0.45709997,0.30683130000000003,10.01215,1.4359273000000001,-1
915,916,1583237928832,-0.6125,0.29889998,0.6173,0.43214384,10.217725,1.2505107,-1
916,917,1583237928843,-0.355,0.5226,0.3617,1.214636,10.530005000000001,0.696933,-1
917,918,1583237928853,0.33409998,0.78669995,-0.1042,1.9335476999999999,10.72635,0.23840503,-1
918,919,1583237928863,1.0555999,0.9819,-0.55869997,2.1407418,10.624385,0.07918104,-1
919,920,1583237928873,1.2764,0.88229996,-0.71349996,1.6408519,10.330051,0.48060247,-1
920,921,1583237928883,0.8059999999999999,0.5760000000000001,-0.3141,0.6879499,9.795666,1.2930796,-1
921,922,1583237928893,-0.101399995,0.043199997000000004,0.49449998,-0.6207590000000001,9.012073,1.8904330000000003,-1
922,923,1583237928904,-1.3338,-0.745,1.0899,-1.8154944,8.375032000000001,2.3203259999999997,-1
923,924,1583237928913,-2.4766998,-1.3865,1.5238999,-2.3122435,8.170816,2.6354225,-1
924,925,1583237928923,-2.9696999,-1.6057999,1.8923,-2.2854187,8.076312,2.6567017999999996,-1
925,926,1583237928933,-2.8253,-1.7651999,1.8270998999999999,-2.3151547999999997,7.475693700000001,2.4908986,-1
926,927,1583237928943,-2.8614,-2.296,1.6905999,-3.0826974,6.650489,2.558875,-1
927,928,1583237928953,-3.5911998999999994,-3.1189999999999998,1.7272999,-4.6322155,5.4067680000000005,3.2887042,-1
928,929,1583237928964,-5.1001,-4.3614,2.3941,-6.471556,3.9297852999999994,4.9565816,-1
929,930,1583237928974,-6.9034996,-5.8268,3.9812999,-8.185163000000001,2.5031187999999998,7.0086710000000005,-1
930,931,1583237928984,-9.7913,-8.44,7.7657,-9.599514,1.0894191999999998,9.19179,-1
931,932,1583237928994,-9.7913,-8.44,7.7657,-10.107841,0.358412,9.972856,-1
932,933,1583237929005,-10.8707,-9.9502,9.003099,-10.451926,-0.28844383,10.13434,-1
933,934,1583237929014,-10.8707,-9.9502,9.003099,-10.558774,-0.3867402,9.881388000000001,-1
934,935,1583237929025,-11.1307,-10.4007,8.5925,-10.35543,-0.7941854,9.769473,-1
935,936,1583237929035,-10.448899,-10.938399,8.5831995,-9.426613,-1.3709773,9.730955,-1
936,937,1583237929045,-10.448899,-10.938399,8.5831995,-8.371566,-1.8001907,9.542992,-1
937,938,1583237929055,-7.8451,-11.5701,7.8317,-6.2756815,-1.8753398999999997,8.884672,-1
938,939,1583237929066,-6.2415,-11.0928,6.9312997,-4.3544974000000005,-1.3464798999999998,7.9088144,-1
939,940,1583237929075,-4.166,-10.182799000000001,5.6836,-1.8580058999999998,-0.37762308,6.6124597000000005,-1
940,941,1583237929085,-1.5868,-8.779099,4.2757998,1.0597598999999998,1.05093,5.181091,-1
941,942,1583237929095,1.1285,-7.2233996,2.9515,4.1802187,2.5072176,3.8625752999999996,-1
942,943,1583237929105,4.1377997,-5.7307,1.4941,7.525962400000001,3.8723339999999995,2.3450822999999996,-1
943,944,1583237929115,6.5656,-4.5871997,0.0335,9.995027,4.8437285,0.995308,-1
944,945,1583237929125,7.6454997,-3.6701998999999996,-0.7683,11.179696,5.6333456,0.44272619999999996,-1
945,946,1583237929136,8.2542,-2.6882,-1.0318,12.108264,6.5227723,0.2630557,-1
946,947,1583237929146,9.3883,-1.5216,-1.6121,13.630228,7.603046000000001,-0.3292506,-1
947,948,1583237929156,10.9897995,-0.2391,-2.7317,15.482555,8.740705,-1.4201447,-1
948,949,1583237929166,12.3951,0.9575,-4.2643,17.06178,9.749361,-2.9019449,-1
949,950,1583237929176,12.3951,0.9575,-4.2643,17.870635999999998,10.221977,-4.303702400000001,-1
950,951,1583237929186,13.112599,2.0792,-6.7906,17.918446,10.627144,-5.120805000000001,-1
951,952,1583237929197,13.3494,2.7912998,-7.1979999999999995,18.84659,11.37468,-5.375012,-1
952,953,1583237929207,14.767698999999999,3.6976,-7.416,20.248291000000002,11.976764,-5.423757599999999,-1
953,954,1583237929217,16.346899,4.3375,-7.4263997,22.129099,12.484555,-5.416958,-1
954,955,1583237929227,17.2829,4.6067,-7.871,22.72261,12.526291,-5.7876763,-1
955,956,1583237929238,17.0658,4.382,-8.4229,22.100693,11.842784,-6.2080884,-1
956,957,1583237929248,15.591,3.3757,-8.7088995,20.531631,10.780458,-6.2599754,-1
957,958,1583237929258,13.948998999999999,2.4325,-8.5786,18.821566,9.813851,-5.71518,-1
958,959,1583237929268,12.6825,1.8713,-8.054299,17.918291,9.456628,-5.219628,-1
959,960,1583237929279,12.1914,1.7149999,-7.9953,17.627674,9.256480999999999,-5.148683,-1
960,961,1583237929289,12.0422,1.6199,-7.9497,17.516354,9.170396,-4.947867,-1
961,962,1583237929299,11.9337,1.5368998999999999,-7.9245,17.177134,8.840092,-5.033742,-1
962,963,1583237929309,11.2733,0.93649995,-8.0781,16.493666,8.224687,-5.0705266,-1
963,964,1583237929320,10.3786,0.1731,-8.1076,15.084954999999999,7.0083647,-4.841871,-1
964,965,1583237929330,9.4438,-0.6885,-7.9058,14.384708999999999,6.26484,-4.4073709999999995,-1
965,966,1583237929341,8.6411,-1.6149,-7.2970996,13.49598,5.259228,-3.3112671000000002,-1
966,967,1583237929351,7.9649,-2.3606,-6.4776998,12.717875,4.8502407,-2.454871,-1
967,968,1583237929361,7.1562,-2.6727998,-5.6914997000000005,11.7419405,4.595,-1.4384267,-1
968,969,1583237929371,6.1836996,-2.9257,-4.7264,10.96778,4.204036,-0.44361684,-1
969,970,1583237929381,5.504699700000001,-3.2863998,-3.8323,10.490117999999999,3.8960557000000002,0.16861883,-1
970,971,1583237929392,5.0685997,-3.5488,-3.3707,10.343602,3.6334405,0.38016093,-1
971,972,1583237929402,5.0232997,-3.8,-3.238,10.781215,3.4013273999999996,0.28250623,-1
972,973,1583237929412,5.499399700000001,-3.9979,-3.4053998,11.256109,3.3175782999999996,0.23627898,-1
973,974,1583237929422,5.8655,-3.9743998,-3.3945,11.240729,3.4704050000000004,0.60744727,-1
974,975,1583237929432,5.7553997,-3.8298,-2.9543998,10.979378,3.1291067999999997,1.949857,-1
975,976,1583237929443,5.5200996,-4.114,-1.8159,10.484496,2.8193834,3.4266388,-1
976,977,1583237929453,4.9982,-4.3796,-0.3868,9.929003999999999,2.6879318,4.6453066,-1
977,978,1583237929464,4.4101,-4.4837,0.81839997,9.556092,2.3795395,5.789994,-1
978,979,1583237929474,3.9984,-4.7594,1.9595,9.010578,2.1221821,6.9533076000000005,-1
979,980,1583237929484,3.3753,-4.9821,3.1562997999999998,7.838731299999999,2.1381848,8.443736,-1
980,981,1583237929495,1.265,-4.6461997,5.468899700000001,6.7604213,2.513519,9.369163,-1
981,982,1583237929505,0.4156,-3.8930998,5.9732,6.0979743,3.3048122,9.763027000000001,-1
982,983,1583237929515,0.12889999,-2.9652,5.9828,5.974606,4.198309,9.679824,-1
983,984,1583237929525,0.12889999,-2.9652,5.9828,6.358032,4.8638687,9.680073,-1
984,985,1583237929535,0.94979995,-1.7681999,6.6359997,6.9612947,5.1210346,10.668602,-1
985,986,1583237929545,1.0749999,-1.5037,8.3056,7.043684,5.292680000000001,12.535905999999999,-1
986,987,1583237929556,0.16759999,-1.5137999,10.9473,5.9688787,5.188695,15.416504000000002,-1
987,988,1583237929566,-1.2744,-1.5390999,14.172,4.5141044,5.13675,18.7038,-1
988,989,1583237929576,-1.2744,-1.5390999,14.172,3.6472597,5.6184154,20.992323000000003,-1
989,990,1583237929586,-2.73,-0.096099995,17.8815,3.5342631,6.769873599999999,21.496073000000003,-1
990,991,1583237929596,-2.5426,0.6534,16.9508,3.9141845999999996,7.4432287,20.19718,-1
991,992,1583237929607,-2.1482,1.2092,15.5056,4.358089,7.788836,18.855478,-1
992,993,1583237929617,-1.5134,1.4777,14.659498999999999,5.1431474999999995,8.162828999999999,18.513098,-1
993,994,1583237929627,-0.8337,1.9617,14.955298999999998,5.5319757,8.496763,19.15008,-1
994,995,1583237929637,-0.93899995,2.1162999,15.7399,5.1746645,8.585636000000001,20.000902,-1
995,996,1583237929648,-1.7314999,2.1095998,16.4986,4.0837326,8.559855,20.682655,-1
996,997,1583237929658,-2.6784,2.1132998,16.612799,3.251661,8.485855,20.261478,-1
997,998,1583237929668,-3.2001,1.9101,15.4609995,2.943518,8.366002,18.807854000000003,-1
998,999,1583237929678,-3.0658,1.8974999,13.7287,3.2857163000000003,8.5077,16.987379999999998,-1
999,1000,1583237929688,-2.4894,1.9943999,11.9317,3.8505945,8.613553,15.203794,-1
1000,1001,1583237929698,-1.9548999,1.9401,10.2794,4.2792425000000005,8.632764,13.336039000000001,-1
1001,1002,1583237929709,-1.5356,1.9713,8.8306,4.630472,8.765555,11.931964,-1
1002,1003,1583237929719,-1.2044,1.9508,7.4426,4.718761,8.707338,10.602454,-1
1003,1004,1583237929729,-1.074,1.8173,6.2545,4.9074817,8.718572,9.544005,-1
1004,1005,1583237929739,-0.6501,1.8562,5.2056,5.352975,8.885764,8.664788,-1
1005,1006,1583237929749,0.1318,1.9617,4.1805997,6.279723000000001,9.128728,7.564642999999999,-1
1006,1007,1583237929759,0.96879995,2.0946999,3.4722998,6.914627,9.23616,6.9903699999999995,-1
1007,1008,1583237929770,1.5696,2.039,3.1167,7.3506784,9.285403,6.754598599999999,-1
1008,1009,1583237929780,2.0846,2.1183999,3.0112997999999997,7.8521485,9.638021,6.5967535999999996,-1
1009,1010,1583237929790,2.7213,2.4419999999999997,2.8279,8.370378,9.946759,6.206681,-1
1010,1011,1583237929800,3.1973999,2.4894,2.4478,8.561292,9.9162,5.708476,-1
1011,1012,1583237929810,3.3851,2.3374,2.1498,8.590788,9.725036,5.6111374000000005,-1
1012,1013,1583237929821,3.4894,1.8785,2.181,8.610172,9.035152,5.6252629999999995,-1
1013,1014,1583237929831,3.6074,1.1621,2.2189,8.696966999999999,8.514814999999999,5.3052926,-1
1014,1015,1583237929841,3.8460998999999996,0.6099,1.9228,9.1236315,8.405841,4.6994734000000005,-1
1015,1016,1583237929851,4.4266,0.46769997,1.3968999,9.570841,8.522401,4.1292987,-1
1016,1017,1583237929861,4.9276,0.46989998,0.9590000000000001,9.672441000000001,8.477744,3.5435812000000007,-1
1017,1018,1583237929872,5.0202,0.2534,0.5063,9.214917999999999,8.135698,3.069941,-1
1018,1019,1583237929882,4.5832,-0.2395,0.20549999,8.428921,7.535558,2.8016565,-1
1019,1020,1583237929892,3.9027,-1.0060999,0.114999995,7.5698814,6.5886803,2.603091,-1
1020,1021,1583237929902,3.3384,-1.9160999,0.0753,7.1325474,6.0804777,2.3806505000000002,-1
1021,1022,1583237929913,2.9343998,-2.6151,-0.097399995,6.500545,5.6849169999999996,1.9520118000000002,-1
1022,1023,1583237929923,2.394,-3.0542998,-0.4085,5.8110623,5.492567,1.6396354,-1
1023,1024,1583237929933,1.8822999,-3.3416,-0.5804,5.150847,5.1946135,1.333149,-1
1024,1025,1583237929943,1.4548999,-3.6729,-0.6982,4.7637334000000005,4.9819317000000005,1.1029799999999998,-1
1025,1026,1583237929953,1.1101,-4.0390997,-0.86259997,4.358989,4.711434400000001,0.5971043,-1
1026,1027,1583237929963,0.8379,-4.3424997,-1.3064,4.0894594,4.630951400000001,-0.5536448,-1
1027,1028,1583237929973,0.7575,-4.4744997,-2.1025999,3.9361443999999994,4.5449033,-1.5099751000000001,-1
1028,1029,1583237929984,0.7244,-4.6303997,-2.8978999,3.4722053999999996,4.3006470000000006,-2.233225,-1
1029,1030,1583237929994,0.3691,-4.9277,-3.4673998,2.6481209999999997,3.9380019999999996,-2.771729,-1
1030,1031,1583237930004,-0.3358,-5.3475,-3.8646998,1.8486493000000002,3.4931784,-3.1370459,-1
1031,1032,1583237930014,-1.0110999,-5.8501997,-4.0985,1.0159268,3.084517,-3.2149053,-1
1032,1033,1583237930024,-1.7292,-6.2985997000000005,-4.0559998,0.10979809,2.8729270000000002,-3.3068044000000003,-1
1033,1034,1583237930034,-2.7642,-6.6794,-4.0804,-0.38452795,2.7254155,-3.5587604,-1
1034,1035,1583237930045,-3.1431,-6.9350996,-4.283,-0.85985357,2.4740912999999995,-3.8570397000000005,-1
1035,1036,1583237930055,-3.1431,-6.9350996,-4.283,-1.2048676999999999,2.2357535,-3.964597,-1
1036,1037,1583237930065,-3.9287,-7.5592,-4.4719,-1.7479109,1.9289029999999998,-4.1142535,-1
1037,1038,1583237930075,-4.2496,-7.7812,-4.4395,-2.0905308999999996,1.7182993999999998,-4.0964217000000005,-1
1038,1039,1583237930085,-4.5235,-8.0877,-4.3047,-2.4406493,1.4270208999999998,-4.000749,-1
1039,1040,1583237930095,-4.8486,-8.3419,-4.4156,-2.7855673,1.1938926,-4.193243,-1
1040,1041,1583237930105,-4.8486,-8.3419,-4.4156,-2.991402,1.0200832,-4.4099855,-1
1041,1042,1583237930116,-5.4003997,-8.6936,-4.9013,-3.4177517999999996,0.85377234,-4.670714,-1
1042,1043,1583237930126,-5.9014,-8.9191,-4.9568,-3.8995895,0.623364,-4.700583999999999,-1
1043,1044,1583237930136,-6.2995996,-9.1901,-4.831,-4.250905,0.33666307,-4.533325,-1
1044,1045,1583237930146,-6.5582,-9.564899,-4.6976,-4.486849299999999,-0.19689916,-4.382261,-1
1045,1046,1583237930156,-6.726999799999999,-10.0327,-4.6928,-4.553647,-0.60562766,-4.372731,-1
1046,1047,1583237930167,-6.7878,-10.5238,-4.5885,-4.5203967,-1.0985267,-4.1631336,-1
1047,1048,1583237930177,-6.8559,-10.9633,-4.3752,-4.463481400000001,-1.6577069,-3.7607546000000003,-1
1048,1049,1583237930187,-6.9027,-11.387099000000001,-4.2247,-4.445668,-2.1000210999999998,-3.5628593,-1
1049,1050,1583237930198,-6.9395,-11.814899,-4.275,-4.238292700000001,-2.5838224999999997,-3.4732491999999997,-1
1050,1051,1583237930208,-6.7495,-12.1730995,-4.1931,-3.9069540000000003,-2.8475580000000003,-3.195541,-1
1051,1052,1583237930218,-6.6763,-12.1763,-3.9738,-3.7689907999999996,-2.8978363999999996,-2.720426,-1
1052,1053,1583237930228,-6.8157997,-12.2456,-3.5726,-3.751465,-3.1653452,-2.1226418,-1
1053,1054,1583237930238,-6.9532,-12.5268,-3.0749,-3.6906907999999996,-3.470175,-1.5539231000000002,-1
1054,1055,1583237930249,-7.061,-12.849999,-2.4847,-3.476984,-3.9928293,-0.68144727,-1
1055,1056,1583237930259,-6.8912997,-13.182898999999999,-2.0079,-2.8472805,-4.465406400000001,-0.108237065,-1
1056,1057,1583237930269,-6.2275,-13.4998,-1.8537999,-1.9515042,-4.9230339999999995,0.27324545,-1
1057,1058,1583237930279,-5.8687,-13.6498995,-1.6751,-1.3568516000000002,-5.243589,0.9285193000000002,-1
1058,1059,1583237930289,-5.5193,-13.6595,-1.2684,-0.6243408,-5.3288517,1.5780853000000001,-1
1059,1060,1583237930299,-4.6572,-13.3754,-0.67859995,1.0799766000000002,-5.1491137,2.6994912999999996,-1
1060,1061,1583237930310,-3.1687999,-12.7659,-0.06399999599999999,3.5256440000000002,-4.591121,3.3149161,-1
1061,1062,1583237930320,-0.5433,-11.703899,0.061199997,6.349777,-3.8789802000000004,3.394614,-1
1062,1063,1583237930330,2.8082,-10.4964,-0.2236,10.5726795,-3.130754,3.2383783,-1
1063,1064,1583237930340,5.6857,-9.738,-0.6349,13.276614000000002,-3.1795096000000003,3.6628220000000002,-1
1064,1065,1583237930350,7.1443996,-9.453899,-0.1502,13.862198000000001,-3.1987782000000005,5.4509845,-1
1065,1066,1583237930360,7.5144997,-8.9249,2.4659998,14.733649,-2.9052775,9.426346,-1
1066,1067,1583237930371,8.527699,-8.0257,6.5176997000000005,16.680634,-2.141125,14.66031,-1
1067,1068,1583237930381,10.1258,-6.6243,10.2772,18.25599,-1.0618955,16.74475,-1
1068,1069,1583237930391,11.880799,-4.6309,11.8188,20.099638,1.2262144,16.715425,-1
1069,1070,1583237930401,13.0906,-2.1213,10.899799,20.842942999999998,2.6668437000000003,14.972944,-1
1070,1071,1583237930411,13.6312,-0.2006,8.1299,20.712238,3.3384747999999997,11.648729,-1
1071,1072,1583237930422,13.116098999999998,0.4351,5.3992,19.634647,3.113554,10.554254,-1
1072,1073,1583237930431,11.9536,0.5531,4.8247,18.436255,2.5040092,12.188699,-1
1073,1074,1583237930441,10.6621,0.20699999,6.6633,16.857124,1.7536665,14.687326,-1
1074,1075,1583237930451,9.1137,0.0352,9.0314,16.433378,2.2293274,16.14303,-1
1075,1076,1583237930461,9.3246,1.3266,10.3213,18.479225,3.3743496,16.638592000000003,-1
1076,1077,1583237930471,11.4344,2.4628,10.312699,20.54794,3.9118763999999997,15.774513,-1
1077,1078,1583237930481,13.3167,3.3174998999999996,9.2754,21.26481,4.2428412,14.736713,-1
1078,1079,1583237930492,13.793099,3.9017,8.1782,20.971407,4.3764668,13.930844,-1
1079,1080,1583237930502,13.401,4.3001,7.4126997,19.992283,4.36756,13.728812,-1
1080,1081,1583237930512,12.404799,4.4916,7.2426996,18.793793,4.1317406000000005,13.961864000000002,-1
1081,1082,1583237930522,11.2802,4.4122,7.4263,17.422404999999998,3.5196106,14.331892999999999,-1
1082,1083,1583237930532,9.867599499999999,3.9013,7.7962,15.532565,2.7585227000000003,14.751307999999998,-1
1083,1084,1583237930542,7.9357,3.281,8.1388,13.444332999999999,1.9649883999999997,14.906214000000002,-1
1084,1085,1583237930553,5.9114,2.5755,8.1912,11.560058999999999,1.131519,14.524770000000002,-1
1085,1086,1583237930563,4.0776997,1.8337,7.6984,9.851498,0.5603486,13.603289000000002,-1
1086,1087,1583237930573,2.7372,1.4591,6.8875,9.351838,0.34206438,12.76936,-1
1087,1088,1583237930583,2.2289999,1.2563,5.8322997,9.313234,0.17258364,11.849613,-1
1088,1089,1583237930593,2.3293998,1.1631,4.9239999999999995,9.633004,0.34433407,11.287531,-1
1089,1090,1583237930603,2.6439,1.4060999,4.4695,10.052247,0.6331131,11.073116,-1
1090,1091,1583237930614,3.1164,1.7529999,4.2105,10.021075,0.71197814,10.780486999999999,-1
1091,1092,1583237930624,3.1266,1.8677,3.8825,9.339781,0.61051184,10.546746,-1
1092,1093,1583237930634,2.4698,1.7712,3.6390998,8.5297365,0.5430145000000001,10.18887,-1
1093,1094,1583237930644,1.6583999,1.6918,3.2719,7.963297,0.36488593,9.560286999999999,-1
1094,1095,1583237930654,1.0832,1.4976,2.6461,7.5608315,0.12081142,8.737849,-1
1095,1096,1583237930665,0.6757,1.2082,1.8222,7.2684417,0.0011492167999999998,7.875353,-1
1096,1097,1583237930675,0.4323,1.0389,0.2811,7.3393679999999994,-0.0038402996000000003,7.141702700000001,-1
1097,1098,1583237930685,0.65459996,1.0322,0.0958,7.565111999999999,0.04520253,7.0722322,-1
1098,1099,1583237930695,0.909,1.1019,0.2131,7.7811937,0.11697111,7.2057905,-1
1099,1100,1583237930705,1.0066,1.1244999,0.2228,7.8233314,0.10910856,7.201471300000001,-1
1100,1101,1583237930716,0.9134,1.0248,0.1774,7.682457,0.028471847999999998,7.179406,d
1101,1102,1583237930726,0.6861,0.93369997,0.08800000000000001,7.4269,-0.08843224,7.103969599999999,-1
1102,1103,1583237930736,0.4015,0.7363,0.1344,7.15103,-0.26132232,7.214841000000001,-1
1103,1104,1583237930746,0.2004,0.4705,0.3117,6.973447999999999,-0.50385493,7.3448267000000005,-1
1104,1105,1583237930756,0.0184,0.2025,0.26369998,6.738959299999999,-0.778355,7.209449,-1
1105,1106,1583237930767,-0.1584,0.0243,0.015099999499999999,6.655689,-0.86866426,7.001460000000001,-1
1106,1107,1583237930777,-0.011899999,0.0,-0.15359999,6.832725999999999,-0.840269,6.847752000000001,-1
1107,1108,1583237930787,0.25,0.0323,-0.2502,7.0955806,-0.7498640000000001,6.7992268,-1
1108,1109,1583237930797,0.4642,0.1077,-0.2592,7.274667,-0.6814952,6.832898599999999,-1
1109,1110,1583237930807,0.5956,0.1627,-0.1365,7.340008999999999,-0.63479865,7.0235343,-1
1110,1111,1583237930817,0.5338,0.1151,0.0412,7.1982155,-0.6985418999999999,7.2056184000000005,-1
1111,1112,1583237930828,0.18169999,-0.066199996,0.2338,6.740386,-0.92206454,7.386849400000001,-1
1112,1113,1583237930838,-0.25149998,-0.3017,0.33049998,6.386418,-1.0804361,7.484610000000001,-1
1113,1114,1583237930849,-0.3884,-0.39999998,0.3762,6.3950276,-1.1113405,7.4569516,-1
1114,1115,1583237930859,-0.2554,-0.48569998,0.29979998,6.5454316,-1.1578263999999998,7.419956699999999,-1
1115,1116,1583237930869,-0.119399995,-0.4707,0.3484,6.734602000000001,-1.0253025,7.541927,-1
1116,1117,1583237930879,0.1258,-0.31739998,0.4252,6.947188000000001,-0.8345421000000001,7.4619894,-1
1117,1118,1583237930889,0.23339999,-0.16589999,0.2082,6.840808999999999,-0.6759789,7.1936855,-1
1118,1119,1583237930900,0.0734,-0.0967,-0.025799999,6.704703299999999,-0.6746765,7.1094479999999995,-1
1119,1120,1583237930910,-0.0426,-0.21599999,-0.0591,6.6048746,-0.8031876,7.165491,-1
1120,1121,1583237930920,-0.155,-0.3258,0.1389,6.553725200000001,-0.7797244000000001,7.6006136,-1
1121,1122,1583237930930,-0.0581,-0.2085,0.68649995,7.030535,-0.35173696,8.226084,-1
1122,1123,1583237930940,0.6846,0.3935,1.3634,8.198072,0.39088693,8.881932,-1
1123,1124,1583237930950,2.1297998,1.0798,1.9563999,9.926495,0.9854726,9.309403,-1
1124,1125,1583237930960,3.8514998,1.5821999,2.2444,11.654514,1.5881889999999999,9.433489999999999,-1
1125,1126,1583237930971,5.144,2.0293999,2.2853,12.340778,1.785136,9.540424,-1
1126,1127,1583237930981,5.6686997,2.0802999,2.4174,12.04113,1.548359,10.134089999999999,-1
1127,1128,1583237930991,5.2595,1.7904999,3.12,11.442473,1.4395378,11.244846,-1
1128,1129,1583237931001,4.6668997,1.6820998999999999,4.2605,10.926283999999999,1.7117776000000002,12.439266,-1
1129,1130,1583237931011,4.2606,1.9374,5.4311,11.057878500000001,2.1976953,13.472268,-1
1130,1131,1583237931021,4.5403,2.3364,6.348799700000001,11.74512,2.668807,14.073242,-1
1131,1132,1583237931032,5.343899700000001,2.7615,6.8627,12.72184,3.3779216,14.477920000000001,-1
1132,1133,1583237931042,6.4343996,3.4043998999999996,7.2103,13.911556,4.130783,14.783209,-1
1133,1134,1583237931052,7.7054996,4.0418,7.4388,15.183137,4.755488,15.035951,-1
1134,1135,1583237931062,8.999,4.488,7.667000000000001,16.103286999999998,5.201135,15.279986,-1
1135,1136,1583237931072,9.8445,4.7430997,7.8556,16.448185000000002,5.314601000000001,15.318235999999999,-1
1136,1137,1583237931083,10.0583,4.5155997,7.8718,15.992032,5.045991000000001,15.214031,-1
1137,1138,1583237931093,9.6185,4.0646,7.7953997,15.179544,4.7712226,15.190348,-1
1138,1139,1583237931103,8.809899,3.5221,7.8212,14.294437,4.3907074999999995,14.957296,-1
1139,1140,1583237931113,7.9261,2.8367999,7.6445,13.618162,4.0416517,14.385292999999999,-1
1140,1141,1583237931123,7.1050997,2.1124,6.973799700000001,12.951347,3.7488794000000003,13.445979999999999,-1
1141,1142,1583237931133,6.6253,1.5323,6.2770996,12.807417999999998,3.5489442,12.761824,-1
1142,1143,1583237931144,6.5213,0.99259996,5.6572,12.611466,3.1635833,12.403373,-1
1143,1144,1583237931154,6.1503,-0.46499997,5.0943,12.23211,2.742443,11.876198,-1
1144,1145,1583237931164,5.4965997,-1.1738,4.5859,11.459233,2.4186704,11.190011,-1
1145,1146,1583237931174,5.4965997,-1.1738,4.5859,10.280137,1.9392459,10.759647,-1
1146,1147,1583237931185,3.3058,-2.7972999,4.1734,8.891164999999999,1.5431875,10.443269,-1
1147,1148,1583237931195,2.0454,-3.6302998,3.9720998,7.614586,1.083338,9.9557705,-1
1148,1149,1583237931205,1.1177,-4.4535,3.6325998,6.6280220000000005,0.7573339,9.459424,-1
1149,1150,1583237931215,0.3829,-4.7697997,3.5237,5.900941,0.9480943000000002,9.155033999999999,-1
1150,1151,1583237931225,-0.1334,-4.7654,3.2157998,5.3000445,1.2487006999999999,8.567182,-1
1151,1152,1583237931235,-0.3265,-5.0487,2.77,5.021254,1.2933573,7.857655,-1
1152,1153,1583237931247,-0.3265,-5.0487,2.77,4.9873233,1.3272973999999997,7.202678,-1
1153,1154,1583237931257,-0.1108,-5.558399700000001,1.4383999,4.915468,1.4316847,5.725034,-1
1154,1155,1583237931267,-0.0312,-5.825,0.5776,4.720782,1.4412711,4.6068463,-1
1155,1156,1583237931277,-0.3105,-6.0741997,-0.1669,4.0572047,1.5013273,3.7298021,-1
1156,1157,1583237931287,-1.0260999,-6.2247,-0.60749996,3.0254377999999997,1.6556575,3.1165898,-1
1157,1158,1583237931297,-2.0046,-6.4495997,-0.8504,1.6556575,1.4809573999999999,2.7136647999999997,-1
1158,1159,1583237931307,-3.3291,-6.8945,-0.88949996,0.19182344,1.2976860000000001,2.5587983,-1
1159,1160,1583237931317,-4.0796,-7.1965,-0.71999997,-0.42337146,1.2399091999999998,2.5814664,-1
1160,1161,1583237931327,-4.1001,-7.407099700000001,-0.55619997,-0.55680513,1.1793741000000002,2.4278545,-1
1161,1162,1583237931337,-4.0099998,-7.4925,-0.7711,-0.6325002,1.3261292,1.8768529999999999,-1
1162,1163,1583237931347,-3.758,-7.338299799999999,-1.2442,-0.45713928,1.6334393,1.1401188,-1
1163,1164,1583237931358,-3.1165,-6.9252,-1.8037,0.17888518,2.2449852999999997,0.36516362,-1
1164,1165,1583237931368,-2.5205998,-6.6274,-2.3781,0.47122678,2.5500164,-0.43743983,-1
1165,1166,1583237931378,-2.3459,-6.4856997000000005,-3.0419998,0.24643038,2.7721026,-1.2904171999999998,-1
1166,1167,1583237931388,-2.6782,-6.4028997,-3.5347998,-0.2793363,2.8999624,-1.7540686999999997,-1
1167,1168,1583237931398,-3.0103,-6.5060997,-3.5561,-0.9532753,2.5794075,-1.6442418999999997,-1
1168,1169,1583237931408,-3.5616,-7.030999700000001,-3.0469999999999997,-1.8023548999999999,2.157396,-1.0311826,-1
1169,1170,1583237931419,-4.2093997000000005,-7.3306,-2.2995,-2.3235537999999996,2.2485385,-0.586905,-1
1170,1171,1583237931429,-4.3645,-7.062,-1.9454999,-2.154973,2.7824457000000002,-0.6166505999999999,-1
1171,1172,1583237931439,-3.7659998,-6.5105996,-1.9885,-1.2944013,3.3681917,-0.8725236999999999,-1
1172,1173,1583237931450,-2.6371999,-6.0116997,-2.2108,0.043382935,3.9150082999999998,-1.291691,-1
1173,1174,1583237931460,-1.1379,-5.41,-2.5651999,1.2890574,4.527646,-1.7320707999999998,-1
1174,1175,1583237931470,-0.1113,-4.9523,-2.8822,1.6623708,4.758543,-1.9674975,-1
1175,1176,1583237931480,-0.055999997999999995,-4.8652997000000004,-2.8662,0.9147190999999999,4.8274865,-1.5971144,-1
1176,1177,1583237931491,-0.7826,-4.8357,-2.3741999,-0.24743596,4.5940900000000005,-0.83326834,-1
1177,1178,1583237931501,-1.8851,-5.157,-1.5207,-1.5245798000000002,4.329176400000001,0.03092351,-1
1178,1179,1583237931511,-3.03,-5.348099700000001,-0.72819996,-2.3611138,4.4897504,0.5383123000000001,-1
1179,1180,1583237931521,-3.6315,-5.1537,-0.2501,-2.3630004000000002,4.912710700000001,0.8218911,-1
1180,1181,1583237931531,-3.3839998,-4.672,-0.030399999,-1.5404103,5.614767,0.7158663000000001,-1
1181,1182,1583237931542,-2.4068,-3.972,-0.2032,-0.41921514,6.120729,0.11829272,-1
1182,1183,1583237931554,-1.2916,-3.5252,-0.8225,0.89641786,6.8704205,-0.7549684,-1
1183,1184,1583237931564,-0.1955,-2.8509998,-1.5281,1.7320707999999998,7.468281299999999,-0.8868985,-1
1184,1185,1583237931575,0.8149,-2.0368,-1.2444,1.7730211999999999,7.736958500000001,-0.22463357,-1
1185,1186,1583237931585,0.2023,-1.9764999,-0.5366,0.97598195,7.7216644,0.5677227,-1
1186,1187,1583237931595,-0.78459996,-2.0834,0.2574,-0.09734824,7.6099415,1.4798752,-1
1187,1188,1583237931605,-1.7719999999999998,-2.0734,1.212,-0.9717011000000001,7.674125,2.3386467,-1
1188,1189,1583237931615,-2.171,-1.8880999,1.6703,-1.2174898,7.879289,2.6073717999999997,-1
1189,1190,1583237931625,-2.171,-1.8880999,1.6703,-0.696253,8.129186,1.9029785,-1
1190,1191,1583237931636,-1.1035,-1.3429999,-0.0316,-0.042444407999999996,8.472841,0.67504996,-1
1191,1192,1583237931646,-0.3452,-0.8344,-0.9607,0.8234043,8.989624000000001,-0.24513753,-1
1192,1193,1583237931656,0.59569997,-0.42229998,-1.4800999,1.7367636000000002,9.337234,-0.6664787,-1
1193,1194,1583237931666,1.2262,-0.1854,-1.4002,2.3320003,9.703738000000001,-0.33603102,-1
1194,1195,1583237931676,1.1801,0.20889999,-0.7883,2.0969758,9.954459,0.24969609,-1
1195,1196,1583237931686,0.5967,0.2401,-0.067499995,1.3523216999999998,9.917779,1.0684844,-1
1196,1197,1583237931697,0.0401,0.15269999,0.3015,0.8296674999999999,9.882892,1.2882625,-1
1197,1198,1583237931707,-0.38729998,0.123399995,0.31489998,0.4732954000000001,9.787392,1.2237243999999998,-1
1198,1199,1583237931717,-0.5726,0.0251,0.18859999,0.44220904,9.759167999999999,1.0562165000000001,-1
1199,1200,1583237931727,-0.4604,0.0938,0.0273,0.5604060000000001,9.89038,0.9935267,-1
1200,1201,1583237931738,-0.3145,0.29029998,0.044499997,0.74631095,10.113375999999999,1.022123,-1
1201,1202,1583237931748,-0.0942,0.5556,-0.015,0.9717585999999999,10.388622999999999,0.81692076,-1
1202,1203,1583237931758,0.1934,0.8994,-0.396,1.3579912,10.769368,0.39524440000000005,d
1203,1204,1583237931768,0.6777,1.204,-0.8279,1.8697853,10.939568,0.020197485,-1
1204,1205,1583237931778,1.0875,1.1952,-1.012,2.1564287999999996,10.875106,-0.048765097,-1
1205,1206,1583237931789,1.1911,1.1179,-0.89169997,2.0843154999999998,10.768075,0.24241771,-1
1206,1207,1583237931799,0.8621,0.93259996,-0.4743,1.5384758,10.549265,0.90071785,-1
1207,1208,1583237931809,0.35439998,0.7762,0.1472,1.0509013999999999,10.417583,1.4328723,-1
1208,1209,1583237931819,-0.13069999,0.58959997,0.657,0.62172633,10.319077,1.828854,-1
1209,1210,1583237931829,-0.25599998,0.63729995,0.7586,0.8017894,10.521597,1.7607629,-1
1210,1211,1583237931839,0.0635,0.9094,0.5822,1.2338278,10.768123,1.2713403,-1
1211,1212,1583237931850,0.5757,1.1315,-0.121,1.7248787,10.905024000000001,0.31085357,-1
1212,1213,1583237931860,0.98219997,1.1862999,-1.0261999,1.8983147,10.8063345,-0.45538676,-1
1213,1214,1583237931870,0.9948,0.95699996,-1.5472,1.609526,10.439589999999999,-0.56239796,-1
1214,1215,1583237931880,0.5779,0.5128,-1.38,0.95891607,9.939998,-0.037646427999999996,-1
1215,1216,1583237931890,-0.15089999,-0.0184,-0.7614,-0.03977248,9.257411,0.7987344,-1
1216,1217,1583237931900,-1.2824,-0.843,0.1977,-1.7585987,8.220664,2.0636678,-1
1217,1218,1583237931910,-2.6446,-1.6674,1.1559,-2.700468,7.740377400000001,2.5980917999999997,-1
1218,1219,1583237931920,-3.609,-2.1588,1.7127,-3.3760254,7.4132433,3.011264,-1
1219,1220,1583237931930,-4.016,-2.445,1.9908999,-3.5512044,7.055559,3.0616477000000004,-1
1220,1221,1583237931941,-4.1007,-2.9085999,1.8524,-3.7834133999999997,6.423403700000001,2.6933142999999995,-1
1221,1222,1583237931951,-4.4862,-3.6861,1.4929999,-4.892944,5.034747599999999,2.6805863,-1
1222,1223,1583237931961,-5.4803,-4.8542,1.6588,-6.479064,3.6092687000000003,3.4846934999999997,-1
1223,1224,1583237931971,-7.2988,-6.4895,2.6365,-8.612269,1.7354802,5.022748,-1
1224,1225,1583237931982,-9.439799,-8.404099,4.2337,-10.655558000000001,-0.16636829,7.110434,-1
1225,1226,1583237931992,-11.417,-10.2057,6.2721995999999995,-12.084743,-1.5943947,9.141665,-1
1226,1227,1583237932002,-12.6777,-11.4835,8.1069,-12.078325999999999,-2.306143,10.683272,-1
1227,1228,1583237932012,-12.451799000000001,-12.0736,9.4219,-10.947362,-2.4920287,11.3154955,-1
1228,1229,1583237932022,-11.360399000000001,-12.105599,9.7687,-9.592618,-2.1296902,10.690608000000001,-1
1229,1230,1583237932032,-10.257199,-11.6873,8.9587,-8.020144,-1.8341691000000002,9.555173,-1
1230,1231,1583237932043,-9.158999,-11.4529,8.0791,-6.7924074999999995,-1.8334414,9.133792999999999,-1
1231,1232,1583237932053,-7.9312997,-11.4662,7.6401997,-5.5163364,-2.2781978,8.555660000000001,-1
1232,1233,1583237932063,-7.2042,-11.831599,7.2137,-4.4329505,-2.718865,7.927834,-1
1233,1234,1583237932073,-6.4185,-12.2216,6.6289,-2.9501352,-2.8627279,7.247650999999999,-1
1234,1235,1583237932083,-4.7864,-12.288099,5.797000000000001,-0.28998572,-2.5152812,6.162972,-1
1235,1236,1583237932093,-2.3416,-11.6727,4.6032,3.774459,-0.6601676,4.335076,-1
1236,1237,1583237932103,0.695,-9.8723,3.0444999,6.545508,1.1818163000000002,3.7552477999999994,-1
1237,1238,1583237932113,3.7587,-7.4462,2.3855999,10.266998,3.61082,4.174846,-1
1238,1239,1583237932123,6.3964996,-5.292000000000001,2.7310998,11.975462,4.7760973,4.509862,-1
1239,1240,1583237932133,8.028399,-3.7338,3.0182998,12.9890995,5.615131,4.3530703,-1
1240,1241,1583237932144,8.421,-2.9199998,2.7323,13.797889999999999,6.2295117,3.7683682000000003,-1
1241,1242,1583237932154,8.9227,-2.1272,2.0635,16.293013000000002,7.428691000000001,2.910564,-1
1242,1243,1583237932164,11.130099000000001,-0.73789996,1.1302,19.909407,9.178757000000001,1.9435267,-1
1243,1244,1583237932174,14.4467,1.2229999,0.1108,23.579285000000002,11.385386,0.513269,-1
1244,1245,1583237932184,20.509498999999998,5.7511,-3.3734998999999997,26.930977000000002,13.577872,-1.83732,-1
1245,1246,1583237932194,21.4403,7.0024,-5.0221,27.573675,14.451841,-3.292123,-1
1246,1247,1583237932204,21.4403,7.0024,-5.0221,26.470083000000002,14.415488,-3.9118477999999994,-1
1247,1248,1583237932219,18.1554,6.6036997,-6.5204997,24.340662,13.539105,-4.5183372,-1
1248,1249,1583237932229,17.3036,6.1412,-6.9255,24.018862,13.070646,-4.9164642999999995,-1
1249,1250,1583237932239,17.6786,6.1436996,-7.1401997,24.64167,13.021221,-5.223449,-1
1250,1251,1583237932249,18.062898999999998,6.0119,-7.5712,24.441582,12.584872,-5.6714425,-1
1251,1252,1583237932260,17.3473,5.4441,-7.9494,23.360323,11.829894,-6.134117,-1
1252,1253,1583237932270,16.1539,4.6042,-8.526,21.995417,10.759801,-6.939316000000001,-1
1253,1254,1583237932280,14.630099,3.2988,-9.340199,20.251095,9.178908999999999,-7.752866,-1
1254,1255,1583237932290,12.795099,1.5603,-10.0462,18.17674,7.4781647,-8.4327135,-1
1255,1256,1583237932300,10.5967,-0.1647,-10.571,15.191172,5.488774299999999,-8.771761999999999,-1
1256,1257,1583237932310,8.1181,-1.8705,-10.690599,12.779367,3.9938252,-8.651342,-1
1257,1258,1583237932321,5.8499,-3.3630998,-10.4874,11.264671,3.1692815,-8.424506,-1
1258,1259,1583237932331,4.3013997,-4.2432,-10.108399,10.22193,2.6374621,-8.000656,-1
1259,1260,1583237932341,3.7689,-4.6429,-9.7238,10.117455999999999,2.3701065,-7.8324110000000005,-1
1260,1261,1583237932351,3.7333,-4.9641,-9.5039,9.998991,2.059339,-7.7487288,-1
1261,1262,1583237932361,3.6222,-5.3577,-9.3671,9.763708,1.4972571000000001,-7.6832232000000005,-1
1262,1263,1583237932371,3.3825,-5.9844,-9.2023,9.365533000000001,0.8186542,-7.458551400000001,-1
1263,1264,1583237932382,2.9684,-6.7173996,-8.8626995,8.835706,0.10244310000000001,-6.8324194,-1
1264,1265,1583237932392,2.4594998,-7.437999700000001,-8.085,8.106413,-0.514083,-5.8465543,-1
1265,1266,1583237932402,1.6882,-8.066299,-7.0515,7.194145,-0.98687077,-4.710831,-1
1266,1267,1583237932412,0.838,-8.5224,-5.9164996,6.569507000000001,-1.2853799,-3.4473536,-1
1267,1268,1583237932422,0.3441,-8.8026,-4.6324997,6.431707,-1.4355632999999999,-2.2130563,-1
1268,1269,1583237932433,0.3206,-8.9935,-3.0465999,6.726126700000001,-1.7866011999999998,-0.1044255,-1
1269,1270,1583237932443,0.5819,-9.263,-1.6546999,6.893960000000001,-2.062097,1.1422545,-1
1270,1271,1583237932453,0.7484,-9.526,-0.48279998,6.811772,-2.394173,2.2085361,-1
1271,1272,1583237932463,0.62659997,-9.9318,0.78429997,6.4006205000000005,-2.82579,3.8160799,-1
1272,1273,1583237932473,0.24669999,-10.2651,2.0681998999999998,5.682293,-2.7652072999999997,4.934057,-1
1273,1274,1583237932483,-0.7312,-10.1202,3.4043998999999996,3.9448686,-2.5978142999999996,6.9213404999999995,-1
1274,1275,1583237932494,-2.2396,-9.9779,5.0485,1.9586773000000002,-2.7675152,8.629431,-1
1275,1276,1583237932504,-4.2439,-10.1082,6.69,0.18593370000000004,-3.0988631,9.903539,-1
1276,1277,1583237932514,-7.0803,-10.8847,9.0206995,-0.8705892,-3.7685117999999993,11.344235000000001,-1
1277,1278,1583237932524,-7.0803,-10.8847,9.0206995,-0.94075847,-4.0868163,12.347607,-1
1278,1279,1583237932535,-7.5221,-11.137199,11.903299,-1.1368340000000001,-4.1230645,14.688044,-1
1279,1280,1583237932545,-8.3316,-10.8939,14.885698999999999,-2.105911,-3.93669,18.048796,-1
1280,1281,1583237932555,-8.3316,-10.8939,14.885698999999999,-3.7729362999999996,-3.5502849999999997,21.046402,-1
1281,1282,1583237932566,-12.441299,-9.6963,21.7065,-5.8400326,-3.0767887000000003,24.776703,-1
1282,1283,1583237932576,-13.190498999999999,-9.229,23.4842,-5.8498964,-2.7608688,26.408321,-1
1283,1284,1583237932586,-11.795199,-8.6468,24.069000000000003,-4.085466,-2.4074466,26.66818,-1
1284,1285,1583237932596,-9.0178995,-7.9044,23.8333,-0.33291855,-1.7686063000000003,25.965126,-1
1285,1286,1583237932606,-5.9456,-6.986799700000001,22.4051,2.949752,-1.1264336000000001,24.156814999999998,-1
1286,1287,1583237932616,-3.1334999,-6.1556,20.306798999999998,5.637607599999999,-0.50737923,22.099237,-1
1287,1288,1583237932627,-1.2551999,-5.0037,18.7796,7.040045,0.28146234,21.270472,-1
1288,1289,1583237932637,-0.096499994,-3.4649,18.609999,8.576357000000002,1.7523258000000002,21.51078,-1
1289,1290,1583237932647,1.1473,-1.9528999,18.8631,10.1449795,2.9581032000000005,21.590326,-1
1290,1291,1583237932657,2.9923,-0.23809999,17.8878,12.425284,4.369763,20.088522,-1
1291,1292,1583237932667,5.5534,1.2878,15.460199,15.201198999999999,5.310119,17.547249,-1
1292,1293,1583237932677,8.2522,2.3003,12.6867,17.917257,5.920008,15.030722,-1
1293,1294,1583237932688,10.6216,3.1615999,10.316299,19.61621,6.3481874000000005,13.422393,-1
1294,1295,1583237932698,11.4804,3.7826998,8.8178,20.086721,6.617851299999999,12.217075,-1
1295,1296,1583237932708,11.0288,3.9243,8.3255,19.444748,6.451722,12.195039,-1
1296,1297,1583237932718,10.7244,4.2314,8.1331,19.643929,6.981242999999999,11.95085,-1
1297,1298,1583237932728,11.9143,5.3673,7.2447,21.05078,7.8433665999999995,11.266356,-1
1298,1299,1583237932738,13.8258,6.2832,6.2261,23.146309,8.582553,10.350315,-1
1299,1300,1583237932749,15.765999999999998,6.9742,5.0551,24.6202,8.964725,9.339963000000001,-1
1300,1301,1583237932758,16.5755,7.1197996,3.7572,24.760920000000002,8.727736,8.276995,-1
1301,1302,1583237932768,15.9309,6.4866,2.7712,23.546572,7.827584,7.689754499999999,-1
1302,1303,1583237932778,14.3712,5.4919996,2.2796,21.484455,6.796985,7.592310400000001,-1
1303,1304,1583237932788,13.008699,4.8366,2.2851999,20.812231,6.634342,7.736613799999999,-1
1304,1305,1583237932798,13.1602,4.8982,2.1255999,21.533842,6.900271400000001,7.546945,-1
1305,1306,1583237932809,14.6261,5.3768997,1.6854,22.979882999999997,7.5991387,7.1554356,-1
1306,1307,1583237932819,15.9078,5.9315996,1.14,23.86732,8.032996,6.697271300000001,-1
1307,1308,1583237932829,16.2525,5.8073997,0.79359996,23.540796,7.661761299999999,6.639791499999999,-1
1308,1309,1583237932840,15.580998999999998,5.1256,0.92539996,22.44068,7.0786869999999995,6.8633237000000005,-1
1309,1310,1583237932850,14.518498999999998,4.3066998,1.0217999,21.393322,6.394482,6.7836929999999995,-1
1310,1311,1583237932860,13.5463,3.3353,0.9557,20.362782,5.6024513,6.6654477,-1
1311,1312,1583237932870,12.5119,2.3846998,0.7622,19.084814,5.1953316,6.1236977999999995,-1
1312,1313,1583237932880,11.2338,1.7748,0.1223,17.875637,4.7373877,5.234299,-1
1313,1314,1583237932891,10.1461,0.90459996,-0.5846,16.691847,4.171791000000001,4.752365599999999,-1
1314,1315,1583237932901,8.965,0.14729999,-0.7355,15.37156,3.9177663000000003,4.588229,-1
1315,1316,1583237932911,7.7303996,-0.3753,-0.8127,14.130291,3.6443005,4.231818,-1
1316,1317,1583237932921,6.5476,-1.0346999,-1.0773,12.569971,3.231272,3.6518087,-1
1317,1318,1583237932931,5.3262997,-1.6322,-1.3991,11.600845,2.9508345,3.1252952,-1
1318,1319,1583237932941,4.5548997,-2.2533,-1.7178999,11.258072,2.4455240000000003,2.782474,-1
1319,1320,1583237932951,4.3782997,-3.0412998,-1.788,11.113702,2.0835779,2.4846356,-1
1320,1321,1583237932961,4.2894998,-3.6223998,-1.8785,10.957964,1.9512936,2.096392,-1
1321,1322,1583237932971,4.2055,-3.9868998999999996,-1.9971,10.832048,1.8673624,1.8550179,-1
1322,1323,1583237932981,4.159,-4.4172997,-2.0444,10.574758000000001,1.5305556,1.4151552,-1
1323,1324,1583237932992,3.9459998999999994,-4.9628,-2.2117,9.999039,1.313507,0.61141205,-1
1324,1325,1583237933001,3.4405,-5.3705997000000005,-2.8925,9.5498,1.2713881999999999,-0.46800897,-1
1325,1326,1583237933011,3.0542,-5.6598997,-4.0791,9.096176,1.0730621,-1.9060911,-1
1326,1327,1583237933021,2.6573,-6.1724997,-5.0962996,8.362008,0.6793978,-2.8124113,-1
1327,1328,1583237933031,1.9046999,-6.7218,-5.620199700000001,7.205082000000001,0.44748586,-3.7695746,-1
1328,1329,1583237933041,1.1169,-7.0334997,-6.2841997,6.5387949999999995,0.28417256,-4.606798,-1
1329,1330,1583237933052,0.6131,-7.4498,-6.7876997,5.9994864,-0.08408437,-5.281676,-1
1330,1331,1583237933062,0.26319999,-7.9009,-7.3167995999999995,5.9560747,-0.022744916,-6.7950697,-1
