,Seq,Time,ACCx,ACCy,ACCz,ADGx,ADGy,ADGz,Keydown
0,1,1583237695791,-0.9303,-0.76989996,-0.6374,5.983225,0.8651208,5.319658,-1
1,2,1583237695801,-0.9303,-0.76989996,-0.6374,1.1866908999999999,9.668638,2.3778732000000002,-1
2,3,1583237695811,0.024999999,0.2118,0.049399998,1.1076535,9.721953,2.1091862,-1
3,4,1583237695821,-0.091699995,0.1998,-0.21579999,1.1420726,9.744238000000001,2.0827831999999997,-1
4,5,1583237695832,0.0837,0.2758,-0.1069,1.3821822,9.813345,2.1139078,-1
5,6,1583237695842,0.2856,0.2935,-0.057,1.4104625,9.756861,2.1829183,-1
6,7,1583237695852,0.2627,0.262,0.0026999997999999996,1.5599661,9.81683,2.2258031000000003,-1
7,8,1583237695862,0.41259998,0.3099,0.0503,1.6849721999999998,9.781741,2.192859,-1
8,9,1583237695873,0.5670000000000001,0.2703,-0.0689,1.6579176,9.864705,1.7867066000000003,-1
9,10,1583237695883,0.4466,0.3673,-0.45949998,1.4232572000000001,9.888148,1.4910322,-1
10,11,1583237695893,0.1721,0.3649,-0.6494,1.1040527,9.813345,1.5276061,-1
11,12,1583237695903,-0.0962,0.249,-0.48369998,0.99494404,9.735495,1.8954895,-1
12,13,1583237695913,-0.121599995,0.1854,-0.0896,1.248988,9.767644,2.3387425,-1
13,14,1583237695924,0.14400000000000002,0.21329999,0.36249998,1.537269,9.896365,2.6053990000000002,-1
14,15,1583237695934,0.4333,0.3451,0.6092,1.6668048999999998,10.09882,2.680596,-1
15,16,1583237695944,0.55219996,0.5566,0.6565,1.6693715,10.182798,2.5468848,-1
16,17,1583237695954,0.21329999,0.5162,0.33449998,1.2425906999999998,9.998904,2.3634026,-1
17,18,1583237695964,0.21329999,0.5162,0.33449998,0.9335663000000001,9.869924000000001,2.3241856,-1
18,19,1583237695975,-0.17889999,0.3326,0.248,0.5669757,9.61271,2.3758526,-1
19,20,1583237695985,-0.76309997,-0.0145,0.3363,0.25560498,9.499781,2.5024962000000004,-1
20,21,1583237695995,-0.8296,0.0477,0.5014,0.20399556,9.585617,2.6869454,-1
21,22,1583237696005,-0.6199,0.1201,0.5676,0.42430039999999997,9.657922,2.7834988,-1
22,23,1583237696015,-0.5171,0.18339999,0.7782,0.40306863,9.693845,3.0641282000000003,-1
23,24,1583237696026,-0.5171,0.18339999,0.7782,0.10213664,9.579996000000001,3.3219453999999997,-1
24,25,1583237696036,-1.1977,-0.098299995,1.4138,-0.4414429,9.339992,3.806053,-1
25,26,1583237696046,-1.7879,-0.4328,1.7075,-1.164128,8.998664,4.12927,-1
26,27,1583237696056,-2.4383,-0.64809996,1.7968998999999999,-1.8703216,8.794219,4.232958,-1
27,28,1583237696066,-2.8627,-0.9109,1.6057,-2.4160272999999997,8.468225,4.141384599999999,-1
28,29,1583237696076,-2.9821,-1.1508,1.6113,-2.534272,8.257774000000001,4.2408589999999995,-1
29,30,1583237696087,-3.0065,-1.4139,1.6978999,-2.7438700000000003,7.958451299999999,4.4196485999999995,-1
30,31,1583237696097,-3.1220999,-1.6551,1.6652,-3.0502032999999997,7.7067823,4.529964,-1
31,32,1583237696107,-3.0837,-1.7988,1.8003,-3.4040282,7.439264,5.0362797,-1
32,33,1583237696117,-3.3902,-2.0523999,2.2354998999999998,-3.8188858,7.0949387999999995,5.5289106,-1
33,34,1583237696127,-3.6330998,-2.4164999,2.5509,-4.101104299999999,6.7613883,5.8258209999999995,-1
34,35,1583237696138,-3.7796,-2.7141,2.8442,-4.317052400000001,6.3804803,6.159304,-1
35,36,1583237696148,-4.0961,-3.2182,3.0619,-4.7736645,5.767613,6.3616333,-1
36,37,1583237696158,-4.5195,-3.8695998,3.1246,-5.3216205,5.0065823,6.354268599999999,-1
37,38,1583237696168,-5.2461,-4.7569,2.9944,-6.472159400000001,3.8836538999999997,6.2317243,-1
38,39,1583237696178,-6.2124996,-5.7644997,2.8525999,-7.3817262999999995,2.8470697,6.1900935,-1
39,40,1583237696189,-6.9184,-6.7514,2.8156998,-7.880285300000001,1.9225918000000002,6.1049942999999995,-1
40,41,1583237696199,-7.245899700000001,-7.5973997,2.6934,-7.914828999999999,1.1814332,5.934144,-1
41,42,1583237696209,-6.9821,-8.233399,2.4245,-7.1925550000000005,0.68124616,5.572255,-1
42,43,1583237696220,-6.1003,-8.7091,2.0198,-6.1996317,0.17580144,5.1088624000000005,-1
43,44,1583237696230,-5.2373,-9.2316,1.6293,-5.4609346,-0.44156742,4.8543015,-1
44,45,1583237696240,-4.6814,-9.9466,1.4271,-4.8528647000000005,-1.1521568000000002,4.544788400000001,-1
45,46,1583237696250,-4.0292997,-10.6163,1.0656999,-3.6662698,-1.8686553,3.9593199999999995,-1
46,47,1583237696260,-3.12,-11.2168,0.5663,-3.0272286,-2.3977356,3.5501318,-1
47,48,1583237696270,-2.5198998,-11.972000000000001,0.082899995,-2.3008757,-3.2079623,3.0684473999999997,-1
48,49,1583237696280,-1.8866999,-12.743099,-0.3768,-1.5291575000000002,-4.10301,2.6573532,-1
49,50,1583237696291,-1.5561,-13.5187,-0.6493,-1.3740036,-4.950759,2.4741009999999997,-1
50,51,1583237696301,-1.5889,-14.3277,-0.8404,-1.1039568000000002,-5.423786,2.2390957,-1
51,52,1583237696311,-1.2638,-14.810599,-1.0911,0.68464595,-5.6312675,2.1002512,-1
52,53,1583237696321,0.45389998,-14.825398999999999,-1.1912,3.6587330000000002,-5.3336973,1.7534368000000002,-1
53,54,1583237696331,3.2775998,-14.398999,-1.6173999,6.892025500000001,-4.667276,0.84756655,-1
54,55,1583237696341,6.0357,-13.713799,-2.5916,9.29498,-4.2863774,-0.32944214,-1
55,56,1583237696351,7.9872,-13.333798999999999,-3.8272998,10.708642,-4.020908400000001,-1.5103008,-1
56,57,1583237696361,9.129499000000001,-12.8523,-5.2578998,11.885104,-3.2740134999999997,-2.6921935,-1
57,58,1583237696371,9.6767,-12.0197,-6.1182,12.406264,-2.611097,-2.6765258,-1
58,59,1583237696381,9.880799,-11.324699,-6.0162,12.812924,-2.4360904999999997,-1.6503807000000001,-1
59,60,1583237696391,10.0184,-11.042,-5.0769,13.493970000000001,-2.2392201000000003,-0.56855583,-1
60,61,1583237696402,10.6009,-10.585,-4.3603997,15.061253,-1.8230313999999999,-0.42693406,-1
61,62,1583237696412,12.0857,-9.8885,-4.6341,17.284048000000002,-0.8178785,-0.9280788000000001,-1
62,63,1583237696422,14.152598999999999,-8.5123,-5.3645997,20.127039,0.5913487,-1.3495061000000002,-1
63,64,1583237696432,16.774,-6.7686996,-6.1384,22.868275,3.0280044,-2.1871705,-1
64,65,1583237696442,18.7668,-4.4049,-7.1050997,23.514547,3.9142612999999997,-2.0898986,-1
65,66,1583237696453,19.291399,-3.1401,-7.1404996,23.078506,3.7638097000000004,-0.8827325999999999,-1
66,67,1583237696463,18.4755,-3.1831,-6.1316,21.683767,2.8520114,0.6580224,-1
67,68,1583237696473,16.9734,-3.8458,-4.9033,21.059435,2.2021773,1.8815168999999998,-1
68,69,1583237696483,16.6869,-4.1376,-3.9424,22.757845,2.2022252,2.204916,-1
69,70,1583237696493,18.1239,-3.5992,-4.227999700000001,24.446178,3.2704222,2.4360428,-1
70,71,1583237696504,19.728699,-2.1438,-4.2559,26.156147,4.345045,4.2723093,-1
71,72,1583237696514,21.3736,0.32369998,0.0865,27.175146,4.9778709999999995,7.9653273,-1
72,73,1583237696524,22.2824,0.32369998,0.0865,26.893686,5.017021,10.190671,-1
73,74,1583237696535,21.6342,1.4081,3.7503998,26.610699,5.2363105,11.374259,-1
74,75,1583237696545,22.166,2.1464,3.1734998,27.477974,5.707844000000001,10.623331,-1
75,76,1583237696555,23.3407,3.1615999,2.0993,28.79155,6.5277047,9.747733,-1
76,77,1583237696565,24.0513,4.4168997,1.9626,29.241095,7.3882766,9.993675999999999,-1
77,78,1583237696575,23.6271,5.4839,2.8139999999999996,28.739758000000002,8.057313,10.906460000000001,-1
78,79,1583237696586,22.671799,5.7263,3.6071,27.810568,7.931482300000001,11.67881,-1
79,80,1583237696596,21.290699,5.5369,4.5657997,26.438315999999997,7.4682527,12.733983,-1
80,81,1583237696606,19.4128,4.9693,6.1586,24.65523,6.740750299999999,14.334295999999998,-1
81,82,1583237696616,17.791199,4.64,7.8374996,23.21827,6.298666000000001,16.161686,-1
82,83,1583237696626,16.815699,4.1465,9.342899000000001,22.582214,5.7103434,17.255625,-1
83,84,1583237696637,15.7196,3.3221998,11.082,21.471106,4.721289,19.283524,-1
84,85,1583237696647,14.4999,2.5798,13.0805,20.298779,4.0427723,21.161476,-1
85,86,1583237696657,12.8132,1.8810999,15.2731,18.963331,3.5661154,22.814913,-1
86,87,1583237696667,10.6031,1.2271999,17.3855,16.487564000000003,3.031519,24.818228,-1
87,88,1583237696677,8.4803,0.87329996,18.5534,14.672664000000001,2.9057279,25.315360000000002,-1
88,89,1583237696687,6.7936997,0.49769998,18.5061,13.195345999999999,2.6437063,24.685522,-1
89,90,1583237696697,5.4431,-0.072399996,17.628,12.154855,2.319541,23.415857,-1
90,91,1583237696708,4.5399,-0.57739997,16.3191,11.304778,2.1026453999999997,21.855326,-1
91,92,1583237696718,3.5800998,-1.1978999,14.918099,10.387005,1.7495773000000001,20.330862,-1
92,93,1583237696728,2.6517,-1.8294,13.828099,9.482388499999999,1.448559,19.2614,-1
93,94,1583237696738,1.7560999,-2.4735,13.398999,8.439561,1.0822462,18.927437,-1
94,95,1583237696748,0.3258,-3.3822,13.4726,6.5112324,0.31473216,18.799522,-1
95,96,1583237696759,-1.0296,-4.2885,13.4592,5.5439563,0.008341399000000001,18.150806,-1
96,97,1583237696770,-1.6722,-4.8322997,12.706799499999999,4.9529138,-0.24064599,16.860428,-1
97,98,1583237696780,-2.2770998,-5.4108996,11.434299000000001,4.091748,-0.4119655,15.171492,-1
98,99,1583237696790,-2.9129,-5.8533998,9.793799,3.5032918,-0.40846997,13.304492000000002,-1
99,100,1583237696800,-3.2321,-6.1337,8.1564,3.1605380000000003,-0.31202194,11.748634,-1
100,101,1583237696810,-3.3578,-6.337000000000001,6.9448,2.710016,-0.33720896,10.482428,-1
101,102,1583237696821,-3.6387,-6.6983,6.1145,1.9736841,-0.5028781,9.688414999999999,-1
102,103,1583237696831,-4.2542,-7.1414,5.4544997,0.97132766,-0.8026992,8.869339,-1
103,104,1583237696841,-5.0018,-7.696799799999999,4.7627,0.36467522,-0.9737601,8.033533,-1
104,105,1583237696851,-5.2978,-8.0575,4.0186,0.17528429999999998,-0.92855763,7.1468929999999995,-1
105,106,1583237696861,-5.2637,-8.1713,3.2475,-0.06779421,-0.6994325,6.3095927000000005,-1
106,107,1583237696872,-5.3121,-8.116899499999999,2.5437,-0.2627397,-0.42768103,5.6321582999999995,-1
107,108,1583237696882,-5.2672,-8.0435,1.9473,-0.36345900000000003,-0.32207757,4.707029299999999,-1
108,109,1583237696892,-5.2585998,-8.1306,1.0809,-0.914451,-0.34306994,3.89279,-1
109,110,1583237696902,-5.6693,-8.293099,0.3706,-1.278973,-0.22663513,3.0085826,-1
110,111,1583237696913,-5.7578998,-8.276299,-0.43519998,-1.1775833,-0.107959345,2.0651042,-1
111,112,1583237696923,-5.4995,-8.3052,-1.1192,-0.8716044,0.06939354,1.6544796000000002,-1
112,113,1583237696933,-5.0035,-8.2134,-1.4761,-0.17731458,0.5255177,1.2169344,-1
113,114,1583237696943,-4.0947,-7.7558,-1.8702999,0.36787388,1.3401688,0.5179616,-1
114,115,1583237696953,-3.6222,-7.1601996,-2.3727,0.47918513,1.9209255,0.08702444,-1
115,116,1583237696964,-3.4248,-6.6443996,-2.7101998,0.46764505,2.2264638,-0.30567253,-1
116,117,1583237696974,-3.3639997999999998,-6.4049997,-2.9935,0.6115845,2.5321748,-0.8590779000000001,-1
117,118,1583237696984,-3.1467998,-6.1584,-3.4554,1.0950983,3.057252,-1.6718519,-1
118,119,1583237696994,-2.5983,-5.679199700000001,-4.1832,1.5458976999999998,3.5852787000000004,-2.3350937000000003,-1
119,120,1583237697004,-2.0983,-5.1931996,-4.7685,1.9190484,3.8814797,-2.768942,-1
120,121,1583237697015,-1.1539999,-4.626,-5.2002997,2.545142,4.341569,-2.9192883999999997,-1
121,122,1583237697025,-0.56159997,-4.1638,-5.0741997,3.0317392000000005,4.759491400000001,-2.7482848,-1
122,123,1583237697036,-0.53069997,-4.0326,-4.5004,2.899838,4.905393599999999,-2.1996012,-1
123,124,1583237697046,-0.8746,-3.7921,-3.9857,2.5369537,5.216908,-1.7951150000000002,-1
124,125,1583237697056,-1.008,-3.4613,-3.7438998,2.4201164,5.6046059999999995,-1.7054759999999998,-1
125,126,1583237697067,-1.0012,-3.2057,-3.8653998,2.4374217999999996,5.828310500000001,-1.8849357,-1
126,127,1583237697077,-0.91249996,-2.9364,-4.0608997,2.5865709999999997,6.1912712999999995,-2.1271524,-1
127,128,1583237697087,-0.5955,-2.5737,-4.0304,3.033626,6.589436999999999,-2.0362014999999998,-1
128,129,1583237697097,0.087,-2.1373,-3.8047998,3.9136674,7.121859599999999,-1.7923186000000002,-1
129,130,1583237697107,1.0396,-1.4909999,-3.4808,4.7749963,7.7634387,-1.4262643,-1
130,131,1583237697118,1.6693,-0.9023,-2.9977,5.282049,8.290536,-0.95732635,-1
131,132,1583237697128,1.8930999,-0.511,-2.6366,5.2394996,8.529057,-0.6966551999999999,-1
132,133,1583237697138,1.4582,-0.55399996,-2.4634,4.548639,8.363253,-0.554363,-1
133,134,1583237697148,0.62799996,-0.7958,-2.3195999,3.7501434999999996,8.176381,-0.36780685,d
134,135,1583237697158,0.023599999,-0.8809999999999999,-2.0074,3.2324405,8.141722,0.006569689,-1
135,136,1583237697168,-0.35079998,-0.75869995,-1.5651,3.0296323,8.391571,0.41281784,-1
136,137,1583237697179,-0.28,-0.45859998,-1.3145,3.2627416,8.693719999999999,0.53502744,-1
137,138,1583237697189,-0.0429,-0.2531,-1.3366,3.584886,8.929961,0.290273,-1
138,139,1583237697199,0.3556,0.0029,-1.6603,3.958008,9.151788,-0.0008140285499999999,-1
139,140,1583237697209,0.7703,0.3003,-1.8695998999999999,4.3544397,9.445433,-0.06358042,-1
140,141,1583237697219,0.9508,0.4416,-1.7619,4.437126,9.49934,0.22764070000000003,-1
141,142,1583237697229,0.9586,0.48459998,-1.3655,4.3270599999999995,9.50908,0.6558196999999999,-1
142,143,1583237697239,0.7154,0.47700000000000004,-0.94009995,3.9385288,9.463512,0.97486144,-1
143,144,1583237697249,0.2988,0.41849998,-0.7068,3.6235763999999997,9.407374,1.1527313999999997,-1
144,145,1583237697259,-0.0493,0.3787,-0.4486,3.4178184999999996,9.418655000000001,1.3639288,-1
145,146,1583237697270,-0.0288,0.3493,-0.3918,3.5048718,9.348208,1.3057113999999999,-1
146,147,1583237697280,0.1827,0.34149998,-0.54039997,3.8583328999999997,9.3389,1.1291628999999999,-1
147,148,1583237697290,0.44979998,0.35549998,-0.5463,4.238330400000001,9.441267,1.1644343000000001,-1
148,149,1583237697300,0.85209996,0.4989,-0.48929998,4.50765,9.583377,1.2629606000000002,-1
149,150,1583237697310,0.94189996,0.62259996,-0.42499998,4.5543847,9.705414,1.1670775,-1
150,151,1583237697321,0.98639995,0.7352,-0.52739996,4.568635,9.749496,1.0779558,-1
151,152,1583237697331,1.0151,0.7873,-0.6198,4.571718700000001,9.777288,1.0607654,-1
152,153,1583237697341,0.91139996,0.7301,-0.5572,4.4192656999999995,9.616206,1.2613611999999998,-1
153,154,1583237697351,0.7632,0.5441,-0.2624,4.089995399999999,9.260216999999999,1.7192379,-1
154,155,1583237697361,0.42279997,0.1999,0.118599996,3.6191517999999996,8.992459,2.0477319,-1
155,156,1583237697371,-0.032899998,-0.0276,0.4229,3.3593812000000005,8.902503999999999,2.206573,-1
156,157,1583237697382,-0.2261,-0.0784,0.5538,3.4296269999999995,8.973267,2.2032402,-1
157,158,1583237697392,-0.0806,0.019,0.511,3.6191998,9.075047999999999,1.9791046,-1
158,159,1583237697402,0.0817,0.0981,0.26229998,3.9140027,9.145994,1.6614227,-1
159,160,1583237697412,0.3998,0.1683,-0.0383,4.2958393,9.257603,1.4155287,-1
160,161,1583237697422,0.7288,0.28779998,-0.27399999999999997,4.377032,9.341389999999999,1.3208427,-1
161,162,1583237697432,0.76769996,0.3276,-0.3056,4.155214,9.1866,1.5822417,-1
162,163,1583237697443,0.46969998,0.1784,-0.0037,3.5621028,8.993972,1.8987361,-1
163,164,1583237697453,-0.0197,-0.0029,0.2549,3.3230755,8.891567,2.0002885,-1
164,165,1583237697463,-0.2935,-0.13699999999999998,0.3861,2.9755043999999997,8.87385,1.960449,-1
165,166,1583237697473,-0.58919996,-0.1344,0.34919998,2.920773,8.899208999999999,1.7148613000000001,-1
166,167,1583237697483,-0.6437,-0.111499995,0.1314,3.043902,8.921303,1.4530602,-1
167,168,1583237697493,-0.5164,-0.0964,-0.1074,3.0758883999999997,8.887497,1.2200373,-1
168,169,1583237697504,-0.4797,-0.1278,-0.3152,3.3234199999999996,8.874568,1.0569444,-1
169,170,1583237697514,-0.2386,-0.1468,-0.4763,3.6157138,8.958212,1.1652963,-1
170,171,1583237697524,0.0504,-0.0556,-0.3735,3.5748687000000006,8.991185,1.3987118,-1
171,172,1583237697534,0.0075,-0.023,-0.14829999,3.4140262999999997,8.97025,1.6988776999999997,-1
172,173,1583237697544,-0.2902,-0.1677,0.26749998,3.2689855,8.814224000000001,1.8251287,-1
173,174,1583237697554,-0.2902,-0.1677,0.26749998,3.1198459,8.648297,1.8216906000000002,-1
174,175,1583237697565,-0.4594,-0.36499998,0.2802,2.9982014,8.537963000000001,1.7846667,-1
175,176,1583237697575,-0.61,-0.4948,0.23339999,2.7943783,8.445796000000001,1.5998822,-1
176,177,1583237697585,-0.79179996,-0.5757,0.1131,2.5538277999999996,8.417889,1.5110861,-1
177,178,1583237697595,-1.0329,-0.5676,-0.122499995,2.6063185,8.470447,1.2837135,-1
178,179,1583237697606,-0.7711,-0.4669,-0.25349998,2.9268637,8.582352,1.1431163999999998,-1
179,180,1583237697616,-0.3849,-0.2759,-0.39,3.3238800000000004,8.778005,1.0093571,-1
180,181,1583237697626,-0.029299999,-0.103599995,-0.4702,3.7052667,8.946528,0.92817456,-1
181,182,1583237697636,0.2584,0.06839999599999999,-0.5212,3.9292586000000003,9.091167,0.8744295,-1
182,183,1583237697646,0.0985,0.16049999,-0.5517,3.7414095,9.169199,0.8485338,-1
183,184,1583237697657,-0.1555,0.103999995,-0.46499997,3.4558196000000003,9.0686035,0.9559472999999999,-1
184,185,1583237697667,-0.49589998,-0.0022,-0.28959998,3.1662552,8.993761,1.1312985,-1
185,186,1583237697677,-0.4556,0.087699994,-0.110599995,3.3470940000000002,9.133094,1.2727386,-1
186,187,1583237697687,-0.24219999,0.1979,-0.1122,3.5434089,9.210006,1.1767501,-1
187,188,1583237697698,-0.07,0.25939998,-0.24769999,3.7640586000000003,9.314775,0.99195606,d
188,189,1583237697708,0.23789999,0.45899999999999996,-0.4626,4.1299980000000005,9.520351,0.7596611,-1
189,190,1583237697718,0.23789999,0.45899999999999996,-0.4626,4.4102535000000005,9.585541000000001,0.49798438,-1
190,191,1583237697728,0.6681,0.64419997,-0.92399997,4.4433513,9.65232,0.3359448,-1
191,192,1583237697738,0.6681,0.64419997,-0.92399997,4.388945,9.665506,0.5175402,-1
192,193,1583237697749,0.4987,0.5653,-0.5607,4.204084,9.471922,0.9623636999999999,-1
193,194,1583237697759,0.3425,0.5309,-0.175,4.14715,9.519202,1.2771629,-1
194,195,1583237697769,0.4396,0.5753,0.0656,4.5241027,9.600912,1.3633541999999998,-1
195,196,1583237697779,0.88689995,0.6989,0.035499997,4.8779945,9.674164999999999,1.2811373,-1
196,197,1583237697789,1.2554,0.79289997,-0.0218,5.2502255,9.801563999999999,1.2419011999999998,-1
197,198,1583237697799,1.4403,0.8858,-0.0596,5.304660299999999,9.8622055,1.2292789,-1
198,199,1583237697810,1.4433,0.8886,0.0101,5.1982145,9.781157,1.5091228,-1
199,200,1583237697820,1.2448,0.8207,0.3651,4.931931,9.706899,1.8082256,-1
200,201,1583237697830,1.0009,0.7802,0.5958,4.865411,9.746067,1.8335563000000001,-1
201,202,1583237697840,1.0332,0.856,0.5171,4.939956700000001,9.843827000000001,1.736955,-1
202,203,1583237697850,1.1352,0.94089997,0.4407,5.1027713,9.9716015,1.6562321,-1
203,204,1583237697860,1.3859999,1.1427,0.38439998,5.4883239999999995,10.311855,1.6098803,-1
204,205,1583237697871,1.8153,1.4612,0.3391,5.782323,10.474737,1.5231912,-1
205,206,1583237697881,1.9165,1.5227,0.3218,5.5684342000000004,10.50319,1.7093067,-1
206,207,1583237697891,1.7304,1.5524,0.5557,5.5341682,10.551438000000001,2.0857327000000003,-1
207,208,1583237697901,1.7544,1.571,0.9623,5.590413,10.511196,2.4155962000000004,-1
208,209,1583237697911,1.8991,1.5007,1.3849,5.7995515,10.554589,2.8311912999999995,-1
209,210,1583237697921,2.2329,1.6157,1.7680999,6.3198977,10.6724415,3.2270486000000003,-1
210,211,1583237697932,2.7166997999999998,1.6607,2.0658,6.4618163,10.774003,3.2180178,-1
211,212,1583237697942,2.7553,1.7810999,1.9768,6.1381296999999995,10.917637,2.9773526,-1
212,213,1583237697952,2.4493,1.8585,1.7651,5.743163,10.800866000000001,2.8197183999999997,-1
213,214,1583237697962,2.1111,1.6977999,1.6338999,5.392623400000001,10.699475999999999,2.7081869,-1
214,215,1583237697972,1.749,1.5257,1.5218999,5.175066999999999,10.390281,2.6849248,-1
215,216,1583237697983,1.744,1.1859,1.5662,4.996114700000001,9.875574,2.7898962000000003,-1
216,217,1583237697993,1.6252999,0.7176,1.68,4.6580153,9.5192795,2.8906633999999998,-1
217,218,1583237698003,1.2660999,0.23799999,1.8167,4.262186499999999,9.068757000000002,2.951591,-1
218,219,1583237698013,0.9687,-0.22299999,1.8521999,3.8692790999999995,8.679221,2.659144,-1
219,220,1583237698023,0.7312,-0.5670000000000001,1.6223999,3.5810745,8.434389999999999,2.1119447,-1
220,221,1583237698033,0.514,-0.84279996,1.1180999,3.495391,8.107792,1.5409944,-1
221,222,1583237698044,0.5035,-1.1969,0.6006,3.3318381,7.853996799999999,1.0593864,-1
222,223,1583237698054,0.3681,-1.5609,0.065799996,2.8252537,7.303426299999999,0.6546035,-1
223,224,1583237698064,0.0117999995,-2.0621,-0.1794,2.0866232,6.6124496,0.6189585999999999,-1
224,225,1583237698074,-1.4146,-3.4838,-0.14800000000000002,1.0608133,5.8117237,0.6051201,-1
225,226,1583237698085,-2.0311,-4.0499997,-0.2182,0.32369608,5.2268295,0.45800123,-1
226,227,1583237698095,-2.0311,-4.0499997,-0.2182,-0.20488620000000002,4.678634,0.08948568,-1
227,228,1583237698105,-2.9011998,-5.2339,-0.9166,-0.6428526999999999,4.142084,-0.35824920000000005,-1
228,229,1583237698115,-3.4011,-5.8325,-1.4315,-1.2141093,3.6006975,-0.96969956,-1
229,230,1583237698125,-3.4011,-5.8325,-1.4315,-1.8318706999999999,3.0835497000000003,-1.6531866999999998,-1
230,231,1583237698135,-4.5569,-7.1123,-2.7498,-2.5332665,2.241509,-2.3918457,-1
231,232,1583237698146,-5.4179,-8.1164,-3.4745,-3.492968,1.2571092,-3.1771727000000003,-1
232,233,1583237698156,-6.3552,-9.1859,-4.223799700000001,-4.4524775000000005,0.16123512,-3.904895,-1
233,234,1583237698166,-7.2166,-10.3393,-4.7374997,-5.3363595,-0.98866165,-4.3335624,-1
234,235,1583237698176,-7.2166,-10.3393,-4.7374997,-6.290391400000001,-1.9176598000000002,-4.5320992,-1
235,236,1583237698186,-8.997499000000001,-12.1129,-5.0943,-7.117416,-2.7102842000000003,-4.52077,-1
236,237,1583237698196,-9.6345,-12.809899,-4.8661,-7.7036023,-3.4850477999999994,-4.150291,-1
237,238,1583237698206,-9.955299,-13.3245,-4.6805997,-7.876885400000001,-4.0052313999999996,-3.9889987000000002,-1
238,239,1583237698217,-10.137,-13.871699,-4.5887,-7.973448299999999,-4.6027569999999995,-3.8480663,-1
239,240,1583237698227,-10.346399,-14.4893,-4.3942,-8.042276,-5.1307836,-3.661223,-1
240,241,1583237698237,-10.595799000000001,-15.085899,-4.3975,-8.090228,-5.895961,-3.6460720999999996,-1
241,242,1583237698247,-10.5449,-15.5891,-4.3839999999999995,-7.827862,-6.298388,-3.478325,-1
242,243,1583237698257,-10.1384,-16.0731,-4.2763,-6.8342967,-6.9580674,-3.2580487999999996,-1
243,244,1583237698267,-9.062699,-16.4264,-4.4207,-5.651542,-7.2739199999999995,-3.2537775,-1
244,245,1583237698277,-8.0384,-16.4994,-4.3224998,-4.3590465,-7.475186,-2.779496,-1
245,246,1583237698287,-7.724,-16.7123,-3.9392998,-3.7531027999999997,-8.124398,-2.1262522,-1
246,247,1583237698297,-7.3128,-17.543,-3.1964998,-3.0906847,-9.195649000000001,-0.8457661,-1
247,248,1583237698307,-7.0719,-18.2802,-1.6866,-2.3121572,-10.093418,1.0317669,-1
248,249,1583237698317,-6.1584,-18.9582,-0.1695,-0.73039436,-10.980441,2.568107,-1
249,250,1583237698327,-4.6446,-19.2116,0.8716,1.5232486,-11.253993,3.735242,-1
250,251,1583237698338,-2.1290998,-18.6489,1.6803,5.051478400000001,-10.655192999999999,4.5038385000000005,-1
251,252,1583237698348,1.8843,-17.0586,1.5869,9.776416000000001,-9.19541,4.4776454,-1
252,253,1583237698358,6.0580997000000005,-14.8659,1.5997,13.989464000000002,-7.598037700000001,5.4613943,-1
253,254,1583237698368,9.254499000000001,-13.2738,3.4891998999999996,17.93825,-7.0999289999999995,9.532792,-1
254,255,1583237698378,12.2578,-12.5905,7.3209995999999995,21.227356,-6.9254103,14.02304,-1
255,256,1583237698388,14.978499,-11.573199,11.153999,23.23274,-6.2842720000000005,17.63999,-1
256,257,1583237698398,16.1815,-10.0865,13.968599,24.043482,-5.386494,19.588314,-1
257,258,1583237698409,16.8421,-8.1725,15.426499,24.649715,-4.1660639999999995,20.742128,-1
258,259,1583237698419,16.6808,-6.4912,15.5511,23.63622,-3.2769150000000002,20.755997,-1
259,260,1583237698429,15.128098999999999,-5.5120997,15.489598999999998,22.423422,-2.9271703,21.408558,-1
260,261,1583237698439,14.7725,-4.5582,16.2819,23.608458,-2.2741849999999997,22.694963,-1
261,262,1583237698449,16.7544,-3.0196,17.347399,26.143005,-0.6789094,23.670322,-1
262,263,1583237698460,19.3314,-0.5304,17.8867,28.027407,1.3899393999999998,24.123354,-1
263,264,1583237698470,20.8249,1.8484,17.8741,28.490340000000003,2.812076,23.660401999999998,-1
264,265,1583237698480,20.5873,3.5449,16.5768,26.578176000000003,3.7520683,21.376045,-1
265,266,1583237698490,17.8933,4.4697,13.674399,23.171822,3.9050674,18.329845000000002,-1
266,267,1583237698500,14.6439,4.7032,10.556,20.086184,3.6858256000000003,15.470623000000002,-1
267,268,1583237698510,11.945499,4.5969999999999995,7.8142996,17.969632999999998,3.299344,13.323339,-1
268,269,1583237698521,10.4788,4.3745,6.1593,17.03489,2.9135137,12.955494999999999,-1
269,270,1583237698531,9.995,4.2922997,6.3508,16.743351,2.9674406,14.056626000000001,-1
270,271,1583237698542,9.785999,4.5999,7.4982,16.16315,3.0681026,15.077418,-1
271,272,1583237698552,9.142099,4.7482,8.3373995,14.863559,2.6325877,15.311016,-1
272,273,1583237698562,7.7956,4.379699700000001,8.3667,13.138843,2.060517,14.878354000000002,-1
273,274,1583237698574,6.1605,3.9282,7.7763,11.359491,1.612131,13.700014999999999,-1
274,275,1583237698584,4.7897,3.6478998999999996,6.6977,10.354788000000001,1.4574559,12.117313000000001,-1
275,276,1583237698594,3.8388,3.5233998,5.0731,9.911621,1.3775278,10.315561,-1
276,277,1583237698604,3.4364998,3.445,3.2268,10.081524,1.8021348000000001,8.65456,-1
277,278,1583237698614,3.6509,3.8729,1.5243,10.525561,2.3901505000000003,7.315837400000001,-1
278,279,1583237698625,4.2873,4.6172,-0.5938,10.654524,2.567226,6.5369269999999995,-1
279,280,1583237698635,4.0195,4.5682,-0.65059996,10.317544,2.4737465,6.574813000000001,-1
280,281,1583237698645,3.635,4.1783,-0.5015,9.88609,2.0611014,6.763754,-1
281,282,1583237698655,3.1032999,3.6122,-0.0677,9.33755,1.4812733999999999,7.2731824000000005,-1
282,283,1583237698665,2.6452,3.0823998,0.48709998,8.87814,0.9862483,7.839009,-1
283,284,1583237698676,2.2086,2.7212,0.9095,8.429851,0.6493554,8.191646,-1
284,285,1583237698686,1.6958,2.3583,0.9921,7.8906946,0.33162567,8.221726,-1
285,286,1583237698696,1.1383,2.0241,0.6846,7.3579564,0.05357266,7.8525887,d
286,287,1583237698707,0.66539997,1.7601999,0.123399995,6.9517274,-0.16776649999999999,7.256997599999999,-1
287,288,1583237698717,0.5259,1.5342,-0.4475,6.9161779999999995,-0.38480565,6.624822999999999,-1
288,289,1583237698727,0.6067,1.3341,-0.7951,7.0217146999999995,-0.49383762,6.4465985,-1
289,290,1583237698737,0.7532,1.2125,-0.7536,7.15873,-0.63239485,6.6518297,-1
290,291,1583237698748,0.8559,0.9923,-0.3419,7.175796000000001,-0.8165473000000001,7.170192999999999,-1
291,292,1583237698757,0.8559,0.9923,-0.3419,7.087028999999999,-0.90112007,7.5676309999999996,-1
292,293,1583237698767,0.6574,0.5997,0.98569995,7.0363193,-1.1835688,8.530453999999999,-1
293,294,1583237698777,0.7582,0.4459,1.5056,7.133112400000001,-1.1955878,8.881215,-1
294,295,1583237698787,0.7528,0.5363,1.5986999,7.1705575,-1.0350804,8.870975999999999,-1
295,296,1583237698797,0.97859997,0.6947,1.4580000000000002,7.504442999999999,-0.7945398,8.633137,-1
296,297,1583237698808,1.2246,0.86609995,1.1197,7.656101700000001,-0.61423725,8.25584,-1
297,298,1583237698818,1.2188,0.8961,0.7977,7.6395717,-0.5590556999999999,7.9428220000000005,-1
298,299,1583237698828,1.2856,0.9440000000000001,0.4039,7.789324799999999,-0.4015938,7.5576906,-1
299,300,1583237698838,1.5232999,1.1126,0.25239998,8.110723,-0.13071384,7.6277156,-1
300,301,1583237698848,1.9821999,1.3471999,0.62759995,8.660345,0.18355866,8.182443,-1
301,302,1583237698858,2.5042999,1.5874,1.2845,9.087069,0.42404184,8.944566,-1
302,303,1583237698869,2.6441998,1.6797,2.1571999,8.9958105,0.48143566,9.821619,-1
303,304,1583237698879,2.4168,1.6365,2.9935,8.756046000000001,0.4229884,10.784002000000001,-1
304,305,1583237698889,2.3377,1.5121,3.7085,8.889394,0.45262864,11.174056,-1
305,306,1583237698899,2.7206,1.6388999,3.9297,9.623322,0.9762118000000001,11.226823,-1
306,307,1583237698909,3.5108,2.2345,3.8797998,10.660882,1.8931816000000004,11.179878,-1
307,308,1583237698919,4.5685997,3.0879,3.9257,11.658661,2.6767654,11.452242,-1
308,309,1583237698929,5.4772,3.5937997999999998,4.4072,12.470133,3.1032782,12.238805000000001,-1
309,310,1583237698940,6.1865997,3.819,5.3443,12.966641000000001,3.327586,13.244589999999999,-1
310,311,1583237698950,6.506,3.8546998999999995,6.3489,13.062064999999999,3.3683546000000004,14.264107999999998,-1
311,312,1583237698960,6.5360000000000005,3.6627998,7.3293996,13.146954999999998,3.1770577,15.040892999999999,-1
312,313,1583237698970,6.6049,3.2746,7.8992996,13.080559,3.0864038,15.357884,-1
313,314,1583237698980,6.3479,3.0670998,8.1313,12.562693,3.0683322,15.422997,-1
314,315,1583237698991,5.8557,2.7865,8.1736,12.262948,2.9367661,15.193183,-1
315,316,1583237699001,5.5467,2.36,7.9449997,11.965339,2.758896,14.877416,-1
316,317,1583237699011,5.1719,1.9016,7.7271,11.821341499999999,2.7180988999999998,14.792537,-1
317,318,1583237699021,4.7444997,1.6024,7.5386996,11.288488000000001,2.7590682999999996,14.360852,-1
318,319,1583237699032,4.4312997,1.2478,7.2444997,10.976859,2.6178967999999996,13.667913,-1
319,320,1583237699042,4.0531,0.7976,6.6541,10.465219,2.7181083999999998,12.72071,-1
320,321,1583237699052,3.5698,0.5760000000000001,5.8206997000000005,10.118613999999999,2.7323587000000003,11.971794000000001,-1
321,322,1583237699062,3.1987,0.1583,5.3322997,9.683502,2.4677133999999996,11.744172,-1
322,323,1583237699072,2.6966,-0.49929997,5.2857,8.901,2.1476467,11.26153,-1
323,324,1583237699083,1.8409,-1.2099,4.9049997,8.179742,1.8084842,10.468963,-1
324,325,1583237699093,1.2411,-1.9197999,4.3157,7.655670599999999,1.6333053,9.882767,-1
325,326,1583237699103,0.8182,-2.396,4.0934,7.3887267,1.8176875,9.822261,-1
326,327,1583237699113,0.5457,-2.5154998,4.2894998,7.344233,2.1846707000000003,10.105992,-1
327,328,1583237699124,0.5843,-2.5402,4.777199700000001,7.044478999999999,2.4044201000000003,10.116891,-1
328,329,1583237699134,0.34939998,-2.639,5.0014,6.0346519999999995,2.6687016,9.679527,-1
329,330,1583237699144,-1.1618998999999999,-2.948,4.1314,5.256384,2.6784031,8.631126,-1
330,331,1583237699154,-1.1618998999999999,-2.948,4.1314,5.007042,2.4908125,7.7079887000000005,-1
331,332,1583237699164,-1.3586,-3.4761998999999997,3.1864998,4.531295,2.3920470000000003,6.689064500000001,-1
332,333,1583237699175,-1.6925,-3.8514,2.3545,4.0243177,2.8957965,5.594579,-1
333,334,1583237699185,-2.0216,-3.5937997999999998,1.0349,3.9268355,3.198443,4.8674406999999995,-1
334,335,1583237699195,-1.9603,-3.6086998,0.7484,3.8130629999999996,3.3805650000000003,4.390286,-1
335,336,1583237699205,-1.9603,-3.6086998,0.7484,3.5832582000000004,3.2172709,4.0527225,-1
336,337,1583237699215,-2.3398,-4.79,0.24239999,3.1350062000000003,2.463892,3.4389834,-1
337,338,1583237699226,-2.6260998,-5.7275,-0.0822,2.6981695,1.7320707999999998,2.8952124,-1
338,339,1583237699236,-2.8332999,-6.3434,-0.61039996,2.4299327999999996,1.3695313,2.1781490000000003,-1
339,340,1583237699246,-2.6731,-6.4419,-0.9834,2.6058109,1.620616,1.6276165,-1
340,341,1583237699256,-2.0886,-6.0062,-1.2343,3.063295,2.1155932,1.2709093,-1
341,342,1583237699266,-1.8106999,-6.1688,-1.4585999,2.924843,1.7366869999999999,0.78463733,-1
342,343,1583237699277,-2.3822,-6.8749,-1.8736,1.8490995,1.1847564,0.136345,-1
343,344,1583237699287,-3.8033997999999998,-7.5446,-2.3676999,0.18701589,0.5983109999999999,-0.52397585,-1
344,345,1583237699297,-5.1314,-8.1924,-2.9064,-0.95679003,0.1418325,-1.1006912,-1
345,346,1583237699307,-5.4877,-8.4893,-3.116,-0.9710499,0.13180558,-1.2892106,-1
346,347,1583237699317,-4.889199700000001,-8.2664995,-2.9376,-0.17744866,0.5166687,-0.9540607,-1
347,348,1583237699328,-3.7853,-7.9093,-2.3604998999999998,0.9512642,0.96571565,-0.48580268,-1
348,349,1583237699338,-2.7968,-7.3739996,-1.8599999,1.6816107,1.5833719,-0.16352397,-1
349,350,1583237699348,-2.3263,-6.8033,-1.7183,1.9702939999999998,2.1084009999999997,-0.26260559999999994,-1
350,351,1583237699358,-2.2215,-6.4354997,-1.8563999,1.8401164,2.5155303,-0.46511679999999994,-1
351,352,1583237699369,-2.3648,-6.0848,-1.8998,1.9344001,2.9129867999999997,-0.5779124,-1
352,353,1583237699379,-2.0432,-5.6619997,-1.9528999,2.655773,3.520597,-0.63637877,-1
353,354,1583237699389,-1.0725,-5.0003,-1.9331,3.577732,4.1301993999999995,-0.73470384,-1
354,355,1583237699399,-0.37919998,-4.5627,-1.9683,3.8193934,4.3251925,-0.7854323000000001,-1
355,356,1583237699409,-0.3694,-4.5379,-1.9727,3.6031108,4.278544,-1.0208589,-1
356,357,1583237699419,-0.72969997,-4.5133,-2.1961,3.0822666,4.5180305999999995,-1.2127397,-1
357,358,1583237699430,-1.2192,-4.240999700000001,-2.2136,2.7900686,4.835358599999999,-1.1423406999999999,-1
358,359,1583237699439,-1.2746998999999999,-3.875,-2.0011,2.964826,5.3139496,-0.8318606,-1
359,360,1583237699449,-0.96779996,-3.2963,-1.5694,3.5211046,5.9762435,-0.36662892,-1
360,361,1583237699460,-0.3065,-2.6336,-1.1143,4.2382349999999995,6.567429,0.012938266,-1
361,362,1583237699470,0.18429999,-2.1346,-0.84749997,4.1842120000000005,6.8131704,0.04358405,-1
362,363,1583237699480,-0.1748,-1.9991,-0.9307,3.8342183,6.874155,-0.053017203,-1
363,364,1583237699490,-0.28509998,-1.9634,-0.9557,3.9953861000000006,6.829536999999999,0.017745823,-1
364,365,1583237699500,-0.1805,-2.0063999,-0.8566,3.9647502999999995,6.858028,0.2951572,-1
365,366,1583237699510,-0.23429999,-1.8635,-0.4702,4.076645399999999,7.1245503,0.6949506,-1
366,367,1583237699520,-0.0264,-1.5832,-0.07200000000000001,4.2489038,7.456233500000001,1.0472046999999998,-1
367,368,1583237699531,-0.018099999,-1.3113999,0.2149,4.0872087,7.6452029999999995,0.9978841,-1
368,369,1583237699541,-0.18779999,-1.1074,0.109299995,4.0663886,7.8348145,0.6029845,-1
369,370,1583237699551,-0.21339999,-0.94049996,-0.305,4.0810889999999995,7.924999000000001,0.23263022,-1
370,371,1583237699561,-0.213,-0.81009996,-0.6907,4.34765,8.159391000000001,-0.0071059903,-1
371,372,1583237699571,0.087699994,-0.5492,-0.7751,4.859492299999999,8.4687605,0.043172244000000005,-1
372,373,1583237699581,0.5621,-0.20729999,-0.72139996,5.416134400000001,8.798538,0.26260559999999994,-1
373,374,1583237699591,1.1061,0.13419999,-0.46359998,5.788978599999999,8.973171,0.6342623000000001,-1
374,375,1583237699602,1.35,0.2676,-0.102,5.666108599999999,8.949803,0.9204269,-1
375,376,1583237699612,1.081,0.23969999,0.17199999,5.022279,8.802149,0.989265,-1
376,377,1583237699622,0.387,0.060599997999999995,0.1818,4.409507,8.595346000000001,0.7750796999999999,-1
377,378,1583237699632,-0.20699999,-0.1294,-0.0398,4.0585260000000005,8.523578,0.460405,-1
378,379,1583237699643,-0.5014,-0.16,-0.3139,4.0230440000000005,8.540462,0.29068482,-1
379,380,1583237699653,-0.5284,-0.1274,-0.4182,4.431131,8.681739,0.29608613,-1
380,381,1583237699663,-0.1616,0.0277,-0.4085,5.169493,9.041884,0.39991787,-1
381,382,1583237699673,0.5316,0.4122,-0.2899,5.962032,9.41244,0.4987888,-1
382,383,1583237699684,1.4581,0.8861,-0.1771,6.7061496,9.773477,0.35014722,d
383,384,1583237699694,1.9879999,1.1902,-0.30449998,6.6454806,9.755482,0.041726146,-1
384,385,1583237699704,1.8917999,1.1840998999999999,-0.5951,6.065432,9.512182000000001,-0.1811453,-1
385,386,1583237699714,1.3073,0.94589996,-0.7675,5.3614416,9.102697000000001,0.1220181,-1
386,387,1583237699724,0.5832,0.5372,-0.4723,4.784400499999999,8.687505,0.7602165,-1
387,388,1583237699735,-0.014699998999999998,0.1042,0.37019998,4.836517,8.693519,0.90777594,-1
388,389,1583237699745,0.4662,0.3392,0.156,5.379532,8.932546,0.58786273,-1
389,390,1583237699755,1.0210999,0.5376,-0.38149998,5.9826217,9.123355,0.0064164605,-1
390,391,1583237699766,1.7317,0.90349996,-1.0078,6.7712525999999995,9.527841,-0.6835063,-1
391,392,1583237699776,2.4456,1.3756,-1.6435,7.397451400000001,9.933629,-1.2919496000000001,-1
392,393,1583237699786,2.5507,1.5287,-2.1,7.418779,10.021918,-1.7597477,-1
393,394,1583237699796,2.3242,1.3806,-2.3137,7.0168114,9.695598,-1.965697,-1
394,395,1583237699807,1.6858,0.82449996,-2.4004998,6.278861,9.060454,-2.109943,-1
395,396,1583237699817,1.1593,0.2758,-2.5368,6.0316644,8.760881,-2.2728062,-1
396,397,1583237699827,1.6265999,0.29979998,-2.7965999,6.911198,8.964705,-2.7827425,-1
397,398,1583237699837,2.8878,0.7517,-3.3809,8.385568,9.472103,-3.4321650000000004,-1
398,399,1583237699848,4.486000000000001,1.2663,-3.9296,9.687505,9.879118,-3.8943222,-1
399,400,1583237699858,6.0270996,1.7313,-4.4448,11.338355,10.375445,-4.5973654,-1
400,401,1583237699868,6.8244,1.8273,-4.9639,11.8000345,10.264258,-4.99509,-1
401,402,1583237699878,6.8466,1.4514999,-5.0608997,11.524873,9.734241,-5.052158400000001,-1
402,403,1583237699889,6.2599998,0.7025,-5.0789,10.790073,8.947322999999999,-5.177385,-1
403,404,1583237699899,5.789,0.0128999995,-5.3159,10.493403,8.429582,-5.5286136,-1
404,405,1583237699909,5.7847,-0.3947,-5.632000000000001,10.533971000000001,8.093703999999999,-5.900395,-1
405,406,1583237699919,5.9992,-0.617,-5.9028,10.857935000000001,7.9478974000000004,-6.2402185999999995,-1
406,407,1583237699929,6.4719,-0.8305,-6.2293997,11.192998,7.6707160000000005,-6.630453999999999,-1
407,408,1583237699939,6.6956997000000005,-1.2425,-6.593899700000001,11.093399,7.211833500000001,-6.9186296,-1
408,409,1583237699949,6.6056,-1.7667999,-6.754699700000001,10.847984,6.7982593,-6.868562700000001,-1
409,410,1583237699959,6.339699700000001,-2.4129999,-6.4789,10.496008,6.057071700000001,-6.3145924,-1
410,411,1583237699969,6.2609,-3.0238,-5.9308,10.404875,5.5317264,-5.7609663,-1
411,412,1583237699980,6.2223,-3.6674,-5.4287996,10.071467,4.836805,-5.1780066,-1
412,413,1583237699990,5.8543997,-4.4231,-4.7847,9.178028,4.1587477,-4.389223,-1
413,414,1583237700000,4.8641,-5.182699700000001,-4.0168,7.9163895,3.4343195,-3.541752,-1
414,415,1583237700010,3.7967,-6.0123997000000005,-3.2435,6.820113,2.6821764,-2.9141743,-1
415,416,1583237700020,2.8021998,-6.8107996,-2.6935,5.2288985,1.8090109,-2.196201,-1
416,417,1583237700031,1.689,-7.566,-2.2182999,4.3734593,1.2972743999999998,-1.8912086,-1
417,418,1583237700041,0.85349995,-8.2852,-1.9499999,3.1355999,0.34107798,-1.5244936000000002,-1
418,419,1583237700051,-0.109,-9.1531,-1.7609999,2.0003076,-0.28830975,-0.6740348,-1
419,420,1583237700061,-1.0720999,-9.717299,-0.8853,1.052989,-0.5170614,0.9858365,-1
420,421,1583237700071,-1.8513998999999999,-9.908,0.6353,0.38643375,-0.54439354,2.792166,-1
421,422,1583237700081,-2.3790998,-9.9527,2.2115998,-0.32203928,-0.6081847,4.1443825,-1
422,423,1583237700092,-3.0184999,-9.9821,3.2577999,-1.2730546,-0.24446715,4.798421,-1
423,424,1583237700102,-3.9557998,-9.5967,3.6904,-2.5968564,-0.2896601,5.177787,-1
424,425,1583237700112,-5.239,-9.7774,3.9578,-3.8719509,-0.7114706000000001,5.7431054,-1
425,426,1583237700122,-6.4474998,-10.2369995,4.5354,-5.347133,-1.3058455,7.0503497,-1
426,427,1583237700132,-7.9168,-10.8341,5.8426,-6.853728,-2.0102580000000003,8.80845,-1
427,428,1583237700142,-9.4151,-11.5168,7.4315,-8.163998,-2.3187845,10.458936999999999,-1
428,429,1583237700152,-10.6159,-11.6256,8.8647995,-8.748327,-1.8280113999999998,12.083192,-1
429,430,1583237700162,-11.110499,-10.9437,10.337299,-8.939824,-0.9053339,13.952526,-1
430,431,1583237700173,-11.290999000000001,-9.973599,12.041699000000001,-8.965471,-0.43584049999999996,16.123158,-1
431,432,1583237700182,-11.504000000000001,-9.558499000000001,13.9696,-9.444253999999999,-0.6752701999999999,18.129202,-1
432,433,1583237700192,-12.0623,-9.8206,15.7918,-9.368032000000001,-1.0421864,19.799435,-1
433,434,1583237700202,-11.903299,-10.070399,17.2475,-8.62019,-0.9420896999999999,20.87086,-1
434,435,1583237700212,-11.378699000000001,-9.7824,18.099498999999998,-8.101806,-0.46906242,21.174742000000002,-1
435,436,1583237700222,-10.977799000000001,-9.1873,18.2451,-7.391101400000001,0.14641021,21.047504,-1
436,437,1583237700232,-10.4683,-8.5233,18.0116,-6.627811,0.6416364999999999,21.05074,-1
437,438,1583237700243,-9.847000000000001,-7.962999999999999,18.0343,-5.386072599999999,0.923118,21.460857,-1
438,439,1583237700253,-8.6462,-7.6326,18.4251,-2.8274755000000003,1.1280712,22.250063,-1
439,440,1583237700263,-6.6537,-7.3092,19.0028,-1.2937309,1.4847785,22.321285,-1
440,441,1583237700273,-4.9841,-6.7633996,18.909899,0.62703186,1.6991171000000003,21.390268,-1
441,442,1583237700283,-3.2301998,-6.4227,17.7039,3.1917102,2.3285812999999997,19.309160000000002,-1
442,443,1583237700293,-1.3206999,-5.6981997,15.9098,4.8924747,3.018399,18.160547,-1
443,444,1583237700304,0.1515,-4.8705,14.736799,6.446982,3.6230687999999995,17.649136,-1
444,445,1583237700314,1.4965998999999999,-4.1122,14.1772995,7.881463,4.0996776,17.181182999999997,-1
445,446,1583237700324,2.7194998,-3.4808998,13.6521,8.933207000000001,3.7155902000000003,16.926460000000002,-1
446,447,1583237700334,3.5983998999999995,-3.7054,13.3094,9.461808,2.8225912999999996,16.501987,-1
447,448,1583237700344,3.9557998,-4.4182,12.788,10.208224000000001,2.2373817000000003,15.601173000000001,-1
448,449,1583237700354,4.8947,-4.8961997,11.4616995,12.671878,2.4647252999999996,13.649967000000002,-1
449,450,1583237700365,6.8777,-4.4374,9.7331,15.155393,3.4543638,12.444658,-1
450,451,1583237700375,11.4078,-1.7488999,7.1366997,17.835183999999998,5.0136785999999995,11.052506,-1
451,452,1583237700385,11.4078,-1.7488999,7.1366997,18.826,5.466805,10.125423,-1
452,453,1583237700395,12.654699,-0.8736,5.8455997,18.906609,4.8757343,9.056125,-1
453,454,1583237700405,12.105,-2.1590000000000003,3.8825998,18.199926,3.4893959000000003,8.257582000000001,-1
454,455,1583237700416,11.751599,-2.948,3.1488,18.410694,2.8735112999999997,7.5768247,-1
455,456,1583237700426,11.751599,-2.948,3.1488,20.442078,3.7218535000000004,6.825303999999999,-1
456,457,1583237700436,16.4012,-0.3606,1.1273999,23.481499,5.590164,5.7673254,-1
457,458,1583237700446,19.3801,1.5318999,-0.7227,26.260563,7.191636,3.8972719,-1
458,459,1583237700456,20.496,2.3994,-3.1139,26.776093,7.7099899999999995,1.0696814,-1
459,460,1583237700467,19.6341,2.3962998,-5.5004,25.80641,7.553132000000001,-0.62719464,-1
460,461,1583237700477,18.1609,1.9978999,-7.3027997000000004,24.211346,6.9900537,-2.223677,-1
461,462,1583237700487,16.3336,0.93759996,-8.452499000000001,21.966782000000002,5.603887599999999,-3.2205365,-1
462,463,1583237700497,14.9951,0.0691,-8.8208,21.238848,5.160635,-3.3321733,-1
463,464,1583237700508,15.251698999999999,0.2102,-8.8981,21.842264,5.4827123,-3.4085674,-1
464,465,1583237700518,16.0151,0.6067,-9.2648,22.398916,5.8010454000000005,-4.014157,-1
465,466,1583237700528,16.097399,0.77199996,-10.1016,22.194183,5.8281282999999995,-4.7773805,-1
466,467,1583237700538,15.622,0.58599997,-10.726399,21.59816,5.550248000000001,-5.324063,-1
467,468,1583237700549,15.007999,0.2651,-11.2647,20.98237,5.269935,-5.789812,-1
468,469,1583237700558,14.3312,0.0753,-11.5379,20.322004,5.0886364,-5.879652,-1
469,470,1583237700569,13.934000000000001,-0.099599995,-11.37,20.152732999999998,4.9997926,-5.6905675,-1
470,471,1583237700579,13.846499,-0.0346,-11.3103,19.802864000000003,5.1144940000000005,-5.802798,-1
471,472,1583237700589,12.9149,-0.1451,-11.486899000000001,18.2976,4.9140034,-5.9550405,-1
472,473,1583237700599,11.544499,-0.40019998,-11.4725,17.000593,4.5894260000000004,-5.7962766,-1
473,474,1583237700609,10.341,-0.89229995,-11.1916,16.108812,4.104255,-5.628356500000001,-1
474,475,1583237700620,9.3227,-1.5893999,-11.0765,15.076718,3.3783812999999996,-5.521326,-1
475,476,1583237700630,8.6368,-2.204,-10.8558,14.554217000000001,2.6346369,-5.218603,-1
476,477,1583237700640,8.2195,-3.1524,-10.3933,14.112718,1.5645628999999999,-4.444912,-1
477,478,1583237700650,7.6449,-4.2446,-9.316999000000001,13.269259,0.5287164000000001,-2.9274576,-1
478,479,1583237700660,6.7335997,-5.1984997,-7.621299700000001,12.232024000000001,-0.33584902,-0.7956506999999999,-1
479,480,1583237700670,5.9184,-5.7841,-5.9286,11.359577,-0.83805674,0.46350786,-1
480,481,1583237700680,5.0250998,-6.2829999999999995,-4.8513,10.372936,-1.2302175,1.1528368,-1
481,482,1583237700691,4.0801997000000005,-6.6291,-4.1974,9.658756,-1.4390493999999998,1.6871939999999999,-1
482,483,1583237700701,3.3689999999999998,-6.8269997,-3.6984,9.163528999999999,-1.5260546,1.9260682,-1
483,484,1583237700711,2.9466,-6.8887,-3.4664998,8.931187,-1.5348365,2.2678165,-1
484,485,1583237700722,2.7007,-6.8669,-3.0528998,8.871456,-1.4669752,2.887302,-1
485,486,1583237700732,2.7008,-6.7307997,-2.4794,9.330262,-1.2177388999999998,2.9418417999999997,-1
486,487,1583237700742,3.2666,-6.3767,-2.6197999,10.189579,-0.7985045999999999,2.328409,-1
487,488,1583237700752,4.0906,-5.9086,-3.2972,10.769378,-0.3362417,1.8350311999999998,-1
488,489,1583237700763,4.4670997,-5.4674,-3.6748,10.702119999999999,-0.31143776,2.080389,-1
489,490,1583237700773,4.2581,-5.4179,-3.0537999,10.326442,-0.46862188,3.4990300000000003,-1
490,491,1583237700783,3.8432,-5.4860997000000005,-1.6751,9.967167,-0.56897724,5.086787999999999,-1
491,492,1583237700795,3.4350998,-5.5769997,-0.051799998,9.585522000000001,-1.0869004999999998,6.8121165999999995,-1
492,493,1583237700805,2.5414999,-6.2903,2.4499,9.110426,-1.4868089,8.097152000000001,-1
493,494,1583237700815,2.4835,-6.3011,3.3569998999999995,9.2272625,-1.4983393999999999,8.885525,-1
494,495,1583237700825,2.5426,-5.9639997000000005,4.5162,9.274046,-1.1603068,10.124878,-1
495,496,1583237700835,2.0263,-5.3015,5.9742,8.706112,-0.5365981,11.569980000000001,-1
496,497,1583237700846,2.0263,-5.3015,5.9742,7.979653999999999,-0.17497784,12.538961,-1
497,498,1583237700856,0.0589,-4.4785,8.255199000000001,6.7988334,0.031297006,13.829598,-1
498,499,1583237700866,-0.7834,-4.3410997,9.3096,6.0274696,0.07472782,14.857755,-1
499,500,1583237700876,-1.4817,-4.2953997,10.3633995,5.444338,0.07842447,15.852545999999998,-1
500,501,1583237700886,-1.9039999,-4.1228,11.0267,5.0923905,0.28205612,16.31456,-1
501,502,1583237700897,-2.0791,-3.7779,11.133599,5.063602400000001,0.65619326,16.387335,-1
502,503,1583237700907,-2.1842,-3.3423998,11.421,4.987132,1.0942553999999998,16.734934,-1
503,504,1583237700917,-2.4596,-2.7659,11.7526,4.511844,1.6159617,16.935682,-1
504,505,1583237700927,-3.1811,-2.2591999,11.761,3.9917471,1.9490429,16.911282,-1
505,506,1583237700937,-3.6408,-1.8368,11.745299000000001,3.5676959000000004,2.4907455,16.879131,-1
506,507,1583237700948,-3.7995,-1.2296,11.5176,3.5103402000000004,3.0800542999999996,16.355587,-1
507,508,1583237700958,-3.9278,-0.6888,10.6595,3.4106742999999997,3.5872035,15.264884,-1
508,509,1583237700968,-3.8465,-0.2228,9.3039,3.6775224000000004,3.9386055,13.737843,-1
509,510,1583237700978,-3.4996,-0.0287,7.8947997,4.1051269999999995,4.107167,12.410612,-1
510,511,1583237700988,-3.1148,0.0889,6.9136996,4.4604073,4.185562600000001,11.580581,-1
511,512,1583237700998,-2.9417999,0.0672,6.6217,4.509938200000001,4.1246542999999996,11.695264,-1
512,513,1583237701009,-3.0014,-0.0063,6.9424,4.2770019999999995,4.0729203,12.139599,-1
513,514,1583237701019,-3.2984,0.011299999,7.3373,4.077105,4.1278524,12.388404,-1
514,515,1583237701029,-3.3186998,0.0849,7.3489,4.245178,4.2151837,11.982213,-1
515,516,1583237701039,-3.0763,0.1713,6.7023997,4.580721,4.328688,11.088486999999999,-1
516,517,1583237701049,-2.6210000000000004,0.2785,5.6162,5.1966815,4.4267254000000005,9.71048,-1
517,518,1583237701060,-1.9021,0.369,4.0765,5.819883,4.5606003,8.336160000000001,-1
518,519,1583237701070,-1.1521,0.5828,2.4201999,6.656589500000001,4.812000299999999,6.5792660000000005,-1
519,520,1583237701080,-0.5564,0.69729996,1.2419,7.005453,4.886192299999999,5.827152,-1
520,521,1583237701090,-0.37899998,0.7822,0.79389995,6.9969015,5.001774299999999,5.7382693,-1
521,522,1583237701100,-0.45119998,0.7809,0.8366,6.797511999999999,4.844035,5.918122299999999,-1
522,523,1583237701110,-0.645,0.54679996,1.0745,6.6064167000000005,4.651196499999999,6.243867400000001,-1
523,524,1583237701121,-0.7959,0.354,1.374,6.4436207,4.475721,6.465408,-1
524,525,1583237701131,-0.9262,0.1522,1.4854,6.2449975,4.2638620000000005,6.4854712,d
525,526,1583237701141,-1.0475,-0.0208,1.4419999,6.422005,4.166974,6.242852,-1
526,527,1583237701151,-0.79819995,-0.105799995,1.1173999,6.6111949999999995,4.261334400000001,5.751370400000001,-1
527,528,1583237701161,-0.5603,0.0252,0.5696,7.118785400000001,4.5821760000000005,5.175584,-1
528,529,1583237701171,0.027999998999999998,0.34289998,-0.0137,7.5688566999999995,4.8018303,4.677609400000001,-1
529,530,1583237701182,0.4113,0.5003,-0.5169,7.5978265,4.8710895,4.214034,-1
530,531,1583237701192,0.38619998,0.5548,-0.9659,7.431564,4.825858599999999,3.9676902000000003,-1
531,532,1583237701202,0.15959999,0.40899998,-1.153,7.049277,4.5988593,4.217808,-1
532,533,1583237701212,-0.1849,0.1573,-0.7723,6.610736,4.3573129999999995,5.2337055,-1
533,534,1583237701222,-0.52099997,-0.0316,0.0972,6.4147844,4.2267623,5.904427,-1
534,535,1583237701232,-0.7294,-0.2065,0.9043,6.195428,4.123361,6.5110316,-1
535,536,1583237701242,-0.9274,-0.271,1.4143,6.2533,4.294106,6.7907224,-1
536,537,1583237701252,-0.7538,-0.0594,1.6205,6.785895299999999,4.562554,6.7101429999999995,-1
537,538,1583237701262,-0.1515,0.2112,1.4577,7.360983,5.03718,6.46535,-1
538,539,1583237701273,0.31129998,0.6167,1.2509999,7.484801299999999,5.3514624,6.338936299999999,-1
539,540,1583237701283,0.47059998,0.9701,1.0856,7.5970225000000005,5.6792574,6.293552,-1
540,541,1583237701293,0.5743,1.2527,1.055,7.589696000000001,5.848853,6.775313000000001,-1
541,542,1583237701303,0.58349997,1.3974999,1.5203999,7.4448943,5.942361,7.5095279999999995,-1
542,543,1583237701314,0.4572,1.4821999,2.2396,7.257667999999999,6.0577326,8.38958,-1
543,544,1583237701324,0.2923,1.5841,3.1072,7.1729417,6.224225,9.146616,-1
544,545,1583237701334,0.2349,1.7718999,4.046,7.18023,6.5936985,10.058386,-1
545,546,1583237701344,0.2553,2.0742,4.7535,7.222224000000001,6.872948599999999,10.526251,-1
546,547,1583237701354,0.3272,2.3337,5.2156,7.333938000000001,7.168709,11.064908,-1
547,548,1583237701365,1.2149,3.0356998,6.6693997000000005,8.215483,7.6999059999999995,12.250642,-1
548,549,1583237701374,1.2149,3.0356998,6.6693997000000005,8.814934,7.921341,13.125339000000002,-1
549,550,1583237701384,2.0221999,3.2968,7.7423,9.102008,8.052256,13.934052,-1
550,551,1583237701394,2.3567,3.3739,8.526899,8.935113000000001,7.947246000000001,14.207748,-1
551,552,1583237701404,2.2468998,3.1938,8.8035,8.219658,7.837323700000001,14.133729999999998,-1
552,553,1583237701414,1.5965999,2.9919,8.727799000000001,7.729958,7.878484200000001,13.858232999999998,-1
553,554,1583237701425,1.1896,2.9210000000000003,8.4732,7.5768723,7.976388,13.430332,-1
554,555,1583237701435,1.2712,2.9092,7.7197,7.7064085,8.101605000000001,13.011471,-1
555,556,1583237701445,1.6105,2.8037999,7.5169997,7.948778,8.152908,12.801672,-1
556,557,1583237701455,1.9221,2.6510000000000002,7.3553,8.200274,8.091693,12.575295,-1
557,558,1583237701465,2.2352,2.2821,7.1301,8.374429,7.872824700000001,12.29502,-1
558,559,1583237701475,2.2352,2.2821,7.1301,8.2360735,7.817538000000001,11.823985,-1
559,560,1583237701486,2.0535997999999998,1.6845,6.3610997000000005,7.9271536,7.584563,11.328769,-1
560,561,1583237701496,1.6197,1.2164,6.0295,7.332922999999999,7.307027000000001,10.8707,-1
561,562,1583237701506,0.9716,0.6231,5.6586,6.5858936,6.881673299999999,10.346801,-1
562,563,1583237701516,0.4215,0.0154,4.9937,5.947877,6.500583,9.432675,-1
563,564,1583237701526,-0.0716,-0.2092,3.9145,5.402296,6.5482949999999995,8.168978,-1
564,565,1583237701536,-0.0387,-0.19049999,2.9420998,5.516776999999999,6.777602000000001,7.0660457999999995,-1
565,566,1583237701547,0.5293,-0.20709999,2.0383,6.106622,6.92519,5.772918,-1
566,567,1583237701557,0.95809996,-0.26929998,1.3262,6.3333244,6.996709299999999,5.107053,-1
567,568,1583237701567,1.2799,-0.4966,1.2445998999999999,6.5914288,6.7862306,5.280172299999999,-1
568,569,1583237701577,1.5444,-0.89019996,2.0277998,6.6866894,6.5972037,5.917308,-1
569,570,1583237701587,1.6154,-1.0821999,2.516,6.695701,6.6352906,5.935504,-1
570,571,1583237701598,1.9128,-1.0559,2.3839,6.9942675,6.7117805,5.617841,-1
571,572,1583237701608,2.2993999,-1.4390999,2.2707,7.1751065,6.2911386,5.271113,-1
572,573,1583237701618,2.2482,-2.0960999,2.0207999,6.8585066999999995,5.7532763,4.7674203,-1
573,574,1583237701628,2.0142,-2.7233999,1.2657,6.4641147000000005,5.292794000000001,2.9913924,-1
574,575,1583237701638,1.7515999,-3.0737997999999997,-0.36569998,6.165347,5.2869625,1.4326903,-1
575,576,1583237701648,1.5857999,-3.0254,-2.175,6.051996,5.570905000000001,-1.1350431,-1
576,577,1583237701659,1.7017,-2.8193998,-4.1233,6.129453,5.875744999999999,-3.0946398,-1
577,578,1583237701669,1.9527999,-2.7388,-5.4969,6.249489,5.753017400000001,-3.8666646,-1
578,579,1583237701679,2.0077,-3.0972998,-5.5031,5.8863363,5.452334400000001,-3.2995358,-1
579,580,1583237701689,1.6042999,-3.3774998,-4.4799,5.429073000000001,5.400744400000001,-2.3613439,-1
580,581,1583237701699,1.4175,-3.4441998,-3.5477998,5.5626307,5.5773025,-1.811003,-1
581,582,1583237701709,1.8658999,-3.1911,-3.0674,6.0237637,5.7997146,-1.5057517,-1
582,583,1583237701720,2.3846998,-3.2881,-2.5047998,6.4240645999999995,5.411518599999999,-0.9296781,-1
583,584,1583237701730,2.9320998,-3.8170998,-1.875,6.683347,4.938318700000001,-0.56939864,-1
584,585,1583237701740,3.1392,-4.3099,-1.6006999,6.5139527,4.430259700000001,-0.7075441,-1
585,586,1583237701750,2.9514,-4.8659,-1.6342,5.3793883000000005,3.5834398000000003,-1.2376011999999998,-1
586,587,1583237701760,1.7708,-5.8567,-2.1677,3.6600256,2.6207217999999997,-2.404449,-1
587,588,1583237701771,0.23699999,-6.836199799999999,-3.1868,2.486838,2.0950031000000005,-3.4692078,-1
588,589,1583237701781,-0.5973,-7.2874,-4.0036,2.252513,2.2253819,-3.7522502,-1
589,590,1583237701791,-0.4982,-7.0993,-3.9146998,2.6956507999999997,2.667514,-2.8988419999999997,-1
590,591,1583237701801,0.053,-6.6754,-2.7584,2.5588942,2.86358,-1.1990832,-1
591,592,1583237701811,-0.1337,-6.6473,-0.9176,1.7501231,2.5707883999999996,0.36702153,-1
592,593,1583237701821,-0.9148,-6.9884,0.4772,0.9453745000000001,2.296451,0.81709313,-1
593,594,1583237701832,-1.5778999,-7.2867,0.6768,0.51575893,2.1357908,-0.14247414,-1
594,595,1583237701842,-1.8255999,-7.3740997,-0.40649998,0.6872795,2.4589121,-1.611499,-1
595,596,1583237701852,-1.4965,-6.9944,-1.8247,1.0723629,3.0632184,-3.17135,-1
596,597,1583237701862,-1.1011,-6.3629999999999995,-3.2539999999999996,1.2250652,3.6943392999999998,-4.281915000000001,-1
597,598,1583237701872,-0.9769,-5.736399700000001,-4.0798,1.1975221999999999,4.214389,-4.453368,-1
598,599,1583237701883,-1.0296999,-5.3027997000000004,-3.9454,0.95385,4.4263905999999995,-3.4623125,-1
599,600,1583237701893,-1.2564,-5.1229,-2.9854,0.43488279999999996,4.414275599999999,-2.1450036,-1
600,601,1583237701903,-1.7845999,-5.1389,-1.629,0.17014156,4.488075,-1.1825441,-1
601,602,1583237701914,-2.0893,-5.0164,-0.489,0.24128765,4.931001999999999,-0.50431466,-1
602,603,1583237701924,-2.0277998,-4.6163,-0.0023,0.91719955,5.569363,-0.5250293,-1
603,604,1583237701934,-0.3953,-3.1067,-0.4698,2.2331295,6.577811,-1.0789135,-1
604,605,1583237701944,-0.3953,-3.1067,-0.4698,3.1330810000000002,7.159697,-1.6384767,-1
605,606,1583237701954,0.66639996,-2.3323998,-1.1690999,4.232268299999999,8.032988000000001,-2.5402669999999996,-1
606,607,1583237701964,1.5351,-1.6071,-1.9415,4.191979,8.230604,-2.6000264,-1
607,608,1583237701974,0.63769996,-1.3733,-1.5584999,3.0403967,8.011305,-1.8401643,-1
608,609,1583237701985,-0.5344,-1.6291,-0.7599,1.945672,7.7530284,-1.0816716,-1
609,610,1583237701995,-1.3966999,-1.8248999,-0.23079999,1.267567,7.626997500000001,-0.56826854,-1
610,611,1583237702005,-1.3966999,-1.8248999,-0.23079999,1.3651738000000002,7.846545699999999,-0.42061335,-1
611,612,1583237702015,-0.37109998,-0.653,-0.2977,2.7130904,8.909761999999999,-0.77147883,-1
612,613,1583237702025,0.92289996,0.1648,-0.7144,4.129251,9.682046000000001,-1.1356082,-1
613,614,1583237702036,2.0523999,0.83559996,-0.9367,5.217578400000001,10.271613,-1.3145604,-1
614,615,1583237702045,2.3825,1.1198,-0.8885,5.395669,10.418896,-1.1570506,-1
615,616,1583237702055,1.8113999,0.868,-0.4689,4.728261,10.113778,-0.68732744,-1
616,617,1583237702065,0.6304,0.5028,-0.07200000000000001,3.4940596,9.751335000000001,-0.33424014,-1
617,618,1583237702075,-0.40489998,0.3707,0.024699999,2.6202717,9.672948,-0.32994014,-1
618,619,1583237702085,-0.40489998,0.3707,0.024699999,2.4983687000000003,9.735514,-0.7516261,-1
619,620,1583237702096,-0.48049998,0.6714,-0.87869996,2.746274,9.991922,-1.2424757,-1
620,621,1583237702106,-0.48049998,0.6714,-0.87869996,3.116705,10.169678,-1.3155851,d
621,622,1583237702116,0.45139998,1.0216,-0.727,3.9578357000000004,10.317343,-0.7956506999999999,-1
622,623,1583237702126,0.8387,1.125,-0.22659999,4.27116,10.430321000000001,-0.42166679999999995,-1
623,624,1583237702136,1.1025,1.3449,-0.13669999,4.515656,10.619003,-0.41107485,-1
624,625,1583237702147,1.3141999,1.4548,-0.2561,4.6718535,10.660863,-0.5541906999999999,-1
625,626,1583237702157,0.9869,1.3259999999999998,-0.4865,4.2055206,10.458639999999999,-0.78735715,-1
626,627,1583237702167,0.5301,1.1453999,-0.5532,3.9081224999999997,10.331096,-0.7791594000000001,-1
627,628,1583237702177,0.3881,0.9648,-0.376,3.8364114999999996,10.101099000000001,-0.5817144000000001,-1
628,629,1583237702187,0.33929998,0.82159996,-0.26639998,3.7612143,9.95783,-0.5551961999999999,-1
629,630,1583237702198,0.4141,0.7585,-0.35599998,3.9993894,9.944556,-0.81193125,-1
630,631,1583237702208,0.82799995,0.84419996,-0.7877,4.4967127,10.087327,-1.2028183000000001,-1
631,632,1583237702218,1.2975999,0.9898,-1.0587,4.9468904,10.188229,-1.5221089,-1
632,633,1583237702228,1.5417,1.0567,-1.3702999,5.1116779999999995,10.247997,-1.8005929,-1
633,634,1583237702238,1.6909999999999998,1.1122,-1.5231,5.331399,10.225732,-1.8456038000000001,-1
634,635,1583237702248,2.0212998,1.0483,-1.5888,5.772842,10.210714999999999,-2.0428479,-1
635,636,1583237702259,2.5621,1.1398,-2.1666,6.381122,10.314681,-3.1845276,-1
636,637,1583237702269,2.9621,1.1804,-3.3576998999999996,6.6533527,10.288258,-4.1075115,-1
637,638,1583237702279,3.2919998,1.0221,-4.3887,6.977336,10.058769,-5.138808999999999,-1
638,639,1583237702289,3.6785997999999998,0.8121,-5.178499700000001,7.4997315,9.856373,-5.7769403,-1
639,640,1583237702299,4.0998,0.5609,-5.3932,7.778694000000001,9.454377000000001,-5.8612839999999995,-1
640,641,1583237702309,4.4377,0.1506,-5.441,8.151050999999999,9.144088,-6.013526000000001,-1
641,642,1583237702320,4.8469,-0.1434,-5.6661997,8.567679,8.924626,-6.1649833,-1
642,643,1583237702330,5.277199700000001,-0.29119998,-5.6555,9.172551,8.817826,-5.891498599999999,-1
643,644,1583237702340,6.2479997,-0.4592,-5.3543,10.55004,8.702502,-5.875026,-1
644,645,1583237702350,7.7981997000000005,-0.4407,-5.6533,12.101453999999999,8.948080000000001,-6.7227364000000005,-1
645,646,1583237702360,9.2942,-0.1092,-6.7625,13.286364,9.263932,-8.040065,-1
646,647,1583237702370,10.273,0.0222,-8.137899,13.766162,9.046558000000001,-9.584850999999999,-1
647,648,1583237702380,10.3899,-0.53,-9.5096,13.091772,8.12844,-10.425206,-1
648,649,1583237702391,9.522699000000001,-1.5231999,-10.0399,11.804344,7.1103190000000005,-10.3503065,-1
649,650,1583237702401,8.5195,-2.4355,-9.7556,10.756449,6.1443453,-10.010196,-1
650,651,1583237702412,7.3367996,-3.7252,-9.410299,9.310342,4.6624684,-9.410936,-1
651,652,1583237702422,6.3408,-4.9968,-8.8854,8.151527999999999,3.5594212999999995,-8.307210000000001,-1
652,653,1583237702432,5.2612,-6.1299,-7.7176,6.7222195000000005,2.7076986,-6.194298000000001,-1
653,654,1583237702442,3.9589,-6.9073,-5.5931997,4.963744999999999,2.390687,-4.034239299999999,-1
654,655,1583237702452,2.2635999,-7.180299799999999,-3.6585,3.0561027999999997,2.1339040000000002,-2.3786967,-1
655,656,1583237702463,0.55439997,-7.5367,-2.2582,1.4422863000000001,1.5751452,-1.4815128,-1
656,657,1583237702473,-0.89049995,-8.122399,-1.6119999999999999,-0.083615094,1.2181603,-1.0497808000000002,-1
657,658,1583237702483,-2.2816,-8.4956,-1.3368,-1.463949,0.7809024,-0.48317862,-1
658,659,1583237702493,-3.4742,-8.9695,-0.8032,-2.6424804,0.012191273999999998,1.1288757,-1
659,660,1583237702504,-4.3452,-9.6312,0.43899998,-3.8164053,-0.30282822,3.510465,-1
660,661,1583237702514,-5.4658,-9.9218,2.6518,-4.717333999999999,-0.39169142,6.426028,-1
661,662,1583237702525,-6.339699700000001,-9.9987,5.397599700000001,-4.434464,0.16060305,8.766475,-1
662,663,1583237702535,-6.1485,-9.5103,7.3283,-4.0555286,0.27430847,9.904553,-1
663,664,1583237702545,-5.7207,-9.311399,8.6005,-4.02404,0.43380064,12.294982000000001,-1
664,665,1583237702555,-6.4080997,-9.0379,13.394798999999999,-4.858333,0.49035165,15.869535,-1
665,666,1583237702566,-7.5765996,-9.0145,17.777,-5.966188,0.44099279999999996,20.566507,-1
666,667,1583237702576,-8.6426,-8.8031,21.7179,-7.0576086,0.72487813,24.934662,-1
667,668,1583237702586,-9.4636,-8.4817,23.5801,-7.598267,0.8595280000000001,26.023287,-1
668,669,1583237702597,-9.8299,-8.394,23.0383,-7.762250999999999,1.0284054,24.86049,-1
669,670,1583237702607,-9.913199,-7.9438,21.435999,-7.6511693,1.5448921999999998,23.526413,-1
670,671,1583237702617,-9.6932,-7.2121,20.6549,-7.267302000000001,2.1026835,23.261738,-1
671,672,1583237702627,-9.1187,-6.3683996,21.287198999999998,-6.393467,3.063065,24.418625,-1
672,673,1583237702637,-8.7731,-5.7556996,22.486399,-5.935800599999999,3.385928,25.37783,-1
673,674,1583237702648,-8.328,-5.6728997,22.520899,-5.252888,3.2738695,24.709406,-1
674,675,1583237702658,-7.6956997000000005,-5.9275,20.9832,-4.1046677,2.9133797,22.570139,-1
675,676,1583237702668,-6.0662,-6.0765,18.218199,-2.0534112,2.8856165000000003,19.568279999999998,-1
676,677,1583237702678,-4.205899700000001,-5.8094,15.4958,-0.039398983,3.3008761,17.076432999999998,-1
677,678,1583237702688,-2.5024,-5.14,13.8333,1.8710591,3.8420233999999995,15.921748000000001,-1
678,679,1583237702699,-0.95159996,-4.8408,13.5912,3.7105050000000004,3.9139357000000006,15.929706,-1
679,680,1583237702708,-0.021399999,-4.7964,13.666599,4.296567400000001,3.7086473,15.631791,-1
680,681,1583237702718,0.4177,-5.1191998,12.8891,5.7951846,3.2073395000000002,13.706431,-1
681,682,1583237702729,2.3014,-5.2981997000000005,10.544,8.025843,3.2894607000000002,11.172638000000001,-1
682,683,1583237702739,5.2049,-4.6610000000000005,6.954799700000001,11.262067,4.069166,7.367763,-1
683,684,1583237702749,8.193399000000001,-3.5282,3.5205,14.6057415,5.2359467,4.0715027,-1
684,685,1583237702759,11.4704,-1.9692999,0.83089995,18.026348000000002,6.721442999999999,1.7988117,-1
685,686,1583237702769,13.9782,-0.5309,-0.7348,20.133274,7.8049254,0.26105416,-1
686,687,1583237702780,14.4776,-0.0813,-1.8353,19.689992999999998,7.311461,-0.97597235,-1
687,688,1583237702789,13.2492,-0.80829996,-3.1396,18.049646,6.300112,-1.9763178,-1
688,689,1583237702799,11.5569,-1.6001999,-3.6978998,17.585987,6.0280633,-2.2321715,-1
689,690,1583237702810,12.4669,-0.95049995,-4.4093,20.332815,7.4794765,-3.727504,-1
690,691,1583237702819,15.584499,0.7879,-6.2341,24.317083,9.407441,-6.4053515999999995,-1
691,692,1583237702829,19.2917,2.8148,-9.248899,26.620620000000002,10.628647,-8.962589,-1
692,693,1583237702839,20.680198999999998,3.8762,-12.311399,26.990238,11.073364999999999,-12.001013,-1
693,694,1583237702849,19.942,3.7508998,-14.1509,25.54368,10.439035,-13.0166235,-1
694,695,1583237702859,18.2215,3.0856,-14.878098999999999,23.824901999999998,9.768267,-13.476817,-1
695,696,1583237702870,16.615,2.4357,-15.1339,22.453962,9.127778999999999,-13.140279999999999,-1
696,697,1583237702880,15.3961,1.8946999,-14.653899,21.561682,8.787735000000001,-12.849258,-1
697,698,1583237702890,14.280999,1.4958999,-14.5273,20.095406,8.258185000000001,-13.037013,-1
698,699,1583237702900,12.9092,0.9023,-14.9326,18.434654000000002,7.5625553,-13.869285999999999,-1
699,700,1583237702910,11.172899000000001,0.109299995,-15.8371,16.479588,6.793260000000001,-15.412147000000001,-1
700,701,1583237702920,9.687799,-0.51129997,-17.1421,15.434652,6.387347,-16.475163000000002,-1
701,702,1583237702930,8.5589,-1.0885,-18.131199,14.738408999999999,5.943874,-16.878653,-1
702,703,1583237702940,8.068399000000001,-1.5989,-17.996399,14.361139000000001,5.4799447,-16.050047,-1
703,704,1583237702950,7.766,-2.0138,-16.7888,13.653739000000002,4.922756,-14.225284,-1
704,705,1583237702960,6.8999996,-2.7505999,-14.6606,12.710567,4.174128,-11.790122,-1
705,706,1583237702970,6.0881996,-3.4603,-12.3435,11.807992,3.51442,-9.660537,-1
706,707,1583237702981,5.1611,-4.213,-10.434299000000001,10.750511999999999,2.8134360000000003,-8.02091,-1
707,708,1583237702991,4.1351,-4.8912997,-9.0183,9.730074,2.2486342999999995,-6.832649000000001,-1
708,709,1583237703001,3.2610997999999998,-5.4818,-7.8808,9.014878,1.7003044999999999,-5.7228127,-1
709,710,1583237703011,2.694,-6.0389,-6.8206,8.481258,1.133779,-4.7334228,-1
710,711,1583237703021,2.3155,-6.5195,-6.0418997,8.076245,0.76709265,-4.013889,-1
711,712,1583237703031,2.0279999,-6.8722997,-5.3343997000000005,8.390423,0.6909379,-3.2727779999999997,-1
712,713,1583237703042,2.5182,-6.8896,-4.6289997000000005,8.877278,0.6881893,-2.3946709999999998,-1
713,714,1583237703052,2.9155,-6.9651,-3.7498,9.116736999999999,0.34314656,-1.1290481,-1
714,715,1583237703062,3.1655998,-7.3093,-2.5305998,9.211136,0.12699804,0.0995126,-1
715,716,1583237703072,3.1320999,-7.5727,-0.93619996,8.654349,-0.42697236,2.4407162999999996,-1
716,717,1583237703082,2.5403,-8.0729,0.9129,7.671195,-0.783038,4.0101824,-1
717,718,1583237703092,1.4957,-8.3698,2.2911,6.6470795,-0.87011033,4.9818163,-1
718,719,1583237703103,0.71029997,-8.401999,2.9634,6.154324,-0.8211632999999999,4.9638504999999995,-1
719,720,1583237703112,0.0648,-8.3517,2.8779,5.4163833,-0.7632715,4.989143,-1
720,721,1583237703122,-0.6659,-8.2436,2.9087,4.730243700000001,-0.7086454000000001,5.3212667,-1
721,722,1583237703132,-1.3537999,-8.1915,3.2092998,4.219905000000001,-0.8657815999999999,5.8970814,-1
722,723,1583237703142,-1.8522999,-8.340899,3.7389,3.8092132000000003,-1.0216440999999998,6.8651146999999995,-1
723,724,1583237703152,-2.2514,-8.3888,4.6868,3.352543,-0.99930143,8.315732,-1
724,725,1583237703163,-2.8284,-8.2986,6.0794,2.1835310000000003,-0.9795924000000001,10.108654,-1
725,726,1583237703173,-3.8967998,-8.2013,7.4554996,1.1928104,-0.80664486,11.340758000000001,-1
726,727,1583237703183,-5.1663,-7.884999799999999,8.8733,0.44721769999999994,-0.5790712,13.024774,-1
727,728,1583237703194,-5.777,-7.625499700000001,10.2255,0.22330239999999998,-0.71827966,14.478207000000001,-1
728,729,1583237703204,-6.0853,-7.6713,11.6208,0.20250158,-0.69311184,15.938861,-1
729,730,1583237703214,-6.2088,-7.527199700000001,13.0461,0.2979632,-0.5633844,16.841417,-1
730,731,1583237703224,-6.219599700000001,-7.2573,13.871799,0.38717115,-0.104358464,17.679445,-1
731,732,1583237703234,-6.2405996,-6.6433,14.615998999999999,0.29414204,0.352302,18.546951,-1
732,733,1583237703244,-6.446399700000001,-6.0400996,15.3537,0.06833051,0.7696592,19.046047,-1
733,734,1583237703255,-6.8264,-4.7862,16.4505,0.39041770000000003,1.274424,20.017471,-1
734,735,1583237703265,-5.7692,-4.1836,16.7581,1.5615748999999999,1.7447602,20.383648,-1
735,736,1583237703276,-4.6436,-3.3681997999999997,16.6526,2.7591066000000004,2.3716486,20.207273,-1
736,737,1583237703286,-3.8342998,-2.7760000000000002,15.9219,3.7321197999999995,2.6925478,19.248998999999998,-1
737,738,1583237703296,-3.3823,-2.5223,14.9858,4.1875067,2.7085602000000004,18.453415,-1
738,739,1583237703306,-3.2034,-2.4234,14.537498999999999,4.363567,2.4823945,18.401613,-1
739,740,1583237703317,-3.0988998,-2.622,14.771999,4.7319574,2.1130842999999997,18.713196,-1
740,741,1583237703327,-2.5202,-2.6267998,14.847199,5.3478712999999996,2.0127096,18.783442,-1
741,742,1583237703338,-1.7133,-2.371,14.7588,6.485231400000001,2.1769326,18.81021,-1
742,743,1583237703348,-0.4154,-1.81,14.4478,8.212026,2.6653404,18.292717,-1
743,744,1583237703358,1.5472,-0.9011,13.1802,10.091914,3.400207,16.66937,-1
744,745,1583237703368,2.9018,-0.2026,10.9594,11.069611,3.6906235,14.431204000000001,-1
745,746,1583237703378,3.3272998,-0.11229999,8.6454,11.331498,3.4156449999999996,12.406361,-1
746,747,1583237703388,3.3151,-0.4475,7.0330997,11.123318,2.699951,11.177772000000001,-1
747,748,1583237703398,2.9645,-0.95669997,6.3402996,10.910492,2.2066782000000003,10.8711405,-1
748,749,1583237703408,3.3053,-1.203,5.8475,11.584622999999999,2.0287794999999997,10.51043,-1
749,750,1583237703418,4.5622997000000005,-0.84959996,5.1626,13.119814000000002,2.4982729999999997,9.758412,-1
750,751,1583237703428,6.0878,0.0315,3.9664,14.409684,3.252341,8.627199000000001,-1
751,752,1583237703438,7.1836,0.7854,2.6496,15.269309,3.7404516000000005,7.48981,-1
752,753,1583237703448,7.6882997,1.0903,1.4480000000000002,15.283722000000001,3.6557927,6.5803199999999995,-1
753,754,1583237703458,7.183399700000001,0.7047,0.6953,14.474941000000001,3.0435379,6.0944304,-1
754,755,1583237703468,6.398,0.0994,0.2411,13.780076999999999,2.3468156000000002,5.845951,-1
755,756,1583237703478,5.9557,-0.4068,-0.0219,13.333559,1.9193069999999999,5.648678299999999,-1
756,757,1583237703488,5.692199700000001,-0.5931,-0.4342,13.185243,1.8002672999999998,5.093089599999999,-1
757,758,1583237703499,5.8777,-0.5632,-1.5056,13.813479999999998,2.0602869999999998,3.4634905,-1
758,759,1583237703509,6.858,-0.0672,-3.1632,14.987157,2.7587333,1.794368,-1
759,760,1583237703519,7.9287,0.6913,-4.8216,15.519043,3.3081834000000003,0.47726017,-1
760,761,1583237703529,8.0812,1.0425999,-5.9126997,15.050679999999998,3.339768,-0.10756669999999999,-1
761,762,1583237703540,7.3718,0.90669996,-6.2953997,14.053332000000001,2.952338,-0.16474023,-1
762,763,1583237703550,6.3638997,0.4409,-6.2481,13.045335000000001,2.4622831,0.18129852,-1
763,764,1583237703561,5.4821,-0.0493,-5.8127,12.310583,1.9697576,0.8130996,-1
764,765,1583237703571,4.831,-0.5236,-5.104,11.785525,1.481781,1.8245636000000003,-1
765,766,1583237703581,4.5685997,-0.8831,-4.2708,12.03389,1.3603758999999997,2.2853804,-1
766,767,1583237703591,4.8942,-0.94119996,-3.9150998999999995,12.339734,1.4835241000000001,2.2641869999999997,-1
767,768,1583237703601,5.1769,-0.78669995,-4.0835,12.333826,1.6371071000000001,1.6027744,-1
768,769,1583237703611,5.0228,-0.72279996,-4.7366,11.905771000000001,1.6847615000000002,0.96598375,-1
769,770,1583237703622,4.5255,-0.68549997,-5.2945,11.081294,1.6653014,0.8103319,-1
770,771,1583237703632,3.6534,-0.7399,-5.3634996,10.190555999999999,1.4757763000000002,1.0582755,-1
771,772,1583237703642,2.8804,-0.9554,-5.0828,10.141397,1.3915389,1.3590639,-1
772,773,1583237703652,3.0426998,-1.0184,-4.6988997,10.457423,1.21658,2.0696244,-1
773,774,1583237703662,3.2549,-1.1966,-3.9722998,10.434803,1.0994173999999999,3.0816824,-1
774,775,1583237703673,3.1929,-1.2486,-2.9496999,10.508486999999999,1.2382715,3.7812681000000006,d
775,776,1583237703683,3.2989,-1.0597,-2.3274,10.821867999999998,1.730232,3.8311154999999997,-1
776,777,1583237703693,3.5444998999999995,-0.6337,-2.3205,10.807283,2.1748833999999997,2.833691,-1
777,778,1583237703703,3.4935,-0.198,-3.2775998,10.421596000000001,2.3690147,1.6804806,-1
778,779,1583237703713,3.0837,-0.022000000000000002,-4.394,10.071142,2.2724613999999996,1.2158426000000002,-1
779,780,1583237703724,2.7103,-0.13499999,-4.8241997,9.846471000000001,2.1233985,1.6778182000000001,-1
780,781,1583237703734,2.3941,-0.3423,-4.1322,9.429046000000001,1.711768,3.4454381,-1
781,782,1583237703744,2.044,-0.6928,-2.5792,9.472103,1.6473927,5.1513834,-1
782,783,1583237703754,2.086,-0.7301,-0.8728,9.629642,1.7310365,6.159859,-1
783,784,1583237703764,2.4487,-0.353,0.1581,9.921822,2.0738385,6.0746737,-1
784,785,1583237703774,2.7601,0.1275,-0.5427,10.201321,2.5608093999999997,5.2738132,-1
785,786,1583237703785,2.6423,0.47059998,-1.3895,9.994174000000001,2.8585715,4.461834400000001,-1
786,787,1583237703795,2.1276999,0.52349997,-1.8383,9.460975999999999,2.873406,4.0924854,-1
787,788,1583237703805,1.6283,0.3209,-1.8524,8.9890785,2.6685486000000003,4.146900700000001,-1
788,789,1583237703815,1.2996,0.0537,-1.4709999999999999,8.686767999999999,2.3585474,4.625042,-1
789,790,1583237703825,1.0824,-0.3549,-0.6745,8.45745,1.9536301999999999,5.467332,-1
790,791,1583237703836,0.8394,-0.6802,0.0761,8.222349000000001,1.7232218999999998,6.178036,-1
791,792,1583237703846,0.7952,-0.6016,0.3619,8.195524,1.8967057,6.340201,-1
792,793,1583237703856,0.9091,0.1425,-0.098299995,8.361414,2.790356,5.7501636,-1
793,794,1583237703866,1.7400999,1.2185,-1.1379,9.377091,3.7770542999999996,4.667860500000001,-1
794,795,1583237703876,3.0165,1.8079,-2.1447,10.858728999999999,4.276379599999999,3.6553714,-1
795,796,1583237703886,4.8608,1.6884999,-2.6938999,12.684403999999999,3.9398887000000005,3.6085024,-1
796,797,1583237703897,6.1951,1.0373,-1.6687,13.455815,3.135935,4.8108606,-1
797,798,1583237703907,5.429199700000001,0.5017,-1.2314999,12.182780000000001,2.868541,5.035293599999999,-1
798,799,1583237703917,3.2893,0.5632,-1.2021998999999999,9.715422,2.8942740000000002,5.1725483,-1
799,800,1583237703927,1.6094998999999999,0.2848,-1.0997,7.8607864,2.4668896,5.399279,-1
800,801,1583237703937,-0.3542,-0.0771,-0.8757,5.832313500000001,2.3627993999999997,5.800088,-1
801,802,1583237703948,-1.8034999,0.13759999,-0.5844,4.9787040000000005,2.6008787,6.106995599999999,-1
802,803,1583237703958,-1.4609,0.2183,-0.39699998,5.9252853,2.6126007999999996,6.414057,-1
803,804,1583237703968,0.35189998,0.3127,0.0166,7.9221935,2.9036492999999997,7.022423299999999,-1
804,805,1583237703978,2.2702,0.9073,0.81579995,10.034789,3.7184443,7.9762830000000005,-1
805,806,1583237703988,3.8681,1.4951999,1.5459,11.066094999999999,4.1416626,8.609453,-1
806,807,1583237703999,4.9413,2.1887999,2.491,12.088363000000001,5.2495937,9.655375,-1
807,808,1583237704009,5.5729,3.0921,3.0110997999999998,12.452281,5.716128,9.684181,-1
808,809,1583237704019,6.3392,3.5851998,2.9329,13.608977,6.4526515,9.623062,-1
809,810,1583237704029,7.1063,4.1352997,3.0944998,14.28466,7.1310910000000005,9.880047,-1
810,811,1583237704039,7.7706,4.6447997,3.5116,15.034916,7.452862700000001,10.429727,-1
811,812,1583237704050,8.4955,4.7381997,4.189,15.568067000000001,7.7317203999999995,11.117455999999999,-1
812,813,1583237704060,8.8504,5.0597997,4.9512997,15.665548999999999,8.264324,11.850284,-1
813,814,1583237704071,8.781799000000001,5.4319997,5.7257,15.3950815,8.658936500000001,12.540724,-1
814,815,1583237704081,8.529699,5.5415998,6.2825,15.128835999999998,8.757521,12.894558,-1
815,816,1583237704091,8.3279,5.4342,6.665899799999999,15.125732999999999,8.63692,12.914352000000001,-1
816,817,1583237704101,8.3951,5.0772,6.6807,15.196485999999998,8.334072,12.624979,-1
817,818,1583237704111,8.4534,4.5271,6.3939,15.002107,7.9543905,11.874877,-1
818,819,1583237704123,8.2599,3.9009,5.718999999999999,14.611745999999998,7.432942999999999,10.980278,-1
819,820,1583237704132,7.8093,3.0365999,4.9565,13.525314000000002,6.5799556,10.251177,-1
820,821,1583237704142,6.5955997,1.882,4.4835997,11.865625,5.8629594,10.043447,-1
821,822,1583237704153,4.9944997,0.98469996,4.5192,10.514185000000001,5.6434207,10.253599000000001,-1
822,823,1583237704163,3.8571,0.52169997,4.9407997,9.655844,5.4763150000000005,10.436843,-1
823,824,1583237704173,3.2861998,0.0947,5.2412,9.635378999999999,5.5504394,10.268357,-1
824,825,1583237704183,3.3753998,-0.1563,5.2985997000000005,10.028487,5.759492,9.837324,-1
825,826,1583237704194,3.8416,-0.1681,5.0322,10.07076,5.8161287,8.981742,-1
826,827,1583237704204,3.9789,-0.3836,4.4051,9.400833,5.434167400000001,8.096969999999999,-1
827,828,1583237704214,3.4241,-1.044,3.7663998999999997,8.0637,5.0319414,7.870852,-1
828,829,1583237704224,0.98539996,-2.4327,4.232,6.4508314,4.4612885,8.095486,-1
829,830,1583237704234,0.98539996,-2.4327,4.232,5.6763363,4.1099825,8.070184,-1
830,831,1583237704244,-0.44039997,-3.9201,4.4165998,4.738106,3.4653769999999997,7.6840660000000005,-1
831,832,1583237704255,-0.44039997,-3.9201,4.4165998,3.4807956,3.0480007999999996,6.9638995999999995,-1
832,833,1583237704265,-2.4127,-4.8423,3.4190998,2.2320087,3.1710627000000002,6.153089,-1
833,834,1583237704275,-2.9448,-4.8631997,2.9747,1.6769563000000003,3.3005126000000002,5.619057,-1
834,835,1583237704285,-3.2291,-4.981,2.7245998,1.2320274,3.3379673999999997,5.2651653,-1
835,836,1583237704296,-3.4013998999999995,-5.1598,2.5516999,0.9276095,3.2677982000000005,4.887916000000001,-1
836,837,1583237704306,-3.3051998999999994,-5.5587,2.0458998999999998,0.8940906999999999,2.9415355,4.2116213,-1
837,838,1583237704316,-3.1748,-6.0719,1.5892998999999999,0.7602644000000001,2.5972779,3.6183379,-1
838,839,1583237704326,-3.2745,-6.2599998,1.037,0.48560157,2.580662,2.8967829,-1
839,840,1583237704336,-3.4784,-6.2415,0.4497,0.1104972,2.6920884,2.209647,-1
840,841,1583237704346,-3.6790998,-6.1735997000000005,-0.1064,-0.39798337,2.8072397999999996,1.4334661,-1
841,842,1583237704357,-4.0332,-6.4094,-0.519,-0.91974694,2.624993,0.97010183,-1
842,843,1583237704366,-4.2780000000000005,-6.5467997,-0.7998,-1.1265773000000001,2.6176572,0.6871838,-1
843,844,1583237704376,-4.1025,-6.5867,-1.1606,-1.0742495,2.6049776000000002,0.227679,-1
844,845,1583237704386,-3.9766,-6.7468996,-1.5169,-0.9957101999999999,2.5105312,-0.21374474,-1
845,846,1583237704396,-3.2819998,-6.7346997,-1.9621998999999999,-0.3558071,2.6427007000000002,-0.76321405,-1
846,847,1583237704406,-3.2819998,-6.7346997,-1.9621998999999999,-0.032877177,2.9384995,-1.0847648,-1
847,848,1583237704416,-2.6962,-6.1282997,-2.03,-0.12570517,3.277643,-0.7288140999999999,-1
848,849,1583237704426,-2.5159,-6.1815996,-1.3623999,-0.014499285,3.215384,-0.07106948,-1
849,850,1583237704437,-2.4682,-6.2407,-0.9208,-0.21684764,3.2347867000000003,0.32243195,-1
850,851,1583237704448,-2.7782,-6.1197996,-0.5574,-0.63501894,3.4824428999999997,0.6172443,-1
851,852,1583237704459,-2.9389999999999996,-5.8771996,-0.3225,-0.62275106,3.7328476999999998,0.76619244,-1
852,853,1583237704469,-2.5918,-5.6889997,-0.3031,-0.33633748,3.9968421000000003,0.6988483,-1
853,854,1583237704479,-2.2266,-5.2908,-0.4098,0.06219178400000001,4.5193624,0.5590269,-1
854,855,1583237704489,-1.8299999,-4.8993998,-0.55439997,0.40466797,4.769815,0.40421787,-1
855,856,1583237704499,-1.5180999,-4.7703,-0.67759997,0.40914991,4.85999,0.504736,-1
856,857,1583237704509,-1.6502999,-4.6298,-0.4152,0.17127160000000002,5.0969777,0.9980948000000001,-1
857,858,1583237704520,-1.7070999,-4.3705997000000005,0.0903,0.35499308,5.334473,1.3871428999999997,-1
858,859,1583237704530,-1.3978,-4.0713,0.29819998,0.48493117,5.844515,1.3671274,-1
859,860,1583237704540,-1.4666,-3.5073998,0.1547,0.22499749,6.4038863,1.1671637,-1
860,861,1583237704550,-1.6567,-3.0028,-0.0278,0.024669856,6.806553,1.1281861,-1
861,862,1583237704560,-1.7926999,-2.6743,0.10789999,-0.016912641000000003,7.0024076,1.3194925,-1
862,863,1583237704570,-1.7671,-2.5899,0.1461,0.049253516,6.963679300000001,1.1208311000000002,-1
863,864,1583237704580,-1.6199,-2.6121,-0.122499995,0.38355112,7.0494304,0.84211737,-1
864,865,1583237704591,-1.1653,-2.4557,-0.33879998,0.8974905000000001,7.365311599999999,0.6992314000000001,-1
865,866,1583237704601,-0.6673,-2.0033998,-0.4737,1.4836292,7.9981947,0.54471916,-1
866,867,1583237704611,-0.025999999,-1.3636,-0.7104,2.157597,8.604627,0.10366893,-1
867,868,1583237704621,0.4482,-0.9295,-1.1243,2.3158731,8.813057,-0.23642263,-1
868,869,1583237704632,0.5139,-0.74109995,-1.4218,2.1683328,8.891164999999999,-0.31285512,-1
869,870,1583237704642,0.35889998,-0.6914,-1.4203,2.0214055,8.874433999999999,-0.035616145,-1
870,871,1583237704652,0.2074,-0.7107,-1.1079,1.7849348000000003,8.930296,0.5511644,-1
871,872,1583237704663,-0.0011999999,-0.61259997,-0.5007,1.6881708,9.057811000000001,1.1992843,-1
872,873,1583237704673,-0.0633,-0.4951,0.1183,1.8666825,9.181562,1.75902,-1
873,874,1583237704683,0.1677,-0.3875,0.6325,2.0282815,9.297356,1.8125925999999999,-1
874,875,1583237704693,0.2809,-0.26049998,0.53999996,1.8961886000000003,9.403601,1.3799795,-1
875,876,1583237704703,0.13,-0.1626,0.0325,1.8136748,9.648557,0.54353166,-1
876,877,1583237704714,0.076,0.0639,-0.68829995,2.032773,9.945159,0.18004397,-1
877,878,1583237704724,0.3032,0.3606,-1.073,2.3452356,10.173518,0.32052615,-1
878,879,1583237704734,0.6067,0.5995,-0.9522,2.5573905,10.237655,0.70260245,-1
879,880,1583237704744,0.8232,0.6616,-0.5952,2.7597674999999997,10.17868,1.1108139,-1
880,881,1583237704754,1.0338,0.6045,-0.2118,2.953353,10.1680975,1.1872463,d
881,882,1583237704765,1.2293,0.5945,-0.1445,2.6863134,10.111288,1.4311198,-1
882,883,1583237704775,0.53819996,0.52129996,0.5208,2.1274111,10.102017,1.957825,-1
883,884,1583237704785,0.53819996,0.52129996,0.5208,1.6416273999999997,10.075998,2.291864,-1
884,885,1583237704795,-0.5566,0.27969998,1.2092999,1.0126036,9.816764,2.60696,-1
885,886,1583237704806,-0.7453,0.081,1.3830999,0.87185335,9.646957,2.7532554,-1
886,887,1583237704815,-0.7453,0.081,1.3830999,0.8490414000000001,9.623292999999999,2.7297919999999998,-1
887,888,1583237704825,-0.5401,-0.0103,1.1961,1.1645876,9.580188,2.4874509999999996,-1
888,889,1583237704835,-0.1131,-0.0898,0.8641,1.5371253,9.475598,2.1661587000000004,-1
889,890,1583237704845,-0.0163,-0.2383,0.6479,1.5704048000000002,9.313617,1.9712421000000002,-1
890,891,1583237704855,-0.0698,-0.4461,0.6239,1.4822886,9.093024,2.0288177,-1
891,892,1583237704865,-0.0698,-0.4461,0.6239,1.2167332,8.869464,2.4054737,-1
892,893,1583237704875,-1.0378,-1.1876999,1.9416,0.29121155,8.281362,3.5229242,-1
893,894,1583237704886,-2.108,-1.9282999,2.8974,-0.9016659,7.490183999999999,4.475213,-1
894,895,1583237704896,-3.4777,-2.9055998,3.7989998,-2.3411748,6.4868120000000005,5.337087599999999,-1
895,896,1583237704906,-4.9751,-3.8925998,4.5058,-3.8948586000000005,5.545986,6.0014305,-1
896,897,1583237704916,-6.2929997,-4.8287,4.8842,-5.1709394,4.5999317,6.293819999999999,-1
897,898,1583237704926,-6.2929997,-4.8287,4.8842,-5.9589476999999995,3.7347437999999995,6.3818693,-1
898,899,1583237704937,-7.5341997,-6.4150996,5.1295,-6.245725,3.0865473999999997,6.628768400000001,-1
899,900,1583237704947,-7.718499700000001,-6.9076,5.3599,-6.472447,2.6052362999999996,6.893538499999999,-1
900,901,1583237704958,-8.1178,-7.1422,5.6092997,-6.916485000000001,2.3781223,7.3582344,-1
901,902,1583237704968,-8.6327,-7.4733,6.3863997,-7.3540779999999994,1.8931624,8.3460045,-1
902,903,1583237704978,-9.0566,-8.0772,7.4954996,-7.595681699999999,1.2476568000000001,9.400114,-1
903,904,1583237704988,-9.0739,-8.674399000000001,8.2223,-7.347202,0.6191884,9.776406,-1
904,905,1583237704999,-8.8201,-9.3001995,8.066,-6.881452599999999,0.05071877,9.124953999999999,-1
905,906,1583237705009,-8.3245,-9.7666,6.9273,-6.122922,-0.42304587,7.620466,-1
906,907,1583237705019,-7.4800997,-10.0005,5.335099700000001,-5.187938,-0.48245079999999996,6.276074400000001,-1
907,908,1583237705030,-6.1604,-9.4874,4.0418997,-3.059349,0.38678809999999997,4.771146,-1
908,909,1583237705040,-4.8747,-8.8126,3.4334,-1.6052836000000001,0.84179175,4.478603400000001,-1
909,910,1583237705050,-3.6962998,-8.4079,3.4022,-0.15427278,1.2895745,4.580702,-1
910,911,1583237705060,-2.4942,-7.7939997000000005,3.4731998,1.7898095,1.6716220000000002,4.267875,-1
911,912,1583237705070,-1.0182999,-7.561899700000001,2.9608,3.455599,1.6213726000000002,3.201833,-1
912,913,1583237705080,0.7567,-7.4198,1.4542999,5.243206,2.0447726000000004,1.6220523999999998,-1
913,914,1583237705091,2.2266998,-6.6414,0.0121,7.559442999999999,3.3057222,-0.043335054000000005,-1
914,915,1583237705101,3.9406998,-5.3514,-1.2895,8.96981,4.4907084,-0.5641409000000001,-1
915,916,1583237705111,5.3998,-3.7043,-1.7048,10.668352,5.8388834,-0.7114993000000001,-1
916,917,1583237705121,6.7658,-2.4173,-1.7872,12.3007765,6.8044267000000005,-0.502112,-1
917,918,1583237705131,7.7131996,-1.6228,-1.6923,12.838610000000001,6.8951283,-0.654297,-1
918,919,1583237705141,7.9540997,-1.5922999,-2.2628999,13.146158999999999,6.415982,-1.8037150000000002,-1
919,920,1583237705152,8.0571995,-1.8002,-3.4536,14.243651000000002,6.7905690000000005,-3.1948898,-1
920,921,1583237705162,9.2083,-1.0648,-4.94,16.899654,8.021647999999999,-4.5427585,-1
921,922,1583237705172,11.9381,0.35639998,-6.3789,20.096632,9.223346000000001,-5.8512373,-1
922,923,1583237705182,14.7936,1.7594,-7.7840996,22.320856,10.424709,-7.0097437000000005,-1
923,924,1583237705192,16.598299,3.0449998,-8.9704,23.104765,10.948273,-7.4642973,-1
924,925,1583237705203,16.978899,3.5254998,-9.3847,22.807776999999998,10.354242,-6.8885303,-1
925,926,1583237705213,16.5781,3.0556,-8.9591,21.935091,9.689689,-6.145226,-1
926,927,1583237705223,15.4106,2.3583998999999998,-8.1577,21.204782,8.862414999999999,-5.106267,-1
927,928,1583237705233,14.838598999999999,1.7598,-7.4083,21.39226,8.51856,-4.877774,-1
928,929,1583237705243,14.9605,1.4901999,-7.2553997,21.452995,8.443478,-5.8854456,-1
929,930,1583237705254,14.9815,1.4706999,-8.2997,21.196442,8.344904,-7.495355,-1
930,931,1583237705264,14.687099,1.4186,-9.9341,20.443369,7.8847284,-8.545156,-1
931,932,1583237705274,13.894798999999999,0.9921,-11.017099,19.128675,7.182930499999999,-9.037153,-1
932,933,1583237705284,12.577,0.32259998,-11.5357,17.675922,6.341071599999999,-9.0187,-1
933,934,1583237705294,11.115,-0.4974,-11.5769,16.339403,5.578614,-8.166058,-1
934,935,1583237705304,9.7996,-1.2386,-10.8164,15.246429000000001,4.943586,-6.8980494000000006,-1
935,936,1583237705314,7.9596995999999995,-2.3655999,-8.2493,14.318753,4.3206434,-5.203280400000001,-1
936,937,1583237705325,7.9596995999999995,-2.3655999,-8.2493,13.390866,3.8632362000000002,-4.3537602,-1
937,938,1583237705335,6.4224,-3.3369,-6.9623,12.863913,3.291357,-4.0202575,-1
938,939,1583237705345,6.0089999999999995,-3.7909,-6.9754,12.477219999999999,2.8369853,-4.0342875,-1
939,940,1583237705355,5.8441997,-4.2616997,-6.9705997,12.420812,2.3243005,-4.0256300000000005,-1
940,941,1583237705365,5.950599700000001,-4.6176,-6.7977,12.515775999999999,2.008534,-3.7466862,-1
941,942,1583237705375,5.9203997,-4.8873997000000005,-6.093499700000001,12.515134,1.6646502,-2.867928,-1
942,943,1583237705386,5.9214997,-5.3461,-4.6136,12.512567500000001,1.1850053999999999,-1.1950611,-1
943,944,1583237705396,5.6281,-5.4575,-2.6599,12.115532,1.0364499,0.88347954,-1
944,945,1583237705406,4.7825,-5.7177,-0.72389996,11.096511999999999,0.7181169,3.0817685,-1
945,946,1583237705416,4.0459,-5.7661,0.5433,10.440013,0.763645,4.1010375,-1
946,947,1583237705426,3.3262,-5.4751997,1.2085,9.907963,1.0549045,4.3539705,-1
947,948,1583237705436,2.9592,-5.0680000000000005,0.96819997,9.689055999999999,1.4550999,3.8992447999999995,-1
948,949,1583237705446,2.7744,-4.8039,0.6325,9.4997425,1.5074086000000002,3.61286,-1
949,950,1583237705457,2.4645,-5.0709,0.52169997,9.320723,1.0062064,3.6729543,-1
950,951,1583237705467,2.4219999999999997,-5.5709,1.2643,9.331497,0.52298945,5.117807,-1
951,952,1583237705477,2.1722,-5.6549997,3.7688,8.958067999999999,0.66402704,8.139089,-1
952,953,1583237705487,1.5159,-5.0924997,7.0037,8.348303999999999,1.197618,11.341324,-1
953,954,1583237705497,0.9799,-4.4797997,9.8737,7.934518300000001,1.7907766999999999,13.810263,-1
954,955,1583237705508,0.406,-3.6662998,11.6591,7.328345,2.583727,15.289372,-1
955,956,1583237705518,-0.2611,-2.8889,12.9437,7.0369515,3.2738984,16.301008,-1
956,957,1583237705528,0.110599995,-1.9067999,13.599,7.8156605,4.288427400000001,16.70739,-1
957,958,1583237705538,0.8125,-0.9622,14.0728,8.370905,5.0121655,17.2922,-1
958,959,1583237705548,0.7643,-0.26479998,14.9283,8.032164,5.608724,18.268295000000002,-1
959,960,1583237705559,0.0368,0.2801,15.8907995,7.0950446,6.0574355,19.481926,-1
960,961,1583237705569,-0.6791,0.68149996,17.033499,6.6021166,6.451502,20.861504,-1
961,962,1583237705579,-1.0467,1.1561999,18.380499,6.710689,6.94827,22.01503,-1
962,963,1583237705590,-0.6277,1.7521,19.3233,7.417045599999999,7.562498,22.768273999999998,-1
963,964,1583237705600,0.01,2.4464,19.893599,7.8866057000000005,8.308330999999999,23.139404000000003,-1
964,965,1583237705610,0.4506,3.2731,20.0861,8.397039999999999,9.089692,22.831913,-1
965,966,1583237705620,0.86649996,4.0122,19.2169,8.191378,9.600012,20.922142,-1
966,967,1583237705630,0.4386,4.2082,17.4483,7.457124,9.467363,19.550793,-1
967,968,1583237705640,-0.4996,3.9129998999999995,15.767698999999999,6.501598400000001,9.034942,18.04821,-1
968,969,1583237705650,-1.3350999,3.3674,14.3345995,5.712211,8.457996000000001,16.681581,-1
969,970,1583237705661,-1.7906,2.8321,13.246699,5.6483620000000005,8.084807000000001,15.489182000000001,-1
970,971,1583237705671,-1.6474999,2.4275,11.9367,6.0734386,8.011823,14.254464000000002,-1
971,972,1583237705681,-0.93909997,2.3423,10.321199,7.038177,8.169025,12.253351,-1
972,973,1583237705691,-0.057499997000000004,2.4498,8.672999,8.008116000000001,8.613007000000001,10.5706215,-1
973,974,1583237705701,1.0392,2.8783,6.9849,8.973267,9.134741,9.004161999999999,-1
974,975,1583237705711,1.9533,3.2452998,5.5323,9.330721,9.1628685,8.19132,-1
975,976,1583237705722,2.3658,3.0772998,4.7611,9.620171000000001,8.990783,7.796325,-1
976,977,1583237705732,2.6985,2.8555999,4.5632,10.051806,8.925325,7.540308500000001,-1
977,978,1583237705742,3.2812997999999998,2.6987997999999997,4.2685,10.806325,8.88969,6.970373599999999,-1
978,979,1583237705752,4.1604,2.5774,3.6487,11.600041000000001,9.011152000000001,5.9817886,-1
979,980,1583237705763,5.0211997,2.6274998,2.5906,12.397933,9.245094,4.863179,-1
980,981,1583237705773,5.9133997,2.7705,1.6048,13.115235,9.4843235,4.3379197,-1
981,982,1583237705783,6.6524997,2.8395998,1.2966,13.214729,9.253206,4.779746,-1
982,983,1583237705794,6.7528996,2.4794,1.8090998999999999,12.775967999999999,8.794122999999999,5.1845675,-1
983,984,1583237705804,6.4339,1.8842,2.2791,12.354502,8.332042,5.2134795,-1
984,985,1583237705814,6.1355996,1.28,2.3874,12.034914,7.970134700000001,4.7712417,-1
985,986,1583237705824,5.943,0.7669,2.0416,11.834759,7.734832300000001,3.9161766000000005,-1
986,987,1583237705834,5.8824997,0.37799999999999995,1.2918,11.786684,7.366987,3.3809192,-1
987,988,1583237705845,5.9733996,-0.1479,0.8864,11.564942,6.836949300000001,3.4739964,-1
988,989,1583237705855,5.5642,-1.4077,1.4083999,10.943589999999999,6.335028599999999,3.6299930000000002,-1
989,990,1583237705865,4.9481,-1.935,1.3511,10.138391,5.9473696,3.4014422999999994,-1
990,991,1583237705876,4.2111,-2.3797,1.1247,9.238697,5.6821779999999995,3.0008156,-1
991,992,1583237705886,3.8118,-2.6527,0.5552,8.795549000000001,5.539062,2.2243473999999996,-1
992,993,1583237705896,3.8118,-2.6527,0.5552,8.603296,5.284098999999999,1.5150412,-1
993,994,1583237705906,3.484,-3.6439,-0.9005,8.039164,4.7374067,0.54313904,-1
994,995,1583237705916,2.9794,-4.2455,-1.4834,7.330892599999999,4.2701163,-0.20847751,-1
995,996,1583237705926,2.2728,-4.8522,-2.1102,6.406328,3.7993875,-0.9309039000000001,-1
996,997,1583237705937,1.5487,-5.2769,-2.6102998,5.304651,3.405139,-1.6295128,-1
997,998,1583237705947,0.8057,-5.7935,-2.8251,4.537989,3.050596,-1.8635508,-1
998,999,1583237705957,-0.0050999997,-6.45,-2.7995,3.3036248999999995,2.3433201,-2.0611491,-1
999,1000,1583237705967,-0.90489995,-7.1274,-2.9556,2.2475327999999997,1.7502763,-2.4606168,-1
1000,1001,1583237705978,-1.7505,-7.8143997,-3.2937,1.2244713,1.2110351000000001,-2.9572794,-1
1001,1002,1583237705988,-2.4782999,-8.294499,-3.5853998999999996,0.41460872,0.83841115,-3.2853234,-1
1002,1003,1583237705998,-2.9650998,-8.6364,-3.7424998,-0.108237065,0.6500258000000001,-3.5388696000000004,-1
1003,1004,1583237706008,-3.1538,-8.7435,-3.9364,-0.35694674,0.6297708000000001,-3.8034480000000004,-1
1004,1005,1583237706018,-3.1406999,-8.8235,-4.1103997,-0.3536236,0.55939084,-4.0537953,-1
1005,1006,1583237706028,-2.9213,-9.0454,-4.3346,-0.46995306,0.24767539,-4.527436,-1
1006,1007,1583237706038,-3.245,-9.3623,-4.7706,-1.2944969,-0.11709562,-5.0093502999999995,-1
1007,1008,1583237706049,-4.1664,-9.8341,-5.088,-2.6142576,-0.72724354,-5.1916447,-1
1008,1009,1583237706059,-5.4715,-10.5486,-5.069,-4.241443,-1.4539891,-5.137794,-1
1009,1010,1583237706069,-7.1471,-11.2695,-4.9268,-6.1745315000000005,-2.1063992999999996,-5.0341825,-1
1010,1011,1583237706079,-8.9865,-11.9267,-4.8017,-7.7772098,-2.547536,-5.0515165,-1
1011,1012,1583237706089,-10.1002,-12.2143,-4.8778996,-8.232453,-2.6796957999999997,-5.234386,-1
1012,1013,1583237706100,-10.1256,-12.2189,-5.0723,-7.8768663,-2.5554943,-5.511174700000001,-1
1013,1014,1583237706110,-9.651299,-12.097899,-5.4526997,-7.3891864,-2.482998,-6.004629,-1
1014,1015,1583237706120,-9.2969,-12.1174,-5.9897,-6.9997935,-2.6943007000000003,-6.500076,-1
1015,1016,1583237706130,-8.957399,-12.405999999999999,-6.3802,-6.782716000000001,-3.0944004,-6.5410832999999995,-1
1016,1017,1583237706140,-9.0107,-12.8564,-6.2137,-6.7895827,-3.8023562000000006,-6.0175004,-1
1017,1018,1583237706150,-9.0925,-13.4581995,-5.7734,-6.6884418000000005,-4.314763,-5.5691524,-1
1018,1019,1583237706161,-9.0987,-14.0822,-5.205899700000001,-6.6465435,-4.847272,-4.9544654,-1
1019,1020,1583237706171,-9.2286,-14.6772995,-4.357599700000001,-6.50654,-5.6986694,-3.5620072,-1
1020,1021,1583237706181,-9.278999,-15.199599,-3.4299,-6.137335,-6.311844000000001,-2.5314276,-1
1021,1022,1583237706191,-9.1145,-15.6915,-2.5883,-5.5945983,-6.813860000000001,-1.6421639,-1
1022,1023,1583237706201,-8.7501,-16.0805,-1.8168999,-4.325298,-7.198177,-0.78369886,-1
1023,1024,1583237706212,-7.64,-16.4216,-1.0853,-3.3824419999999997,-7.716004400000001,0.018090586999999998,-1
1024,1025,1583237706222,-7.1341996,-16.7694,-0.4534,-2.5935907000000005,-7.962521000000001,1.0822079,-1
1025,1026,1583237706232,-6.4642,-16.7637,0.419,-0.45009077,-7.567966499999999,1.9043957999999999,-1
1026,1027,1583237706242,-4.5797,-16.0287,0.89989996,1.4391546,-7.021226400000001,2.1257639999999998,-1
1027,1028,1583237706253,-3.2389,-15.3102,0.85999995,2.9782145,-6.722956699999999,1.9866511999999998,-1
1028,1029,1583237706263,-2.0038,-14.795,0.4296,4.9321227,-7.067741000000001,1.2781014,-1
1029,1030,1583237706273,-0.3356,-15.007999,-0.5408,7.649599,-7.580234,0.5367417,-1
1030,1031,1583237706283,2.1107,-14.9597,-1.3479999,11.619837,-6.832103699999999,1.2632575000000001,-1
1031,1032,1583237706293,5.0885997000000005,-13.8561,-0.8032,15.500043,-5.645116000000001,3.114866,-1
1032,1033,1583237706304,9.6673,-11.7702,1.3425,21.67286,-2.5331228,6.9053664,-1
1033,1034,1583237706314,14.4015,-8.5612,4.2675,25.42738,-0.040720582000000005,9.874722,-1
1034,1035,1583237706324,17.8526,-5.5207996,6.9044,27.809708,1.4206427,11.513256,-1
1035,1036,1583237706335,19.9839,-3.5324,8.223599,27.855501,2.2161880000000003,11.726666,-1
1036,1037,1583237706344,19.8594,-2.2196,8.131,24.882967,2.1556816000000003,12.912217,-1
1037,1038,1583237706354,16.786998999999998,-1.8039999,9.024,22.704119,1.8539644,14.209060999999998,-1
1038,1039,1583237706365,14.1812,-1.6633999,10.282499000000001,21.943348,2.0595498,14.621792000000001,-1
1039,1040,1583237706375,13.7205,-0.3547,9.9887,23.259995999999997,4.187459,12.990412,-1
1040,1041,1583237706385,14.9488,1.4547,8.531899000000001,24.293688,5.31418,11.739777,-1
1041,1042,1583237706395,16.2179,4.0654,6.2208,24.561129,6.142583,10.82748,-1
1042,1043,1583237706405,15.630699,4.5188,5.8775997,23.744802,6.1037397,10.853147,-1
1043,1044,1583237706416,14.1166,4.351,6.4609,22.026445000000002,5.550717400000001,11.781378,-1
1044,1045,1583237706426,14.1166,4.351,6.4609,20.265968,5.019061,13.073988,-1
1045,1046,1583237706436,9.8569,3.5119998,9.1865,17.630058,4.1647806,14.697287,-1
1046,1047,1583237706446,7.6959,3.135,9.743199,15.4911175,3.6614910000000003,15.176020999999999,-1
1047,1048,1583237706456,5.9722,3.0925999,9.1559,13.863663,3.5141134,14.356495,-1
1048,1049,1583237706466,5.3413997,3.6509,7.5834,13.496948000000001,4.0125383999999995,12.731100999999999,-1
1049,1050,1583237706477,5.7644997,4.1777997000000004,5.7829999999999995,14.006444,4.340324,10.953185000000001,-1
1050,1051,1583237706487,6.2574997,4.491699700000001,4.0484,14.357347500000001,4.466412,9.169754,-1
1051,1052,1583237706497,6.1836,4.4261,3.1634,14.119249,4.1453304,8.785245,-1
1052,1053,1583237706507,5.9382997,4.1366997,3.2161,13.823948000000001,3.8466777999999997,9.01688,-1
1053,1054,1583237706517,5.3458,4.0008,3.6689,12.978833,3.5702336000000003,9.6573,-1
1054,1055,1583237706528,4.6445,3.8158,4.1275,12.256272000000001,3.2592747,10.085891,-1
1055,1056,1583237706538,3.7726,3.5667,4.3296,11.209557,2.929823,10.114526,-1
1056,1057,1583237706548,2.6508,3.1429,4.0689,10.135173,2.4326336,9.679901,-1
1057,1058,1583237706558,1.7933999,2.707,3.32,9.475666,2.111121,8.695950999999999,-1
1058,1059,1583237706568,1.4254999,2.5555,2.1986,9.277139,2.0210032,7.6449447,-1
1059,1060,1583237706579,1.3886,2.4461,1.4696,9.321595,1.8976346000000002,7.1582894,-1
1060,1061,1583237706589,1.5589,2.3562999,1.3149998999999999,9.580417,1.8257321,7.316201700000001,-1
1061,1062,1583237706599,1.8248999,2.3530998,1.5827,9.783455,1.7762773,7.639208,-1
1062,1063,1583237706609,1.9751999,2.2714,1.8382,9.7360115,1.6352494,7.794065,-1
1063,1064,1583237706620,1.8388,2.1234999,1.8707999,9.434429,1.4133643,7.7813663,-1
1064,1065,1583237706630,1.4326999,1.8367,1.8305,8.897591,1.1080748,7.801008,-1
1065,1066,1583237706640,0.9129,1.5388,1.8359999999999999,8.41333,0.853667,7.715219,-1
1066,1067,1583237706650,0.4263,1.26,1.6229999,7.881185,0.55780107,7.2890224,-1
1067,1068,1583237706660,-0.0449,0.9535,1.1014,7.5861144,0.38596448,6.716703,d
1068,1069,1583237706670,-0.214,0.8218,0.6604,7.6633034,0.32065064,6.2916846,-1
1069,1070,1583237706681,-0.06839999599999999,0.7327,0.2483,7.985161,0.29603824,6.1149445,-1
1070,1071,1583237706691,0.2767,0.7188,0.17549999,8.245372,0.3516316,6.417178599999999,-1
1071,1072,1583237706701,0.4786,0.7305,0.5197,8.284264,0.2142236,6.811705,-1
1072,1073,1583237706711,0.5082,0.5482,0.8882,8.238764,0.09196607,7.1226735,-1
1073,1074,1583237706721,0.4728,0.4242,1.1443,8.208397,-0.005066131,7.236063000000001,-1
1074,1075,1583237706731,0.43949997,0.30719998,1.2209999999999999,8.049957000000001,-0.14109509,7.461788,-1
1075,1076,1583237706742,0.30699998,0.1665,1.4462999,7.927307000000001,-0.16059348,7.529822,-1
1076,1077,1583237706752,0.1911,0.14739999,1.4301,7.9742336,-0.07109821599999999,7.3143915999999995,-1
1077,1078,1583237706762,0.3069,0.21079999,1.1831,8.304471000000001,0.037837964,7.129989999999999,-1
1078,1079,1583237706772,0.6752,0.25059998,1.008,8.542387,0.09401551,6.9756694,-1
1079,1080,1583237706782,0.9166,0.2385,0.7834,8.698049000000001,0.09301952,6.644723399999999,-1
1080,1081,1583237706793,1.0139999,0.2059,0.5256,8.753163,0.0889398,6.693738000000001,-1
1081,1082,1583237706803,1.0758,0.1648,0.55799997,8.772949,0.23357832,6.9535375,-1
1082,1083,1583237706813,1.1214,0.2741,0.80219996,8.832469,0.48685613,7.2464056,-1
1083,1084,1583237706823,1.1998999,0.4831,1.0717,8.839422,0.5856218000000001,7.394961400000001,-1
1084,1085,1583237706833,1.2314,0.60249996,1.2803999,8.891299,0.8368405000000001,7.5794106,-1
1085,1086,1583237706843,1.3017,0.75659996,1.3527,9.138582000000001,1.0737038,7.6852244999999995,-1
1086,1087,1583237706854,1.5653,0.9543,1.4389,9.548814,1.2475896999999998,7.6646339999999995,-1
1087,1088,1583237706864,1.9901999,1.0667,1.4046999,10.159182000000001,1.4487313999999998,7.653688000000001,-1
1088,1089,1583237706874,2.6039,1.2100999,1.3901,10.53172,1.5675508999999999,7.948203599999999,-1
1089,1090,1583237706884,2.9471998,1.2377,1.599,10.550462,1.6637403999999998,8.296532000000001,-1
1090,1091,1583237706894,2.9961,1.2693,2.0347,10.612461999999999,1.7661165,8.789660000000001,-1
1091,1092,1583237706905,3.0704,1.2986,2.5235999,10.643185,1.9328678,9.250658999999999,-1
1092,1093,1583237706915,3.3481998,1.5462999,3.2045,10.954096,2.198873,9.526931,-1
1093,1094,1583237706925,3.6739,1.6119,3.3256997999999998,11.209164,2.4012692,9.667643,-1
1094,1095,1583237706935,3.8999998999999996,1.7436,3.2849,11.399465,2.6103406000000002,9.570084,-1
1095,1096,1583237706946,3.995,1.7231,3.1738,11.423148,2.6712778,9.483309,-1
1096,1097,1583237706955,3.995,1.7231,3.1738,11.214029,2.6980548,9.447655000000001,-1
1097,1098,1583237706965,3.5832,1.5410999,3.12,10.971726,2.8110228,9.427217,-1
1098,1099,1583237706975,3.4917998,1.6013,3.2519999,10.963088,3.077957,9.54528,-1
1099,1100,1583237706985,3.8133998,1.7328999,3.1627998,11.384821,3.3907258999999996,9.335433,-1
1100,1101,1583237706995,4.3069,1.8781999,3.0440998,11.786453999999999,3.6161637000000004,9.202871,-1
1101,1102,1583237707006,4.592,1.9083999,2.8156998,11.999193,3.8330212,8.980833,-1
1102,1103,1583237707016,4.5118,1.7918999,2.6848,11.821792,3.867718,8.80074,-1
1103,1104,1583237707026,4.2300997,1.5863,2.5388,11.452425,3.848325,8.66747,-1
1104,1105,1583237707036,3.6364,1.2328,2.7056,10.799736,3.6618739999999996,8.8279,-1
1105,1106,1583237707046,3.1094,0.83879995,2.8379,10.293171000000001,3.5133376000000003,8.891739,-1
1106,1107,1583237707056,2.8130999,0.5712,2.8918998,9.9267435,3.4589797999999994,8.685772,-1
1107,1108,1583237707067,2.531,0.2626,2.4686,9.629364,3.434243,8.063604,-1
1108,1109,1583237707077,2.2194,0.0382,1.9199,9.282894,3.4697347,7.416212,-1
1109,1110,1583237707087,1.8871,-0.18789999,1.4855,8.990839999999999,3.4578976999999997,7.0175776,-1
1110,1111,1583237707097,1.4273,-0.5653,1.1748999,8.43755,3.3087869,6.5183,-1
1111,1112,1583237707107,1.1932,-0.898,0.92069995,8.198532,3.2754211,6.090141,-1
1112,1113,1583237707117,0.96809995,-1.0674,0.4874,7.852196000000001,3.3529453,5.495526,-1
1113,1114,1583237707128,0.5452,-1.2407,0.052199997000000005,7.3626585,3.3331022000000003,4.977296400000001,-1
1114,1115,1583237707138,0.1196,-1.5733999,-0.2479,6.862127,3.2301900000000003,4.604979,-1
1115,1116,1583237707148,-0.1639,-1.8084999,-0.39339998,6.603055,3.2630956,4.396425,-1
1116,1117,1583237707158,-0.2974,-2.033,-0.39389998,6.400851,3.2051847,4.4123125,-1
1117,1118,1583237707168,-0.52639997,-2.3155,-0.0642,6.040188,3.1307251,4.729975,-1
1118,1119,1583237707178,-0.8161,-2.5565999,0.4332,5.5613956,3.2209482000000005,5.09806,-1
1119,1120,1583237707189,-1.1632999,-2.5728998,0.8063,5.1457524,3.5135965,5.329330000000001,-1
1120,1121,1583237707199,-1.3627,-2.3518,1.1136,5.229492,3.9723062999999996,5.483143,-1
1121,1122,1583237707209,-1.0054,-1.9869999999999999,1.3669,5.792713,4.514277,5.49679,-1
1122,1123,1583237707219,-0.21669999,-1.6075,1.3303,6.471565200000001,4.9044742999999995,5.180181,-1
1123,1124,1583237707229,0.70449996,-1.2954999,0.93299997,7.24563,5.360819,4.4798480000000005,-1
1124,1125,1583237707239,1.1553999,-1.2009999999999998,0.41759998,7.262734399999999,5.4751754,3.8132257000000007,-1
1125,1126,1583237707249,1.0199,-1.3931,-0.0308,6.592061,5.384646,3.4407551,-1
1126,1127,1583237707260,0.21689999,-1.5554999,-0.1662,5.705899700000001,5.566231299999999,3.2254496,-1
1127,1128,1583237707270,-0.26049998,-1.3895,-0.2598,5.630491999999999,6.101173,2.9756384,-1
1128,1129,1583237707280,-0.1563,-0.8795,-0.3087,5.4993377,6.8778809999999995,2.946544,-1
1129,1130,1583237707290,-0.2059,-0.1618,-0.1213,5.506232700000001,7.7590523000000005,3.2209866000000003,-1
1130,1131,1583237707300,0.024999999,0.273,0.3442,5.9453583,7.876933,3.8455765,-1
1131,1132,1583237707310,0.77379996,0.18859999,1.3794999,6.664030599999999,7.7903204,4.7936034,-1
1132,1133,1583237707320,1.4659,0.0501,2.116,7.5214514999999995,7.849898,4.804598,-1
1133,1134,1583237707331,2.6445,-0.0212,1.9564999,8.0277,7.8710146,3.9053068,-1
1134,1135,1583237707341,2.7747,-0.0885,1.2492,7.5870147,7.978131299999999,3.3103763999999996,-1
1135,1136,1583237707351,2.2333998999999998,-0.113,0.6978,6.776319,7.8597713,2.7143257000000003,-1
1136,1137,1583237707361,1.5751,-0.5406,0.3757,5.869873999999999,7.438478,2.2633348,-1
1137,1138,1583237707371,0.9709,-0.945,0.1325,5.1111226,7.3889565,1.760016,-1
1138,1139,1583237707381,0.3567,-1.0576,-0.21059999,4.5909295,7.528624499999999,1.5287169,-1
1139,1140,1583237707392,0.042,-1.0036,-0.2261,4.3034143,7.740703,1.4873451000000002,-1
1140,1141,1583237707402,-0.10300000000000001,-0.88979995,-0.1029,4.1208043,7.906707300000001,1.7795718,-1
1141,1142,1583237707412,-0.0972,-0.8154,0.38279998,4.425347,8.083188999999999,2.2202964,-1
1142,1143,1583237707422,0.452,-0.6349,0.89949995,5.3489914,8.557136,2.3033273,-1
1143,1144,1583237707432,1.5684999,-0.2828,1.0105,6.1195699999999995,8.620534,2.074729,-1
1144,1145,1583237707442,2.3497,-0.3885,0.90889996,6.143052,8.2949705,1.5705004999999999,-1
1145,1146,1583237707452,2.3435,-0.8476,0.39,5.287546,7.8078175000000005,0.735901,-1
1146,1147,1583237707462,1.4583,-1.3587999,-0.3599,4.219713,7.358511999999999,-0.030301016,-1
1147,1148,1583237707472,0.6357,-1.9538,-0.9281,3.3807085,6.5641155,-0.39241925,-1
1148,1149,1583237707483,-0.065,-2.8392,-1.0866,2.3919415,5.8335300000000005,-0.55088663,-1
1149,1150,1583237707493,-0.853,-3.5821,-1.153,1.7462924,5.2223573,-0.80561054,-1
1150,1151,1583237707503,-1.2522,-4.2989,-1.3269,1.1454915,4.074644,-1.167518,-1
1151,1152,1583237707514,-1.5884999,-5.3422,-1.5471,0.32651165,3.2645802,-1.335409,-1
1152,1153,1583237707524,-2.246,-6.2023,-1.6552999,-0.4317416,2.875915,-1.1632947,-1
1153,1154,1583237707535,-2.846,-6.633899700000001,-1.459,-0.8848874,2.7601602,-0.5299229999999999,-1
1154,1155,1583237707545,-3.1901,-6.7414,0.16149999,-1.0265761999999998,2.8628332999999997,0.71129817,-1
1155,1156,1583237707555,-3.2951998999999996,-6.4392,1.0066998999999999,-1.2793656999999998,3.228466,1.4798274,-1
1156,1157,1583237707565,-3.2926998,-6.0459,1.2708,-1.2888467,3.6236434,1.6402197,-1
1157,1158,1583237707576,-3.0539,-5.8956,1.129,-1.1122598999999997,3.7355866,1.463566,-1
1158,1159,1583237707586,-2.823,-5.871299700000001,0.89809996,-0.8644791999999999,3.8801102999999997,1.17947,-1
1159,1160,1583237707596,-2.2457,-5.5122,0.72069997,-0.32780454,4.2380815,1.0120865,-1
1160,1161,1583237707606,-1.5668,-5.1517,0.48259997,0.19616173,4.5349917,0.7134720999999999,-1
1161,1162,1583237707617,-1.5173,-5.1337,0.1282,0.07602069,4.5392246,0.2765303,-1
1162,1163,1583237707627,-1.7544,-4.9772997000000005,-0.4368,-0.26267266,4.8533916,-0.45721590000000006,-1
1163,1164,1583237707637,-1.8324,-4.6033,-0.7963,-0.3123667,5.2514706,-0.61422765,-1
1164,1165,1583237707647,-1.7350999,-4.2271,-0.63049996,-0.16492220000000002,5.661291,-0.29749393,-1
1165,1166,1583237707657,-1.4915999,-3.741,-0.25959998,0.015859192,6.1771173,0.043919235,-1
1166,1167,1583237707668,-1.5303999,-3.1750998,-0.0583,-0.2557103,6.7061496,0.12876974,-1
1167,1168,1583237707678,-1.6917,-2.7459,-0.0501,-0.121654175,7.177664,0.24581747,-1
1168,1169,1583237707688,-1.2914,-2.1880999,0.26639998,0.34557906,7.724671400000001,0.59246916,-1
1169,1170,1583237707698,-0.7399,-1.7277,0.41259998,0.9529306000000001,8.150160000000001,0.5005701,-1
1170,1171,1583237707708,0.0444,-1.2573,0.0184,2.0261266,8.844172,-0.2716461,-1
1171,1172,1583237707719,0.8192,-0.6301,-0.8129,2.3062577,9.320847500000001,-1.2566208,-1
1172,1173,1583237707728,0.74619997,-0.3173,-1.6690999,2.0085533,9.424583,-1.7164127,-1
1173,1174,1583237707738,0.1217,-0.25059998,-2.0377,1.1901289,9.450125,-1.9196422,-1
1174,1175,1583237707748,-0.69549996,-0.3312,-1.8413999,0.4274895,9.334303,-1.5176078000000002,-1
1175,1176,1583237707758,-1.2509999,-0.38189998,-1.3,0.058102485,9.411913,-0.74661744,-1
1176,1177,1583237707768,-1.2357,-0.2059,-0.67899996,0.288961,9.6315,-0.3969395,-1
1177,1178,1583237707778,-0.8667,0.0497,-0.5703,0.66915065,9.847782,-0.51973325,-1
1178,1179,1583237707788,-0.41529998,0.3256,-0.97429997,1.3706135,10.298736,-0.9561675,-1
1179,1180,1583237707798,0.2775,0.7198,-1.1334,2.0263374,10.5359335,-0.9163855,-1
1180,1181,1583237707808,1.0102,0.9179999999999999,-0.9964,2.5353255,10.683906,-0.7070460999999999,-1
1181,1182,1583237707818,1.0335,0.9781,-0.6920000000000001,2.4016142000000005,10.6661215,-0.42240420000000006,-1
1182,1183,1583237707828,0.5951,0.81159997,-0.31559998,1.7936976000000002,10.42581,0.06405926,-1
1183,1184,1583237707838,-0.0041,0.5462,0.0023999998999999998,1.0605930000000001,10.077625999999999,0.43857944,-1
1184,1185,1583237707848,-0.534,0.2609,0.23979999,0.74327517,9.89536,0.55207413,-1
1185,1186,1583237707859,-0.84209996,0.093499996,0.2245,0.56517524,9.774184,0.42560288,-1
1186,1187,1583237707869,-0.6965,0.07400000000000001,0.0734,0.8025747,9.794267999999999,0.31950143,-1
1187,1188,1583237707879,-0.1769,0.1437,-0.14039999,1.5121491000000002,9.902954,-0.03919787,-1
1188,1189,1583237707889,0.18100000000000002,0.22399999,-0.4132,1.763004,9.964198,-0.34645057,-1
1189,1190,1583237707900,0.46949998,0.3046,-0.66179997,2.0978475,10.087739,-0.4653179,-1
1190,1191,1583237707910,0.7188,0.4344,-0.6645,2.2969875,10.172188,-0.27857974,-1
1191,1192,1583237707920,0.8736,0.4856,-0.44129997,2.3112953,10.181746,-0.08651688,d
1192,1193,1583237707930,0.75909996,0.4772,-0.2814,2.065813,10.126515,0.16609056,-1
1193,1194,1583237707940,0.4834,0.37,-0.0042,1.8561863,10.030546000000001,0.5443553000000001,-1
1194,1195,1583237707950,0.3475,0.3114,0.3631,1.7088375,9.903108,0.763463,-1
1195,1196,1583237707961,0.19299999,0.1741,0.4122,1.5401228999999999,9.789422,0.6096882,-1
1196,1197,1583237707971,0.0195,0.0365,0.1343,1.432834,9.67088,0.2631515,-1
1197,1198,1583237707981,-0.0469,-0.0422,-0.1209,1.3904662,9.641422,0.074565016,-1
1198,1199,1583237707991,-0.0853,-0.061899997000000005,-0.29889998,1.3449093,9.694688000000001,-0.0055832784,-1
1199,1200,1583237708001,-0.0951,0.0167,-0.33409998,1.6034065,9.800942,0.051264647,-1
1200,1201,1583237708011,0.1681,0.115399994,-0.2676,1.6987052,9.8454075,0.30405405,-1
1201,1202,1583237708021,0.20709999,0.1357,0.0082,1.5961281,9.829864500000001,0.6483211,-1
1202,1203,1583237708031,0.112399995,0.1165,0.28959998,1.3983382,9.693336500000001,0.77858484,-1
1203,1204,1583237708041,-0.1344,-0.0504,0.37489998,0.973741,9.423262,0.83592117,-1
1204,1205,1583237708051,-0.5726,-0.34579998,0.4249,0.5338782,9.110158,1.0070204,-1
1205,1206,1583237708061,-0.98829997,-0.6416,0.59639996,0.079114,9.012149,1.189516,-1
1206,1207,1583237708072,-1.4045999,-0.68259996,0.7528,-0.19293436,9.016113,1.410788,-1
1207,1208,1583237708082,-1.5785999,-0.7037,0.9913,-0.2871031,8.897399,1.532902,-1
1208,1209,1583237708092,-1.6968,-0.84209996,1.0454999,-0.40526173,8.753508,1.4125215,-1
1209,1210,1583237708102,-1.7777,-1.0094,0.91999996,-0.39442077,8.301119,1.4992491000000001,-1
1210,1211,1583237708112,-1.7715,-1.5289999,1.0756,-0.65660506,7.644475,1.9540133000000002,-1
1211,1212,1583237708122,-2.1476,-2.2143,1.5360999,-1.34942,6.8736095,2.6281630000000002,-1
1212,1213,1583237708133,-2.8272998,-2.9965,2.1952,-1.9824277,6.0170026,3.5149847999999997,-1
1213,1214,1583237708142,-3.4891998999999996,-3.8657,3.0700998,-2.9254847,5.1677217,4.730962,-1
1214,1215,1583237708152,-4.4872,-4.7242,4.2881,-4.039276999999999,4.186482,6.0820675,-1
1215,1216,1583237708162,-5.6073,-5.6903996,5.5259,-5.104955,3.175966,6.998127,-1
1216,1217,1583237708172,-6.6872997000000005,-6.705899700000001,6.285599700000001,-6.176580400000001,2.0660427,7.4250419999999995,-1
1217,1218,1583237708182,-7.7942,-7.8486,6.6214,-7.2843103000000005,0.9924828000000001,7.477657000000001,-1
1218,1219,1583237708192,-8.9154,-8.894299499999999,6.605,-8.387424000000001,-0.057144806,6.9919305,-1
1219,1220,1583237708203,-10.0759,-9.9165,6.0986,-9.354932000000002,-1.0164535,6.7319202,-1
1220,1221,1583237708213,-11.0289,-10.8448,5.9747,-9.626693,-1.9060526999999998,7.057465,-1
1221,1222,1583237708223,-11.2918,-11.676499,6.3747997000000005,-9.451092,-2.6821284,7.812011999999999,-1
1222,1223,1583237708233,-11.2999,-12.2727995,7.0136,-9.081657,-3.059876,8.413321,-1
1223,1224,1583237708243,-11.1418,-12.603499000000001,7.6236997,-8.076063000000001,-2.8479794999999997,7.9741855,-1
1224,1225,1583237708254,-10.387899,-12.3433,7.2127,-6.276582,-2.2192428,6.5139427,-1
1225,1226,1583237708264,-8.8692,-11.636499,5.8261,-3.8167503,-1.3058838,5.1470356,-1
1226,1227,1583237708275,-6.727999700000001,-10.6361,4.539,0.25388116,-0.30609390000000003,3.166188,-1
1227,1228,1583237708285,-0.2643,-8.948999,1.095,4.163842,0.28763940000000005,1.1370255,-1
1228,1229,1583237708295,-0.2643,-8.948999,1.095,6.973466999999999,1.0705817,-0.51000327,-1
1229,1230,1583237708305,5.5358996,-6.0092998,-2.6808999,10.459377,3.1754968,-2.5124752999999997,-1
1230,1231,1583237708315,7.7808,-3.5556997999999997,-3.2175999,13.062899,5.461355999999999,-2.6981504000000003,-1
1231,1232,1583237708326,10.0793,-1.4432,-2.7552,15.685746,7.2632704,-2.0997915000000003,-1
1232,1233,1583237708336,12.2983,0.13669999,-2.3449,18.173044,8.542406,-1.7990796999999998,-1
1233,1234,1583237708346,14.156699,1.4339,-2.9148,20.252754,9.586039,-2.5249827000000002,-1
1234,1235,1583237708356,16.028599,2.3660997999999998,-4.4396996,22.526987,10.248907,-4.1860414,-1
1235,1236,1583237708366,18.7944,3.4438998999999995,-6.632000000000001,25.701258,11.237578,-6.4184813,-1
1236,1237,1583237708376,21.652199,4.9393,-8.8617,29.082521000000003,12.841808,-8.759215,-1
1237,1238,1583237708386,23.3284,6.3401,-10.0282,30.152164000000003,13.713173000000001,-9.246435,-1
1238,1239,1583237708397,23.303299,6.9851,-10.0335,29.975962,13.983123999999998,-9.10918,-1
1239,1240,1583237708406,22.400799,6.9645,-9.7856,29.169077,13.810607000000001,-8.816944,-1
1240,1241,1583237708416,21.709,6.7804,-10.2183,28.630919,13.549199,-9.490893,-1
1241,1242,1583237708426,21.5327,6.5464997,-11.571099,28.607176000000003,13.268167499999999,-10.864543,-1
1242,1243,1583237708436,21.5644,6.2862,-12.8468,28.575841999999998,12.952268,-12.105687,-1
1243,1244,1583237708446,20.7876,5.6356,-13.4351,27.563447999999998,12.191409,-12.539928,-1
1244,1245,1583237708457,18.961899,4.4542,-13.170898999999999,25.027442999999998,10.661246,-12.053933,-1
1245,1246,1583237708467,16.489199,2.8513,-12.392699,22.439743,9.018134,-11.137615,-1
1246,1247,1583237708477,13.9832,1.0482,-11.2774,20.345428,7.6405296,-10.240882000000001,-1
1247,1248,1583237708487,11.3306,-0.79109997,-10.099,17.054865,5.5908537,-8.813133,-1
1248,1249,1583237708497,8.898399000000001,-2.5224,-8.8501,14.920942000000002,4.1898913,-7.672679400000001,-1
1249,1250,1583237708507,7.2293,-3.9034998,-7.5476,13.034723,2.8825421,-6.1623397,-1
1250,1251,1583237708517,5.4855,-5.2058,-5.9877,11.206301,1.7336509999999998,-4.634715,-1
1251,1252,1583237708527,3.9004,-6.3886,-4.558799700000001,9.859888,0.90419424,-3.5614805,-1
1252,1253,1583237708537,2.3632,-7.5182996,-3.3065998999999997,7.903892,-0.27299646,-2.1597326,-1
1253,1254,1583237708548,0.9008,-8.5146,-2.281,6.3415985,-1.1321988,-1.2481836000000002,-1
1254,1255,1583237708558,-0.3924,-9.3252,-1.5102999,5.0788007,-1.7526513,-0.64219195,-1
1255,1256,1583237708568,-1.3729999,-9.8983,-0.9946,4.0581527,-2.2000704,-0.20123744,-1
1256,1257,1583237708578,-2.2094998,-10.3902,-0.60969996,3.1744719,-2.5968468,0.20198444,-1
1257,1258,1583237708588,-2.932,-10.821,-0.14739999,2.4202217999999998,-2.9444947,0.7029664000000001,-1
1258,1259,1583237708599,-3.6102,-11.1515,0.41349998,1.4873643,-3.3053582,1.3784951,-1
1259,1260,1583237708609,-4.3326,-11.4998,0.96389997,0.86784065,-3.4604163,1.8692776999999998,-1
1260,1261,1583237708619,-5.071000000000001,-11.6002,1.6373,-0.020839132,-3.5291873999999996,2.8509387999999998,-1
1261,1262,1583237708630,-5.6886997,-11.6291,2.4445999,-0.5258816,-3.5169097999999996,3.6257980000000005,-1
1262,1263,1583237708641,-6.2166,-11.6546,3.1348999,-1.3560758,-3.6840062000000007,4.5575447,-1
1263,1264,1583237708651,-6.9786997,-11.8038,3.8866,-2.124854,-3.9255809999999998,5.5574975,-1
1264,1265,1583237708661,-7.7699,-12.045899,4.8627996,-2.6359967999999996,-4.2304873,6.618483500000001,-1
1265,1266,1583237708671,-8.3673,-12.388,6.1889997,-3.1557302000000003,-4.4742746,8.455698,-1
1266,1267,1583237708682,-8.881599000000001,-12.385699,7.7002997,-3.4749252999999998,-4.2862434,10.253092,-1
1267,1268,1583237708692,-9.2348995,-12.0859995,9.4355,-3.3881497000000005,-4.102291999999999,12.369403,-1
1268,1269,1583237708702,-9.2198,-11.810599,11.4809,-3.2721459999999998,-4.002483,14.703711499999999,-1
1269,1270,1583237708712,-9.3034,-11.568399000000001,13.762198999999999,-3.3718595999999996,-4.1423807,18.078875,-1
1270,1271,1583237708722,-9.5688,-11.544499,16.429499,-3.2742430000000002,-4.5611553,20.616049,-1
1271,1272,1583237708732,-9.532499000000001,-11.8349,19.3851,-2.177833,-4.289672,23.76635,-1
1272,1273,1583237708743,-8.7446995,-11.259,21.717,-1.2441038,-3.7476152999999996,25.452204000000002,-1
1273,1274,1583237708753,-7.7328997,-10.338799,23.5023,0.7820229000000001,-2.5955062,26.229522999999997,-1
1274,1275,1583237708763,-6.2195,-9.023,23.793798000000002,2.7839682,-0.88622814,25.507126,-1
1275,1276,1583237708773,-4.4365,-7.0046,22.9359,5.0712543,0.46150630000000004,24.977999,-1
1276,1277,1583237708783,-2.3658,-5.3655996,22.286299,7.098654700000001,1.3953311000000002,24.81521,-1
1277,1278,1583237708793,-0.5359,-4.1094,22.0094,8.904658,2.2760333999999998,24.760939,-1
1278,1279,1583237708804,1.0921999,-2.8990998,21.815699,10.489399,2.8429327,24.261547,-1
1279,1280,1583237708814,2.5328,-2.0039,21.1609,11.436355,3.4665167,23.782516,-1
1280,1281,1583237708824,3.3651,-1.0666,20.5098,12.421013,4.384558999999999,23.053644,-1
1281,1282,1583237708834,4.2444,0.16669999,19.600199,13.840966,5.054821,22.23541,-1
1282,1283,1583237708844,5.6098,1.1388,18.5807,15.916279000000001,5.635855,21.4341,-1
1283,1284,1583237708854,7.6355,2.0242999,17.5844,18.337364,6.2996526,20.585863,-1
1284,1285,1583237708864,12.522599000000001,3.8297,15.188498999999998,21.209295,6.998261500000001,19.145723,-1
1285,1286,1583237708875,12.522599000000001,3.8297,15.188498999999998,22.328901000000002,7.3002944,17.725502,-1
1286,1287,1583237708885,14.6831,4.7606,11.378799,23.079817000000002,7.485328,15.508892000000001,-1
1287,1288,1583237708896,15.1776,4.8266,10.2056,23.581795,7.4209914,14.723096,-1
1288,1289,1583237708906,16.0655,4.8096,9.6174,24.659924,7.313950999999999,14.31044,-1
1289,1290,1583237708916,17.6398,4.8205,8.8776,25.987076000000002,7.281859,13.708298999999998,-1
1290,1291,1583237708926,18.71,4.7832,7.9357996,26.9194,7.24608,12.769207000000002,-1
1291,1292,1583237708936,19.6829,4.857,6.2534,27.781878000000003,7.3929405,11.045765,-1
1292,1293,1583237708946,20.0252,5.058399700000001,4.3078,27.90264,7.6706389999999995,9.201319999999999,-1
1293,1294,1583237708957,19.987000000000002,4.9537997,2.5498,27.821015999999997,7.608112299999999,7.5101320000000005,-1
1294,1295,1583237708967,20.0646,4.468,1.1432999,27.802398999999998,7.258903500000001,5.8519554000000005,-1
1295,1296,1583237708977,19.846698999999997,4.0455,-0.1935,27.38235,7.086645599999999,4.3556275,-1
1296,1297,1583237708987,19.2416,3.4347,-1.6017,26.574546999999995,6.5786433,2.8829252999999997,-1
1297,1298,1583237708997,17.945598999999998,2.5347,-2.72,24.812922,6.0246925000000005,1.7693821,-1
1298,1299,1583237709008,15.861099,1.6876,-3.4738,22.655317,5.4049487,0.90347594,-1
1299,1300,1583237709018,13.855599,0.4447,-4.0406,20.490126,4.364113,0.32832167,-1
1300,1301,1583237709028,11.4594,-0.9981,-4.0936,17.838554000000002,3.308758,0.20346884,-1
1301,1302,1583237709038,8.9823,-2.2816,-3.9931997999999997,15.48156,2.4635662999999997,0.063092,-1
1302,1303,1583237709048,7.1987996,-3.2707999,-4.0627,13.548634,1.7170066000000002,-0.4662947,-1
1303,1304,1583237709059,6.0715,-4.1661,-4.3434,12.987941000000001,1.2982223999999998,-0.9433729,-1
1304,1305,1583237709069,5.9603996,-4.7966,-4.5418,12.852745,0.9872155999999999,-1.4322402,-1
1305,1306,1583237709079,5.8203998,-5.428499700000001,-4.7826,12.292779,0.66685224,-2.0748248,-1
1306,1307,1583237709089,5.1695,-5.9666,-5.1382,11.496775,0.46730986,-2.5419335,-1
1307,1308,1583237709099,4.1688,-6.4709,-5.4122,10.058394999999999,0.21659863,-3.1374862,-1
1308,1309,1583237709109,3.1202998,-6.8229999999999995,-5.5966,8.886099,0.1898985,-3.684801,-1
1309,1310,1583237709120,1.982,-7.1309,-6.0613,7.2704244000000005,-0.16309302,-4.6497507,-1
1310,1311,1583237709130,0.4172,-7.8342996,-6.8952,5.704425,-0.6499204000000001,-5.75795,-1
1311,1312,1583237709140,-0.70019996,-8.398,-7.6394997,4.894495,-0.92705405,-6.457143,-1
1312,1313,1583237709150,-1.0770998999999999,-8.747499000000001,-7.9146,4.9933760000000005,-0.8862568000000001,-7.004084,-1
1313,1314,1583237709160,-0.5905,-8.6861,-8.1853,5.8632946,-0.3924001,-7.444272,-1
1314,1315,1583237709170,0.8859999999999999,-8.0692,-8.6012,7.809503,0.3527617,-8.436419500000001,-1
1315,1316,1583237709181,2.4975,-7.6864996,-9.3152,8.243178,0.48986325,-9.495337,-1
1316,1317,1583237709191,2.7416,-7.7086997,-10.1804,7.765699000000001,0.22035275,-9.857704,-1
1317,1318,1583237709201,2.0953,-8.2681,-10.179399499999999,6.7334337,-0.6816388000000001,-9.102879,-1
1318,1319,1583237709211,1.3833,-9.1179,-9.174399000000001,6.012903,-1.2549351,-7.940494500000001,-1
1319,1320,1583237709221,0.8099,-9.7365,-7.9239999999999995,5.981846,-1.448626,-7.276687599999999,-1
1320,1321,1583237709231,1.3960999,-9.7231,-7.3434,7.6733210000000005,-0.6997198,-7.579333999999999,-1
1321,1322,1583237709242,3.1023,-9.0496,-7.7388997,8.930258,-0.13502339,-8.426488,-1
1322,1323,1583237709252,4.5627,-8.4359,-8.834,9.91346,0.5858229,-9.918421,-1
