,Seq,Time,ACCx,ACCy,ACCz,ADGx,ADGy,ADGz,Keydown
0,1,1580694260942,0.0,0.0,0.0,0.0,0.0,0.0,-1
1,2,1580694260952,-0.50549996,-0.1591,-0.5028,-0.22625206,0.42003876,9.312142,-1
2,3,1580694260962,-0.50549996,-0.1591,-0.5028,-0.053132124,0.53248006,9.393267999999999,-1
3,4,1580694260972,0.0016,-0.022499999,-0.40649998,0.04049074,0.61527157,9.439513,-1
4,5,1580694260982,0.1251,0.2104,-0.2789,0.11285309,0.8137317,9.5315275,-1
5,6,1580694260992,0.20089999,0.3877,-0.3471,0.21163785,0.9553535,9.481355,-1
6,7,1580694261002,0.3454,0.3514,-0.2579,0.36382288,0.94225246,9.537638000000001,-1
7,8,1580694261013,0.58629996,0.4351,-0.3742,0.6339942,1.0799094,9.375856,-1
8,9,1580694261023,0.9009,0.5725,-0.75479996,1.0358657,1.2350729,8.921149,-1
9,10,1580694261033,1.3305,0.7194,-1.2921,1.4711986000000001,1.4145518999999998,8.40564,-1
10,11,1580694261043,1.6189,0.81079996,-1.6136999,1.7396174999999998,1.5152424999999998,8.140276,-1
11,12,1580694261053,1.5819999999999999,0.8659,-1.7684,1.6564523999999998,1.6129832,8.012674,-1
12,13,1580694261063,1.3459999999999999,0.9536,-1.7073,1.4288788000000001,1.7916865000000002,8.145371,-1
13,14,1580694261073,1.0922999,1.1783999,-1.4103,1.3612857,2.008084,8.629402,-1
14,15,1580694261084,1.1446999,1.3478,-0.6608,1.607898,2.1635635,9.465677000000001,-1
15,16,1580694261094,1.4799,1.3808999,0.1313,2.1315196,2.215786,10.105552000000001,-1
16,17,1580694261104,1.8966,1.2494,0.5288,2.7075644,2.0792398000000003,10.360524,-1
17,18,1580694261114,2.1915,0.9396,0.7488,3.2300177000000003,1.9628047999999998,10.555854,-1
18,19,1580694261125,1.8994999,0.39389998,1.1230999,4.058976,2.0195953999999996,10.786261999999999,-1
19,20,1580694261135,2.6081998,0.48189998,1.3325,4.756982,2.049408,11.013366,-1
20,21,1580694261145,3.1715999,0.4842,1.6342,5.0850163,1.919489,11.486930000000001,-1
21,22,1580694261155,3.2638998,0.3227,2.1789,4.924164299999999,1.7413889999999999,11.95967,-1
22,23,1580694261166,2.9185998,0.15699999,2.7336,4.493926,1.5035396,12.505855,-1
23,24,1580694261176,2.6081998,-0.057499997000000004,3.1141,4.3700980000000005,1.1841051999999999,12.915416,-1
24,25,1580694261186,2.6323,-0.4188,3.5270998,4.4686527,0.7693624,13.288174,-1
25,26,1580694261196,2.6141,-0.76479995,3.9315,4.322176,0.5195131,13.726016,-1
26,27,1580694261206,2.3687,-1.0023,4.3638,4.060489700000001,0.34136528,14.061279999999998,-1
27,28,1580694261216,2.2019,-1.1858,4.6837,3.935608,0.061588444000000006,14.391976999999999,-1
28,29,1580694261227,2.049,-1.4023,4.9198,3.6679459000000003,-0.12333969,14.578237,-1
29,30,1580694261237,1.9258,-1.6063,5.0933,3.583804,-0.6533585,14.859335,-1
30,31,1580694261247,1.8328999,-2.1062999,5.3145,2.8470793,-1.1096263000000002,15.005956,-1
31,32,1580694261257,1.0222,-2.4945998,5.4574,1.6687394,-1.4481186000000001,15.404245999999999,-1
32,33,1580694261268,-0.1299,-2.842,5.935,0.025742456,-2.0210605,16.2928,-1
33,34,1580694261278,-1.8022,-3.465,6.857599700000001,-1.8821584999999998,-2.6774359,16.847319,-1
34,35,1580694261288,-3.5972998,-4.1751,7.245899700000001,-3.0600772000000003,-3.3272412000000005,16.850122,-1
35,36,1580694261299,-4.8978,-5.0726,7.1984,-4.616289,-4.4242835,16.711115,-1
36,37,1580694261309,-5.9453998,-5.862,7.0941997,-5.3213525,-5.101498,16.697134,-1
37,38,1580694261319,-6.5931,-6.5891,7.0855,-6.003134999999999,-5.6589446,16.615673,-1
38,39,1580694261329,-7.2032,-7.1892,6.9937997,-6.5787683,-5.86679,16.302732000000002,-1
39,40,1580694261339,-7.6698,-7.4309997999999995,6.6833,-6.732802,-6.150905000000001,16.079898999999997,-1
40,41,1580694261350,-7.7232,-7.7528996,6.4515,-7.085103500000001,-6.2632699999999994,15.715071,-1
41,42,1580694261360,-7.9521,-7.9185,6.0759,-7.611511999999999,-6.115940599999999,15.110803,-1
42,43,1580694261371,-8.372499000000001,-7.837999999999999,5.48,-8.022836,-5.9675093,14.28917,-1
43,44,1580694261381,-8.8885,-7.8507,3.7073,-8.445346,-5.9481835,12.928516,-1
44,45,1580694261391,-9.2462,-7.9111,2.2851999,-8.871466,-5.8751698,11.590991,-1
45,46,1580694261401,-9.409599,-7.9803,0.9755,-9.057811000000001,-5.7988715,10.315284,-1
46,47,1580694261412,-9.4038,-7.9893,-0.067099996,-9.153273,-5.6548653,9.235039,-1
47,48,1580694261422,-9.3654995,-7.7363,-1.3543,-9.187432000000001,-5.3416653,8.152956,-1
48,49,1580694261432,-8.9253,-7.587999999999999,-2.662,-8.787831,-5.0706706,6.613819,-1
49,50,1580694261442,-8.5858,-7.5487,-3.5793998,-8.792878,-4.794427400000001,5.5690856,-1
50,51,1580694261452,-8.7064,-7.2781997,-4.2723,-8.958174,-4.550381,5.041748,-1
51,52,1580694261463,-8.4177,-7.1032996,-4.9702997,-8.624958,-4.211027,4.098998,-1
52,53,1580694261473,-8.090099,-6.8875,-5.6966,-8.492980000000001,-3.7618177000000004,3.3912432,-1
53,54,1580694261483,-7.9501995999999995,-6.4445,-6.3044996,-8.267054,-3.194229,2.690259,-1
54,55,1580694261493,-7.4793997,-5.9614,-7.039499799999999,-7.7907133,-2.4842331000000004,1.9910755,-1
55,56,1580694261504,-7.027,-5.151,-7.5298996,-7.324064,-1.5032427,1.5435514,-1
56,57,1580694261514,-6.4223,-4.3703,-8.0225,-6.501493,-0.63831335,0.6154535,-1
57,58,1580694261524,-5.7226,-3.8551,-9.0857,-5.929298,-0.28018862,-0.52790236,-1
58,59,1580694261534,-4.9681,-3.638,-10.591,-5.215136,-0.05071877,-2.1135821,-1
59,60,1580694261544,-4.2609,-3.5526,-12.1079,-4.539186,0.19196709,-3.5072184,-1
60,61,1580694261555,-3.5853998999999996,-3.2910000000000004,-12.9818,-3.756876,0.6532532,-3.8719509,-1
61,62,1580694261565,-3.0268998,-2.9613,-12.687799,-3.2465184,0.9449914,-3.131022,-1
62,63,1580694261575,-2.5948,-2.7921,-11.748,-2.8568569999999998,0.98168975,-2.2861946,-1
63,64,1580694261586,-2.1194,-2.7951999,-10.7591,-2.1852642999999996,1.026921,-1.3875643,-1
64,65,1580694261597,-1.3319999999999999,-2.639,-9.8868,-0.61304015,1.3140146000000001,0.05817909999999999,-1
65,66,1580694261607,-0.0679,-2.3653998,-8.757299,0.7069599,1.6282678,1.4139485,-1
66,67,1580694261617,1.0896,-2.0065,-7.4473996,1.8681573,1.9242198,2.4587974999999997,-1
67,68,1580694261627,2.2266,-1.6272,-6.5329999999999995,3.1844222999999996,2.0158892,3.0207355,-1
68,69,1580694261637,3.4917998,-1.5005,-6.0499,4.495803400000001,2.1973696,3.114818,-1
69,70,1580694261647,4.7592998,-1.2113,-6.1137,5.731833999999999,2.5359097000000004,2.798956,-1
70,71,1580694261657,5.8996997,-0.8244,-6.5062,6.71247,2.6388795,2.1931462,-1
71,72,1580694261668,6.8097,-0.7499,-7.1695,7.797178,2.514266,1.5813798000000001,-1
72,73,1580694261678,7.8086,-0.8609,-7.7242,8.70572,2.3311287999999997,1.4362911,-1
73,74,1580694261688,8.5673,-0.9675,-7.7826996,9.389369,2.359984,1.8142782,-1
74,75,1580694261698,9.1535,-0.7726,-7.3395,9.619826,2.7226,2.9363637000000002,-1
75,76,1580694261708,9.1147995,-0.2768,-6.0147,9.364796,2.684762,5.5016932,-1
76,77,1580694261719,8.8741,-0.2146,-3.8664,9.416269999999999,2.407839,7.2345877000000005,-1
77,78,1580694261729,8.9156,-0.3354,-1.7904999,9.808968,2.2564201,9.258023,-1
78,79,1580694261739,9.2302,-0.27519998,-0.2118,10.227244,1.9357216,10.024752000000001,-1
79,80,1580694261749,9.5769,-0.41079998,0.5108,10.667375,1.7955556000000001,10.01145,-1
80,81,1580694261759,9.958799,-0.39249998,0.46589997,10.890514,1.9894188999999998,9.835984,-1
81,82,1580694261770,10.4579,0.5323,0.70769995,11.266242,2.3837917,10.314404,-1
82,83,1580694261780,10.4579,0.5323,0.70769995,11.755847,2.6721015,11.603891,-1
83,84,1580694261790,10.9093,1.0217999,1.9603,12.015473,2.7920032000000004,13.381528,-1
84,85,1580694261800,11.138599000000001,1.3522999,3.7134,12.233048,2.4382932,15.072879,-1
85,86,1580694261810,10.9093,1.0708,6.1983,11.774177,2.0863936,15.921872,-1
86,87,1580694261820,10.9093,1.0708,6.1983,11.384131,1.5012411,15.908895499999998,-1
87,88,1580694261831,10.5421,0.685,6.1684,11.206694,1.3078758,15.574713000000001,-1
88,89,1580694261841,10.415899000000001,0.871,5.5882,11.247395,1.3551852,15.4095125,-1
89,90,1580694261851,10.415899000000001,0.871,5.5882,11.149366,1.2459043,15.959614000000002,-1
90,91,1580694261861,10.0692,0.92249995,7.1271996,10.985498,1.20866,16.894445,-1
91,92,1580694261872,9.756,0.68659997,7.6994,10.688186,0.7869166,17.535908,-1
92,93,1580694261882,9.4014,0.24589999,8.0848,10.325847,0.27486393,17.938420999999998,-1
93,94,1580694261892,8.657499000000001,-0.2297,8.713699,9.479784,-0.32180944,18.711585999999997,-1
94,95,1580694261902,7.3423996,-0.9776,10.1749,8.037776,-1.1736663999999999,20.254793,-1
95,96,1580694261912,5.5087,-1.5897,11.3912,6.275873000000001,-1.8324358,21.313778,-1
96,97,1580694261923,4.3487,-2.3198,12.127999,5.046776,-2.4682305,21.77852,-1
97,98,1580694261933,3.6611998,-2.3922,11.366199499999999,4.7099404,-2.422367,20.635807,-1
98,99,1580694261943,3.6092,-2.5685,10.253099,4.69886,-2.5641997,19.788757,-1
99,100,1580694261953,2.9982998,-2.8999,9.1119995,3.6893977999999996,-2.8702362,18.413643,-1
100,101,1580694261963,1.6112,-3.3741999,8.0492,2.1099622000000005,-3.2372384,17.380688,-1
101,102,1580694261973,-0.1705,-3.8147,7.1225,0.28381824,-3.4811692,16.579214,-1
102,103,1580694261985,-1.9652,-4.1865997,6.4789,-1.5600427,-3.6875877,15.976660999999998,-1
103,104,1580694261994,-3.73,-4.4224,5.8645,-3.2791370000000004,-3.722524,15.345884,-1
104,105,1580694262004,-5.178999999999999,-4.5945,5.3299,-4.670302400000001,-3.7411797,14.904212,-1
105,106,1580694262014,-6.3538,-4.7172,4.9656,-5.792982,-3.6386886,14.468285999999999,-1
106,107,1580694262024,-7.1949,-4.6995,4.3127,-6.4573245,-3.4269836000000002,13.568889000000002,-1
107,108,1580694262034,-7.4305,-4.6338,3.0101,-6.474812,-3.0861833,12.004346,-1
108,109,1580694262045,-7.0660996,-4.3696,1.3618,-5.910680999999999,-2.509497,10.113099,-1
109,110,1580694262055,-6.5832,-4.1981,-0.1437,-5.697922,-2.4079634999999997,8.791986999999999,-1
110,111,1580694262065,-6.5232997,-4.41,-1.8145,-5.9075775,-2.4600327,7.1972002999999996,-1
111,112,1580694262075,-6.9052,-4.6607,-2.9382,-6.48391,-2.5283632000000003,6.378747,-1
112,113,1580694262085,-7.5439997000000005,-4.8588,-3.378,-7.2991166,-2.5144289,6.02815,-1
113,114,1580694262095,-8.2589,-4.8156,-3.5927,-8.053041,-2.1474743,5.8428580000000006,-1
114,115,1580694262105,-8.5803995,-4.6175,-3.6489999999999996,-8.281889,-1.7995683,5.6306357,-1
115,116,1580694262116,-8.6392,-4.3574,-4.0069,-8.235441,-1.3903226,4.912605,-1
116,117,1580694262126,-8.386499,-4.0888,-4.8321,-7.8167524,-0.9303198,4.0272293,-1
117,118,1580694262136,-7.7662997,-3.7329998,-5.6737,-7.1200399999999995,-0.38473865,3.0618007,-1
118,119,1580694262146,-7.0899,-3.3641,-6.5432997,-6.592463,0.029697677000000002,2.2095130000000003,-1
119,120,1580694262157,-6.5509996,-3.1308,-7.3557997,-6.177797,0.30311552,1.4207002,-1
120,121,1580694262166,-6.0894,-2.9566998,-8.1343,-5.8453764999999995,0.4996603,0.7781060000000001,-1
121,122,1580694262176,-5.6415,-2.7996,-8.752999,-5.4897995,0.8224753,0.16046898,-1
122,123,1580694262186,-5.3278,-2.5714998,-9.1631,-5.267894999999999,1.0305027,-0.26011565,-1
123,124,1580694262197,-5.0151997,-2.4531999,-9.5651,-5.061764,1.1721437,-0.75572497,-1
124,125,1580694262206,-4.7836,-2.3469,-10.1538,-4.9520230000000005,1.2883008,-1.4994502,-1
125,126,1580694262216,-4.6275997,-2.2819,-10.957,-4.889295,1.3586041000000002,-2.0900805,-1
126,127,1580694262227,-4.4937997,-2.2436,-11.3796,-4.5091147000000005,1.3290118,-2.1653447,-1
127,128,1580694262238,-4.1496,-2.3453999,-11.1882,-4.3023615,1.0483634,-1.833633,-1
128,129,1580694262248,-4.0055,-2.6525,-10.9133,-4.1601453,0.69610935,-1.7236911,-1
129,130,1580694262258,-3.8683,-2.9898,-10.7733,-4.153739,0.37950012,-1.4242531999999999,-1
130,131,1580694262268,-3.9771998,-3.2498,-10.4868,-4.489664599999999,0.15691599,-1.2040249,-1
131,132,1580694262278,-4.2977,-3.3535,-10.3185,-4.6894655,0.1428668,-0.8882201,-1
132,133,1580694262288,-4.4171,-3.2649999,-10.0702,-4.661511,0.07932469,-0.49532202,-1
133,134,1580694262299,-4.3542,-3.2484999,-9.6304,-4.4241114,-0.23195025,0.053457737000000005,-1
134,135,1580694262309,-4.0277,-3.4757998,-9.151199,-3.6314197,-0.8028333000000001,0.44997582,-1
135,136,1580694262319,-3.4034,-3.8497,-8.8842,-2.7183384999999998,-1.4983393999999999,0.48073655,-1
136,137,1580694262329,-2.5723999,-4.4467998,-8.878699000000001,-2.1712152999999996,-2.1422935,0.54945016,-1
137,138,1580694262340,-2.1295,-4.9793,-8.8435,-1.8288828000000001,-2.17066,0.61748374,-1
138,139,1580694262350,-1.8779,-4.8789,-8.8132,-1.6890998,-2.0532577,0.9802628000000001,-1
139,140,1580694262360,-1.8587999,-4.1596,-7.3044996,-1.7176384999999998,-1.827293,2.225851,-1
140,141,1580694262370,-2.0444999,-4.1612,-5.7208,-1.8719689,-2.059406,3.860928,-1
141,142,1580694262381,-2.0444999,-4.1612,-5.7208,-1.574676,-2.6567689999999997,5.28498,-1
142,143,1580694262391,-1.1827999,-5.2384996,-3.9146,-0.6988291999999999,-3.7947905,5.733136,-1
143,144,1580694262401,-0.3434,-5.7785,-4.0518,0.4017662,-4.441244,5.635864700000001,-1
144,145,1580694262411,1.1524999,-5.8820996,-3.9392998,2.0813468,-4.739389,5.9539865999999995,-1
145,146,1580694262421,2.569,-5.6882997,-2.6001,3.4769652,-4.725733,7.6334333,-1
146,147,1580694262432,3.3932,-5.0924,0.57409996,4.122921,-4.492652400000001,10.346045,-1
147,148,1580694262442,3.5967998999999997,-4.348,4.7261,4.300082,-4.0672126,15.304245000000002,-1
148,149,1580694262452,3.3922,-3.7059,8.3221,3.9986233999999996,-3.8742397000000004,18.674007,-1
149,150,1580694262462,3.0200999,-3.1908998,10.0393,3.586361,-3.7090015,19.789867,-1
150,151,1580694262472,2.6543999,-2.8346999,9.0685,3.2073395000000002,-3.8960845,18.138721,-1
151,152,1580694262483,2.5956,-3.2377,7.2676997000000005,3.1754296,-4.489818,16.594843,-1
152,153,1580694262493,2.6,-3.6420999,5.2331,3.3568144,-5.026751,14.433598499999999,-1
153,154,1580694262503,3.1634998,-3.5096998,4.7209997,4.243579,-4.9332237,14.868673000000001,-1
154,155,1580694262513,4.1022,-3.2161999,6.402,5.0399575,-4.824719,16.958294,-1
155,156,1580694262524,4.434,-2.8202999,8.4627,5.1646475999999994,-4.605716,18.66284,-1
156,157,1580694262534,4.374,-2.4603,9.714,5.0239162,-4.4995093,19.669086,-1
157,158,1580694262544,4.218499700000001,-1.9623,10.3305,4.8069444,-4.124099,19.719831,-1
158,159,1580694262554,4.0175,-1.4591999,9.8582,4.4473734,-3.9568779999999997,19.01635,-1
159,160,1580694262564,3.6322,-1.3185999,9.0692,3.9594445,-4.107626399999999,17.994091,-1
160,161,1580694262575,3.2361,-1.4738,7.5873,3.6141623999999997,-4.4316,16.242542,-1
161,162,1580694262585,3.1627998,-1.5498999,6.0875998,3.8435940000000004,-4.4303745999999995,15.206992000000001,-1
162,163,1580694262596,3.6355,-1.3184,6.017299700000001,4.3188047,-4.2256800000000005,15.591904000000001,-1
163,164,1580694262606,3.9747,-0.9377,6.625499700000001,4.438754599999999,-3.9901958,16.119135,-1
164,165,1580694262616,3.9222998999999996,-0.8441,6.9124,4.4062123,-4.115872,16.059010999999998,-1
165,166,1580694262626,3.9536,-0.84529996,6.5727,4.485258999999999,-4.115125,15.414933,d
166,167,1580694262637,4.1247,-0.7046,5.9374,4.689006,-4.0570226,14.653414999999999,-1
167,168,1580694262647,4.3672,-0.52639997,5.1914,4.84053,-3.7672190000000003,14.173014000000002,-1
168,169,1580694262657,4.4584,-0.14199999,5.0903997,4.887485,-3.4605696000000004,14.751539000000001,-1
169,170,1580694262667,4.5122,0.20179999,5.8037,4.9536705,-3.3158352,15.476838,-1
170,171,1580694262678,4.5668,0.396,6.4578,4.8094053,-3.259677,15.677951,-1
171,172,1580694262687,4.3596997,0.4617,6.5979,4.3865414000000005,-3.2904663,15.428122,-1
172,173,1580694262698,3.9278,0.49139997,6.2609,4.036930600000001,-3.308758,14.955898000000001,-1
173,174,1580694262708,3.4833998999999998,0.4624,5.6510997000000005,3.3139105000000004,-3.4170525,14.103782999999998,-1
174,175,1580694262718,2.7975,0.3645,4.8764,2.4894142,-3.53999,13.102336,-1
175,176,1580694262729,1.9883,0.1988,3.8195998999999996,1.904147,-3.7673721,11.945228,-1
176,177,1580694262739,1.4669,-0.060099997,2.6588,1.9273897,-3.6667774,10.8802,-1
177,178,1580694262749,1.5375999,0.036199998,1.7994,2.5164976,-3.3081164,10.876092,-1
178,179,1580694262759,2.0942,0.35999998,1.7748,3.2889245000000003,-2.8980088,11.241725,-1
179,180,1580694262770,2.8518,0.74219996,2.1265,4.0356283,-2.5752895000000002,11.644746000000001,-1
180,181,1580694262780,3.6049,1.1563,2.8803,4.562467,-2.448052,12.003005,-1
181,182,1580694262790,4.1349,1.1563,2.8803,4.609230999999999,-2.4033477000000003,12.517662,-1
182,183,1580694262800,4.1969,1.1965,3.3960000000000004,4.0527034,-2.683268,12.730172,-1
183,184,1580694262810,3.6532,0.89519995,3.5949998,2.8862197,-3.1002517000000003,12.837394,-1
184,185,1580694262821,1.4274,0.0587,3.761,1.8630241,-3.4454187999999997,12.919792,-1
185,186,1580694262831,0.8397,-0.18259999,3.5024998,1.311831,-3.6158957000000003,12.696644000000001,-1
186,187,1580694262841,0.7818,-0.1802,3.0347,1.3388183999999999,-3.5176091,12.129408999999999,-1
187,188,1580694262851,1.2221,-0.1121,2.5857,1.7367636000000002,-3.3973913000000002,11.822051,-1
188,189,1580694262862,1.2221,-0.1121,2.5857,2.5149748,-3.1671362000000003,11.88996,-1
189,190,1580694262872,2.3916,0.1672,2.9810000000000003,3.0243843,-2.9434316000000003,12.394639,-1
190,191,1580694262883,2.9477,0.2228,3.6489999999999996,3.5608767999999995,-2.8661467999999997,13.233951000000001,-1
191,192,1580694262893,3.0424,0.21059999,4.2785,3.4562407,-2.8463707,13.695982999999998,-1
192,193,1580694262903,2.5217,-0.015299999,4.6414,2.8546739,-3.069089,14.042185,-1
193,194,1580694262914,1.7807,-0.40299999999999997,4.7851996,2.0062740000000003,-3.413241,14.186622,-1
194,195,1580694262924,1.1989,-0.6414,4.8468,1.6013954,-3.4610293,14.251256,-1
195,196,1580694262934,1.0340999,-0.7773,4.9058,1.6262566999999999,-3.506787,14.400798000000002,-1
196,197,1580694262945,1.1989,-0.88299996,5.0915,1.8795346000000002,-3.4226646,14.65125,-1
197,198,1580694262955,1.4124,-0.89059997,5.3545,2.134833,-3.2504926,15.033892000000002,-1
198,199,1580694262965,1.5648999,-0.8664,5.582000000000001,2.2175287999999997,-3.2155948,14.986122,-1
199,200,1580694262975,1.5754,-1.0081,5.3368998,2.222729,-3.2731513999999997,14.716057000000001,-1
200,201,1580694262985,1.6566,-1.1352999,5.0522,2.3375356,-3.1490934,14.480046,-1
201,202,1580694262995,1.7890999,-1.0931,4.7678,2.4056172,-3.0059202000000003,14.254282,-1
202,203,1580694263006,1.7599,-1.1005,4.4444,2.1521192000000005,-2.8796117000000003,13.929494,-1
203,204,1580694263016,1.3779,-1.1882,4.1808,1.6811031000000003,-2.8461504,13.656556,-1
204,205,1580694263026,0.8777,-1.3661,3.7714,1.193634,-2.8624692000000005,13.081286,-1
205,206,1580694263038,0.4387,-1.4956,3.1483,0.99140066,-2.7248027,12.488586999999999,-1
206,207,1580694263048,0.3618,-1.5406,2.6753,1.0480857,-2.5939066000000004,11.960531,-1
207,208,1580694263059,0.39839998,-1.6041,2.0976999,1.0835677,-2.4409366,11.496459,-1
208,209,1580694263069,0.47469997,-1.6046,1.6603999,1.3112277,-2.0598946,10.979723,-1
209,210,1580694263079,0.6608,-1.4423,1.2063,1.0833761999999998,-1.7019422,10.491535,-1
210,211,1580694263089,0.4655,-1.2469,0.7057,0.8362659,-1.5598128999999998,10.096377,-1
211,212,1580694263099,0.1572,-1.2753,0.1881,0.409035,-1.4270303999999998,9.598173,-1
212,213,1580694263110,-0.24309999,-1.2652,-0.27719998,0.19124882,-1.1682651000000002,9.305514,-1
213,214,1580694263120,-0.435,-1.1468999,-0.7369,0.12688310000000003,-0.9381344000000001,9.064016,-1
214,215,1580694263130,-0.4992,-1.0665,-0.92749995,0.07541735,-0.6821368,8.864369,-1
215,216,1580694263140,-0.4992,-1.0665,-0.92749995,0.33499670000000004,-0.50260043,8.929453,-1
216,217,1580694263151,-0.058399998,-0.9015,-1.0956,0.5211507000000001,-0.20821893,8.681356,-1
217,218,1580694263161,0.0569,-0.79289997,-1.4281,0.620376,0.07057149,8.336869,-1
218,219,1580694263171,-0.0187,-0.71209997,-1.6726999,0.49803227,0.31114087,8.020374,-1
219,220,1580694263181,0.0876,-0.7132,-2.0637,0.55980265,0.4448235,7.537617,-1
220,221,1580694263191,0.0876,-0.7132,-2.0637,0.49366522,0.5625225,6.8459806,-1
221,222,1580694263201,-0.0296,-0.7618,-3.6406998999999995,0.29592335,0.6360915,5.890435,-1
222,223,1580694263212,-0.27789998,-0.9384,-4.6393,0.008034941,0.6159036,4.818235400000001,-1
223,224,1580694263222,-0.6311,-1.1257,-5.8410997,-0.43254605,0.5678089,3.599012,-1
224,225,1580694263232,-1.1805999,-1.2846999,-6.875499700000001,-1.0131208,0.53204906,2.5556283,-1
225,226,1580694263242,-1.1805999,-1.2846999,-6.875499700000001,-1.4600608,0.4647337,1.6693331999999999,-1
226,227,1580694263252,-1.9793999,-1.6351999,-8.6488,-1.9070008999999999,0.3585365,0.91766876,-1
227,228,1580694263263,-2.2718,-1.8821,-8.5093,-2.2381861,0.16778566,1.3731704,-1
228,229,1580694263273,-2.4856,-1.9511,-7.5326,-2.4773667,0.24202505,2.5924895,-1
229,230,1580694263283,-2.6869,-1.8607,-6.236799700000001,-2.7510717000000002,0.24924597,3.7413232000000005,-1
230,231,1580694263293,-2.9617999,-1.9167999,-5.4726996,-3.0313275,0.19118179999999999,4.2635174000000005,-1
231,232,1580694263303,-3.037,-2.0117,-5.1889997,-3.0634767999999997,0.07818505,4.3468647,-1
232,233,1580694263313,-2.9531,-2.1275,-5.4639997000000005,-2.94437,-0.05818868,3.9318442000000005,-1
233,234,1580694263325,-2.7877,-2.2523,-5.8176,-2.6966276000000002,-0.20205146,3.7761252,-1
234,235,1580694263335,-2.1982,-2.2408,-5.5846995999999995,-1.7137792,0.053065087999999996,4.4773874000000005,-1
235,236,1580694263345,-1.2887,-1.8622999,-4.7665,-1.0386239,0.45504197,5.3196,-1
236,237,1580694263355,-0.85429996,-1.5295,-3.8823,-0.91266966,0.59788007,6.330901,-1
237,238,1580694263365,-0.8619,-1.3737999,-2.9213,-1.1608334999999999,0.6861590999999999,7.050991000000001,-1
238,239,1580694263375,-1.1486,-1.2955999,-2.4113,-1.3593128,0.64379126,7.263596000000001,-1
239,240,1580694263386,-1.4951,-1.3704,-2.1548,-1.9164531000000002,0.49375144,7.591104,-1
240,241,1580694263396,-1.8722,-1.4156,-2.0042,-2.172489,0.46347916,7.629507,-1
241,242,1580694263407,-2.0877,-1.4219998999999999,-1.9596,-2.253777,0.44535026,7.8804289999999995,-1
242,243,1580694263417,-2.0399,-1.3744,-1.6395998999999999,-1.8563874,0.5545066999999999,8.164123,-1
243,244,1580694263427,-1.5505999,-1.2279,-1.4275999,-1.5634903999999998,0.652736,8.288239,-1
244,245,1580694263438,-0.9212,-0.79029995,-1.05,-0.747556,1.3943735000000002,8.890687,-1
245,246,1580694263448,-0.52489996,-0.29369998,-0.73249996,-0.57410085,1.6451806,8.857177,-1
246,247,1580694263459,-0.32799998,-0.0579,-0.84669995,-0.5800001,1.7106186999999997,8.7270565,-1
247,248,1580694263469,-0.3123,0.0206,-0.94079995,-0.71321356,1.6294171,8.940515,-1
248,249,1580694263479,-0.4824,-0.06,-0.6519,-0.9881924000000001,1.4615643,9.356119,-1
249,250,1580694263489,-0.7958,-0.2339,-0.0389,-1.2695111000000001,1.314455,10.225252000000001,-1
250,251,1580694263499,-0.9561,-0.28599998,0.6728,-1.2330713,1.2722213,10.738636999999999,-1
251,252,1580694263510,-0.95339996,-0.1814,0.83529997,-1.2872761000000001,1.3851607,10.521702000000001,-1
252,253,1580694263521,-0.85459995,-0.0324,0.247,-1.1896883,1.5280753,9.932997,-1
253,254,1580694263531,-0.5731,0.046699997,-0.2428,-0.9344952,1.6079171,9.445613999999999,-1
254,255,1580694263541,-0.5731,0.046699997,-0.2428,-0.7214111999999999,1.6202425,9.283373,-1
255,256,1580694263552,-0.30789998,0.0198,-0.204,-0.71489906,1.5459839,9.565458,-1
256,257,1580694263562,-0.3936,-0.0447,0.2163,-0.8439753000000001,1.4882262,9.963222,-1
257,258,1580694263573,-0.48529997,-0.0484,0.3522,-0.9424918999999999,1.4556075000000002,10.044634,-1
258,259,1580694263584,-0.4308,-0.036000000000000004,0.20439999,-0.861089,1.5071596,9.783398,-1
259,260,1580694263594,-0.31,0.049999997000000004,-0.08,-0.7735761999999999,1.5620922,9.495251,-1
260,261,1580694263605,-0.2296,0.091699995,-0.3642,-0.67822945,1.5576484,9.261749,-1
261,262,1580694263615,-0.0938,0.0343,-0.46199998,-0.5683451,1.5003408,9.276574,-1
262,263,1580694263625,-0.0714,-0.012399998999999998,-0.3446,-0.63202137,1.4451306000000002,9.468752,-1
263,264,1580694263635,-0.1882,-0.096099995,-0.1196,-0.8238351999999999,1.3286766,9.592426,-1
264,265,1580694263645,-0.3714,-0.1973,-0.14989999,-1.0208205,1.22586,9.402739,-1
265,266,1580694263656,-0.5391,-0.23789999,-0.37629998,-1.0532285,1.2804191,9.234378999999999,-1
266,267,1580694263666,-0.447,-0.1568,-0.4951,-0.90979666,1.3508372,9.194788,-1
267,268,1580694263676,-0.3335,-0.0809,-0.45749998,-0.8527189000000001,1.3698473,9.420858,-1
268,269,1580694263686,-0.24219999,-0.059499998,-0.0677,-0.7283257,1.3721936000000001,9.979128999999999,-1
269,270,1580694263696,-0.0603,-0.0265,0.498,-0.45993572,1.377796,10.5018215,-1
270,271,1580694263707,0.23079999,0.023,0.9264,-0.14832558,1.4431481000000002,10.7104225,-1
271,272,1580694263717,0.5469,0.1055,0.9436,0.19488801,1.5445473,10.499082000000001,-1
272,273,1580694263727,0.83129996,0.2193,0.6971,0.4651838,1.6733457999999999,10.127311,-1
273,274,1580694263737,1.0163,0.318,0.3629,0.44441172,1.6894061999999999,9.973507000000001,-1
274,275,1580694263747,0.8573,0.3074,0.2251,0.019900605,1.5381118,9.977836,-1
275,276,1580694263757,0.46379998,0.1319,0.3028,-0.45312659999999993,1.2604992,10.238736,-1
276,277,1580694263767,-0.0253,-0.1382,0.5862,-0.8864101000000001,1.0719319999999999,10.504723,-1
277,278,1580694263777,-0.42949998,-0.30719998,0.8106,-1.0925604,0.93552953,10.522172,-1
278,279,1580694263788,-0.5995,-0.4059,0.7802,-1.1636107,0.9854151,10.376000999999999,-1
279,280,1580694263798,-0.6447,-0.2696,0.60319996,-1.0651325,1.1982502,10.226785000000001,-1
280,281,1580694263808,-0.4833,-0.0862,0.4854,-0.8075642,1.3155371999999999,9.998330000000001,-1
281,282,1580694263818,-0.18100000000000002,0.013499998999999999,0.2208,-0.42942402,1.471553,9.691998,-1
282,283,1580694263829,0.13239999,0.147,-0.0139,-0.14928326,1.597306,9.439074,-1
283,284,1580694263839,0.4781,0.3065,-0.3272,0.19711941,1.7737778000000002,9.210274,-1
284,285,1580694263849,0.7129,0.4371,-0.5033,0.3437403,1.8351747999999999,9.122817999999999,-1
285,286,1580694263859,0.8523,0.4942,-0.5918,0.37316027,1.8739225,9.081781,-1
286,287,1580694263869,0.8781,0.5369,-0.6317,0.24993551,1.9278878000000002,9.142317,-1
287,288,1580694263879,0.7579,0.6038,-0.57409996,0.023060951,1.8840932000000001,9.309997000000001,-1
288,289,1580694263890,0.5211,0.5675,-0.39929998,-0.07813717,1.8350023000000002,9.574049,d
289,290,1580694263900,0.5064,0.6286,0.1355,0.017659631999999998,1.9073839,9.860759,-1
290,291,1580694263910,0.5064,0.6286,0.1355,0.28106013,1.9446089,9.829874,-1
291,292,1580694263921,0.83419997,0.6907,0.074599996,0.7583394,2.1198740000000003,9.5115595,-1
292,293,1580694263931,1.9109,1.0631,-0.50699997,1.5641416000000001,2.3744732999999996,9.197556,-1
293,294,1580694263941,1.9109,1.0631,-0.50699997,1.8084746999999999,2.488265,9.206242999999999,-1
294,295,1580694263953,3.2491,1.8030000000000002,-0.3146,2.8963137000000003,3.0963635,9.445796000000001,-1
295,296,1580694263963,3.7312999,1.9957,-0.11109999599999999,3.3316847999999997,3.2131912999999996,9.793683999999999,-1
296,297,1580694263974,3.7254,1.9868,0.3764,3.1991324,3.115364,10.308178,-1
297,298,1580694263984,3.5198998,1.7772,0.7852,2.929057,2.771097,10.635073,-1
298,299,1580694263994,3.1838999,1.4029,1.0372,2.6099575,2.415855,10.841175,-1
299,300,1580694264004,3.0052998,1.1456,1.1913999,2.5798004,2.2162072999999998,11.012897,-1
300,301,1580694264015,3.1836998,1.1317999,1.5123,2.9854546,2.3378806,11.61298,-1
301,302,1580694264025,3.6971998,1.4218,2.1368,3.7530355,2.78574,12.374508,-1
302,303,1580694264035,4.6609,1.9595,2.9377,4.6975193,3.1549354,12.949575999999999,-1
303,304,1580694264045,5.8557997,2.3518999,3.4738998,5.8169427,3.497201,13.360345,-1
304,305,1580694264055,6.7875,2.6466,3.6478998999999996,6.710191,3.5574867999999995,13.327601000000001,-1
305,306,1580694264065,7.3430995999999995,2.4617,3.4991,6.794495599999999,3.1418056,13.327237,-1
306,307,1580694264076,7.1141,2.0032,3.7039999999999997,6.0786576,2.4609807,13.771659,-1
307,308,1580694264086,6.2876,1.2314999,4.3405,5.202523,1.6471916000000002,14.798397,-1
308,309,1580694264096,5.4447,0.5561,5.5948997,4.2655864,1.1716266000000002,16.180342,-1
309,310,1580694264106,4.46,0.2478,6.8887997,3.3856695,0.9270924,17.101255,-1
310,311,1580694264116,3.3560998,-0.0995,7.821399700000001,1.770493,0.2978004,17.835835999999997,-1
311,312,1580694264126,1.8169999,-0.8147,7.9915996,0.0673058,-0.62312454,17.330735999999998,-1
312,313,1580694264137,0.2085,-1.8331,7.1745,-1.4826813,-1.6438683999999997,16.2921,-1
313,314,1580694264147,-1.1782,-2.8599,6.1934,-2.603024,-2.365098,15.621726,-1
314,315,1580694264157,-2.4864,-3.7261,5.5762997,-4.139268,-3.361871,15.2095585,-1
315,316,1580694264167,-3.6141,-4.6478,5.4788,-5.483937999999999,-4.37932,15.038756,-1
316,317,1580694264177,-4.7425,-5.5929,5.2637,-6.893663,-5.182393,14.661076999999999,-1
317,318,1580694264187,-6.1998,-6.4453998,4.9132,-8.185671000000001,-5.625991,14.495063,-1
318,319,1580694264197,-7.750099700000001,-6.9252,4.7416,-9.606639,-5.757385,14.451248000000001,-1
319,320,1580694264207,-8.9488,-7.1256,4.8178,-10.631261,-5.8757925,14.380619,-1
320,321,1580694264217,-9.8371,-7.3020997,4.5243,-11.361809,-5.809866,13.434853,-1
321,322,1580694264227,-10.2317,-7.2960997,3.5684,-11.316855,-5.4259796,12.2761345,-1
322,323,1580694264237,-10.0458,-7.0376997,2.4996998,-11.034722,-5.0523596,11.627133,-1
323,324,1580694264247,-9.684199000000001,-6.782099700000001,1.7892,-10.841549,-4.8025103,10.500001,-1
324,325,1580694264258,-9.5791,-6.8373,0.7018,-10.849192,-4.7540803,9.652961999999999,-1
325,326,1580694264268,-9.533899,-6.8792,-0.59499997,-10.92324,-4.451999,7.961400500000001,-1
326,327,1580694264278,-9.6291,-6.8073997,-1.6718,-11.263944,-4.0954065,6.924127,-1
327,328,1580694264289,-9.931000000000001,-6.5916,-2.6569998,-11.3560915,-3.5693047,5.835876,-1
328,329,1580694264299,-9.893599499999999,-6.2785997,-3.6376998,-10.587523,-2.9286163,5.3377576,-1
329,330,1580694264309,-9.193399000000001,-5.9431996,-3.8976998,-9.609694000000001,-2.1008356,5.36396,-1
330,331,1580694264319,-8.2245,-5.2412,-3.8291,-8.914800999999999,-1.720684,5.1321435,-1
331,332,1580694264329,-7.4037,-4.9702,-4.0469,-8.104219,-1.39106,4.868178400000001,-1
332,333,1580694264340,-6.7697,-4.8691998,-4.2047,-7.5651793000000005,-1.1178241000000002,4.253357,-1
333,334,1580694264350,-6.244,-4.7552,-4.7626,-7.1350274,-0.99569106,3.4752412000000006,-1
334,335,1580694264360,-5.327999999999999,-4.7118,-6.2440996,-6.586056,-0.75089824,2.6523733,-1
335,336,1580694264370,-4.8117,-4.5873,-7.1884,-6.0139184000000006,-0.4730751,1.6290052,-1
336,337,1580694264381,-4.2521,-4.538,-8.0441,-5.383401,-0.26231834,0.7124378,-1
337,338,1580694264391,-4.2521,-4.538,-8.0441,-4.852223,-0.11100477,-0.11235510000000001,-1
338,339,1580694264401,-3.806,-4.5299,-8.7842,-4.6619225,-0.10980766,-0.8675149999999999,-1
339,340,1580694264411,-3.5955,-4.8901,-9.7908,-4.441838,-0.21358193,-1.2203821000000001,-1
340,341,1580694264421,-3.2438998,-4.8777,-9.758699,-3.9683127000000002,-0.10547895,-1.2359635,-1
341,342,1580694264434,-2.4176,-4.6479,-9.5799,-2.4287355,0.39689159999999996,-0.94640875,-1
342,343,1580694264441,-2.4176,-4.6479,-9.5799,-1.3652024999999999,0.6626959,-0.6940215999999999,-1
343,344,1580694264451,-0.91889995,-4.2488,-9.1666,0.5712853,1.0737038,-0.34847128,-1
344,345,1580694264461,2.3242,-3.3871998999999997,-8.6826,2.2166095,1.5662962999999999,-0.22613715,-1
345,346,1580694264471,3.5205998,-3.0971,-8.7455,3.7714423999999998,1.875541,-0.28277440000000004,-1
346,347,1580694264482,4.315,-3.0670998,-8.715899,4.7075944000000005,1.8402216,-0.23539792,-1
347,348,1580694264492,4.9193997000000005,-3.1515,-8.719999000000001,5.4036655,1.7459476000000003,-0.20062453,-1
348,349,1580694264502,5.218899700000001,-3.0321999,-8.3877,5.932324400000001,1.8486493000000002,0.36707902,-1
349,350,1580694264512,5.8622,-2.872,-7.6912,6.8632089999999994,2.0075095000000003,1.0520889,-1
350,351,1580694264522,5.8622,-2.872,-7.6912,7.592205,2.3772986,1.39717,-1
351,352,1580694264533,6.7414,-2.3005,-7.1976,9.052658000000001,2.6999892999999995,1.7559650000000002,-1
352,353,1580694264544,8.047,-1.8772999,-6.8768997,9.052658000000001,2.6999892999999995,1.7559650000000002,-1
353,354,1580694264554,11.2647,-1.8449999,-5.6203,13.24435,2.3931675,3.6645937000000006,-1
354,355,1580694264565,12.4997,-1.8299999,-4.0705,14.327937,2.2677784,5.426381,-1
355,356,1580694264575,13.095999999999998,-1.6902,-2.4297,14.836685000000001,2.3973619999999998,7.078917,-1
356,357,1580694264586,13.0022,-1.2430999,-0.7367,14.781217000000002,2.7096138,8.704666,-1
357,358,1580694264596,12.855,-0.6884,0.41959998,15.089064000000002,3.2533274,9.44614,-1
358,359,1580694264606,13.4909,-0.19919999,0.3342,16.327393,3.1551842999999997,8.788483,-1
359,360,1580694264616,14.6313,-0.4053,-0.49199998,16.968023000000002,2.782972,8.326651,-1
360,361,1580694264626,14.903998999999999,-0.83269995,-0.68619996,17.50379,2.033635,8.760164,-1
361,362,1580694264637,15.439098999999999,-1.104,0.104499996,18.172949,2.0488427,9.694908,-1
362,363,1580694264647,15.790999,-0.69229996,1.1424999,18.406403,2.4728465,11.029235,-1
363,364,1580694264657,15.9225,-0.1725,2.5340998,18.43498,2.855689,12.154606,-1
364,365,1580694264667,15.5889,0.3457,3.1852999,17.431273,3.3781133000000003,11.928497,-1
365,366,1580694264677,14.540299,0.8379,2.6646,16.414827,3.2690334,10.654179,-1
366,367,1580694264688,13.5264,0.7015,1.1701,15.514006,2.9742403,9.141015,-1
367,368,1580694264699,12.3754,0.4454,-0.66679996,14.303104000000001,2.597613,7.7890179999999996,-1
368,369,1580694264709,11.246099000000001,-0.021399999,-1.5683999,13.171596,1.7462061999999998,7.5228304999999995,-1
369,370,1580694264719,10.3679,-0.69519997,-1.6588999,11.937576,0.9917071,7.5261726,-1
370,371,1580694264729,9.291699000000001,-1.3011999,-1.6549,10.211758999999999,-0.091228664,7.493277,-1
371,372,1580694264740,7.5744996,-2.3339999,-1.6904999,7.9250855,-1.5751741000000001,6.497892,-1
372,373,1580694264750,5.3002,-3.7993998999999996,-2.6929,5.4803375999999995,-2.7458715,5.3227124,-1
373,374,1580694264760,0.43899998,-5.6352997,-4.4602,2.9689057,-3.4769937999999994,4.775943799999999,-1
374,375,1580694264770,-1.8556999,-5.7285,-4.4467,0.6250878000000001,-3.622925,4.812374,-1
375,376,1580694264780,-1.8556999,-5.7285,-4.4467,-0.9241427,-3.5221772000000002,4.4789577000000005,-1
376,377,1580694264791,-3.3404998999999997,-5.5520997,-4.8073997,-1.687079,-3.3336577000000003,3.6862662000000004,-1
377,378,1580694264802,-4.4147997000000005,-4.951699700000001,-6.4674997,-2.0861254000000002,-3.0421014,2.7848396,-1
378,379,1580694264812,-4.4972997,-4.6293,-6.7177997000000005,-2.230649,-2.8736837000000004,2.6460047,-1
379,380,1580694264822,-5.2662997,-4.6064,-6.4512,-2.948172,-2.9870443,2.9469175,-1
380,381,1580694264832,-7.0274,-5.2524,-5.277,-4.7259145,-3.7892455999999997,4.150722,-1
381,382,1580694264842,-9.4002,-6.1088,-3.4478998,-8.264056,-5.143387000000001,6.729305999999999,-1
382,383,1580694264853,-12.2303,-6.6642,-1.8335999,-11.121441,-5.852147,8.265455000000001,-1
383,384,1580694264863,-14.988,-7.0589,-0.33139998,-13.306954000000001,-6.2395287,9.456598,-1
384,385,1580694264874,-17.2132,-6.9283,0.532,-15.305585999999998,-6.202735,10.104632,-1
385,386,1580694264884,-17.9718,-6.3251995999999995,0.3444,-15.764707000000001,-5.8395057,9.894536,-1
386,387,1580694264894,-17.5681,-5.5435,0.0145,-15.230464999999999,-5.1643696,9.575629,-1
387,388,1580694264905,-17.0751,-5.1162,0.235,-14.751385999999998,-5.0334067000000005,9.95465,-1
388,389,1580694264915,-16.81,-4.9589,0.937,-14.601039000000002,-5.1900644,10.932058,-1
389,390,1580694264925,-16.7102,-4.9199,2.2805,-14.448357000000001,-5.495191,12.82775,-1
390,391,1580694264935,-16.5992,-4.8808,3.8471,-14.754574,-5.6139812000000004,13.990958,-1
391,392,1580694264948,-17.0937,-4.7929,4.7830997,-15.388243,-5.990417,15.064805999999999,-1
392,393,1580694264958,-17.5681,-4.9143,6.1770997,-15.407225,-6.165462000000001,16.507696,-1
393,394,1580694264969,-17.1321,-4.8041,7.3919997,-14.005353,-6.4496535999999995,17.440659,-1
394,395,1580694264980,-15.6222,-4.7602,8.1116,-11.3607645,-6.667334599999999,18.161293,-1
395,396,1580694264990,-13.300799,-4.7244,8.7368,-8.503514,-6.841642,18.789234,-1
396,397,1580694265001,-7.3905997,-4.0845,10.258599,-5.013104,-6.416882,19.81811,-1
397,398,1580694265011,-7.3905997,-4.0845,10.258599,-2.7336516,-6.106057,20.786182,-1
398,399,1580694265021,-2.1963,-2.6922998,12.4983,-0.6117952,-5.529198,21.76696,-1
399,400,1580694265032,-0.77309996,-2.2638,13.37,0.71379775,-5.2823462,22.59529,-1
400,401,1580694265042,-0.77309996,-2.2638,13.37,1.9449537000000001,-5.6392837,23.305770000000003,-1
401,402,1580694265052,1.3313999,-2.8218,14.2053995,2.680012,-6.2088165,23.378355,-1
402,403,1580694265064,1.8726,-3.3678,14.104199,3.2844712999999994,-6.8639850000000004,23.128315,-1
403,404,1580694265072,3.3574998,-3.8256,13.2365,4.9336357,-7.230479700000001,22.179703,-1
404,405,1580694265084,5.5957,-3.6715998999999995,12.6737995,7.68238,-6.946517500000001,21.908801999999998,-1
405,406,1580694265095,8.0493,-3.3200998,13.1858,10.349646,-6.375596,22.975592000000002,-1
406,407,1580694265106,8.0493,-3.3200998,13.1858,11.055724,-6.0728636,23.435299,-1
407,408,1580694265116,11.6193,-2.0485,15.2346,12.765836,-5.295495,24.519135000000002,-1
408,409,1580694265126,12.597000000000001,-1.7078999,15.1742,13.82436,-4.885369,23.769827,-1
409,410,1580694265136,13.1763,-1.6297,13.9233,14.190385999999998,-4.633096,22.135592000000003,-1
410,411,1580694265147,13.5187,-1.5206,12.0224,14.452139,-4.371439,20.12291,-1
411,412,1580694265158,13.785998999999999,-1.4879,9.947499,14.6232,-4.128819999999999,17.803160000000002,-1
412,413,1580694265167,13.892698999999999,-1.5121,8.0174,14.740095000000002,-3.8385565,16.320535999999997,-1
413,414,1580694265177,14.0164995,-1.4663999,6.5892,14.740535000000001,-3.5286512,15.229192000000001,-1
414,415,1580694265187,14.0096,-1.3952,5.3908,14.610769,-3.1394782,13.661745999999999,-1
415,416,1580694265197,13.904698999999999,-1.2803999,3.6381,14.594125,-2.7570286,11.971085,-1
416,417,1580694265208,13.8329,-1.0514,1.3716999,14.160592000000001,-2.3354576000000002,9.165789,-1
417,418,1580694265218,13.3313,-1.153,-1.0239999,13.370792999999999,-2.3597155,7.300160400000001,-1
418,419,1580694265228,12.2471,-1.5080999,-3.3314998,11.997038,-2.4639493999999997,4.9394774,-1
419,420,1580694265238,11.1497,-1.8531,-5.1577,11.174936,-2.3235345,3.5954685,-1
420,421,1580694265249,10.3719,-1.925,-6.3849998,10.778868,-1.9888633000000002,2.9778700000000002,-1
421,422,1580694265259,10.0156,-1.7921,-6.8283997,10.615803999999999,-1.3559896,3.2579339,-1
422,423,1580694265269,9.811,-1.3077999,-6.4128,10.182108,-0.640516,3.6818419000000002,-1
423,424,1580694265279,9.3857,-0.9012,-6.0931,9.429256,-0.45500365,3.5218322,-1
424,425,1580694265289,8.6078,-0.8455,-6.2542,8.820277,-0.45896846,3.8272652999999996,-1
425,426,1580694265299,8.0063,-0.9528,-5.9449,7.915566,-0.92008215,5.0207367,-1
426,427,1580694265310,7.0801997000000005,-1.517,-4.742,6.799734,-1.1167036,6.7577110000000005,-1
427,428,1580694265320,5.9291,-1.8094,-2.9959998,5.825782299999999,-1.0579786,8.044039,-1
428,429,1580694265330,4.8796,-1.8596,-1.6965,4.6902027,-1.1737909,8.579478,-1
429,430,1580694265340,3.8916998,-2.0607998,-1.1484,3.3202309999999997,-1.4797411,8.437023,-1
430,431,1580694265350,0.8914,-3.0128999,-1.4846,1.6457263,-1.9115113999999997,8.117080999999999,-1
431,432,1580694265361,0.8914,-3.0128999,-1.4846,0.2876298,-2.1620407000000004,7.791853,-1
432,433,1580694265371,-2.1884,-3.7129,-1.9052,-1.3791943000000002,-2.378218,7.8016119999999995,-1
433,434,1580694265381,-3.1994,-3.9218998,-1.5261999,-2.190053,-2.4983687000000003,8.125126,-1
434,435,1580694265391,-4.046,-4.1310997,-0.7066,-3.2108736,-2.6612127,9.109775,-1
435,436,1580694265401,-4.7068996,-4.3292,0.0064999997,-3.88352,-2.8075080000000003,9.723428,-1
436,437,1580694265412,-5.1899,-4.4932,0.1629,-4.2615739999999995,-2.875848,9.7906,-1
437,438,1580694265422,-5.3229,-4.4084,-0.041699997999999995,-4.3650126,-2.6221585,9.498994999999999,-1
438,439,1580694265432,-5.1267,-3.9436998,-0.5498,-4.244891,-2.0956638,8.951939999999999,-1
439,440,1580694265442,-5.5559,-3.8690998999999997,-0.9019,-4.8695283,-2.070046,8.694036500000001,-1
440,441,1580694265452,-6.6397,-4.256,-0.8318,-6.335642,-2.4693412999999995,8.73443,-1
441,442,1580694265463,-7.8545,-4.5532,-0.9738,-7.3717947,-2.6142097,8.479754,-1
442,443,1580694265473,-8.4696,-4.8206997000000005,-1.3762,-7.748805,-2.7954605,7.9186497000000005,-1
443,444,1580694265483,-8.5864,-4.9823,-2.0214,-7.740272,-2.7494533,7.4405947,-1
444,445,1580694265493,-8.2841,-4.6138,-2.0205998,-7.3167089999999995,-2.1985188,7.5669894,-1
445,446,1580694265503,-7.2523,-3.7856998,-1.6513,-5.7970037,-0.9843138000000001,7.901019,-1
446,447,1580694265513,-5.7026,-2.6980999,-1.5114,-4.2937613,0.07825209,8.057006,-1
447,448,1580694265524,-4.3740997,-1.829,-1.2852,-3.1076066000000004,0.87814534,8.224552000000001,-1
448,449,1580694265534,-3.5458,-1.2545998999999999,-1.3723999,-2.5360725,1.3533465,7.872211999999999,d
449,450,1580694265544,-3.2389997999999998,-1.0198,-1.9283999,-2.395916,1.5350473,7.419861,-1
450,451,1580694265555,-3.2001998,-1.0138,-2.4730000000000003,-2.3607786,1.5694663999999998,6.691717,-1
451,452,1580694265565,-3.1618998,-1.0544,-3.1259,-2.2938654,1.6189495,6.129664,-1
452,453,1580694265575,-3.0528,-0.93829995,-3.3695,-2.114875,1.8324071,6.080324,-1
453,454,1580694265585,-2.7259998,-0.74829996,-3.1564999,-1.695612,2.0864701,6.441954,-1
454,455,1580694265595,-2.3197,-0.51489997,-2.8690999,-1.1878879,2.3719930000000002,6.5945506,-1
455,456,1580694265605,-1.7840999,-0.29099998,-2.8397,-0.64775604,2.4781137,6.528701,-1
456,457,1580694265616,-1.2178,-0.18679999,-2.8323,-0.04600698,2.5984654,6.8476467,-1
457,458,1580694265626,-0.6321,-0.0246,-2.2684999,0.36893693,2.7822251000000002,7.7200747000000005,-1
458,459,1580694265636,-0.4296,0.1646,-1.2556,0.32999763,2.8063683999999998,8.71702,-1
459,460,1580694265646,-0.5406,0.139,-0.4684,0.1184651,2.7250516,9.058653,-1
460,461,1580694265657,-0.7435,0.015099999499999999,-0.4332,-0.010630256000000001,2.524475,8.633328,-1
461,462,1580694265668,-0.7966,-0.14109999,-0.9037,0.06890513,2.3838685,8.120797,-1
462,463,1580694265678,-0.7186,-0.2844,-1.3719,0.398625,2.2867785,7.921599400000001,-1
463,464,1580694265688,-0.42369998,-0.3551,-1.4979999,0.6665936,2.2397182,7.980103999999999,-1
464,465,1580694265699,-0.1612,-0.3964,-1.4411,0.8153693000000001,2.2566213999999998,8.199624,-1
465,466,1580694265709,-0.00049999997,-0.35999998,-1.2304,1.0242395,2.3462026000000002,8.564538,-1
466,467,1580694265719,0.20109999,-0.2481,-0.86469996,1.2101732,2.4863114,8.890715,-1
467,468,1580694265729,0.4021,-0.0837,-0.5489,1.1584202,2.5507633999999997,9.035842,-1
468,469,1580694265739,0.34759998,0.0117,-0.4192,1.1028746,2.558779,9.177099,-1
469,470,1580694265750,0.2847,0.089499995,-0.2756,1.0853393999999998,2.5848856,9.192834,-1
470,471,1580694265760,0.519,0.1573,-0.5354,1.3271251,2.629475,8.928467,-1
471,472,1580694265770,0.80009997,0.24309999,-0.7847,1.6080225000000001,2.69137,8.691382,-1
472,473,1580694265781,1.0518,0.3225,-0.7603,1.8658683999999996,2.7524029999999997,8.722057000000001,-1
473,474,1580694265790,1.0518,0.3225,-0.7603,2.0191932,2.8060810000000003,8.923325,-1
474,475,1580694265800,1.2071999,0.4078,-0.561,1.9499816000000003,2.8060522,9.101472,-1
475,476,1580694265810,0.99429995,0.4296,-0.1678,1.7959961,2.7624682999999997,9.333173,-1
476,477,1580694265820,0.79209995,0.37399998,0.0757,1.5785258999999998,2.6669204,9.595003,-1
477,478,1580694265831,0.5239,0.3013,0.4755,1.295924,2.5542203999999997,10.004019,-1
478,479,1580694265841,0.5239,0.3013,0.4755,1.0481528,2.3890398,10.756717,-1
479,480,1580694265851,0.1266,0.17819999,1.8275,0.8717001,2.340878,11.374191,-1
480,481,1580694265862,0.1414,0.3707,2.0272,0.8833646999999999,2.5110674,11.578541,-1
481,482,1580694265872,0.2536,0.5315,1.9061999,0.99582505,2.6756450000000003,11.410525999999999,-1
482,483,1580694265883,0.3399,0.5554,1.3946999,1.0939108,2.6816304,10.814954,-1
483,484,1580694265893,0.5189,0.5446,0.7369,1.2639373999999999,2.6455927000000004,10.218069,-1
484,485,1580694265903,0.68149996,0.41700000000000004,0.43179998,1.3914046,2.4248377999999997,9.944892,-1
485,486,1580694265913,0.6407,0.058799997,0.3805,1.2931274,2.0853305,9.975039500000001,-1
486,487,1580694265923,0.35869998,-0.2909,0.6605,0.9325894,1.7935634999999999,10.323577,-1
487,488,1580694265933,0.0348,-0.294,1.3,0.5624267,1.9003831999999998,11.3591175,-1
488,489,1580694265944,-0.1628,0.1105,2.593,0.31592929999999997,2.3433490000000003,12.702581,-1
489,490,1580694265954,-0.35029998,0.6622,3.8739,0.102558024,2.826882,13.975119,-1
490,491,1580694265964,-0.4772,1.0469998999999999,5.0273,-0.13215993,2.9785976,14.992366,-1
491,492,1580694265974,-0.7502,0.97919995,5.585,-0.43811974,2.8190863,15.202788,-1
492,493,1580694265984,-1.1511999,0.7334,5.1958,-1.0162333000000001,2.5020267999999994,14.526025,-1
493,494,1580694265994,-1.4427999,0.4928,4.3705997000000005,-1.3548213,2.2872765,13.460258999999999,-1
494,495,1580694266004,-1.6129999,0.3689,3.4619999999999997,-1.5527931000000001,2.2903125,12.743569,-1
495,496,1580694266014,-1.7922,0.41759998,2.7039999999999997,-1.7882197,2.3899877,12.136505,-1
496,497,1580694266024,-2.0102,0.4694,2.2814999,-2.0489578,2.4755087000000002,11.824292,-1
497,498,1580694266035,-2.3732998,0.42049998,2.0365999,-2.6148992,2.3905241000000004,11.610298,-1
498,499,1580694266045,-2.3732998,0.42049998,2.0365999,-2.9684749,2.2091491000000003,11.497282,-1
499,500,1580694266055,-2.9652,-0.0198,1.8226999,-3.1580095,2.0477033,11.29774,-1
500,501,1580694266065,-3.1332998,-0.1717,1.5586,-3.3423727,2.030465,10.924503,-1
501,502,1580694266076,-3.1067998,-0.17099999,1.2055,-3.1946504,2.1068785,10.560249,-1
502,503,1580694266086,-2.8186,-0.087,0.852,-2.972861,2.2849784,10.2097,-1
503,504,1580694266096,-2.5674999,0.069,0.5276,-2.709317,2.3869712000000005,9.81685,-1
504,505,1580694266106,-2.162,0.0495,0.0858,-2.2754207,2.3154037,9.316863,-1
505,506,1580694266116,-1.6546999,-0.0392,-0.4143,-1.8282508000000002,2.2964227000000004,8.820899,-1
506,507,1580694266126,-1.1460999,-0.02,-0.84599996,-1.4737364,2.42706,8.607903,-1
507,508,1580694266137,-0.65099996,0.15689999,-0.8369,-0.90997857,2.7044997000000004,8.79306,-1
508,509,1580694266147,-0.23959999,0.3928,-0.69119996,-0.62261695,3.0197206000000003,8.754685,-1
509,510,1580694266157,-0.032899998,0.60719997,-0.77099997,-0.5059140000000001,3.175104,8.593633,-1
510,511,1580694266167,0.081999995,0.64449996,-0.9684,-0.5080399999999999,3.0619636000000003,8.400037,-1
511,512,1580694266179,-0.037699997,0.3789,-1.3130000000000002,-0.7601303,2.665436,7.812941,-1
512,513,1580694266190,-0.2048,0.0468,-1.7364,-0.8897428,2.2489696,7.379925699999999,-1
513,514,1580694266200,-0.2954,-0.3308,-2.0823,-1.0586298,1.868866,7.000789599999999,-1
514,515,1580694266211,-0.6216,-0.98889995,-2.5632,-1.217892,1.6136728999999999,6.876616499999999,-1
515,516,1580694266221,-0.35029998,-1.051,-2.5128999,-0.96000785,1.5569685,6.9273157,-1
516,517,1580694266231,0.4544,-0.75549996,-2.5132,-0.0316705,1.9071061999999999,6.9249220000000005,-1
517,518,1580694266241,0.99109995,-0.515,-2.4658,0.48543876,2.1348236000000003,7.027039500000001,-1
518,519,1580694266251,1.354,-0.2439,-2.2033,0.8434389999999999,2.3968258,7.330528299999999,-1
519,520,1580694266261,1.6675999,-0.1308,-1.7450999,1.1369777,2.4445567,7.8030577,-1
520,521,1580694266272,1.6136999,-0.2554,-1.4139,0.99413,2.3100214,8.076524000000001,-1
521,522,1580694266283,1.0978,-0.4734,-1.2675999,0.48831179999999996,2.054551,8.202306,-1
522,523,1580694266292,0.5377,-0.93369997,-1.2765,-0.050642155,1.5739291000000002,8.146023,-1
523,524,1580694266302,-0.0053999997,-1.3314999,-1.5583999,-0.6454385,1.2005006,7.7667327,-1
524,525,1580694266313,-0.3843,-1.537,-1.8391,-0.89351606,1.037896,7.520542,-1
525,526,1580694266323,-0.55079997,-1.6539999,-2.0512,-0.9439475,0.99964625,7.394042,-1
526,527,1580694266333,-0.406,-1.5414,-2.1564999,-0.5870390999999999,1.1910579,7.344271000000001,-1
527,528,1580694266343,0.0126,-1.3527,-1.9597,-0.058016295999999995,1.403165,7.619269,-1
528,529,1580694266354,0.49229997,-1.1744,-1.5690998999999999,0.44313800000000003,1.6046323999999998,8.093847,-1
529,530,1580694266364,1.0036,-0.89089996,-1.0724,1.1066383,2.0255330000000002,8.632467,-1
530,531,1580694266374,1.4785999,-0.4861,-0.64519995,1.4755848999999999,2.313517,8.990246,-1
531,532,1580694266385,1.8111,-0.19749999,-0.19849999,1.7163936999999998,2.4697244,9.404693,-1
532,533,1580694266395,1.7502999,-0.1537,0.0813,1.5171481000000002,2.4390497000000004,9.529536,-1
533,534,1580694266405,1.3896998999999999,-0.2758,-0.0674,1.232966,2.2886173999999997,9.353792,-1
534,535,1580694266416,0.98579997,-0.55,-0.23439999,0.64712393,1.9656109,9.175595,-1
535,536,1580694266426,0.5287,-0.70159996,-0.3216,0.33361766,1.9002588,9.064256,-1
536,537,1580694266436,0.3297,-0.76019996,-0.3976,0.41446507,1.9205616,9.138438,-1
537,538,1580694266446,0.47700000000000004,-0.5859,-0.2472,0.6295218,2.2996595,9.316403999999999,-1
538,539,1580694266458,0.7224,-0.2245,-0.0674,1.0230615,2.576372,9.457604,-1
539,540,1580694266468,1.0624,0.0021,0.0431,1.3983573999999999,2.817621,9.497885,-1
540,541,1580694266478,1.2917,0.1626,0.0451,1.5798666000000001,2.8991485,9.397594999999999,-1
541,542,1580694266489,1.4685,0.2268,-0.0808,1.7004291,2.8578532,9.23683,-1
542,543,1580694266499,1.5561999,0.14800000000000002,-0.21779999,1.7046523999999998,2.6816782999999997,9.24044,-1
543,544,1580694266510,1.5439999,0.0156,-0.2094,1.56712,2.6092202999999996,9.3364105,-1
544,545,1580694266520,1.4175999,-0.0545,-0.1136,1.3850552999999999,2.5911965,9.489878,-1
545,546,1580694266530,1.003,0.070099995,0.40129998,1.1537275,2.7136264,9.858775999999999,-1
546,547,1580694266540,1.003,0.070099995,0.40129998,1.1061021,2.815648,10.073967999999999,-1
547,548,1580694266550,1.0432,0.3024,0.57919997,1.2163694,2.9524529999999998,10.035038,-1
548,549,1580694266561,1.0897,0.3482,0.2597,1.2948226,3.0153725,9.706553,-1
549,550,1580694266571,1.1859,0.2339,-0.16669999,1.4125215,2.9162526,9.272686,-1
550,551,1580694266581,1.3145,0.1612,-0.2898,1.5551584999999999,2.8510728,9.14653,-1
551,552,1580694266591,1.4283999,0.20109999,-0.3065,1.7015494999999998,2.9136956,9.146971,-1
552,553,1580694266601,1.4318999,0.22699999999999998,-0.13859999,1.6738247,2.9335005,9.354731,-1
553,554,1580694266612,1.1761,0.2374,0.0279,1.3958483,2.9453373,9.478069999999999,-1
554,555,1580694266622,0.90419996,0.2192,0.1059,1.1677861999999999,2.9236746,9.543097,-1
555,556,1580694266632,0.90419996,0.2192,0.1059,0.97577125,2.8605924,9.608458,-1
556,557,1580694266643,0.45949998,0.0514,0.322,0.69549644,2.7530064999999997,9.7807455,-1
557,558,1580694266653,0.45949998,0.0514,0.322,0.71414244,2.7495873,9.8784,-1
558,559,1580694266663,0.6193,0.1252,0.42499998,0.96202856,2.8498373,9.87026,-1
559,560,1580694266674,0.80869997,0.1626,0.34059998,1.1407605,2.9108896,9.647005,-1
560,561,1580694266686,0.7859,0.1496,0.060399997999999996,1.0699496000000002,2.877122,9.391208,-1
561,562,1580694266696,0.7488,0.1184,-0.0634,1.0504992,2.8662617000000004,9.353504,-1
562,563,1580694266707,0.6669,0.0999,-0.050899997,0.8226476999999999,2.8762119999999998,9.369641,-1
563,564,1580694266717,0.44259998,0.1037,-0.0296,0.6006286,2.8513985,9.399158,-1
564,565,1580694266727,0.23009999,0.0892,-0.0185,0.39712146,2.8602474,9.327838999999999,-1
565,566,1580694266737,0.048,0.0749,-0.0958,0.34075236,2.8086956,9.260447000000001,-1
566,567,1580694266748,0.0115,0.0109,-0.163,0.24745509999999998,2.7010045,9.2513685,-1
567,568,1580694266758,-0.0972,-0.111499995,-0.1419,0.26557443,2.615426,9.351561,d
568,569,1580694266768,-0.0336,-0.1952,-0.042099997,0.43845496,2.5770326,9.344062,-1
569,570,1580694266778,0.13679999,-0.2294,-0.060099997,0.65536964,2.6018076,9.274333,-1
570,571,1580694266788,0.38689998,-0.2135,-0.15689999,0.9569431999999999,2.6194482000000003,9.230394,-1
571,572,1580694266798,0.67649996,-0.16699999999999998,-0.1266,1.3728257,2.9253507,9.525715,-1
572,573,1580694266808,1.1194,0.2051,0.1876,1.9560723000000002,3.3334373999999998,9.820977000000001,-1
573,574,1580694266818,1.726,0.5981,0.48200000000000004,2.6060886,3.618175,10.13433,-1
574,575,1580694266829,2.3751,0.8652,0.7856,3.3407447,3.8073266,10.239224,-1
575,576,1580694266839,3.1202998,1.0346,0.8142,4.0777087,3.8151029999999997,10.088295,-1
576,577,1580694266850,3.8346,0.9963,0.6469,4.5641527,3.5935817,9.839575,-1
577,578,1580694266859,4.2116,0.7981,0.4312,4.6081769999999995,3.4277976000000003,9.815902000000001,-1
578,579,1580694266869,4.2760997000000005,0.61689997,0.4125,4.6389765999999995,3.2644173999999997,9.966391999999999,-1
579,580,1580694266879,4.3183,0.45399999999999996,0.5609,4.61491,2.835884,10.128096000000001,-1
580,581,1580694266889,4.3003,0.026099999,0.7291,4.641534,2.5854504,10.390137,-1
581,582,1580694266900,4.3865,-0.27429998,1.0544,5.202275,2.6137116000000002,10.681357,-1
582,583,1580694266910,5.7608,-0.0545,1.4317,6.060146,2.7828093,10.823486,-1
583,584,1580694266920,5.7608,-0.0545,1.4317,6.865976299999999,3.0539669999999997,10.84764,-1
584,585,1580694266930,8.092999,0.64669997,1.3571,8.373308,3.5022957000000003,10.748769,-1
585,586,1580694266941,8.092999,0.64669997,1.3571,9.184225,3.6605237,10.557424000000001,-1
586,587,1580694266951,9.091599,0.584,1.0001,9.279246,3.3915303,10.399866000000001,-1
587,588,1580694266962,8.7442,0.3096,1.1231999,8.776693,3.1285129,10.553583999999999,-1
588,589,1580694266972,8.3380995,0.0897,1.1987,8.353887,2.9382794,10.537686,-1
589,590,1580694266983,7.8957,-0.1533,1.1086999,7.944507000000001,2.742855,10.438184,-1
590,591,1580694266993,7.8957,-0.1533,1.1086999,7.444971000000001,2.4587686,10.293305,-1
591,592,1580694267003,7.4191,-0.4676,0.951,7.162896000000001,2.2651734,10.235116,-1
592,593,1580694267013,6.8178997,-1.0246998999999999,0.7267,6.795213700000001,1.9003642,9.888494,-1
593,594,1580694267024,6.724,-1.3166,0.28759998,6.6775913000000005,1.7318792,9.482217,-1
594,595,1580694267034,6.6164,-1.4106,0.1033,6.460916,1.6857191000000002,9.45678,-1
595,596,1580694267044,6.2531,-1.5376999,0.1822,5.8360105,1.524685,9.522985,-1
596,597,1580694267055,5.4119997,-1.7657,0.4164,4.6303477,1.2637267,10.016967,-1
597,598,1580694267065,4.4428,-1.9976,0.95339996,3.466603,1.0164632,10.529929,-1
598,599,1580694267075,3.2537,-2.3365998,1.4029,2.3458482999999997,0.71697724,10.693337,-1
599,600,1580694267085,1.9604,-2.662,1.2278,1.0705625,0.45743617,10.263253,-1
600,601,1580694267095,1.0375999,-2.9189999999999996,0.62549996,0.061942786,0.2397362,9.462661,-1
601,602,1580694267106,0.4206,-3.0667999,-0.1105,-0.5705191,0.1975025,8.627563,-1
602,603,1580694267116,-0.1387,-3.1864998,-0.86499995,-1.1135815,0.082609534,8.164678,-1
603,604,1580694267126,-0.7989,-3.4053998,-1.1798999,-2.1138983,-0.2562562,7.888798700000001,-1
604,605,1580694267136,-1.6251999,-3.7580998,-1.3701999,-2.8931150000000003,-0.4984249,7.748508500000001,-1
605,606,1580694267146,-2.6183999,-4.0778,-1.3967999,-4.394768,-0.92848104,7.949122999999999,-1
606,607,1580694267156,-3.8941998,-4.4835997,-1.0045,-5.9305905999999995,-1.3918548000000002,8.463885000000001,-1
607,608,1580694267167,-5.4261,-4.9101996,-0.47709998,-8.110818,-1.920734,8.9827385,-1
608,609,1580694267177,-7.1889,-5.3457,-0.116299994,-9.544972999999999,-2.1612651,9.014341,-1
609,610,1580694267187,-8.7764,-5.553,-0.1749,-11.055188000000001,-2.2308407000000003,8.678445,-1
610,611,1580694267197,-9.7815,-5.517299700000001,-0.5251,-11.5041485,-2.0837696,8.3700905,-1
611,612,1580694267207,-10.1191,-5.2486,-1.1185,-11.464788,-1.6441462,7.596371,-1
612,613,1580694267218,-9.6286,-4.8111,-1.6916,-10.656466499999999,-1.0826006000000001,7.15465,-1
613,614,1580694267228,-8.692699000000001,-4.2263,-2.0792,-9.712645,-0.43104252,6.614202499999999,-1
614,615,1580694267238,-8.020599,-3.7542998999999995,-2.5173,-9.538136,-0.044982262,6.347498000000001,-1
615,616,1580694267248,-7.8875,-3.4332,-2.6927,-9.758977,0.20977995,6.4170732,-1
616,617,1580694267258,-8.1612,-3.2152,-2.6253998,-10.247145,0.29863358,6.290296,-1
617,618,1580694267268,-8.6707,-3.1643999,-2.7951,-10.808154,0.36428255,6.0574265,-1
618,619,1580694267279,-9.3139,-3.0602999,-3.0930998,-11.209624,0.45599008,5.7920622999999996,-1
619,620,1580694267289,-9.5567,-3.0022,-3.3239,-11.171719,0.64795715,5.3623033,-1
620,621,1580694267299,-9.4549,-2.8321,-3.7322,-10.741012,0.7562517,5.0167910000000004,-1
621,622,1580694267310,-9.0126,-2.7914999,-4.053499700000001,-10.342186,0.75470024,4.8609667000000005,-1
622,623,1580694267319,-8.3512,-2.7979,-4.3273997,-9.379429,0.70448905,4.526678599999999,-1
623,624,1580694267329,-7.5024,-2.9562,-4.5143,-8.437857000000001,0.59276605,4.4734416,-1
624,625,1580694267340,-6.6194,-2.991,-4.575,-7.0055776,0.7944919,4.0461339999999995,-1
625,626,1580694267352,-4.9508,-3.0346,-5.585099700000001,-6.074549,0.4618032,3.0459032,-1
626,627,1580694267363,-4.7395997,-3.3971998999999995,-6.530999700000001,-6.255446,0.11159853,2.1054897,-1
627,628,1580694267373,-5.4841,-4.0073,-7.6291,-6.9682664999999995,-0.503175,1.0712903,-1
628,629,1580694267383,-6.7985,-5.0952997,-9.29,-8.305324,-1.5414063,-0.6856419,-1
629,630,1580694267393,-8.3164,-6.0885997000000005,-11.1917,-9.741307,-2.4673684,-2.6416283,-1
630,631,1580694267404,-9.5829,-7.1095,-13.153398999999999,-10.8382635,-3.4253267999999997,-4.931586299999999,-1
631,632,1580694267414,-9.6896,-7.5621,-14.5377,-10.113156,-3.7729362999999996,-5.7278304,-1
632,633,1580694267425,-7.9459,-7.8462996,-14.249599,-7.3207693,-3.9252743999999997,-4.2809763,-1
633,634,1580694267435,-5.5857997,-7.6133,-12.343599000000001,-5.3386197,-3.4804032,-1.8248414000000002,-1
634,635,1580694267446,-3.9041,-6.8831997000000005,-9.7641,-4.0104413,-2.8390157000000005,1.0242681999999999,-1
635,636,1580694267456,-2.9082,-5.9698,-7.007899799999999,-3.8678231,-2.148978,3.3707294,-1
636,637,1580694267466,-3.3887,-5.4019,-5.3357997,-4.6587143,-2.3847396,4.1327276,-1
637,638,1580694267477,-4.8318996,-6.1664996,-5.2783,-6.409632,-3.9061687000000007,3.0914123,-1
638,639,1580694267487,-5.8539,-7.059,-6.5011,-5.772018,-4.618357700000001,1.8953171999999998,-1
639,640,1580694267498,-5.0195,-7.6856,-7.6383,-4.1043987,-5.2389730000000005,1.4593331,-1
640,641,1580694267508,-2.8518999,-8.3133,-7.8006997,-0.29614359999999995,-5.8863363,3.0302548,-1
641,642,1580694267518,0.47919998,-8.4138,-5.7839,3.3259769999999995,-5.0935874000000005,7.493784,-1
642,643,1580694267528,3.8571,-7.0390997,-1.0123,5.323507299999999,-3.5978818,12.357097999999999,-1
643,644,1580694267539,5.4175,-5.2214,3.5295,5.2680006,-3.0156312,15.550618,-1
644,645,1580694267549,5.0287,-4.4108,6.1653,2.550026,-3.3099839999999996,15.840479,-1
645,646,1580694267560,2.6569998,-4.3517,6.0888,0.41496304,-4.4603977,14.743657,-1
646,647,1580694267570,0.5417,-5.2054,4.9529,0.33527443,-5.435201599999999,14.259492000000002,-1
647,648,1580694267580,0.5578,-6.0699997,4.348099700000001,1.3804296999999999,-5.873973,13.863164999999999,-1
648,649,1580694267590,1.3629999,-6.1594,4.0545,2.7816505,-6.0288296,15.062420999999999,-1
649,650,1580694267601,4.8619,-5.5720997,7.3089,5.427253,-5.650718,17.619734,-1
650,651,1580694267611,6.6247,-4.3299,10.0852995,6.976646400000001,-4.672524,20.42793,-1
651,652,1580694267622,7.4034996,-3.1348999,12.0782995,7.4154553,-3.8210406000000003,21.993489999999998,-1
652,653,1580694267632,7.4034996,-3.1348999,12.0782995,6.661368400000001,-3.3788888,21.918657,-1
653,654,1580694267642,6.7653,-2.2354,12.1672,5.013247499999999,-3.5022,21.101316,-1
654,655,1580694267652,3.7842998999999997,-2.3994,9.4193,2.9857225,-4.0554805,18.317595999999998,-1
655,656,1580694267664,2.2137,-2.5521,7.3273997,1.731343,-4.1539397000000005,16.680613,-1
656,657,1580694267674,2.1244,-2.3143,6.9287,2.1901298,-3.8826482,16.677483,-1
657,658,1580694267684,2.9642,-1.7951,7.1991,3.1791456,-3.3893948,16.996199,-1
658,659,1580694267694,4.0664997000000005,-1.1740999,7.6229997,4.282192,-2.9108417,17.3662,-1
659,660,1580694267704,5.2352,-0.6374,7.7903,5.306978,-2.4886386000000003,17.280075,-1
660,661,1580694267714,6.1502,-0.0368,7.4624996,5.965211,-2.0912106,16.832462,-1
661,662,1580694267724,6.7545,0.32459998,6.928499700000001,6.258721400000001,-1.9283859,16.150892000000002,-1
662,663,1580694267734,6.7172,0.5825,6.1731997000000005,6.033168,-1.8135886000000003,15.442207999999999,-1
663,664,1580694267744,6.4789,0.73289996,5.8142,5.669661,-1.7290637,15.287639000000002,-1
664,665,1580694267755,5.9275,0.93479997,6.0608,4.828894,-1.5761604,15.836810999999999,-1
665,666,1580694267765,5.1788,1.058,6.6022,4.178571,-1.6843017,16.159645,-1
666,667,1580694267775,4.33,0.77559996,6.6436,3.0527029999999997,-2.2554624,15.555060999999998,-1
667,668,1580694267785,3.4289,0.3247,5.692199700000001,2.2302659,-2.8386134999999997,14.3075,-1
668,669,1580694267795,2.7180998,-0.30159998,4.4841,1.5494028,-3.5050635000000003,13.229017,-1
669,670,1580694267806,2.0702,-0.81939995,3.4262,1.0023756,-3.8888347000000003,12.073442,-1
670,671,1580694267815,1.6141,-1.0691,2.3163,0.69074637,-3.9100281999999997,11.304941,-1
671,672,1580694267825,1.5009999,-0.8904,1.9099,1.2114373,-3.6627739999999998,11.464711999999999,-1
672,673,1580694267835,2.3701,-0.57049996,2.484,2.2919693,-3.0405884,12.498211999999999,-1
673,674,1580694267846,3.3953998,0.29479998,3.5988998,3.2451296000000003,-2.2628174,13.474739000000001,-1
674,675,1580694267856,4.1126,0.8714,4.4514,3.5600629999999995,-1.9966588,14.024506,-1
675,676,1580694267866,4.0945,1.0939,4.7553,3.2834559999999997,-1.9849463999999999,14.030070000000002,-1
676,677,1580694267876,3.7073998,1.0123,4.6349,2.8108695,-2.1801984,13.71641,-1
677,678,1580694267886,3.1488,0.81759995,4.166,2.2497067000000004,-2.3663812,12.987098,-1
678,679,1580694267896,2.5340998,0.62409997,3.2886998999999997,1.432087,-2.5878446,11.764275,d
679,680,1580694267908,1.7572,0.4244,2.2295,0.61453414,-2.7684057,10.734844,-1
680,681,1580694267918,0.8994,0.2148,1.2064999,0.0071059903,-2.8595194999999998,9.815882,-1
681,682,1580694267928,0.3769,0.1294,0.3202,-0.15088259,-2.7803287999999995,9.201089999999999,-1
682,683,1580694267938,0.23279999,0.1946,-0.24069999,-0.10732727,-2.5928726,8.871006,-1
683,684,1580694267948,0.27179998,0.3366,-0.5241,0.14519396,-2.5127625,8.905329,-1
684,685,1580694267958,0.5047,0.42029998,-0.43129998,0.34254320000000005,-2.3668888,9.013327,-1
685,686,1580694267969,0.6752,0.53139997,-0.36519998,0.34661338,-2.4524765,9.07255,-1
686,687,1580694267979,0.5848,0.38079998,-0.30789998,0.06738242,-2.666183,9.090075500000001,-1
687,688,1580694267989,0.118999995,0.1112,-0.3098,-0.74392635,-2.9662054,9.031399,-1
688,689,1580694267999,-0.4766,-0.0835,-0.35209998,-1.0350134,-3.0130837,8.924406,-1
689,690,1580694268009,-0.7873,-0.1431,-0.46359998,-1.031786,-2.9043486,8.783818,-1
690,691,1580694268019,-0.7499,-0.0066,-0.63379997,-0.70939237,-2.6565106,8.6777935,-1
691,692,1580694268029,-0.4813,0.191,-0.715,-0.43245986,-2.5668812,8.621903,-1
692,693,1580694268040,-0.139,0.3048,-0.7848,-0.19681296,-2.561183,8.738185000000001,-1
693,694,1580694268050,0.0422,0.2875,-0.6565,-0.23648967,-2.6017408,8.963326,-1
694,695,1580694268060,0.012399998999999998,0.2574,-0.4279,-0.22108059,-2.7418206,9.185058,-1
695,696,1580694268070,0.019299998999999998,0.0924,0.18689999,-0.24207295,-2.7861326,9.574346,-1
696,697,1580694268080,0.019299998999999998,0.0924,0.18689999,-0.29890170000000005,-2.7927883,9.735141,-1
697,698,1580694268090,-0.0554,0.0692,0.3654,-0.48307330000000004,-2.880148,9.654905,-1
698,699,1580694268100,-0.21169999,0.011399999,0.2775,-0.3997455,-2.8375409,9.391228,-1
699,700,1580694268111,0.1409,0.1934,-0.076799996,-0.13153745,-2.686438,9.301397,-1
700,701,1580694268121,0.4294,0.3148,0.100899994,0.22857922,-2.5719855,9.519882,-1
701,702,1580694268131,0.4294,0.3148,0.100899994,0.3531256,-2.5300295,9.646085000000001,-1
702,703,1580694268141,0.68439996,0.3067,0.6082,0.36814204,-2.6258453999999998,10.053032,-1
703,704,1580694268151,0.51809996,0.1818,0.8477,0.20985657,-2.748601,10.23347,-1
704,705,1580694268161,0.3003,0.07200000000000001,0.8602,0.016462531000000002,-2.8474624,10.232597,-1
705,706,1580694268172,0.0098,-0.013999999499999999,0.74329996,-0.35854608,-2.9637249,10.071477999999999,-1
706,707,1580694268182,0.0098,-0.013999999499999999,0.74329996,-0.42974964,-2.968111,9.864417,-1
707,708,1580694268192,0.0512,0.1162,0.4078,-0.22782266,-2.7813727999999998,9.789958,-1
708,709,1580694268202,0.20109999,0.1531,0.5445,-0.10418608,-2.7618744,9.948311,-1
709,710,1580694268214,0.2843,0.1037,0.6328,-0.03548207,-2.8203982999999995,9.989922,-1
710,711,1580694268224,0.3796,0.10439999400000001,0.6921,0.112441294,-2.8100362000000003,10.139961,-1
711,712,1580694268234,0.5236,0.086799994,0.8792,0.2395351,-2.8452787,10.320063000000001,-1
712,713,1580694268244,0.56009996,0.020299999,1.0665,0.23243867,-2.9126804,10.477304,-1
713,714,1580694268254,0.491,-0.0462,1.3715,0.09882306,-2.9742305,10.842985,-1
714,715,1580694268264,0.42249998,-0.036599997,1.5679,0.06616616,-2.9703424,10.927586999999999,-1
715,716,1580694268274,0.41169998,-0.051999997,1.4879999,0.10483730599999999,-3.006878,10.800224,-1
716,717,1580694268285,0.6139,-0.1021,1.3769999999999998,0.3289729,-2.9835488999999997,10.780889,-1
717,718,1580694268295,0.8147,-0.037299998,1.4613,0.66463995,-2.9003742000000003,10.957044999999999,-1
718,719,1580694268305,1.2045,0.0277,1.683,1.0832996000000001,-2.7638759999999998,11.276010000000001,-1
719,720,1580694268315,1.5798999,0.1432,2.0427,1.2563334,-2.6895025,11.628236,-1
720,721,1580694268325,1.6364,0.1901,2.3536,1.1418235,-2.6518752999999995,11.846788,-1
721,722,1580694268335,1.5066998999999999,0.1739,2.5063999,0.9275999,-2.6962542999999997,11.926696000000002,-1
722,723,1580694268346,1.2548,0.1013,2.4901,0.7644303000000001,-2.7141533,11.849737,-1
723,724,1580694268356,1.1075,0.0605,2.3244,0.7371938,-2.777006,11.615556,-1
724,725,1580694268367,1.2637,-0.0437,2.1183,0.85958546,-2.8678706000000003,11.393594,-1
725,726,1580694268377,1.3234,-0.2279,1.9217999,0.8684056999999998,-3.0413256,11.331977,-1
726,727,1580694268387,1.1883999,-0.5568,1.9418999,0.5622159999999999,-3.328017,11.450519,-1
727,728,1580694268397,0.74689996,-0.80439997,2.1884,0.08567411,-3.515933,11.873986,-1
728,729,1580694268408,0.5031,-0.91499996,2.6404,0.0127658835,-3.4943087,12.465554,-1
729,730,1580694268418,0.51309997,-0.88159996,3.2480998,0.02708321,-3.3419127,13.076383,-1
730,731,1580694268428,0.4843,-0.7567,3.6771998,0.043871354,-3.220211,13.296267000000002,-1
731,732,1580694268438,0.4834,-0.6389,4.0260997000000005,0.09962752,-3.0813759999999997,13.621437,-1
732,733,1580694268448,0.5628,-0.5979,4.1576,0.30876583,-2.9095392,13.738868,-1
733,734,1580694268458,0.78459996,-0.51669997,4.218899700000001,0.6076388,-2.8210685,13.739462,-1
734,735,1580694268468,1.1108,-0.5035,4.1316,0.72271377,-2.6878936,13.390607999999999,-1
735,736,1580694268478,1.0796,-0.4405,3.7391998999999996,0.56818235,-2.5489243999999998,13.003532,-1
736,737,1580694268489,0.863,-0.4042,3.3165,0.36554673,-2.5211997000000004,12.979839,-1
737,738,1580694268499,0.73899996,-0.4978,3.4118,0.31764352,-2.4197621,13.021249000000001,-1
738,739,1580694268509,0.7303,-0.4675,3.4034,0.49750552,-2.2920363,13.107535999999998,-1
739,740,1580694268519,0.9058,-0.43989998,3.5307,0.5839937,-2.1193092,13.528839000000001,-1
740,741,1580694268529,0.9522,-0.3552,3.9627,0.69328415,-1.9861819,13.947087,-1
741,742,1580694268539,1.0733,-0.3448,4.3359,1.0304931,-1.7525269,14.179160999999999,-1
742,743,1580694268549,1.4354,-0.1972,4.493,1.4175014,-1.5307568,14.226261,-1
743,744,1580694268560,1.7637999,-0.1204,4.4929,1.5734215,-1.3536625,13.9135685,-1
744,745,1580694268570,1.8442999,-0.1244,4.1693,1.5033193,-1.2493902,13.446766,-1
745,746,1580694268580,1.7415999,-0.1662,3.6999,1.4556459,-1.2256684,13.128029999999999,-1
746,747,1580694268590,1.6430999,-0.2795,3.2818,1.2419778000000001,-0.9866601,12.645896,-1
747,748,1580694268601,1.3913,-0.249,2.7865999,1.2206503,-0.87586606,12.598098,-1
748,749,1580694268611,1.3536,-0.28039998,2.8562999,1.1881848999999998,-0.75125265,12.657417,-1
749,750,1580694268621,1.2297,-0.2235,3.0558,1.1062743999999998,-0.54943097,12.865195,-1
750,751,1580694268631,1.1978999,-0.306,3.0614,1.119567,-0.48834056,12.880239999999999,-1
751,752,1580694268641,1.1978999,-0.306,3.0614,1.0265474,-0.32408872,12.803041,-1
752,753,1580694268651,0.9174,-0.3381,2.7665,0.8976628000000001,-0.16620548,12.517049,-1
753,754,1580694268662,0.8567,-0.2489,2.4071,0.8831826999999999,0.061052144,12.210572,-1
754,755,1580694268672,0.8567,-0.2489,2.4071,0.88653463,0.33768776,11.744966499999999,-1
755,756,1580694268682,0.6037,-0.1028,1.6473,0.6264764,0.5752501,11.401601,-1
756,757,1580694268692,0.295,-0.0015,1.3641,0.3584024,0.8090199,11.124887,-1
757,758,1580694268703,0.162,0.0581,1.2983999,0.26429114,1.0168175,11.051377,-1
758,759,1580694268713,0.0634,0.1268,1.0769,0.18438226,1.2042451,10.765385,-1
759,760,1580694268723,0.2217,0.115899995,0.6206,0.41026083,1.3341450000000001,10.257287,-1
760,761,1580694268734,0.61109996,0.065299995,0.0079,0.7181839,1.3787249,9.609119,-1
761,762,1580694268744,1.0217,-0.056199998,-0.6532,1.0484016999999999,1.365643,8.750299,-1
762,763,1580694268754,1.0567,-0.14649999,-1.4109,0.8451244000000001,1.3926114,8.027892,-1
763,764,1580694268764,0.6428,-0.3576,-1.9898,0.13696748,1.1713105,7.4529295,-1
764,765,1580694268774,-0.1856,-0.6992,-2.5764,-0.55989844,1.0152469000000002,6.9396415,-1
765,766,1580694268784,-0.742,-1.0139999,-3.2494,-1.2274976999999998,0.7969626999999999,6.1265035,-1
766,767,1580694268794,-1.2543,-1.3222,-3.7494,-1.6681361000000001,0.55193055,5.721002599999999,-1
767,768,1580694268804,-1.3206999,-1.6862999,-4.0139,-1.6047376,0.5173487,5.3969903,-1
768,769,1580694268814,-1.1366,-1.484,-4.6762,-1.3979169,0.7652443,4.4874043,-1
769,770,1580694268824,-0.89659995,-1.5892998999999999,-5.4969,-1.331655,0.6419621,3.9466882000000005,-1
770,771,1580694268834,-1.0299,-2.0579998,-5.8297,-1.7100251,0.13497551,3.5128013999999994,-1
771,772,1580694268844,-1.2966,-2.4637,-6.242999999999999,-2.0252263999999998,-0.16816874,3.128896,-1
772,773,1580694268855,-1.6069,-2.6759999,-6.2953,-2.5157599999999998,-0.26146597,3.3657209999999997,-1
773,774,1580694268865,-2.1713998,-2.8223999,-5.8499,-3.1958666,-0.409782,3.7339298999999997,-1
774,775,1580694268875,-2.9041997999999998,-2.9828,-5.6222,-3.8152275,-0.45833638,3.9458358000000002,-1
775,776,1580694268885,-2.9101,-2.8541,-5.3079,-3.212712,-0.07025546,4.3652906,-1
776,777,1580694268895,-2.037,-2.4778,-4.9363,-2.5313225,0.25982833,4.662574,-1
777,778,1580694268905,-1.3498,-2.1977,-4.4385,-2.1174128,0.44042775,5.1403513,-1
778,779,1580694268916,-1.176,-2.1896,-3.7651,-2.010306,0.4006553,5.8180447,-1
779,780,1580694268926,-1.2109999999999999,-2.307,-3.5526,-2.2244911,0.24290612,5.938788400000001,-1
780,781,1580694268937,-1.5105,-2.4421,-3.3788,-2.6814772999999996,0.24252306,6.180775,-1
781,782,1580694268947,-1.9621998999999999,-2.4292998,-3.1262,-3.0812705,0.2604221,6.42281,-1
782,783,1580694268957,-1.9621998999999999,-2.4292998,-3.1262,-3.203164,0.41394790000000004,6.5373964,-1
783,784,1580694268968,-2.2147,-2.1678998,-2.7273998,-2.8999145,0.9004593000000001,6.97951,-1
784,785,1580694268979,-1.8574,-1.7742,-2.3265998,-2.4174829,1.3212641,7.1958303,-1
785,786,1580694268989,-1.3634,-1.3816998999999999,-2.1803,-1.829352,1.6722925,7.0599837,-1
786,787,1580694268999,-0.8736,-1.147,-2.2979,-1.4107306999999998,1.8342744999999998,6.7948785,-1
787,788,1580694269010,-0.4366,-1.0101,-2.5521,-1.1201895,2.0235696,6.4970207,-1
788,789,1580694269020,-0.12419999400000001,-0.8434,-2.8353999,-1.1345356000000002,2.095913,6.6043673,-1
789,790,1580694269030,-0.5839,-0.7392,-2.151,-1.612447,2.1822095,7.168872,-1
790,791,1580694269040,-0.5839,-0.7392,-2.151,-1.9160892,2.2616875,7.814722,-1
791,792,1580694269050,-0.9625,-0.6157,-0.7747,-2.037408,2.3427455000000004,8.640711999999999,-1
792,793,1580694269061,-1.0819,-0.5907,-0.375,-2.1598763,2.3759387000000003,8.933283,-1
793,794,1580694269071,-0.9508,-0.65209997,-0.47329998,-1.8872056000000001,2.3716578,8.743146000000001,-1
794,795,1580694269081,-0.3187,-0.5033,-0.7755,-1.240436,2.602478,8.4618845,-1
795,796,1580694269091,0.2789,-0.3053,-0.84169996,-0.66235113,2.7976343999999997,8.439138999999999,-1
796,797,1580694269101,0.68689996,-0.1528,-0.7219,-0.29892087,3.0306667999999997,8.558132,-1
797,798,1580694269112,0.88589996,0.11109999599999999,-0.5141,-0.18601032,3.2753732,8.802043,-1
798,799,1580694269122,0.68619996,0.1418,-0.1104,-0.48355213,3.2956185,9.173097,-1
799,800,1580694269132,0.2235,-0.07279999599999999,-0.00049999997,-0.9838445,3.089497,9.172578999999999,-1
800,801,1580694269142,-0.2854,-0.2511,-0.35979998,-1.4835336000000001,2.9768355,8.782621,-1
801,802,1580694269152,-0.2854,-0.2511,-0.35979998,-1.7243233,2.8931725,8.671118,-1
802,803,1580694269163,-0.7758,-0.44759998,-0.6368,-1.9634368000000002,2.851341,8.46902,-1
803,804,1580694269173,-0.71559995,-0.28939998,-0.84959996,-1.8411028000000003,3.0745668,8.306463,-1
804,805,1580694269185,-0.2505,-0.0022,-0.8969,-1.2605758999999999,3.4629733999999996,8.274514,-1
805,806,1580694269195,0.1927,0.24419999,-0.8164,-0.90723,3.6661165000000002,8.362612,-1
806,807,1580694269205,0.4833,0.3463,-0.70199996,-0.5257954,3.8158595999999996,8.484169999999999,-1
807,808,1580694269216,0.8032,0.4671,-0.6166,-0.32354283,3.8797846,8.543019000000001,-1
808,809,1580694269226,0.86759996,0.39409998,-0.49289998,-0.51806694,3.706521,8.780927,-1
809,810,1580694269236,0.5097,0.1964,-0.20359999,-1.0535158000000002,3.5067968,9.071850999999999,-1
810,811,1580694269246,0.0033,0.019,0.0166,-1.4436653,3.343292,9.265322,-1
811,812,1580694269257,-0.2685,-0.1488,0.2074,-1.7358441000000002,3.2858120000000004,9.401914999999999,-1
812,813,1580694269267,-0.60649997,-0.1589,0.3002,-1.9055259999999998,3.349354,9.315658,-1
813,814,1580694269277,-0.6252,-0.1393,0.19749999,-1.7499411,3.3270593,9.126899,-1
814,815,1580694269287,-0.4543,-0.1494,-0.0221,-1.6217461000000002,3.4255087,8.901767,-1
815,816,1580694269297,-0.2933,-0.0725,-0.2217,-1.3682097,3.4437813999999998,8.641277,-1
816,817,1580694269308,-0.0287,-0.0464,-0.4899,-1.1447827,3.5535507000000006,8.580043,-1
817,818,1580694269318,0.19029999,0.0581,-0.4746,-0.92043644,3.683987,8.781175,-1
818,819,1580694269328,0.41419998,0.16489999,-0.23529999,-0.80537117,3.7476919,9.106527999999999,-1
819,820,1580694269338,0.49019998,0.1961,0.1205,-0.9042038,3.7178507000000005,9.351465,-1
820,821,1580694269349,0.3533,0.1601,0.3094,-1.1828313999999998,3.6695354,9.236955,-1
821,822,1580694269360,0.0766,0.12419999400000001,0.1169,-1.4358123999999999,3.6014442000000004,8.853844,-1
822,823,1580694269370,-0.1149,0.048899997,-0.20199999,-1.6008687,3.547594,8.623472999999999,-1
823,824,1580694269380,-0.22049999,0.0491,-0.34059998,-1.5622454,3.6154459,8.711159,-1
824,825,1580694269390,-0.22049999,0.0491,-0.34059998,-1.524417,3.6062423999999997,9.082241,-1
825,826,1580694269400,-0.17119999,0.0368,0.034399997,-1.5175505,3.5685767999999998,9.404865,-1
826,827,1580694269411,-0.18159999,0.067,0.667,-1.5294543999999999,3.6587233999999995,9.698537,-1
827,828,1580694269421,-0.093399994,0.1337,0.5834,-1.4621773,3.7260864000000002,9.61587,-1
828,829,1580694269431,0.030299998999999998,0.1856,0.46199998,-1.3056731000000001,3.840242,9.443048,-1
829,830,1580694269441,0.13419999,0.2342,0.1458,-1.1822186000000001,3.8606597999999996,9.137845,-1
830,831,1580694269451,0.4245,0.2531,0.0848,-0.87891144,3.9236943999999996,9.105082000000001,-1
831,832,1580694269461,0.55149996,0.3629,0.1801,-0.8058883000000001,4.0366144,9.219209,-1
832,833,1580694269472,0.4229,0.2812,0.3927,-1.013523,3.9301394999999997,9.425685000000001,-1
833,834,1580694269482,0.039699998,0.1143,0.4781,-1.4404953999999999,3.8057272000000006,9.488527000000001,-1
834,835,1580694269492,-0.32729998,0.0643,0.46679997,-1.795795,3.7694983,9.435788,d
835,836,1580694269502,-0.32729998,0.0643,0.46679997,-1.9855113999999998,3.738297,9.281707,-1
836,837,1580694269512,-0.778,-0.035,-0.1083,-2.2238302000000005,3.7148817000000003,8.85145,-1
837,838,1580694269523,-0.92859995,-0.1959,-0.73069996,-2.3788788,3.573978,8.218873,-1
838,839,1580694269533,-1.0397,-0.2926,-1.1956999,-2.5007915,3.5148892,7.6888255999999995,-1
839,840,1580694269543,-1.1688,-0.3293,-1.1130999,-2.6284888,3.5562515,7.8971976999999995,-1
840,841,1580694269553,-1.2645998999999999,-0.0677,-0.68009996,-2.6777422000000004,3.9612737,8.355333,-1
841,842,1580694269563,-1.2731999,0.2538,-0.5124,-2.7009947,4.3470564000000005,8.304872999999999,-1
842,843,1580694269573,-1.4239,0.5743,-0.7747,-2.9244215000000002,4.5077934,7.945158,-1
843,844,1580694269584,-1.8266,0.31759998,-1.2218,-3.4637300000000004,4.0446973,7.383909700000001,-1
844,845,1580694269594,-2.4917,-0.32029998,-1.9224,-4.213890599999999,3.4389644,6.571059,-1
845,846,1580694269604,-3.2619998,-0.9418,-2.8562999,-4.9578074999999995,2.8551815,5.5495777,-1
846,847,1580694269614,-3.8544,-1.5198,-3.8084998,-5.4889755,2.3021111000000003,4.5660680000000005,-1
847,848,1580694269624,-4.383,-2.2484,-4.8887,-5.998079,1.6247818,3.5317922,-1
848,849,1580694269635,-4.8945,-2.8852,-5.7271,-6.4046426,1.0996377,2.8773131000000003,-1
849,850,1580694269645,-5.3138,-3.4801,-6.1405997,-6.8885303,0.5132594,2.5960902999999997,-1
850,851,1580694269655,-5.638099700000001,-3.7749998999999996,-6.1696,-6.998788,0.30925423,2.7412174,-1
851,852,1580694269665,-5.6528,-3.9002998,-5.9305997,-6.841144,0.2611308,2.952137,-1
852,853,1580694269675,-5.3585,-3.9701,-5.7834997,-6.380011,0.17388608,2.7848012000000004,-1
853,854,1580694269686,-5.000099700000001,-4.0607,-6.2932997,-6.029844799999999,0.109664015,2.2205453,-1
854,855,1580694269696,-4.4607997,-4.0982,-7.134299799999999,-5.2382550000000005,0.04884171,1.0411042,-1
855,856,1580694269706,-3.9210000000000003,-4.1710997,-8.2871,-4.6880383000000005,-0.19233102,-0.44220904,-1
856,857,1580694269716,-3.4682998999999994,-4.5218997000000005,-10.0667,-4.461336599999999,-0.49801308,-2.1357619999999997,-1
857,858,1580694269726,-3.6571,-4.9665,-11.9473,-4.9583726,-1.1839136000000001,-3.4844735,-1
858,859,1580694269736,-4.3196,-5.615,-12.1921,-5.366862,-1.7778958999999999,-2.9671244999999997,-1
859,860,1580694269746,-4.691,-6.045,-11.5404,-5.406797,-2.203604,-2.1947262000000003,-1
860,861,1580694269756,-4.6769,-6.4402,-10.667399000000001,-4.8375998,-2.7080815,-1.0089549,-1
861,862,1580694269766,-3.9016,-6.7514997,-9.4532995,-3.7643843,-2.979852,-0.071749434,-1
862,863,1580694269776,-2.3707,-6.9491997,-8.7457,-1.7457752,-3.3684790000000002,0.6907368,-1
863,864,1580694269786,-0.9023,-7.0804,-8.158,-0.55670935,-3.6808362,1.2016593999999998,-1
864,865,1580694269796,0.2865,-7.3543997,-7.962999999999999,0.34524390000000005,-4.0586123,0.99114203,-1
865,866,1580694269806,0.3755,-7.2963996,-8.3448,0.22835897,-4.079231299999999,1.2196639,-1
866,867,1580694269817,0.24919999,-7.0698,-7.7056,0.45534843,-3.8956342000000004,2.1611118,-1
867,868,1580694269827,0.66029996,-6.6452,-6.9565,1.5586733,-3.7539358,2.8782997000000003,-1
868,869,1580694269837,2.0068998,-6.31,-6.2521,3.5715647000000006,-3.6369263999999997,3.7291799,-1
869,870,1580694269847,4.0824,-5.9228997,-5.5341997,5.715649,-3.4578402,4.0757639999999995,-1
870,871,1580694269857,6.0202,-5.6268,-5.5692,7.353944,-3.7610705,3.907749,-1
871,872,1580694269868,6.8669,-5.6786,-5.6923,6.9120607000000005,-4.1058455,4.1643977,-1
872,873,1580694269879,6.1958,-5.7462,-5.3638,5.7068863,-4.8059959999999995,5.38229,-1
873,874,1580694269889,4.9948,-6.1643996,-3.9534,4.857031,-5.631747,8.135717,-1
874,875,1580694269900,4.4094,-6.4547,-1.6319,5.6176205,-5.999036299999999,10.915386,-1
875,876,1580694269910,7.5559997999999995,-6.1618,3.6074,7.9720693,-6.1752687,13.414147,-1
876,877,1580694269920,9.007999,-5.9842,4.2914,9.420705,-6.381974700000001,14.096848499999998,-1
877,878,1580694269930,9.007999,-5.9842,4.2914,9.748548,-6.9249315000000005,14.060792000000001,-1
878,879,1580694269940,9.4106,-6.2397,4.3518,10.124025,-6.976311,14.868452,-1
879,880,1580694269950,9.797299,-5.2446,6.0045,10.104691,-6.758611,15.701346,-1
880,881,1580694269960,9.370299000000001,-5.3915997,8.1785,9.625658,-7.2788520000000005,17.804443,-1
881,882,1580694269971,8.776199,-5.3201,10.4084,8.982967,-7.5947046,19.956417000000002,-1
882,883,1580694269981,8.776199,-5.3201,10.4084,8.5301485,-7.863641,20.775217,-1
883,884,1580694269991,8.250299,-5.316,11.4046,8.147966,-8.677487,20.974184,-1
884,885,1580694270001,8.0399,-5.696399700000001,11.621799000000001,9.444015,-8.581097,21.472932999999998,-1
885,886,1580694270012,9.3624,-5.3059998,12.2233,11.695148,-7.6109467,22.384722,-1
886,887,1580694270022,13.3403,-2.4459999,14.617599499999999,13.545924,-5.9424567,24.032785,-1
887,888,1580694270032,13.2837,-1.3397,15.9205,13.078183000000001,-5.3022184,25.093245,-1
888,889,1580694270042,11.9284,-0.8326,17.044898999999997,11.628178,-5.1201053,25.986932999999997,-1
889,890,1580694270053,10.3386,-0.7561,17.328,10.023603,-5.3087206,26.024973000000003,-1
890,891,1580694270063,8.9718,-0.8991,17.0691,8.813774,-5.561271,25.680265,-1
891,892,1580694270073,8.7568,-0.5944,17.2763,8.880822,-5.211171,25.985046,-1
892,893,1580694270083,9.5615,0.6904,18.0868,9.871649,-3.8966589999999997,26.822405,-1
893,894,1580694270093,10.8186,2.1429,19.098,11.111125999999999,-2.5678389999999998,27.711239000000003,-1
894,895,1580694270103,11.480599,3.1583997999999998,19.1775,11.587371000000001,-1.6700324,27.468897,-1
895,896,1580694270113,11.160299,3.4315,17.7003,11.293967,-1.5296745,26.181381,-1
896,897,1580694270124,9.917,2.4373,15.2332,9.233449,-3.0551546000000003,22.812681,-1
897,898,1580694270134,7.1780996,0.72999996,12.929,6.125795,-4.791286,20.665907,-1
898,899,1580694270144,3.3746998,-1.2412,10.992,2.2967196,-6.466576,19.135551,-1
899,900,1580694270154,-0.3963,-2.655,9.9107,-0.80844533,-7.456386599999999,18.37453,-1
900,901,1580694270164,-2.9027,-3.5140998,9.1714,-2.0409994,-7.784995599999999,17.973446,-1
901,902,1580694270175,-4.8444,-4.0011,8.4143,-4.424734,-8.132806,17.0301,-1
902,903,1580694270185,-6.3592997,-4.476,7.6310997,-5.298943,-8.315091,16.218246,-1
903,904,1580694270195,-6.9976997,-4.7648997,6.499,-5.6913624,-8.313042,15.074114000000002,-1
904,905,1580694270205,-7.7577,-5.0291,5.3308,-6.869051,-8.478759,13.797630999999999,-1
905,906,1580694270215,-9.1989,-5.6327,4.2346,-8.040217,-8.912349,13.016815,-1
906,907,1580694270225,-10.707,-6.5415998,3.2403998,-9.57808,-9.697389,11.960637,-1
907,908,1580694270236,-12.0681,-7.4742,2.3602,-11.033755000000001,-10.334992999999999,11.125616,-1
908,909,1580694270246,-13.854000000000001,-8.4299,1.2429,-12.139972,-10.751622,10.2499695,-1
909,910,1580694270256,-15.9057,-9.3969,-0.6719,-14.691329000000001,-11.605577,7.714683,-1
910,911,1580694270266,-17.3725,-10.1781,-2.2314,-15.394669,-11.87774,6.6124597000000005,-1
911,912,1580694270276,-17.533699,-10.3854,-3.0562,-14.821784,-11.493825,6.3954873,-1
912,913,1580694270286,-16.4512,-10.0209,-2.9289,-13.253495999999998,-10.892565,6.988224499999999,-1
913,914,1580694270297,-14.5133,-9.5261,-2.3263,-11.741529,-10.241906,7.336724799999999,-1
914,915,1580694270307,-12.806399,-8.7473,-2.2386,-10.145209,-9.356435000000001,7.152839999999999,-1
915,916,1580694270317,-11.7058,-8.3351,-2.6181,-9.314891000000001,-8.830706,6.4424043,-1
916,917,1580694270327,-11.076099000000001,-8.0282,-3.3567,-8.856985,-8.492367,5.6067224,-1
917,918,1580694270337,-10.3053,-7.7159996,-4.4746,-7.7370353000000005,-7.7729482999999995,4.204754400000001,-1
918,919,1580694270347,-9.2727995,-7.2049,-5.6580997,-6.9523399999999995,-7.2516446,3.4165642,-1
919,920,1580694270357,-8.3169,-6.7296996,-6.5255,-5.891422,-6.784258,2.7227626,-1
920,921,1580694270368,-7.2953,-6.5172,-7.029,-4.73032,-6.38932,2.412043,-1
921,922,1580694270380,-6.0353,-6.1510997000000005,-7.3268,-3.3720797999999994,-5.775849,2.1822956000000002,-1
922,923,1580694270390,-4.5497,-5.544699700000001,-7.5463,-1.3744154,-5.045569400000001,2.2673376,-1
923,924,1580694270400,-2.7572,-4.9856,-7.4514,0.053812075,-4.526545,2.4717164,-1
924,925,1580694270410,-1.2702999,-4.4762,-7.2572,1.2588903999999999,-3.8338447,2.7906241,-1
925,926,1580694270421,1.2050999,-3.2496,-6.572499799999999,2.3467102000000004,-3.3299992,3.176694,-1
926,927,1580694270431,2.1132,-2.733,-6.415,3.1729875,-2.8378665,3.3460596,-1
927,928,1580694270441,2.8026,-2.2935,-6.3835998,3.9079980000000005,-2.3991625,3.424283,-1
928,929,1580694270451,3.7322998,-1.9767,-6.125,4.636994400000001,-2.1970918,3.6422224,-1
929,930,1580694270461,5.2091,-1.4239,-5.5116,6.0402164,-1.7324157,4.2661514,-1
930,931,1580694270472,7.1289,-0.5592,-4.1408997,8.285278,-0.79687655,6.0521874,-1
931,932,1580694270482,9.0219,0.52599996,-1.6101999,9.688224,-0.037234623,8.168528,-1
932,933,1580694270492,9.0219,0.52599996,-1.6101999,10.406963000000001,0.8474133,11.077856,-1
933,934,1580694270502,9.4746,2.0421999,3.7073998,9.709886000000001,1.1415266000000002,13.854575,-1
934,935,1580694270512,8.460199000000001,1.9509999999999998,5.1008,8.748001,0.91858816,14.857151000000002,-1
935,936,1580694270522,7.228399799999999,1.5319999999999998,5.3461,7.41242,0.37789120000000004,15.084132,-1
936,937,1580694270532,6.2704997,1.2411,4.8329,6.359143700000001,0.031900343,14.574472,-1
937,938,1580694270542,6.2704997,1.2411,4.8329,5.799704599999999,-0.11915463,13.440675,-1
938,939,1580694270552,5.6723,1.1829,2.4607,5.6913047,-0.029812599,11.982731,-1
939,940,1580694270563,5.7604,1.3568,1.6636,5.7465152999999995,0.18159541,11.280472999999999,-1
940,941,1580694270573,5.704,1.4027,1.1018,5.6063585,0.21559308,10.759886999999999,-1
941,942,1580694270583,5.417000000000001,1.3012999,0.8846,5.350543,0.12904747,10.669377,-1
942,943,1580694270593,5.417000000000001,1.3012999,0.8846,5.264140599999999,0.13576081,11.139253,-1
943,944,1580694270603,5.120899700000001,1.3416,1.9369999,4.782532700000001,0.07843404,11.900408,-1
944,945,1580694270614,4.476,1.1879,2.47,3.9896882000000007,-0.11126334,12.350126,-1
945,946,1580694270624,3.6952,1.0073,2.855,3.0094635,-0.37098634,12.737335,-1
946,947,1580694270634,2.832,0.7535,2.9536,2.2633348,-0.57686853,12.519252,-1
947,948,1580694270644,1.9153999,0.4687,2.2745,1.3967868,-0.8786719999999999,11.577544999999999,-1
948,949,1580694270654,1.1507,0.1918,1.2199,0.5219743,-1.1198831,10.35656,-1
949,950,1580694270665,0.4238,-0.1077,0.2226,0.116607204,-1.2774598999999998,9.785438000000001,-1
950,951,1580694270675,-0.0145,-0.2933,-0.7159,-0.20646639,-1.3821918,8.769338000000001,-1
951,952,1580694270685,0.0466,-0.3363,-1.222,0.029008147999999997,-1.2708327,8.464911,-1
952,953,1580694270695,0.3466,-0.1898,-1.2852,0.45676579999999994,-1.0674118000000001,8.632092,-1
953,954,1580694270705,0.67429996,-0.077,-0.9837,0.7080612,-0.9601994,9.026906,-1
954,955,1580694270715,0.7811,0.0079,-0.583,0.58126426,-0.94322926,9.4046545,-1
955,956,1580694270725,0.57559997,-0.0297,-0.26029998,0.3704692,-0.9963040000000001,9.574221000000001,-1
956,957,1580694270735,0.1893,-0.12979999,-0.21239999,-0.12138602,-1.0742687,9.495519,-1
957,958,1580694270745,-0.2021,-0.198,-0.30159998,-0.40424657,-1.113007,9.395355,d
958,959,1580694270755,-0.3868,-0.2154,-0.4308,-0.39517736,-1.0587351,9.262688,-1
959,960,1580694270766,-0.319,-0.1567,-0.5503,-0.23938186,-0.9218156,9.163127000000001,-1
960,961,1580694270776,-0.1025,0.0404,-0.6304,0.09960837,-0.6610008,9.178804,-1
961,962,1580694270786,0.2472,0.26119998,-0.5826,0.44366473,-0.4876893,9.16485,-1
962,963,1580694270796,0.46899998,0.37,-0.6421,0.5219168,-0.46148714,9.077232,-1
963,964,1580694270806,0.45479998,0.3566,-0.76989996,0.36672467,-0.46812390000000004,8.957934,-1
964,965,1580694270816,0.3082,0.3275,-0.8386,0.24312639,-0.5250100999999999,8.977194,-1
965,966,1580694270827,0.1901,0.3004,-0.7795,0.08957188,-0.47748999999999997,9.066037,-1
966,967,1580694270837,0.058199997999999996,0.35169998,-0.70089996,-0.119030125,-0.50840396,9.115655,-1
967,968,1580694270847,-0.1372,0.32389998,-0.6419,-0.3425145,-0.5575713000000001,9.190632,-1
968,969,1580694270857,-0.3671,0.28489998,-0.6027,-0.46454218,-0.5582704,9.054114,-1
969,970,1580694270867,-0.44309998,0.2647,-0.74,-0.33105105,-0.5492585999999999,9.098819,-1
970,971,1580694270877,-0.2828,0.2871,-0.64169997,-0.09146808,-0.4951688,9.305008,-1
971,972,1580694270888,0.010199999,0.3848,-0.3761,0.25804704,-0.42449197,9.675141,-1
972,973,1580694270899,0.2996,0.43919998,-0.012,0.38168362,-0.41921514,10.018613,-1
973,974,1580694270909,0.3759,0.46609998,0.264,0.2901581,-0.37026808,10.030805,-1
974,975,1580694270919,0.2678,0.5306,0.23600000000000002,0.07784028,-0.38523662,10.030536999999999,-1
975,976,1580694270929,0.022599999,0.48569998,0.2667,-0.24915978,-0.60220873,10.005609,-1
976,977,1580694270939,-0.29279998,0.2816,0.1893,-0.54389554,-0.7510611,9.876847999999999,-1
977,978,1580694270950,-0.5214,0.1546,0.0923,-0.4973523,-0.9077280000000001,10.034004,-1
978,979,1580694270960,-0.1488,0.049999997000000004,0.3779,-0.19836439,-0.89661896,10.1467705,-1
979,980,1580694270970,0.1362,0.0762,0.4766,0.11442369,-0.87182456,10.248687,-1
980,981,1580694270980,0.2399,0.0755,0.5854,0.21016303,-0.8863622,10.355555,-1
981,982,1580694270990,0.2399,0.0755,0.5854,0.23050417,-0.8708382,10.348219,-1
982,983,1580694271000,0.2807,0.096599996,0.5767,0.20441695,-0.95284444,10.454761,-1
983,984,1580694271011,0.24419999,0.0095999995,0.9723,0.17113754,-0.98726344,10.743501,-1
984,985,1580694271021,0.3649,-0.0145,1.327,0.27046818,-1.0284724,11.095104,-1
985,986,1580694271031,0.4587,-0.062299997,1.8381,0.35668817,-1.0840371000000002,11.598442,-1
986,987,1580694271041,0.4587,-0.062299997,1.8381,0.37463509999999994,-1.1532582,12.00741,-1
987,988,1580694271051,0.429,-0.2104,2.5047998,0.344698,-1.2328894,12.272161500000001,-1
988,989,1580694271061,0.4779,-0.2042,2.4347,0.39797378,-1.2126249,12.196763,-1
989,990,1580694271072,0.4779,-0.2042,2.4347,0.52076757,-1.2267122,11.9832,-1
990,991,1580694271082,0.71819997,-0.115499996,1.9893999,0.7135391,-1.073809,11.766562,-1
991,992,1580694271092,1.061,-0.012399998999999998,2.194,1.0549331,-0.926422,12.053024,-1
992,993,1580694271102,1.4585999,0.1765,2.7623,1.4140059999999999,-0.74553525,12.697878999999999,-1
993,994,1580694271113,1.6416,0.2534,3.6841,1.5490294,-0.69441426,13.626454999999998,-1
994,995,1580694271123,1.6652,0.1933,4.5766,1.5326722,-0.7629459,14.530966000000001,-1
995,996,1580694271133,1.5654999,0.1175,5.4096,1.3833027,-0.8352700000000001,15.4648,-1
996,997,1580694271144,1.4830999,0.1397,6.0552998,1.3721649999999999,-0.6579649000000001,15.982005,-1
997,998,1580694271154,1.5878999,0.45209998,6.2388997,1.5485889,-0.33632788,15.950985000000001,-1
998,999,1580694271164,1.7897999,0.6004,6.0583,1.6334585,-0.19842187,15.750447,-1
999,1000,1580694271174,1.7795,0.62509996,5.866699700000001,1.6218226,-0.16027744,15.649392,-1
1000,1001,1580694271184,1.729,0.5469,5.7135997000000005,1.5483972,-0.19040607,15.443903,-1
1001,1002,1580694271195,1.5101999,0.3092,5.5111,1.3216377000000001,-0.37559277,15.296095000000001,-1
1002,1003,1580694271205,1.3133,-0.033999998,5.5639997,1.1748444,-0.5880159,15.382468,-1
1003,1004,1580694271215,1.1141,-0.2065,5.5982,0.98703355,-0.59007496,15.353556,-1
1004,1005,1580694271225,0.96459997,-0.2777,5.4764,0.8632151,-0.57616943,15.243403,-1
1005,1006,1580694271235,0.6886,-0.30699998,5.3069,0.48210603,-0.43524670000000004,14.905342000000001,-1
1006,1007,1580694271245,0.3179,-0.34289998,4.923,0.1198729,-0.41607395,14.474932,-1
1007,1008,1580694271256,-0.1445,-0.47129998,4.5016,-0.34261027,-0.39457402,14.164001999999998,-1
1008,1009,1580694271266,-0.7114,-0.5555,4.0624,-0.8278766,-0.31251994,13.563296,-1
1009,1010,1580694271276,-0.94689995,-0.5972,3.5272,-0.8996548000000001,-0.1500494,12.992863999999999,-1
1010,1011,1580694271286,-0.9558,-0.5546,2.9942,-0.76932406,0.14137281,12.500405,-1
1011,1012,1580694271296,-0.7509999999999999,-0.2739,2.4259,-0.44594399999999995,0.82700515,11.722232,-1
1012,1013,1580694271306,-0.41079998,0.24049999,1.6136,-0.15320976,1.2718766000000001,11.029387,-1
1013,1014,1580694271317,-0.0931,0.60789996,0.6509,0.07953538,1.7116531000000004,9.841155,-1
1014,1015,1580694271327,0.0039999996999999995,0.7355,-0.3171,0.17130992,1.9122968,8.8540745,-1
1015,1016,1580694271337,0.1739,0.74469995,-0.9806,0.39587647,1.913197,8.690033,-1
1016,1017,1580694271347,0.49929997,0.6087,-0.987,0.5090169,1.7655418,9.000839,-1
1017,1018,1580694271357,0.4421,0.3473,-0.6604,-0.029621063,1.667705,9.348313000000001,-1
1018,1019,1580694271367,-0.0879,0.21329999,-0.3047,-0.72316384,1.6701281000000003,9.52694,-1
1019,1020,1580694271377,-0.72279996,0.1406,-0.1642,-1.2978296999999999,1.7294564,9.252976,-1
1020,1021,1580694271388,-1.2116,0.11229999,-0.5516,-1.4462415000000002,1.7067403,8.706638,-1
1021,1022,1580694271398,-1.1463,-0.0801,-1.2506,-0.8718055,1.5732586000000002,7.861735,-1
1022,1023,1580694271408,-0.5143,-0.22989999,-1.879,-0.19527109,1.7028903999999998,7.5869860000000005,-1
1023,1024,1580694271418,0.3997,-0.16579999,-2.0256,0.65745735,1.8246785,7.762701,-1
1024,1025,1580694271428,0.9237,-0.1691,-1.8283,0.6567295999999999,1.9494165,7.721367999999999,-1
1025,1026,1580694271438,0.85109997,-0.1715,-1.8849,0.49662447,1.9411228999999999,7.573262,-1
1026,1027,1580694271448,0.5798,-0.3099,-2.0681,-0.030032866000000002,1.7127928,7.334273,-1
1027,1028,1580694271458,0.1401,-0.6915,-2.2503998,-0.5808333000000001,1.2400146,6.9368544000000005,-1
1028,1029,1580694271468,-0.3848,-1.2595,-2.6963,-1.0695665,0.87113506,6.328439700000001,-1
1029,1030,1580694271478,-0.8203,-1.6904,-3.2587,-1.3018903,0.9633502,5.802434,-1
1030,1031,1580694271489,-0.9385,-1.6446999,-3.6645,-1.2174323999999999,1.066751,5.751275,-1
1031,1032,1580694271499,-0.82559997,-1.6089,-3.6501,-1.3905907,1.0598268999999998,5.8087163,-1
1032,1033,1580694271509,-1.0333999,-1.7118,-3.6273,-1.8005544999999998,0.97466993,5.514105000000001,-1
1033,1034,1580694271519,-1.3405,-1.8623999,-3.8788,-1.9255702000000001,0.7668628000000001,5.1487110000000005,-1
1034,1035,1580694271529,-1.4252,-2.1901,-4.3061,-1.6951618000000002,0.68911827,4.451683,-1
1035,1036,1580694271540,-1.1715,-2.2914,-4.89,-0.9600366,1.0514663,3.7855105000000004,-1
1036,1037,1580694271550,-0.4109,-1.9956,-5.5339,-0.15982734,1.5696195,3.7715285000000005,-1
1037,1038,1580694271560,0.71989995,-1.0582,-5.0783997,0.14105679,2.0868053,4.209246,-1
1038,1039,1580694271571,0.71989995,-1.0582,-5.0783997,-0.060515843,2.0508924,4.733250599999999,-1
1039,1040,1580694271581,0.0337,-1.3962,-4.3626,-0.7911878999999999,1.6499593000000001,4.9379644,-1
1040,1041,1580694271591,-0.326,-1.8851,-4.2461,-1.1166652,1.1909813,5.069502,-1
1041,1042,1580694271601,-0.326,-1.8851,-4.2461,-1.3983478999999999,1.0031992,5.1900167,-1
1042,1043,1580694271611,-1.0575,-2.2141,-3.8579998,-1.8707238000000002,1.0473961999999999,5.4423943,-1
1043,1044,1580694271622,-1.2830000000000001,-1.9009999,-3.5584998,-2.0941316999999997,1.4302195,5.7463809999999995,-1
1044,1045,1580694271631,-1.4488,-1.5331,-3.2805998,-2.2537482000000004,1.7874631999999997,5.9940657999999996,-1
1045,1046,1580694271641,-1.4681,-1.2402999,-3.092,-2.2304382,2.057328,6.179281,-1
1046,1047,1580694271652,-1.4681,-1.2402999,-3.092,-1.7710963,2.1647892000000004,6.356184,-1
1047,1048,1580694271662,-0.5517,-1.0626,-2.7177,-1.2836177,2.1972067,6.581488,-1
1048,1049,1580694271672,-0.098699994,-1.0306,-2.2281,-0.8856630999999999,2.2157092,7.107551600000001,-1
1049,1050,1580694271682,0.0383,-1.0057,-1.7788999,-0.7853460999999999,2.2552326000000003,7.523769000000001,-1
1050,1051,1580694271692,0.010799999,-0.87079996,-1.4380000000000002,-0.8478346999999999,2.3946805,7.877028999999999,-1
1051,1052,1580694271703,-0.1716,-0.76339996,-1.1272,-1.054914,2.478746,8.148444999999999,-1
1052,1053,1580694271713,-0.46899998,-0.67429996,-1.0224,-1.4161608,2.5863411,8.31035,-1
1053,1054,1580694271723,-0.6907,-0.58489996,-0.78069997,-1.5468937,2.6340911,8.520897,-1
1054,1055,1580694271733,-0.7123,-0.54469997,-0.5198,-1.533534,2.6374812000000003,8.876646000000001,-1
1055,1056,1580694271743,-0.7123,-0.54469997,-0.5198,-1.2664657,2.6412547,9.303158999999999,-1
1056,1057,1580694271753,-0.17449999,-0.4632,0.2853,-0.8313243,2.7626503,9.684038000000001,-1
1057,1058,1580694271764,0.265,-0.2757,0.5658,-0.42883983,3.021473,9.909094,-1
1058,1059,1580694271774,0.5854,0.0871,0.7395,-0.13900736,3.345399,10.021036,-1
1059,1060,1580694271784,0.78459996,0.29009998,0.7678,-0.14092271,3.4811885,10.005599,-1
1060,1061,1580694271794,0.5924,0.4193,0.67039996,-0.37380192,3.6234230000000003,9.87973,-1
1061,1062,1580694271804,0.4003,0.5125,0.49679998,-0.53486466,3.6459956,9.651017,-1
1062,1063,1580694271815,0.2003,0.44619998,0.17629999,-0.85412663,3.5559354,9.293161,-1
1063,1064,1580694271825,-0.1796,0.266,-0.1718,-1.206218,3.3248184000000003,9.025805,-1
1064,1065,1580694271835,-0.44669998,0.0263,-0.2947,-1.3806307,3.1151917,8.908911,-1
1065,1066,1580694271845,-0.479,-0.0924,-0.3304,-1.2928977,3.1143104999999998,8.927069,-1
1066,1067,1580694271855,-0.3532,-0.0401,-0.2401,-1.0979521,3.2563155,9.220502,-1
1067,1068,1580694271865,-0.096,0.13589999,0.16229999,-0.81989914,3.4355260999999997,9.605653,-1
1068,1069,1580694271876,0.1656,0.2868,0.46559998,-0.6070163000000001,3.5448265,9.756554,-1
1069,1070,1580694271886,0.3403,0.3876,0.5144,-0.5250100999999999,3.6004962999999996,9.719989,-1
1070,1071,1580694271896,0.396,0.4066,0.4466,-0.53626287,3.5778760000000003,9.580417,-1
1071,1072,1580694271906,0.3205,0.34329998,0.2817,-0.7481976,3.435143,9.468033,-1
1072,1073,1580694271918,0.1118,0.2171,0.22559999,-0.93866116,3.3363487999999997,9.485511,-1
1073,1074,1580694271928,-0.0459,0.0969,0.24839999,-0.92881614,3.162185,9.460094,-1
1074,1075,1580694271938,-0.0447,-0.10529999400000001,0.2032,-0.97512007,3.0682845000000003,9.361329,-1
1075,1076,1580694271948,-0.13319999,-0.1815,0.1192,-1.0113683,3.0796327999999997,9.280366,-1
1076,1077,1580694271959,-0.16679999,-0.1858,0.0641,-0.9551045,3.150693,9.373702,-1
1077,1078,1580694271969,-0.1121,-0.1249,0.1547,-0.8663274999999999,3.1365383,9.554186999999999,-1
1078,1079,1580694271980,0.0411,-0.096599996,0.5773,-0.5157301999999999,3.4442985,10.360275,-1
1079,1080,1580694271990,0.3489,0.16939999,1.1371,-0.34429577,3.5511181000000005,10.759647,-1
1080,1081,1580694272000,0.5352,0.2753,1.5417,-0.41460872,3.5668147000000006,10.917732,-1
1081,1082,1580694272010,0.47599998,0.25849998,1.6984999,-0.7692379,3.3116884,10.585523,d
1082,1083,1580694272020,0.0052,-0.0578,0.7446,-0.9354049999999999,3.2795966,9.932738,-1
1083,1084,1580694272031,0.0052,-0.0578,0.7446,-0.92128885,3.254381,9.091234,-1
1084,1085,1580694272041,0.0169,-0.1266,-0.0805,-0.9194979,3.2959059999999996,8.354567,-1
1085,1086,1580694272051,-0.0689,-0.102,-1.3764,-0.9968019,3.3834379,7.7563996,-1
1086,1087,1580694272061,-0.2171,-0.035,-1.6647999,-1.1467076999999999,3.4859767,7.455065299999999,-1
1087,1088,1580694272071,-0.45899999999999996,-0.045199998,-1.7509999,-1.4599937,3.5021522000000003,7.3318405,-1
1088,1089,1580694272082,-0.77309996,-0.1334,-1.8797,-1.7202531000000003,3.4463193,7.215262400000001,-1
1089,1090,1580694272092,-0.9061,-0.24309999,-2.1188,-1.8780788,3.3448625,6.911524000000001,-1
1090,1091,1580694272102,-1.0674,-0.3477,-2.4970999,-2.0722103,3.1900343999999996,6.508685,-1
1091,1092,1580694272112,-1.2422999,-0.5773,-2.8865,-2.2769337000000003,2.9722385,6.140687000000001,-1
1092,1093,1580694272122,-1.5222,-0.89419997,-3.1104,-2.5998827999999996,2.6180977999999997,5.934661,-1
1093,1094,1580694272132,-2.0242999,-1.3492,-3.3051998999999994,-3.1195395,2.1615427000000005,5.721509999999999,-1
1094,1095,1580694272143,-2.4322999,-1.9251,-3.7540998,-3.5105317000000005,1.3997653,5.0974374000000005,-1
1095,1096,1580694272153,-2.7243,-2.6533,-4.3875,-3.7906343999999996,0.8478251,4.51126,-1
1096,1097,1580694272163,-3.1527998,-3.2496998,-5.4108,-4.19806,0.2816922,3.3922962999999995,-1
1097,1098,1580694272173,-3.5275998,-3.6525998,-6.7167997,-4.5807114,-0.023070527,2.0791821,-1
1098,1099,1580694272183,-4.0032,-3.5031,-8.1706,-4.9772487000000005,0.17268898,0.88285714,-1
1099,1100,1580694272193,-4.4065,-3.3658,-9.617,-5.577791,0.2975131,-1.0821121999999999,-1
1100,1101,1580694272203,-4.8489,-3.3365,-10.7449,-5.9261665,0.39842388,-2.1138310000000002,-1
1101,1102,1580694272214,-4.9329,-3.258,-11.7126,-5.840789,0.40088513,-2.8517432,-1
1102,1103,1580694272224,-4.7302,-3.6783,-12.384399,-5.471306299999999,-0.3949858,-3.3782184,-1
1103,1104,1580694272235,-4.4553,-4.5411997,-12.2227,-5.023591000000001,-1.3211875,-2.7421078999999997,-1
1104,1105,1580694272245,-4.0559,-5.2788,-11.032599000000001,-4.6607347,-1.9520883999999998,-1.3809851,-1
1105,1106,1580694272255,-4.1184998,-5.5685,-9.745999000000001,-4.664307,-2.2062762000000005,0.04600698,-1
1106,1107,1580694272265,-4.2048,-5.35,-7.8808,-4.7248516,-1.7266598999999998,2.3572637999999997,-1
1107,1108,1580694272275,-4.5077,-4.236799700000001,-5.5811,-4.7030644,-0.60664284,5.0036135,-1
1108,1109,1580694272285,-4.1391,-3.3091,-3.5156,-3.7862669999999996,-0.20050003,6.5302715,-1
1109,1110,1580694272295,-2.3868,-2.7807999,-2.4703,-0.98294425,0.19394949,6.600795,-1
1110,1111,1580694272306,-0.066,-2.372,-3.372,1.5764861000000001,0.14697525,5.362083,-1
1111,1112,1580694272316,2.3495,-2.6022,-4.2158,3.6544422999999995,-0.29713959,5.521603599999999,-1
1112,1113,1580694272326,4.3742,-2.589,-3.0414,5.6147194,0.16147453,8.034433,-1
1113,1114,1580694272336,5.3581,-1.7643,-0.14119999,6.1255937000000005,0.7568455,11.835296000000001,-1
1114,1115,1580694272346,5.3287997,-0.9974,3.8369999999999997,5.415387,1.0359806999999999,15.629837,-1
1115,1116,1580694272356,4.1626,-0.53929996,7.2936997,4.2482333,1.0286256,18.1609,-1
1116,1117,1580694272366,3.0207999,-0.3611,9.6901,3.489348,0.8632055000000001,20.163211999999998,-1
1117,1118,1580694272376,3.0069999999999997,-0.3446,11.1119995,4.5278373,0.6034825,20.970852,-1
1118,1119,1580694272386,4.575599700000001,-0.2383,11.097199,6.7357707,0.8660498,20.775579999999998,-1
1119,1120,1580694272396,6.9525,0.44099998,11.2374,9.445624,1.554402,21.689648000000002,-1
1120,1121,1580694272406,9.706699,1.2754999,12.4674,12.0185,2.2377071,22.986876000000002,-1
1121,1122,1580694272417,11.875899,2.1215,13.5981,13.283520000000001,2.7302997,23.724632,-1
1122,1123,1580694272427,12.8305,2.6894999,14.5134,13.612252999999999,2.9245462000000004,24.85804,-1
1123,1124,1580694272437,12.5139,2.6301,15.3818,12.570469000000001,2.1623759999999996,25.415085,-1
1124,1125,1580694272447,11.512,1.9963,15.596298999999998,11.699150999999999,1.7580911,25.032759,-1
1125,1126,1580694272457,10.5161,1.5466,14.940498999999999,10.790619,1.1696153999999999,24.032239999999998,-1
1126,1127,1580694272467,9.788799000000001,1.043,14.0018,10.387752,0.8121228,22.943645,-1
1127,1128,1580694272477,9.394,0.5638,12.543799,10.341313000000001,0.44638455,21.193502,-1
1128,1129,1580694272488,9.4639,0.2199,11.173699000000001,10.567125,0.35363317,20.030495000000002,-1
1129,1130,1580694272498,9.7254,0.071499996,10.017999999999999,10.788216,0.37829345,18.990694,-1
1130,1131,1580694272508,10.0229,0.0104,8.5571995,10.962781,0.32520920000000003,16.756586,-1
1131,1132,1580694272518,10.086599,-0.2269,6.568,10.385712,-0.09531795,14.379853,-1
1132,1133,1580694272529,9.3783,-0.8423,4.0432,9.411358,-0.64507455,11.991474,-1
1133,1134,1580694272538,8.091000000000001,-1.7663,1.2104,8.283439999999999,-1.2353603000000002,10.147067,-1
1134,1135,1580694272548,6.6547,-2.4515,-0.41079998,6.5320525,-1.6642288,8.746592999999999,-1
1135,1136,1580694272558,5.5778,-2.7937,-1.0804,5.9591203,-1.5680777,8.188448,-1
1136,1137,1580694272568,5.1819997,-2.7528,-1.6265999,6.0032406,-1.1541297,7.7012277000000005,-1
1137,1138,1580694272579,5.388999999999999,-2.4311,-2.1083998999999998,6.206173000000001,-0.826239,6.791814,-1
1138,1139,1580694272589,5.6312,-2.2263,-3.1502,6.173526,-0.66365355,5.556597,-1
1139,1140,1580694272599,5.6081,-2.2033,-4.3655,5.574152,-0.84428173,4.0018125,-1
1140,1141,1580694272609,5.1131997,-2.4865,-5.6642,4.7791524,-1.0418226000000002,2.3584707000000003,-1
1141,1142,1580694272619,4.3293,-2.8019,-7.2812,3.8392556000000004,-1.2374575,0.8769769000000001,-1
1142,1143,1580694272630,3.3625,-3.1194,-8.7479,2.8339496,-1.4267048999999998,-0.034945767,-1
1143,1144,1580694272640,2.3313,-3.4148,-9.6069,1.7442620999999998,-1.5098124,-0.16032532,-1
1144,1145,1580694272650,0.35639998,-3.819,-9.5236,0.93594134,-1.6873566999999998,0.04520253,-1
1145,1146,1580694272660,0.35639998,-3.819,-9.5236,0.30937874,-1.8956043999999999,0.34217933,-1
1146,1147,1580694272671,-0.8822,-4.1268,-9.0785,-0.31529722,-1.9745843,0.4875744000000001,-1
1147,1148,1580694272680,-0.8822,-4.1268,-9.0785,-0.78412974,-2.1604223,0.24493642,-1
1148,1149,1580694272690,-1.3385,-4.2746,-9.321199,-1.5924411,-2.198959,0.03293464,-1
1149,1150,1580694272700,-2.7696,-4.3121,-9.5756,-2.210011,-2.2807642999999995,0.009299079,-1
1150,1151,1580694272710,-2.7696,-4.3121,-9.5756,-2.9991493,-2.5943856,0.0078050974,-1
1151,1152,1580694272720,-5.3567,-5.1847997,-9.347799,-4.6853957,-3.2779207,0.24921724,-1
1152,1153,1580694272730,-7.2352996,-5.7314,-9.2476,-6.477867,-3.8920812999999996,0.35494518,-1
1153,1154,1580694272741,-9.354199000000001,-6.0544996,-9.070499,-8.861477,-4.354038,0.5835723,-1
1154,1155,1580694272751,-10.8509,-6.1896996,-8.8199,-10.110944,-4.613646,0.9102946,-1
1155,1156,1580694272761,-10.8509,-6.1896996,-8.8199,-10.422533999999999,-4.8349657,1.3159682,-1
1156,1157,1580694272771,-11.3763,-6.3536997,-7.3345,-10.275225,-5.147198,2.807623,-1
1157,1158,1580694272781,-11.193399000000001,-6.5027,-5.5329999999999995,-10.155045,-5.574161,4.5618925,-1
1158,1159,1580694272792,-11.7743,-6.954,-3.8632998,-10.926208,-6.279072,6.069656,-1
1159,1160,1580694272802,-13.264000000000001,-7.3701,-3.2457,-12.398153,-6.8986144,6.5157433,-1
1160,1161,1580694272812,-14.8392,-7.6545,-3.0331,-13.614447,-7.2972875,6.6951265,-1
1161,1162,1580694272822,-16.3394,-7.8623996,-2.3437,-15.267554999999998,-7.805815700000001,7.588049000000001,-1
1162,1163,1580694272832,-17.1659,-7.9329996,-1.2077,-15.844674,-8.123057000000001,8.757358,-1
1163,1164,1580694272842,-17.1659,-7.9329996,-1.2077,-15.240607,-8.444627,10.338678999999999,-1
1164,1165,1580694272853,-15.4543,-7.8947997,2.1025,-13.413572,-8.639027,12.423378999999999,-1
1165,1166,1580694272863,-14.095699,-7.7317995999999996,3.6127,-12.445703,-8.811869,13.555482000000001,-1
1166,1167,1580694272873,-13.189898999999999,-7.763,5.2497997000000005,-11.438327000000001,-9.257009,15.654314999999999,-1
1167,1168,1580694272883,-12.470099000000001,-7.7658997,7.4069996,-10.749574,-9.447692,17.884916,-1
1168,1169,1580694272893,-11.7135,-7.4621997,9.7597,-9.762463,-9.312515,20.222288,-1
1169,1170,1580694272903,-10.196,-6.9353,12.059999000000001,-7.9043225999999995,-9.023937,22.199095,-1
1170,1171,1580694272914,-8.088799,-6.2892,13.469399,-6.222405999999999,-8.739803,22.956364,-1
1171,1172,1580694272924,-6.1331,-5.8325996,13.737499,-3.9889219,-8.556695,23.074903,-1
1172,1173,1580694272934,-4.0926,-5.602999700000001,13.7659,-2.0621066000000003,-8.659656,22.920181,-1
1173,1174,1580694272944,-2.3353999,-5.5014,13.6737995,-0.47574705,-8.651812,23.124838,-1
1174,1175,1580694272954,-0.57339996,-5.1714997,14.9248,1.5962813,-8.431948,25.362076000000002,-1
1175,1176,1580694272964,1.2235,-4.7553,17.027898999999998,2.7498364,-8.172378,26.714436,-1
1176,1177,1580694272975,2.3946,-4.2709,18.268099,3.6619601000000004,-7.856563599999999,27.500462,-1
1177,1178,1580694272984,3.4515,-3.9719,18.433199,4.875926,-7.6502886,27.196007,-1
1178,1179,1580694272994,5.0662,-3.5354,17.6778,6.2002068,-7.217847999999999,26.537714,-1
1179,1180,1580694273004,6.8739996,-2.8741,17.2787,8.262888,-6.3972783,26.39371,-1
1180,1181,1580694273014,8.3449,-2.145,17.6129,9.436172000000001,-5.6305203,26.783926,-1
1181,1182,1580694273024,9.2331,-1.5374,17.7381,10.085077,-5.0626063,26.657320000000002,-1
1182,1183,1580694273035,9.5672,-1.3046,17.043999,10.064094,-4.8202940000000005,25.678894,-1
1183,1184,1580694273045,9.1995,-1.3533,15.4814,9.474737,-4.8350425,23.42013,-1
1184,1185,1580694273055,8.7085,-1.6435,13.2788,8.889987,-4.817469,21.13741,-1
1185,1186,1580694273065,8.062799,-1.6988,10.8237,8.231276,-4.397114299999999,18.73074,-1
1186,1187,1580694273075,7.562999700000001,-1.5027,8.4451,7.9556065,-4.0096172999999995,17.080876999999997,-1
1187,1188,1580694273085,7.291599799999999,-1.2718999,6.5014997,7.7293066999999995,-3.4086156,14.962898000000001,-1
1188,1189,1580694273096,7.2053,-1.173,4.7026,7.7634,-3.1685534,13.204434,-1
1189,1190,1580694273106,7.199,-1.3230000000000002,2.7862,7.745002700000001,-3.0274584,11.279467,-1
1190,1191,1580694273116,7.2065,-1.5156,0.9299,7.807012599999999,-2.9877912999999996,9.811103999999998,-1
1191,1192,1580694273126,7.2166996,-1.7617999,-0.3856,7.575158,-2.8263743,8.733597999999999,-1
1192,1193,1580694273136,6.8514,-1.7756,-1.3672999,7.223172,-2.405895,7.992353,-1
1193,1194,1580694273147,6.6912,-1.6186,-2.0065,7.2740445000000005,-2.018111,7.387797999999999,-1
1194,1195,1580694273157,6.8057,-1.5501,-2.5495,7.424017,-1.6907661,6.723109700000001,-1
1195,1196,1580694273167,6.9888,-1.3675,-3.4773998,7.561942599999999,-1.2632478,5.6374260000000005,-1
1196,1197,1580694273177,7.0368,-1.3529999,-4.3006997,7.4437169999999995,-1.2667242,5.1593227,-1
1197,1198,1580694273187,6.8079996,-1.6278,-4.9125,7.287787,-1.3917016000000002,4.259132,-1
1198,1199,1580694273197,6.8206,-1.9526999,-5.6577997,7.743815400000001,-1.3122333000000002,3.8892752999999995,-1
1199,1200,1580694273208,7.2948,-1.9606999,-5.891,8.096472,-1.0576146,3.879028,-1
1200,1201,1580694273218,7.6439996,-1.9555999,-5.947,7.9864345000000005,-1.3040833,3.5377202000000003,-1
1201,1202,1580694273228,7.4045997,-2.3764,-6.2573,7.566472,-1.4474097,3.5757592000000002,-1
1202,1203,1580694273238,7.0174,-2.6485999,-6.047000000000001,7.168421700000001,-1.6187963,4.370931,-1
1203,1204,1580694273248,6.6056,-2.9936,-5.1974,6.863295599999999,-1.9500197,4.922219999999999,-1
1204,1205,1580694273260,6.3842998,-3.424,-4.745899700000001,7.078649,-2.327097,4.689197,-1
1205,1206,1580694273270,6.9698997,-4.3068,-5.7597,7.544225,-2.5676568,3.8819682999999996,-1
1206,1207,1580694273280,8.103,-4.309,-6.3557997,8.733243,-2.4208347999999997,3.25078,-1
1207,1208,1580694273290,8.103,-4.309,-6.3557997,10.221307000000001,-2.11883,3.1333685,-1
1208,1209,1580694273301,9.5576,-4.1314,-6.4452,11.289589999999999,-1.9434788,3.5844455,-1
1209,1210,1580694273311,11.3674,-4.0318,-5.5083,12.001368,-1.8484098999999998,4.0371604,-1
1210,1211,1580694273321,11.4879,-3.9343,-5.079,12.058474,-1.7089621,4.453521299999999,-1
1211,1212,1580694273331,10.940499,-3.8309998999999997,-5.0038,11.449447,-1.5543253000000001,4.5332584,-1
1212,1213,1580694273341,10.2452,-3.6151998,-5.191,10.537542,-1.2571858,4.3515477,-1
1213,1214,1580694273351,9.4564,-3.2981,-4.9042,9.687716,-0.8186733,4.6801853,-1
1214,1215,1580694273362,8.684899,-2.995,-4.732599700000001,8.964236,-0.5120239999999999,4.708284,-1
1215,1216,1580694273372,8.191,-2.7259,-5.1078997,8.52195,-0.12733322,4.29537,-1
1216,1217,1580694273382,8.1015,-2.3948,-5.3459997,8.594064,0.31412885,4.0882144,-1
1217,1218,1580694273393,8.1848,-2.0853,-5.3605,8.548852,0.6315808,4.127757,-1
1218,1219,1580694273403,7.4469,-2.0284998,-4.7401,7.5681767,0.5480710999999999,4.938510400000001,-1
1219,1220,1580694273413,5.7629,-2.5003,-3.4822,5.3428526,-0.053591814,6.409498,-1
1220,1221,1580694273423,3.9487997999999997,-2.9793,-2.4953,3.8663769999999995,-0.5300284000000001,7.146605999999999,-1
1221,1222,1580694273433,2.1378999,-3.5609998999999997,-1.7737999,1.4929667,-1.3337523,7.975478599999999,-1
1222,1223,1580694273444,-0.0495,-4.3649,-1.0495,-0.74315065,-2.2525032000000005,8.837727000000001,-1
1223,1224,1580694273454,-2.0839,-5.0188,-0.009000000000000001,-2.5867242999999998,-2.7116346,9.9025135,-1
1224,1225,1580694273465,-3.4343998,-5.343,0.84639996,-3.6901064,-3.1510377,10.585742,-1
1225,1226,1580694273474,-4.5997,-5.9118,1.2801,-4.799656400000001,-3.6454690000000003,10.837316,-1
1226,1227,1580694273484,-6.4336996,-6.3956,1.2509999,-7.1240716,-4.147571,10.675775,-1
1227,1228,1580694273494,-8.156099000000001,-6.6084,1.0636,-8.734297,-4.3387150000000005,10.556754,-1
1228,1229,1580694273504,-9.5504,-6.5243998,0.89589995,-10.050102,-4.0996013,10.339466,-1
1229,1230,1580694273514,-10.21,-5.9639997000000005,0.7003,-10.211184,-3.458932,10.262659,-1
1230,1231,1580694273524,-9.6378,-5.2927,0.6536,-9.501906,-2.9837403,10.128822999999999,-1
1231,1232,1580694273535,-9.0254,-5.0782,0.47079998,-8.7933,-2.8294005,10.224036,-1
1232,1233,1580694273545,-8.4327,-4.8739,0.81759995,-8.294108,-2.5973067000000003,10.651028,-1
1233,1234,1580694273555,-7.8630996,-4.5597,1.3503,-7.866303,-2.3713706,11.025538000000001,-1
1234,1235,1580694273565,-7.5084995999999995,-4.249,1.5603,-7.5004306,-1.8172468999999998,11.250536,-1
1235,1236,1580694273575,-7.2377996,-3.6330998,1.6643,-7.201701,-1.1995908000000002,11.065952000000001,-1
1236,1237,1580694273586,-6.8875,-3.0012,1.2120999,-6.740961,-0.5595441,10.358217,-1
1237,1238,1580694273596,-6.4266996,-2.3913,0.4781,-6.218479,-0.03782839,9.77588,-1
1238,1239,1580694273606,-5.9287996,-2.0095,0.028999999999999998,-5.709625,0.18641256,9.478079,-1
1239,1240,1580694273616,-5.3964996,-1.8860999,-0.13679999,-5.1485105,0.2706597,9.570561999999999,-1
1240,1241,1580694273627,-4.8563,-1.7536,0.15609999,-4.6825985999999995,0.39906555,10.054469000000001,-1
1241,1242,1580694273637,-4.4944997,-1.6717,0.7122,-4.3931594,0.47760493,10.663248,-1
1242,1243,1580694273647,-4.1857,-1.4984,1.2285,-4.1141295,0.82117283,10.881972,-1
1243,1244,1580694273657,-3.9784,-1.2008,1.2748,-3.9847083,1.0006518,10.875585000000001,-1
1244,1245,1580694273667,-3.8913998999999997,-0.99619997,1.2731,-4.023255000000001,1.1512950000000002,10.788617,-1
1245,1246,1580694273678,-3.9175,-0.8563,1.1551,-3.9557097000000003,1.4280552,10.598604,-1
1246,1247,1580694273688,-3.75,-0.5394,0.9411,-3.488668,1.7923186000000002,10.123528,-1
1247,1248,1580694273698,-3.1883,-0.2145,0.38619998,-2.7048926,2.1147122000000005,9.488892,-1
1248,1249,1580694273708,-2.4074,0.092099994,-0.20600000000000002,-2.1079893,2.4569585,8.929089,-1
1249,1250,1580694273719,-1.8396,0.3788,-0.7884,-1.6212194,2.6134242999999997,8.240794000000001,-1
1250,1251,1580694273729,-1.4382,0.4653,-1.3422999,-1.4363582000000001,2.6789297999999997,8.098742,d
1251,1252,1580694273739,-1.2168,0.522,-1.4764,-1.4033661,2.7591164,8.339617,-1
1252,1253,1580694273750,-1.1658,0.6175,-1.1317999,-1.5230953999999999,2.7503536,8.917530000000001,-1
1253,1254,1580694273760,-1.3491,0.5907,-0.3293,-1.6329316999999999,2.734006,9.247709,-1
1254,1255,1580694273770,-1.3491,0.5907,-0.3293,-1.7130034,2.64747,9.454156,-1
1255,1256,1580694273780,-1.4557999,0.3576,-0.24249999,-1.7845231,2.4950454,9.329917,-1
1256,1257,1580694273790,-1.4557999,0.3576,-0.24249999,-1.6118915,2.4384465,8.877509,-1
1257,1258,1580694273801,-1.2738999,0.30679998,-0.7025,-1.2542361000000002,2.4535396,8.510899,-1
1258,1259,1580694273811,-0.6296,0.2591,-1.2198,-0.993383,2.4036252,8.354863,-1
1259,1260,1580694273821,-0.6286,-0.1388,-1.3379999,-0.99837255,1.9929813000000003,8.237672,-1
1260,1261,1580694273831,-1.0685999,-0.4852,-1.1349,-1.5787461999999999,1.5700983,8.500441,-1
1261,1262,1580694273841,-1.6254,-0.72969997,-0.7969,-2.1860880000000003,1.3213694999999999,8.899305,-1
1262,1263,1580694273851,-2.1503,-0.81799996,-0.0683,-2.6601974999999998,1.2222879,9.673867999999999,-1
1263,1264,1580694273862,-2.1438,-0.77809995,0.42459998,-2.5807962000000004,1.2591393999999998,10.012694999999999,-1
1264,1265,1580694273872,-1.8025,-0.6376,0.301,-2.1941998,1.367635,9.879118,-1
1265,1266,1580694273883,-1.1606,-0.4734,0.2276,-1.5471523999999999,1.5190347,9.875249,-1
1266,1267,1580694273893,-0.45,-0.2321,0.3899,-0.7346081,1.794866,10.053674,-1
1267,1268,1580694273903,0.1358,0.0089,0.51339996,-0.32439518,1.9570778999999998,10.168144999999999,-1
1268,1269,1580694273913,0.50879997,0.1906,0.6764,0.01004607,2.0948403,10.343085,-1
1269,1270,1580694273923,0.5814,0.2439,0.75159997,-0.0746129,2.0990062000000003,10.357125,-1
1270,1271,1580694273933,0.29839998,0.2086,0.6117,-0.4733337,1.9895912,10.142058,-1
1271,1272,1580694273944,-0.1929,0.0163,0.31559998,-1.1184082,1.6765348999999998,9.837766,-1
1272,1273,1580694273954,-0.88809997,-0.31329998,0.16699999999999998,-1.896543,1.3778248,9.84512,-1
1273,1274,1580694273964,-1.5007,-0.51669997,0.3028,-2.3464037999999996,1.1862216,10.003597000000001,-1
1274,1275,1580694273974,-1.5981,-0.5398,0.44849998,-2.295819,1.2260803,10.085737,-1
1275,1276,1580694273984,-1.3682,-0.46429998,0.4574,-1.9977793999999998,1.3262728000000001,10.127616999999999,-1
1276,1277,1580694273995,-0.9927,-0.2893,0.4964,-1.4730278,1.5969708,10.031838,-1
1277,1278,1580694274005,-0.5334,-0.042099997,0.25169998,-1.0730716,1.8372816000000003,9.62833,-1
1278,1279,1580694274016,-0.27719998,0.15339999,-0.1392,-0.9376459999999999,1.9716346000000002,9.351282000000001,-1
1279,1280,1580694274026,-0.2015,0.2147,-0.3342,-0.9848979999999999,1.9405961999999999,9.257487,-1
1280,1281,1580694274036,-0.3487,0.1326,-0.3139,-1.2018318000000001,1.8520968999999998,9.394972000000001,-1
1281,1282,1580694274046,-0.65489995,0.0334,-0.1472,-1.5318198,1.7737013,9.511664999999999,-1
1282,1283,1580694274056,-0.8961,-0.0155,-0.0692,-1.6612025000000001,1.7581486000000002,9.609817999999999,-1
1283,1284,1580694274066,-1.1024,0.0253,0.42,-1.8349258000000002,1.8355674,10.505613,-1
1284,1285,1580694274076,-1.1359,0.12619999,1.1638,-1.7624964,2.0194995,11.144961,-1
1285,1286,1580694274087,-1.0432,0.3019,1.663,-1.7688842,2.150175,11.403792999999999,-1
1286,1287,1580694274097,-1.2126,0.4023,1.7615999,-2.2085457,2.1999743,11.1722355,-1
1287,1288,1580694274107,-1.62,0.40919998,1.4497,-2.4262837999999998,2.1860785,10.850752,-1
1288,1289,1580694274117,-1.8067,0.4042,1.1092,-2.5035114,2.2025506,10.636911,-1
1289,1290,1580694274127,-1.8619,0.38259998,1.0037999,-2.5298476,2.2015738,10.892488,-1
1290,1291,1580694274137,-1.8363999,0.37629998,1.3682,-2.4406779999999997,2.1615427000000005,11.189694,-1
1291,1292,1580694274147,-1.7218,0.29600000000000004,1.8398,-2.4389830000000003,2.0344203000000003,11.730487,-1
1292,1293,1580694274158,-1.7731999,0.17719999,2.1936,-2.5512612,1.9524715,12.199052,-1
1293,1294,1580694274169,-1.8853999,0.1162,2.6847,-2.7265935000000003,2.0111008000000004,12.83227,-1
1294,1295,1580694274179,-2.0298,0.17979999,3.2056,-2.8995888,2.0468414,13.332103,-1
1295,1296,1580694274189,-2.1972,0.2075,3.7177,-2.9741826000000002,2.1251892999999997,13.545723,-1
1296,1297,1580694274200,-2.2689,0.24569999,3.9371998,-2.9058042,2.0667229,13.366043,-1
1297,1298,1580694274210,-2.2121,0.1647,3.7568998,-2.7035804,2.125754,13.062209,-1
1298,1299,1580694274220,-2.0181,0.2057,3.0795999,-2.26955,2.1989403,12.674894,-1
1299,1300,1580694274230,-1.0843999,0.2438,2.5918,-1.7672656999999998,2.2941146,12.165686,-1
1300,1301,1580694274240,-1.0843999,0.2438,2.5918,-1.2786952,2.480412,11.633971,-1
1301,1302,1580694274250,-0.59679997,0.36569998,2.0662,-0.8994537,2.7837287999999996,11.297547999999999,-1
1302,1303,1580694274260,0.14800000000000002,0.7876,1.7519,-0.529425,3.0353785,11.289954,-1
1303,1304,1580694274271,0.35619998,0.8064,1.8642999,-0.32326509999999997,3.1114759999999997,11.386383,-1
1304,1305,1580694274281,0.41849998,0.6483,1.8105999,-0.26639804,3.0163493,11.315878,-1
1305,1306,1580694274292,0.3367,0.5076,1.6011,-0.39524440000000005,2.9223529999999998,11.018049000000001,-1
1306,1307,1580694274302,0.3367,0.5076,1.6011,-0.60357827,2.9130635,10.56295,-1
1307,1308,1580694274312,-0.0521,0.2967,0.6274,-0.77554893,2.8361137000000003,9.995696,-1
1308,1309,1580694274322,-0.058599997,0.19049999,0.29369998,-0.7810269,2.8321395000000003,9.660346,-1
1309,1310,1580694274332,-0.037299998,0.1839,-0.0105,-0.7571423,2.9159076,9.306108,-1
1310,1311,1580694274342,0.0123,0.13149999,-0.23689999,-0.70311,2.862517,9.149605000000001,-1
1311,1312,1580694274352,0.19029999,0.0557,-0.2685,-0.45624867,2.8853962,9.044394,-1
1312,1313,1580694274363,0.4806,0.043899997999999996,-0.5166,-0.24533863,2.9104106,8.735733,-1
1313,1314,1580694274373,0.6295,0.0756,-1.1673,-0.14813405,3.0267020000000002,8.058174000000001,-1
1314,1315,1580694274383,0.84029996,0.1722,-1.5546,0.121251956,3.1288287999999995,7.752913499999999,-1
1315,1316,1580694274393,1.2162,0.228,-1.7285999,0.44325292,3.2248172999999998,7.542022,-1
1316,1317,1580694274403,1.4167,0.2525,-2.0226,0.5457821999999999,3.1987972,7.204124,-1
1317,1318,1580694274413,1.3424,0.0696,-2.2112,0.33670140000000004,3.0087453999999996,7.0161023,-1
1318,1319,1580694274424,0.93259996,-0.13499999,-2.2946,-0.081192166,2.8328674,7.018296,-1
