,Seq,Time,ACCx,ACCy,ACCz,ADGx,ADGy,ADGz,Keydown
0,1,1580695716855,0.7005,0.2235,1.9495,1.3187358,2.0968418,11.568197999999999,-1
1,2,1580695716866,0.7005,0.2235,1.9495,0.34225592,1.3162938,8.077767999999999,-1
2,3,1580695716876,-0.0685,-0.2157,-1.4403,0.34939066,1.2712541000000002,8.379591,-1
3,4,1580695716886,-0.2263,0.025999999,-1.1395998999999999,0.23826139,1.5825291000000001,8.701813000000001,-1
4,5,1580695716896,-0.22039999,0.1599,-0.7229,0.25415888,1.4055784,9.282368,-1
5,6,1580695716907,-0.2915,-0.054899998,-0.2577,0.0034093433,1.1997153999999999,9.653144000000001,-1
6,7,1580695716917,-0.5534,-0.2008,0.0405,-0.20089267,1.0083132,9.949058,-1
7,8,1580695716927,-0.6653,-0.3382,0.42729998,-0.13508086,0.89818,10.571099,-1
8,9,1580695716937,-0.5671,-0.3276,0.95119995,-0.063092,1.0254366,10.955771,-1
9,10,1580695716948,-0.41279998,-0.0154,1.3550999,0.23054247,1.3618507,11.181736,-1
10,11,1580695716958,-0.0543,0.2364,1.4153999,0.51526093,1.4041801999999999,10.911622,-1
11,12,1580695716968,0.1655,0.2631,1.0708,0.6364554,1.3331393999999999,10.484047,-1
12,13,1580695716978,0.3067,0.1981,0.6678,1.0445806,1.1791923,10.245345,-1
13,14,1580695716988,0.7515,0.0289,0.48049998,1.3663038,0.94492435,10.390595,-1
14,15,1580695716999,0.95559996,-0.2254,0.8806,1.1696058999999999,0.8467525,11.585915,-1
15,16,1580695717009,0.6006,-0.1586,2.1318,0.5706149,0.9321202,13.335904000000001,-1
16,17,1580695717019,-0.021499999,-0.0101,3.9696,-0.042693405999999996,1.0631692,15.187523,-1
17,18,1580695717029,-0.5943,0.20539999,5.6995997,-0.49179775,1.3774513000000002,16.027649,-1
18,19,1580695717039,-0.9235,0.506,6.2551,-0.44200793,1.4941925,15.378485000000001,-1
19,20,1580695717049,-0.85899997,0.604,5.3433,-0.2588611,1.1668286,13.948169,-1
20,21,1580695717060,-0.6798,0.1797,3.8955998,-0.1524436,0.5660946,12.580821,-1
21,22,1580695717070,-0.62979996,-0.37559998,2.8225,-0.22180842,0.17289968,12.809467,-1
22,23,1580695717080,-0.784,-0.65669996,4.6524997,-0.25824818,0.32453883,14.405663500000001,-1
23,24,1580695717090,-0.784,-0.65669996,4.6524997,0.13893074,0.23097342,16.529156,-1
24,25,1580695717100,-0.42499998,-0.723,6.7693,0.34627816,0.20866904,18.055977,-1
25,26,1580695717110,-0.0548,-0.6849,10.087,0.5039986,0.20457017,19.844236,-1
26,27,1580695717120,-0.1437,-0.6677,10.7606,0.37463509999999994,0.20128532,20.530731,-1
27,28,1580695717131,-0.2685,-0.8479,10.9465,0.21464497,-0.011511322,20.644865,-1
28,29,1580695717141,-0.303,-1.1804,10.1862,0.16682798,-0.34237084,19.694235,-1
29,30,1580695717151,-0.303,-1.1804,10.1862,0.10336247,-0.70201826,18.791207999999997,-1
30,31,1580695717161,-0.4161,-2.3023,8.0091,0.14958972,-1.2061988000000001,17.386826,-1
31,32,1580695717171,-0.3058,-2.6812,6.7967997,0.27737305,-1.3655282,16.255556,-1
32,33,1580695717181,-0.3058,-2.6812,6.7967997,0.23730369,-1.4640735,15.44784,-1
33,34,1580695717192,-0.57699996,-3.0239,5.1734,-0.030023288,-1.3092643999999998,14.710492000000002,-1
34,35,1580695717202,-0.5959,-3.0839,4.5734997,-0.05125507,-1.2660922,14.067467,-1
35,36,1580695717212,-0.7035,-3.2006,3.8669,-0.22113805,-1.1702473999999998,13.279670000000001,-1
36,37,1580695717222,-0.7985,-3.1246,2.9573,-0.34793496,-0.96648175,12.324028,-1
37,38,1580695717233,-0.7378,-3.136,2.0825,-0.29818347,-0.78737634,11.447808,-1
38,39,1580695717243,-0.4942,-3.2382,1.3521,-0.057144806,-0.7504673000000001,10.689017999999999,-1
39,40,1580695717253,-0.096,-3.4993,0.3841,0.47523950000000004,-0.76833767,9.1954975,-1
40,41,1580695717263,0.4183,-3.5628998,-1.1847,0.85147387,-0.63111156,7.8541117,-1
41,42,1580695717274,0.8315,-3.4987998,-2.6904,1.1307623,-0.2517934,6.1589594000000005,-1
42,43,1580695717284,0.7795,-3.2271,-3.823,0.9755988999999999,0.26343882,4.881997599999999,-1
43,44,1580695717294,0.6784,-3.0200999,-5.0744,0.76002496,0.55278283,3.6569707,-1
44,45,1580695717304,0.48099998,-2.8983,-6.0716996,0.4803726,0.8624106,2.6212008,-1
45,46,1580695717314,0.37359998,-2.7965999,-7.1474,0.3595612,1.0318531,1.457092,-1
46,47,1580695717324,0.22999999,-2.9138,-8.1046,-0.028376078,1.0858089,0.59055376,-1
47,48,1580695717335,-0.34989998,-2.8739998,-8.8375,-0.71517676,1.2960676000000002,-0.23295583,-1
48,49,1580695717345,-0.78599995,-2.7939,-9.5822,-1.0942938,1.4526101,-0.9963518,-1
49,50,1580695717355,-1.0066998999999999,-2.7393,-10.2134,-1.3092549,1.6595839,-1.7719487,-1
50,51,1580695717365,-1.0073999,-2.6204998,-11.0851,-1.2671648000000002,1.91924,-2.7511772999999997,-1
51,52,1580695717375,-0.6671,-2.3676999,-12.144899,-0.7741891,2.4844918,-4.107406,-1
52,53,1580695717385,-0.20809999,-1.8546,-13.054,-0.48651135,3.2284565,-4.795567,-1
53,54,1580695717396,0.0288,-1.1542,-13.531799,-0.34514812,3.9326102999999994,-5.0127115,-1
54,55,1580695717406,0.1962,-0.6167,-13.5998,-0.15526877,4.387528,-5.041853400000001,-1
55,56,1580695717416,0.5579,-0.2067,-13.619499,0.4777773,4.769019999999999,-5.121686,-1
56,57,1580695717426,1.3661,0.038599997999999996,-13.6072,1.0748338,4.8657074,-4.9006057,-1
57,58,1580695717436,1.6214,0.1339,-13.3059,1.001054,4.9310784000000005,-4.634628299999999,-1
58,59,1580695717447,1.5222,0.0797,-13.1468,0.98660266,4.662056400000001,-4.606798,-1
59,60,1580695717457,1.5390999,-0.30719998,-13.179998999999999,1.0156204,4.285516,-4.7497606,-1
60,61,1580695717467,1.5616,-0.64129996,-13.4067,1.0854256000000002,3.8679,-4.9385295,-1
61,62,1580695717477,1.5898,-1.0188,-13.474898999999999,1.0953186000000001,3.6523836000000003,-4.741764,-1
62,63,1580695717487,1.6973,-1.0555,-13.1404,1.3865589,3.4608760000000003,-4.048873,-1
63,64,1580695717498,1.9228,-1.2473999,-12.5429,1.3865589,3.0895638,-3.4839659,-1
64,65,1580695717508,1.7675999,-1.6980000000000002,-11.928599,1.158468,2.1079605,-2.9412097999999998,-1
65,66,1580695717519,1.5143,-2.6044998,-11.5826,0.7629459,0.9720267,-2.8233576,-1
66,67,1580695717529,0.9852,-3.6903,-11.597899,0.12183613,-0.20651427,-3.1612367999999997,-1
67,68,1580695717539,0.21689999,-4.8097,-12.0365,-1.0410755999999999,-1.5988573999999998,-3.7106774,-1
68,69,1580695717549,-0.8247,-5.8573,-12.5236,-1.8872918,-2.4104726000000003,-3.838796,-1
69,70,1580695717559,-1.7084,-6.5428996,-12.7126,-1.8877515,-2.489309,-3.4855843,-1
70,71,1580695717569,-1.6215,-6.419699700000001,-12.290899000000001,-0.91309106,-2.4381592,-2.1412685000000002,-1
71,72,1580695717579,-0.74899995,-6.1886997,-11.1853,-0.16208746,-2.5424507000000003,-0.8937363000000002,-1
72,73,1580695717589,0.107499994,-6.1127,-9.7393,0.53446245,-2.9544547000000003,0.60093504,-1
73,74,1580695717600,0.6749,-6.3382998,-8.3169,1.0948589,-3.7205224,2.4202125,-1
74,75,1580695717609,1.0064,-6.7625,-6.9055995999999995,1.2546958000000001,-4.0567355,3.308643,-1
75,76,1580695717619,1.0037999,-6.9168,-5.9681997,0.9850033000000001,-4.2978406,3.5057050000000003,-1
76,77,1580695717629,0.58559996,-6.9202,-5.9811997,0.34984076,-4.766128,3.754137,-1
77,78,1580695717639,-0.18169999,-7.1373,-5.6151,-0.42502826,-5.3039136,5.364525,-1
78,79,1580695717649,-0.8541,-7.3167995999999995,-3.7782,-0.559343,-5.9348335,8.035831,-1
79,80,1580695717660,-0.875,-7.5727997,-1.0227,0.084151395,-6.9217806,12.16967,-1
80,81,1580695717670,-0.3202,-8.007299,2.4225,0.5257954,-7.571021000000001,14.343354999999999,-1
81,82,1580695717680,0.21,-8.3496,4.9151,0.91197056,-7.904093,15.441279000000002,-1
82,83,1580695717690,0.5146,-8.1893,5.6909,0.90930825,-7.912099,15.566745000000001,-1
83,84,1580695717700,0.2967,-7.7711997,5.9342,0.18778203,-7.846766000000001,17.053793,-1
84,85,1580695717710,-0.46339998,-7.2774,7.792000000000001,-0.4859655,-7.269955,20.651522,-1
85,86,1580695717720,-0.6932,-5.664,13.5373,-0.14466724,-6.974922,23.245813000000002,-1
86,87,1580695717730,-0.6932,-5.664,13.5373,0.5793776999999999,-6.9524550000000005,24.437070000000002,-1
87,88,1580695717740,0.2613,-5.2427,14.9303,2.0744512,-6.7470713,24.820229,-1
88,89,1580695717750,2.9536998,-3.7129,15.1424,3.3467972,-6.1164575,24.657635,-1
89,90,1580695717761,2.9536998,-3.7129,15.1424,4.4009833,-4.815592,24.187414,-1
90,91,1580695717771,4.0801997000000005,-0.88589996,14.1044,4.131558999999999,-3.7078235,23.264975,-1
91,92,1580695717781,2.7319999,-0.3204,12.9664,2.929976,-3.479369,22.257427,-1
92,93,1580695717791,0.89839995,-0.5313,11.764199000000001,0.66547316,-4.0343924,20.806445999999998,-1
93,94,1580695717801,0.89839995,-0.5313,11.764199000000001,-0.9019724,-4.771031400000001,20.148623999999998,-1
94,95,1580695717811,-1.0171,-1.2781,10.9684,-2.4066514999999997,-5.6078525,19.042513,-1
95,96,1580695717822,-3.1392,-2.3181,8.7980995,-3.0376482000000005,-6.112061499999999,17.699041,-1
96,97,1580695717832,-2.6104998999999998,-2.116,8.3246,-2.3063439999999997,-5.9245577,17.328169,-1
97,98,1580695717842,-1.0720999,-1.2731999,8.5503,-0.7506493000000001,-5.1444497,17.60485,-1
98,99,1580695717852,0.5148,-0.25939998,9.2877,0.7227233000000001,-4.269705,18.291883,-1
99,100,1580695717862,1.7362,0.6622,9.6484995,1.9631497,-3.407581,18.367634,-1
100,101,1580695717873,2.5152,1.3183,9.315599,2.3481370999999998,-3.0771238999999997,17.94528,-1
101,102,1580695717883,2.2168,1.4706999,8.7077,1.5485218,-3.1115427,17.088327,-1
102,103,1580695717893,1.0366,1.2883999,7.7854996,0.23290795,-3.4988866,16.031986,-1
103,104,1580695717903,-0.31509998,0.87229997,6.8441997,-1.1818354,-3.9842675,15.153305,-1
104,105,1580695717913,-1.7478,0.4028,6.0815997,-2.2706609,-4.393657,14.5702305,-1
105,106,1580695717924,-2.7365,0.0098,5.6067,-3.2064967,-4.817200700000001,14.107901000000002,-1
106,107,1580695717934,-2.9403,-0.117599994,5.4505,-3.0835881,-4.8399553,14.013206,-1
107,108,1580695717944,-2.3813,0.08,5.4175997,-2.2758226,-4.520866000000001,13.9117775,-1
108,109,1580695717955,-1.3218,0.4838,5.0168,-1.1522719,-4.100415,13.317172,-1
109,110,1580695717965,-0.1848,0.86689997,4.2376,-0.05257667,-3.7343895,12.514750999999999,-1
110,111,1580695717976,0.8077,1.1926,3.4441998,0.92139417,-3.362484,11.632037,-1
111,112,1580695717986,1.4054999,1.4339,2.8339,1.1224208999999998,-3.139105,11.119726,-1
112,113,1580695717997,1.3604,1.5841999,2.2807,0.6879595000000001,-3.1095796,10.561819,-1
113,114,1580695718007,0.7504,1.5066998999999999,1.7263,-0.03542461,-3.2287437999999997,10.177685,-1
114,115,1580695718017,0.1026,1.3198999,1.4455,-0.58607185,-3.4782580000000003,10.059343,-1
115,116,1580695718027,-0.44689998,0.9838,1.4182,-1.1463054,-3.8321974,10.173432,-1
116,117,1580695718037,-1.0045998999999999,0.6148,1.5165,-1.5467118,-4.083033,10.167236,d
117,118,1580695718047,-1.2863,0.35959998,1.3776,-1.5298566,-4.2574267,9.78786,-1
118,119,1580695718057,-1.1423,0.22119999,0.97429997,-1.1466886,-4.1866064,9.441792999999999,-1
119,120,1580695718068,-0.7242,0.2819,0.6518,-0.8010616,-4.080591,9.240172,-1
120,121,1580695718078,-0.2635,0.3852,0.3416,-0.37914577,-3.8713667000000003,8.811955000000001,-1
121,122,1580695718088,0.2016,0.6268,-0.18329999,0.035913024,-3.5430546,8.352326,-1
122,123,1580695718098,0.4667,0.8402,-0.4919,0.12213302,-3.4067287000000004,8.320349,-1
123,124,1580695718108,0.5262,0.91959995,-0.4852,-0.11134953,-3.4158077000000007,8.443717999999999,-1
124,125,1580695718119,0.2504,0.8346,-0.32099998,-0.59555286,-3.6209714,8.80711,-1
125,126,1580695718129,-0.24409999,0.58309996,0.0486,-1.036651,-3.9505286,9.137481,-1
126,127,1580695718139,-0.59999996,0.2807,0.28959998,-1.1369201999999998,-4.066733999999999,9.180949,-1
127,128,1580695718149,-0.72099996,0.1126,0.3037,-1.0941598,-4.1989126,9.021897000000001,-1
128,129,1580695718159,-0.67859995,-0.0267,0.1415,-0.7711531999999999,-4.0971594,8.826023,-1
129,130,1580695718170,-0.35009998,0.051799998,-0.067999996,-0.13623007,-3.6873099999999996,8.85621,-1
130,131,1580695718180,0.3053,0.43089998,-0.0484,0.6331323,-3.3743687000000007,9.330521000000001,-1
131,132,1580695718190,1.0882,0.72999996,0.4267,1.0484306,-3.2725767999999995,10.098782,-1
132,133,1580695718200,1.5297999,0.82,1.1895,1.0263081,-3.267999,10.737698,-1
133,134,1580695718210,1.5331,0.81159997,1.8242999,0.461717,-3.472895,11.104356,-1
134,135,1580695718220,0.06839999599999999,0.2234,2.0471,-0.45281059999999995,-3.8126898000000002,10.978114,-1
135,136,1580695718230,-0.56049997,0.0033,1.6047,-1.0551151,-3.9872172,10.555863,-1
136,137,1580695718240,-0.6687,-0.0632,1.4161999,-1.1105074,-3.9769318,10.410333999999999,-1
137,138,1580695718251,-0.3385,0.0998,1.6616,-0.7970871999999999,-3.8092709000000005,10.666723,-1
138,139,1580695718261,0.3159,0.4086,2.3035997999999998,-0.14679329,-3.4607036,11.3172865,-1
139,140,1580695718271,0.85179996,0.6759999999999999,3.1457,0.39407602,-3.1676054,12.165428,-1
140,141,1580695718281,0.9716,0.7028,4.1763997,0.48853207,-3.1266742,13.426473000000001,-1
141,142,1580695718291,0.71,0.5232,5.1678,0.13561715,-3.307197,14.362060000000001,-1
142,143,1580695718301,0.0337,0.19749999,5.7338,-0.6443371999999999,-3.6413412000000003,14.877051000000002,-1
143,144,1580695718312,-0.8311,-0.1846,6.1059,-1.3346238000000001,-3.9051440000000004,15.186124,-1
144,145,1580695718322,-1.2742,-0.40299999999999997,6.272,-1.7747643,-4.054255,15.412835999999999,-1
145,146,1580695718332,-1.2729,-0.4675,6.3115997,-1.6517693,-3.9859147000000004,15.461323000000002,-1
146,147,1580695718342,-0.96519995,-0.44129997,6.3457,-1.2374288,-3.8142507000000005,15.572051,-1
147,148,1580695718352,-0.5521,-0.3258,6.3787,-0.8402499,-3.597317,15.637738,-1
148,149,1580695718362,-0.3069,-0.3208,6.4918,-0.6452565,-3.4951706,15.794310000000001,-1
149,150,1580695718373,-0.2615,-0.41700000000000004,6.5179996,-0.61441916,-3.4955822999999997,15.795449,-1
150,151,1580695718383,-0.4827,-0.61939996,6.1614,-0.9718639000000001,-3.6241605000000003,15.394402,-1
151,152,1580695718393,-0.88229996,-0.97029996,5.8427,-1.3221165000000001,-3.8080735,15.203907999999998,-1
152,153,1580695718403,-1.2544,-1.2666,5.5417,-1.6823099,-3.9273239999999996,14.915379000000001,-1
153,154,1580695718413,-1.3953999,-1.4699,5.3178,-1.6673125,-3.8884133999999997,14.740487,-1
154,155,1580695718423,-1.214,-1.4315,5.0252,-1.3131143,-3.5684524,14.435101500000002,-1
155,156,1580695718433,-0.81909996,-1.2852,4.6266,-0.96149224,-3.2378035,14.046934,-1
156,157,1580695718443,-0.7231,-1.2031,4.0745,-0.9328097,-2.9544832999999997,13.360393,-1
157,158,1580695718453,-0.71489996,-1.1231999,3.0756,-0.90050715,-2.7273788,12.376749,-1
158,159,1580695718464,-0.7259,-1.168,2.1799,-0.9510248,-2.5948358,11.639508,-1
159,160,1580695718474,-0.8092,-1.2253,1.5346999,-1.0579786,-2.4595537,11.025941,-1
160,161,1580695718484,-0.99619997,-1.2351999,0.94339997,-1.224184,-2.2427254,10.576673,-1
161,162,1580695718494,-1.063,-1.2745,0.7,-1.2282447,-2.133885,10.391946,-1
162,163,1580695718504,-1.1158,-1.3032,0.4606,-1.4093708,-1.9713283,10.174773,-1
163,164,1580695718515,-1.4472,-1.2745,0.2541,-1.8167872,-1.8146038,9.927375,-1
164,165,1580695718525,-1.8819,-1.2890999,-0.2436,-2.265662,-1.6211521999999998,9.284552,-1
165,166,1580695718535,-2.1518,-1.2092999,-0.8172,-2.3193015999999997,-1.3909642,8.927481,-1
166,167,1580695718545,-2.1518,-1.2092999,-0.8172,-1.9887005000000002,-1.1271327,8.916457000000001,-1
167,168,1580695718556,-1.5073999,-0.93689996,-0.9568,-1.4577432,-0.6953911,8.765948,-1
168,169,1580695718567,-0.8516,-0.57049996,-1.1021,-0.6585300000000001,-0.15729906,8.667009,-1
169,170,1580695718577,0.15779999,-0.23539999,-1.1086999,0.4514315,0.20608331,8.739305499999999,-1
170,171,1580695718587,1.1661,0.0175,-1.0943,1.2812332,0.65656674,8.440452,-1
171,172,1580695718597,1.7168,0.17719999,-1.4800999,1.333896,0.6612306,7.780887,-1
172,173,1580695718607,1.6502,-0.0466,-2.0895998,0.8318414000000001,0.38249764,7.526355000000001,-1
173,174,1580695718617,0.83159995,-0.5294,-2.3444998,-0.44394246,0.09225338,7.448783000000001,-1
174,175,1580695718628,-0.1697,-0.8268,-2.2746,-1.1030948999999999,-0.03982994,7.7282147,-1
175,176,1580695718638,-0.7359,-1.0608,-1.9883,-1.5616419,-0.07767748,7.689936599999999,-1
176,177,1580695718648,-1.1981,-1.2004,-2.0830998,-1.9318046999999998,-0.19599894,7.620639,-1
177,178,1580695718658,-1.5459,-1.4734,-2.1076,-2.1564958,-0.4402937,7.433718700000001,-1
178,179,1580695718668,-1.7737,-1.8362999,-2.3855,-2.1595414,-0.56160307,6.8179393,-1
179,180,1580695718679,-1.7114999,-2.0307,-3.0246,-1.787262,-0.38681679999999996,6.188159,-1
180,181,1580695718689,-1.2752,-1.9418999,-3.5942998,-1.1651046999999999,-0.0356353,5.5978928,-1
181,182,1580695718699,-0.65169996,-1.7129999,-4.184,-0.6622458000000001,0.32576466,5.012587,-1
182,183,1580695718709,-0.2534,-1.4877,-4.628,-0.49233407,0.5779316,4.9497824,-1
183,184,1580695718719,-0.049399998,-1.31,-4.6825,-0.46347916,0.70990956,5.277596,-1
184,185,1580695718730,0.0145,-1.2186999,-4.3286,-0.6780858000000001,0.72133464,5.8805904,-1
185,186,1580695718740,-0.1647,-1.2384,-3.7226,-0.91989064,0.8233468,6.2212086,-1
186,187,1580695718750,-0.3918,-1.2868998999999999,-2.9745,-0.9551045,0.7272053,6.6198619999999995,-1
187,188,1580695718760,-0.578,-1.4080000000000001,-2.7517998,-1.1364031,0.63706833,6.836900999999999,-1
188,189,1580695718770,-0.4743,-1.4110999,-2.665,-1.0161375,0.6739008000000001,6.9048869999999996,-1
189,190,1580695718781,0.48189998,-1.1861,-2.5084,-0.04160165,0.9522792999999999,7.058499,-1
190,191,1580695718791,0.48189998,-1.1861,-2.5084,1.0356263,1.2949088,7.5048259999999996,-1
191,192,1580695718801,1.5030000000000001,-0.9097,-2.0539,1.14937,1.5028883,7.6244309999999995,-1
192,193,1580695718811,1.2256,-0.8822,-2.283,0.8097765,1.4426118,7.2420197,-1
193,194,1580695718821,0.574,-0.98819995,-3.1179,0.05204037,1.398415,6.241214299999999,-1
194,195,1580695718832,-0.0392,-1.1801,-3.7758,-0.5837351,1.2590531999999999,5.583278,-1
195,196,1580695718842,-0.539,-1.3838999,-4.3564,-1.0185316999999998,1.137284,5.0280533,-1
196,197,1580695718852,-0.72529995,-1.4884,-4.5474,-1.1507396,1.1023383999999998,4.9608817,-1
197,198,1580695718862,-0.74939996,-1.5699999,-3.9475,-1.1422354,1.0696336000000002,5.7206388,-1
198,199,1580695718872,-0.73109996,-1.6121,-2.9385998,-1.1058531,1.0564368,6.655785000000001,-1
199,200,1580695718882,-0.67859995,-1.5762999,-2.5181,-1.0469749,1.1880986999999998,6.870458599999999,-1
200,201,1580695718892,-0.67859995,-1.5762999,-2.5181,-0.8071716,1.4006653999999998,6.222664,-1
201,202,1580695718902,-0.102,-1.1998,-3.645,-0.37476918,1.6074096000000002,5.724182,-1
202,203,1580695718912,0.3886,-1.1057999,-3.6088998,0.20147687,1.7455933000000001,5.8926573,-1
203,204,1580695718922,1.0417,-0.88729995,-2.9989,0.71963,1.9229174999999998,6.402305999999999,-1
204,205,1580695718932,1.2710999,-0.60649997,-2.3534,0.94853485,2.2115432999999998,7.193245,-1
205,206,1580695718943,1.1719998999999999,-0.7126,-1.6503999,0.686772,2.0330987,7.94535,-1
206,207,1580695718953,0.72029996,-0.75189996,-1.3784,0.27888620000000003,2.0222863999999996,8.013133999999999,-1
207,208,1580695718963,0.354,-0.88619995,-1.5359,-0.094293244,1.8010813,7.830198299999999,-1
208,209,1580695718973,0.1343,-1.0658,-1.6724,-0.2640996,1.7390139999999998,7.695825999999999,-1
209,210,1580695718983,0.019299998999999998,-0.9255,-1.7005,-0.20098844,1.9160796000000002,7.854887,-1
210,211,1580695718994,0.4098,-0.77529997,-1.219,0.29267678,2.1274207,8.385327,-1
211,212,1580695719004,0.7525,-0.4761,-0.856,0.60897,2.41845,8.618159,-1
212,213,1580695719014,0.95519996,-0.2608,-0.68009996,0.80086046,2.5723877,8.812041,-1
213,214,1580695719024,1.1422,-0.1849,-0.48659998,0.99582505,2.6702533,8.979358,-1
214,215,1580695719034,1.2631999,0.0252,-0.33399999999999996,1.1489677,2.8830497000000004,9.156939999999999,-1
215,216,1580695719044,1.4771,0.1013,-0.093899995,1.3211683,2.8420036,9.393459,-1
216,217,1580695719054,1.5119,-0.0189,0.254,1.316064,2.7523742,9.827269,-1
217,218,1580695719064,1.4461,0.0446,0.6124,1.275353,2.7358446,10.163722,-1
218,219,1580695719074,1.4473,-0.0424,0.8445,1.2250459999999999,2.636246,10.291294,-1
219,220,1580695719084,1.2818999,-0.095,0.8131,1.0530082,2.6382953999999996,10.219918,-1
220,221,1580695719094,1.2135,-0.015,0.7144,1.1036408000000002,2.737693,10.058002,-1
221,222,1580695719104,1.3104,0.0422,0.5283,1.1703625,2.7718724999999997,9.8960495,-1
222,223,1580695719115,1.3093,0.107999995,0.3525,1.1589756000000002,2.8529212000000004,9.677881,-1
223,224,1580695719125,1.2533,0.1655,0.10759999599999999,1.1222389,2.9055362000000002,9.456283,-1
224,225,1580695719135,1.2705,0.2171,-0.049999997000000004,1.1549534,2.956523,9.373453,-1
225,226,1580695719145,1.2799,0.2529,-0.0224,1.1183795,2.9241247,9.50498,-1
226,227,1580695719155,1.1919,0.1847,0.13149999,0.97070515,2.8509004,9.657041,-1
227,228,1580695719165,0.94659996,0.1381,0.3437,0.6511654,2.7774463,9.920394,-1
228,229,1580695719176,0.6699,0.062099997000000004,0.6148,0.5061343,2.7015884,10.120194,-1
229,230,1580695719186,0.4675,-0.0263,0.8376,0.3066302,2.6491745,10.270819,-1
230,231,1580695719196,0.42769998,0.0064,0.7384,0.38856936,2.6676004,10.026074000000001,-1
231,232,1580695719206,0.5125,0.0229,0.4155,0.4553293,2.6961012,9.701976,-1
232,233,1580695719216,0.49929997,0.055099998,-0.07279999599999999,0.46739605,2.7173232999999994,9.060061,-1
233,234,1580695719226,0.5263,0.0286,-0.5123,0.44718900000000006,2.6735284,8.872663000000001,-1
234,235,1580695719236,0.47419998,-0.0128999995,-0.5509,0.3724995,2.6668532000000003,8.981991,-1
235,236,1580695719246,0.3917,-0.0196,-0.39499998,0.3396989,2.6477668,9.145669,-1
236,237,1580695719256,0.35819998,-0.0122,-0.2402,0.32115820000000006,2.6903646,9.302747,-1
237,238,1580695719266,0.3448,0.0563,-0.0567,0.36990416,2.7576416,9.53554,-1
238,239,1580695719276,0.3992,0.13599999,0.1362,0.37322733,2.8520689999999997,9.6195,-1
239,240,1580695719287,0.34579998,0.23429999,0.1628,0.37899256,2.8527869999999997,9.6019945,-1
240,241,1580695719297,0.38079998,0.1741,0.1899,0.3669162,2.8029973999999998,9.723984,-1
241,242,1580695719307,0.2807,0.23079999,0.2859,0.1495993,2.7918594,9.704877,-1
242,243,1580695719317,0.0299,0.15969999,0.20539999,-0.14664964,2.6178967999999996,9.57266,-1
243,244,1580695719327,-0.2359,-0.0298,0.0958,-0.30482018,2.5296464,9.5096445,-1
244,245,1580695719338,-0.33679998,-0.0537,0.0256,-0.24892993,2.6309116,9.447348,-1
245,246,1580695719348,-0.2188,0.037699997,-0.0143,-0.10050859,2.6088755,9.520811,-1
246,247,1580695719358,-0.1468,0.020299999,0.0635,-0.0073645646,2.7229349999999997,9.525360000000001,-1
247,248,1580695719368,-0.065299995,0.161,0.033299997000000005,0.20375614,2.8817952,9.443383,-1
248,249,1580695719378,0.1273,0.3146,-0.0173,0.37825513,2.9962093999999997,9.568839,-1
249,250,1580695719389,0.3102,0.44169998,0.1371,0.7533978,3.09056,9.832316,-1
250,251,1580695719399,0.6739,0.53929996,0.429,0.9457863000000001,3.158067,10.363475,d
251,252,1580695719409,0.8046,0.6249,1.0060999,1.0927040000000001,3.1823921000000004,10.85442,-1
252,253,1580695719419,0.9018,0.6286,1.3783,1.2247299999999999,3.1386836,10.93949,-1
253,254,1580695719429,1.0502,0.5693,1.4771,1.4426885,3.1295855,11.199328,-1
254,255,1580695719440,1.1941,0.5670000000000001,1.7234,1.7948756000000001,3.1957228,11.43103,-1
255,256,1580695719449,1.6538999,0.6315,1.9702,2.413202,3.2255642000000004,11.357413000000001,-1
256,257,1580695719459,2.2168,0.66859996,1.8075,2.8996272000000003,3.2799318,10.967206,-1
257,258,1580695719469,2.6668,0.6681,1.4118998999999999,3.5266113,3.0813088,10.629652,-1
258,259,1580695719479,3.3088,0.4192,1.1645,4.0049443,2.945548,10.744104,-1
259,260,1580695719490,3.6446998,0.28129998,1.3774998999999999,4.143243,2.8962083,11.570679,-1
260,261,1580695719500,3.7082998999999996,0.2394,2.1278,4.671604599999999,3.0142328999999997,12.729003,-1
261,262,1580695719510,4.2029,0.35079998,3.2882998,5.481889,3.3330257000000003,13.354312,-1
262,263,1580695719521,5.7124,0.7434,3.9926,6.225738,3.4270508,13.424519,-1
263,264,1580695719532,6.1807,0.585,3.9208,6.7694135,3.2868366,13.299885999999999,-1
264,265,1580695719542,6.4733996,0.45459998,3.6659,7.0818477,3.1461916000000003,13.063435,-1
265,266,1580695719552,6.4733996,0.45459998,3.6659,7.207878599999999,2.9535735,13.04047,-1
266,267,1580695719562,6.5652,-0.0764,3.5993998,7.121390299999999,2.7219298,12.952794,-1
267,268,1580695719572,6.5758996,-0.23629999,3.3974,7.218202000000001,2.6850014,12.693301,-1
268,269,1580695719583,6.8932,-0.2341,3.0346,7.6009583,2.7772740000000002,12.284151,-1
269,270,1580695719593,7.1916,-0.22209999,2.4896,7.892668,2.8737602000000004,11.614263000000001,-1
270,271,1580695719603,7.2509,-0.41959998,1.6222999,7.8930125,2.6838424,10.520064,-1
271,272,1580695719613,7.1098,-0.8009,0.7339,7.7282248,2.3316076,9.588308,-1
272,273,1580695719623,6.8736997,-1.3148,-0.1567,7.3344164,1.9298128,8.642609,-1
273,274,1580695719634,6.3213,-1.7469999999999999,-1.1172,6.6179757,1.5579071000000002,7.704847999999999,-1
274,275,1580695719644,5.4814,-2.1977,-1.8518,5.582358999999999,1.2196255,7.037574,-1
275,276,1580695719654,4.286299700000001,-2.6001,-2.4671,4.278084,0.91487235,6.3363504,-1
276,277,1580695719664,3.0511,-2.9975998,-3.1471999,3.005039,0.60531163,5.6894855,-1
277,278,1580695719674,1.7894,-3.4498,-3.5972998,1.7107338,0.17778385,5.2930150000000005,-1
278,279,1580695719685,0.4394,-4.0899,-4.0155,0.28091648,-0.36106476,4.6791606,-1
279,280,1580695719695,-0.9252,-4.5215,-4.8554,-1.1555663,-0.57620776,3.4272422999999996,-1
280,281,1580695719705,-1.8589,-4.769,-5.8547997,-2.0038511999999997,-0.7821857,2.5909286,-1
281,282,1580695719715,-2.7386,-5.0134,-6.6043,-2.8984206,-0.7170347,1.7160009999999999,-1
282,283,1580695719725,-3.4596,-4.8231997,-7.5259,-3.5001025,-0.3847482,0.85287213,-1
283,284,1580695719735,-4.000499700000001,-4.5408998,-8.1297,-4.0863085,-0.036343983999999996,0.518134,-1
284,285,1580695719746,-4.5397997000000005,-4.2507997,-8.3393,-4.559039,0.18899828,0.54798484,-1
285,286,1580695719756,-5.0021,-4.1611,-8.0658,-5.1132483,0.1464198,1.1477323999999998,-1
286,287,1580695719766,-5.6665,-4.2360997000000005,-7.3465,-5.9522533,0.14341270000000003,1.8637613999999998,-1
287,288,1580695719776,-6.6245,-4.2574997,-6.6878,-6.9562287,0.06811982400000001,2.4735646,-1
288,289,1580695719786,-7.7138995999999995,-4.3599997,-6.066,-8.121314,-0.04394797,3.005566,-1
289,290,1580695719796,-9.002999,-4.4771,-5.6169,-9.4313545,-0.30060637,3.2622244,-1
290,291,1580695719806,-10.5812,-4.7437,-5.5085,-11.312009,-0.57319105,3.1111503,-1
291,292,1580695719816,-12.792,-5.1303997,-5.8543,-13.538157,-1.0910856000000002,2.5763142000000006,-1
292,293,1580695719827,-14.9626,-5.7858996,-6.2731,-15.749757999999998,-2.0653725,2.6886406000000003,-1
293,294,1580695719837,-16.6722,-6.4810996,-5.9873,-16.849644,-2.3312151,3.620052,-1
294,295,1580695719847,-17.586899,-6.5196,-4.9261,-16.791760999999997,-2.2976387000000003,5.409680000000001,-1
295,296,1580695719857,-17.350399,-6.3967,-3.0941,-15.950257999999998,-2.4138532,7.309076299999999,-1
296,297,1580695719867,-16.4273,-6.3349,-1.3305,-14.758873999999999,-2.427577,8.81748,-1
297,298,1580695719877,-15.238898999999998,-6.1775,0.0558,-13.894404999999999,-2.5029939999999997,10.422717,-1
298,299,1580695719888,-14.578899,-6.0379,1.4749,-13.917035,-2.1613896,11.579049000000001,-1
299,300,1580695719898,-14.7203,-5.4934998,2.5231,-14.252778,-2.2534132000000002,11.5920925,-1
300,301,1580695719908,-15.087299,-5.6245,2.2526,-14.356151,-2.894992,11.030403,-1
301,302,1580695719918,-15.1383,-6.1471,1.6581,-13.830824,-3.3301047999999995,10.526894,-1
302,303,1580695719928,-14.1993,-6.6489,0.9956,-12.092194000000001,-4.228438,10.057917,-1
303,304,1580695719939,-12.648399000000001,-7.2479,0.7478,-10.210542,-4.5277514000000005,10.787688000000001,-1
304,305,1580695719949,-10.6455,-7.2256,1.7457999,-8.187882,-4.321802,12.4557,-1
305,306,1580695719959,-7.9143,-6.4747,4.0706997000000005,-4.3580027,-2.953851,15.95544,-1
306,307,1580695719969,-5.2362,-5.2639,6.4586997,-2.6651487,-2.222116,16.923176,-1
307,308,1580695719980,-3.0988,-4.2102,7.4581,0.078826696,-1.9500965000000001,16.54628,-1
308,309,1580695719990,-0.79899997,-3.8686998,6.9577,2.6949039,-2.1106803,15.619322,-1
309,310,1580695720000,4.6239,-3.4940998999999997,6.3092,5.548457,-1.8697853,15.939301500000001,-1
310,311,1580695720010,7.639199700000001,-2.4712,8.2104,8.605326,-1.0054976999999998,17.867217999999998,-1
311,312,1580695720020,9.7195,-1.1560999,10.1497,10.691021000000001,0.17240167,19.829582000000002,-1
312,313,1580695720030,9.7195,-1.1560999,10.1497,11.622125,1.1376671999999999,20.738526999999998,-1
313,314,1580695720041,10.6782,-0.0453,11.0398,11.981764,1.5164107,20.115498000000002,-1
314,315,1580695720051,11.4351,0.0925,8.1444,12.286947,1.0710509,17.879362,-1
315,316,1580695720061,12.171599,-0.47669998,6.7134,12.969467,0.44956407,16.457435999999998,-1
316,317,1580695720071,13.2829,-0.534,7.0305995999999995,14.0597,0.32764173,16.782463,-1
317,318,1580695720082,13.2829,-0.534,7.0305995999999995,15.383866000000001,1.0319201,18.300205,-1
318,319,1580695720092,16.0046,1.0107,9.943299,16.990816,1.9412091,19.838882,-1
319,320,1580695720102,16.8899,1.8004999,9.7745,17.71855,2.6732507,19.281073000000003,-1
320,321,1580695720112,16.8358,2.1956,7.9914,17.577599,2.9785116,17.746168,-1
321,322,1580695720123,16.353899,1.8714998999999999,5.3992,17.043267999999998,2.593428,14.5974,-1
322,323,1580695720133,15.756398999999998,1.0868,2.8019,16.538427,2.0319877,12.539411999999999,-1
323,324,1580695720143,14.656899,0.5085,1.1883,15.304331,1.5012313999999998,10.766897,-1
324,325,1580695720153,14.0545,0.18869999,0.9174,14.778976,1.3887901000000002,10.769282,-1
325,326,1580695720163,13.725598999999999,0.3114,1.2904999,14.530160999999998,1.5848178999999998,11.020942,-1
326,327,1580695720173,13.2877,0.3475,1.2393999,13.870377,1.6293883,10.675851,-1
327,328,1580695720184,12.5064,0.19569999,0.4917,12.995517,1.4449103,9.811027000000001,-1
328,329,1580695720194,11.642099,-0.14109999,-0.3812,12.153045,1.1976944999999999,8.919302,-1
329,330,1580695720204,10.8681,-0.4405,-1.3485,11.479805,0.98019576,7.94965,-1
330,331,1580695720214,10.3265,-0.7603,-2.2229,10.928832,0.79355335,6.9061804,-1
331,332,1580695720225,9.768499,-0.977,-3.0644999,10.449571,0.59664464,6.293418,-1
332,333,1580695720235,8.972000000000001,-1.4648,-3.6109998,9.193522999999999,0.07653784,5.734744999999999,-1
333,334,1580695720245,7.5463996,-1.9813,-3.9824998,7.888903999999999,-0.3658532,5.4958324,-1
334,335,1580695720255,5.8036,-2.7089,-4.1814,6.206795,-1.0081984,5.2614207,-1
335,336,1580695720265,4.2629,-3.3421998,-4.4533,4.643104,-1.6467797999999998,5.059705,-1
336,337,1580695720275,3.2236998,-3.8518999,-4.464699700000001,3.9217887000000005,-1.9553063000000002,5.1653757,-1
337,338,1580695720286,2.6192,-4.053999999999999,-4.283,3.395064,-2.049513,5.3958216,-1
338,339,1580695720296,2.2198,-4.1636,-3.9943,3.1388943,-2.140857,5.7083325,-1
339,340,1580695720306,1.8010999,-4.3652997000000004,-3.6273,2.4764569,-2.392727,5.9466795999999995,-1
340,341,1580695720316,1.1122,-4.5562,-3.6227998999999995,1.8014932000000001,-2.5468368999999997,5.7170663,-1
341,342,1580695720327,0.46739998,-4.7158,-3.9982998,0.99345005,-2.6699467,5.111161,-1
342,343,1580695720338,-0.268,-4.8381,-4.5594,0.14019486,-2.6901634,4.244776,-1
343,344,1580695720348,-1.1462,-4.8582997,-5.416,-0.720626,-2.7188842,3.4881889999999998,-1
344,345,1580695720358,-1.9958999,-4.9249997,-6.1096997,-1.4997662,-2.8244302,3.2546492000000002,-1
345,346,1580695720368,-2.7779999,-5.0018997,-6.2401,-2.3178554,-2.8340645,3.3928137,-1
346,347,1580695720378,-3.5712998,-4.9996,-6.0622,-3.1642632,-3.0184849999999996,3.780933,-1
347,348,1580695720388,-4.450599700000001,-5.1485,-5.6721997,-4.299536,-3.081539,3.9856179,-1
348,349,1580695720399,-5.6006,-5.1036997,-5.5573997,-5.34133,-3.0480389999999997,3.9820075,-1
349,350,1580695720409,-6.5910997,-5.038,-5.5583,-6.203769,-2.9852152000000003,4.0341916,-1
350,351,1580695720419,-7.3206997000000005,-4.9021,-5.5172,-6.6299660000000005,-2.9153717,3.966857,-1
351,352,1580695720429,-7.8019,-4.7708,-5.5922,-6.8370934000000005,-3.0306284,3.7956044999999996,-1
352,353,1580695720439,-8.1521,-4.8455,-5.8245997,-7.467285,-3.0806673,3.6994822,-1
353,354,1580695720450,-9.4345,-4.8399997,-5.0966,-8.130087,-3.2564495,4.493505,-1
354,355,1580695720460,-9.4345,-4.8399997,-5.0966,-8.815499,-3.338293,5.508186299999999,-1
355,356,1580695720470,-11.096399,-4.9943,-2.7696998,-9.784824,-3.7385747000000005,6.875046,-1
356,357,1580695720480,-12.2483,-5.3519,-1.6638,-10.942536,-4.267358,8.001824000000001,-1
357,358,1580695720490,-13.3877,-6.4955997000000005,-1.749,-12.362192,-5.889094999999999,7.860901400000001,-1
358,359,1580695720500,-14.8438,-7.7639,-2.19,-13.513679000000002,-6.9885600000000005,7.503466,-1
359,360,1580695720511,-14.8438,-7.7639,-2.19,-14.358507000000001,-7.776827000000001,6.976454700000001,-1
360,361,1580695720521,-16.4951,-8.356299,-2.3957999,-15.0989,-7.7466693,7.493640400000001,-1
361,362,1580695720531,-16.4128,-7.6067995999999996,-0.7818,-14.864582999999998,-7.2741112999999995,8.899746,-1
362,363,1580695720541,-15.331799499999999,-6.8852,1.5659999999999998,-13.464991,-6.7030080000000005,11.661256,-1
363,364,1580695720551,-13.953199,-6.5056996,3.1274,-12.009517,-6.646256,13.006807,-1
364,365,1580695720561,-12.1201,-6.3131,3.9935,-10.519711000000001,-6.6937857,13.672405,-1
365,366,1580695720572,-9.9253,-5.9315,4.6681,-7.905022,-6.49726,14.442007,-1
366,367,1580695720582,-7.7735,-5.3217998,5.200999700000001,-5.8729385999999995,-6.0429554,14.926248000000001,-1
367,368,1580695720592,-6.3424997,-4.3546,5.482,-4.6593847,-5.2613444000000005,15.172217999999999,-1
368,369,1580695720602,-5.5894,-3.4234998,5.8620996,-3.9507203,-4.5614333,15.598127999999999,-1
369,370,1580695720612,-5.5894,-3.4234998,5.8620996,-3.250033,-4.1907625,16.166971,-1
370,371,1580695720623,-4.0462,-2.5734,7.2834997,-2.7271682999999998,-4.3171096,16.989313,-1
371,372,1580695720633,-3.8486998,-2.9113,7.6684,-2.5726845000000003,-4.9061885,17.26096,-1
372,373,1580695720643,-3.0574,-3.2273,7.7890997,-1.7474224999999999,-5.3063555000000004,17.293394,-1
373,374,1580695720653,-1.8743999,-3.2956998,7.2620997,-0.5152035,-5.6277914,16.4399,-1
374,375,1580695720663,-0.87009996,-3.4743998,6.5481,0.3032017,-5.851659,15.972131,-1
375,376,1580695720673,0.2681,-3.1947,6.6502,1.5348461000000002,-5.456606,16.425488,-1
376,377,1580695720684,1.8463999,-2.4043,7.6098,2.9652667,-4.731086299999999,17.510693,-1
377,378,1580695720694,3.3153,-1.5845,8.6988,4.14511,-4.132986,18.365595000000003,-1
378,379,1580695720705,4.2629,-1.0449,9.0494995,4.678299,-3.82671,18.260223,-1
379,380,1580695720715,4.4651,-0.8073,8.352799000000001,4.4442797,-3.7883932999999996,17.208745999999998,-1
380,381,1580695720725,4.1692,-0.88049996,6.8819,4.095329799999999,-3.9244508999999996,15.494584,-1
381,382,1580695720735,3.9836,-1.0478,4.9432,3.7616358,-4.1017269999999995,13.138345000000001,-1
382,383,1580695720745,3.8398,-1.1567,3.1495,3.7328669999999997,-4.1288967,12.030184,-1
383,384,1580695720755,4.1897,-1.0102,2.7039999999999997,4.431351,-3.6995301,12.488136,-1
384,385,1580695720766,5.2518997,-0.46089998,3.5714998,5.44497,-3.1664084999999997,13.521369,-1
385,386,1580695720776,6.3247,0.0503,4.4842997,6.063785,-2.8863826,13.913770000000001,-1
386,387,1580695720786,6.9757,0.34,4.554199700000001,6.432588,-2.6218903,13.565642,-1
387,388,1580695720796,7.3174996,0.56299996,4.021,6.6911526,-2.4106164,12.767626,-1
388,389,1580695720806,7.7882,0.7938,3.097,7.235182000000001,-2.1691852000000003,11.768813,-1
389,390,1580695720816,8.4432,1.0160999,2.2136,7.5002675000000005,-1.9299852,10.881723,-1
390,391,1580695720826,8.3567,1.1013,1.0598999,7.1023993,-1.9998096999999997,9.856296,-1
391,392,1580695720836,7.6282997,0.8441,0.0523,6.008843,-2.3855157000000005,9.070328,-1
392,393,1580695720847,6.7,0.4998,-0.2764,5.1296824999999995,-2.7077942000000004,9.025988,-1
393,394,1580695720857,5.8725,0.1417,-0.1401,4.3426795,-3.0152576,9.515917,-1
394,395,1580695720867,5.1983,-0.0265,0.60249996,3.8955480000000002,-3.1240883,10.783925,-1
395,396,1580695720877,4.9226,-0.1284,1.7169,3.6791217000000005,-3.2661126,11.597302,-1
396,397,1580695720887,4.7248,-0.2263,2.4348,3.4956877,-3.3462992,11.945295,-1
397,398,1580695720897,4.6013,-0.26479998,2.7275,3.5996629999999996,-3.2006838,12.003551,-1
398,399,1580695720908,4.7822,-0.0626,2.7007,3.9066187999999995,-2.9049423,11.494936000000001,-1
399,400,1580695720918,5.0394,0.2302,2.0488,3.7729169999999996,-2.7016362999999997,10.473014,-1
400,401,1580695720928,4.767299700000001,0.34309998,1.0188,3.0493224,-2.835635,9.788665,-1
401,402,1580695720938,3.9243,0.1556,0.41700000000000004,2.2146845,-2.8992633999999997,9.286102,-1
402,403,1580695720949,3.1002,0.0652,-0.1173,1.6324912,-3.0241067000000004,8.836836,-1
403,404,1580695720959,2.5075998,-0.081999995,-0.5139,1.1407796000000001,-3.0415554,8.730083,-1
404,405,1580695720969,2.0198998,-0.093499996,-0.5833,1.0781857,-2.8604677000000005,8.977739,-1
405,406,1580695720979,1.9935999,0.0626,-0.3441,1.3160926000000002,-2.7212400000000003,9.228977,-1
406,407,1580695720989,2.2175,0.1996,-0.100099996,1.4295107,-2.700056,9.399339,-1
407,408,1580695720999,2.3346,0.2348,0.07809999599999999,1.3716093,-2.7556877,9.51972,-1
408,409,1580695721010,2.2779,0.1828,0.1981,1.1436336,-2.8239896,9.563811,d
409,410,1580695721020,2.0514997999999998,0.1184,0.2386,0.8676683000000001,-2.8743255000000003,9.487292,-1
410,411,1580695721030,1.6001999,0.268,-0.099,0.7147074999999999,-2.6693432,9.226478,-1
411,412,1580695721040,1.6001999,0.268,-0.099,0.5828445,-2.6137595,9.186303,-1
412,413,1580695721051,1.4463999,0.3181,-0.1425,0.44837654,-2.3874214,9.130442,-1
413,414,1580695721061,1.3952999,0.588,-0.36569998,0.59028566,-2.347898,8.913219999999999,-1
414,415,1580695721071,1.318,0.4976,-0.5044,0.44161528,-2.4452555,8.838194999999999,-1
415,416,1580695721081,1.1784999,0.32619998,-0.46379998,0.34485123,-2.5952189999999997,8.876349000000001,-1
416,417,1580695721091,1.1784999,0.32619998,-0.46379998,0.18488024,-2.8118557999999996,9.017885,-1
417,418,1580695721101,0.7503,-0.044999998,-0.0018999999,-0.1886152,-3.0283012,9.405641000000001,-1
418,419,1580695721111,0.3771,-0.1723,0.3484,-0.57880306,-3.141116,9.7193,-1
419,420,1580695721122,0.099199995,-0.1366,0.5502,-0.79982615,-3.1104896,9.890255999999999,-1
420,421,1580695721132,0.051,-0.04,0.5529999999999999,-0.823749,-3.004273,9.855281,-1
421,422,1580695721142,0.0758,0.049,0.39589998,-0.7739975,-2.9449064999999996,9.647666000000001,-1
422,423,1580695721152,0.265,0.0642,0.0703,-0.54454684,-2.9107458999999998,9.3072,-1
423,424,1580695721163,0.5434,0.1278,-0.2554,-0.25298092,-2.850345,9.011833,-1
424,425,1580695721173,0.7387,0.1475,-0.4516,-0.10921389999999999,-2.8358552,8.853796,-1
425,426,1580695721183,0.7971,0.1179,-0.3692,-0.12891339,-2.9102382999999996,9.035363,-1
426,427,1580695721193,0.66819996,0.147,-0.126,-0.27886704,-2.8479989,9.287194,-1
427,428,1580695721203,0.53639996,0.22219999,0.2084,-0.39667132,-2.7917063,9.662317999999999,-1
428,429,1580695721214,0.5429999999999999,0.31039998,0.65209997,-0.3694349,-2.7209048,10.097631,-1
429,430,1580695721224,0.66389996,0.43609998,1.0167,-0.24438095,-2.6186533,10.332972999999999,-1
430,431,1580695721234,1.1034,0.6651,1.1831,0.328925,-2.4299998,10.511513,-1
431,432,1580695721244,1.4765999,0.6446,1.4063,0.60223746,-2.498522,10.75892,-1
432,433,1580695721254,1.666,0.66069996,1.5884999,0.73392814,-2.4449875,10.856622,-1
433,434,1580695721264,1.8694998999999999,0.75339997,1.7500999,1.0727459,-2.401298,11.185586,-1
434,435,1580695721275,2.2846,0.80009997,2.4122999,1.4670902,-2.3382921000000003,12.000888,-1
435,436,1580695721285,2.4953,1.0186,3.2335,1.5587211,-2.0055558999999996,12.977235,-1
436,437,1580695721295,2.585,1.2609,4.1843,1.7225707,-1.9556223000000001,13.905772,-1
437,438,1580695721305,2.835,1.2979,5.5085,1.9270738,-1.9490526000000001,15.195462,-1
438,439,1580695721315,2.8981,1.3277,6.5162997,1.8855776000000002,-1.9891314999999998,16.022964,-1
439,440,1580695721326,2.8911998,1.1945,6.9396996,1.9519543999999998,-2.2828807999999996,16.220285,-1
440,441,1580695721336,2.8711,0.90449995,6.9146,1.7040491000000002,-2.4855452000000002,15.835997,-1
441,442,1580695721346,2.4375,0.59749997,6.442,1.0850714,-2.922487,15.486884,-1
442,443,1580695721356,1.8170998999999999,0.104499996,6.2016,0.5137191,-3.280018,15.496154,-1
443,444,1580695721366,1.3468,-0.2057,6.3234,0.27956614,-3.4152712999999997,15.695784,-1
444,445,1580695721376,1.2386,-0.35349998,6.571399700000001,0.3473412,-3.5400956,16.058332,-1
445,446,1580695721387,1.3485999,-0.5766,6.954,0.35716704,-3.6647854,16.53546,-1
446,447,1580695721397,1.2505,-0.6825,7.4012,0.27816793,-3.5995002,16.930157,-1
447,448,1580695721407,1.1981,-0.6846,7.7551,0.33294725,-3.5863419000000003,17.215412,-1
448,449,1580695721417,1.1941998999999999,-0.8006,7.8394,0.30191840000000003,-3.6595757000000004,17.015572,-1
449,450,1580695721427,1.0904,-1.012,7.5375,-0.012516886999999999,-3.871836,16.552341000000002,-1
450,451,1580695721439,0.6735,-1.3679999,6.9680995999999995,-0.53102434,-4.1314154,15.822532999999998,-1
451,452,1580695721449,0.1136,-1.7779,6.1815996,-0.9142499,-4.379359,15.244523000000001,-1
452,453,1580695721459,-0.2444,-2.1501,5.621,-0.99225295,-4.3739,14.826343,-1
453,454,1580695721469,-0.2741,-2.2651,5.16,-0.8300601999999999,-4.2383213,14.129332999999999,-1
454,455,1580695721479,-0.1717,-2.4203,4.5041,-0.8693155,-3.9828887,13.443060000000001,-1
455,456,1580695721489,-0.21509999,-2.2349,3.8044998999999997,-1.2106903,-3.675502,12.633695,-1
456,457,1580695721500,-0.5678,-2.1062,2.9703999,-1.5973252,-3.4690833,12.06061,-1
457,458,1580695721509,-0.9493,-2.0774999,2.3648999,-1.8176109,-3.1839150000000003,11.519902,-1
458,459,1580695721519,-1.2242,-1.9124,1.6840998999999999,-2.1297286,-2.9487467,11.083928,-1
459,460,1580695721529,-1.5774,-1.8632,1.3009,-2.5556474,-2.6753862,10.648078,-1
460,461,1580695721540,-1.8994,-1.8105999,0.8822,-2.6280767999999997,-2.3541036,10.018604,-1
461,462,1580695721550,-1.7324,-1.3075,-0.43539998,-2.390735,-1.8306258000000002,9.343017999999999,-1
462,463,1580695721560,-1.7851,-1.0042,-1.1492,-2.434702,-1.3686981000000003,8.644716,-1
463,464,1580695721571,-1.7851,-1.0042,-1.1492,-2.2616107000000003,-0.95991206,8.422457000000001,-1
464,465,1580695721581,-1.3655,-0.4879,-1.3044,-1.9826576,-0.54106086,8.491813,-1
465,466,1580695721591,-1.1725999,-0.2978,-1.148,-1.7890146,-0.20036595,8.684977,-1
466,467,1580695721601,-1.431,-0.3906,-1.0972998999999999,-2.1160815,-0.19222566,8.654761,-1
467,468,1580695721611,-1.7112,-0.57519996,-1.3389,-2.323477,-0.26147556,8.422476,-1
468,469,1580695721622,-1.4693999,-0.6288,-1.4909999,-2.0890846,-0.19553925,8.301252999999999,-1
469,470,1580695721632,-0.9417,-0.5229,-1.8282,-1.4612386999999998,0.08231265,7.8854947,-1
470,471,1580695721642,-0.58,-0.5715,-2.0955,-1.1956643,0.08677544400000001,7.661359299999999,-1
471,472,1580695721652,-0.5717,-0.69439995,-2.1462998,-1.2293556,0.07786902,7.571337,-1
472,473,1580695721662,-0.76229995,-0.8461,-2.461,-1.4822981000000002,0.014250289,7.1936279999999995,-1
473,474,1580695721672,-1.0526999,-1.0467,-2.9315999,-1.7641532,-0.19430384,6.5542419999999995,-1
474,475,1580695721683,-1.2624999,-1.4104999,-3.5484998,-1.9830502,-0.35858437,6.0589676,-1
475,476,1580695721693,-1.4819,-1.4408,-4.1821,-2.1337411,-0.26296955,5.42325,-1
476,477,1580695721703,-1.1143,-1.2990999,-4.5653996,-1.7049589,0.0072496426,5.1329293,-1
477,478,1580695721713,-0.65349996,-1.0134,-4.3884,-1.2291831,0.4026473,5.523442299999999,-1
478,479,1580695721723,-0.3927,-0.82629997,-3.8595,-1.0745082000000001,0.57712716,5.910336,-1
479,480,1580695721733,-0.0916,-0.8064,-3.674,-0.6875956,0.58517164,5.9157853,-1
480,481,1580695721743,0.0638,-1.0383999,-4.1545997,-0.73144776,0.41344988,5.170393499999999,-1
481,482,1580695721754,-0.1061,-1.196,-4.9481,-0.90367705,0.31076738,4.612746,-1
482,483,1580695721764,-0.27699998,-1.3907,-4.9969,-1.0245938,0.23055205,4.7332125,-1
483,484,1580695721774,-0.5888,-1.4418,-4.6942,-1.4050611000000002,0.3196355,5.082584,-1
484,485,1580695721784,-0.89949995,-1.351,-4.3237,-1.5343768999999998,0.4463654,5.48865,-1
485,486,1580695721794,-0.7492,-1.2491,-4.042,-1.1539382,0.6989728000000001,5.5453925,-1
486,487,1580695721805,-0.22919999,-1.0011,-4.2304,-0.5487605999999999,0.9251004,5.3391943,-1
487,488,1580695721815,0.2033,-1.0552,-4.232199700000001,-0.2702,0.7113269,5.633863400000001,-1
488,489,1580695721825,0.098699994,-1.4160999,-3.7640998,-0.64019036,0.31478006,6.194776999999999,-1
489,490,1580695721836,-0.40359998,-1.8542999,-3.1501,-1.0613591999999998,0.029285876000000002,6.6073937,-1
490,491,1580695721845,-1.0041,-2.0392,-2.8504999,-1.6715741999999998,-0.08306922,6.8606997000000005,-1
491,492,1580695721855,-1.5531,-2.1636,-2.7763,-2.1657088,-0.024976312999999997,6.439492700000001,-1
492,493,1580695721865,-1.7737,-1.9978,-3.4266,-2.1630464,0.34139400000000003,5.7034574000000005,-1
493,494,1580695721875,-1.6125,-1.6078,-4.1136,-1.6765254,0.762649,5.359783999999999,-1
494,495,1580695721885,-1.0049,-1.2919999,-4.1293,-1.161159,0.9393028,5.5916295,-1
495,496,1580695721895,-0.39949998,-1.1682,-3.6459,-0.58317006,0.8289588,6.3728576,-1
496,497,1580695721906,-0.0385,-1.436,-2.8902,-0.38972816,0.6076866999999999,7.103826,-1
497,498,1580695721916,-0.005,-1.5884,-2.2240999,-0.5893470999999999,0.6801161,7.6054406000000006,-1
498,499,1580695721926,-0.26569998,-1.3246,-1.8822999,-0.85404044,1.075935,7.7949557,-1
499,500,1580695721936,-0.4298,-0.95129997,-1.7070999,-0.9470886999999999,1.322806,7.978178999999999,-1
500,501,1580695721946,-0.48259997,-0.7047,-1.5416,-0.9673629000000001,1.4423437,8.061354,-1
501,502,1580695721957,-0.3989,-0.6759999999999999,-1.5324999,-0.88692725,1.3704602,7.9055295,-1
502,503,1580695721967,-0.3944,-0.8304,-1.7579,-0.98620045,1.1667328000000001,7.693154300000001,-1
503,504,1580695721977,-0.4464,-0.98149997,-1.865,-0.91668236,1.0786548999999999,7.8638606,-1
504,505,1580695721987,-0.39029998,-1.0536,-1.5315,-0.9559951999999999,1.1959325,8.389301,-1
505,506,1580695721997,-0.4768,-0.88379997,-1.1305,-0.94525,1.438695,8.691604,-1
506,507,1580695722007,-0.391,-0.6274,-0.8188,-0.76127,1.599681,8.989269,-1
507,508,1580695722018,-0.19039999,-0.46109998,-0.5373,-0.66311723,1.7160201000000002,9.09832,-1
508,509,1580695722028,-0.087,-0.341,-0.5205,-0.5574564000000001,1.7693629000000002,8.922644,-1
509,510,1580695722040,0.0932,-0.2741,-0.6890000000000001,-0.42933783,1.8494728999999999,8.895666,-1
510,511,1580695722050,0.1152,-0.076,-0.4946,-0.49822378,1.9552296000000002,9.092019,-1
511,512,1580695722060,0.1152,-0.076,-0.4946,-0.5801246,1.8603522000000001,9.229188,-1
512,513,1580695722070,-0.0275,-0.23449999,-0.3469,-0.57736653,1.8240081999999997,9.232434,-1
513,514,1580695722080,-0.0275,-0.23449999,-0.3469,-0.45124,1.8645468999999997,9.127377000000001,-1
514,515,1580695722091,0.0695,-0.20459999,-0.4544,-0.24299233,1.9464765,9.409308,-1
515,516,1580695722101,0.4886,0.0444,0.22839999,-0.028653806,2.1023104,9.824166,-1
516,517,1580695722111,0.61539996,0.2656,0.3041,0.117488265,2.3003009999999997,9.901959,-1
517,518,1580695722121,0.655,0.30719998,0.18429999,0.15159127,2.3351512000000003,9.769339,-1
518,519,1580695722131,0.5816,0.276,0.1829,0.022543802999999998,2.2797205000000003,9.775171,-1
519,520,1580695722142,0.3813,0.2199,0.21159999,-0.16802508,2.2386553,9.826799000000001,-1
520,521,1580695722152,0.3166,0.2758,0.32899999999999996,-0.19733967,2.2899678,9.925211000000001,-1
521,522,1580695722162,0.36389998,0.34719998,0.3294,-0.10631213,2.3729317,9.925488,-1
522,523,1580695722172,0.4378,0.31739998,0.34019998,-0.0030933088,2.3480031,9.930632000000001,-1
523,524,1580695722183,0.5414,0.3249,0.1063,0.14413093,2.3537014,9.620410000000001,-1
524,525,1580695722192,0.7033,0.2759,-0.1864,0.33821452,2.3160167,9.339063000000001,-1
525,526,1580695722203,0.9546,0.3217,-0.3035,0.65501523,2.4123976000000003,9.364384,-1
526,527,1580695722213,1.1740000000000002,0.385,-0.0297,0.7829135,2.4412045,9.704312,-1
527,528,1580695722223,1.0655999,0.3655,0.3019,0.5134029999999999,2.3952167,10.008549,-1
528,529,1580695722233,0.80329996,0.3373,0.5354,0.2793842,2.326216,10.17098,-1
529,530,1580695722243,0.4506,0.1978,0.6422,-0.102720834,2.1917767999999995,10.233249,-1
530,531,1580695722253,0.1981,0.1591,0.6422,-0.33893278,2.2049832,10.184819000000001,-1
531,532,1580695722264,0.122099996,0.1514,0.46699998,-0.30912018,2.1520328999999996,9.974063000000001,-1
532,533,1580695722274,0.2056,0.08800000000000001,0.2536,-0.21294987,2.140809,9.8056345,-1
533,534,1580695722284,0.23879999,0.1595,0.2173,-0.12077311,2.2592453999999997,9.75257,-1
534,535,1580695722294,0.3737,0.163,0.0241,0.005401319,2.2155175,9.516645,-1
535,536,1580695722305,0.4915,0.0726,-0.15959999,0.15627433,2.1673944,9.394541,-1
536,537,1580695722315,0.5938,0.0779,-0.2364,0.15093048,2.1892869999999998,9.303169,-1
537,538,1580695722326,0.54859996,0.078999996,-0.2356,0.042300752999999996,2.17405,9.446792,-1
538,539,1580695722337,0.46519998,0.103199996,-0.0491,-0.12097422,2.2477436,9.638625,-1
539,540,1580695722347,0.29889998,0.1752,0.10789999,-0.28653806,2.2519383,9.720535,-1
540,541,1580695722357,0.20189999,0.1437,0.1678,-0.38951746,2.1839619999999997,9.793386,-1
541,542,1580695722367,0.0646,0.0458,0.2091,-0.48132074,2.0951085,9.689391,-1
542,543,1580695722377,0.0263,-0.060099997,0.0655,-0.42001000000000005,2.0393715,9.579833,-1
543,544,1580695722387,0.0607,-0.1033,0.0209,-0.56401646,2.0641563,9.604523,d
544,545,1580695722398,-0.1548,-0.106,-0.0021,-0.8893214,2.08376,9.341772,-1
545,546,1580695722408,-0.5068,-0.118599996,-0.2622,-1.160843,2.07154,9.177280999999999,-1
546,547,1580695722418,-0.7542,-0.1633,-0.3938,-1.3610175,2.086202,8.974914,-1
547,548,1580695722428,-0.90749997,-0.16669999,-0.653,-1.2960293,2.0418901000000003,8.494397,-1
548,549,1580695722439,-0.7829,-0.2287,-1.1474999,-1.1160523999999998,2.0683029,8.079703,-1
549,550,1580695722449,-0.6295,-0.21069999,-1.5148,-1.0705912,2.0770562,7.7665415,-1
550,551,1580695722459,-0.6089,-0.2504,-1.8334999,-1.262271,1.8655237,7.3826265,-1
551,552,1580695722469,-0.7924,-0.46649998,-2.1526,-1.6221675,1.6512522,7.218336,-1
552,553,1580695722479,-1.2978,-0.7299,-2.3646,-2.2851696,1.4045823999999998,6.908325,-1
553,554,1580695722489,-2.0097,-0.9982,-2.6759,-3.2150202,1.0931828000000001,6.6412954,-1
554,555,1580695722500,-3.3339999,-1.4685,-2.9118,-3.7572687000000005,0.8935831,6.6154665999999995,-1
555,556,1580695722510,-3.3339999,-1.4685,-2.9118,-3.9498102999999993,0.87894017,6.879355400000001,-1
556,557,1580695722520,-3.7091,-1.4045999,-2.4083997999999998,-4.120851999999999,0.9346771999999999,7.1168795,-1
557,558,1580695722530,-3.7091,-1.4045999,-2.4083997999999998,-4.2064304,0.78735715,7.1472955,-1
558,559,1580695722540,-3.8144998999999995,-1.5336,-2.3817,-4.229367,0.54514056,6.7966027,-1
559,560,1580695722550,-3.9956,-2.3102999,-3.6266,-4.3285922999999995,0.034380738,5.907271400000001,-1
560,561,1580695722561,-4.2139,-2.7793999,-4.5944,-4.5075345,-0.44454579999999994,4.9365760000000005,-1
561,562,1580695722571,-4.6925,-3.1032,-5.7282996,-5.0371227,-0.7803278,3.6462830000000004,-1
562,563,1580695722581,-5.2156997,-3.1943998,-6.0007997,-5.479379,-0.831468,3.5842445,-1
563,564,1580695722591,-5.5250998,-3.1906,-5.473099700000001,-5.6795160000000005,-0.84158105,4.176254,-1
564,565,1580695722601,-5.6228,-3.3774998,-5.027199700000001,-5.701781700000001,-1.0321788,4.506951,-1
565,566,1580695722611,-5.4992,-3.6253,-5.0537,-5.5354137,-1.3061136,4.480212,-1
566,567,1580695722622,-4.9585,-3.8827998999999997,-5.1485,-4.679132,-1.6534357,4.3314176,-1
567,568,1580695722632,-4.9585,-3.8827998999999997,-5.1485,-3.888356,-1.7686351999999999,4.0790205,-1
568,569,1580695722642,-2.7417998,-4.2376,-5.9774,-2.3394895,-1.9648926,3.3848457,-1
569,570,1580695722652,-2.4305,-4.0432997,-6.5329999999999995,-2.1510372,-1.7746206999999998,3.011264,-1
570,571,1580695722662,-2.7854997999999997,-3.9462,-5.9876,-2.430086,-1.6686915,3.8926367999999996,-1
571,572,1580695722673,-3.6973998999999997,-3.8365998,-4.2448,-3.2760243,-1.5752795,5.5491660000000005,-1
572,573,1580695722683,-4.4748,-3.8602998,-3.3255,-3.689283,-1.6265919,6.205694,-1
573,574,1580695722693,-3.6855,-4.0506,-2.7522,-1.8582261000000002,-1.8696799,7.0021496,-1
574,575,1580695722703,-1.4619,-3.8881,-2.2942,0.10031705,-1.7403452000000001,7.2276735,-1
575,576,1580695722713,0.7464,-3.5712,-2.319,2.7651114,-1.4140252,7.440528,-1
576,577,1580695722723,2.6432,-2.8041,-1.3589,4.5201473,-0.56438994,9.008605000000001,-1
577,578,1580695722734,4.4228997,-1.5171,0.9525,6.2208734,0.5947293,11.711286,-1
578,579,1580695722744,5.8967,-0.2051,3.7925,7.3904309999999995,1.5918376,14.514915,-1
579,580,1580695722754,6.7865,0.8487,6.0829,8.220539,2.2162743,16.24438,-1
580,581,1580695722764,7.811899700000001,1.2286,6.6618,9.33709,2.2732275,16.104885,-1
581,582,1580695722774,8.8775,1.4576,5.7818,10.369316,2.4107790000000002,15.124986999999999,-1
582,583,1580695722784,9.7269,1.5532,5.1618,11.210649,2.2821627,14.988182,-1
583,584,1580695722795,10.4014,1.5687,5.9028997,11.8601,2.3570342,16.289497,-1
584,585,1580695722805,11.076699000000001,1.9911,7.7078,12.6463175,2.8008425,18.537432,-1
585,586,1580695722815,11.6755,2.4965,9.4205,12.961106,3.0442276,19.60042,-1
586,587,1580695722825,12.0161,2.852,10.1046,13.189916,3.1762917,19.73254,-1
587,588,1580695722835,12.269,2.8495998,9.380199000000001,13.228788,2.8801193,18.563042000000003,-1
588,589,1580695722845,12.179199,2.6257,8.6202,13.072149000000001,2.6446447,18.362532,-1
589,590,1580695722856,12.080199,2.4698,8.6865,13.143353,2.4981964,18.652746,-1
590,591,1580695722866,12.363,2.4078,9.0483,13.640120999999999,2.5597367,19.05777,-1
591,592,1580695722876,12.893399,2.5354,9.410999,13.994060999999999,2.5717845,19.154217000000003,-1
592,593,1580695722886,13.0153,2.4013,9.2057,13.65236,2.3679612,18.31621,-1
593,594,1580695722896,12.3466,2.0932,7.9312997,12.669205999999999,1.8539357,16.759363,-1
594,595,1580695722906,11.282599000000001,1.3923,6.3626,11.551631,1.1196532,15.158543,-1
595,596,1580695722917,10.1665,0.56659997,4.6765,10.483951,0.39819407,13.352098000000002,-1
596,597,1580695722927,9.151299,-0.2522,2.9715,9.566081,-0.335284,12.015081,-1
597,598,1580695722937,8.3804,-1.0274,1.8757999,8.777996,-1.0828878,11.048696000000001,-1
598,599,1580695722947,7.7134,-1.716,1.1347,7.8038240000000005,-1.446481,10.238593,-1
599,600,1580695722957,6.6731,-2.1213999,0.326,6.7432113,-1.6402292,9.505631,-1
600,601,1580695722967,5.7179,-2.3876998,-0.3645,6.2985415,-1.6468851999999998,8.587686,-1
601,602,1580695722977,5.3996997,-2.4349,-1.4180000000000001,6.15171,-1.4549085,7.450104700000001,-1
602,603,1580695722987,5.2787,-2.2837,-2.9227998,6.054610299999999,-1.2964698000000001,5.668866,-1
603,604,1580695722997,5.2499,-2.3253999,-4.2899,5.717315,-1.482413,4.6781745,-1
604,605,1580695723007,4.821399700000001,-2.6357,-5.2049,4.7912097000000005,-1.7627358,3.9854742999999995,-1
605,606,1580695723017,3.8472998,-3.0089998,-5.8343,3.8752836999999998,-2.1072900000000003,3.632732,-1
606,607,1580695723027,2.9485997999999998,-3.4455998,-6.1187,2.9108992000000002,-2.4566232999999995,3.5179730000000005,-1
607,608,1580695723037,1.9399998999999999,-3.8351998,-6.1861997,2.0631697,-2.7739794,3.5083580000000003,-1
608,609,1580695723047,0.8303,-4.3026,-6.2046,0.7688644,-3.2146754,3.3474197,-1
609,610,1580695723057,-0.2911,-4.6686,-6.4007998,-0.12764926,-3.3924019999999997,3.0690793999999997,-1
610,611,1580695723067,-1.1083,-4.8599,-6.6197996,-0.5961658000000001,-3.474274,2.9554315,-1
611,612,1580695723077,-1.5572,-4.8915997,-6.7552,-0.9234244,-3.3514322999999995,2.9145,-1
612,613,1580695723088,-1.8456,-4.736399700000001,-6.727999700000001,-1.1158321000000002,-3.1697507000000003,2.9605262000000003,-1
613,614,1580695723098,-2.0428998,-4.512,-6.7629,-1.2503574,-2.9870157,2.6434572,-1
614,615,1580695723108,-2.1943,-4.285599700000001,-7.129699700000001,-1.6053122,-2.810419,1.9486886000000003,-1
615,616,1580695723118,-2.6025999,-4.0794997,-7.9083996,-2.1349669999999996,-2.7215849999999997,1.1317391,-1
616,617,1580695723128,-3.215,-3.99,-8.6853,-2.8211357999999995,-2.7832402999999997,0.6165548000000001,-1
617,618,1580695723138,-4.2981,-4.0703998,-9.2744,-4.333419,-3.2229210999999998,0.27999709999999994,-1
618,619,1580695723149,-5.6789,-4.5579,-9.3632,-5.9364614,-4.229731,0.6675705,-1
619,620,1580695723159,-7.4694,-5.5232,-8.8938,-8.224464999999999,-5.4020567,1.4264175,-1
620,621,1580695723169,-9.4193,-6.3731,-8.269899,-9.974063000000001,-5.8550487,2.0019453,-1
621,622,1580695723179,-11.2283,-6.683399700000001,-7.6878996,-11.116968,-5.7645097000000005,2.7786436,-1
622,623,1580695723189,-12.415999000000001,-6.4174,-6.9196,-11.089991,-5.763064,4.234711,-1
623,624,1580695723199,-12.4576,-6.2261,-5.4711,-10.323654,-5.8406835,5.8892956,-1
624,625,1580695723210,-11.756499,-6.0962996,-3.8209,-9.371355,-6.005558000000001,7.7049913,-1
625,626,1580695723220,-10.8958,-6.0544,-1.9880999,-9.075959,-6.480836,9.262936999999999,-1
626,627,1580695723230,-11.8476,-6.7138,0.5869,-10.155514,-7.101863400000001,10.248706,-1
627,628,1580695723240,-13.9303,-7.0522,1.1314,-12.623678,-7.799303500000001,10.912053,-1
628,629,1580695723250,-16.3284,-7.8111,2.052,-14.484430999999999,-8.604052000000001,11.660672,-1
629,630,1580695723261,-16.3284,-7.8111,2.052,-16.163227,-9.5663,12.50527,-1
630,631,1580695723271,-19.191399,-9.3744,3.9921,-17.240656,-10.596182,13.537697,-1
631,632,1580695723281,-17.814498999999998,-9.5157995,5.365,-15.831707000000002,-10.983257,14.871027999999999,-1
632,633,1580695723291,-15.308,-9.0471,6.2221,-12.86916,-10.681367,15.680411999999999,-1
633,634,1580695723301,-13.317599,-8.2852,6.3553996,-10.999652000000001,-10.161183,15.884226000000002,-1
634,635,1580695723311,-11.4859,-7.5712,7.3258996,-9.216499,-9.683876,16.959042,-1
635,636,1580695723322,-9.734,-6.7356997000000005,8.8894,-7.560803,-9.079301,18.546703,-1
636,637,1580695723332,-8.2581,-5.9414997000000005,10.7506,-6.1844144,-8.614587,20.35558,-1
637,638,1580695723342,-6.8782,-5.4465,12.3089,-4.9315667,-8.4197855,21.63465,-1
638,639,1580695723352,-5.9883,-5.4617,12.2345,-4.2542089999999995,-8.891472,20.99419,-1
639,640,1580695723362,-5.5243998,-5.8455997,11.3874,-3.8480282,-9.289043,20.407438,-1
640,641,1580695723372,-4.1327,-5.9343,11.6058,-1.9179183000000002,-9.465525,21.073407999999997,-1
641,642,1580695723383,-1.7562,-5.6096,12.9630995,0.5985026,-8.997161,22.841728,-1
642,643,1580695723393,1.2277,-4.5808,15.4907,3.4665072,-7.959897,25.603354,-1
643,644,1580695723403,3.9710998999999996,-3.2430000000000003,18.234999,5.456711299999999,-6.920756,27.764408000000003,-1
644,645,1580695723413,5.5785,-2.1791,19.5765,6.670370599999999,-6.045905,28.577084999999997,-1
645,646,1580695723423,6.5597997,-1.7694999,19.4042,7.3255963,-6.0416527,27.811918,-1
646,647,1580695723434,7.1074,-2.2056,17.9292,7.5226393,-6.593439999999999,26.06759,-1
647,648,1580695723444,7.0972,-2.7691998,16.1949,7.3409095,-6.90097,24.677220000000002,-1
648,649,1580695723454,7.2086,-2.8411999,15.3581,7.6817,-6.687100999999999,24.275509,-1
649,650,1580695723464,7.9877,-2.5937997999999998,15.1411,8.158175,-6.442031,24.176304000000002,-1
650,651,1580695723474,8.5191,-2.205,14.5539,8.66587,-5.652375,23.22662,-1
651,652,1580695723484,8.5658,-1.8375,13.1152,8.568292,-5.1436644,21.482483,-1
652,653,1580695723495,8.5093,-1.6393,10.807,8.543604,-4.834525599999999,19.045473,-1
653,654,1580695723505,8.7034,-1.7013999,8.2421,8.707405,-4.491331,16.346767,-1
654,655,1580695723515,8.8171,-1.5445,6.2191997,8.87478,-4.091001,14.738532999999999,-1
655,656,1580695723525,9.0025,-1.4963,4.7212996,8.818237,-3.9206394999999996,13.706660999999999,-1
656,657,1580695723535,8.6336,-1.6516998999999999,3.4359998999999997,8.243802,-3.7684349999999998,12.282964,-1
657,658,1580695723546,8.1458,-1.8032999,2.0895,7.719778,-3.656875,10.701717,-1
658,659,1580695723556,7.5357,-1.9988999,0.24129999,7.0292997,-3.5192754,8.671923,-1
659,660,1580695723566,6.8571,-2.1157,-1.8722,6.456118,-3.3177986000000006,6.784794000000001,-1
660,661,1580695723576,6.3321,-2.2044,-3.6325998,6.1242337,-3.0017638,5.2875276,-1
661,662,1580695723586,6.1935,-1.9645,-4.9030000000000005,6.48798,-2.2974183999999997,4.50335,-1
662,663,1580695723597,6.8222,-1.5469998999999999,-5.3802,7.14266,-1.876106,4.483583,-1
663,664,1580695723607,7.5074997,-1.3406999,-5.0854,7.6752167,-1.544557,4.880235,-1
664,665,1580695723617,7.6263,-1.4879,-4.8636,7.4804053,-1.6926048999999999,4.8131976,-1
665,666,1580695723627,7.178,-1.8853999,-5.2359,6.9495726,-1.8620472,4.3231044,-1
666,667,1580695723637,6.3269,-2.2371,-5.7619,5.595642,-2.1844888,3.9177470000000003,-1
667,668,1580695723647,5.3557,-2.6861,-5.9132,4.788997,-2.4899123,3.6656282,-1
668,669,1580695723657,4.6335998,-3.0609999,-6.1903996,4.5154643,-2.4679623,3.4660857000000003,-1
669,670,1580695723668,4.7202997,-3.1153998,-6.3385,5.6002197,-2.1212816,3.5452285000000003,-1
670,671,1580695723678,5.8454,-2.8346,-6.2103996,7.0723667,-1.496673,3.6350492999999995,-1
671,672,1580695723688,7.3069997,-2.3369,-6.139199700000001,8.745329,-1.0651995,3.3116217000000003,-1
672,673,1580695723699,8.8972,-2.1073,-6.5569,9.572085000000001,-0.97018796,2.985598,-1
673,674,1580695723709,9.849199,-2.2598999,-6.8873,9.889403,-1.3980988,3.150118,-1
674,675,1580695723720,8.4065,-3.6634,-5.6657,8.58758,-2.349612,4.057377,-1
675,676,1580695723730,7.5231,-4.3222,-4.9554996,7.695855,-2.983367,4.7644806,-1
676,677,1580695723741,7.5231,-4.3222,-4.9554996,7.2791777,-3.1861174,5.483344000000001,-1
677,678,1580695723751,7.5025997,-4.5910997,-3.3509,7.673072,-3.207924,6.3596129999999995,-1
678,679,1580695723761,8.803699499999999,-4.4199,-3.1232,8.964149,-3.020343,6.58937,-1
679,680,1580695723772,9.929999,-3.9408998,-3.0042,10.247557,-2.453961,6.6325899999999995,-1
680,681,1580695723782,10.5154,-3.7175,-3.8068998,10.6577215,-2.2603467,5.691553599999999,-1
681,682,1580695723792,10.472799,-3.5009,-4.5299997,10.575591000000001,-2.0135523999999996,5.143301,-1
682,683,1580695723802,10.472799,-3.5009,-4.5299997,10.763249,-1.8397046000000001,5.349097,-1
683,684,1580695723812,10.5378,-3.2291,-4.1327,10.644898,-1.7930368000000003,5.66675,-1
684,685,1580695723823,10.413,-3.4903,-3.8177,10.524345,-2.0397449,5.941585,-1
685,686,1580695723833,10.257,-3.4866998,-3.3572998,10.28754,-2.0070403000000003,6.736345299999999,-1
686,687,1580695723843,9.7333,-3.51,-2.2614,9.430321000000001,-2.0970047,7.750615,-1
687,688,1580695723853,8.547299,-3.6122,-1.9697,8.231504,-2.2131426,7.4680990000000005,-1
688,689,1580695723863,7.5038,-3.6783,-2.6369998,7.248867,-2.210097,6.924491400000001,-1
689,690,1580695723873,6.6194,-3.5697,-2.9787,6.611022999999999,-2.1116857999999996,6.65453,-1
690,691,1580695723884,6.1025,-3.5957,-3.5741,6.281993,-2.1317779999999997,5.842101,-1
691,692,1580695723894,6.1025,-3.5957,-3.5741,6.282481,-2.021798,5.427559400000001,-1
692,693,1580695723904,5.7988,-3.5921,-4.3652997000000004,5.658753400000001,-2.2935686,5.460714299999999,-1
693,694,1580695723914,4.7051997000000005,-4.1043,-3.8107,4.255818,-2.909185,6.297689,-1
694,695,1580695723924,3.0044,-4.8018,-2.7984,2.7785192000000003,-3.5934956,7.1221559999999995,-1
695,696,1580695723935,0.7859,-5.9771,-1.611,-0.21088130000000002,-5.242947,8.619518,-1
696,697,1580695723945,-2.2171,-7.4733996,-0.4332,-4.269695,-7.058997,9.914371000000001,-1
697,698,1580695723955,-5.8536997,-8.701,0.5007,-7.236167999999999,-7.715248,10.478961,-1
698,699,1580695723965,-9.3322,-8.9783,0.8874,-10.711286,-7.5908933,10.599945,-1
699,700,1580695723975,-11.4429,-8.4811,0.7069,-11.456533,-6.759836999999999,10.099461,-1
700,701,1580695723985,-11.279099,-7.4641,0.1051,-10.236591,-5.7469077,9.699161,-1
701,702,1580695723996,-9.8637,-6.4525,-0.037499998,-8.848453,-4.9658809999999995,10.095984,-1
702,703,1580695724006,-8.4765,-5.7331,0.7883,-7.472064,-4.4146589999999994,11.368484,-1
703,704,1580695724016,-7.2293997,-5.1187997,2.0839999,-6.7730627000000005,-4.0033064,12.48443,-1
704,705,1580695724027,-6.9905996,-4.7907,3.1453,-7.4237589999999996,-3.8429427000000005,13.547657000000001,-1
705,706,1580695724036,-7.8076,-4.5059,3.7868,-8.22845,-3.4942703,13.439218499999999,-1
706,707,1580695724046,-8.6119995,-4.0621,3.3916,-8.51835,-3.2262824,12.700972,-1
707,708,1580695724056,-8.7296,-3.8307,2.6260998,-8.632936,-2.912259,12.082311,-1
708,709,1580695724066,-8.8906,-3.5412998,2.2833,-8.622085,-2.6901634,11.89835,-1
709,710,1580695724077,-8.8352995,-3.3191998,2.0481,-8.208779,-2.487413,11.685437,-1
710,711,1580695724087,-8.1187,-3.0305,1.8607,-7.2367525,-2.0410187,11.674463000000001,-1
711,712,1580695724097,-7.0074,-2.3895,1.8978,-6.153357,-1.3135835,11.71935,-1
712,713,1580695724107,-5.9697,-1.6961,1.905,-5.435662000000001,-0.8744295,11.636625,-1
713,714,1580695724117,-5.1507998,-1.104,1.6575999,-4.615589599999999,-0.26623523,11.2808075,-1
714,715,1580695724127,-4.4715,-0.7353,1.3226,-4.092351399999999,-0.0303489,10.774702,-1
715,716,1580695724138,-4.1637,-0.5818,0.90999997,-4.103891399999999,0.07847236,10.584708000000001,-1
716,717,1580695724147,-4.1615,-0.5051,0.7236,-4.140619,0.03625779,10.419145,-1
717,718,1580695724157,-4.2295,-0.5915,0.58669996,-4.3241487,0.06625235,10.394072999999999,-1
718,719,1580695724167,-4.3929,-0.5244,0.5972,-4.3875375,0.065131865,10.338498,-1
719,720,1580695724177,-4.4091997,-0.5753,0.5097,-4.172289,0.049368437,10.168127,-1
720,721,1580695724187,-4.1018,-0.5639,0.363,-3.7642214,0.18703504,10.126294999999999,-1
721,722,1580695724197,-3.4287,-0.3206,0.3141,-2.7418877999999998,0.58287317,10.084502,-1
722,723,1580695724208,-2.5411,0.0338,0.2846,-2.1048098,0.89634126,10.058347999999999,-1
723,724,1580695724218,-1.7393999,0.4183,0.265,-1.3255832,1.293319,10.074619,-1
724,725,1580695724228,-1.1277,0.71169996,0.27519998,-1.0236458000000002,1.3969017,9.983553,-1
725,726,1580695724238,-0.8864,0.7438,0.1484,-1.1588319999999999,1.3298163,9.7616205,-1
726,727,1580695724248,-1.1631,0.64169997,-0.174,-1.6453624,1.1349666,9.347978999999999,-1
727,728,1580695724259,-1.5759999999999998,0.4067,-0.4962,-2.0101812,0.96030474,9.111239999999999,-1
728,729,1580695724269,-2.0195,0.1679,-0.8084,-2.3100023,0.71245694,8.691986,-1
729,730,1580695724279,-2.1633,-0.0005999999700000001,-1.1012,-2.0013897000000003,0.6700795999999999,8.733108999999999,-1
730,731,1580695724289,-1.8519999999999999,-0.061199997,-1.0612,-1.6421830000000002,0.6729143,9.09723,-1
731,732,1580695724299,-1.3735,-0.037699997,-0.5514,-1.0987183,0.8402786,10.124571000000001,-1
732,733,1580695724310,-0.9229999999999999,0.12709999,0.3399,-0.84380287,0.8750616,11.1108675,-1
733,734,1580695724320,-0.6428,0.19,1.3194,-0.76231384,0.8843511000000001,11.472804,-1
734,735,1580695724330,-0.45899999999999996,0.15519999,1.2506,-0.6945866999999999,0.8271009,11.048186999999999,-1
735,736,1580695724340,-0.45899999999999996,0.15519999,1.2506,-0.801301,0.64885736,10.1308155,-1
736,737,1580695724350,-0.9465,-0.28759998,-0.7955,-1.172182,0.43522757,8.992411,-1
737,738,1580695724360,-1.3535,-0.5049,-1.3722,-1.5659132,0.2460569,8.410772999999999,-1
738,739,1580695724370,-1.3535,-0.5049,-1.3722,-1.7188165000000002,0.29636386,8.57061,-1
739,740,1580695724380,-1.4894999,-0.4062,-0.63519996,-1.6732118000000002,0.37153223,9.1473255,-1
740,741,1580695724390,-1.4894999,-0.4062,-0.63519996,-1.4674445,0.41343075,9.732889,-1
741,742,1580695724400,-0.8486,-0.2316,0.43219998,-1.0222093,0.53285354,10.220713,-1
742,743,1580695724410,-0.30089998,-0.0795,0.84309995,-0.48785213,0.6672831,10.638003,-1
743,744,1580695724421,-0.0426,-0.0381,0.9209,-0.23465092,0.69280535,10.707138,d
744,745,1580695724431,-0.1815,-0.119399995,0.8717,-0.43894336,0.5841182,10.642323,-1
745,746,1580695724441,-0.4865,-0.2365,0.7642,-0.82440025,0.47350606,10.49549,-1
746,747,1580695724451,-0.97209996,-0.37039998,0.47079998,-1.2957324,0.32627222,10.204825,-1
747,748,1580695724461,-1.3657,-0.5298,0.2562,-1.6929494999999999,0.17106093,10.003425,-1
748,749,1580695724472,-1.6574999,-0.7022,0.1103,-1.936507,0.047606308,9.870077,-1
749,750,1580695724484,-1.7386,-0.7387,0.033099998,-1.9691352,0.06961381,9.773332,-1
750,751,1580695724494,-1.7386,-0.7387,0.033099998,-1.8411794999999997,0.05274905,9.703114999999999,-1
751,752,1580695724504,-1.5292,-0.79859996,0.0354,-1.648111,-0.0023175871,9.901987,-1
752,753,1580695724515,-1.3241999,-0.8032,0.1831,-1.5633084,-0.009174581,10.043054,-1
753,754,1580695724525,-1.3652999,-0.8021,0.4482,-1.8387756000000002,-0.0042425254,10.467516999999999,-1
754,755,1580695724536,-1.6938,-0.8264,0.831,-2.1661012000000004,-0.07674853,10.700242999999999,-1
755,756,1580695724546,-2.1376998,-0.9008,0.97849995,-2.7530158,-0.17044802,10.725266,-1
756,757,1580695724556,-2.5942,-1.0009999,0.89129996,-3.2347102000000003,-0.31157184,10.461272,-1
757,758,1580695724567,-2.9104997999999997,-1.1295998999999999,0.6084,-3.3415203,-0.3573011,10.101396000000001,-1
758,759,1580695724577,-2.9988,-1.1682999,0.1396,-3.3478122000000003,-0.3040349,9.673436,-1
759,760,1580695724587,-2.9348,-1.1322,-0.1818,-3.2471793,-0.21269129,9.541228,-1
760,761,1580695724597,-2.7977998,-1.0167999,-0.2191,-2.8275428,-0.044426806,9.6777935,-1
761,762,1580695724608,-2.3429,-0.8897,-0.021399999,-2.1683712,0.17395313,9.963499,-1
762,763,1580695724619,-1.6772,-0.6728,0.2446,-1.6658473000000003,0.54360825,10.283288,-1
763,764,1580695724629,-1.2753999,-0.3369,0.5793,-1.5025818000000002,0.7069599,10.48736,-1
764,765,1580695724639,-1.1509,-0.2454,0.69839996,-1.6932369999999999,0.67084575,10.342367,-1
765,766,1580695724650,-1.4211,-0.3125,0.5238,-2.2073581,0.6264668000000001,9.898176,-1
766,767,1580695724660,-1.8470999,-0.36409998,0.134,-2.4859476000000003,0.54776466,9.619261,-1
767,768,1580695724670,-2.2438,-0.6343,-0.1056,-2.5971632000000002,0.40625772,9.650127000000001,-1
768,769,1580695724680,-2.2438,-0.6343,-0.1056,-2.494222,0.45534843,9.641115,-1
769,770,1580695724690,-2.1455998,-0.6254,-0.1125,-2.0181683999999995,0.586589,9.471452000000001,-1
770,771,1580695724700,-1.6827999,-0.519,-0.2859,-1.5653003,0.7004764,9.304250999999999,-1
771,772,1580695724711,-0.5764,-0.3358,-0.7111,-0.9246119,0.8327416,9.040267,-1
772,773,1580695724721,-0.1875,-0.13949999,-0.8749,-0.55311805,1.0346208000000001,8.861544,-1
773,774,1580695724731,0.0383,0.021399999,-0.93109995,-0.34134614,1.2083248,8.80391,-1
774,775,1580695724741,0.15339999,0.2129,-0.9091,-0.22378124,1.4630488000000001,8.835992999999998,-1
775,776,1580695724752,0.3287,0.3536,-0.8479,-0.08066545,1.5726936000000002,8.887229,-1
776,777,1580695724762,0.39519998,0.3347,-0.7377,-0.022984337,1.5615462,9.003874,-1
777,778,1580695724772,0.25669998,0.24399999,-0.77449995,-0.17591637,1.48882,8.921398,-1
778,779,1580695724782,0.026099999,0.1223,-0.8799,-0.39657557,1.3885412,8.8288765,-1
779,780,1580695724792,-0.2032,0.0025,-0.9364,-0.6245227,1.2974083,8.765632,-1
780,781,1580695724802,-0.4159,-0.10300000000000001,-1.101,-0.74231744,1.1953961000000002,8.531374000000001,-1
781,782,1580695724812,-0.23809999,-0.1541,-1.2954,-0.52214664,1.1969285,8.403609,-1
782,783,1580695724823,0.16319999,-0.0497,-1.2847998999999999,-0.1449737,1.3348345,8.463991,-1
783,784,1580695724833,0.52129996,0.2015,-1.0988,0.325372,1.6192081,8.755644,-1
784,785,1580695724843,1.0072,0.3816,-0.6979,0.7328843,1.7312664,9.1309395,-1
785,786,1580695724853,1.4419,0.48709998,-0.3173,1.1215781,1.7919067,9.509683,-1
786,787,1580695724863,1.5317,0.4159,-0.122899994,1.072928,1.6096697,9.623187,-1
787,788,1580695724874,1.3334999,0.17459999,-0.1636,0.78328705,1.3774321000000003,9.465869,-1
788,789,1580695724884,1.0311999,0.0361,-0.3412,0.48707637,1.2717999,9.406367999999999,-1
789,790,1580695724894,0.66969997,-0.067099996,-0.2342,0.14587392,1.1602781,9.544609,-1
790,791,1580695724904,0.42159998,-0.1459,-0.17629999,0.071184404,1.0720469,9.528291000000001,-1
791,792,1580695724914,0.5646,-0.2478,-0.2654,0.33851138,0.97734183,9.429496,-1
792,793,1580695724924,0.83519995,-0.3276,-0.3252,0.64808166,0.8816025,9.442147,-1
793,794,1580695724935,1.0759,-0.3891,-0.17,0.9036483000000001,0.9124398000000001,9.627392,-1
794,795,1580695724945,1.4347,-0.2741,0.0823,1.4363008,1.0158023,10.048761,-1
795,796,1580695724955,1.8708999,-0.1699,0.4614,1.7021241000000003,1.0976073999999998,10.363493,-1
796,797,1580695724965,2.1186,-0.0106,0.9381,1.9485162,1.2057295,10.92186,-1
797,798,1580695724975,2.3588,0.0817,1.5716,2.1865382,1.3166481,11.569856,-1
798,799,1580695724985,2.529,0.2777,1.9409999999999998,2.3011247999999997,1.4967113,11.758116000000001,-1
799,800,1580695724996,2.6067998,0.38549998,1.9976,2.279558,1.4763223,11.622844,-1
800,801,1580695725006,2.4538999,0.3836,1.7121998999999999,1.986766,1.4914536,11.244589,-1
801,802,1580695725016,2.1569998,0.3904,1.3395,1.8053813000000003,1.4040556999999998,10.849076,-1
802,803,1580695725026,1.9923999,0.2435,0.93799996,1.5954098,1.2526559,10.483816000000001,-1
803,804,1580695725036,1.7301999,0.0277,0.6641,1.3438174999999999,0.9684450000000001,10.448067,-1
804,805,1580695725047,1.4506999,-0.242,0.7722,1.131538,0.8147946999999999,10.692772999999999,-1
805,806,1580695725057,1.3443999,-0.3385,1.0562,1.1785793,0.8532264,11.08434,-1
806,807,1580695725067,1.3837999,-0.22379999,1.3791,1.1820173,1.1186285,11.338661,-1
807,808,1580695725077,1.4296,0.059499998,1.6331999,1.3670988000000002,1.2783505,11.582994,-1
808,809,1580695725088,1.6516,0.19309999,1.8679999,1.5686139,1.3526472999999999,11.634775999999999,-1
809,810,1580695725098,1.8024,0.2611,1.8289,1.6240925,1.4102231,11.369547,-1
810,811,1580695725108,1.9023,0.3204,1.4182,1.7612897,1.3926688,10.721178,-1
811,812,1580695725118,2.0104,0.24509999,0.8709,1.7616726999999999,1.3584604,10.292242,-1
812,813,1580695725128,1.9417,0.2174,0.4807,1.5092376,1.3009613000000002,10.030852000000001,-1
813,814,1580695725139,1.6766,0.1037,0.2373,1.2080183999999998,1.102731,9.946749,-1
814,815,1580695725149,1.3404,-0.105,0.22899999,0.6879689999999999,0.90036345,10.100744,-1
815,816,1580695725159,0.7848,-0.3207,0.3771,0.17963217,0.8192958,10.164066,-1
816,817,1580695725169,0.32909998,-0.36679998,0.4269,-0.07915231,0.7897801,10.038907,-1
817,818,1580695725179,0.15529999,-0.3998,0.2999,-0.2502228,0.7672458000000001,9.860366,-1
818,819,1580695725190,-0.0295,-0.41079998,0.0747,-0.1941506,0.8655039000000001,9.622066499999999,-1
819,820,1580695725200,0.0624,-0.3338,-0.12079999599999999,0.29792490000000005,0.92081,9.598564999999999,-1
820,821,1580695725210,0.5528,-0.27789998,-0.1398,0.8033313,1.1041675,9.701114,-1
821,822,1580695725220,1.4075999,0.023799999,-0.039899997,1.1467938,1.2314049999999999,9.699332,-1
822,823,1580695725230,1.4075999,0.023799999,-0.039899997,1.1678628999999998,1.2994290000000002,9.589458,-1
823,824,1580695725240,1.4233999,0.102699995,-0.1759,1.000125,1.4675307,9.289166999999999,-1
824,825,1580695725251,1.0083,0.1557,-0.6236,0.7289099,1.4005411,9.108452999999999,-1
825,826,1580695725261,1.0083,0.1557,-0.6236,0.20932026,1.1862313,8.942228,-1
826,827,1580695725271,0.0197,-0.3436,-1.0224999,-0.34046507,0.8898386,8.689611,-1
827,828,1580695725281,-0.3954,-0.5395,-0.9824,-0.6580031999999999,0.741197,8.74873,-1
828,829,1580695725291,-0.61149997,-0.5704,-0.649,-0.85816807,0.7135583000000001,9.173786,-1
829,830,1580695725301,-0.61149997,-0.5704,-0.649,-0.6887448,0.76130825,9.62244,-1
830,831,1580695725312,-0.070599996,-0.3586,0.3195,-0.22542845,0.9415821,10.093255000000001,-1
831,832,1580695725322,0.3297,-0.1954,0.43629998,0.20681114,1.0900513,10.151223,-1
832,833,1580695725332,0.7994,-0.0872,0.2695,0.57809436,1.1767215,10.003884,-1
833,834,1580695725342,1.1012,0.1033,-0.0729,0.9599312,1.4448718999999999,9.512355,-1
834,835,1580695725352,1.2334,0.2504,-0.366,1.0392941999999998,1.5413678999999998,9.307967,-1
835,836,1580695725363,1.2238,0.26899999999999996,-0.52169997,0.9648537,1.5569110000000002,9.209651,-1
836,837,1580695725373,1.0052,0.2105,-0.4324,0.7318786999999999,1.4707485,9.361272,-1
837,838,1580695725383,0.80649996,0.0468,-0.32389998,0.5466824,1.3092165,9.400689,-1
838,839,1580695725393,0.5823,-0.0162,-0.3823,0.3704309,1.3131526000000002,9.348303999999999,-1
839,840,1580695725403,0.4887,-0.0276,-0.33319998,0.3129509,1.305788,9.471223,-1
840,841,1580695725414,0.4558,0.003,-0.1471,0.27841693,1.3298258,9.603431,-1
841,842,1580695725424,0.4172,0.0256,-0.0984,0.28373206,1.321178,9.613773,-1
842,843,1580695725434,0.578,0.0095999995,-0.1283,0.48399267,1.3554245,9.588414,-1
843,844,1580695725444,0.7593,0.1109,-0.1384,0.63360155,1.4562876,9.603688,-1
844,845,1580695725454,0.82199997,0.2698,-0.13859999,0.6297708000000001,1.6249542,9.547512,-1
845,846,1580695725464,0.8149,0.3482,-0.2268,0.6656934,1.6618057000000002,9.523349000000001,-1
846,847,1580695725475,0.8328,0.38529998,-0.1677,0.66915065,1.7188357,9.567641,-1
847,848,1580695725485,0.85529995,0.4298,-0.1771,0.69413656,1.7165276999999999,9.575733999999999,-1
848,849,1580695725495,0.7565,0.31599998,-0.098,0.5335048000000001,1.5285733,9.674711,-1
849,850,1580695725505,0.5203,0.1339,-0.0484,0.19746417,1.4022839,9.658832,-1
850,851,1580695725515,0.2661,0.04,-0.07719999599999999,0.066261925,1.4110563,9.630974,-1
851,852,1580695725525,0.1602,0.123399995,-0.1061,0.037569813,1.4807563999999998,9.604186,-1
852,853,1580695725536,0.20529999,0.1602,-0.096,0.07066726,1.4851329,9.634536,-1
853,854,1580695725546,0.2364,0.1612,-0.0765,0.1379922,1.5134419,9.653604,-1
854,855,1580695725556,0.33139998,0.2331,-0.047399998,0.27645367,1.5751357,9.729747999999999,-1
855,856,1580695725566,0.457,0.2465,0.0796,0.29332802,1.4994215,9.863221000000001,-1
856,857,1580695725576,0.4145,0.161,0.1382,0.17532260000000002,1.4724915,9.825277,-1
857,858,1580695725586,0.24159999,0.1607,0.0696,0.006157887,1.5045258999999997,9.723647999999999,-1
858,859,1580695725597,0.1415,0.1864,-0.057299998,-0.07896077,1.4592277,9.5766535,-1
859,860,1580695725608,0.025799999,0.0821,-0.20369999,-0.24851814,1.3354378999999998,9.383816,-1
860,861,1580695725619,-0.1301,-0.0115,-0.3698,-0.3021291,1.2994864,9.256942,-1
861,862,1580695725629,-0.1454,-0.052699998,-0.46769997,-0.27286237,1.2863951,9.440673,-1
862,863,1580695725639,-0.1276,-0.0488,-0.2917,-0.2294986,1.3750954,9.806133,-1
863,864,1580695725649,-0.0777,0.0482,0.0797,-0.18511009,1.42455,10.178508,-1
864,865,1580695725660,-0.038,0.1073,0.45099998,-0.28988037,1.4052432,10.284285,-1
865,866,1580695725670,-0.1457,0.0947,0.5481,-0.45180503,1.3727299,10.261031,-1
866,867,1580695725680,-0.4658,-0.043899997999999996,0.4403,-0.6056946999999999,1.2642151000000001,10.167792,-1
867,868,1580695725690,-0.4658,-0.043899997999999996,0.4403,-0.7143819,1.2225082,9.931742,-1
868,869,1580695725700,-0.63699996,-0.0633,0.0013,-0.7520571,1.2661016999999999,9.724807,-1
869,870,1580695725711,-0.63699996,-0.0633,0.0013,-0.74286336,1.3051368,9.733071,-1
870,871,1580695725721,-0.62729996,0.0201,0.0325,-0.7122271,1.3677117,9.754236,-1
871,872,1580695725731,-0.5369,0.059299998,0.14029999,-0.6132029,1.3985201999999999,9.870766999999999,-1
872,873,1580695725741,-0.4807,0.0739,0.3848,-0.5717641,1.4169076999999999,10.16058,-1
873,874,1580695725751,-0.54969996,0.0806,0.57019997,-0.6429389,1.4103285,10.303792,-1
874,875,1580695725761,-0.6386,0.026999999,0.63809997,-0.76368326,1.3588436000000002,10.408045,-1
875,876,1580695725772,-0.83769995,0.0491,0.82409996,-0.9703221,1.4113245,10.59939,-1
876,877,1580695725782,-1.0403,0.1462,0.94189996,-1.1405593,1.5132983999999998,10.699926,-1
877,878,1580695725793,-1.1396998999999999,0.23809999,1.0113,-1.1966219999999999,1.5786408,10.759878,-1
878,879,1580695725803,-1.1772,0.2756,1.0618,-1.2202289,1.6096504999999999,10.730879,-1
879,880,1580695725813,-1.1696,0.2392,0.868,-1.1477133,1.5525824,10.490339,-1
880,881,1580695725823,-1.0561,0.0727,0.6451,-1.0080163,1.3990662,10.297289,-1
881,882,1580695725833,-0.99789995,-0.0325,0.50049996,-0.9838828000000002,1.4013836000000002,10.181909,-1
882,883,1580695725843,-1.0493,0.0546,0.5119,-1.0253122,1.4795306000000001,10.283182,-1
883,884,1580695725853,-1.1639,0.1573,0.8461,-1.1259643999999998,1.6366379,10.719368,-1
884,885,1580695725863,-1.2775999,0.331,1.2093999,-1.2558833,1.8185589,10.986761999999999,-1
885,886,1580695725873,-1.3627,0.4924,1.3278999,-1.3355527,1.9097877,11.101952,-1
886,887,1580695725883,-1.3246,0.41369998,1.3883,-1.1730056,1.7610694,11.070214,-1
887,888,1580695725894,-1.1522,0.22219999,1.3024,-1.0461224,1.6510607,10.976647999999999,-1
888,889,1580695725904,-1.1458,0.1555,1.2267,-1.1174122,1.6171683000000001,10.971755,-1
889,890,1580695725914,-1.2954999,0.2056,1.3571,-1.1590713,1.7593361,11.177925,-1
890,891,1580695725924,-1.163,0.37129998,1.6154,-0.9670564,1.8856446,11.399386999999999,-1
891,892,1580695725934,-1.1280999,0.37669998,1.7469,-1.0861344,1.8898201000000001,11.356608,-1
892,893,1580695725945,-1.2975999,0.2888,1.4771,-1.1595693999999999,1.7904607,10.946453,-1
893,894,1580695725955,-1.288,0.0986,1.0119,-1.0750444,1.6297332,10.649888,-1
894,895,1580695725965,-1.1891,-0.0312,0.9781,-0.9482475,1.6595456999999998,10.642744,-1
895,896,1580695725975,-1.0576999,0.1557,0.90459996,-0.6204334,1.9081022,10.616522999999999,-1
896,897,1580695725985,-0.5791,0.2574,1.0267,-0.098803915,1.9659938999999997,10.755999000000001,-1
897,898,1580695725995,-0.1874,0.34219998,1.0503,0.04798938,2.13558,10.607184,-1
898,899,1580695726006,-0.0973,0.43519998,0.83889997,0.12372277,2.1448696,10.320925,-1
899,900,1580695726016,-0.0809,0.3874,0.5498,0.23739946,2.1879556,10.085661,-1
900,901,1580695726026,0.18969999,0.4043,0.4382,0.6470281999999999,2.1562276000000002,10.114477,-1
901,902,1580695726036,0.46519998,0.34809998,0.4457,0.71539706,2.2174616,9.940917,-1
902,903,1580695726047,0.4876,0.31739998,0.18949999,0.9314880999999999,2.1312034,9.630293,-1
903,904,1580695726056,0.6719,0.2502,-0.057099998,1.0882987,2.1776892999999995,9.430617,-1
904,905,1580695726066,0.84099996,0.2697,-0.26639998,1.1788571,2.171062,9.299941,-1
905,906,1580695726076,0.80759996,0.18069999,-0.37989998,1.0831177,2.13875,9.18276,-1
906,907,1580695726086,0.78419995,0.19669999,-0.4166,1.2436154,2.1232450000000003,9.298045,-1
907,908,1580695726096,1.0188,0.0796,-0.2385,1.3845763999999998,1.9057941000000003,9.503983999999999,-1
908,909,1580695726107,1.0347998999999999,-0.107,-0.089499995,1.2990938,1.8731468999999998,9.467449,-1
909,910,1580695726117,1.0059999,-0.1336,-0.2136,1.5489528000000001,1.8487451000000001,9.2450285,-1
910,911,1580695726127,1.3036,-0.1776,-0.3946,1.7153976000000002,1.8351556,9.018105499999999,-1
911,912,1580695726137,1.3889999,-0.22739999,-0.63299996,1.613328,1.7603415,8.73356,-1
912,913,1580695726147,1.2645998999999999,-0.3706,-0.9289,1.6179153,1.6253086,8.424305,-1
913,914,1580695726157,1.2361,-0.5258,-1.2337999,1.459898,1.6185857,8.013803999999999,-1
914,915,1580695726167,1.0454999,-0.5216,-1.6568999,1.3521303,1.6340523,7.6018586,-1
915,916,1580695726178,0.96199995,-0.579,-2.0231,1.2920836000000002,1.5723488,7.398935300000001,-1
916,917,1580695726188,0.8789,-0.6153,-2.1861,1.1964687,1.5552063999999999,7.4269576,-1
917,918,1580695726198,0.8138,-0.6698,-2.1069,1.0211174,1.4921527,7.582973,-1
918,919,1580695726208,0.6347,-0.736,-1.9413999,0.80017096,1.3623391000000002,7.7733026,-1
919,920,1580695726218,0.4337,-0.86789995,-1.7567999,0.5827104000000001,1.274357,8.029789,-1
920,921,1580695726229,0.2135,-0.92289996,-1.4833,0.54074484,1.3527813999999998,8.219017,-1
921,922,1580695726239,0.2552,-0.8359,-1.3455,1.0286065,1.4743494,8.26126,d
922,923,1580695726249,0.81079996,-0.6877,-1.3033999,1.5881698,1.7903936000000003,8.129924,-1
923,924,1580695726259,1.1994,-0.43799999999999994,-1.4261999,1.8867075,2.1353598,7.728378,-1
924,925,1580695726270,1.4699,-0.1125,-1.8226999,1.9499526999999999,2.3191864,7.2826633,-1
925,926,1580695726280,1.4994,0.0673,-2.2589,1.6495092,2.2979164,7.3193235,-1
926,927,1580695726290,1.1735,0.030299998999999998,-2.2168,1.366572,2.256631,7.636651,-1
927,928,1580695726300,0.80469996,-0.0162,-1.8146,1.1242405,2.0818923,8.276869999999999,-1
928,929,1580695726311,0.7233,-0.4711,-0.6426,1.2339236999999998,1.7709718,8.90327,-1
929,930,1580695726321,1.0759999999999998,-0.36609998,-0.2635,1.594366,1.8519436999999999,9.288468,-1
930,931,1580695726331,1.5886999,-0.1237,-0.0219,2.1258214,2.0848517,9.53599,-1
931,932,1580695726341,1.5886999,-0.1237,-0.0219,2.7299263,2.5730677,9.782152,-1
932,933,1580695726351,3.2024999,0.9981,0.18969999,3.7618272000000004,3.174022,9.745953,-1
933,934,1580695726361,4.5485997000000005,1.2434,0.40699998,5.1324214999999995,3.4228275000000004,9.960559,-1
934,935,1580695726371,5.4758997,0.8329,0.4306,6.2236314,2.89617,10.002735000000001,-1
935,936,1580695726381,5.8886,0.4085,0.5236,6.523635,2.6080229999999998,10.073258000000001,-1
936,937,1580695726391,5.7237,0.0011999999,0.9274,6.2613544,2.1468039,10.607578,-1
937,938,1580695726401,5.2563996,-0.0212,1.7389,5.8947444,2.182698,11.290184,-1
938,939,1580695726411,5.3963,0.4342,2.5678,6.144939,2.6900675,12.197453,-1
939,940,1580695726421,6.4574,0.8426,2.5328,7.041778,3.0091,12.090805,-1
940,941,1580695726431,8.018499,0.7766,1.8607,8.872211,2.8177552,11.273712,-1
941,942,1580695726441,9.6718,0.14639999,1.2296,10.551132,2.186768,10.713716999999999,-1
942,943,1580695726452,11.7142,-0.26299998,1.1302999,12.619129,1.8679848999999997,10.81053,-1
943,944,1580695726462,13.4892,-0.23279999,2.2491,14.009623000000001,1.9137811999999998,11.816516,-1
944,945,1580695726472,14.400398999999998,-0.154,4.0949,14.958435999999999,1.9879345000000002,13.661095000000001,-1
945,946,1580695726482,14.035,-0.32099998,5.1587996,14.412788,1.7754537000000001,14.75172,-1
946,947,1580695726493,12.7373,-0.87119997,4.765,13.089455000000001,1.1698452,14.124248499999998,-1
947,948,1580695726503,11.5018,-1.6668999,3.5116,11.907860000000001,0.43222046,12.75035,-1
948,949,1580695726513,10.689899,-2.2914,2.1534,11.106567,-0.22551465,11.323377,-1
949,950,1580695726523,10.3666,-2.8549,1.5626999,10.965588,-0.5581938,11.036734,-1
950,951,1580695726533,10.3821,-3.0872,1.3951,10.919877,-0.7038283000000001,10.827566000000001,-1
951,952,1580695726543,10.404099,-3.202,1.0415,11.006059,-0.69352365,10.334141,-1
952,953,1580695726554,10.3783,-3.2682,0.5703,10.805339,-0.6958029,9.887056,-1
953,954,1580695726564,9.8626995,-3.4222998999999996,-0.028199999,10.235767,-0.7781826000000001,9.254682,-1
954,955,1580695726574,9.098599,-3.6664999,-0.8024,9.388565,-1.0060148000000002,8.476288,-1
955,956,1580695726585,7.9185,-4.2025,-1.2824,7.714022,-1.5749633,8.011545,-1
956,957,1580695726595,6.3652997000000004,-4.725,-1.4663,6.0656333,-1.998287,7.8803425,-1
957,958,1580695726605,4.738,-5.1063,-1.4433999,4.7140207,-2.203422,7.9358687,-1
958,959,1580695726615,2.9933,-5.4739,-1.5558,2.0669432,-2.7119026,7.391312599999999,-1
959,960,1580695726625,1.1427,-5.8806996,-2.3439999,0.9800424999999999,-2.8884416,6.766215299999999,-1
960,961,1580695726635,-0.4606,-6.3080997000000005,-3.386,-1.4019008999999998,-3.4324234,5.427014,-1
961,962,1580695726645,-2.1378,-6.7251,-4.1168,-2.7579863,-3.7010622000000004,5.0494,-1
962,963,1580695726656,-3.6601998999999994,-7.0684,-4.0318,-4.3222237,-4.0544753,5.634658,-1
963,964,1580695726666,-5.2922,-7.384999799999999,-2.7817,-6.705814,-4.4878545,7.603707000000001,-1
964,965,1580695726676,-7.3609995999999995,-7.7839,-0.8754,-9.001987,-4.912634,9.647043,-1
965,966,1580695726687,-9.635099,-7.9877,1.0462999,-11.377994000000001,-4.967777,11.355785000000001,-1
966,967,1580695726696,-11.7618,-7.9399,2.5981998,-12.914094,-4.9819026,12.456763,-1
967,968,1580695726706,-13.1496,-7.8057,3.4606998,-14.060485,-4.755708,12.78974,-1
968,969,1580695726716,-13.7655,-7.3971,2.9492998,-14.359579,-4.301231400000001,11.435924,-1
969,970,1580695726726,-13.6388,-7.1271,1.5030999,-14.243507000000001,-4.0329466,10.322389999999999,-1
970,971,1580695726736,-13.540899,-6.732,0.82379997,-14.276710500000002,-3.4064894,10.167398,-1
971,972,1580695726746,-13.3553,-6.0062,0.88879997,-13.765548999999998,-2.679648,10.314671,-1
972,973,1580695726757,-12.5611,-5.2872,1.0026,-12.964785000000001,-1.9351375,10.292941,-1
973,974,1580695726767,-11.7525,-4.5822997,0.88259995,-12.284697999999999,-1.2471205,9.977711,-1
974,975,1580695726777,-10.972199,-3.8853998,0.4312,-11.604417999999999,-0.6532053000000001,9.482906,-1
975,976,1580695726787,-9.9513,-3.1509,-0.2333,-10.6881275,0.09972329,8.811983,-1
976,977,1580695726797,-9.2598,-2.4657,-0.857,-10.156663,0.8770919,7.878475,-1
977,978,1580695726808,-9.061,-2.0923998,-1.548,-10.517805000000001,1.05206,6.9971595,-1
978,979,1580695726818,-9.506499,-2.0096,-2.4924998,-11.059795,0.980914,5.76541,-1
979,980,1580695726828,-9.9321995,-2.1541,-3.7205,-11.007592,0.88451385,4.7136374000000005,-1
980,981,1580695726838,-9.7775,-2.2552,-4.6651,-10.3285475,1.0244789,4.04825,-1
981,982,1580695726848,-8.948999,-2.1625,-5.2690997,-8.934633999999999,1.0735983999999998,3.6303568,-1
982,983,1580695726859,-7.400799799999999,-2.1311,-5.6214,-7.306547999999999,1.1329458000000001,3.3730567000000002,-1
983,984,1580695726869,-5.8101,-2.1320999,-5.8982997,-5.8682265,0.9458725,2.827332,-1
984,985,1580695726879,-4.4323,-2.3545,-6.5207,-4.749291400000001,0.657783,2.2767422,-1
985,986,1580695726889,-3.5827,-2.6176,-6.9096,-5.031099,0.40340385,2.6313236,-1
986,987,1580695726901,-4.1538997,-2.9912,-6.4967,-6.840656,-0.50286853,2.1670303,-1
987,988,1580695726909,-5.7955,-3.7998998,-7.0151,-8.333977,-1.5082799999999998,0.6850769,-1
988,989,1580695726920,-8.2747,-5.8552,-10.303599,-9.262486,-2.5190064999999997,-1.1457405,-1
989,990,1580695726930,-8.2747,-5.8552,-10.303599,-9.511080999999999,-3.1312425,-2.272442,-1
990,991,1580695726940,-8.5128,-6.4565997,-11.433,-8.85325,-3.4136336000000003,-2.6139224,-1
991,992,1580695726951,-7.8517,-6.714299700000001,-11.7757,-7.677908400000001,-3.413873,-2.4806707,-1
992,993,1580695726961,-5.6576,-6.7240996,-11.7094,-6.428833999999999,-3.5269082000000003,-2.4636815,-1
993,994,1580695726971,-4.6408997,-6.5389,-11.367599499999999,-5.571441,-3.4257004,-2.1271430000000002,-1
994,995,1580695726981,-3.7868,-6.4607,-10.806,-4.4863800000000005,-3.4344347,-1.3534517,-1
995,996,1580695726991,-3.1739,-6.2799,-9.7575,-3.7851178999999995,-3.3091699999999995,-0.23082978,-1
996,997,1580695727003,-3.1739,-6.2799,-9.7575,-3.525548,-3.4635384,0.40617153,-1
997,998,1580695727013,-3.2145998,-6.961,-8.4401,-3.7129757000000003,-4.619746,1.1484123,-1
998,999,1580695727024,-3.3981,-7.7121997,-8.0555,-3.6470968999999998,-5.455447,1.5931879999999998,-1
999,1000,1580695727034,-3.0423,-8.250199,-7.5773997,-2.8905199,-6.081368,2.2713408,-1
1000,1001,1580695727044,-1.9294,-8.387,-6.4852,-1.5317336000000001,-6.254363,3.821165,-1
1001,1002,1580695727054,-0.528,-8.0835,-4.5411997,-0.1323036,-6.107235,5.967845,-1
1002,1003,1580695727064,0.5245,-7.6306996,-2.3885999,0.80254596,-6.0742335,8.245784,-1
1003,1004,1580695727075,1.3095,-7.3914,-0.041899998,1.5452944,-6.1021304,10.506274000000001,-1
1004,1005,1580695727085,1.8052,-7.1431,1.7275,2.0329262999999997,-6.308683,11.871506,-1
1005,1006,1580695727095,2.2625,-7.3299,2.1943,2.9128528,-7.014139699999999,11.631434,-1
1006,1007,1580695727105,3.1366,-7.6617,1.3464,3.9371307,-7.369094400000001,10.542982,-1
1007,1008,1580695727116,4.0295997,-7.5944996,0.80899996,4.8655252,-7.339415600000001,11.647072999999999,-1
1008,1009,1580695727125,5.0794997,-7.0248,2.9652,6.128381,-6.577916,14.828018,-1
1009,1010,1580695727135,6.4751,-5.6426997000000005,6.5245,7.5529118,-5.3979764,18.600687,-1
1010,1011,1580695727146,7.8550997,-4.120199700000001,10.2157,8.358522,-4.4993176,21.684829999999998,-1
1011,1012,1580695727156,8.2483,-3.1269999,12.7132,7.9726057,-4.3364167,22.757883,-1
1012,1013,1580695727167,7.6236,-2.9989,12.676499,7.2855267999999995,-4.782935,21.578298999999998,-1
1013,1014,1580695727177,6.5891,-3.6109,10.1572,5.340525599999999,-6.028868,17.23422,-1
1014,1015,1580695727187,4.9870996,-4.1967998,7.0765,3.6360934,-6.378967299999999,15.651797,-1
1015,1016,1580695727197,3.4798,-4.2696,6.2051997000000005,3.4004654999999997,-5.946143599999999,17.45826,-1
1016,1017,1580695727208,3.639,-3.3825998,8.4903,4.6995115,-4.734505,20.34269,-1
1017,1018,1580695727218,5.0371,-1.9351,11.401199,5.473241000000001,-3.7856254999999996,22.480932,-1
1018,1019,1580695727228,5.5056,-0.91419995,13.2149,4.9221244,-3.6881144,21.891785000000002,-1
1019,1020,1580695727238,4.8318,-0.8037,12.069799,4.441004799999999,-3.990004,19.38812,-1
1020,1021,1580695727248,4.5422,-0.9747,9.582499499999999,4.964722,-4.285698,17.24757,-1
1021,1022,1580695727258,5.2497997000000005,-1.1314,7.6510997000000005,6.167310700000001,-4.300321,16.384872,-1
1022,1023,1580695727268,6.56,-0.9043,7.1931996,7.093406699999999,-3.8616172999999994,16.83936,-1
1023,1024,1580695727278,7.5255,-0.17379999,8.0564995,7.421201700000001,-3.22883,18.24128,-1
1024,1025,1580695727289,7.6238,0.46829998,9.3602,6.9828424,-2.7645464,19.156631,-1
1025,1026,1580695727299,7.1884,1.0496,10.162,6.1955714,-2.4188812,19.278361999999998,-1
1026,1027,1580695727309,6.3764997,1.4484,10.1833,4.779066,-2.3497176,18.205278,-1
1027,1028,1580695727319,5.2243,1.5647,9.2084,3.4991257000000004,-2.5736517999999995,16.470392,-1
1028,1029,1580695727329,3.9539999999999997,1.3856,7.4894,2.4740722,-2.8224093999999997,14.700188,-1
1029,1030,1580695727339,2.9147,1.1349,5.7254996,1.4498425,-3.1113896,12.973106,-1
1030,1031,1580695727350,1.8707999,0.8355,3.9917998,0.8777048000000001,-3.2162077,12.051003,-1
1031,1032,1580695727360,1.263,0.7079,3.06,1.2544754999999999,-3.0503566,11.684069000000001,-1
1032,1033,1580695727370,2.4101,1.3787999,2.7774,2.040827,-2.5327303,11.779425,-1
1033,1034,1580695727381,2.9303,1.7723,3.1847,2.5612595000000002,-2.1453577999999998,12.178662,-1
1034,1035,1580695727391,2.9303,1.7723,3.1847,2.9255517,-1.8744779999999999,12.3288355,-1
1035,1036,1580695727401,3.2847,2.1231,3.2077,2.8398871,-1.8444451000000002,12.140614,-1
1036,1037,1580695727411,2.9823,1.8702999,3.0519,2.4753458,-2.150204,12.005237,-1
1037,1038,1580695727421,2.9823,1.8702999,3.0519,1.8176491000000001,-2.6225033,11.644976,-1
1038,1039,1580695727433,1.4167,0.8046,2.4607,1.0400317,-3.1172602000000005,11.454704,-1
1039,1040,1580695727443,0.3753,0.3838,2.1629999,-0.11768938,-3.5865620000000002,11.053445,-1
1040,1041,1580695727454,-0.1858,-0.028299998,1.2919999,-0.54490113,-3.880637,10.320264,-1
1041,1042,1580695727464,-0.1858,-0.028299998,1.2919999,-0.62360334,-3.9767785000000004,8.926877000000001,-1
1042,1043,1580695727474,-0.023,-0.0894,-0.5067,-0.10889787,-3.7243724,8.407996,-1
1043,1044,1580695727484,0.6489,0.22989999,-0.7418,0.66477406,-3.387393,8.375625999999999,-1
1044,1045,1580695727494,1.4211,0.44059998,-0.561,1.3223655,-3.240523,8.651256,-1
1045,1046,1580695727505,1.8520999,0.56299996,-0.2289,1.5892711000000002,-3.125525,8.984405,-1
1046,1047,1580695727515,1.9957,0.5721,0.1244,1.4590553,-3.2209578,9.418797999999999,-1
1047,1048,1580695727525,1.6021999,0.3944,0.4086,0.81184506,-3.4846169999999996,9.616244,-1
1048,1049,1580695727535,0.87409997,0.0931,0.5919,0.11430877,-3.7218535000000004,9.674538,-1
1049,1050,1580695727545,0.3123,-0.0791,0.5263,-0.254925,-3.7641160000000005,9.514289,d
1050,1051,1580695727556,0.0196,-0.0923,0.3399,-0.34324235,-3.6872811000000003,9.353055,-1
1051,1052,1580695727565,0.03,0.0274,0.1419,-0.24570256,-3.5129737999999997,9.096807499999999,-1
1052,1053,1580695727575,0.1639,0.1863,-0.3302,-0.09245449,-3.3735356,8.51834,-1
1053,1054,1580695727585,0.2786,0.2427,-0.7509,0.023769633999999998,-3.339854,8.334063,-1
1054,1055,1580695727595,0.354,0.2305,-0.7554,0.09308656,-3.3639873999999996,8.585512,-1
1055,1056,1580695727605,0.484,0.1802,-0.3044,0.322317,-3.4082515,9.293975,-1
1056,1057,1580695727615,0.75949997,0.1944,0.4331,0.5734975,-3.360674,9.889959,-1
1057,1058,1580695727626,0.96159995,0.2271,0.92499995,0.59295756,-3.3736026,10.3962755,-1
1058,1059,1580695727636,0.8656,0.19699999999999998,1.5230000000000001,0.43759304,-3.3448913,11.013567,-1
1059,1060,1580695727647,0.74799997,0.2399,2.0109,0.36750996,-3.3471230000000003,11.1305,-1
1060,1061,1580695727657,0.6315,0.1955,1.8973,0.14404476,-3.4506671000000004,10.719272,-1
1061,1062,1580695727667,0.44619998,0.0536,1.476,0.121433906,-3.5221388,10.296178,-1
1062,1063,1580695727677,0.5065,-0.024799999,1.0626999,0.36792174,-3.5005050000000004,10.154872,-1
1063,1064,1580695727688,0.7565,-0.0045,0.9931,0.60661405,-3.3763224999999997,10.198628999999999,-1
1064,1065,1580695727698,1.0133,0.09999999400000001,1.0438,0.9261538,-3.2252674,10.562097999999999,-1
1065,1066,1580695727709,1.3658,0.25169998,1.4999,1.2255152,-3.0474932,11.240136,-1
1066,1067,1580695727719,1.6818999,0.42949998,2.1938999,1.4241382,-2.873042,11.931705000000001,-1
1067,1068,1580695727729,1.8592,0.5985,2.8785,1.5094197,-2.6725898,12.708317999999998,-1
1068,1069,1580695727739,1.9704,0.7436,3.6690998,1.66488,-2.6197164,13.404310999999998,-1
1069,1070,1580695727749,2.0909998,0.7714,4.2008,1.4015752000000001,-2.6749267999999997,13.490676,-1
1070,1071,1580695727760,1.8314999,0.6785,4.2764,0.9633405999999999,-2.8112333,13.512357999999999,-1
1071,1072,1580695727770,1.0579,0.34219998,4.4003,0.63942426,-2.925638,13.653932000000001,-1
1072,1073,1580695727781,0.8275,0.1848,4.5302997000000005,0.39998493,-3.0279564999999997,13.790898,-1
1073,1074,1580695727791,0.9852,0.1831,4.9939,0.6052925,-2.9705147999999997,14.415201000000001,-1
1074,1075,1580695727801,1.2972,0.24499999,5.6032,0.8618934000000001,-2.8548079,14.910120999999998,-1
1075,1076,1580695727811,1.5725,0.5106,5.8357997,1.1799583,-2.4649167000000003,15.195309,-1
1076,1077,1580695727821,1.8388,0.7611,5.8578997,1.4404953999999999,-2.1373804,15.176404000000002,-1
1077,1078,1580695727832,1.9892,0.8487,5.4441,1.5610003000000001,-1.9975113000000002,14.71328,-1
1078,1079,1580695727842,1.8299999,0.69769996,4.8115997,1.3566983999999997,-2.0705824,14.132139000000002,-1
1079,1080,1580695727852,1.8299999,0.69769996,4.8115997,1.0572698999999999,-2.2061132999999997,13.915895,-1
1080,1081,1580695727862,1.3044,0.3541,4.4044,0.27030537,-2.6564627,13.710377,-1
1081,1082,1580695727873,-0.055499997,-0.2882,3.9959998,-0.48791915,-2.6508312000000003,13.466560000000001,-1
1082,1083,1580695727883,-0.4874,-0.2306,3.6627,-0.8272446,-2.5087402,13.215113,-1
1083,1084,1580695727894,-0.6459,-0.17199999,3.3509998,-0.9226486999999999,-2.2283697,12.790496000000001,-1
1084,1085,1580695727904,-0.4752,-0.1321,2.9923,-0.787271,-2.1780722000000003,12.434172,-1
1085,1086,1580695727914,-0.41079998,-0.23979999,2.6546,-0.70078284,-2.1239060000000003,12.246533,-1
1086,1087,1580695727924,-0.1854,-0.2708,2.6121,-0.35487816,-2.0357418000000003,12.314558,-1
1087,1088,1580695727934,0.322,-0.3263,2.7758,0.18463126,-1.9772946,12.491125,-1
1088,1089,1580695727944,0.5927,-0.4091,2.7531998,0.24670811,-1.9459784,12.306216000000001,-1
1089,1090,1580695727955,0.2816,-0.5111,2.2702,-0.18017805,-1.9533718,11.699515,-1
1090,1091,1580695727965,-0.21769999,-0.80539995,1.3867999,-0.57721335,-2.102559,10.926984,-1
1091,1092,1580695727975,-0.67249995,-1.1881,0.4177,-1.1754094,-2.3962798,9.572583,-1
1092,1093,1580695727985,-1.0647,-1.4983,-0.54829997,-1.4566706,-2.5009064999999997,8.922251,-1
1093,1094,1580695727995,-1.3009,-1.6636,-1.1582999,-1.6604842,-2.435717,8.49207,-1
1094,1095,1580695728005,-1.3769,-1.6327,-1.4027,-1.6026882,-2.1772869999999998,8.3406515,-1
1095,1096,1580695728016,-1.1697999,-1.4369999,-1.4489,-1.3142155,-1.7844656000000003,8.384993,-1
1096,1097,1580695728026,-0.8781,-1.1685,-1.4151,-1.1804085,-1.3898723999999998,8.218366,-1
1097,1098,1580695728036,-0.80899996,-0.8926,-1.8313999,-1.0769598,-1.0760212,7.47963,-1
1098,1099,1580695728046,-0.58,-0.7597,-2.6978,-0.5591419,-0.8209716999999999,6.604261999999999,-1
1099,1100,1580695728056,0.085099995,-0.5205,-3.6021,0.17726669,-0.33169273,5.680406,-1
1100,1101,1580695728067,0.82659996,-0.1883,-4.4068,0.891074,-0.05050808,5.1725388,-1
1101,1102,1580695728077,1.3633,-0.1277,-4.6709,0.99948347,0.12809937,5.174981,-1
1102,1103,1580695728087,1.2530999,-0.038399998,-4.6102,0.63859105,0.19679381,5.2315892999999996,-1
1103,1104,1580695728097,0.9166,-0.11699999999999999,-4.5780997,0.33024663,0.107672036,5.201327,-1
1104,1105,1580695728107,0.4261,-0.31599998,-4.7117,-0.6301922,-0.07420109,4.7381926,-1
1105,1106,1580695728117,-0.281,-0.493,-5.1484,-1.261275,-0.36925292,4.3210554000000005,-1
1106,1107,1580695728127,-0.79469997,-0.8214,-5.5358,-1.610886,-0.5098596,4.1793184000000005,-1
1107,1108,1580695728138,-1.0508,-0.9536,-5.532099700000001,-1.549939,-0.38554308,4.7173433,-1
1108,1109,1580695728148,-0.8637,-0.8035,-4.9223,-1.1137731000000002,-0.13965857,5.472848,-1
1109,1110,1580695728158,-0.4702,-0.6268,-4.1473,-0.7403063,-0.12572432,6.2053975999999995,-1
1110,1111,1580695728168,-0.097899996,-0.6774,-3.4706,-0.27263254,-0.21002895,6.499251999999999,-1
1111,1112,1580695728179,0.2914,-0.8045,-3.3130998999999997,-0.18868226,-0.32006648,6.2020264,-1
1112,1113,1580695728189,0.2898,-1.0009,-3.6545,-0.55996543,-0.691072,5.789936,-1
1113,1114,1580695728199,-0.1866,-1.3965,-4.053999999999999,-1.3448038999999998,-0.9912281999999999,5.6265273,-1
1114,1115,1580695728210,-0.877,-1.6579,-4.1394,-1.7534653999999998,-1.108343,5.9239445,-1
1115,1116,1580695728220,-1.2631999,-1.6672,-2.9884999,-1.9393321,-1.0680534,6.781768,-1
1116,1117,1580695728230,-1.3798,-1.5172,-2.0960999,-2.0756292000000003,-0.9346964,7.676183999999999,-1
1117,1118,1580695728240,-1.3798,-1.5172,-2.0960999,-2.0338743000000004,-0.8702923,8.5102,-1
1118,1119,1580695728250,-0.9927,-1.2923,-1.0687,-1.6397505,-0.69272876,8.714042,-1
1119,1120,1580695728260,-0.9927,-1.2923,-1.0687,-1.0426748,-0.35749263,8.678675,-1
1120,1121,1580695728270,-0.1454,-0.86509997,-1.4914,-0.7001411999999999,-0.20272185,8.288229,-1
1121,1122,1580695728280,-0.1454,-0.86509997,-1.4914,-0.8441955,-0.29383558,8.121812,-1
1122,1123,1580695728290,-0.6152,-1.1489999,-1.8729,-1.5735652,-0.626735,7.717105999999999,-1
1123,1124,1580695728301,-1.2890999,-1.2732999,-1.9193,-1.8469157999999999,-0.56370044,7.8615336,-1
1124,1125,1580695728311,-1.4757999,-1.1438,-1.5163,-2.0423403,-0.38563886,8.325367,-1
1125,1126,1580695728321,-1.2973,-0.8628,-1.1820998999999999,-1.8254447,-0.11854172,8.661914999999999,-1
1126,1127,1580695728331,-1.0029,-0.6604,-0.9264,-1.5721669,0.12258313,8.883331,-1
1127,1128,1580695728341,-0.80039996,-0.4509,-0.8472,-1.3793954,0.27592698,8.932057,-1
1128,1129,1580695728352,-0.50839996,-0.4323,-0.72889996,-1.0557375,0.30471486,9.077031,-1
1129,1130,1580695728362,-0.0315,-0.3701,-0.62079996,-0.57648546,0.35951334,9.154048,-1
1130,1131,1580695728372,0.2374,-0.37899998,-0.6401,-0.37214515,0.34147059999999996,9.131247,-1
1131,1132,1580695728382,0.126,-0.3444,-0.708,-0.58199215,0.41412026,9.032278999999999,-1
1132,1133,1580695728392,0.126,-0.3444,-0.708,-0.7860643,0.4430231,9.036043,-1
1133,1134,1580695728402,-0.3786,-0.2882,-0.6958,-1.1213579,0.46679273,9.082797,-1
1134,1135,1580695728412,-0.5374,-0.2058,-0.636,-1.2329277,0.5339644,9.125357000000001,-1
1135,1136,1580695728423,-0.4809,-0.1364,-0.5865,-1.1241351000000002,0.62761605,9.266364999999999,-1
1136,1137,1580695728433,-0.30699998,-0.0307,-0.41979998,-0.97067636,0.73018366,9.358915,-1
1137,1138,1580695728443,-0.0583,0.103199996,-0.42,-0.6791105,0.85367656,9.350114,-1
1138,1139,1580695728453,0.2771,0.12979999,-0.3125,-0.27563965,0.88609403,9.564319,-1
1139,1140,1580695728463,0.57989997,0.2254,-0.0777,-0.04388093,1.0386046999999998,9.76117,-1
1140,1141,1580695728474,0.6586,0.3804,0.0394,0.013321338,1.1288565000000002,9.781856,-1
1141,1142,1580695728484,0.5387,0.341,-0.0685,-0.26640759999999997,0.99584424,9.672719,-1
1142,1143,1580695728494,0.22199999,0.1882,-0.097799994,-0.5621776999999999,0.9176209000000001,9.673657,-1
1143,1144,1580695728504,-0.060599997999999995,0.1363,-0.087699994,-0.8087996000000001,0.8445976999999999,9.668505,-1
1144,1145,1580695728514,-0.2085,0.0734,-0.0973,-0.9847064,0.7639611,9.669654,-1
1145,1146,1580695728525,-0.3733,0.026999999,-0.0777,-1.0688962,0.75570583,9.684106,-1
1146,1147,1580695728535,-0.22379999,0.07369999599999999,-0.1369,-0.8188840000000001,0.8445210999999999,9.616896,-1
1147,1148,1580695728545,0.0255,0.17559999,-0.0493,-0.48642516,0.94092125,9.863221000000001,-1
1148,1149,1580695728555,0.24,0.2377,0.1753,-0.27981517,1.0040708,10.016623,-1
1149,1150,1580695728565,0.4093,0.2716,0.2236,-0.19849847,0.9900120000000001,9.90329,-1
1150,1151,1580695728576,0.3929,0.2008,0.085999995,-0.2934717,0.9098350000000001,9.82409,-1
1151,1152,1580695728586,0.2683,0.11449999,0.0174,-0.39593393,0.8594993000000001,9.7653265,-1
1152,1153,1580695728596,0.20600000000000002,0.12879999,0.0175,-0.48744032,0.88402545,9.840926,-1
1153,1154,1580695728606,0.0523,0.14299999,0.1547,-0.6534255,0.82241786,10.005312,-1
1154,1155,1580695728616,-0.047799997000000004,0.056599997,0.2525,-0.7820325,0.7315914000000001,10.031476,-1
1155,1156,1580695728627,-0.21169999,0.0157,0.23249999,-0.8577084,0.74673235,9.988341,-1
1156,1157,1580695728636,-0.1849,0.039899997,0.21249999,-0.6836691,0.82156557,10.070433999999999,-1
1157,1158,1580695728646,0.0023,0.12019999,0.3394,-0.46685973,0.95040226,10.078728,-1
1158,1159,1580695728656,0.1692,0.2377,0.24100000000000002,-0.39001545,1.0428281,9.918928999999999,-1
1159,1160,1580695728666,0.17379999,0.28599998,-0.0042,-0.39800250000000004,1.0051433,9.659349,-1
1160,1161,1580695728676,0.1261,0.1997,-0.1805,-0.45173797,0.9246119,9.527026,-1
1161,1162,1580695728686,0.0058999998,0.0876,-0.3275,-0.6414545,0.8333067,9.388451,-1
1162,1163,1580695728697,-0.18859999,0.048,-0.3764,-0.95292103,0.7524496999999999,9.52332,-1
1163,1164,1580695728707,-0.42119998,-0.0374,-0.20969999,-1.1188201,0.64650154,9.6970625,-1
1164,1165,1580695728717,-0.5685,-0.1327,-0.053,-1.0912676000000001,0.7203195,9.798223,-1
1165,1166,1580695728727,-0.50339997,-0.033999998,0.0447,-0.8440136,0.8165664,9.8558655,-1
1166,1167,1580695728737,-0.23349999,0.052899998,0.093499996,-0.57070106,0.84649396,9.960281,-1
1167,1168,1580695728747,0.017099998999999998,0.0894,0.1916,-0.32204887,0.9298218,9.983821,-1
1168,1169,1580695728758,0.2861,0.1522,0.2015,-0.08269572,0.95542055,9.950216000000001,-1
1169,1170,1580695728768,0.47329998,0.1714,0.1528,-0.033288978,1.02581,9.901096,-1
1170,1171,1580695728778,0.4613,0.2155,0.10439999400000001,-0.18837579999999998,0.8742858,9.732066,-1
1171,1172,1580695728789,0.28039998,0.0202,-0.1007,-0.37155136,0.8110406,9.327857,-1
1172,1173,1580695728799,0.0661,-0.0446,-0.5211,-0.6780666999999999,0.6192555000000001,8.95509,-1
1173,1174,1580695728810,-0.4428,-0.2608,-0.5983,-0.90279603,0.6213145,9.168672,-1
1174,1175,1580695728820,-0.4428,-0.2608,-0.5983,-0.8583021999999999,0.7632619,9.447980000000001,-1
1175,1176,1580695728830,-0.2572,-0.0032,-0.0008,-0.6871455,0.88347006,9.762377,-1
1176,1177,1580695728840,-0.2572,-0.0032,-0.0008,-0.24761792,1.1535838999999999,9.821425999999999,-1
1177,1178,1580695728850,0.78069997,0.4491,-0.0018,0.3846333,1.3387132,9.768123,-1
1178,1179,1580695728860,1.3757,0.6871,-0.1787,0.9895619000000001,1.5702419,9.587303,d
1179,1180,1580695728871,1.3757,0.6871,-0.1787,1.4794346999999999,1.71195,9.516051,-1
1180,1181,1580695728881,2.0904999,0.96419996,0.0064,1.7079852999999998,1.8423477,9.81569,-1
1181,1182,1580695728891,2.0904999,0.96419996,0.0064,1.6106657,1.8713272,10.017799,-1
1182,1183,1580695728901,1.6868999,0.86249995,0.593,1.2524357,1.6704153999999998,10.417957000000001,-1
1183,1184,1580695728911,1.4761,0.727,0.7198,1.0922252000000001,1.5611727,10.495117,-1
1184,1185,1580695728921,1.4761,0.727,0.7198,1.042378,1.5104061000000002,10.380243,-1
1185,1186,1580695728932,1.2339,0.5719,0.15089999,0.9289215000000001,1.4448718999999999,9.922989,-1
1186,1187,1580695728942,1.2169,0.5417,-0.1722,0.95368713,1.4271643999999999,9.544350999999999,-1
1187,1188,1580695728952,1.3919,0.5209,-0.3683,1.1411723,1.4113436000000001,9.405258,-1
1188,1189,1580695728962,1.6687,0.6192,-0.28059998,1.4426502,1.5135378000000002,9.54753,-1
1189,1190,1580695728972,2.0877,0.7258,0.1302,1.7702631999999998,1.5788993999999998,9.905512,-1
1190,1191,1580695728982,2.4369,0.8365,0.7859,2.1470146,1.7015017,10.659245,-1
1191,1192,1580695728993,2.7166997999999998,1.0248,1.0591999,2.4135947,1.8551041000000001,10.819386999999999,-1
1192,1193,1580695729003,3.0881,1.1618998999999999,1.0387,2.7950293999999998,1.976969,10.83065,-1
1193,1194,1580695729013,3.4915,1.3174,0.9303,3.2118599999999997,2.147446,10.538079,-1
1194,1195,1580695729023,3.8174998999999996,1.4318,0.46899998,3.4687195,2.1836363999999997,10.164583,-1
1195,1196,1580695729033,4.14,1.4386,0.12529999,3.7735875,2.224587,9.852791,-1
1196,1197,1580695729043,4.3009,1.6194998999999999,0.12419999400000001,3.8938339,2.3582122,9.94538,-1
1197,1198,1580695729053,4.5875998,1.7279999,0.58379996,4.211515400000001,2.4382646,10.503095,-1
1198,1199,1580695729064,4.9393997,1.9069999999999998,1.2581999,4.6219296,2.6636164,11.311577999999999,-1
1199,1200,1580695729074,5.2879,2.1022,1.864,4.9738107000000005,2.6827126,11.840247,-1
1200,1201,1580695729084,5.5566,1.9484999,2.323,5.053432,2.3578482000000003,12.328358,-1
1201,1202,1580695729095,5.35,1.5397999,2.8804998,4.6733475,1.9034861,12.893293,-1
1202,1203,1580695729105,4.7521,1.1953,3.3699,4.1052322,1.6257683,13.305316,-1
1203,1204,1580695729115,4.1263,0.8419,4.291,3.1645122000000003,1.1335203999999999,14.517423999999998,-1
1204,1205,1580695729125,3.3585,0.63729995,4.8684,2.5787373,1.1068107,14.704957,-1
1205,1206,1580695729135,2.8102999,0.61439997,4.8768,2.1718472999999996,0.9554396999999999,14.456764000000002,-1
1206,1207,1580695729145,2.4329,0.34829998,4.4639997000000005,1.6697544999999998,0.62843966,14.025789000000001,-1
1207,1208,1580695729156,1.786,-0.058399998,4.1696,1.1686673,0.31185913,14.005122,-1
1208,1209,1580695729166,1.1564,-0.5529999999999999,4.4835997,0.3990464,-0.3345945,14.623870000000002,-1
1209,1210,1580695729176,0.3793,-1.0737,5.0428,-0.5725494000000001,-0.7204823,15.148813,-1
1210,1211,1580695729186,-0.70669997,-1.3876,5.5924,-1.5635957,-0.97908485,15.653032000000001,-1
1211,1212,1580695729196,-1.8499,-1.8127999,6.2601,-2.8060906,-1.6771287,16.474079999999997,-1
1212,1213,1580695729206,-2.7135,-2.5273,6.9774,-3.6541069999999998,-2.344134,17.201057000000002,-1
1213,1214,1580695729217,-3.5396,-3.014,7.6267996,-4.4379115,-2.5583098,17.552744,-1
1214,1215,1580695729227,-4.1534,-3.3037998999999996,7.7376,-4.7021837,-2.9563699,17.401966,-1
1215,1216,1580695729237,-4.2907,-3.8709,7.4672,-4.8303785,-3.5440888,16.975561,-1
1216,1217,1580695729247,-4.5867,-4.5519,6.9736,-5.557737,-4.1173472,16.214233,-1
1217,1218,1580695729257,-5.3822,-5.1095,6.3259,-6.679928299999999,-4.6752343000000005,15.488339000000002,-1
1218,1219,1580695729267,-6.565,-5.8293,5.5929,-8.027728999999999,-5.123496,14.831408999999999,-1
1219,1220,1580695729277,-7.8756,-6.309,4.9804997,-9.005837,-5.128993,14.271011999999999,-1
1220,1221,1580695729288,-8.7248,-6.3947997,4.4007,-9.471461999999999,-4.9855323,13.668459,-1
1221,1222,1580695729298,-9.0703,-6.3641,3.6287,-9.581192999999999,-4.749799299999999,12.547483999999999,-1
1222,1223,1580695729308,-9.045899,-6.2776,2.6453,-9.413437,-4.49089,11.670392999999999,-1
1223,1224,1580695729318,-8.682899,-6.1533,1.6076,-8.891127000000001,-4.182862,10.325560000000001,-1
1224,1225,1580695729328,-8.257999,-6.0864,0.43719998,-8.609196,-3.9906268,8.805922,-1
1225,1226,1580695729339,-7.9493,-6.0520997,-1.0426999,-8.178478,-3.69116,7.6452894,-1
1226,1227,1580695729349,-7.5017,-5.9203,-2.0300999,-8.066381,-3.4286404000000004,7.004132000000001,-1
1227,1228,1580695729359,-7.4233,-5.8122,-2.5955,-8.176744,-3.0384526000000003,6.4214883,-1
1228,1229,1580695729370,-7.4104,-5.513,-3.0727,-7.58644,-2.3866553,6.2615365999999995,-1
1229,1230,1580695729380,-5.9512997,-4.7588,-3.4399998,-6.833061,-1.9185696,5.9133334,-1
1230,1231,1580695729390,-5.9512997,-4.7588,-3.4399998,-5.95505,-1.3033077,5.685204,-1
1231,1232,1580695729400,-4.9916,-4.2518,-3.6234998999999997,-5.0378313,-0.72105694,5.3886199999999995,-1
1232,1233,1580695729410,-3.5698,-3.5874998999999996,-4.1561,-4.6752725,-0.43228748,5.074051,-1
1233,1234,1580695729421,-3.3186,-3.6337,-4.1331997000000005,-4.493524,-0.37365827,5.05167,-1
1234,1235,1580695729431,-2.9889,-3.6367998,-4.2767,-4.242687999999999,-0.2956935,4.858314,-1
1235,1236,1580695729441,-2.9889,-3.6367998,-4.2767,-3.8937763999999997,-0.02162443,4.3082223,-1
1236,1237,1580695729451,-2.5635998,-3.4545,-4.791,-3.6921462999999997,0.42572737,3.550649,-1
1237,1238,1580695729461,-2.3997,-3.0365,-6.3336997,-3.8660707000000003,0.60595334,2.6663938,-1
1238,1239,1580695729471,-2.6957998,-3.0667,-7.6958,-4.215634,0.67867,1.2559311000000002,-1
1239,1240,1580695729481,-2.6239998,-3.1348,-8.8926,-4.1874970000000005,0.7048147,-0.010122685,-1
1240,1241,1580695729491,-2.6239998,-3.1348,-8.8926,-4.1414423,0.61453414,-1.2441901000000002,-1
1241,1242,1580695729501,-2.1636,-3.3606,-10.7946,-3.7598162000000004,0.6420195,-1.9894763,-1
1242,1243,1580695729511,-1.5654,-3.3149,-10.7234,-3.1422174,0.74273884,-1.9355397,-1
1243,1244,1580695729521,-1.1977999,-3.1811,-9.255899000000001,-2.7573543,0.9095285,-0.4798076,-1
1244,1245,1580695729531,-0.8833,-3.1323,-7.9975,-2.3989327,0.95390743,0.7949036999999999,-1
1245,1246,1580695729541,-0.3603,-3.0402,-7.5112996,-1.6542593,1.0769598,1.4187752,-1
1246,1247,1580695729551,-0.3603,-3.0402,-7.5112996,-0.9786252000000001,1.2517748,1.6944244,-1
1247,1248,1580695729562,1.9563999,-2.3978,-7.4254,0.6041433,1.6184228999999999,1.4361858,-1
1248,1249,1580695729572,3.3026998,-2.4355,-8.0571995,2.0125182,1.5505617,0.8203014000000001,-1
1249,1250,1580695729583,4.4755,-2.5500998,-8.0356,3.5388696000000004,1.3608643,1.0419565,-1
1250,1251,1580695729593,5.4567,-2.6102,-6.8917,4.5685199999999995,1.3163034,2.3659787,-1
1251,1252,1580695729603,5.9754,-2.6016998,-5.4579,5.062645,1.2735333,3.52279,-1
1252,1253,1580695729613,5.9231,-2.6590998,-4.7713,5.124779,1.1174122,4.373287,-1
1253,1254,1580695729623,5.8680997,-2.5455,-4.6937,5.2709209999999995,1.2473121,4.2917976,-1
1254,1255,1580695729634,6.3606997000000005,-2.1434999,-5.3925,6.079232,1.5375851,3.384185,-1
1255,1256,1580695729644,7.0446,-2.0334,-6.0049996,6.980811999999999,1.5611153,3.2735155,-1
1256,1257,1580695729654,8.315599,-1.7651999,-5.3258,8.672804,1.7932186999999997,4.4539337,-1
1257,1258,1580695729664,10.2675,-1.2727,-3.7461,10.490022999999999,2.1459327,6.0303235,-1
1258,1259,1580695729674,11.3048,-0.98039997,-2.3225,11.165503,2.0777073,7.4518476,-1
1259,1260,1580695729684,10.931,-1.3234,-1.1705999,10.466856,1.5224632,8.525455000000001,-1
1260,1261,1580695729694,9.957499499999999,-1.7655,-0.50549996,9.745378,1.0007571,8.994173,-1
1261,1262,1580695729704,9.4671,-1.8806,-0.2113,9.567824,0.9271976999999999,9.201846000000002,-1
1262,1263,1580695729714,9.4359,-1.4080000000000001,0.3839,9.667222,1.4159021,10.238593,-1
1263,1264,1580695729724,9.6039,-0.9145,1.5223999,9.909487,1.6367146000000001,11.667778,-1
1264,1265,1580695729734,9.969999000000001,-0.3369,3.3149,10.356483,2.2805443,13.706842000000002,-1
1265,1266,1580695729744,10.929299,0.7967,5.444,11.802035,3.2691482999999995,15.896780999999999,-1
1266,1267,1580695729754,12.8853,2.0334,7.2475996,13.810695,4.2065644,17.227332999999998,-1
1267,1268,1580695729765,14.5625,2.7284,7.5901,15.140444,4.4970675,17.12358,-1
1268,1269,1580695729775,15.134298999999999,3.0886,7.057699700000001,15.127907,4.6387944,16.338176999999998,-1
1269,1270,1580695729785,14.623698999999998,3.0867999,6.4709997,13.9131565,4.3741107,16.04325,-1
1270,1271,1580695729795,13.0126,2.9297,6.2395,11.914763,3.8994746,16.018425,-1
1271,1272,1580695729805,11.0701,2.3744,6.4318,10.240077000000001,3.3244064,16.270842000000002,-1
1272,1273,1580695729816,9.7013,2.04,6.4504,9.440826,3.1049729999999998,16.136766,-1
1273,1274,1580695729826,8.988299000000001,1.8537999,6.2072997,8.674078,2.589109,15.698493,-1
1274,1275,1580695729837,8.2597,1.2752,5.7499,7.8781395000000005,1.8240657,15.275476000000001,-1
1275,1276,1580695729847,7.718,0.6149,5.4599,7.8979254,1.2147605,15.276260999999998,-1
1276,1277,1580695729857,7.8684997999999995,0.228,5.5529,8.087537,0.8642206,15.606373999999999,-1
1277,1278,1580695729867,7.9869,-0.0714,5.9207997,7.8100777,0.42740333,16.07806,-1
1278,1279,1580695729877,7.5828996,-0.4928,6.3875,6.7779083,-0.25702235,16.711279,-1
1279,1280,1580695729888,6.337999999999999,-1.1546,7.0999,4.911436599999999,-1.1356944,17.589787,-1
1280,1281,1580695729898,4.4133,-2.0175,7.9698,3.4797328000000003,-1.8168161,18.263842,-1
1281,1282,1580695729908,2.6838999,-2.8676,8.849999,1.2329181,-2.9309149,19.188723,-1
1282,1283,1580695729919,0.7338,-3.7510000000000003,9.4468,-0.58107275,-3.6209428,19.152445,-1
1283,1284,1580695729929,-0.9428,-4.3587,9.2513,-1.9435650000000002,-3.8635042,18.358643,-1
1284,1285,1580695729939,-2.2812997999999998,-4.5871997,8.3833,-2.8489852000000004,-3.7801190000000005,17.41074,-1
1285,1286,1580695729949,-2.9836,-4.5407,7.6317997,-2.9344678,-3.681928,17.000526,-1
1286,1287,1580695729960,-3.0985,-4.5283,7.2268,-3.0544362,-3.320164,16.874660000000002,-1
1287,1288,1580695729970,-3.1148,-3.915,7.3173,-2.9726982000000004,-2.9452798,17.079027,-1
1288,1289,1580695729980,-3.1148,-3.915,7.3173,-3.638526,-2.9551534999999998,17.183971,-1
1289,1290,1580695729990,-3.7386,-3.9926998999999994,7.4217997,-5.4271193,-3.3522847000000002,17.040318,-1
1290,1291,1580695730000,-7.7103996,-5.0624,6.6109,-7.687608999999999,-3.8292766000000005,16.354963,-1
1291,1292,1580695730011,-9.465099,-5.5487,5.746299700000001,-9.473386999999999,-4.178102,15.460357,-1
1292,1293,1580695730021,-10.1929,-5.7616997,4.700599700000001,-10.222437,-4.2335997,14.3982315,-1
1293,1294,1580695730031,-9.7343,-5.7056,3.307,-9.759303,-4.0060839999999995,12.975453,-1
1294,1295,1580695730041,-8.6784,-5.3382998,2.1426,-8.5077,-3.3496989999999998,11.5462675,-1
1295,1296,1580695730051,-7.6517,-4.8652997000000004,0.95049995,-7.5772367,-2.6846473,10.311789,-1
1296,1297,1580695730061,-7.0123997000000005,-4.4498997000000005,0.0731,-7.031903999999999,-2.0795367,9.430282,-1
1297,1298,1580695730072,-6.4838,-4.0178,-0.5282,-6.6052003,-1.5440111,8.7607765,-1
1298,1299,1580695730082,-6.178999999999999,-3.7154998999999997,-1.3029,-6.448016,-1.2405508,8.192058,-1
1299,1300,1580695730092,-6.0923,-3.6155,-1.9666,-6.4427012999999995,-0.9315264000000001,7.327387299999999,-1
1300,1301,1580695730102,-6.1886,-3.5949,-2.8211,-6.5662804,-0.7648517,6.36375,-1
1301,1302,1580695730112,-6.0697,-3.5224998,-4.025,-6.407257599999999,-0.5062587000000001,5.047714,-1
1302,1303,1580695730123,-5.6951,-3.3630998,-5.1668,-5.909886,-0.090950936,3.8195943999999997,-1
1303,1304,1580695730133,-5.1405997,-3.109,-5.8176,-5.2819824,0.42619663,3.1054423,-1
1304,1305,1580695730143,-4.3282,-2.6961,-6.5382,-4.4453435,0.95792013,2.3846729,-1
1305,1306,1580695730153,-3.5258,-2.2970998,-7.085099700000001,-3.7385553999999996,1.4765042,1.852595,-1
1306,1307,1580695730163,-2.9019999999999997,-1.9616,-7.5765996,-3.2573879,1.8874737000000001,1.265623,-1
1307,1308,1580695730173,-2.5061,-1.7436999,-8.090099,-2.9347262,2.1020515,0.715512,-1
1308,1309,1580695730184,-2.3025,-1.7421999,-8.6848,-2.8807034,2.1508646000000002,0.30881372,-1
1309,1310,1580695730194,-2.1541997999999998,-1.7112,-9.2438,-2.6066442000000003,2.3261106,-0.50356764,-1
1310,1311,1580695730204,-1.8233,-1.5975,-9.5239,-2.367425,2.5589897999999995,-0.57359326,-1
1311,1312,1580695730214,-1.6876999,-1.3083999,-9.3215,-2.1766933999999996,2.8982866,-0.38486314,-1
1312,1313,1580695730224,-1.2203,-1.068,-9.1567,-1.7044418000000001,3.2104425,-0.26072857,-1
1313,1314,1580695730235,-0.90199995,-0.743,-9.2437,-1.5555704,3.4733739999999997,-0.5825859,-1
1314,1315,1580695730245,-0.8761,-0.63019997,-9.7282,-1.6421733,3.4777122000000005,-1.1242212999999999,-1
1315,1316,1580695730255,-1.0318999,-0.831,-10.3834,-2.0380404,3.0616,-1.986268,-1
1316,1317,1580695730265,-1.3276,-1.2828,-11.0806,-2.2185152,2.5352490000000003,-2.598427,-1
1317,1318,1580695730275,-1.4166,-1.8273,-11.5661,-2.4083467,1.9227643,-2.7320428,-1
1318,1319,1580695730285,-1.7145,-2.4271,-11.5196,-2.828826,1.3118119,-2.4428902000000003,-1
1319,1320,1580695730296,-2.1169999,-2.9705,-11.1088,-3.083253,0.9527199000000001,-2.0093577000000002,-1
1320,1321,1580695730306,-2.4164999,-3.1032,-10.6181,-3.2731228,0.8105905,-1.4773469,-1
1321,1322,1580695730316,-2.4371,-3.2601,-10.271299,-3.2252963,0.46829626,-1.036833,-1
1322,1323,1580695730326,-2.3890998,-3.4338,-9.831799499999999,-3.0335014,0.29557854,-0.6093052,-1
1323,1324,1580695730336,-2.1067,-3.5483,-9.4944,-2.582472,-0.119422786,-0.18408537,-1
1324,1325,1580695730347,-1.6222,-3.9891,-9.0907,-2.115871,-0.63396543,0.11607089999999998,-1
1325,1326,1580695730357,-1.1223999,-4.4544997,-8.9824,-1.3067553,-1.4251724,-0.055066638,-1
