,Seq,Time,ACCx,ACCy,ACCz,ADGx,ADGy,ADGz,Keydown
0,1,1580695328999,1.0764999,-0.7596,-2.2800999,1.4130483,3.1932712000000003,6.50767,-1
1,2,1580695329009,-0.0069999998,-0.2855,-0.5958,0.089744255,3.8594913,8.237069,-1
2,3,1580695329020,-0.083,-0.2994,-0.6627,0.04185065,3.9706205999999997,8.173842,-1
3,4,1580695329031,-0.21519999,-0.2716,-0.6031,-0.117708534,3.9996097,8.243072999999999,-1
4,5,1580695329041,-0.21519999,-0.2716,-0.6031,-0.20659088,3.8431056000000003,8.34816,-1
5,6,1580695329052,-0.4633,-0.4315,-0.3859,-0.38618472,3.8266620000000002,8.462622,-1
6,7,1580695329062,-0.6477,-0.30769998,-0.050499998,-0.60214174,3.9347079,8.802464500000001,-1
7,8,1580695329072,-0.6821,-0.1794,0.5182,-0.6240343,4.069683,9.4656105,-1
8,9,1580695329082,-0.4021,-0.0696,0.7432,-0.40200559999999996,4.1297393,9.616503,-1
9,10,1580695329092,-0.4021,-0.0696,0.7432,-0.04471411,4.2879863,9.333019,-1
10,11,1580695329102,0.15969999,0.3013,0.2047,0.2768176,4.535547,9.059133000000001,-1
11,12,1580695329112,0.4525,0.45659998,0.1266,0.5784008,4.694742,8.966619999999999,-1
12,13,1580695329122,0.62799996,0.54789996,0.1004,0.774371,4.7913723,8.964149,-1
13,14,1580695329133,0.6378,0.4868,0.2879,0.76741827,4.751466000000001,9.211308,-1
14,15,1580695329143,0.38329998,0.408,0.7739,0.48698062,4.6766033,9.746335,-1
15,16,1580695329153,0.0047,0.302,1.5284,0.0014939818,4.570828,10.715451,-1
16,17,1580695329163,-0.3575,0.2608,2.3191,-0.21730733,4.5196495,11.29319,-1
17,18,1580695329173,-0.4669,0.1874,2.8465,-0.23663332,4.443667,11.767491999999999,-1
18,19,1580695329183,-0.31579998,0.24419999,3.0832,-0.07653784,4.582167,11.949451,-1
19,20,1580695329193,-0.1443,0.4813,3.1462998,0.08262869,4.8142510000000005,12.0098715,-1
20,21,1580695329205,-0.0756,0.5402,3.2199,0.29840370000000005,4.7906537,12.080297999999999,-1
21,22,1580695329215,0.22649999,0.46299999999999997,3.4203,0.58675176,4.8325043,12.512195,-1
22,23,1580695329226,0.3268,0.61259997,3.8945,0.51310617,5.0623484,12.8704815,-1
23,24,1580695329236,0.2262,0.8275,4.0662,0.40630559999999993,5.166113,12.867503,-1
24,25,1580695329246,0.2122,0.78209996,4.0442,0.40682274,5.034757,12.857332000000001,-1
25,26,1580695329256,0.0535,0.682,4.1133,0.34138444,4.85093,12.955772,-1
26,27,1580695329266,0.1765,0.312,4.2341,0.25205198,4.4815335,13.154645,-1
27,28,1580695329277,-0.037000000000000005,-0.0132,4.4749,-0.19079871,4.353492,13.336929000000001,-1
28,29,1580695329287,-0.54249996,-0.1173,4.62,-0.69003767,4.283093,13.51953,-1
29,30,1580695329297,-0.9946,-0.2445,4.923899700000001,-1.0060244,4.17204,13.933535999999998,-1
30,31,1580695329307,-1.1611,-0.3935,5.3763,-1.0168749,4.146518,14.168053,-1
31,32,1580695329317,-1.0722,-0.41189998,5.45,-0.9131485,4.3004169999999995,13.934157999999998,-1
32,33,1580695329327,-0.93259996,-0.1678,5.0304,-0.7510898,4.683978,13.091304,-1
33,34,1580695329338,-0.6824,-0.0142,4.3434,-0.45925575,4.666989,12.675766000000001,-1
34,35,1580695329347,-0.2744,-0.1911,3.9845998,0.05132211,4.4421824999999995,12.527622000000001,-1
35,36,1580695329357,0.1837,-0.3998,3.8832,0.14623784,4.554250700000001,12.232311,-1
36,37,1580695329367,0.1169,-0.35619998,3.6667,0.055334787999999996,4.6047970000000005,11.660088,-1
37,38,1580695329377,0.068799995,-0.4159,3.0625,-0.12244905,4.582148,10.878141000000001,-1
38,39,1580695329387,-0.0469,-0.5574,2.3932,-0.43096587,4.50221,10.5039,-1
39,40,1580695329397,-0.2844,-0.8268,2.0595,-0.5733443,4.1550984,10.238469,-1
40,41,1580695329407,-0.4813,-1.2623999,1.8743999,-0.9089921999999999,3.8917556,9.921677,-1
41,42,1580695329418,-0.67579997,-1.5317999,1.6623,-1.2732748,3.717161,9.565056,-1
42,43,1580695329428,-1.0423,-1.745,1.3168,-1.5850955,3.8715007000000004,8.96143,-1
43,44,1580695329438,-1.1722,-1.6976999,0.76089996,-1.3159011999999999,3.993988,8.199106,-1
44,45,1580695329449,-0.741,-1.6757,0.034399997,-0.46589250000000004,3.8377422999999995,7.2246666,-1
45,46,1580695329459,0.2695,-1.9922999,-0.8921,0.32407913,3.9379256000000002,6.1369514,-1
46,47,1580695329469,1.0196999,-1.9774,-1.8541,1.0071449000000001,3.8905108,5.5012913,-1
47,48,1580695329479,1.729,-2.1862,-2.3539,1.342017,3.6732705,4.6976633,-1
48,49,1580695329489,1.9997,-2.5403,-3.1266,1.1588032,3.3341557999999996,3.559048,-1
49,50,1580695329499,1.8736999,-2.924,-3.9740998999999997,0.31965467,2.969519,3.0632854,-1
50,51,1580695329510,1.087,-3.4085,-4.3659,-0.67708987,2.5364267999999996,2.6215935,-1
51,52,1580695329520,0.17029999,-3.9671,-4.6977,-1.1811459,2.2444587000000005,1.8535143,-1
52,53,1580695329530,-0.3744,-4.3753,-5.6352997,-1.7543081999999999,2.3404949,0.21319887,-1
53,54,1580695329540,-0.7509,-4.3773,-6.8749,-1.4165821,2.6729827,-0.8321765999999999,-1
54,55,1580695329551,0.33179998,-3.6629,-9.0188,-0.8477964,3.2435017000000004,-2.1568596,-1
55,56,1580695329561,0.33179998,-3.6629,-9.0188,-0.42740333,3.646781,-3.5110297,-1
56,57,1580695329571,0.8405,-3.3383,-10.277999999999999,0.06603208,3.4963005,-4.870993599999999,-1
57,58,1580695329581,1.5684999,-3.7733998,-12.8289995,0.13616304,3.3360230000000004,-6.2253074999999995,-1
58,59,1580695329591,1.4563999,-4.1222997,-13.8356,-0.13974477,2.8944366,-7.4312954,-1
59,60,1580695329601,1.4563999,-4.1222997,-13.8356,-0.28922915,2.6118443,-7.909743300000001,-1
60,61,1580695329611,1.3442999,-4.5817,-14.371799,-0.73040396,2.5620830000000003,-8.710767,-1
61,62,1580695329621,0.8093,-4.857599700000001,-15.434099,-0.91019887,2.251833,-9.207305,-1
62,63,1580695329631,0.7319,-5.4185,-15.8642,-0.9508812,1.8676593000000001,-9.524268,-1
63,64,1580695329641,0.624,-5.7935,-16.221899,-1.0720853000000001,1.4533284,-9.925488,-1
64,65,1580695329651,0.624,-5.7935,-16.221899,-1.1071841999999998,1.1028268,-9.981810000000001,-1
65,66,1580695329662,0.5153,-6.8004,-16.1526,-1.0147680000000001,0.37613866,-9.656486,-1
66,67,1580695329672,0.65,-7.482,-15.340698999999999,-0.9147765999999999,-0.4386465,-8.677928,-1
67,68,1580695329682,0.3633,-8.1988,-14.3692,-1.0401466000000001,-1.1774205,-7.618197,-1
68,69,1580695329692,0.83949995,-8.5279,-13.2879,-0.37925112,-1.5349705,-6.3630510000000005,-1
69,70,1580695329703,1.5454999,-8.8863,-11.886,0.46238738,-2.0936718,-4.7591367,-1
70,71,1580695329713,1.7197,-9.5215,-10.402999999999999,0.48685613,-2.8325129000000002,-3.236434,-1
71,72,1580695329723,0.5184,-10.0587,-9.7477,-1.2558163,-3.6708667,-2.4735264999999997,-1
72,73,1580695329733,-1.6455,-10.8963995,-9.2126,-2.8870242000000004,-4.5439169999999995,-1.7660015,-1
73,74,1580695329743,-3.4404,-11.3054,-7.935,-4.453253299999999,-4.7917166,0.17747739,-1
74,75,1580695329753,-3.6021998,-10.5966,-6.2383,-3.8535057999999998,-4.2793,1.8047014,-1
75,76,1580695329763,-1.5955,-9.4395,-3.8999,-1.430411,-3.2622721,4.494271,-1
76,77,1580695329773,0.85099995,-7.8307,-1.3007,1.325248,-1.9860957,7.242928999999999,-1
77,78,1580695329783,3.6199,-6.6621,1.051,4.2201059999999995,-1.2306868,9.794871,-1
78,79,1580695329793,5.3261,-5.8451,3.3934,5.9057775,-0.7737581,12.305287,-1
79,80,1580695329803,5.6324,-5.2146,5.6923,6.093214499999999,-0.57170665,14.787853,-1
80,81,1580695329813,4.4554996,-4.6408997,7.3767996,4.321065,-0.23295583,16.567513,-1
81,82,1580695329824,2.4408,-4.0154,8.068999999999999,2.6265542999999996,-0.20137152,17.553729999999998,-1
82,83,1580695329834,1.268,-3.8174998999999996,9.520599,1.8993297999999998,-0.53913593,19.654404,-1
83,84,1580695329844,1.0412999,-3.6934998,11.963699,1.8685976999999998,-0.77757925,22.378775,-1
84,85,1580695329854,1.046,-3.4575,14.4733,2.1906272999999996,-0.9177837,24.7044,-1
85,86,1580695329864,1.7427,-3.1197999,15.943399,2.9670098,-0.7736528,25.546764000000003,-1
86,87,1580695329874,2.2870998,-2.3339,15.351398999999999,3.5308344,-0.2855804,24.113787,-1
87,88,1580695329885,2.6164,-1.7369999999999999,12.855499,3.6497593,0.031727962,21.117998,-1
88,89,1580695329895,2.1052,-1.1424999,9.3193,2.7868414,0.20439778,17.878012,-1
89,90,1580695329905,0.955,-1.1395,7.336,1.4230274,-0.25294262,16.84678,-1
90,91,1580695329915,0.01,-1.2219,7.3462,0.78988546,-0.4201728,17.99072,-1
91,92,1580695329925,-0.34309998,-0.99609995,9.2065,0.7356807,-0.42770020000000003,20.084085,-1
92,93,1580695329935,-0.2694,-0.83629996,11.9197,0.7825592,-0.6546896,22.617207999999998,-1
93,94,1580695329946,-0.4057,-0.73179996,13.0145,0.5555696999999999,-0.9006795,22.383554,-1
94,95,1580695329956,-0.6023,-0.8551,12.0658,0.5317043,-1.2684481,20.620205,-1
95,96,1580695329966,-0.45589998,-0.8566,9.854899000000001,0.7438019,-1.232286,18.532460999999998,-1
96,97,1580695329976,-0.070999995,-0.3649,7.3413997,1.5083375,-0.4032123,16.011646,-1
97,98,1580695329986,0.84999996,0.8178,5.8299,2.5567488999999997,0.9125834999999999,15.349581,-1
98,99,1580695329996,1.9203,2.2359999999999998,5.7823997,3.4625425,1.8103900000000002,15.955774,-1
99,100,1580695330007,2.7084,3.0777,6.7289,3.9679966,2.1255245,17.200972,-1
100,101,1580695330017,2.9649,3.2965998999999995,7.9238,3.6691620000000005,1.9123734000000001,18.050279999999997,-1
101,102,1580695330027,2.4575,3.1269,8.5323,2.8641259999999997,1.3476291999999999,18.34354,-1
102,103,1580695330037,1.5751,2.6494,8.7586,1.8355386999999999,0.4857165,18.218678,-1
103,104,1580695330047,0.8713,2.0219998,8.4531,1.3880719,-0.27131096,17.163794,-1
104,105,1580695330058,0.50659996,1.4264,7.2503996,1.0225157,-0.77749306,15.596673000000001,-1
105,106,1580695330068,0.19669999,1.0030999,5.6601,0.6406309,-1.0929148000000002,14.0427685,-1
106,107,1580695330078,-0.21689999,0.79109997,4.1738,0.14512692,-1.0009679,12.971325,-1
107,108,1580695330088,-0.6364,0.9406,3.2449,0.0874554,-0.85898215,12.575286,-1
108,109,1580695330099,-0.5489,1.1098,2.9341,0.44602063,-0.70550424,12.3747,-1
109,110,1580695330109,-0.12539999,1.3130000000000002,2.7419,1.1192318,-0.48217306,12.200689,-1
110,111,1580695330119,0.461,1.5214,2.6093,1.6891572,-0.39128917,12.145,-1
111,112,1580695330129,1.0612999,1.6446999,2.5655,2.3038733,-0.27493098,12.206099499999999,-1
112,113,1580695330139,1.7085999,1.7957,2.6296,2.739321,-0.19214904,12.350833999999999,-1
113,114,1580695330149,2.1712,1.9004999,2.7714,2.891784,-0.20077775,12.473925,-1
114,115,1580695330159,2.3284,1.8758999,2.9308999,2.6753669999999996,-0.36400485,12.604352,-1
115,116,1580695330169,2.0139,1.7095,3.0584998,2.0711088,-0.5810248,12.538616000000001,-1
116,117,1580695330179,1.3801,1.4613999,2.9089,1.3691386,-0.96249783,12.064535000000001,-1
117,118,1580695330189,0.7852,1.1144999,2.4826,0.9970701,-1.2615815000000001,11.495616,-1
118,119,1580695330200,0.4211,0.7917,1.9077,0.83410156,-1.4223762,11.072101,-1
119,120,1580695330210,0.2207,0.42409998,1.0026,0.7752329000000001,-1.5667657,10.593903,d
120,121,1580695330220,0.3495,0.4114,0.6732,0.88872766,-1.5605598999999999,10.277617999999999,-1
121,122,1580695330230,0.3495,0.4114,0.6732,0.9958634,-1.5041524,10.03407,-1
122,123,1580695330241,0.6497,0.59169996,0.1522,1.1838178999999998,-1.3133153999999998,9.707444,-1
123,124,1580695330251,0.8653,0.6658,-0.1373,1.3567846000000001,-1.2408190000000001,9.485789,-1
124,125,1580695330261,0.9853,0.79859996,-0.34809998,1.4732577,-1.0794402,9.278039,-1
125,126,1580695330271,0.91389996,0.83629996,-0.48929998,1.4071106000000002,-1.0183688,9.144998,-1
126,127,1580695330281,0.91389996,0.83629996,-0.48929998,1.3179983999999998,-1.1110915000000001,9.25812,-1
127,128,1580695330291,0.71819997,0.6232,-0.0914,1.1788571,-1.2225847,9.627804,-1
128,129,1580695330302,0.5201,0.5183,0.36879998,1.0091273,-1.3130568,10.083352,-1
129,130,1580695330312,0.4113,0.48200000000000004,0.7015,0.9380578000000002,-1.3412606000000002,10.351638000000001,-1
130,131,1580695330322,0.4908,0.5096,0.6311,1.0723821000000002,-1.2991896,10.207152,-1
131,132,1580695330332,0.7482,0.4716,0.24569999,1.3277669,-1.3135835,9.806275999999999,-1
132,133,1580695330342,0.867,0.49749997,-0.1012,1.4246553999999998,-1.2398038,9.494533,-1
133,134,1580695330352,0.8161,0.51309997,-0.2127,1.3774513000000002,-1.2296428999999998,9.460678999999999,-1
134,135,1580695330363,0.73219997,0.48209998,-0.019399998999999998,1.2924763000000001,-1.2413936,9.686652,-1
135,136,1580695330373,0.509,0.4155,0.3511,1.0534008999999998,-1.3123098999999998,10.092239999999999,-1
136,137,1580695330383,0.1784,0.24399999,0.78099996,0.6384187,-1.5126183000000002,10.534382,-1
137,138,1580695330393,-0.1872,0.0832,0.9658,0.2813187,-1.6276646000000001,10.674635,-1
138,139,1580695330403,-0.51739997,0.030199998999999998,1.0325,0.12520717,-1.5754997,10.717614999999999,-1
139,140,1580695330413,-0.2927,0.2136,1.1383,0.48176125,-1.3674339,10.847083999999999,-1
140,141,1580695330424,0.17099999,0.4394,1.4011999,0.94832414,-1.1064277,11.2695265,-1
141,142,1580695330434,0.53889996,0.6489,1.9196,1.2807636999999998,-0.9120280000000001,11.767999,-1
142,143,1580695330444,0.73139995,0.7599,2.3006,1.3990756000000002,-0.88333595,12.073395,-1
143,144,1580695330454,0.7181,0.6612,2.5925999,1.2206693000000002,-0.98618126,12.393001,-1
144,145,1580695330464,0.35009998,0.5571,2.9034998,0.78756785,-1.0650368000000001,12.663200999999999,-1
145,146,1580695330474,-0.09999999400000001,0.4367,3.1155999,0.2605849,-1.1447445,12.948226,-1
146,147,1580695330485,-0.5036,0.4285,3.4445998999999996,-0.017803283,-1.0237224,13.479413000000001,-1
147,148,1580695330495,-0.6434,0.57449996,4.0676,-0.039082948,-0.8709148000000001,14.012735000000001,-1
148,149,1580695330505,-0.56409997,0.7575,4.6411,0.15523046,-0.5960413,14.549267,-1
149,150,1580695330515,-0.2997,0.9482,5.2825,0.33097446,-0.5001104000000001,15.26883,-1
150,151,1580695330525,-0.2525,0.9001,5.883899700000001,0.22765985,-0.513652,15.8131275,-1
151,152,1580695330535,-0.4349,0.8835,6.2289996,0.04416823,-0.41131428,16.137112,-1
152,153,1580695330545,-0.5308,0.9447,6.6319,0.032858025,-0.29332802,16.631628,-1
153,154,1580695330556,-0.45859998,1.0636,7.4266,0.14205278,-0.09474335,17.758253,-1
154,155,1580695330566,-0.3988,1.0899,8.3972,0.06514144,-0.050460193,18.396242,-1
155,156,1580695330576,-0.5742,0.9877,8.9157,-0.23821348,-0.15404294,18.855304999999998,-1
156,157,1580695330586,-0.9316,0.6763,9.2373,-0.59818655,-0.39728424,19.109942999999998,-1
157,158,1580695330597,-1.2830000000000001,0.3324,9.3137,-0.8009179,-0.5181148,18.98126,-1
158,159,1580695330607,-1.3324,-0.025899999,8.959499000000001,-0.6442604999999999,-0.71287835,18.42729,-1
159,160,1580695330617,-1.1471,-0.24049999,8.4015,-0.30400616,-0.5212177,17.576094,-1
160,161,1580695330627,-0.8415,-0.2873,7.6018,0.091075435,-0.37685692,16.712313,-1
161,162,1580695330637,-0.4637,-0.36859998,6.7379,0.5470845999999999,-0.20232919,15.8126,-1
162,163,1580695330647,-0.016099999,-0.4227,5.8501,0.85784245,-0.03479254,15.164453,-1
163,164,1580695330657,0.2537,-0.48549998,5.115999700000001,0.93842167,0.18883549,14.303688000000001,-1
164,165,1580695330668,0.2384,-0.5922,4.3691,0.84140867,0.10633128,13.417595,-1
165,166,1580695330678,0.1073,-0.97599995,3.4917,0.61384463,0.035118147999999995,12.3735695,-1
166,167,1580695330688,-0.118499994,-1.2428,2.4345999,0.52844816,0.26295996,11.084378,-1
167,168,1580695330698,-0.1674,-1.2432,1.1783,0.6382846,0.41843942,10.256253,-1
168,169,1580695330709,-0.052699998,-1.2953,0.2613,0.6931214,0.8269380999999999,9.172052,-1
169,170,1580695330719,-0.045199998,-1.1486,-0.5733,0.7480730999999999,1.0199683000000002,8.626338,-1
170,171,1580695330729,0.0279,-1.1896,-1.0733,0.6191693,1.1690983,8.285356,-1
171,172,1580695330739,-0.2008,-1.2572,-1.2020998999999999,0.20870735,1.210834,8.3150425,-1
172,173,1580695330749,-0.5808,-1.4401,-1.1205,-0.25937822,1.1314901000000002,8.205724,-1
173,174,1580695330759,-0.9116,-1.6344999,-1.198,-0.5856313,1.001868,7.72583,-1
174,175,1580695330770,-1.2694,-2.1025999,-2.2217999,-0.78038526,0.9152171,7.1131735,-1
175,176,1580695330780,-1.2694,-2.1025999,-2.2217999,-1.1338078,0.93206275,7.27912,-1
176,177,1580695330790,-1.5349,-2.19,-2.0142999,-1.272681,0.7614998000000001,7.892716,-1
177,178,1580695330800,-1.5968,-2.4636,-1.3725,-0.7236044,0.41079712,8.155235000000001,-1
178,179,1580695330810,-1.0239,-2.9401,-1.0649998999999999,0.43724826,1.0382886999999998,7.406434,-1
179,180,1580695330820,1.5637,-1.7247,-2.872,1.9051331999999999,1.9484970000000001,6.231139700000001,-1
180,181,1580695330831,3.0635,-1.7328,-3.5828998,3.4354877,2.118562,5.4400477,-1
181,182,1580695330841,3.0635,-1.7328,-3.5828998,4.032899,2.0118381999999997,5.017816000000001,-1
182,183,1580695330851,2.9262,-2.246,-4.1762,2.9618474999999997,1.8881631999999997,4.70226,-1
183,184,1580695330862,1.1165,-2.6689999999999996,-4.131,1.4579635,1.6391183999999996,4.692482,-1
184,185,1580695330872,-0.28849998,-3.1699,-4.4316998,-0.17243999,1.1878879,4.231512,-1
185,186,1580695330882,-0.75659996,-3.633,-4.8714,-0.5577532,0.9010435,3.720101,-1
186,187,1580695330892,-0.7979999999999999,-3.7161,-5.2929,-0.57805604,0.9897534,3.2775087,-1
187,188,1580695330902,-0.6423,-3.6232998,-5.4621,-0.37990233,1.1699888999999999,3.1029046,-1
188,189,1580695330912,-0.2597,-3.5837,-5.4519,-0.062373742,1.2802178999999998,3.081625,-1
189,190,1580695330923,0.42029998,-3.2889999999999997,-5.1285,0.7642388000000001,1.7672273,3.4966550000000005,-1
190,191,1580695330933,0.98789996,-2.6801999,-4.3845997,1.2802083,2.394805,4.2001767,-1
191,192,1580695330943,1.1861,-2.3406,-3.9538,1.3624348999999998,2.6944822999999998,4.479781,-1
192,193,1580695330953,0.9526,-2.217,-4.1955,0.9569431999999999,2.810812,4.19399,-1
193,194,1580695330963,0.21,-2.3509998,-3.9805,0.0016089035,2.5909476000000002,4.760717,-1
194,195,1580695330973,-0.4033,-2.6176999,-3.1499999,-0.57754844,2.397678,5.4863610000000005,-1
195,196,1580695330984,-0.84919995,-2.6741,-2.8063998,-0.99424493,2.4387243,5.5460153,-1
196,197,1580695330994,-1.2171999,-2.6332998,-2.9659998,-1.2765213,2.4800482,5.382146400000001,-1
197,198,1580695331004,-1.3679999,-2.6483,-3.1801999,-1.3249799999999998,2.500763,5.0776324,-1
198,199,1580695331014,-1.2487,-2.6255999,-3.4226,-1.0607942,2.6783264,4.89823,-1
199,200,1580695331024,-0.8767,-2.2465,-3.2840998,-0.55830866,3.21118,5.2047167000000005,-1
200,201,1580695331035,-0.33449998,-1.6021,-2.681,0.03992571,3.8110519999999997,6.006257499999999,-1
201,202,1580695331045,0.2016,-1.2477,-1.704,0.5272511,4.082928,7.1009054,-1
202,203,1580695331055,0.2714,-1.1582999,-0.99799997,0.37882975,4.0610833,7.3623905,-1
203,204,1580695331065,-0.1113,-1.1755999,-1.0286,-0.13674723,3.9981157999999994,7.1486073,-1
204,205,1580695331075,-0.46699998,-1.2558,-1.1941998999999999,-0.3367397,4.0002894,7.0826616,-1
205,206,1580695331085,-0.5766,-1.1744,-1.3169999,-0.27298690000000003,4.1246924,6.8866243,-1
206,207,1580695331096,-0.45069999,-1.1295998999999999,-1.4248999,-0.066137426,4.1299024,6.816072,-1
207,208,1580695331106,-0.30159998,-1.0993,-1.4966999,0.07947792,4.2338486,6.817039,-1
208,209,1580695331116,-0.1292,-0.96779996,-1.3643,0.35558683,4.4823,7.0782657,-1
209,210,1580695331126,0.069699995,-0.68,-1.0712,0.46248317,4.7234344,7.4378076,-1
210,211,1580695331136,0.053999998,-0.42299998,-0.66609997,0.32398337,5.015441,7.847034,-1
211,212,1580695331146,-0.089999996,-0.1626,-0.3911,0.29298323,5.1303625,7.819463000000001,-1
212,213,1580695331157,-0.113299996,-0.1026,-0.5155,0.28079197,5.128083,7.781931,-1
213,214,1580695331167,-0.1319,-0.1673,-0.5176,0.1967076,4.9748545,7.7467559999999995,-1
214,215,1580695331177,-0.23889999,-0.3093,-0.6216,0.15365987,4.876615,7.518722,-1
215,216,1580695331187,-0.3082,-0.3919,-0.8466,0.11986331,4.8028164,7.2854600000000005,-1
216,217,1580695331197,-0.3252,-0.4386,-1.0985,0.23682486,4.85095,7.0300082999999995,-1
217,218,1580695331207,-0.27089998,-0.42119998,-1.2555,0.23673867,4.928646,7.0672145,-1
218,219,1580695331217,-0.3144,-0.33339998,-1.1458,0.08371087,4.985293,7.289778999999999,-1
219,220,1580695331227,-0.502,-0.3023,-0.9465,-0.08045476,4.9602404,7.390268300000001,-1
220,221,1580695331237,-0.7273,-0.3022,-0.88049996,-0.40123948,4.8673067,7.4839009999999995,-1
221,222,1580695331247,-1.0346999,-0.4152,-0.7492,-0.6207303000000001,4.694445,7.649398,-1
222,223,1580695331257,-1.148,-0.5767,-0.6081,-0.49411535,4.5823684,7.789286,-1
223,224,1580695331267,-0.8779,-0.5158,-0.49379998,-0.016903065,4.908956,7.922614599999999,-1
224,225,1580695331278,-0.5024,-0.1751,-0.3366,0.42750865,5.1851892,8.387042,-1
225,226,1580695331288,-0.0786,0.0634,0.11800000000000001,0.7526604,5.2682495000000005,8.562633,-1
226,227,1580695331298,0.1538,0.1373,0.20529999,0.86678725,5.3047466,8.381449,-1
227,228,1580695331308,0.2271,0.1337,-0.015299999,0.92994624,5.2025809999999995,8.224495,-1
228,229,1580695331318,0.2512,-0.0117999995,-0.1643,0.85383934,5.0946984,8.113767999999999,-1
229,230,1580695331328,0.10229999599999999,-0.0481,-0.2162,0.71448725,5.1699624,8.187299000000001,-1
230,231,1580695331340,-0.0482,0.0196,-0.1059,0.65965044,5.1547356,8.396915,-1
231,232,1580695331350,-0.1113,-0.0037,0.0975,0.65875983,5.1288686,8.495384,-1
232,233,1580695331360,-0.109,-0.013999999499999999,0.1709,0.65616447,5.056439,8.523117999999998,-1
233,234,1580695331371,-0.13159999,-0.058399998,0.16319999,0.64837855,5.0738974,8.501628,-1
234,235,1580695331381,-0.13159999,-0.058399998,0.16319999,0.77857524,5.1702023,8.273508999999999,-1
235,236,1580695331391,-0.0069,0.0409,-0.0718,1.0458543,5.2286586999999995,8.170884,-1
236,237,1580695331401,0.6376,0.17469999,-0.13419999,1.4719073999999999,5.3004274,8.202306,-1
237,238,1580695331412,0.7022,0.2706,-0.0717,1.5537986000000001,5.4013862999999995,8.259805,-1
238,239,1580695331422,0.5627,0.3175,0.0103,1.4126459999999998,5.461864,8.352708999999999,-1
239,240,1580695331432,0.4078,0.30629998,0.022799998999999998,1.2746921999999998,5.431534,8.331553,-1
240,241,1580695331442,0.4078,0.30629998,0.022799998999999998,1.1016488000000002,5.354536,8.110205,-1
241,242,1580695331452,0.0328,0.1407,-0.2794,0.9178315999999999,5.243053,8.0760355,-1
242,243,1580695331463,-0.0335,0.0769,-0.2032,0.9161748,5.184481,8.1526785,-1
243,244,1580695331473,-0.0139,0.0243,-0.1373,0.9424344000000001,5.1744733,8.19903,-1
244,245,1580695331484,-0.0168,0.118499994,-0.1002,0.960774,5.218546,8.237835,-1
245,246,1580695331494,0.036199998,0.1329,-0.0915,1.0537934,5.251854,8.258721000000001,-1
246,247,1580695331504,0.1758,0.20539999,-0.0722,1.2045803,5.3262849999999995,8.272503,-1
247,248,1580695331514,0.23539999,0.2774,0.016099999,1.2388749,5.4011374000000005,8.410927000000001,d
248,249,1580695331525,0.177,0.3296,0.19299999,1.118255,5.370769,8.568214999999999,-1
249,250,1580695331535,0.013999999499999999,0.2348,0.2321,0.9751105,5.2922199999999995,8.53802,-1
250,251,1580695331545,-0.24100000000000002,0.1112,0.182,0.650179,5.112243,8.553612,-1
251,252,1580695331555,-0.49289998,-0.060599997999999995,0.24859999,0.49833873,4.962519599999999,8.601802000000001,-1
252,253,1580695331565,-0.6005,-0.16489999,0.2182,0.5213709,4.9363265,8.464164,-1
253,254,1580695331576,-0.4308,-0.16409999,0.0335,0.7819271,4.9251504,8.348581,-1
254,255,1580695331586,-0.2012,-0.18439999,0.0569,1.1153628,4.940540299999999,8.4396,-1
255,256,1580695331596,0.1006,-0.1256,0.13949999,1.4090165000000001,5.050865,8.543422,-1
256,257,1580695331606,0.2729,0.0123,0.26139998,1.5530037,5.2548513,8.618139,-1
257,258,1580695331617,0.38549998,0.1988,0.30539998,1.6792452000000002,5.3225307,8.685302,-1
258,259,1580695331627,0.4675,0.2272,0.39949998,1.8367167000000002,5.3125805999999995,8.775122999999999,-1
259,260,1580695331637,0.5988,0.2351,0.5139,1.9324656000000002,5.3302879999999995,8.814599000000001,-1
260,261,1580695331647,0.6859,0.2136,0.51,2.077401,5.2305074000000005,8.753747,-1
261,262,1580695331657,0.7797,0.1345,0.4455,2.2144258,5.2160177,8.782948,-1
262,263,1580695331668,0.8975,0.1454,0.546,2.2985103,5.2821736,9.079991,-1
263,264,1580695331678,0.94879997,0.1874,0.84129995,2.38089,5.241875,9.267782,-1
264,265,1580695331688,1.0102,0.139,0.99079996,2.4016716000000002,5.163115,9.32012,-1
265,266,1580695331698,0.9912,0.0162,1.0756,2.344862,4.9977527,9.348448,-1
266,267,1580695331708,0.91069996,-0.133,1.0572,2.3042752999999996,4.952980999999999,9.0500345,-1
267,268,1580695331718,0.8499,-0.17109999,0.6997,2.2804964,5.0047239999999995,8.511138,-1
268,269,1580695331729,0.8228,-0.1237,0.16679999,2.2723656,5.151862,8.035688,-1
269,270,1580695331739,0.8023,0.0244,-0.2707,2.3651647999999996,5.292066999999999,7.710229400000001,-1
270,271,1580695331749,0.9061,0.1391,-0.5365,2.3990955,5.370673,7.664788000000001,-1
271,272,1580695331759,0.9266,0.18169999,-0.5424,2.3828917,5.4344645,7.7106794999999995,-1
272,273,1580695331769,0.91209996,0.24919999,-0.49359998,2.4253454,5.432348,7.832018,-1
273,274,1580695331780,0.95919997,0.2613,-0.3592,2.2476957000000004,5.431151,7.990591,-1
274,275,1580695331790,0.7916,0.2548,-0.22549999,1.9023752,5.336982,8.152084,-1
275,276,1580695331800,0.45659998,0.1581,-0.0611,1.499795,5.2199917000000005,8.240948,-1
276,277,1580695331811,-0.17600000000000002,0.013599999,-0.086799994,1.2667338,5.191549,8.121181,-1
277,278,1580695331821,-0.17600000000000002,0.013599999,-0.086799994,1.3013443999999998,5.1731419999999995,8.116153,-1
278,279,1580695331831,0.1393,-0.0286,0.1304,1.5950171999999998,5.1638236,8.339914,-1
279,280,1580695331841,0.35959998,0.17199999,0.33249998,1.8882686000000002,5.4226274000000005,8.568455,-1
280,281,1580695331852,0.63909996,0.4219,0.51489997,2.1896505,5.6674485,8.73762,-1
281,282,1580695331862,0.86249995,0.5631,0.50119996,2.3872874,5.804253599999999,8.649044,-1
282,283,1580695331872,0.9238,0.6629999999999999,0.3409,2.4310055,5.8895349999999995,8.494389,-1
283,284,1580695331882,0.9474,0.6037,0.26999998,2.4795119999999997,5.832333,8.403408,-1
284,285,1580695331893,0.9474,0.6037,0.26999998,2.6320033,5.791277,8.233267,-1
285,286,1580695331905,1.2522,0.5869,0.084699996,2.8912284,5.918064599999999,8.374669,-1
286,287,1580695331915,1.4755,0.7511,0.3891,3.3401410000000005,6.2324038,8.8471985,-1
287,288,1580695331925,2.0200999,1.1432999,0.96699995,3.945817,6.677600999999999,9.446505,-1
288,289,1580695331935,2.6921,1.5663999,1.4557999,4.558024,7.012453999999999,9.653526,-1
289,290,1580695331946,3.3421998,1.8702999,1.5713999,5.162349,7.165999,9.764895,-1
290,291,1580695331956,3.7294998,1.7400999,1.6571,5.434474,6.8341335999999995,9.66433,-1
291,292,1580695331966,3.8911998,1.3593998999999999,1.4699,5.427004,6.5461593,9.384055,-1
292,293,1580695331976,3.8862997999999997,1.1467999,1.2098,5.6407394,6.43979,9.139999000000001,-1
293,294,1580695331987,4.3515997,1.1221,1.0162,6.419821700000001,6.668005,9.08769,-1
294,295,1580695331997,5.2816,1.406,1.1235,7.677755,7.1229415,9.415352,-1
295,296,1580695332007,6.2977,1.6968,1.4707999,8.504261999999999,7.268892299999999,9.77632,-1
296,297,1580695332017,7.0260997000000005,1.768,1.8611,8.984874000000001,7.341427,10.106797,-1
297,298,1580695332027,7.4333,1.7951,2.2745,9.437139,7.374888400000001,10.440069,-1
298,299,1580695332037,7.8882,1.7401999,2.6009998,10.110283,7.212130499999999,10.4400215,-1
299,300,1580695332048,8.576,1.4591,2.5523999,10.703144,6.696486500000001,10.032873,-1
300,301,1580695332057,9.2417,0.8171,2.1148999,11.190066999999999,6.12523,9.674164999999999,-1
301,302,1580695332067,9.7008,0.0997,1.719,11.053664999999999,5.405341,9.374774,-1
302,303,1580695332077,9.2429,-0.7571,1.4092,9.800914,4.496665,8.475005,-1
303,304,1580695332087,8.177899,-1.535,0.5254,8.742149000000001,3.9282339,7.233956,-1
304,305,1580695332097,7.3206,-2.1001,-0.7290000000000001,8.176113,3.6966858,6.0610175,-1
305,306,1580695332108,6.9561,-2.4441,-1.7321,7.898250999999999,3.3382354,5.7027493,-1
306,307,1580695332118,6.6755,-2.8593,-1.8462,7.370742,3.2256792,5.557392,-1
307,308,1580695332128,5.9330997000000005,-3.1378,-2.2517,6.1703844000000005,2.7118547000000004,4.068917,-1
308,309,1580695332138,4.9384,-3.8019998,-3.6545,4.9088793,1.9941401,2.3466432,-1
309,310,1580695332148,3.7245998,-4.6721,-5.3121,3.237679,1.0818823999999998,0.72635293,-1
310,311,1580695332159,2.0858998,-5.7086,-6.7913,0.8979501,0.13931382,-0.49988058,-1
311,312,1580695332169,-0.19139999,-6.6408,-7.8999,-1.8539166,-0.631849,-1.2086122,-1
312,313,1580695332179,-2.7877,-7.436,-8.4233,-4.9153533,-1.4831218000000002,-1.4820396,-1
313,314,1580695332189,-5.0849,-8.135799,-8.6624,-6.279819,-1.8463318,-1.7063954,-1
314,315,1580695332199,-6.5548,-8.5831995,-8.902699,-7.5609465,-2.3510296000000004,-1.6498540000000002,-1
315,316,1580695332210,-7.4602,-8.9733,-8.8633995,-8.469775,-2.8346965,-1.6004665,-1
316,317,1580695332220,-8.3001995,-9.4291,-8.8455,-10.377877999999999,-3.3290992,-1.5059049999999998,-1
317,318,1580695332230,-12.715099,-10.5468,-8.420899,-12.988055000000001,-4.044046,-1.1010646000000002,-1
318,319,1580695332240,-12.715099,-10.5468,-8.420899,-16.323553,-5.3092666,0.5193215,-1
319,320,1580695332250,-15.4133,-11.5021,-7.263,-18.318966,-6.096767400000001,2.0844016,-1
320,321,1580695332261,-19.744099,-12.9593,-3.3967,-20.223285999999998,-6.85188,4.2621484,-1
321,322,1580695332271,-20.668298999999998,-13.3904,-1.8978,-21.12003,-7.4298306,5.8792205,-1
322,323,1580695332281,-20.7781,-13.1881,-1.5475999,-21.136559,-7.3356905,6.311977400000001,-1
323,324,1580695332291,-19.4947,-12.713699,-1.4804,-19.419811,-6.8266063,6.507651,-1
324,325,1580695332301,-18.4086,-11.8167,-1.0733,-18.329548000000003,-6.030400299999999,7.1604156,-1
325,326,1580695332311,-17.9902,-11.1598,0.1855,-17.815685000000002,-5.6033230000000005,8.679708999999999,-1
326,327,1580695332322,-17.6439,-10.8131,2.1615,-17.19527,-5.4279523,10.830411,-1
327,328,1580695332332,-16.405699,-10.4946995,4.2374,-15.534568,-5.333209,12.941025,-1
328,329,1580695332342,-14.264999,-10.277999999999999,5.6106,-13.128767999999999,-5.232164,14.191208999999999,-1
329,330,1580695332352,-12.0857,-9.804399499999999,6.2447996,-10.689153999999998,-4.873598599999999,14.851961,-1
330,331,1580695332362,-9.549399000000001,-9.2498,7.0747,-7.8290679999999995,-4.4535694,15.84114,-1
331,332,1580695332372,-7.1962,-8.348599,8.025,-4.965105,-3.6032352,17.046124,-1
332,333,1580695332383,-4.3872,-7.2929997,9.5139,-1.9177363999999997,-2.6869264,18.620024,-1
333,334,1580695332392,-1.7334,-6.1484,10.5819,0.6542204,-1.8980273,19.398032999999998,-1
334,335,1580695332402,1.2743,-5.4075,10.3982,3.9358952000000005,-1.4315411,19.014147,-1
335,336,1580695332412,4.6710997,-4.7806,9.532499000000001,7.509864,-0.9060713,18.26295,-1
336,337,1580695332422,8.0865,-3.5993,9.5006,11.026975,0.13844232,18.518738,-1
337,338,1580695332432,11.138499000000001,-2.2378,10.1713,14.017935999999999,1.2850063999999999,19.197178,-1
338,339,1580695332443,13.9836,-1.1686,10.4874,16.932505,2.1135054,19.526114,-1
339,340,1580695332453,16.2069,0.14039999,10.1405,19.422924,3.4825006000000003,18.716623000000002,-1
340,341,1580695332463,17.894499,1.2382,8.8024,20.881134,4.2509239999999995,17.276482,-1
341,342,1580695332473,18.886,2.0892,7.3293,21.722153,4.938404599999999,15.986792999999999,-1
342,343,1580695332483,19.5396,2.612,6.4542,22.054878,5.228745,15.588714000000001,-1
343,344,1580695332494,19.6646,2.8990998,6.0415998,22.16299,5.5474896,14.850132,-1
344,345,1580695332504,19.6485,3.2078,5.4515,22.358034,5.69413,14.604277,-1
345,346,1580695332514,20.061498999999998,3.3604998999999998,5.3475,22.819147,5.8057284000000005,14.304148999999999,-1
346,347,1580695332524,20.2444,3.5593,4.493,22.825352,6.1119275,13.005974,-1
347,348,1580695332534,20.3219,3.7217998999999997,2.7103999,22.995686,6.178113,11.058578500000001,-1
348,349,1580695332545,20.3704,3.6271,0.72499996,22.915613,6.1146283,9.128947,-1
349,350,1580695332555,20.2104,3.4873,-0.9733,22.81879,5.985734,7.570245699999999,-1
350,351,1580695332565,20.1257,3.2517,-2.1901999,22.677132,5.847148000000001,6.525559400000001,-1
351,352,1580695332575,19.703298999999998,3.0233998,-2.9364998,21.6595,5.651887,5.767881,-1
352,353,1580695332586,18.535799,2.6643999,-3.4387,20.179289,5.122969,5.3553505,-1
353,354,1580695332595,17.014599,1.9289,-3.9118998,18.573872,4.313231,4.6678987,-1
354,355,1580695332605,15.404599,0.8965,-4.670099700000001,16.77959,3.2946417,3.8970803999999997,-1
355,356,1580695332615,13.546498999999999,-0.17639999,-5.3403,15.205738,2.5520945,3.4870303,-1
356,357,1580695332625,11.7098,-1.1294,-5.6573997,13.179610999999998,1.5838411000000001,3.2839446000000003,-1
357,358,1580695332635,10.2906,-1.9603,-5.6696,11.809965,0.9135315999999999,3.3350847000000003,-1
358,359,1580695332647,9.0123,-2.6511,-5.6116,10.586805,0.24876714,3.3451881,-1
359,360,1580695332657,7.8978996,-3.5063998999999995,-5.6017,9.214372000000001,-0.8520485000000001,3.1135924,-1
360,361,1580695332668,6.7546,-4.5353,-5.8668,7.794774,-1.9163573,2.5769558,-1
361,362,1580695332678,5.3155,-5.7139997000000005,-6.4396996,6.112426,-3.2068992,1.9384032,-1
362,363,1580695332688,3.6927998,-7.0747,-7.0499,4.441771,-4.3147345,1.7660781000000003,-1
363,364,1580695332699,2.0925,-8.1515,-7.0400996,2.758312,-5.1323924000000005,2.5675228,-1
364,365,1580695332709,0.4531,-8.9532995,-6.016,0.53157985,-5.931826,4.3978324,-1
365,366,1580695332719,-1.3912,-9.604899000000001,-4.4927,-1.4876419,-6.2844253,4.745174,-1
366,367,1580695332729,-3.3686,-9.9646,-4.1517,-3.4459648,-6.559806299999999,4.4598713,-1
367,368,1580695332739,-5.305,-10.242599499999999,-4.433799700000001,-5.260425,-6.539053400000001,3.6130037000000006,-1
368,369,1580695332750,-7.1067995999999996,-10.2387,-5.2792997,-6.5015025,-6.635136999999999,2.5227895,-1
369,370,1580695332759,-8.297999,-10.3096,-6.394,-7.1569967000000005,-6.722468400000001,1.9623356,-1
370,371,1580695332769,-9.1044,-10.374599,-7.1152997000000004,-7.8547915999999995,-6.9283695000000005,2.0193366999999998,-1
371,372,1580695332779,-9.682,-10.554999,-6.8051996,-8.885800999999999,-7.489206299999999,3.2411745,-1
372,373,1580695332789,-10.7438,-11.0047,-5.5348,-10.605394,-8.061612,4.688134,-1
373,374,1580695332799,-12.5561,-11.435699000000001,-4.1775,-13.502398000000001,-8.6505,6.172836,-1
374,375,1580695332810,-17.3398,-11.9136,-2.1014,-15.867256,-8.962761,7.1350274,-1
375,376,1580695332820,-18.952099,-12.124499,-1.5218999,-17.462847,-9.336056,7.760134,-1
376,377,1580695332830,-18.952099,-12.124499,-1.5218999,-18.032784,-9.768132000000001,8.432752,-1
377,378,1580695332840,-19.5225,-12.3694,-0.90749997,-17.620998,-9.806161999999999,9.636011,-1
378,379,1580695332850,-18.269000000000002,-11.6608,1.4254,-16.801838,-9.5514765,10.898071,-1
379,380,1580695332860,-17.062,-10.327,2.8207998,-15.628658999999999,-8.512325,12.3543005,-1
380,381,1580695332870,-15.5271,-8.8182,4.3136,-14.1089735,-7.300878999999999,13.9064045,-1
381,382,1580695332880,-15.5271,-8.8182,4.3136,-12.786847,-6.498438,15.148766,-1
382,383,1580695332891,-13.8398,-7.5604,5.7896,-10.855033,-6.0201910000000005,16.352512,-1
383,384,1580695332901,-11.2303,-6.7612996,6.7207,-9.797628999999999,-6.0634017,16.408834,-1
384,385,1580695332911,-10.2526,-6.7612,6.3852997,-8.812951,-6.300016,16.083807,-1
385,386,1580695332921,-9.3798,-6.5551996,5.9946,-7.946346000000001,-6.306519000000001,15.703377,-1
386,387,1580695332932,-8.5683,-6.218,6.4789996,-7.150647599999999,-6.187546,16.184995999999998,-1
387,388,1580695332942,-7.6436996,-5.494,7.0252,-6.066323000000001,-5.5416865,16.774803,-1
388,389,1580695332952,-6.4460998,-4.6986,7.2318997000000005,-4.786306400000001,-5.048921599999999,17.005526,-1
389,390,1580695332962,-4.4467998,-4.3886,7.3156,-2.6686919999999996,-5.024826,16.95224,-1
390,391,1580695332972,-2.2156,-4.1667,6.8238997,-0.94495314,-4.962299,16.520884,-1
391,392,1580695332982,-0.473,-3.7129998,6.6088,0.77967656,-4.6771400000000005,16.29601,-1
392,393,1580695332993,1.186,-3.3109998999999997,6.4438,2.6429113999999996,-4.284807,16.02625,-1
393,394,1580695333002,2.4176,-2.8757,6.6327,3.5518746,-4.184672,16.296354,-1
394,395,1580695333012,2.4176,-2.8757,6.6327,4.2227874000000005,-3.6939564,17.258689999999998,-1
395,396,1580695333022,3.9613,-1.5212,8.5081,5.012941400000001,-3.1062849999999997,18.269598000000002,-1
396,397,1580695333032,4.871,-1.1121,8.7511,5.824001,-2.8792956000000003,18.304342000000002,-1
397,398,1580695333042,5.7290998,-0.9055,7.9121,6.552987,-2.83032,17.1917,-1
398,399,1580695333053,6.3848996,-0.68869996,6.1561,7.124991400000001,-2.655457,15.402157999999998,-1
399,400,1580695333062,6.3848996,-0.68869996,6.1561,7.865058,-2.5195045,14.465306,-1
400,401,1580695333072,8.546,0.1392,4.4915,9.205983,-1.7814201,14.101273999999998,-1
401,402,1580695333083,9.8503,1.2021998999999999,4.9316,10.15898,-0.9581308000000001,14.504228,-1
402,403,1580695333093,11.206799499999999,2.1332,5.737,11.650300999999999,0.05463568,15.430667999999999,-1
403,404,1580695333103,12.125899,2.6808999,6.0333,12.379249,0.55692005,15.417223000000002,-1
404,405,1580695333113,12.1431,2.9445999,5.4556,12.181756,0.6327205,14.993160999999999,-1
405,406,1580695333123,11.2402,2.7872999,4.6022997000000005,10.92887,0.34806904,13.956874,-1
406,407,1580695333133,10.0769,2.3573,3.7484998999999997,9.672958,-0.14064498,13.090431,-1
407,408,1580695333143,9.1036,1.8563999,2.9419,8.640913000000001,-0.6458885999999999,12.310861000000001,-1
408,409,1580695333154,8.4239,1.5645,2.2884,7.903231,-0.90838885,11.596622,-1
409,410,1580695333164,8.1737995,1.4966999,1.6976,7.70615,-0.85556316,10.894900999999999,-1
410,411,1580695333174,8.1152,1.5938,0.8451,7.616606699999999,-0.7281629,9.979952,-1
411,412,1580695333184,7.9219,1.5782,-0.14919999,7.340153,-0.77088505,9.007715,-1
412,413,1580695333194,7.3957,1.3632,-1.0392,6.7101045,-0.9446753000000001,8.264218,-1
413,414,1580695333204,6.6401,1.1507,-1.4897,5.962089,-1.1086973999999998,8.097621,d
414,415,1580695333215,5.9501,0.9985,-1.2511,5.354996,-1.2444965000000001,8.539522999999999,-1
415,416,1580695333225,5.4016,0.8165,-0.6451,4.678327599999999,-1.4158447,9.302355,-1
416,417,1580695333235,4.7088,0.7441,-0.0264,3.934047,-1.5484738,9.92455,-1
417,418,1580695333245,3.8871998999999997,0.5568,0.5927,3.1994581,-1.7221396,10.3486595,-1
418,419,1580695333255,2.9417999,0.2854,0.92609996,2.154408,-2.1010556,10.465028,-1
419,420,1580695333266,2.0881998999999998,-0.0462,0.8057,1.3820002,-2.3613532000000004,10.210465,-1
420,421,1580695333276,1.3478,-0.29119998,0.4964,0.8151108,-2.532912,9.809992,-1
421,422,1580695333286,0.79209995,-0.44489998,0.048499997999999996,0.38945043,-2.5732975,9.365504,-1
422,423,1580695333296,0.3777,-0.4518,-0.3207,0.064930744,-2.5415123,9.196023,-1
423,424,1580695333306,0.1266,-0.42319998,-0.38439998,-0.08646899,-2.4255272999999997,9.260237,-1
424,425,1580695333316,0.0109,-0.2884,-0.2794,-0.15055698,-2.2781403,9.393085000000001,-1
425,426,1580695333327,-0.0088,-0.1568,-0.1435,-0.08659349400000001,-2.1724029,9.551342,-1
426,427,1580695333337,0.0449,-0.10969999400000001,0.0128,-0.16795804,-2.1915278,9.700078999999999,-1
427,428,1580695333347,-0.155,-0.121,0.1792,-0.4693593,-2.1660726,9.841127,-1
428,429,1580695333357,-0.4648,-0.0859,0.23709999,-0.6589991999999999,-2.131098,9.730686,-1
429,430,1580695333367,-0.6095,-0.054899998,0.029299999,-0.6981205,-1.9990627,9.491277,-1
430,431,1580695333377,-0.59749997,0.0817,-0.1592,-0.63106364,-1.8351556,9.347873,-1
431,432,1580695333388,-0.5144,0.27809998,-0.3181,-0.5100224,-1.6489729,9.241331,-1
432,433,1580695333399,-0.3974,0.3892,-0.3588,-0.3545621,-1.5560492,9.228316,-1
433,434,1580695333409,-0.2556,0.4648,-0.3789,-0.36025074,-1.6016347,9.245766,-1
434,435,1580695333419,-0.30539998,0.41599998,-0.34939998,-0.46934015,-1.6604936999999997,9.355687,-1
435,436,1580695333429,-0.364,0.36879998,-0.25079998,-0.42721176,-1.6910055,9.465314,-1
436,437,1580695333440,-0.3081,0.3409,-0.1426,-0.33353147,-1.6598138999999998,9.599275,-1
437,438,1580695333450,0.070099995,0.44129997,0.3383,-0.04019386,-1.5868481,9.945121,-1
438,439,1580695333460,0.2267,0.4132,0.6719,0.14872782,-1.6124948000000001,10.2845335,-1
439,440,1580695333471,0.166,0.2694,1.1824,0.067593105,-1.8019048999999998,10.886521,-1
440,441,1580695333481,-0.070199996,0.1274,1.6639999,-0.2019174,-1.9261066000000002,11.349761,-1
441,442,1580695333491,-0.070199996,0.1274,1.6639999,-0.42058462,-2.0561213,11.656765,-1
442,443,1580695333502,-0.4339,-0.1721,2.5788999,-0.532097,-2.2303615000000003,12.31064,-1
443,444,1580695333512,-0.5046,-0.0936,3.346,-0.5444894,-2.145291,13.120560999999999,-1
444,445,1580695333522,-0.19209999,0.023699999,4.407099700000001,-0.14244542,-2.021348,14.248277999999999,-1
445,446,1580695333532,0.4317,0.2146,5.5849,0.61831695,-1.7730404,15.62186,-1
446,447,1580695333542,0.8752,0.4335,6.5738997,0.90868574,-1.613874,16.333559,-1
447,448,1580695333552,1.0114,0.53859997,7.2065,0.98779017,-1.4900266000000002,16.960601999999998,-1
448,449,1580695333562,0.9790000000000001,0.50949997,7.5807,0.8914665999999999,-1.5212566,17.435007000000002,-1
449,450,1580695333573,0.63449997,0.39999998,8.2175,0.42024946,-1.5736417999999999,18.077973999999998,-1
450,451,1580695333583,0.1608,0.2823,8.6961,0.07678683,-1.6631848999999999,18.467264,-1
451,452,1580695333594,0.015099999499999999,0.0977,8.9872,-0.018693928000000002,-1.7839580000000002,18.685768,-1
452,453,1580695333604,0.030599998,0.0409,8.9633,0.017764976000000002,-1.7957566000000003,18.605954999999998,-1
453,454,1580695333614,0.16219999,-0.253,8.9774,0.12603077,-1.8850316000000003,18.674639000000003,-1
454,455,1580695333625,0.3893,-0.1303,8.9606,0.46333548,-1.5633466,18.677914,-1
455,456,1580695333635,0.9442,0.089099996,9.0104,1.0839318000000002,-1.2241266000000002,18.646435,-1
456,457,1580695333646,1.4746,0.25239998,8.646,1.4761018999999997,-0.9246215,18.074939999999998,-1
457,458,1580695333656,1.6486,0.34939998,7.8001,1.6135483999999998,-0.70367503,17.386816,-1
458,459,1580695333667,1.8154999,0.40879998,7.053999999999999,1.9267193999999999,-0.4044477,16.531466,-1
459,460,1580695333677,1.9224999,0.38099998,6.5565996,2.0056130000000003,-0.2061695,15.995479999999999,-1
460,461,1580695333688,1.9086,0.30969998,6.1029,1.87602,-0.09828676,15.496049,-1
461,462,1580695333698,1.6625999,0.22559999,5.5558,1.5702132,0.029831752000000003,14.787385,-1
462,463,1580695333708,1.2961,0.0985,4.788,1.4786111000000002,0.0024708160000000002,13.721179999999999,-1
463,464,1580695333718,1.2411,-0.17999999,3.7013998,1.4453413,-0.29025385,12.589594,-1
464,465,1580695333728,1.0939,-0.7258,2.5512,0.9420992,-0.42478886,11.302202000000001,-1
465,466,1580695333739,0.60899997,-1.0049,1.5137999,0.57593,-0.27879044,10.772021,-1
466,467,1580695333749,0.1451,-1.0899999,0.95159996,0.054951716,-0.4995933,10.879166,-1
467,468,1580695333760,-0.3478,-1.4976,1.1186,-0.94204175,-0.5605401,11.047316,-1
468,469,1580695333770,-2.267,-1.7062,1.2872,-1.8405377,-0.3074442,10.991886000000001,-1
469,470,1580695333780,-2.5349998,-1.3864,0.83059996,-2.0971580000000003,0.23059992,10.504177,-1
470,471,1580695333790,-1.9314,-1.2146,-0.23689999,-1.2712541000000002,0.68693477,9.146311,-1
471,472,1580695333801,-0.9079,-1.1811,-1.2013999,-0.22634782,0.9351081,8.218825,-1
472,473,1580695333811,-0.00029999999,-1.1245999,-1.9195,0.6845693,1.1984129,7.496686,-1
473,474,1580695333821,0.9015,-1.0160999,-2.5128999,1.4838113000000002,1.5086629999999999,6.8463254000000004,-1
474,475,1580695333831,1.3981999,-0.88229996,-3.1402,1.8056016,1.7692671999999998,6.231015,-1
475,476,1580695333841,1.3593998999999999,-0.94799995,-3.2626998,1.5429959,1.7847241000000003,6.188685400000001,-1
476,477,1580695333851,0.8142,-1.2845,-3.0265,0.78486717,1.4981381999999999,6.404403,-1
477,478,1580695333861,-0.113199994,-1.8435999,-2.4773998,-0.3549069,1.0417364,7.095246,-1
478,479,1580695333872,-0.92929995,-2.2870998,-1.1301,-1.2006252,0.7202333000000001,8.508572000000001,-1
479,480,1580695333882,-1.4132,-2.6253,0.1382,-1.7015113000000002,0.52536446,9.511033,-1
480,481,1580695333892,-1.5388,-3.2412,-0.0968,-1.8073158,-0.027705701,8.8992,-1
481,482,1580695333902,-1.4254999,-3.967,-1.6861999,-1.6330850000000001,-0.47528735,7.0304008,-1
482,483,1580695333912,-0.7887,-4.1907997,-3.7138998999999995,-0.9561771000000001,-0.32268095,4.9492650000000005,-1
483,484,1580695333922,-0.059000000000000004,-3.8836,-5.4645,-0.26919445,0.17062996,3.2665912999999995,-1
484,485,1580695333933,0.55579996,-3.8097,-6.172999999999999,0.16028702,0.41632295,2.6139512000000003,-1
485,486,1580695333943,0.494,-3.6782,-6.4716,-0.13885413,0.6901909,2.306478,-1
486,487,1580695333953,0.17119999,-3.6151,-6.2995,-0.5746180000000001,0.8086943,2.6511953,-1
487,488,1580695333963,0.083,-3.7101,-5.7125998,-0.7236044,0.81265914,3.065076,-1
488,489,1580695333973,-0.0358,-3.7805998,-5.4807,-0.95071834,0.8576700999999999,3.0930116,-1
489,490,1580695333984,-0.1206,-3.9019999999999997,-5.611000000000001,-1.0404626000000001,0.74225044,2.892464,-1
490,491,1580695333994,-0.2285,-4.1668997,-5.6744,-1.2332054,0.60650873,2.829343,-1
491,492,1580695334004,-0.4211,-4.3213,-5.7037,-1.4729704,0.5611816999999999,2.7074015,-1
492,493,1580695334015,-0.5728,-4.2334,-5.8774,-1.7485908,0.8001039000000001,2.4827103999999998,-1
493,494,1580695334025,-1.0449,-3.7444,-6.0396,-2.3756802,1.3962027,2.4847791,-1
494,495,1580695334035,-1.3701999,-3.3557,-5.554199700000001,-2.6284888,1.7457848000000002,3.0131316000000004,-1
495,496,1580695334045,-1.2186999,-3.1725,-5.0761,-2.4193504,1.8445026000000002,3.3567379,-1
496,497,1580695334055,-0.5995,-3.0655,-4.6124,-1.6293883,2.0537843999999996,3.9218652,-1
497,498,1580695334065,0.1733,-2.7921,-4.151799700000001,-0.7137498000000001,2.3376697999999996,4.422416,-1
498,499,1580695334075,0.8534,-2.5872998,-3.7719998,-0.30310592,2.6040485,4.688766,-1
499,500,1580695334086,1.1848999,-2.1353,-3.3353998999999996,-0.23000616,3.2601652000000003,5.3824625,-1
500,501,1580695334096,0.95669997,-1.5906999,-2.6956,-0.6672064999999999,3.6183089999999996,5.879077,-1
501,502,1580695334106,0.4734,-1.433,-2.2635,-1.2443911,3.5759508999999996,6.259286,-1
502,503,1580695334116,-0.0692,-1.5171,-1.9298999,-1.6054368,3.4972677000000005,6.5200915,-1
503,504,1580695334126,-0.2784,-1.5630000000000002,-1.7134,-1.6909577,3.561691,6.673080400000001,-1
504,505,1580695334137,-0.3105,-1.3694,-1.5733999,-1.6169097,3.9065517999999995,6.847886,-1
505,506,1580695334147,-0.1311,-0.997,-1.3722999,-1.1656698,4.340324,6.9186683,-1
506,507,1580695334157,0.2615,-0.6318,-1.4433999,-0.8663850000000001,4.769097,6.508848,-1
507,508,1580695334167,0.5147,-0.25079998,-1.8752999,-0.61417973,4.875907,6.1474004,-1
508,509,1580695334177,0.76589996,-0.24689999,-2.1619,-0.4020439,4.808668,6.132345,-1
509,510,1580695334188,0.9281,-0.3213,-2.0904999,-0.47040316,4.715773,6.4336605,-1
510,511,1580695334198,0.7161,-0.4134,-1.6423999,-1.0189914,4.7325610000000005,7.115462,-1
511,512,1580695334208,0.2172,-0.3592,-1.0517,-1.5738621000000002,4.669086,7.664855,-1
512,513,1580695334219,-0.3275,-0.41799998,-0.5319,-2.1141662999999995,4.805833,8.305860000000001,-1
513,514,1580695334229,-0.75009996,-0.2531,-0.0018999999,-2.1218374,5.076579,8.7635355,-1
514,515,1580695334239,-0.76379997,0.031799997999999996,0.45189998,-1.6502466,5.4167566,8.942488,-1
515,516,1580695334250,-0.3129,0.3646,0.6256,-0.73021233,5.618435,8.793836,-1
516,517,1580695334260,0.97999996,0.63339996,0.11639999599999999,-0.27987259999999997,5.7173057,8.42557,-1
517,518,1580695334270,0.97999996,0.63339996,0.11639999599999999,-0.30098948,5.7543488,8.047477,-1
518,519,1580695334280,0.6653,0.4515,-0.4714,-0.55522496,5.578738700000001,7.817240700000001,d
519,520,1580695334290,0.6653,0.4515,-0.4714,-1.0096061,5.5612035,7.84895,-1
520,521,1580695334300,0.19749999,0.42229998,-0.4371,-1.5138538000000001,5.6332884000000005,8.243275,-1
521,522,1580695334310,-0.30949998,0.5014,-0.0448,-1.5176461,5.616270500000001,8.778483999999999,-1
522,523,1580695334322,-0.3056,0.48889998,0.4906,-1.4566801999999999,5.577781,8.919167,-1
523,524,1580695334333,-0.17549999,0.17009999,0.3885,-1.3741568000000002,5.236751,8.652194999999999,-1
524,525,1580695334343,-0.16399999,0.0145,0.3814,-1.2842114,5.175967,8.743596,-1
525,526,1580695334353,0.20799999,0.1477,0.56229997,-0.7691325,5.3287554,8.879845,-1
526,527,1580695334363,0.71129996,0.2076,0.6964,-0.33002633,5.3380355999999995,9.000676,-1
527,528,1580695334373,0.71129996,0.2076,0.6964,-0.36704072,5.2508483,8.914791000000001,-1
528,529,1580695334383,0.5622,-0.13239999,0.4328,-0.62481004,4.9222775,8.490892,-1
529,530,1580695334394,0.1504,-0.62939996,-0.091,-1.1957027,4.3894150000000005,7.853671,-1
530,531,1580695334404,-0.7058,-1.2132,-0.93729997,-1.9902807,3.9205723,7.079223599999999,-1
531,532,1580695334414,-1.9900999,-1.8734,-1.8321999,-3.6381428,3.0675182,6.1424775,-1
532,533,1580695334424,-3.3816998,-2.8659,-2.3253999,-5.0729303,2.1633142999999997,5.3585777000000006,-1
533,534,1580695334435,-4.7467,-3.6592998999999997,-3.6787998999999996,-6.2620726,1.3982521,3.9403004999999998,-1
534,535,1580695334445,-5.5634,-4.2667,-4.9607,-6.8452716,0.9568665999999999,2.6122367000000004,-1
535,536,1580695334455,-5.7276998,-4.4646,-5.8037996,-6.258568,0.89510584,2.0817103,-1
536,537,1580695334465,-4.8468,-4.684,-6.0562,-5.2145715,0.76459306,1.9487078000000002,-1
537,538,1580695334475,-4.0764,-4.6418,-6.299299700000001,-4.692798000000001,0.74791986,1.8373104,-1
538,539,1580695334486,-3.9118998,-4.6404,-6.278,-4.843833999999999,0.92817456,1.7931422,-1
539,540,1580695334496,-4.394,-4.4084997,-6.3925,-5.4931893,0.96224886,1.7122948,-1
540,541,1580695334506,-5.1576,-4.56,-6.522,-6.197678,0.7073238000000001,1.5232294,-1
541,542,1580695334516,-6.0213,-4.9915,-6.8206997000000005,-6.9748363,-0.03851792,1.2633723,-1
542,543,1580695334526,-6.4297,-5.7156997,-7.0031,-6.651035,-0.7675428000000001,1.1606036,-1
543,544,1580695334536,-5.7753997,-6.2725,-7.0197997,-5.413798,-1.2808596,1.4685458999999998,-1
544,545,1580695334547,-4.5504,-6.8141,-6.5492,-4.1525702,-1.8968971999999997,2.151736,-1
545,546,1580695334557,-3.679,-7.3037996,-5.9079999999999995,-3.7275996,-2.1560936,2.7135882000000002,-1
546,547,1580695334568,-3.7568,-7.2054,-5.4427,-4.169435,-1.5276443000000002,3.190312,-1
547,548,1580695334577,-4.3285,-6.4248,-5.1766,-4.6543470000000005,-0.91579175,3.3788793,-1
548,549,1580695334587,-4.8149,-5.803999999999999,-4.9925,-4.4194093,-0.73836225,4.122911,-1
549,550,1580695334597,-4.4451,-5.4737,-4.2648997,-3.0052211,-0.39099228,4.848689599999999,-1
550,551,1580695334607,-2.8616,-4.9514,-3.6668,-0.4798076,0.13094369,5.715792700000001,-1
551,552,1580695334617,-0.3761,-4.2636,-2.7138,1.7907671000000003,0.86784065,6.6053724,-1
552,553,1580695334627,2.3085,-3.0983,-1.8680999,5.379072,2.1121743,7.426201,-1
553,554,1580695334637,4.9969997,-1.9051,-1.2042999,7.576882400000001,3.433812,8.454452999999999,-1
554,555,1580695334647,6.8346,-0.3683,-0.1275,9.082098,4.5796766,10.369584,-1
555,556,1580695334658,8.1219,0.8603,1.9509999999999998,10.188238,4.9562654,13.412759,-1
556,557,1580695334668,9.0271,1.3176999,5.0724998,10.690791,4.7193255,16.58312,-1
557,558,1580695334678,9.3482,1.3924999,7.9658,10.904353,4.850356,19.119951,-1
558,559,1580695334688,9.6223,1.8497,10.4487,12.145335000000001,5.26687,22.041853,-1
559,560,1580695334698,10.9776,2.5849,13.3336,14.111148000000002,6.092372,24.592436,-1
560,561,1580695334708,12.9007,3.7435,15.6023,15.788238,7.520225999999999,25.612270000000002,-1
561,562,1580695334719,14.4612,5.3532,16.271,17.353222,8.369651,25.411472,-1
562,563,1580695334729,15.8626995,6.0456,15.8747,18.15845,8.387636,24.004658,-1
563,564,1580695334739,16.4858,6.0708,14.186998999999998,18.444136,8.207917,22.128016,-1
564,565,1580695334749,16.606499,5.8111,12.404799,18.42361,7.4773026,20.416805,-1
565,566,1580695334759,16.4414,4.9217997,10.7688,17.449009,6.700067999999999,18.930685,-1
566,567,1580695334769,15.3259,4.1052,9.3319,16.323906,5.925582,17.649527,-1
567,568,1580695334779,14.188398999999999,3.2055,8.11,14.636232999999999,5.0469003,16.001091,-1
568,569,1580695334789,12.793699,2.3948,6.719599700000001,13.537085000000001,4.6835566,14.623592000000002,-1
569,570,1580695334799,11.5048,1.8456,4.9681,12.561169999999999,4.276379599999999,12.4231,-1
570,571,1580695334809,10.676499,1.3069998999999999,2.7439999999999998,11.672422000000001,3.8069531999999997,9.921313,-1
571,572,1580695334820,9.9688,0.7484,0.738,10.9637575,3.4224443,8.312745,-1
572,573,1580695334830,9.1317,0.086399995,-1.1967,10.367525,2.9624798,6.8577023,-1
573,574,1580695334840,8.4279995,-0.6489,-2.8295,9.509528999999999,2.361497,5.199172,-1
574,575,1580695334850,7.6502,-1.3228999,-4.0227,8.441754,1.6779331000000002,4.2328243,-1
575,576,1580695334860,5.2114,-2.9733,-5.8886,6.7903199999999995,0.8515218000000001,3.023331,-1
576,577,1580695334871,5.2114,-2.9733,-5.8886,5.9322095,0.462215,2.5685759999999997,-1
577,578,1580695334881,2.8398,-4.2468,-6.615,4.2789364,-0.2981643,2.2599158,-1
578,579,1580695334892,2.182,-4.7611,-6.8046,3.4866089999999996,-0.8132815999999999,1.9537644,-1
579,580,1580695334902,2.1202,-4.9128,-7.322,3.5343014999999998,-0.8445499,1.4211120000000002,-1
580,581,1580695334912,2.3555999,-4.8455997,-7.7482,3.7874644,-0.72616136,1.0137146000000001,-1
581,582,1580695334922,2.4363,-4.964299700000001,-7.9227,3.7647002,-0.8960252000000001,0.8273020000000001,-1
582,583,1580695334932,1.8488,-5.4995,-8.2525,3.0257156000000003,-1.4607025,0.44264,-1
583,584,1580695334943,0.46879998,-6.121,-8.4783,1.53453,-2.0587838,0.3159197,-1
584,585,1580695334953,-1.1596,-6.653,-8.203,-0.14128664,-2.6175616,0.6328258000000001,-1
585,586,1580695334963,-2.6378,-7.2228,-8.1412,-1.9293818,-3.3219642999999994,0.5826338000000001,-1
586,587,1580695334973,-3.8915,-7.6435,-8.472000000000001,-3.119166,-3.84504,0.26734614,-1
587,588,1580695334983,-4.8224,-8.0569,-8.8171,-3.6742663,-4.1517854,0.11360966,-1
588,589,1580695334993,-5.5678997,-8.4585,-8.7892,-4.7266235,-4.834994999999999,0.30062556,-1
589,590,1580695335003,-6.138099700000001,-8.7017,-8.6612,-5.1310709999999995,-5.114033999999999,0.45675623,-1
590,591,1580695335014,-6.6225,-8.8164,-8.2851,-5.739984,-5.3442989999999995,1.0529603,-1
591,592,1580695335024,-7.8128,-8.878099,-7.3374996,-7.3424516,-5.6022787,2.3012778999999997,-1
592,593,1580695335034,-10.0201,-9.122499000000001,-6.1569,-10.103024000000001,-6.3820515,3.6583116,-1
593,594,1580695335044,-12.446,-9.861899000000001,-5.1723,-12.108875999999999,-7.6681585000000005,4.7097587999999995,-1
594,595,1580695335055,-14.2956,-11.040199000000001,-4.0424,-13.4057,-9.115329,6.104324,-1
595,596,1580695335066,-15.262099,-12.1713,-2.6917,-13.7930155,-10.350412,7.5264797,-1
596,597,1580695335075,-15.3206,-12.9158,-1.1387,-13.319346,-10.988869000000001,9.572047,-1
597,598,1580695335085,-14.736099,-12.881599000000001,1.1050999,-12.468226,-10.799314500000001,12.164766,-1
598,599,1580695335095,-14.078,-12.1627,3.7684998999999997,-11.816085000000001,-10.299147999999999,14.851138,-1
599,600,1580695335105,-13.7379,-11.399799,6.33,-11.676905,-10.081226,17.205929,-1
600,601,1580695335115,-13.909598999999998,-10.999,8.472000000000001,-11.707962,-10.137691499999999,18.660992,-1
601,602,1580695335126,-13.988,-10.8073,9.856999,-11.516637,-10.378347,19.781086,-1
602,603,1580695335136,-13.780498999999999,-10.6817,10.4233,-11.029369,-10.399302,20.215823999999998,-1
603,604,1580695335146,-13.1108,-10.131499,10.8659,-9.976609,-9.745426,20.752329,-1
604,605,1580695335156,-11.9127,-9.0244,11.6254,-8.496936,-8.819961,21.897427,-1
605,606,1580695335166,-10.2562,-7.7605996,13.065,-6.671433400000001,-7.890714,23.420923000000002,-1
606,607,1580695335177,-8.401199,-6.5181,14.3413,-4.9737816,-7.0067463000000005,24.005233999999998,-1
607,608,1580695335187,-6.7942995999999996,-5.5511,14.5793,-3.1990366000000003,-6.7637444,23.78471,-1
608,609,1580695335197,-5.3259,-5.3011,14.198898999999999,-2.4476883,-6.8410864,22.712996,-1
609,610,1580695335207,-4.6249,-5.1825,12.6477995,-1.7876738,-6.936443,21.121551999999998,-1
610,611,1580695335217,-3.7789,-5.0966997,11.6511,-0.36449325,-6.807347999999999,20.993883,-1
611,612,1580695335227,-2.2196999,-4.7132,11.7212,1.1197107,-6.3198404,21.916760999999997,-1
612,613,1580695335238,-0.59999996,-4.0036,12.9388,2.782752,-5.7910185,24.074867,-1
613,614,1580695335248,1.1965,-3.2986,15.1984,4.1759763,-5.2059617,26.117743,-1
614,615,1580695335258,2.6905,-2.5576,17.124199,5.527216,-4.748516,27.156509999999997,-1
615,616,1580695335268,4.2093997000000005,-2.0068998,17.807000000000002,7.388794,-4.495861,25.478482999999997,-1
616,617,1580695335279,5.8971,-1.8104,16.1512,8.598594,-4.1031256,23.133638,-1
617,618,1580695335289,7.2054,-1.4311999,13.7852,9.7360115,-3.5732214,22.630865,-1
618,619,1580695335299,8.7946,-0.7854,13.2711,11.2237015,-2.7612807999999998,22.928005,-1
619,620,1580695335309,10.8034,0.17889999,13.7969,13.659084,-1.3277477,23.771673,-1
620,621,1580695335319,12.495999000000001,1.1202999,14.3322,14.669054000000001,-0.65501523,23.648699,-1
621,622,1580695335329,13.5688,1.6588,14.1749,14.835278500000001,-0.39381745,22.91677,-1
622,623,1580695335339,13.7147,1.7663,13.1487,13.772042,-0.49877927,21.29266,-1
623,624,1580695335350,12.776199,1.4383,11.716599,12.9059725,-0.73873574,20.523903,-1
624,625,1580695335360,9.9029,0.28219998,9.4161,10.895485,-1.1188774,19.078426,-1
625,626,1580695335370,9.9029,0.28219998,9.4161,10.319057,-1.1942183000000002,18.461603,-1
626,627,1580695335380,9.1872,-0.1296,8.5652,9.887986,-1.1730056,17.186432,-1
627,628,1580695335390,8.7216,-0.4516,7.0975,9.740005,-1.1510938,14.632087,-1
628,629,1580695335400,8.7876,-1.2451,2.2640998,10.023076,-1.1527698,12.002105,-1
629,630,1580695335410,9.256,-1.3004999,-0.0014,10.536613000000001,-0.8002188,9.713133000000001,-1
630,631,1580695335421,9.517000000000001,-1.0243,-1.7830000000000001,10.832183,-0.13728352,7.910384700000001,-1
631,632,1580695335431,9.517000000000001,-1.0243,-1.7830000000000001,10.79468,0.2648466,7.0486355,-1
632,633,1580695335441,8.7898,-1.1994,-3.1332,9.956346,0.38583037,6.441398599999999,-1
633,634,1580695335451,7.9733996,-1.5835999,-3.0993998,9.281228,0.32052615,6.4405556,-1
634,635,1580695335461,7.0997996,-2.1887999,-2.9903,8.397988,0.012966996000000001,6.4900103,-1
635,636,1580695335471,6.1370997,-2.8797998,-2.9689999,7.431342999999999,-0.40412209999999993,6.444147,-1
636,637,1580695335482,5.1472,-3.6362997999999997,-3.2084,6.208941,-0.95390743,5.975161,-1
637,638,1580695335492,4.0501,-4.2363,-4.0984,5.2468066,-1.1867771,4.836728,-1
638,639,1580695335502,3.7937,-4.5814,-5.5452,5.286819,-1.1520803,2.9746232000000004,-1
639,640,1580695335513,4.2585998,-4.6408,-6.9126,5.624057,-0.9779356,2.0924654,-1
640,641,1580695335523,5.0334,-4.5748,-7.9858,6.555114,-0.6251548000000001,0.7619882,-1
641,642,1580695335533,5.6057997,-4.6513,-8.4276,6.971216,-0.5224244,0.25975174,-1
642,643,1580695335543,5.6066,-5.0003,-8.317699000000001,6.565533,-0.5290324000000001,0.5951794,-1
643,644,1580695335553,5.022,-4.6284,-7.5943,6.3290242999999995,-0.1090511,1.4770883,-1
644,645,1580695335563,5.7686,-4.4789,-6.3195996,7.1791573,0.110391855,2.4406013,-1
645,646,1580695335573,6.8796,-4.1719,-6.1949997,8.426393,0.5963189999999999,2.3830159,-1
646,647,1580695335583,7.8071,-3.9850998,-5.9361,9.181495,0.7852886,2.8103907,-1
647,648,1580695335593,8.3621,-3.8734,-5.5081,9.545041000000001,0.9769588,3.0077974999999997,-1
648,649,1580695335603,8.5838995,-3.7891998,-5.6176,9.60412,1.0117801,2.7658967999999997,-1
649,650,1580695335613,8.6591,-4.065,-5.7846,9.493594,0.8191904999999999,2.7104855,-1
650,651,1580695335623,8.7006,-4.0315,-5.6274,9.671828,0.972563,2.9223146,-1
651,652,1580695335634,9.3951,-3.9742,-5.2323,10.362326,1.0520983999999998,3.4060295,-1
652,653,1580695335644,9.9225,-3.6504998,-4.8325996,10.602789,1.5567674999999999,3.7569811,-1
653,654,1580695335654,10.124499,-3.083,-4.368,10.510947,2.0634668,4.278295,-1
654,655,1580695335664,9.6635,-2.7057,-4.062,9.619786999999999,2.2597914,4.3775587,-1
655,656,1580695335674,8.4997,-2.8267999,-4.0696,8.223316,2.026079,4.5298680000000004,-1
656,657,1580695335684,7.1896,-2.9689999,-3.7315,7.2372502999999995,1.9600849999999999,4.8115697,-1
657,658,1580695335695,6.5007,-3.0081,-3.5072,6.4506497000000005,1.9548656999999998,5.0208135,-1
658,659,1580695335705,5.9335,-3.0677,-3.3701,5.722918,1.7131087999999999,5.1584897000000005,-1
659,660,1580695335715,5.3327,-3.3730998,-3.4148,5.1927934,1.4468735000000001,4.951918,-1
660,661,1580695335726,4.6777,-3.5361,-3.5858,4.3019114,1.3446699,5.1910696,-1
661,662,1580695335736,3.9631998999999998,-3.6504998,-2.9436998,3.2708051,0.9675735000000001,6.3935146,-1
662,663,1580695335746,2.6576998,-4.0397,-1.5566,1.4639681999999998,0.41069177,7.831855,-1
663,664,1580695335756,0.8206,-4.6507,-0.2935,-0.47424346,-0.47801673,8.855989,-1
664,665,1580695335767,-1.1055,-5.5037,0.44959998,-3.1938555,-1.5796847,9.375368,-1
665,666,1580695335777,-3.4025998,-6.3292,0.74399996,-5.2074175,-2.253978,9.583826,-1
666,667,1580695335787,-5.8521,-6.961899799999999,0.92319995,-7.439426400000001,-2.6483319,9.755788,-1
667,668,1580695335797,-7.7029,-7.145,1.2113,-8.767211999999999,-2.8721224999999997,10.588500999999999,-1
668,669,1580695335807,-8.6923,-7.3311996,2.3594,-9.602951,-3.0715406,12.2033615,-1
669,670,1580695335817,-9.293099,-7.3039,3.5454998,-10.028306,-3.2411647,12.942105999999999,-1
670,671,1580695335828,-9.6206,-7.444,4.1772,-10.179896000000001,-3.2987502,13.285904,-1
671,672,1580695335838,-9.7344,-7.2379999999999995,4.492,-10.276181,-2.8661084,13.388060000000001,-1
672,673,1580695335848,-9.6922,-6.7802,4.392299700000001,-10.0844345,-2.4106834,12.827644,-1
673,674,1580695335858,-9.4369,-6.2549,3.6839999999999997,-9.885639,-1.8374828,11.998954,-1
674,675,1580695335869,-9.2136,-5.6256,2.8968,-9.58287,-1.0775632,11.493078,-1
675,676,1580695335879,-8.884399,-4.8065,2.4095,-9.107925999999999,-0.3351595,10.901767999999999,-1
676,677,1580695335889,-8.402699,-4.0852,1.8076999,-8.418981,0.29935184,10.537092999999999,-1
677,678,1580695335899,-7.6723,-3.4749,1.5306,-7.386553,1.1249876,10.576616,-1
678,679,1580695335909,-6.8416996,-2.7728,1.5855,-6.5949054,1.4866268999999999,10.751727,-1
679,680,1580695335919,-5.8915,-2.3104,1.8252,-5.869414,2.0080075,11.091273,-1
680,681,1580695335930,-5.1937,-1.7671,2.1234,-5.136156,2.3019676,11.032931,-1
681,682,1580695335939,-4.5927997000000005,-1.5613999,2.0317,-4.8070593,2.4245315,10.5820265,-1
682,683,1580695335949,-4.1733,-1.3844999,1.4441998999999999,-4.3781614,2.7234907,9.932652000000001,-1
683,684,1580695335959,-3.6889,-1.0993,0.78209996,-3.7841410000000004,3.1011713,9.253589999999999,-1
684,685,1580695335969,-3.0946999,-0.70419997,0.1424,-3.3230562000000003,3.454881,8.756142,-1
685,686,1580695335979,-2.6931998999999998,-0.40089998,-0.31939998,-3.1288192,3.7488699999999997,8.324763,-1
686,687,1580695335990,-2.5495,-0.18599999,-0.65389997,-3.1218572,3.788757,8.099613,-1
687,688,1580695336000,-2.5435,-0.16499999,-0.8717,-2.9378386,3.7754452000000005,8.080401,-1
688,689,1580695336010,-2.3623,-0.18949999,-0.88519996,-2.7774558,3.7694023000000003,8.215635,-1
689,690,1580695336021,-1.8458999,-0.2233,-0.2619,-2.3963087000000005,3.7623252999999997,8.702425,-1
690,691,1580695336031,-1.6521,-0.2444,-0.1928,-2.2102983,3.7416775,8.771991,-1
691,692,1580695336041,-1.6521,-0.2444,-0.1928,-2.187065,3.525692,8.70139,-1
692,693,1580695336051,-1.6157999,-0.5585,-0.2805,-2.1780915000000003,3.42481,8.679805,-1
693,694,1580695336061,-1.6157999,-0.5585,-0.2805,-1.8388618000000003,3.6361988,8.750778,-1
694,695,1580695336071,-0.7324,-0.0457,-0.2687,-1.1632181000000001,3.998039,8.663285,-1
695,696,1580695336082,-0.1345,0.2022,-0.39429998,-0.6533968000000001,4.2021594,8.559941,d
696,697,1580695336092,-0.1345,0.2022,-0.39429998,-0.19747375,4.353693,8.550001,-1
697,698,1580695336102,0.4346,0.24,-0.3522,-0.09304826,4.207196700000001,8.654148,-1
698,699,1580695336112,-0.0032,-0.0105,-0.2525,-0.70379955,3.883711,8.630044,-1
699,700,1580695336123,-0.5437,-0.3303,-0.4759,-1.0195659,3.6001995000000004,8.43913,-1
700,701,1580695336133,-0.88449997,-0.4517,-0.4942,-1.4112478000000002,3.5675137,8.467602000000001,-1
701,702,1580695336143,-1.0294,-0.5214,-0.44509998,-1.4075416,3.4950267999999998,8.503936999999999,-1
702,703,1580695336153,-0.56839997,-0.4224,-0.4754,-0.74800605,3.6602077000000004,8.487483000000001,-1
703,704,1580695336163,-0.0316,-0.2624,-0.34989998,-0.33928709999999995,3.7890155,8.651083999999999,-1
704,705,1580695336173,0.57199997,0.0069,-0.20549999,0.4579246,4.1321816,8.729719000000001,-1
705,706,1580695336184,1.1438,0.2953,-0.20799999,0.91937345,4.395457700000001,8.764235000000001,-1
706,707,1580695336194,1.5081999,0.4935,-0.1901,1.1401763,4.606291000000001,8.813296000000001,-1
707,708,1580695336204,1.5396999,0.69,-0.2007,1.1493318000000001,4.6790648,8.727364,-1
708,709,1580695336214,1.3113999,0.5523,-0.2795,0.81258243,4.488773999999999,8.644859,-1
709,710,1580695336225,0.85209996,0.39479998,-0.35799998,0.37771884,4.3007425999999995,8.645549,-1
710,711,1580695336236,0.4219,0.1591,-0.1424,-0.12456553,4.0928783,9.024761999999999,-1
711,712,1580695336246,0.069,0.051099997,0.1122,-0.37274846,4.007922,9.0216875,-1
712,713,1580695336256,-0.1138,-0.0371,-0.0154,-0.49821424,3.9099708,8.755357,-1
713,714,1580695336266,-0.20099999,-0.103599995,-0.32029998,-0.42675206,3.953306,8.528788,-1
714,715,1580695336276,-0.0106,-0.0105,-0.47919998,-0.07978438,4.08605,8.384628999999999,-1
715,716,1580695336287,0.3714,0.1525,-0.6389,0.30967563,4.234969,8.304202,-1
716,717,1580695336297,0.741,0.2886,-0.6232,0.647622,4.3173394,8.469488,-1
717,718,1580695336308,0.99259996,0.38439998,-0.4545,0.697249,4.350236,8.615985,-1
718,719,1580695336318,0.93439996,0.38689998,-0.2834,0.48526640000000004,4.2789655,8.930133,-1
719,720,1580695336328,0.73289996,0.3003,0.011399999,0.22468145,4.1024165,9.227589,-1
720,721,1580695336339,0.4631,0.16489999,0.2669,-0.19412187,3.8774192000000003,9.387597999999999,-1
721,722,1580695336349,0.0262,-0.0607,0.38619998,-0.70485294,3.6586945,9.400508,-1
722,723,1580695336359,-0.4788,-0.2501,0.37919998,-1.0538223,3.4710178,9.202325,-1
723,724,1580695336369,-0.8172,-0.43159997,0.12789999,-1.3529347,3.3466343999999997,8.863373,-1
724,725,1580695336379,-1.0577999,-0.50589997,-0.24059999,-1.4416924999999998,3.3600894999999995,8.656207,-1
725,726,1580695336389,-1.0828999,-0.45949998,-0.3752,-1.2890096000000002,3.4269452000000005,8.859159,-1
726,727,1580695336400,-0.9162,-0.37919998,-0.1096,-1.2447742,3.493351,9.309325999999999,-1
727,728,1580695336409,-0.90029997,-0.2958,0.26229998,-1.3102316999999999,3.507678,9.515467999999998,-1
728,729,1580695336419,-1.0119,-0.26029998,0.4868,-1.4143986000000002,3.5030332000000004,9.686538,-1
729,730,1580695336429,-1.0817,-0.21419999,0.65239996,-1.3864727,3.5332098,9.82477,-1
730,731,1580695336440,-1.0336,-0.1881,0.7593,-1.3777481000000003,3.5308057999999996,9.925057,-1
731,732,1580695336450,-1.1978999,-0.051799998,1.1711999,-1.5131546,3.6047196,10.282551,-1
732,733,1580695336460,-1.3198,-0.1261,1.642,-1.6300108,3.5090091,10.757522,-1
733,734,1580695336470,-1.7619,-0.23089999,1.8781999,-2.0814807,3.3808808,10.995946,-1
734,735,1580695336481,-2.2075999,-0.3962,1.9583,-2.534119,3.194066,11.097317,-1
735,736,1580695336491,-2.2075999,-0.3962,1.9583,-2.8068277999999998,3.0124803,11.185461,-1
736,737,1580695336501,-2.5054,-0.575,1.9641,-2.812277,2.9802928,11.121814,-1
737,738,1580695336511,-2.3816,-0.5305,2.0663,-2.713981,3.0344496,11.242797999999999,-1
738,739,1580695336521,-2.3816,-0.5305,2.0663,-2.676028,3.131884,11.442532,-1
739,740,1580695336532,-2.3449,-0.3287,2.4099,-2.7086563,3.2127793,11.581969,-1
740,741,1580695336542,-2.4076,-0.1423,2.4847999,-2.7786722000000004,3.3696089999999996,11.69171,-1
741,742,1580695336552,-2.5383,-0.0657,2.6290998,-2.9550579,3.4433887000000003,11.784308,-1
742,743,1580695336562,-2.8318,0.0285,2.4605,-3.2768767,3.5492125,11.592553,-1
743,744,1580695336572,-3.1104998999999998,0.16129999,2.3611,-3.5017786,3.6396272000000005,11.531376,-1
744,745,1580695336582,-3.3899998999999994,0.2058,2.4284,-3.8679287,3.6859024,11.627422,-1
745,746,1580695336593,-3.6125,0.1516,2.4664,-4.031845,3.576564,11.622622999999999,-1
746,747,1580695336603,-3.6418998,-0.1396,2.3284,-4.0890379999999995,3.1796243,11.454664999999999,-1
747,748,1580695336613,-3.7688,-0.4799,2.1218998,-4.318325499999999,2.9072406,11.123777,-1
748,749,1580695336623,-3.9571,-0.73829997,1.7084,-4.4117284,2.5386965,10.797572,-1
749,750,1580695336634,-3.8358998,-1.1872,1.5187,-4.246442299999999,2.1554997000000005,10.656496,-1
750,751,1580695336644,-3.6522,-1.3259999999999998,1.4741,-4.037859399999999,2.119424,10.700272,-1
751,752,1580695336654,-3.1838999,-1.2558,1.556,-3.4523144,2.1677103,10.742659,-1
752,753,1580695336664,-2.4634,-1.2459999,1.4814999,-2.7545865000000003,2.1780915000000003,10.641796000000001,-1
753,754,1580695336674,-1.8036,-1.1432999,1.3794999,-2.1487482000000004,2.2792418,10.524288,-1
754,755,1580695336684,-1.2737,-1.1072,1.2409999,-1.7374052,2.2139566000000004,10.273788,-1
755,756,1580695336694,-0.97309995,-1.2585,0.616,-1.4747038000000001,2.0671444,9.408035,-1
756,757,1580695336704,-0.6279,-1.4424,-0.3084,-1.1291053999999998,1.9058898999999998,8.583941000000001,-1
757,758,1580695336714,-0.4199,-1.6263,-0.8965,-1.0092134,1.7265641999999999,8.066659,-1
758,759,1580695336724,-0.3784,-1.9049,-1.4042,-1.0101902,1.4001291999999999,7.507584599999999,-1
759,760,1580695336735,-0.37449998,-2.2569999999999997,-2.1262999,-0.93296295,1.2149136999999999,6.740147,-1
760,761,1580695336745,-0.12109999,-2.2178,-2.6912,-0.23082978,1.5137196000000002,6.263107,-1
761,762,1580695336757,0.7116,-1.9205999,-2.9634,0.89669555,2.079891,5.9852552,-1
762,763,1580695336767,1.5274,-1.3938,-3.1687,1.541138,2.784284,5.9661016,-1
763,764,1580695336777,2.1546,-0.69449997,-3.1015,2.3798362999999996,3.5173025,6.141204,-1
764,765,1580695336787,2.9663,-0.009000000000000001,-2.9287,2.9725354,3.9772955999999997,6.274379,-1
765,766,1580695336798,3.5319,0.4633,-2.7861,3.3087196000000003,4.260290599999999,6.358693,-1
766,767,1580695336808,3.6193,0.5549,-2.7222998,3.1814343999999997,4.075094,6.3898277000000006,-1
767,768,1580695336818,3.4466998999999996,0.3251,-2.6884,3.155376,3.8983254,6.535912000000001,-1
768,769,1580695336828,3.4468,0.2077,-2.4894,3.2734097999999996,3.9020796000000004,7.019866,-1
769,770,1580695336839,3.4947,0.1961,-1.9498999,3.06318,3.9870067000000002,7.575742699999999,-1
770,771,1580695336848,3.25,0.2999,-1.4032999,2.8354337000000003,4.036499500000001,7.9454460000000005,-1
771,772,1580695336858,3.0605998,0.3568,-1.1320000000000001,2.7963223,4.031031,7.9416437,-1
772,773,1580695336868,3.0376,0.3324,-1.1636,2.8110228,3.9127192,7.907741499999999,-1
773,774,1580695336878,3.0461,0.1858,-1.1837,2.8735877999999997,3.8216822,7.882727,-1
774,775,1580695336889,3.0825999,0.1325,-1.2314999,3.103163,3.8490238,7.8364425,-1
775,776,1580695336898,3.3471,0.1273,-1.2202,3.3061914,3.7496934,8.229503,-1
776,777,1580695336908,3.4175,0.059000000000000004,-0.75009996,2.895988,3.8855882000000004,8.680044,-1
777,778,1580695336918,2.9359999,0.2026,-0.3509,2.7464464,3.8091748,9.019465,-1
778,779,1580695336928,2.8817,0.10439999400000001,-0.021599998999999998,2.7644792000000002,3.7779352999999993,9.290527,-1
779,780,1580695336938,2.86,0.1061,0.21869999,2.5974886,3.6926637,9.384935,-1
780,781,1580695336948,2.6153998,0.0196,0.2629,2.2816455,3.5584160000000002,9.283737,-1
781,782,1580695336959,2.3234,-0.107,0.16059999,2.1373324,3.5550349999999997,9.360917,-1
782,783,1580695336969,2.1794999,-0.0665,0.3032,2.0229855,3.586926,9.710365,-1
783,784,1580695336979,2.0424,-0.0561,0.6716,1.8428650000000002,3.5406413,10.001605,-1
784,785,1580695336989,1.8905,-0.08,0.8753,1.8581973000000003,3.5863513999999994,9.973431,-1
785,786,1580695336999,1.9,-0.0144,0.8175,1.9855498,3.6542795,9.63536,-1
786,787,1580695337010,1.9863,-0.0435,0.0543,2.0027497,3.6031394,9.171248,-1
787,788,1580695337020,1.7084999,-0.2074,-0.3507,1.756463,3.4591904,8.759186999999999,-1
788,789,1580695337030,1.4063,-0.385,-0.48349997,1.4109988000000002,3.2841074,8.636097,-1
789,790,1580695337041,1.4063,-0.385,-0.48349997,1.0837018,3.2070906000000003,8.784173,-1
790,791,1580695337051,1.0117999,-0.47419998,-0.3163,0.790709,3.2632585,9.132912,-1
791,792,1580695337061,0.4579,-0.2377,0.3913,0.54771674,3.42729,9.508275,-1
792,793,1580695337071,0.4811,-0.1556,0.7194,0.6130018,3.494165,9.900657,-1
793,794,1580695337081,0.599,-0.0579,0.97059995,0.7132614,3.5739017,10.113116999999999,-1
794,795,1580695337092,0.6046,-0.0958,0.8526,0.7409574999999999,3.5207214,9.897677,-1
795,796,1580695337102,0.6464,-0.1525,0.5028,0.78846806,3.4983885000000003,9.556992999999999,-1
796,797,1580695337112,0.67579997,-0.096499994,0.2925,0.83333546,3.6023638,9.360084,-1
797,798,1580695337122,0.5599,-0.030399999,0.131,0.656289,3.6435343999999996,9.162284,d
798,799,1580695337132,0.34199998,0.0387,-0.11009999,0.50271535,3.7260196000000003,8.979492,-1
799,800,1580695337142,0.2357,0.044299997,-0.088599995,0.43788034,3.7429129999999997,9.023105000000001,-1
800,801,1580695337153,0.1785,0.0633,-0.1078,0.36348769999999997,3.7573357000000005,9.007255,-1
801,802,1580695337163,0.0015,0.0347,-0.078499995,0.18974528,3.7265558,9.040611,-1
802,803,1580695337173,-0.1768,-0.0317,0.048299998,0.008025364,3.5601108,9.179446,-1
803,804,1580695337183,-0.2296,-0.18609999,0.018199998999999998,-0.021777658,3.5099379999999996,9.090296,-1
804,805,1580695337193,-0.195,0.051999997,-0.021699998999999998,0.18613482,3.85817,9.15966,-1
805,806,1580695337203,0.1504,0.3204,0.14389999,0.5758342,4.069175700000001,9.240632000000002,-1
806,807,1580695337213,0.565,0.46109998,-0.0039,1.0619530000000001,4.1913276,8.916573,-1
807,808,1580695337224,1.0117999,0.5913,-0.4165,1.4696566999999998,4.274051999999999,8.625100999999999,-1
808,809,1580695337234,1.4598,0.6454,-0.4671,1.9722381000000002,4.3151269999999995,8.706907000000001,-1
809,810,1580695337244,1.7788999,0.7019,-0.2539,2.270393,4.308040599999999,8.99741,-1
810,811,1580695337254,2.2254999,0.6131,0.1449,2.7566743,4.2238793,9.407633,-1
811,812,1580695337265,2.6076999,0.5555,0.4351,3.0589182,4.182067,9.587227,-1
812,813,1580695337275,2.5307999,0.58849996,0.4885,2.6261137000000003,4.0795093,9.599724,-1
813,814,1580695337285,2.2466,0.41779998,0.50159997,2.8304443,4.0838375,9.633655000000001,-1
814,815,1580695337295,2.8673,0.64739996,0.41759998,4.11795,4.421171,9.419478999999999,-1
815,816,1580695337305,4.4358,0.9212,0.23799999,5.645844,4.5571237,9.292127,-1
816,817,1580695337315,5.7549,1.0079,0.147,6.614978,4.5794473,9.344453999999999,-1
817,818,1580695337325,6.4521,0.99069995,0.27989998,7.008518,4.510102,9.653019,-1
818,819,1580695337335,6.6854997,0.95849997,0.63629997,7.1832466,4.4607806,9.925498,-1
819,820,1580695337345,6.9041,0.9583,0.82479995,7.5716342999999995,4.594827700000001,10.10741,-1
820,821,1580695337355,7.3592,1.2426,1.033,7.950281599999999,4.8371496,10.309384,-1
821,822,1580695337366,8.1055,1.2987,1.3206999,8.987,4.711530000000001,10.676625999999999,-1
822,823,1580695337376,8.86,1.2729,1.5705999,9.417478,4.805057499999999,10.82137,-1
823,824,1580695337386,9.1474,1.3205,1.6065999,9.641824,4.639656,10.647696,-1
824,825,1580695337396,9.3986,1.0907999,1.3291998999999999,9.876158,4.4335923,10.221287,-1
825,826,1580695337406,9.6233,0.88879997,0.8953,10.130088,4.2127894999999995,10.018557000000001,-1
826,827,1580695337417,9.979199000000001,0.6552,0.8648,10.454531,3.9799197,10.087614,-1
827,828,1580695337427,10.248099,0.4543,0.96999997,10.395748,3.8383076000000003,10.911267,-1
828,829,1580695337437,10.0547,0.3733,2.016,9.980096000000001,3.7470982000000004,12.015903999999999,-1
829,830,1580695337447,9.4602995,0.2841,3.1006,9.192834,3.6184912000000002,12.238747,-1
830,831,1580695337457,8.9065,0.1378,2.9327998,8.895646000000001,3.2620041,11.377322999999999,-1
831,832,1580695337467,8.6853,-0.26659998,1.9461,8.553181,2.7287867,10.310706,-1
832,833,1580695337478,8.3448,-0.8677,0.9241,8.024914,2.0473296999999997,9.287703,-1
833,834,1580695337488,7.8578,-1.6079999,-0.0673,7.2961089999999995,1.2698079,8.783838000000001,-1
834,835,1580695337498,7.1004,-2.3813999,-0.3742,6.1148586,0.56901556,9.033821000000001,-1
835,836,1580695337508,5.9138,-3.1048,-0.0762,4.6179266,-0.04073016,8.932910000000001,-1
836,837,1580695337518,4.5547,-3.6183998999999996,-0.2888,3.2672138,-0.39100185,8.909974,-1
837,838,1580695337528,3.2831,-3.9491,-0.1857,1.9375892,-0.71750396,8.963067,-1
838,839,1580695337538,1.9988999,-4.3122997000000005,-0.26749998,0.39685329999999996,-1.0175071,8.393678999999999,-1
839,840,1580695337549,0.5539,-4.6096997,-0.8578,-0.77477324,-1.2404072,7.979376299999999,-1
840,841,1580695337559,-0.4297,-4.7756,-1.2432,-1.5105688999999998,-1.2473216,7.5736933,-1
841,842,1580695337569,-1.0567,-4.7763,-1.5919,-2.2592645,-1.3795582,7.5036583,-1
842,843,1580695337579,-1.5971999,-4.9118,-1.6305,-2.9717693,-1.7063092,7.568675,-1
843,844,1580695337589,-2.227,-5.2121,-1.5643,-3.8817098,-1.810457,7.8122034,-1
844,845,1580695337599,-3.0509,-5.2894998,-1.3332,-4.874231,-2.02288,8.164974,-1
845,846,1580695337609,-3.9585998,-5.4715,-0.97529995,-6.289146400000001,-2.201229,8.421375,-1
846,847,1580695337619,-5.2946,-5.6040998,-0.72529995,-7.5924252999999995,-2.2499752,8.574431,-1
847,848,1580695337629,-6.531399700000001,-5.6208,-0.5729,-8.410725999999999,-2.3490949,8.712385000000001,-1
848,849,1580695337639,-7.2981997000000005,-5.6995,-0.4495,-9.002581,-2.175247,8.713275,-1
849,850,1580695337650,-7.836899799999999,-5.4961,-0.4531,-9.2955265,-1.9454421000000002,8.748652,-1
850,851,1580695337660,-8.1318,-5.0874,-0.3427,-9.394665,-1.8239125,8.821292999999999,-1
851,852,1580695337670,-8.3792,-4.848799700000001,-0.2581,-9.692169,-1.6159233,8.914599,-1
852,853,1580695337680,-8.3792,-4.848799700000001,-0.2581,-9.998052000000001,-1.4605683,9.006948,-1
853,854,1580695337690,-8.6142,-4.6589,-0.17279999,-10.225875,-1.1988821000000003,8.660105999999999,-1
854,855,1580695337701,-8.9496,-4.2541,-0.87869996,-10.423387,-1.0976169,8.302431,-1
855,856,1580695337711,-9.2909,-4.1495,-1.5231,-10.839078,-0.98228353,7.492731,-1
856,857,1580695337721,-9.4325,-4.0439,-2.1278,-11.004173,-0.86515915,7.0236396999999995,-1
857,858,1580695337731,-9.708,-3.9322998999999994,-2.2238998,-11.226211,-0.7714118000000001,6.938693499999999,-1
858,859,1580695337741,-9.708,-3.9322998999999994,-2.2238998,-11.51521,-0.73683953,6.821885000000001,-1
859,860,1580695337751,-9.7907,-3.8170998,-2.508,-11.145947,-0.6270893,6.6155815,-1
860,861,1580695337762,-8.9616995,-3.6722,-2.7351,-10.269506,-0.44566628,6.3807197,-1
861,862,1580695337772,-8.159699,-3.3569998999999995,-2.9238,-9.482475,-0.15844828,6.2430053,-1
862,863,1580695337783,-7.4512,-3.2328,-2.7800999,-8.642973,-0.07513005,6.4375105,-1
863,864,1580695337794,-6.9122,-3.3599,-2.6954,-8.273011,-0.36411020000000005,6.404202,-1
864,865,1580695337804,-6.857199700000001,-3.7149,-3.0895,-8.427609,-0.6906696999999999,5.768168,-1
865,866,1580695337815,-7.1190996,-4.0516,-4.0195,-8.728033,-1.0602004999999999,4.1639285,-1
866,867,1580695337825,-7.3725,-4.2953,-5.8974,-9.222713,-1.1545607,1.9409505,-1
867,868,1580695337835,-8.0676,-4.3735,-7.9869,-9.856746000000001,-1.3043993999999999,0.20596838,-1
868,869,1580695337845,-8.5928,-4.7268,-9.464499,-10.088801,-1.9241145,-1.0218165000000001,-1
869,870,1580695337856,-8.731,-5.4614,-10.5441,-10.093131,-2.6237578,-1.7538102,-1
870,871,1580695337866,-8.776999,-6.1726,-10.983299,-9.847992999999999,-3.385449,-1.7797538,-1
871,872,1580695337876,-8.2873,-7.0024,-10.9105,-8.853603999999999,-4.364113,-1.8498751,-1
872,873,1580695337886,-7.2811,-7.9096,-11.1095,-7.912932400000001,-5.2424493,-2.0583146,-1
873,874,1580695337896,-6.5716,-8.7428,-11.3938,-7.405716,-5.856045,-2.3349787999999996,-1
874,875,1580695337907,-6.257000000000001,-8.9811,-11.724199,-7.044009700000001,-5.939756,-2.415606,-1
875,876,1580695337917,-5.9086,-8.9099,-11.335899000000001,-6.090523200000001,-5.689542299999999,-0.58087164,-1
876,877,1580695337927,-5.0789,-8.344399000000001,-9.5815,-5.3200603,-5.1305733,0.9576424000000001,-1
877,878,1580695337937,-4.4648,-7.8343997000000005,-8.1725,-4.455236,-5.6383166,2.3560092,-1
878,879,1580695337947,-3.6718,-8.2644,-6.9087,-3.1399667,-6.1638627,3.2315688,-1
879,880,1580695337957,-2.37,-8.6638,-6.1302,-0.9521069999999999,-6.832573,4.079011,-1
880,881,1580695337968,-0.2798,-9.1894,-5.2978997,1.4229316,-7.329225999999999,4.8447824,-1
881,882,1580695337978,1.8232,-9.3898,-4.6401,3.2195406,-6.7198253,5.615322,-1
882,883,1580695337988,3.3312,-8.369599000000001,-3.7301998,4.3440394,-5.771855400000001,7.3616724,-1
883,884,1580695337998,4.2279,-7.223799700000001,-1.9229,4.3557043,-5.1289644,9.5033045,-1
884,885,1580695338008,3.9448998,-6.3410997,0.2677,3.6280010000000003,-4.993901999999999,12.067705,-1
885,886,1580695338018,3.2331998,-6.0186996,2.781,3.1823728,-5.4352207,13.821754,-1
886,887,1580695338029,2.8188,-6.2750998,4.1310997,3.7402887000000002,-6.3138356,13.251686,-1
887,888,1580695338039,3.5823,-7.0133,3.0421,5.206593499999999,-7.2207685,11.008386,-1
888,889,1580695338049,4.8978,-7.5354,0.9115,6.1851616,-7.1675982000000005,10.525878,-1
889,890,1580695338059,6.0871,-6.922999999999999,1.1867,7.945703999999999,-6.2641797,12.780833,-1
890,891,1580695338069,7.5976,-5.9263,3.5444,8.741681,-5.9479246,15.778804999999998,-1
891,892,1580695338079,8.057099000000001,-5.2906,6.6749997,7.815776,-5.6477685,19.01001,-1
892,893,1580695338089,7.0017,-4.6661,9.758599,6.7106314,-5.5631094,20.69276,-1
893,894,1580695338099,6.245,-4.2718,10.9698,6.461989,-5.6088963,20.20055,-1
894,895,1580695338109,6.0583,-4.0411,10.5178995,6.4504967,-5.8686,18.599442,-1
895,896,1580695338119,6.0571,-4.1598,8.3081,6.375098,-6.0993247,15.242254,-1
896,897,1580695338129,6.0737,-4.1356,5.1914,6.984748,-5.592003,14.516129999999999,-1
897,898,1580695338139,6.7476997,-3.2956,5.204799700000001,7.717297599999999,-4.546015000000001,17.122574,-1
898,899,1580695338150,7.5165,-1.3691,12.0116,7.891020299999999,-3.8826193999999994,21.499166,-1
899,900,1580695338161,7.5165,-1.3691,12.0116,7.598152000000001,-3.5599768,23.103031,-1
900,901,1580695338171,7.3721,-0.5133,13.7808,7.469775,-3.5044025999999997,23.137125,-1
901,902,1580695338181,7.2567997,-0.10759999599999999,12.9084,7.183792599999999,-3.2676735,22.206509,-1
902,903,1580695338191,6.5736,0.24929999,11.3248,6.128179599999999,-3.0341144,20.090647,-1
903,904,1580695338201,5.3985,0.17819999,8.4977,5.1019864,-3.1735333999999997,17.726067,-1
904,905,1580695338212,4.303999999999999,-0.1397,5.3519,3.9268453,-3.5185282,14.557417000000001,-1
905,906,1580695338222,3.55,0.024899999,3.8757,3.0296707,-3.2914623999999995,13.058033,-1
906,907,1580695338232,3.2793,0.4314,4.3131,2.8537352000000005,-2.973426,13.514244,-1
907,908,1580695338242,3.4225,0.7147,5.0495,3.0495522,-2.7001617,14.326835999999998,-1
908,909,1580695338252,3.7226,0.7547,5.388999999999999,3.3092080000000004,-2.7268043,14.610673,-1
909,910,1580695338263,3.8435998,0.75079995,5.7602997,3.374158,-2.7799172000000003,15.010993,-1
910,911,1580695338273,3.8551998,0.68979996,6.0694,3.3938672999999997,-2.8643177000000004,15.216396,-1
911,912,1580695338283,3.8051,0.73399997,5.8981,3.2953985,-2.80746,14.855073,-1
912,913,1580695338293,3.6838,0.7428,5.3921,3.234423,-2.7645847999999997,14.143919,-1
913,914,1580695338303,3.7384,0.9192,4.2606997,3.4669862,-2.4746087,13.032741999999999,-1
914,915,1580695338313,4.0579,1.3734,3.2152998,3.7745836,-1.9418602999999999,12.263771,-1
915,916,1580695338323,3.9738998,1.6801,3.0568,3.4409852,-1.7013102,12.208618,-1
916,917,1580695338334,3.3068,1.7163,2.8257,2.7237587000000003,-1.8230408,11.851739,-1
917,918,1580695338344,2.5491998,1.4789,2.4915,2.0994947,-2.0210223000000003,11.643289999999999,-1
918,919,1580695338354,1.8307999,1.1886,2.3069,1.2584212,-2.4241292000000003,11.422804,-1
919,920,1580695338364,1.1797,0.78709996,2.0523,0.59006536,-2.8021352000000004,11.07007,-1
920,921,1580695338374,0.49069998,0.48279998,1.5875,-0.018148048,-3.077095,10.533683,-1
921,922,1580695338385,0.1453,0.27269998,0.84279996,-0.13824122,-3.1191566,9.663199,d
922,923,1580695338395,0.3428,0.3557,-0.1217,0.34663249999999995,-2.9487276000000002,8.826798,-1
923,924,1580695338405,1.212,0.62149996,-0.5286,1.4028585,-2.533008,8.7353115,-1
924,925,1580695338415,1.7150999,0.85209996,-0.5024,1.3406668,-2.5054936000000003,8.734163,-1
925,926,1580695338425,1.0074999,0.6196,-0.54179996,0.33116599999999996,-2.789925,8.704226,-1
926,927,1580695338435,-0.021,0.2705,-0.6162,-0.58437675,-3.2378322999999996,8.611618,-1
927,928,1580695338446,-0.52919996,-0.1085,-0.5302,-0.8698901,-3.4573424,8.978017,-1
928,929,1580695338456,-0.6940000000000001,-0.20889999,-0.0995,-0.91213334,-3.4591712999999995,9.341724000000001,-1
929,930,1580695338466,-0.6245,-0.183,0.0757,-0.688084,-3.4305654000000003,9.193227,-1
930,931,1580695338476,-0.3261,-0.1515,-0.23079999,-0.20288466,-3.3055882000000003,8.764646,-1
931,932,1580695338486,0.3096,0.024999999,-0.6655,0.51026183,-3.049763,8.472294999999999,-1
932,933,1580695338496,0.97669995,0.3116,-0.7758,1.0217399999999999,-2.7336419999999997,8.656562,-1
933,934,1580695338506,1.3679999,0.62229997,-0.45299998,1.1084292,-2.5680304,9.148427,-1
934,935,1580695338516,1.2759,0.64199996,-0.0508,0.6782678000000001,-2.7376547,9.379947,-1
935,936,1580695338526,0.5597,0.3462,0.1839,-0.17715178,-3.1000793,9.463886,-1
936,937,1580695338536,-0.2624,-0.0233,0.1814,-1.0074801,-3.4646779999999997,9.439791,-1
937,938,1580695338546,-1.0594,-0.3588,0.059299998,-1.4294437,-3.6020765,9.245517,-1
938,939,1580695338556,-1.4108,-0.4901,-0.5045,-1.4844912000000001,-3.6554575,8.538364999999999,-1
939,940,1580695338567,-1.0343,-0.4105,-0.82119995,-0.9015798,-3.3998046000000004,8.569624000000001,-1
940,941,1580695338576,-0.3619,-0.0361,-0.5554,-0.247752,-3.047838,8.93404,-1
941,942,1580695338586,0.6008,0.3865,-0.0902,0.9143264999999999,-2.5929587000000005,9.41946,-1
942,943,1580695338596,1.5055,0.76339996,0.3761,1.5648790000000001,-2.1983080000000004,9.95783,-1
943,944,1580695338606,1.9734,1.0907,0.852,1.6578697,-2.1840386,10.362862,-1
944,945,1580695338616,1.7062,0.9224,1.1884999,0.8711063,-2.5402386000000003,10.392483,-1
945,946,1580695338627,0.7509999999999999,0.5391,0.98219997,0.006531382,-2.951639,9.975585,-1
946,947,1580695338636,0.052199997000000005,0.1274,0.5764,-0.4581161,-3.2547447999999997,9.828225999999999,-1
947,948,1580695338646,-0.1902,-0.080299996,0.6012,-0.45865244,-3.3055882000000003,9.911047,-1
948,949,1580695338656,0.0314,-0.0687,0.84319997,0.013321338,-3.2262442000000005,10.3285,-1
949,950,1580695338666,0.43179998,0.0381,1.2547,0.5375845,-3.0494661,10.843876,-1
950,951,1580695338676,1.0819,0.22109999,1.7477,1.1631128000000002,-2.9566956,11.242434,-1
951,952,1580695338687,1.5437,0.259,2.0748,1.2453871,-3.045961,11.552531,-1
952,953,1580695338697,1.5223,0.0968,2.3908,1.1882423,-3.2011147,11.729721000000001,-1
953,954,1580695338707,1.4236,-0.0827,2.5665,0.9757904000000001,-3.3424492,12.030395,-1
954,955,1580695338718,1.2188,-0.1405,2.9362,0.97229487,-3.3414339999999996,12.783754,-1
955,956,1580695338728,1.3234999,-0.1228,3.6773,1.1533156999999998,-3.2903035000000003,13.282407999999998,-1
956,957,1580695338738,1.6524,-0.0394,4.5253,1.4495837999999999,-3.1394305,14.485179,-1
957,958,1580695338748,1.7479999,0.0396,5.3620996,1.3716093,-3.1830049,15.173176999999999,-1
958,959,1580695338758,1.6207,-0.0751,5.9709997,1.2194626,-3.2675586,15.437938,-1
959,960,1580695338768,1.4957,-0.19119999,6.1643996,1.2439793,-3.395907,15.446019,-1
960,961,1580695338779,1.6007999,-0.348,6.0994,1.5192263000000001,-3.3957345,15.267373999999998,-1
961,962,1580695338789,1.8971,-0.40609998,5.8947997,1.8029392,-3.3692162000000003,15.244993,-1
962,963,1580695338799,2.1892,-0.41619998,5.9196,1.9820255,-3.1574923999999998,15.734072,-1
963,964,1580695338809,2.33,-0.3123,6.3391,1.8848592,-3.0806383999999998,16.128721,-1
964,965,1580695338820,2.2384999,-0.30069998,6.7215,1.5651184,-3.066934,16.285427,-1
965,966,1580695338830,1.9236,-0.4517,6.8325,1.2704592,-3.0176902,16.137273999999998,-1
966,967,1580695338840,1.6118,-0.4755,6.6653,1.2752284,-2.8987079,15.769054,-1
967,968,1580695338850,1.6310999,-0.43159997,6.1447,1.5875568000000002,-2.6303751,15.170589999999999,-1
968,969,1580695338860,2.2177,-0.28599998,5.0678997,1.941755,-2.3975918,14.648674,-1
969,970,1580695338871,2.3102,-0.3033,4.2971997,2.0526256999999997,-2.2366056,13.808279999999998,-1
970,971,1580695338881,2.2202,-0.4201,3.8922,1.9205807000000001,-2.1718664,13.514655,-1
971,972,1580695338892,1.9801999,-0.34219998,3.7056,1.7172555,-1.8940721999999999,13.334707,-1
972,973,1580695338902,1.8736,-0.3073,3.4233,1.6416273999999997,-1.7302034,13.045574,-1
973,974,1580695338912,1.6746,-0.3263,2.859,1.437565,-1.5603108,12.461303,-1
974,975,1580695338922,1.3931,-0.4279,2.2482998,1.1555663,-1.5233252,11.892373,-1
975,976,1580695338932,0.97789997,-0.6001,1.7193999,0.7487435,-1.4637096,11.397138,-1
976,977,1580695338943,0.5211,-0.5166,1.341,0.3618405,-1.20323,11.092883,-1
977,978,1580695338953,0.1628,-0.5467,1.0939,0.011204863999999998,-1.0635905,10.749725999999999,-1
978,979,1580695338963,-0.062,-0.6306,0.64449996,-0.17574398,-0.9470983000000001,10.243428999999999,-1
979,980,1580695338973,-0.1122,-0.6394,0.1786,-0.084946275,-0.71676654,9.898453,-1
980,981,1580695338983,0.0332,-0.48169997,0.0981,0.06064034,-0.39359716,9.946749,-1
981,982,1580695338994,0.0241,-0.3023,0.18679999,-0.07091625,-0.13626839,9.996912,-1
982,983,1580695339004,-0.3021,-0.2895,0.081199996,-0.5498524,-0.11894394,9.833178,-1
983,984,1580695339014,-0.9295,-0.5944,-0.0422,-1.3494008,-0.35517505,9.743491,-1
984,985,1580695339024,-1.7781999,-0.9273,-0.1051,-2.1272674,-0.50658435,9.571003,-1
985,986,1580695339034,-2.2291,-1.1579,-0.6073,-2.4253454,-0.58957696,8.877413,-1
986,987,1580695339045,-2.316,-1.3284,-1.3129,-2.4361289,-0.56179464,8.312612,-1
987,988,1580695339055,-2.0561,-1.4025999,-1.5947,-2.113429,-0.4803726,7.978007000000001,-1
988,989,1580695339065,-1.6947,-1.464,-2.2570999,-1.5571504999999999,-0.35754050000000004,6.966284299999999,-1
989,990,1580695339075,-1.0572,-1.4036,-3.1727,-0.8391294,-0.07247727,6.0414324,-1
990,991,1580695339086,-0.21609999,-1.2734,-4.1461997,-0.11769896,0.1253604,4.9323716,-1
991,992,1580695339096,0.27449998,-1.3022,-5.2569,-0.19982007,0.05383123,3.7844954,-1
992,993,1580695339106,0.046499997,-1.5574,-6.2307997,-0.7746679,-0.30809546,3.1968436000000002,-1
993,994,1580695339116,-0.6357,-1.9440998999999999,-6.6077,-1.9679476000000002,-0.2646742,2.9920819,-1
994,995,1580695339127,-1.5975,-1.8541,-6.6621,-2.6791117,-0.18406622,3.21389,-1
995,996,1580695339137,-2.4334,-1.9632,-6.2075996,-3.4176366000000002,-0.41971314,3.5540295,-1
996,997,1580695339147,-3.0191,-2.3281,-6.2044,-3.508492,-0.77193856,2.9406447,-1
997,998,1580695339157,-2.9336,-2.6511,-6.7788997,-3.0033917000000003,-0.7360925,2.5626387999999998,-1
998,999,1580695339167,-2.427,-2.654,-7.0608997,-2.4926322,-0.541195,2.7350307000000003,-1
999,1000,1580695339177,-1.9706999,-2.4531,-6.7697,-2.3781798,-0.3372185,3.3859184,-1
1000,1001,1580695339188,-1.9423,-2.3102,-6.0727,-2.704471,-0.3846333,4.058114499999999,-1
1001,1002,1580695339198,-2.2138,-2.3480000000000003,-5.4186997,-2.8272459999999997,-0.45049298,4.7269015,-1
1002,1003,1580695339208,-2.1720998,-2.342,-4.7363,-2.2900252,-0.28918123,5.5053234,-1
1003,1004,1580695339218,-1.5332999,-2.1373,-3.9266,-1.8004397,-0.12214259,6.4253955000000005,-1
1004,1005,1580695339228,-1.1283,-1.9125999,-3.0481,-1.4487122,0.23400928,7.095992599999999,-1
1005,1006,1580695339239,-0.72099996,-1.5708,-2.4138,-0.6895205,0.51037675,7.5657252999999995,-1
1006,1007,1580695339249,0.0016,-1.2868998999999999,-2.0037,-0.22543803,0.7398658,7.735665299999999,-1
1007,1008,1580695339259,0.31919998,-1.1051999,-1.8669,-0.41626546,0.6565763000000001,7.842227,-1
1008,1009,1580695339269,0.11229999,-1.2171,-1.7882999,-0.7693049,0.53404105,7.965298,-1
1009,1010,1580695339279,-0.3308,-1.3474,-1.5720999,-1.3138517,0.4819241,8.559548,-1
1010,1011,1580695339290,-0.7924,-1.3991,-1.0617,-1.8101601999999999,0.43724826,8.789268,-1
1011,1012,1580695339299,-1.2953,-1.4539,-0.8351,-2.1646360000000002,0.3699712,8.718792,-1
1012,1013,1580695339309,-1.7124,-1.5248,-0.9801,-2.158775,0.4844715,7.933617999999999,-1
1013,1014,1580695339319,-1.6515,-1.435,-1.6831,-1.8061378000000001,0.6039805,7.376803999999999,-1
1014,1015,1580695339329,-1.2300999,-1.288,-2.2975,-1.1950992,0.9738462999999999,7.4859886,-1
1015,1016,1580695339339,-0.7118,-0.9765,-2.1289,-0.7641717,1.2790495000000002,8.053022,-1
1016,1017,1580695339349,-0.19039999,-0.5941,-1.3938,-0.39938155,1.6131078,8.945992,-1
1017,1018,1580695339360,0.074999996,-0.3179,-0.6605,-0.46956040000000004,1.6541540000000001,9.285872999999999,-1
1018,1019,1580695339370,0.0185,-0.2722,-0.32979998,-0.76293635,1.5570356,9.621981,-1
1019,1020,1580695339381,-0.6407,-0.43219998,-0.2252,-1.1596171999999998,1.4611334999999999,9.389408,-1
1020,1021,1580695339391,-0.955,-0.4612,-0.50909996,-1.5123693999999999,1.4407922,9.076294,-1
1021,1022,1580695339401,-0.91139996,-0.32189998,-0.7335,-1.3866258999999999,1.6213247,8.856535000000001,-1
1022,1023,1580695339412,-0.6078,-0.0994,-0.65349996,-1.0466205,1.8481226000000002,9.003664,-1
1023,1024,1580695339422,-0.243,0.054399997,-0.5151,-0.63866764,2.0055558999999996,9.093859,-1
1024,1025,1580695339432,0.1369,0.1136,-0.5927,-0.25999114,2.0558721999999996,9.004641000000001,-1
1025,1026,1580695339442,0.3103,0.0508,-0.62189996,-0.15998057,1.9735596000000002,9.0330925,-1
1026,1027,1580695339452,0.2642,0.0233,-0.3186,-0.17529386,1.9685892,9.403112,-1
1027,1028,1580695339462,0.23879999,0.1472,0.1995,-0.20122786,2.1035168,9.913219999999999,-1
1028,1029,1580695339473,0.106,0.28149998,0.5706,-0.41389045,2.2336943,10.240163,-1
1029,1030,1580695339483,-0.1691,0.3354,0.599,-0.634042,2.249774,10.118863000000001,-1
1030,1031,1580695339493,-0.1853,0.39499998,0.17729999,-0.44804132,2.3791947,9.50543,-1
1031,1032,1580695339503,0.16059999,0.48999998,-0.4102,-0.27388709999999994,2.411306,9.2077265,-1
1032,1033,1580695339513,0.3953,0.44579998,-0.9977,-0.011587936,2.3422092999999995,8.426757,-1
1033,1034,1580695339524,0.4711,0.3554,-1.321,0.13066596,2.2295954,8.384896000000001,-1
1034,1035,1580695339534,0.5329,0.24219999,-0.94949996,0.083806634,2.1540247999999997,8.938781,-1
1035,1036,1580695339545,0.36569998,0.14459999,-0.2753,-0.152367,2.0264428,9.526471,-1
1036,1037,1580695339555,0.0894,0.0676,0.055299997000000004,-0.3866923,1.9727073,9.672326,-1
1037,1038,1580695339565,-0.0263,0.1266,-0.1136,-0.38535157,2.0303502,9.307095,-1
1038,1039,1580695339575,0.0874,0.1363,-0.4393,-0.14198573,2.0398023000000003,9.018987,d
1039,1040,1580695339585,0.37809998,0.196,-0.70629996,0.16749835,2.0671155,8.874002,-1
1040,1041,1580695339596,0.7845,0.11009999,-0.73829997,0.6316670999999999,1.8148623,8.996797,-1
1041,1042,1580695339606,1.1374999,-0.0624,-0.53529996,1.0863643,1.8427596000000002,9.307210000000001,-1
1042,1043,1580695339616,1.6724,0.0704,-0.1759,1.6592008999999999,2.0242689,9.623762,-1
1043,1044,1580695339626,2.1316,0.3432,0.0262,1.9062058999999998,2.3839831,9.670056,-1
1044,1045,1580695339636,2.2985,0.7678,0.0514,2.0622983,2.8101127,9.764961999999999,-1
1045,1046,1580695339647,2.4837,1.1774,0.14479999,2.36618,3.1749508,9.749888,-1
1046,1047,1580695339657,2.8918998,1.5659,0.081599995,2.9897258,3.4856226,9.725477,-1
1047,1048,1580695339667,3.4359998999999997,1.7816,0.0583,3.4066522000000004,3.5311697,9.687736,-1
1048,1049,1580695339677,3.9127,1.8068,0.0257,3.7923388,3.3751924,9.615803999999999,-1
1049,1050,1580695339687,4.1158,1.6364,-0.0755,3.7357974,3.1360402,9.598709,-1
1050,1051,1580695339697,3.975,1.3934,-0.049999997000000004,3.2400154999999997,3.0414119,9.8961735,-1
1051,1052,1580695339708,3.4991,1.4326,0.30789998,3.199975,3.1303325,10.371872999999999,-1
1052,1053,1580695339718,3.5575,1.5267,0.7535,3.4541913999999996,3.150061,10.528914,-1
1053,1054,1580695339728,3.8611,1.5916,0.8461,3.933568,3.1188977,10.577869999999999,-1
1054,1055,1580695339738,4.3771,1.5754,0.92939997,4.519238,3.1012668999999997,10.692246,-1
1055,1056,1580695339748,4.9683,1.5878999,1.0029,4.882524500000001,3.0514865,10.790332000000001,-1
1056,1057,1580695339758,5.2486997,1.5833,1.1252999,4.9090524,3.0659478,11.034139,-1
1057,1058,1580695339768,5.2644997,1.6448,1.4041,4.850365,3.0661007999999996,11.571301,-1
1058,1059,1580695339778,5.2188,1.6925,1.9964,4.860823,3.100319,12.236238499999999,-1
1059,1060,1580695339789,5.264199700000001,1.7712,2.6183,4.708801,3.0344496,12.624089,-1
1060,1061,1580695339801,5.0657997,1.7372999,2.9371998,4.1480403,2.9083900000000003,12.716659,-1
1061,1062,1580695339811,4.1173997,1.3892,2.7452,3.5042398,2.5314088,12.424097,-1
1062,1063,1580695339822,3.6248,1.1725,2.5182998,3.045185,2.347802,12.222754,-1
1063,1064,1580695339832,3.2954998,1.0275999,2.517,2.7318993,2.1796238,12.2633505,-1
1064,1065,1580695339842,3.0818,0.8136,2.8289999999999997,2.5210562000000003,1.9531610000000001,12.683676,-1
1065,1066,1580695339853,3.0818,0.8136,2.8289999999999997,1.8636370999999998,1.4498041000000002,13.503163,-1
1066,1067,1580695339863,1.7498,-0.16849999,4.2766,0.8271488000000001,0.70510197,14.307901999999999,-1
1067,1068,1580695339873,0.57589996,-0.95839995,5.2454,-0.64378166,-0.29467833,15.64631,-1
1068,1069,1580695339884,-0.6174,-1.8255999,6.6467,-1.6752898999999997,-1.1091954,16.780624,-1
1069,1070,1580695339894,-1.9885,-2.9794,7.7556,-3.0204577,-2.2403216,17.638275,-1
1070,1071,1580695339904,-3.5096998,-4.1173,8.1904,-4.5810466,-3.3255079,17.929486999999998,-1
1071,1072,1580695339915,-4.7454,-4.9523,8.2161,-5.883999299999999,-4.1537676,17.905132000000002,-1
1072,1073,1580695339925,-5.3485,-5.4567,8.0483,-6.3102540000000005,-4.6739315999999995,17.665829000000002,-1
1073,1074,1580695339935,-5.4549,-6.0214,7.8636,-6.337269999999999,-4.983167,17.520079,-1
1074,1075,1580695339946,-5.7469,-6.5705,7.4476,-7.091367,-5.4706936,16.730213,-1
1075,1076,1580695339956,-6.4954996,-6.8810997,6.6933,-7.9432716,-5.511979,15.771248000000002,-1
1076,1077,1580695339966,-7.2931,-7.0264997000000005,5.7286997,-8.592005,-5.4815629999999995,15.037675,-1
1077,1078,1580695339976,-7.9382997,-6.9947,4.8382998,-9.395384,-5.169617700000001,13.759735000000001,-1
1078,1079,1580695339986,-8.4746,-6.8546996,3.6889999999999996,-9.787593,-4.920707,12.6216755,-1
1079,1080,1580695339997,-8.6023,-6.8013,2.6927,-9.759733,-4.7562537,11.31832,-1
1080,1081,1580695340007,-8.4323,-6.8914,1.555,-9.738491999999999,-4.709347,9.882729,-1
1081,1082,1580695340017,-8.3384,-6.986399700000001,0.1778,-9.698786,-4.4780955,8.97681,-1
1082,1083,1580695340028,-8.0703,-6.8069,-0.6852,-9.184866,-3.867057,8.210282000000001,-1
1083,1084,1580695340038,-7.5035,-6.3690996,-1.2416999,-8.588307,-2.9387102,7.4269,-1
1084,1085,1580695340048,-6.7750998,-5.5573997,-1.9813999,-7.536257300000001,-1.9459497,6.6210594,-1
1085,1086,1580695340058,-5.5101,-4.7669,-2.6892998,-5.9974656,-1.1973785,6.039067299999999,-1
1086,1087,1580695340068,-3.9417,-4.2627997,-3.1708,-5.15825,-0.79643595,5.7700744,-1
1087,1088,1580695340079,-3.2073,-4.0141,-3.2989,-5.303089599999999,-0.6502555999999999,5.78351,-1
1088,1089,1580695340089,-3.6069,-4.2202,-3.2110000000000003,-6.1804976,-1.0756573999999999,5.458789299999999,-1
1089,1090,1580695340099,-4.5065,-4.8912,-3.5844,-7.1746182,-1.5669188,4.4536557,-1
1090,1091,1580695340109,-5.405999700000001,-5.4238,-4.6359,-7.577831,-1.4181431999999998,3.0974457,-1
1091,1092,1580695340119,-5.5901,-5.3771996,-5.6587,-7.1453996,-0.9408254999999999,2.3885033,-1
1092,1093,1580695340129,-4.9481,-4.8795,-6.5155997,-6.1204032999999995,-0.08477389999999999,0.8804915999999999,-1
1093,1094,1580695340140,-4.0699997,-4.3141,-7.7362,-5.4701379999999995,0.37113956,-0.54354125,-1
1094,1095,1580695340150,-3.4001,-4.0188,-9.057099000000001,-4.9080653,0.50629705,-1.6852593,-1
1095,1096,1580695340160,-2.2724,-4.0531,-11.130099000000001,-4.3030029999999995,0.58449167,-2.7340348,-1
1096,1097,1580695340170,-2.2724,-4.0531,-11.130099000000001,-3.8567524,0.78588235,-3.0329747000000005,-1
1097,1098,1580695340180,-1.8952999,-3.9596998999999995,-11.3789,-3.6942627,0.9067321,-2.5737574,-1
1098,1099,1580695340191,-1.8326,-3.945,-10.8881,-3.5729344,0.9758575,-1.9750918999999998,-1
1099,1100,1580695340201,-1.8677,-3.9582998999999996,-10.2821,-3.1281776000000003,1.2441229999999999,-1.1557481,-1
1100,1101,1580695340211,-0.91099995,-3.2605999,-8.6363,-2.3838205,1.7319558999999998,-0.31609207,-1
1101,1102,1580695340221,0.0488,-3.1088,-8.450399,-1.2866822,1.8832886000000002,-0.11902055,-1
1102,1103,1580695340231,0.0488,-3.1088,-8.450399,-0.13312720000000003,1.8204647,0.057087347000000004,-1
1103,1104,1580695340242,2.9229,-2.9596999,-7.820399799999999,2.2263490000000004,2.0548668,0.69223076,-1
1104,1105,1580695340254,4.1897,-2.6959,-7.1109995999999995,3.9395056000000004,2.3887525000000003,1.7568172999999998,-1
1105,1106,1580695340264,5.1928997,-2.3084,-6.2401,4.8471384,2.7144787,2.600084,-1
1106,1107,1580695340274,5.6631,-1.9738,-5.4712,5.2599273,2.940233,3.3121864999999997,-1
1107,1108,1580695340284,5.6326,-1.7275,-5.0663,5.2111335,3.0781867999999997,3.5001504,-1
1108,1109,1580695340294,5.2764997000000005,-1.3342999,-5.422999999999999,5.1590447,3.5002654000000004,2.7325025000000003,-1
1109,1110,1580695340304,5.513499700000001,-1.2300999,-6.245199700000001,5.808707,3.21163,2.154887,-1
1110,1111,1580695340314,6.5533,-1.6191,-6.5825,7.252898700000001,2.9230424999999998,2.3218584,-1
1111,1112,1580695340324,7.9502997,-1.5797,-5.9877,8.777402,2.9245367,3.0446967999999996,-1
1112,1113,1580695340334,9.252,-1.5295,-5.0262,9.961594,2.8853004,4.0383863,-1
1113,1114,1580695340344,10.002299,-1.1158999,-3.6253,10.571003999999999,3.4532529999999997,5.6256557,-1
1114,1115,1580695340355,9.5421,-0.261,-2.6001,9.892803,4.1540165,6.7367669999999995,-1
1115,1116,1580695340365,9.5421,-0.261,-2.6001,9.559636,4.910259,7.577092599999999,-1
1116,1117,1580695340375,9.2782,1.3733,-1.2421,10.64712,5.3270125,7.81635,-1
1117,1118,1580695340385,10.4788,1.7863,-1.3303,12.285491,5.309583,7.5650262999999995,-1
1118,1119,1580695340395,11.601399,1.5548999,-1.5758,13.0339,4.7853484,7.570897,-1
1119,1120,1580695340406,12.1447,1.0474,-1.2508999,13.76825,4.3633370000000005,8.569355,-1
1120,1121,1580695340416,12.6551,1.2692,0.0685,14.399648999999998,4.6851945,10.023508,-1
1121,1122,1580695340426,13.41,2.0486999,2.0363,15.111617,5.302055999999999,12.485704,-1
1122,1123,1580695340436,13.414598999999999,2.6804,4.0769,14.671841,5.6234055,14.253047,-1
1123,1124,1580695340446,12.740299,3.1759999,6.1872,14.262681,5.73192,16.185646,-1
1124,1125,1580695340456,12.7043,3.3644998,7.4161997,14.555549,5.5855193,17.256859,-1
1125,1126,1580695340467,12.9845,3.2528,8.0709,14.524166000000001,5.1907440000000005,17.665667000000003,-1
1126,1127,1580695340477,12.5889,2.9283,8.2772,14.026594000000001,4.643286,18.087801000000002,-1
1127,1128,1580695340487,12.2105,2.5742,8.7961,13.910214999999999,4.4022665000000005,18.715427,-1
1128,1129,1580695340497,12.0039,2.4162998,9.5841,13.606152999999999,4.147093,19.410654,-1
1129,1130,1580695340507,11.115,2.0115,10.498,11.724865,3.4499489999999997,20.52961,-1
1130,1131,1580695340517,9.547299,1.5488,11.1812,10.389466,2.958697,21.046766,-1
1131,1132,1580695340527,7.968999999999999,0.8767,11.7442,8.562144,1.6737769,21.60044,-1
1132,1133,1580695340538,6.4946,-0.3268,12.1614,6.826913,0.18881632,21.791037,-1
1133,1134,1580695340548,4.7727,-1.8030000000000002,12.2393,4.8553357,-1.1446009,21.657976,-1
1134,1135,1580695340558,2.8155,-3.1162999,12.107999999999999,2.7219393,-2.2560754000000003,21.23359,-1
1135,1136,1580695340568,0.7449,-4.2269,11.5528,1.1413448,-2.7517421000000004,20.567093,-1
1136,1137,1580695340578,-1.0726,-4.7379,10.680699,-0.5498236,-2.8151789000000003,19.574572,-1
1137,1138,1580695340588,-2.5325,-4.8247,9.656099000000001,-1.9344001,-2.7232990000000004,18.308957999999997,-1
1138,1139,1580695340598,-3.4182,-4.8093,8.6029,-2.4372017,-2.3398342,17.117584,-1
1139,1140,1580695340609,-3.7680000000000002,-4.5099,7.3929996,-2.6264203,-1.9771796000000001,15.960802,-1
1140,1141,1580695340619,-3.8040998,-4.3092,6.3315997,-2.7962167,-1.5725596000000002,15.009519000000001,-1
1141,1142,1580695340629,-3.8760000000000003,-3.9914,5.3806,-2.7566933999999996,-1.1011126,13.948629,-1
1142,1143,1580695340639,-3.6655,-3.6287,4.3455,-2.4557421,-0.47095862,12.948675999999999,-1
1143,1144,1580695340649,-3.3134,-3.2410997999999998,3.58,-2.466382,-0.068981744,12.533980999999999,-1
1144,1145,1580695340659,-3.217,-2.9731998,3.1908,-2.6011949,0.08961018,11.737613,-1
1145,1146,1580695340670,-3.2529,-2.9754,2.4334,-2.7777529,-0.021883002999999998,10.661686999999999,-1
1146,1147,1580695340680,-3.4097998,-3.2403998,1.1029999,-3.3987322,-0.24021505,9.146415,-1
1147,1148,1580695340690,-3.9506997999999998,-3.6272,-0.37919998,-4.0655746,-0.3016311,7.188313000000001,-1
1148,1149,1580695340700,-4.3798,-3.7991,-1.9748,-4.425241000000001,-0.13888286,5.803076,-1
1149,1150,1580695340710,-4.625499700000001,-3.7812,-3.3123,-4.802213,-0.11357135,5.0592065,-1
1150,1151,1580695340720,-4.9926,-3.9013998999999995,-4.1492,-5.2528305,-0.06405926,4.430632599999999,-1
1151,1152,1580695340731,-5.5003,-3.9285997999999998,-4.8722997,-5.6128516,0.13278243,4.061974,-1
1152,1153,1580695340741,-5.5003,-3.9285997999999998,-4.8722997,-6.008603599999999,0.33464235,3.1487966,-1
1153,1154,1580695340751,-5.6519,-3.8692,-6.7145996,-5.8966603,0.4424005999999999,1.8713654,-1
1154,1155,1580695340761,-5.6519,-3.8692,-6.7145996,-5.450659,0.7869358,1.0702657,-1
1155,1156,1580695340771,-4.1872997000000005,-3.1910000000000003,-8.1995,-4.6490993,1.2669063,0.5367417,-1
1156,1157,1580695340782,-3.7965,-2.7567,-8.5046,-4.33272,1.7648043999999998,0.19768445,-1
1157,1158,1580695340791,-3.7965,-2.7567,-8.5046,-4.602278,1.9134461,-0.12183613,-1
1158,1159,1580695340801,-3.9878,-2.8680000000000003,-9.059199000000001,-5.1891737000000004,1.7122948,-0.5070536,-1
1159,1160,1580695340811,-4.937599700000001,-3.1648,-9.3757,-5.660372,1.4993448,-0.7797915,-1
1160,1161,1580695340821,-5.4714,-3.4585,-9.6164,-6.236071599999999,1.2518513999999998,-1.0446285,-1
1161,1162,1580695340832,-5.781399700000001,-3.6313998999999995,-9.791699000000001,-6.5638857,1.0968605,-1.315882,-1
1162,1163,1580695340842,-5.6175,-3.7308998,-10.2161,-6.31283,1.0324084999999998,-1.8052185,-1
1163,1164,1580695340852,-5.2173,-3.8026998,-10.94,-5.906926599999999,0.9609751,-2.5736136000000003,-1
1164,1165,1580695340862,-4.891,-3.7161,-11.9059,-5.5618167000000005,1.1695388999999998,-3.6364858,-1
1165,1166,1580695340873,-4.5401,-3.3198,-13.0279,-5.0567746,1.581648,-4.762096,-1
1166,1167,1580695340883,-4.04,-3.0967999,-13.32,-4.602987000000001,1.7197455000000001,-4.710036799999999,-1
1167,1168,1580695340893,-4.04,-3.0967999,-13.32,-3.7374446000000003,1.6309015,-4.1928410000000005,-1
1168,1169,1580695340904,-2.4087,-3.3804,-12.4354,-2.7887661,1.0005082,-3.6395311,-1
1169,1170,1580695340914,-2.2215,-4.1753,-11.962299,-2.8307126,-0.023501484,-3.1654413,-1
1170,1171,1580695340924,-2.5126,-5.2114,-11.7108,-3.0523102000000004,-1.0730811000000002,-3.004637,-1
1171,1172,1580695340935,-2.9657998,-5.7679,-11.8291,-3.6927114000000003,-1.6091621,-3.026568,-1
1172,1173,1580695340945,-4.067,-6.2497,-11.4667,-4.7345915000000005,-2.2434149,-2.1917767999999995,-1
1173,1174,1580695340955,-4.9175,-6.6468997000000005,-10.3188,-5.196366,-2.8461409,-0.8777718000000001,-1
1174,1175,1580695340965,-4.988,-7.2054,-9.0362,-4.739169,-3.8297553,0.69370556,-1
1175,1176,1580695340975,-4.3196,-7.8778996,-7.9066,-3.813925,-4.4369635999999995,1.6013761999999998,-1
1176,1177,1580695340986,-3.2164998,-8.3646,-7.0053,-2.2931283,-5.227624400000001,2.6146693,-1
1177,1178,1580695340996,-2.2903,-8.776999,-6.4214997,-1.411765,-5.6850033,2.953334,-1
1178,1179,1580695341006,-1.6283,-8.9576,-6.2275,-0.5448916,-5.817642,3.3814557,-1
1179,1180,1580695341016,-1.0277,-8.597000000000001,-5.6338,0.082485035,-5.600239,4.5447025000000005,-1
1180,1181,1580695341026,-0.61759996,-8.3165,-4.1015997,0.54017025,-5.8618298,6.743278999999999,-1
1181,1182,1580695341037,-0.4244,-8.340899,-1.6631999,0.9572976000000001,-6.3307767,9.490117,-1
1182,1183,1580695341047,-0.0251,-8.6424,1.0696,1.9399546000000003,-7.2102914,12.424087,-1
1183,1184,1580695341057,0.62759995,-8.972199,3.0383,2.7051412999999997,-7.6209455,13.430686999999999,-1
1184,1185,1580695341067,1.6498,-9.1354,4.1018,3.8415732000000005,-7.7415075,13.631464000000001,-1
1185,1186,1580695341077,2.4773,-8.563499,3.8551998,4.0830044999999995,-7.200762700000001,14.017007000000001,-1
1186,1187,1580695341087,2.3801,-7.7742996,4.7032,3.9661769999999996,-6.8171444,16.110613,-1
1187,1188,1580695341098,2.3222,-6.9449,6.8668,4.3248477,-5.88806,18.241632,-1
1188,1189,1580695341108,2.7008997999999997,-5.6503997,9.0258,4.6713843,-5.3911295,19.994267,-1
1189,1190,1580695341118,3.0379,-4.8842,10.9923,5.368738700000001,-5.435853,20.555763,-1
1190,1191,1580695341128,3.7814,-4.7721,10.594399000000001,6.005989,-5.7821026,18.657084,-1
1191,1192,1580695341139,4.2496,-4.8375998,8.7885,6.579611,-5.922125,17.873003,-1
1192,1193,1580695341149,4.9270997,-4.6321,8.1824,7.2157984,-5.426851,17.231298000000002,-1
1193,1194,1580695341159,5.5151997,-3.6991,7.6976,7.8297,-4.273248000000001,18.533583,-1
1194,1195,1580695341169,6.218899700000001,-2.2465,9.650499,8.65456,-3.1530774,21.595488,-1
1195,1196,1580695341179,7.1047997,-0.8875,12.6012,9.118259,-2.507275,23.187048,-1
1196,1197,1580695341189,7.5133,-0.0852,13.9855995,8.66838,-2.5374993999999997,23.874971,-1
1197,1198,1580695341200,5.7163997,-0.34739998,13.7097,7.087584,-3.1949568,23.00573,-1
1198,1199,1580695341210,5.7163997,-0.34739998,13.7097,5.867479299999999,-4.022125,21.234787,-1
1199,1200,1580695341220,4.5833,-1.0107,11.9818,4.504690599999999,-4.7879629999999995,19.311314000000003,-1
1200,1201,1580695341230,3.3012998,-1.6569999999999998,10.0784,2.8655720000000002,-5.0673566,17.453796,-1
1201,1202,1580695341240,1.7429,-1.8493998999999999,8.246699000000001,2.4987707,-4.8235693,16.754385,-1
1202,1203,1580695341251,2.7398999,-0.4576,6.981,3.7091547999999994,-3.8358846,16.149944,-1
1203,1204,1580695341261,3.7907,0.2722,6.6863,4.6801853,-3.1709862,15.833316,-1
1204,1205,1580695341271,4.4512997,0.7017,5.9588,5.2499285,-2.8091455,15.092645999999998,-1
1205,1206,1580695341281,4.9091997,0.9368,5.3967,5.66381,-2.6274736,14.434738000000001,-1
1206,1207,1580695341291,5.0751,0.99399996,5.0383,5.7593193,-2.61918,14.072313000000001,-1
1207,1208,1580695341301,5.0548997,1.0967,4.7353997,5.645680400000001,-2.5482447,13.739175,-1
1208,1209,1580695341312,4.7448,0.99969995,4.3596997,5.2548037,-2.7022014,13.349886999999999,-1
1209,1210,1580695341322,4.1686997,1.0189999,3.9998998999999995,4.680712000000001,-2.6488109,13.087549000000001,-1
1210,1211,1580695341332,3.8119,1.1295998999999999,4.1379,4.3406972999999995,-2.52979,13.216682,-1
1211,1212,1580695341342,3.6053998,1.2754999,3.8523998,4.1544957,-2.4060770000000002,12.814477,-1
1212,1213,1580695341352,3.4225,1.2135999,3.2221,3.924901,-2.511125,12.184954,-1
1213,1214,1580695341363,3.1839999999999997,1.1517,2.5911,3.6681947999999998,-2.5354214,11.541853,d
1214,1215,1580695341373,3.0769,1.1371,1.9496,3.541053,-2.5334868,10.834116999999999,-1
1215,1216,1580695341383,3.0107,1.1662999,1.4929,3.3440964,-2.4650605,10.432044,-1
1216,1217,1580695341393,2.6444,1.1391,1.1615,2.8452215,-2.559775,10.165244,-1
1217,1218,1580695341405,2.0375,1.0163,0.8574,2.269818,-2.682023,9.813987,-1
1218,1219,1580695341415,1.6344999,0.7689,0.46289998,1.8922046000000001,-2.9504610000000002,9.445001,-1
1219,1220,1580695341425,1.3586,0.6242,0.22399999,1.8045194,-2.8766427000000006,9.258234,-1
1220,1221,1580695341435,1.3809999,0.65389997,0.0436,2.0012461999999998,-2.8904526,9.103626,-1
1221,1222,1580695341446,1.4835,0.5584,-0.11599999999999999,1.9136279999999999,-2.923119,8.9753065,-1
1222,1223,1580695341456,1.3208,0.5573,-0.32279998,1.9127468999999997,-2.9023373,8.695884,-1
1223,1224,1580695341466,1.507,0.5266,-0.56589997,2.2146366000000004,-2.8988228,8.605058,-1
1224,1225,1580695341476,1.7429,0.4955,-0.51199996,2.1557392999999996,-2.9611392000000003,8.859015,-1
1225,1226,1580695341487,1.4800999,0.42999998,-0.2012,1.6924229,-3.0334057999999997,9.164918,-1
1226,1227,1580695341496,0.9974,0.3143,-0.0084,1.2323339,-3.2076557,9.091349000000001,-1
1227,1228,1580695341506,0.5384,0.1042,-0.20979999,0.85430866,-3.3408019999999996,8.899315,-1
1228,1229,1580695341516,0.1327,-0.0033,-0.4913,0.48286262,-3.3681917,8.514911,-1
1229,1230,1580695341526,-0.0823,0.0032,-0.7933,0.50307924,-3.2933296999999997,8.36605,-1
1230,1231,1580695341536,0.0324,0.079399996,-0.8397,0.7274734,-3.1503193,8.372246,-1
1231,1232,1580695341547,0.33799999999999997,0.19049999,-0.89419997,1.0664061000000002,-3.0780432,8.296598,-1
1232,1233,1580695341557,0.6246,0.2225,-0.90669996,1.2691758999999998,-3.0646452999999996,8.557730000000001,-1
1233,1234,1580695341567,0.7928,0.2546,-0.5827,1.4993448,-2.968944,8.981905000000001,-1
1234,1235,1580695341577,1.0399,0.3506,-0.14909999,1.5630882,-2.995788,9.560363,-1
1235,1236,1580695341587,1.0170000000000001,0.32819998,0.4217,1.2147701000000002,-3.0477133,9.809207,-1
1236,1237,1580695341597,0.62549996,0.22199999,0.57919997,0.7275117,-3.2457905,9.710834,-1
1237,1238,1580695341608,0.13069999,0.0403,0.45009997,0.4304679,-3.3796072,9.649255,-1
1238,1239,1580695341618,-0.1161,-0.098799996,0.4073,0.38354152,-3.5010793,9.620199000000001,-1
1239,1240,1580695341628,-0.1313,-0.2111,0.38349998,0.504736,-3.5130407999999997,9.613975,-1
1240,1241,1580695341638,-0.0144,-0.2519,0.3997,0.7266115,-3.6157617999999996,9.757741000000001,-1
1241,1242,1580695341649,0.24159999,-0.3719,0.5753,0.94994265,-3.6935925000000003,10.295336,-1
1242,1243,1580695341658,0.4703,-0.3933,1.1952,1.2702773,-3.5077447999999998,10.987853,-1
1243,1244,1580695341668,0.8534,-0.1732,1.8856,1.5745611000000002,-3.4209023000000003,11.732584,-1
1244,1245,1580695341678,1.1011,-0.0713,2.6444,1.5725308999999998,-3.3367605000000005,12.443729,-1
1245,1246,1580695341689,1.1097,-0.0154,3.3421998,1.5824907,-3.3209492999999997,12.8158455,-1
1246,1247,1580695341699,1.1510999,0.018299998999999997,3.5946,1.6419435000000002,-3.271715,12.834597,-1
1247,1248,1580695341709,1.2085,-0.0001,3.6072,1.5495082,-3.4506192,12.581022,-1
1248,1249,1580695341719,1.1093998999999999,-0.1841,3.3323998,1.358403,-3.5680022000000005,12.311511999999999,-1
1249,1250,1580695341730,0.89339995,-0.3505,3.0468,1.3628945,-3.5705974,12.704524000000001,-1
1250,1251,1580695341740,0.9748,-0.354,3.4296,1.5347983,-3.3930147000000006,13.204702,-1
1251,1252,1580695341750,1.3810999,0.0061,4.5920997,1.6819457999999998,-3.1783316000000004,13.868471,-1
1252,1253,1580695341760,1.7702999,0.26,5.4172997,2.0117807,-2.9025195,14.702112,-1
1253,1254,1580695341770,2.1232998,0.32389998,5.8069,2.3360322,-2.7990324,15.103353,-1
1254,1255,1580695341780,2.0837998,0.22,5.641,2.2688317000000002,-2.8507857000000003,14.962966,-1
1255,1256,1580695341791,2.0837998,0.22,5.641,2.1015153,-2.8587055,14.647782999999999,-1
1256,1257,1580695341801,1.882,0.0771,4.9579997,2.0363069,-2.8079772000000003,14.2768345,-1
1257,1258,1580695341811,1.8650999,-0.00049999997,4.5627,2.0122788000000003,-2.7938897999999996,13.980922,-1
1258,1259,1580695341821,1.8650999,-0.00049999997,4.5627,1.9214331000000002,-2.7374537,13.81303,-1
1259,1260,1580695341831,1.6242,-0.0372,4.3986998,1.7586656999999999,-2.5803556,13.902995,-1
1260,1261,1580695341842,1.5496999,-0.051099997,4.3961,1.6802508000000003,-2.4572363,13.874753,-1
1261,1262,1580695341852,1.5099,-0.0695,4.1586,1.6392811999999999,-2.3651647999999996,13.62116,-1
1262,1263,1580695341862,1.4679999,-0.1107,3.7749998999999996,1.5380735,-2.2430317000000004,13.210429999999999,-1
1263,1264,1580695341872,1.3441,-0.0668,3.2357,1.4119086,-2.0709844,12.737747,-1
1264,1265,1580695341882,1.3089,-0.0263,2.8446999,1.3815118,-1.9328581000000002,12.43488,-1
1265,1266,1580695341892,1.3055999,-0.0297,2.5823998,1.3408391000000002,-1.7543656000000003,12.19955,-1
1266,1267,1580695341903,1.1731,-0.048899997,2.5077,1.1984129,-1.6754049,12.198295,-1
1267,1268,1580695341913,0.98859996,-0.2121,2.4833,1.001121,-1.7138653999999998,12.153111,-1
1268,1269,1580695341923,0.64919996,-0.4508,2.1564999,0.64993,-1.7510138,11.782297999999999,-1
1269,1270,1580695341933,0.32979998,-0.5258,1.6556,0.41863096,-1.6836601000000002,11.287033000000001,-1
1270,1271,1580695341944,0.32979998,-0.5258,1.6556,0.47322834,-1.5303067,10.898856,-1
1271,1272,1580695341954,0.3797,-0.5704,0.90779996,0.559161,-1.3890775,10.620105,-1
1272,1273,1580695341964,0.4913,-0.6525,0.8081,0.61862344,-1.2435100000000001,10.69758,-1
1273,1274,1580695341974,0.4966,-0.70669997,1.3682,0.59045804,-1.2799882,11.620296000000002,-1
1274,1275,1580695341984,0.3163,-0.755,2.3228,0.40203437,-1.1066861000000001,12.363725,-1
1275,1276,1580695341994,0.2189,-0.79719996,2.6517,0.2790011,-1.0263752,12.402395,-1
1276,1277,1580695342004,0.047799997000000004,-0.899,2.4036999,0.03569276,-1.0545692,12.041532499999999,-1
1277,1278,1580695342014,-0.32819998,-1.1693,1.7757,-0.3848727,-1.1383183000000001,11.228136,-1
1278,1279,1580695342024,-0.50339997,-1.2802,0.8465,-0.32453883,-0.9180326999999999,10.314125,-1
1279,1280,1580695342034,-0.1437,-1.0078,0.1849,0.0215957,-0.5097351,9.954143,-1
1280,1281,1580695342044,0.34109998,-0.5897,0.1338,0.49503472,0.16452955,9.900924,-1
1281,1282,1580695342054,0.56259996,-0.35959998,-0.0132,0.5603294,0.40456262,9.660565,-1
1282,1283,1580695342065,0.3574,-0.53499997,-0.3741,0.07796478,0.35950375,9.082403999999999,-1
1283,1284,1580695342075,-0.16219999,-0.6692,-1.2034,-0.4163804,0.25287557,8.207322999999999,-1
1284,1285,1580695342085,-0.57409996,-1.0177,-2.0695,-1.1625861000000002,0.06950846,7.1143220000000005,-1
1285,1286,1580695342095,-1.1876999,-1.2829,-2.8555,-1.6316389,-0.070427835,6.7759933000000006,-1
1286,1287,1580695342106,-1.4930999,-1.4574,-2.9253,-1.927275,0.014192827,6.846258,-1
1287,1288,1580695342116,-1.7098999,-1.5259,-2.7409,-2.1531152999999996,-0.07344454,7.0544963,-1
1288,1289,1580695342126,-1.8202,-1.7146,-2.6067,-2.1005769,-0.058466405,6.972289,-1
1289,1290,1580695342136,-1.4311,-1.6071,-2.826,-1.3797784,0.36834314,6.6410556,-1
1290,1291,1580695342146,-0.5351,-1.2261,-3.1434999,-0.52049947,0.8191425999999999,6.348771599999999,-1
1291,1292,1580695342157,0.4296,-0.79039997,-3.4413,0.42840886,1.2653644,6.029825700000001,-1
1292,1293,1580695342167,1.3931,-0.5697,-3.5723,1.0689249,1.3410115,6.118191,-1
1293,1294,1580695342177,1.6861,-0.6134,-3.4192,0.5667459,1.36458,6.351214,-1
1294,1295,1580695342187,1.1328,-0.7184,-3.1873,-0.20206106,1.0148925,6.483,-1
1295,1296,1580695342197,0.3701,-1.1230999,-3.1311,-1.1253993999999998,0.7282778,6.119053,-1
1296,1297,1580695342207,-0.5682,-1.5544,-3.5246,-2.11974,0.10022128400000001,5.584494599999999,-1
1297,1298,1580695342218,-1.5561,-2.2457,-4.0836997,-2.782474,-0.23881683,5.010739,-1
1298,1299,1580695342228,-2.0669999999999997,-2.5665998,-4.5641,-2.5832,-0.3273448,4.9683614,-1
1299,1300,1580695342238,-1.7609999,-2.7071,-4.5164,-2.1055759999999997,-0.044254426,4.955576000000001,-1
1300,1301,1580695342248,-1.2786,-2.4627,-4.4907,-1.473794,0.24968651,5.241147,-1
1301,1302,1580695342258,-0.7046,-2.2289,-4.1252,-1.1951951,0.56453365,5.6626129999999995,-1
1302,1303,1580695342269,-0.5257,-1.9564999,-3.7145,-1.2810032,0.690076,6.077422,-1
1303,1304,1580695342279,-0.627,-1.8750999,-3.287,-1.6330945,0.7853939,6.701332000000001,-1
1304,1305,1580695342289,-0.9148,-1.8018999,-2.7443,-1.7197071,0.7625436,7.202514999999999,-1
1305,1306,1580695342299,-0.9666,-1.8217,-2.1146,-1.6842539,0.84977883,7.720668300000001,-1
1306,1307,1580695342309,-0.88229996,-1.7476,-1.6209999,-1.4025041999999999,0.8970308000000001,8.040065,-1
1307,1308,1580695342320,-0.62439996,-1.7184999,-1.3923999,-0.78945446,0.9879243000000001,7.948539299999999,-1
1308,1309,1580695342330,0.5923,-1.3648,-1.7569,-0.13505213,1.3241564,7.658333,-1
1309,1310,1580695342340,0.5923,-1.3648,-1.7569,0.3521296,1.7725136000000001,7.608821000000001,-1
1310,1311,1580695342350,0.91499996,-0.82379997,-1.7529,0.2665321,1.9604872,7.640578,-1
1311,1312,1580695342360,0.3048,-0.88879997,-1.7621,-0.36347812,1.9333273999999998,7.618618,-1
1312,1313,1580695342370,-0.4725,-1.1302999,-1.7335,-1.1548479999999999,1.7152636000000003,7.6333660000000005,-1
1313,1314,1580695342381,-0.4725,-1.1302999,-1.7335,-1.7928932,1.5164491000000002,7.610726400000001,-1
1314,1315,1580695342391,-1.3905,-1.51,-1.7184,-2.1838088,1.3593701999999999,7.6445039999999995,-1
1315,1316,1580695342401,-1.5203999,-1.4492999,-1.5841,-2.238483,1.4949683,7.831999000000001,-1
1316,1317,1580695342411,-1.073,-1.1832,-1.166,-1.6959853999999999,1.8070285,8.268472000000001,-1
1317,1318,1580695342421,-0.4251,-0.73069996,-0.8268,-1.0671818000000002,2.3148675,8.522861,-1
