,Seq,Time,ACCx,ACCy,ACCz,ADGx,ADGy,ADGz,Keydown
0,1,1580697047418,1.6791999,-0.53679997,1.1316,1.3764265,-3.7316217000000003,10.513198,-1
1,2,1580697047429,1.6791999,-0.53679997,1.1316,-0.563959,-0.8160684,10.571223,-1
2,3,1580697047439,-0.0389,-0.0557,0.74649996,-0.41830537,-0.58488435,10.093456,-1
3,4,1580697047449,0.1883,0.14729999,0.23449999,-0.08467812,-0.5592089,9.911095,-1
4,5,1580697047459,0.5208,0.1506,0.0747,0.26911786,-0.45127829999999997,9.694716,-1
5,6,1580697047469,0.7101,0.21139999,-0.0857,0.4091978,-0.3155175,9.498804,-1
6,7,1580697047479,0.7984,0.3507,-0.34600000000000003,0.70260245,-0.12563813,9.383575,-1
7,8,1580697047489,0.84779996,0.40089998,-0.4165,0.8915337,0.041592073,9.614711999999999,-1
8,9,1580697047499,0.8991,0.4881,-0.1951,0.91670156,0.05299805,9.963959,-1
9,10,1580697047509,0.62979996,0.38529998,0.3814,0.7900674,0.007316680600000001,10.188056,-1
10,11,1580697047520,0.4838,0.37899998,0.49899998,0.6522763,0.0031890766999999997,10.313158,-1
11,12,1580697047530,0.4838,0.37899998,0.49899998,0.8049881,-0.0026048915,10.170539999999999,-1
12,13,1580697047540,0.9722,0.3524,0.086799994,1.2222302999999999,0.041161112,9.898875,-1
13,14,1580697047551,1.5113,0.39659998,-0.2351,1.8766519,0.13811672,9.575639,-1
14,15,1580697047561,2.1157,0.447,-0.21959999,2.6339188,0.24388297,9.579871,-1
15,16,1580697047571,2.6111999,0.5517,0.1902,3.268957,0.3808792,9.981656,-1
16,17,1580697047581,2.6111999,0.5517,0.1902,3.5429397000000002,0.5440967,10.869533,-1
17,18,1580697047592,2.6547,0.7768,1.9837999,3.4322126,0.58045983,11.764686,-1
18,19,1580697047602,2.4812,0.7233,2.5335,3.1933863,0.47931919,12.380493,-1
19,20,1580697047612,2.2,0.68909997,2.6508,2.858313,0.43948922,12.392666,-1
20,21,1580697047622,1.9397,0.7811,2.4545,2.6425955,0.56142116,12.143208999999999,-1
21,22,1580697047633,1.9066,0.83059996,2.0430999,2.7520964,0.5635089,11.70732,-1
22,23,1580697047643,2.1929998,0.6077,1.8098999,3.041728,0.34953429999999996,11.611409,-1
23,24,1580697047653,2.3609,0.3381,2.0002,3.3080491999999997,0.122324556,11.925835000000001,-1
24,25,1580697047664,2.3769,0.2588,2.5544,3.3062584000000004,0.17423084,12.505519,-1
25,26,1580697047673,2.3841,0.4181,3.4417,3.4237275,0.36224270000000003,13.553642000000002,-1
26,27,1580697047683,2.445,0.4553,4.2876997,3.3390398,0.38044822,14.391106,-1
27,28,1580697047693,2.1873999,0.4441,5.1117,3.0906557999999995,0.2961053,15.196266,-1
28,29,1580697047703,1.8159999999999998,0.1987,5.8950996,2.6368396,-0.06546705,15.969067,-1
29,30,1580697047713,1.3982999,-0.34039998,6.6684,2.2443342,-0.5536831,16.619514000000002,-1
30,31,1580697047724,0.5442,-0.8876,7.6087,1.1214441000000002,-1.1224208999999998,17.684225,-1
31,32,1580697047734,-0.43919998,-1.3841,8.2169,0.25161144,-1.6047568,18.049187,-1
32,33,1580697047744,-1.0561,-2.0039,8.229,-0.24928428,-2.1938262,17.861013,-1
33,34,1580697047754,-1.6015999,-2.8104,7.8412,-0.93413126,-2.9127188,17.3578,-1
34,35,1580697047764,-2.5987,-3.6929998,7.1408,-2.370834,-3.7565982000000004,16.47269,-1
35,36,1580697047775,-3.9471,-4.5311,6.5481997000000005,-3.8138672999999996,-4.4627633,16.205547,-1
36,37,1580697047785,-5.3525,-5.3546,6.5042995999999995,-4.901467299999999,-4.96318,16.294937,-1
37,38,1580697047795,-6.6526,-5.9783998,6.5585,-6.1576667,-5.347985700000001,16.268093,-1
38,39,1580697047805,-7.6863,-6.3803997,6.4767,-7.340670599999999,-5.6722374,16.144026,-1
39,40,1580697047815,-8.4892,-6.8402996,6.3486,-8.098694,-5.9361744000000005,15.848954,-1
40,41,1580697047826,-9.1374,-7.1744,5.870899700000001,-8.764598,-5.98379,15.037607000000001,-1
41,42,1580697047836,-9.646999000000001,-7.344599700000001,4.8775,-9.136513,-5.958641,13.767033999999999,-1
42,43,1580697047846,-9.8302,-7.4544997,3.5156,-9.312180499999998,-5.815841000000001,12.595999999999998,-1
43,44,1580697047856,-9.8351,-7.3329,2.0500998,-9.309508000000001,-5.2987127,10.763536,-1
44,45,1580697047866,-9.6668,-7.1011996,0.96129996,-9.296782,-4.804387,10.0781145,-1
45,46,1580697047877,-9.524099,-6.6077,0.1893,-9.090506,-4.2008376,9.352155,-1
46,47,1580697047888,-9.1019,-6.3027997000000004,-0.5013,-8.615688,-3.780339,8.397242,-1
47,48,1580697047898,-8.5379,-6.1006,-1.3163999,-8.149536999999999,-3.39765,7.4156857,-1
48,49,1580697047908,-8.0203,-5.8573,-2.2452,-8.140295,-2.8820536,6.5188365,-1
49,50,1580697047919,-7.9431,-5.5025,-3.0428998,-8.256788,-2.5896451000000003,6.1075992999999995,-1
50,51,1580697047929,-7.9139,-5.4438996,-3.3089999999999997,-8.288984,-2.6155312000000004,5.801122,-1
51,52,1580697047939,-7.8753,-5.6931996,-3.6208,-8.422025999999999,-2.4197621,4.6686068,-1
52,53,1580697047949,-7.9096,-5.6369,-4.5894,-8.196712,-2.3200486000000002,3.8231474999999997,-1
53,54,1580697047959,-7.5137,-5.6906,-5.5429,-7.5961795,-2.210691,2.754309,-1
54,55,1580697047970,-6.928,-5.7576,-6.3673,-7.171342999999999,-2.1579897,1.8575941000000002,-1
55,56,1580697047980,-6.4249,-5.8648,-7.2014,-6.6855020000000005,-2.1527032999999998,0.9595577,-1
56,57,1580697047990,-5.2407,-6.2339997,-8.7368,-6.109801999999999,-2.2500803,0.18742768,-1
57,58,1580697048001,-5.2407,-6.2339997,-8.7368,-5.5720353,-2.1230345,-0.30818164,-1
58,59,1580697048011,-4.6577,-6.2299,-9.1566,-4.889956,-1.7572386000000002,-0.7515687,-1
59,60,1580697048021,-3.9538,-5.9789,-9.5421,-4.1453304,-1.2731694,-1.0477314,-1
60,61,1580697048031,-3.1887999,-5.5889997000000005,-9.7862,-3.4178953,-0.81424886,-1.4376798000000002,-1
61,62,1580697048041,-1.6258999,-5.0236998,-10.652699,-2.5644867000000002,-0.5304306,-1.9974251,-1
62,63,1580697048051,-0.71959996,-4.8431,-11.111899000000001,-1.3918643999999998,-0.2288761,-2.5586643,-1
63,64,1580697048062,0.6548,-4.6015,-11.343599000000001,-0.20537461,0.034629732,-2.7440903,-1
64,65,1580697048072,2.2972,-4.1405,-11.0941,1.8876172999999998,0.669007,-2.4204613999999998,-1
65,66,1580697048082,4.0608997,-3.4392998,-10.5989,3.7684447999999997,1.4110945,-1.9165201,-1
66,67,1580697048092,5.5710998,-2.8377,-10.201099000000001,5.2068905999999995,1.9477693,-1.5401516000000002,-1
67,68,1580697048102,6.2233,-2.5665,-9.872399,5.8413157,2.1371794,-1.2260323999999998,-1
68,69,1580697048113,6.5354,-2.3896,-9.5247,6.352794,2.309198,-0.68873525,-1
69,70,1580697048123,7.1215997,-2.1671999,-9.0083,6.952876600000001,2.4635759999999998,-0.25170723,-1
70,71,1580697048133,7.9051,-1.712,-8.6128,7.8675957,2.9205718,0.21425232,-1
71,72,1580697048143,8.999,-1.1348,-7.9535,9.454894,3.4800584000000003,1.142513,-1
72,73,1580697048154,10.3237,-0.7396,-7.059,10.907111,3.7133398,2.0788183,-1
73,74,1580697048164,11.5588,-0.504,-6.2728,12.217229,3.8319101000000004,2.7433531,-1
74,75,1580697048174,12.5749,-0.3723,-5.9312997,13.241976000000001,3.8943033,2.9720470000000003,-1
75,76,1580697048184,13.269,-0.1507,-5.7738,14.006414999999999,3.9716739999999997,3.4187574,-1
76,77,1580697048195,13.852699,0.029199999,-4.812,14.545943,3.9558244,5.3030133,-1
77,78,1580697048205,14.0448,0.1741,-2.8072,14.849375,4.025314,7.61948,-1
78,79,1580697048215,14.3101,0.5027,-0.6131,15.649593,4.256526999999999,9.620878999999999,-1
79,80,1580697048225,15.3361,0.8515,1.072,17.194658,4.342115,10.900963,-1
80,81,1580697048235,16.7932,1.0408,2.0424,18.708187,4.3244166,11.651029,-1
81,82,1580697048245,17.911998999999998,1.1247,2.7145,19.575377,4.2794247,12.239456,-1
82,83,1580697048256,18.4445,1.2839999,3.0639999999999996,19.683575,4.484541,12.323282,-1
83,84,1580697048265,18.2405,1.7319,2.9717,19.457237,4.7012644,12.178125999999999,-1
84,85,1580697048275,17.7985,1.857,2.8694,18.740470000000002,4.450476,12.165532,-1
85,86,1580697048285,16.7655,1.6643,2.6905,17.547209,4.1629705,11.77771,-1
86,87,1580697048295,15.2701,1.1158,1.7026,15.839474,2.9251688,10.215341,-1
87,88,1580697048305,14.0517,-0.18519999,0.1731,14.773852,1.4488176000000001,8.734929,-1
88,89,1580697048316,13.0097,-1.5596,-1.1603,13.884157,0.18876843,7.509729400000001,-1
89,90,1580697048325,12.2116995,-2.7094,-2.3451998,13.310881,-0.69579333,6.6896296,-1
90,91,1580697048335,11.1839,-3.5835,-2.8597999,12.038152,-1.3188412,6.802214,-1
91,92,1580697048345,9.1998,-4.0168,-1.7982999,9.244368,-1.9558520000000001,8.4011,-1
92,93,1580697048355,6.3564997000000005,-4.7025,-0.5391,6.3322997,-2.8804448,9.090707,-1
93,94,1580697048365,3.4882998,-5.6818,-0.2908,4.2362237,-3.7484865,8.927643,-1
94,95,1580697048375,1.2705,-6.6067,-0.8461,2.3640060000000003,-4.5824637,8.2155695,-1
95,96,1580697048386,-0.0736,-6.9227,-1.6537,1.0574423000000002,-4.707824,7.543871,-1
96,97,1580697048396,-0.7339,-6.8718996,-1.9252,0.47919467,-4.967423,7.6022797,-1
97,98,1580697048406,-1.499,-7.1828,-1.8996998999999999,-0.7086358,-5.309037,7.1471995999999995,-1
98,99,1580697048416,-3.0878,-7.384999799999999,-2.7632,-2.7169687999999996,-5.2947964999999995,5.888472,-1
99,100,1580697048426,-5.242999999999999,-7.2425,-4.1294,-4.7401843,-5.07315,4.6448089999999995,-1
100,101,1580697048437,-7.3002,-6.9358997,-5.0849,-6.70682,-4.7867274,4.1887803,-1
101,102,1580697048447,-9.2497,-6.7434997999999995,-5.2149997,-8.584592,-5.0716852999999995,4.572800599999999,-1
102,103,1580697048457,-11.1556,-7.1891,-4.545,-10.40432,-5.9628935,5.4797725999999995,-1
103,104,1580697048467,-12.8473,-8.0776,-3.6718998,-12.211463,-7.1583085,6.738892599999999,-1
104,105,1580697048477,-14.285898999999999,-8.851399,-2.506,-13.361044,-7.678539999999999,8.0008955,-1
105,106,1580697048488,-15.366199499999999,-9.004399000000001,-1.3876,-13.7261305,-7.2582617,8.283287,-1
106,107,1580697048498,-15.5771,-8.2393,-1.3419,-13.029169,-6.506818,7.948797,-1
107,108,1580697048508,-14.9562,-7.3865,-1.5896,-12.512825999999999,-6.130708,8.224609,-1
108,109,1580697048518,-14.4442,-6.825,-0.8569,-11.941235,-6.0854764,10.384246000000001,-1
109,110,1580697048528,-14.1998,-6.6661,1.4311,-12.184772500000001,-6.159084,13.502464999999999,-1
110,111,1580697048539,-14.5975,-6.4188,4.6116,-12.593569,-6.3529663,16.503338,-1
111,112,1580697048549,-15.0237,-6.4133997,7.5017996,-12.92483,-6.860001,18.572588,-1
112,113,1580697048559,-15.4389,-6.6007,9.250999,-13.370975,-6.92247,18.220985,-1
113,114,1580697048569,-15.803498999999999,-6.3543997,8.7284,-13.034005,-7.0231414,16.77411,-1
114,115,1580697048579,-15.4618,-6.2348,7.2927,-11.753175,-7.2883806,15.029189,-1
115,116,1580697048590,-14.158299,-6.2928,5.5699,-9.692839999999999,-6.936874,14.529901999999998,-1
116,117,1580697048600,-12.0515995,-5.7103,5.0847,-7.236167999999999,-6.0122137,17.321081,-1
117,118,1580697048610,-7.1211,-3.4743,11.7177,-4.849197,-5.238446,21.105223000000002,-1
118,119,1580697048620,-5.4066,-2.6757998,14.303498999999999,-2.9429624,-4.648592,23.908594,-1
119,120,1580697048630,-4.250099700000001,-2.4875,14.7325,-2.1469479,-4.7262115,24.052294,-1
120,121,1580697048640,-4.250099700000001,-2.4875,14.7325,-1.5549191,-5.146030400000001,22.896335999999998,-1
121,122,1580697048650,-3.5396998,-2.7491,13.5784,-0.9446658000000001,-5.5393685999999995,21.256076999999998,-1
122,123,1580697048660,-2.7875,-3.0305,11.941999000000001,-0.69315016,-5.745414,19.555187,-1
123,124,1580697048670,-1.4462999,-2.8142998,9.5715,0.39949650000000003,-5.3626002999999995,18.918329999999997,-1
124,125,1580697048681,0.80799997,-1.7542,10.253099,2.1253425999999997,-4.523183,19.58119,-1
125,126,1580697048691,3.5568,-0.4865,11.841599,5.1357349999999995,-3.1241844,21.458933,-1
126,127,1580697048701,5.7581,0.4497,12.7709,7.026359599999999,-2.3203259999999997,22.103558,-1
127,128,1580697048711,7.2446,0.82269996,12.111899000000001,8.202860000000001,-2.071205,21.201662,-1
128,129,1580697048721,8.0154,0.94439995,10.8245,8.737428999999999,-1.8647863000000002,20.001064000000003,-1
129,130,1580697048732,8.630899000000001,1.23,10.1979,9.268395,-1.4937329,19.569649,-1
130,131,1580697048743,9.517099,1.4829999,10.1761,10.175022,-1.1469183,19.641282999999998,-1
131,132,1580697048753,10.158899,1.4497,10.062999999999999,10.523149,-1.2711966000000001,19.268908,-1
132,133,1580697048763,10.2182,0.9813,9.0734,10.294253,-1.5854499,17.88866,-1
133,134,1580697048774,10.0018,0.6716,7.0994,10.124591,-1.6363411,15.810303,-1
134,135,1580697048784,10.3272,0.5403,5.1133,10.592532,-1.5091419,14.239783,-1
135,136,1580697048794,11.156099000000001,0.5563,3.9046,11.511887,-1.1403391,13.246552,-1
136,137,1580697048804,11.156099000000001,0.5563,3.9046,12.299187,-0.6213049,12.8393955,-1
137,138,1580697048814,12.6825,1.1572,2.9661999,12.867139,-0.18354908,12.552224,-1
138,139,1580697048825,12.9853,1.3130000000000002,2.6536999,12.97574,0.11977712,12.196485000000001,-1
139,140,1580697048835,12.931299000000001,1.3095,2.003,12.814812,0.25284684,11.368780000000001,-1
140,141,1580697048845,12.741899499999999,1.1596999,0.8853,12.587995,0.2626918,10.072952,-1
141,142,1580697048855,12.5636,0.9881,-0.6602,12.502004,0.32223082,8.576058999999999,-1
142,143,1580697048865,12.6401,0.8361,-1.8589,12.609341,0.33288023,7.760345,-1
143,144,1580697048876,12.622499000000001,0.5772,-1.9749,12.580391,0.19760783,7.9173856,-1
144,145,1580697048885,12.277999999999999,0.1451,-1.4692999,12.050544,-0.18715952,8.637350999999999,-1
145,146,1580697048895,11.318299,-0.39999998,-0.53859997,10.9680395,-0.6030131999999999,9.7088995,-1
146,147,1580697048905,10.0071,-1.0444,0.24839999,9.731358,-1.1190116,10.051175,-1
147,148,1580697048915,8.7997,-1.7735,-0.098799996,8.496839999999999,-1.7697556,9.1968565,-1
148,149,1580697048926,7.8704,-2.4201,-0.9334,7.949122999999999,-2.0737522,8.540089,-1
149,150,1580697048936,7.2061,-2.8579,-1.6674,7.185573599999999,-2.326216,7.778042999999999,-1
150,151,1580697048946,6.5446,-3.2461998,-2.1647,6.378776,-2.4842812999999997,7.4386887999999995,-1
151,152,1580697048956,5.6008,-3.4979,-2.3369,5.4679737,-2.5675898,7.5062914,-1
152,153,1580697048966,4.3027,-3.7749998999999996,-1.9286,3.7716242999999996,-2.7159536,8.243227000000001,-1
153,154,1580697048977,2.8253999,-4.0162997,-1.3011999,1.9908171000000001,-2.7547686000000002,8.37283,-1
154,155,1580697048988,1.3403,-4.2135997000000005,-1.4531,0.85016185,-2.7003817999999997,7.3539343,-1
155,156,1580697048998,0.2749,-4.3273,-2.5895,-0.13026373,-2.4396052000000004,5.9976954000000005,-1
156,157,1580697049008,-0.5573,-4.2545,-3.6339,-0.8722939000000001,-1.9936133999999999,5.437653500000001,-1
157,158,1580697049019,-1.3328999,-3.9773,-4.1686997,-1.2841061000000003,-1.7107911,5.376716,-1
158,159,1580697049029,-1.847,-3.7712,-4.187599700000001,-1.6770903999999998,-1.5300097,5.437663,-1
159,160,1580697049039,-2.2207,-3.7494998,-4.1050997,-2.1674516,-1.6526887,5.6571636,-1
160,161,1580697049049,-2.5935,-3.9715998,-3.8662,-2.8921094,-1.8112709999999999,6.4928930000000005,-1
161,162,1580697049059,-3.2914999,-4.1819997,-3.0226,-3.9462763999999995,-2.059301,7.516012,-1
162,163,1580697049070,-4.3357,-4.4772,-1.9911,-4.9462676,-2.0980293999999997,8.024617,-1
163,164,1580697049080,-6.5283,-4.4702,-1.1129,-6.1783047,-1.9497613,8.363999999999999,-1
164,165,1580697049090,-6.5283,-4.4702,-1.1129,-6.5231557,-1.7555724,8.039585,-1
165,166,1580697049100,-6.5629,-3.8679997999999998,-2.4945,-6.232059,-1.2281966999999998,6.953154,-1
166,167,1580697049110,-5.7971997,-3.2796,-3.1376998,-5.4594693,-0.5987610999999999,6.2922687999999996,-1
167,168,1580697049120,-5.1913,-2.7719998,-3.0108,-4.84935,-0.05948155,6.414861,-1
168,169,1580697049130,-4.8083,-2.5184999,-2.5270998,-4.4669867,0.22263204,6.8878694000000005,-1
169,170,1580697049141,-4.7693,-2.3179,-2.1364,-4.4355080000000005,0.42214563,7.287930499999999,-1
170,171,1580697049151,-4.713,-2.0575,-1.9060999,-4.4041533,0.6613934,7.5232806,-1
171,172,1580697049161,-4.4193,-1.7619999999999998,-1.8147,-4.1331677,0.9389963,7.6210217,-1
172,173,1580697049171,-3.9404998,-1.5615,-1.8219999,-3.5814002,1.1354741000000002,7.6342664000000005,-1
173,174,1580697049181,-3.6497998,-1.4462999,-1.5751,-3.3865790000000002,1.2583063,7.9573206999999995,-1
174,175,1580697049191,-3.6497998,-1.4462999,-1.5751,-3.4176176,1.466439,8.312677,-1
175,176,1580697049201,-3.6497,-1.1887,-1.2413,-3.3144464,1.5526396999999998,8.430387,-1
176,177,1580697049211,-3.0447,-0.9016,-1.2717999,-2.8651986000000003,1.6561747,8.211739,d
177,178,1580697049221,-3.0447,-0.9016,-1.2717999,-2.5146492,1.9020879000000002,7.9640727,-1
178,179,1580697049231,-1.9575,-0.2384,-1.5027,-1.8012153999999998,2.2558935,7.989011,-1
179,180,1580697049241,-1.24,-0.0001,-1.3712,-0.93408346,2.5265055,8.173096000000001,-1
180,181,1580697049252,-0.6141,0.2403,-0.9949,-0.44927675,2.6876829,8.513178,-1
181,182,1580697049262,-0.3148,0.3482,-0.6983,-0.13781026,2.7591066000000004,8.813555000000001,-1
182,183,1580697049272,-0.35709998,0.23269999,-0.79459995,-0.18448761,2.6224743999999998,8.726435,-1
183,184,1580697049282,-0.687,-0.0103,-0.9596,-0.60148096,2.2873342,8.570322,-1
184,185,1580697049292,-1.0478,-0.2233,-0.79109997,-0.9411894000000001,2.072804,8.809399,-1
185,186,1580697049303,-1.1367999,-0.3259,-0.4662,-0.98337525,1.9428468,9.157046000000001,-1
186,187,1580697049313,-0.97779995,-0.35709998,-0.083,-0.8196119000000001,1.8890251,9.554101,-1
187,188,1580697049323,-0.718,-0.3195,0.2316,-0.5352765,1.9227929,9.808814,-1
188,189,1580697049333,-0.5155,-0.19829999,0.1258,-0.32717246,2.0441406000000004,9.517430000000001,-1
189,190,1580697049343,-0.2356,-0.024999999,-0.3705,-0.077150755,2.1659384,9.124322,-1
190,191,1580697049353,0.0692,0.16579999,-0.56229997,0.20089267,2.3243867999999996,9.040773,-1
191,192,1580697049364,0.12789999,0.302,-0.51949996,0.18056111,2.4353724,9.122569,-1
192,193,1580697049374,0.033099998,0.3653,-0.39949998,0.057776876,2.4207007999999997,9.242614,-1
193,194,1580697049384,-0.1963,0.34600000000000003,-0.1432,-0.32574552,2.3532321,9.586948,-1
194,195,1580697049394,-0.4337,0.3414,0.121999994,-0.46971366,2.315394,9.864780999999999,-1
195,196,1580697049404,-0.4743,0.3987,0.39679998,-0.4582598,2.3377464,10.068547,-1
196,197,1580697049414,-0.3004,0.4673,0.67149997,-0.26243323,2.3721653999999996,10.48082,-1
197,198,1580697049425,-0.1699,0.6246,1.1719998999999999,-0.19674593,2.5949602,11.154662,-1
198,199,1580697049435,-0.11229999,0.87899995,1.7023,-0.09481996,2.6812952,11.5957985,-1
199,200,1580697049445,0.080299996,0.935,2.3116999,0.19031988,2.6940804,12.402769000000001,-1
200,201,1580697049455,0.3092,1.0065,2.9907,0.39411432,2.6859016,12.917656,-1
201,202,1580697049465,0.5735,1.0516,3.3181,0.77068394,2.7576606,13.023184,-1
202,203,1580697049475,0.95589995,1.1787,3.4111998,1.1459415000000002,2.8527966,13.270553,-1
203,204,1580697049486,1.3218,1.295,3.7301998,1.3624253,2.9576724,13.519022,-1
204,205,1580697049496,1.4403,1.354,3.9508997999999997,1.3424958999999999,2.9118087000000004,13.885651999999999,-1
205,206,1580697049506,1.3618,1.3266,4.3873,1.233215,2.8213177000000003,14.395368,-1
206,207,1580697049516,1.2773,1.2494,4.8731,1.1574242000000001,2.6559357999999995,14.811604500000001,-1
207,208,1580697049526,1.3283,1.1172,5.3009996,1.3567557,2.6040106,15.379279,-1
208,209,1580697049536,1.5964999,1.1904,5.907,1.5700696,2.7208474,15.823738,-1
209,210,1580697049547,1.7691,1.2899,6.4168,1.5632222,2.7467337000000005,16.312788,-1
210,211,1580697049557,1.5877999,1.1882,6.6640997,1.1146637,2.4742734,16.312635,-1
211,212,1580697049567,1.1978999,0.8964,6.5801997000000005,0.87509024,2.1568117,16.084073999999998,-1
212,213,1580697049577,0.9309,0.4192,6.1842,0.56390154,1.5919813,15.430132,-1
213,214,1580697049587,0.7319,-0.101799995,5.6033998,0.28168259999999995,1.1274966,14.822216000000001,-1
214,215,1580697049598,0.5179,-0.55829996,5.0337996,0.17564821,1.0692313,14.196907000000001,-1
215,216,1580697049608,0.4985,-0.5926,4.388,0.010074801,1.2308591999999998,13.44237,-1
216,217,1580697049618,0.35349998,-0.4953,3.6467998,-0.37186740000000007,1.4493922,12.677901,-1
217,218,1580697049628,-0.043399997,-0.3669,2.8988,-0.73493373,1.5529846,12.040871000000001,-1
218,219,1580697049638,-0.3389,-0.38079998,2.3006,-0.4719642,1.7524790000000001,11.497808000000001,-1
219,220,1580697049649,0.0338,-0.2269,1.8321999,0.37977785,2.096478,11.259021,-1
220,221,1580697049659,0.8829,-0.0343,1.6495,1.0200353000000002,2.2120986,10.939855,-1
221,222,1580697049669,1.3353,-0.0712,1.2713,0.8276372,2.1337509999999997,10.153464999999999,-1
222,223,1580697049679,1.0608,-0.2872,0.4718,0.30576828,1.9812113999999998,9.446964999999999,-1
223,224,1580697049689,0.5316,-0.48709998,-0.1803,-0.31259656,2.0934327,8.703853,-1
224,225,1580697049699,0.08800000000000001,-0.4666,-0.7736,-0.4775379,2.1249017999999995,8.448228,-1
225,226,1580697049710,-0.1144,-0.6756,-1.2162,-0.58959615,2.0312311999999997,8.212092,-1
226,227,1580697049720,-0.1144,-0.6756,-1.2162,-0.77171826,2.0184078000000003,7.853853,-1
227,228,1580697049730,-0.0138,-0.64669997,-2.2786999,-0.5799426999999999,2.2109206,7.105177,-1
228,229,1580697049740,-0.0138,-0.64669997,-2.2786999,0.03690901,2.4616127,6.716195,-1
229,230,1580697049751,1.0733,-0.332,-2.7969,0.41941625,2.6307776,6.534945,-1
230,231,1580697049761,1.0106,-0.3692,-2.8284,0.20654299999999998,2.594357,6.511175,-1
231,232,1580697049771,0.7603,-0.5636,-2.6162999,-0.15791197,2.4221182,6.749810000000001,-1
232,233,1580697049781,0.48259997,-0.78319997,-2.3260999,-0.51867026,2.216801,6.9989605,-1
233,234,1580697049792,0.16239999,-1.0732,-2.3976,-0.9410936,1.9190580000000002,6.767211,-1
234,235,1580697049802,-0.19899999999999998,-1.4362,-2.9868,-1.3550223,1.6041248,6.1560197,-1
235,236,1580697049812,-0.3685,-1.8291,-3.3990998,-1.5850861,1.2698941000000001,5.8000402,-1
236,237,1580697049822,-0.4854,-1.8450999,-3.5579,-1.7218523999999997,1.3821534,5.632656,-1
237,238,1580697049832,-0.1732,-1.4815999,-3.4245,-1.4661708,1.7037905,5.7758199999999995,-1
238,239,1580697049843,0.4015,-1.2458,-2.853,-0.9223614,1.9301958,6.4077269999999995,-1
239,240,1580697049853,0.52059996,-1.375,-2.6849,-0.91734314,1.7728488000000002,6.4694395,-1
240,241,1580697049863,0.5668,-1.5999999,-2.8104,-0.96450895,1.5250968999999999,6.3410525,-1
241,242,1580697049873,0.3454,-1.8159,-2.9157999,-1.3967007,1.374109,6.205522,-1
242,243,1580697049883,-0.022000000000000002,-1.7993,-2.8839,-1.8291606,1.4075991,6.3157125,-1
243,244,1580697049894,-0.3452,-1.7660999,-2.7159,-2.1859347999999996,1.432288,6.4901824,-1
244,245,1580697049904,-0.6709,-1.7651,-2.3332,-2.4846356,1.4831504999999998,7.052734,-1
245,246,1580697049914,-0.76409996,-1.6401,-1.6965,-2.4779793999999997,1.6750314,7.521835,-1
246,247,1580697049924,-0.523,-1.3253,-1.6380000000000001,-2.0992935,2.1068785,7.372733599999999,-1
247,248,1580697049934,0.0374,-0.89989996,-1.8226999,-1.5158266000000002,2.4760835,7.186416599999999,-1
248,249,1580697049944,0.5362,-0.72179997,-2.0268,-1.1590331,2.585709,6.989172999999999,-1
249,250,1580697049954,0.6847,-0.659,-2.182,-1.1274296,2.695373,6.850078999999999,-1
250,251,1580697049964,0.6099,-0.6214,-2.1323,-1.2334256000000001,2.713234,6.957406,-1
251,252,1580697049974,0.45389998,-0.75589997,-1.8984,-1.5339363000000001,2.5039518,7.2115364,-1
252,253,1580697049984,-0.0016999998999999999,-0.94729996,-1.7839999,-2.0084767,2.4229032999999998,7.325108,-1
253,254,1580697049995,-0.4461,-0.94339997,-1.5042,-2.4433692000000002,2.4716685000000003,7.708611500000001,-1
254,255,1580697050005,-0.8484,-0.82119995,-1.0885999,-2.7871954,2.6875777000000003,8.091808,-1
255,256,1580697050015,-1.0817,-0.5696,-0.7812,-2.8888917000000003,2.9906259,8.339914,-1
256,257,1580697050025,-0.9766,-0.3557,-0.63019997,-2.4428039,3.1841445,8.487225,-1
257,258,1580697050035,-0.36069998,-0.1618,-0.4888,-1.8621238000000002,3.3658645,8.529076,-1
258,259,1580697050045,0.35959998,-0.0297,-0.5920000000000001,-1.1128249,3.5370017999999996,8.239166,-1
259,260,1580697050056,0.8358,0.14029999,-0.8612,-0.80562013,3.6346376000000005,8.037996000000001,-1
260,261,1580697050066,0.993,0.1374,-0.9935,-0.9068086999999999,3.5878167000000003,8.002417999999999,-1
261,262,1580697050076,0.71379995,0.100899994,-0.95059997,-1.3851415,3.5856235,8.196913,-1
262,263,1580697050086,0.24149999,0.1092,-0.69339997,-1.8255404999999998,3.5720339999999995,8.514059,-1
263,264,1580697050097,-0.065,0.090399995,-0.43719998,-2.0052397,3.528977,8.649466,-1
264,265,1580697050107,-0.2847,0.0026999997999999996,-0.35779998,-2.2782936,3.45151,8.618053,-1
265,266,1580697050117,-0.57229996,-0.075899996,-0.376,-2.5893004,3.34266,8.746459,-1
266,267,1580697050127,-0.88979995,-0.21419999,-0.1096,-2.9161282,3.249085,9.028236999999999,-1
267,268,1580697050137,-1.1018,-0.2472,0.0101,-2.9786456,3.2848735000000002,8.728981,-1
268,269,1580697050147,-1.0976,-0.1874,-0.3581,-2.6047382000000003,3.5732597999999998,8.331783,-1
269,270,1580697050157,-0.6243,0.1533,-0.6961,-1.9082363000000002,4.0045033,8.139510000000001,-1
270,271,1580697050168,0.0729,0.5448,-0.8585,-1.2995918,4.298042,8.098225,-1
271,272,1580697050178,0.6253,0.80439997,-0.8655,-1.10117,4.46035,8.103176,-1
272,273,1580697050189,0.75949997,0.96239996,-0.8646,-1.1377916000000001,4.4133277,8.139826,-1
273,274,1580697050198,0.7187,0.8505,-0.79649997,-1.3194829,4.1417966,8.368136,-1
274,275,1580697050208,0.4789,0.5746,-0.5634,-1.7695352999999998,3.9967462999999994,8.594284,-1
275,276,1580697050218,-0.0007,0.4759,-0.35099998,-2.1434617,3.8151792999999996,8.702761,-1
276,277,1580697050228,-0.3371,0.2491,-0.2667,-2.4516720000000003,3.4428620000000003,8.876186,-1
277,278,1580697050238,-0.6651,-0.0955,-0.0453,-2.8409310000000003,3.2987025,9.213184,-1
278,279,1580697050249,-1.0449,-0.2061,0.2642,-3.0299006,3.2135932,9.264746,-1
279,280,1580697050259,-1.1933,-0.2825,0.24149999,-2.9793444,3.1658912,9.001968,-1
280,281,1580697050269,-1.1287999,-0.306,-0.0735,-2.662266,3.2126547999999997,8.417084,-1
281,282,1580697050279,-0.83769995,-0.2732,-0.5836,-2.3329964,3.2687077999999996,8.072444,-1
282,283,1580697050289,-0.4328,-0.2078,-0.97599995,-1.913647,3.3711510000000002,8.003606,d
283,284,1580697050300,-0.100899994,-0.1156,-0.9975,-1.757277,3.2943160000000002,8.311078,-1
284,285,1580697050310,0.0565,-0.19309999,-0.6975,-2.0001545,3.0745763999999998,8.566885000000001,-1
285,286,1580697050320,-0.18789999,-0.38639998,-0.4375,-2.4779793999999997,2.8266711,8.442655,-1
286,287,1580697050330,-1.2286,-1.0501,-0.86429995,-3.0410383,2.39515,8.143599499999999,-1
287,288,1580697050340,-1.9964,-1.2583,-1.3543999,-3.80815,2.199984,7.6586394,-1
288,289,1580697050351,-2.6692998,-1.3647,-1.8721,-4.550391,2.0565425999999998,7.0150394,-1
289,290,1580697050361,-2.6692998,-1.3647,-1.8721,-4.817584,1.8568183,6.511271,-1
290,291,1580697050371,-3.4998998999999995,-1.9456999,-3.1987997999999997,-5.3997297,1.381895,5.611482,-1
291,292,1580697050381,-3.807,-2.5017,-3.9009998,-5.617305,0.85355204,4.8374367,-1
292,293,1580697050391,-3.8946998,-3.0763998,-4.8479,-5.6257415,0.33415392,3.9373796000000003,-1
293,294,1580697050402,-3.6971,-3.7974,-5.8929,-5.390172,-0.43950838,2.9030077000000003,-1
294,295,1580697050412,-3.5874998999999996,-4.6129,-6.7627997,-5.4000835,-1.1919868,2.0478756000000002,-1
295,296,1580697050422,-4.3494,-4.805,-7.7229,-6.3015102999999995,-1.2368541000000002,1.0905589,-1
296,297,1580697050432,-5.2042,-4.7746997,-8.2942,-7.052801,-1.3617261999999999,0.71379775,-1
297,298,1580697050442,-5.3547997,-5.1106997000000005,-8.175799000000001,-6.9944496,-1.6161628000000001,0.85195273,-1
298,299,1580697050452,-5.0566,-5.3156,-8.2390995,-6.592654700000001,-1.8184726999999998,0.7317351,-1
299,300,1580697050463,-4.5376997,-5.5488,-8.4424,-5.967021,-2.1302266,0.55225617,-1
300,301,1580697050473,-4.1724,-5.955,-8.7848,-5.621767500000001,-2.514726,0.13908397,-1
301,302,1580697050483,-4.1398997,-6.1074,-9.5008,-5.4696302,-2.7447033,-0.7213155,-1
302,303,1580697050493,-3.9884998999999994,-6.2359,-10.1317,-5.361546499999999,-2.7156184,-1.2187732,-1
303,304,1580697050503,-4.169699700000001,-5.1928997,-11.238,-5.433315,-1.3853042,-2.4342136,-1
304,305,1580697050514,-3.7831998,-4.3517,-11.2432995,-4.5723605,-0.99037594,-1.4100795,-1
305,306,1580697050524,-2.6866,-4.3591,-9.3666,-3.3803637,-1.2952343000000002,0.4912519,-1
306,307,1580697050534,-1.9528999,-4.8747997000000005,-8.110499,-2.6215742000000004,-2.1094449,1.3668879999999999,-1
307,308,1580697050544,-1.3923,-5.9346,-7.7723,-1.9152848000000002,-3.1282349999999997,1.5140262,-1
308,309,1580697050554,-0.3931,-6.9911,-8.1556,-0.41855437,-4.335583,0.9205322,-1
309,310,1580697050565,0.4048,-7.3497,-8.8433,0.32722035,-4.0857434,0.31465557,-1
310,311,1580697050575,0.6591,-6.3869,-8.9213,0.69749796,-3.253787,1.0411137,-1
311,312,1580697050585,1.2485,-5.3943,-7.1668,1.69113,-2.674716,3.689685,-1
312,313,1580697050595,2.0119998,-4.9719996,-5.1310997,2.4132211,-2.848468,4.9378400000000005,-1
313,314,1580697050605,2.6422,-5.1089997,-4.6275,3.3930724000000003,-3.8531706,4.884219,-1
314,315,1580697050616,3.7598998999999997,-6.3679,-4.8662,4.8635907,-5.464047,4.461882,-1
315,316,1580697050626,5.0748997000000005,-7.5295,-5.3199997,6.640644,-6.4888706,4.7906830000000005,-1
316,317,1580697050636,7.0509,-8.0742,-4.0266,9.133639,-6.6525479999999995,7.7981353,-1
317,318,1580697050646,9.532499000000001,-7.3532996,-0.2572,11.748233,-5.6823597,12.255392,-1
318,319,1580697050656,11.9115,-5.7647,4.415499700000001,13.437514000000002,-4.3206050000000005,16.761873,-1
319,320,1580697050667,13.2328,-3.9929,8.0912,14.392475,-3.7206947999999995,17.938538,-1
320,321,1580697050677,13.7956,-3.5379998999999995,7.7748,13.926209,-4.669354,15.815339999999999,-1
321,322,1580697050687,13.4616995,-4.2731,5.7283998,13.387888,-5.275834,15.275801999999999,-1
322,323,1580697050697,12.8807,-4.3210998,5.6152,13.869467000000002,-5.140035,16.591885,-1
323,324,1580697050707,13.678498999999999,-3.8321,7.3950996,15.419598,-4.657565,19.560465,-1
324,325,1580697050717,15.1587,-2.9875,10.4807,16.369225,-4.030696,22.329657,-1
325,326,1580697050727,15.871599,-2.0812,13.1354,16.419254000000002,-3.7039258000000004,23.489016,-1
326,327,1580697050737,15.9077,-1.5062,13.8352995,16.499556,-3.692424,22.06934,-1
327,328,1580697050748,16.152,-1.2391,12.1531,16.397686,-3.5144105000000003,20.292917000000003,-1
328,329,1580697050758,15.9304,-0.80429995,10.6065,15.673842,-3.5730587999999996,19.658781,-1
329,330,1580697050768,15.1866,-0.7091,10.3642,14.526627,-3.5593448,20.913315,-1
330,331,1580697050779,14.012198999999999,-0.44669998,11.998099,13.528389,-3.5716796000000004,22.966417,-1
331,332,1580697050789,13.059199000000001,-0.27989998,14.085899,12.636606,-3.6743336,24.364689000000002,-1
332,333,1580697050799,12.1276,-0.22659999,15.345699,11.417957000000001,-3.4026970000000003,24.798424,-1
333,334,1580697050809,11.082499499999999,0.2007,15.6728,10.733838,-3.0479336,23.861906,-1
334,335,1580697050819,10.3398,0.6446,14.7695,10.1449795,-2.582539,22.87696,-1
335,336,1580697050829,9.541699000000001,1.3368,13.646899,9.533136,-1.8269291,22.465367999999998,-1
336,337,1580697050840,8.8323,2.289,13.456799499999999,9.04358,-1.1156502000000001,23.033428,-1
337,338,1580697050850,7.3271,2.0262,14.1243,7.9795103,-1.7574398999999998,23.162943,-1
338,339,1580697050860,4.8849998,-0.1309,13.4676,5.6221027,-3.8773712999999996,22.520828,-1
339,340,1580697050870,1.3076999,-2.5091999,12.4855995,2.160815,-6.1865025000000005,21.550832999999997,-1
340,341,1580697050880,1.3076999,-2.5091999,12.4855995,-1.0791912000000001,-7.869789,21.034029,-1
341,342,1580697050891,-7.5738997,-5.7697997,11.3965,-6.447566,-9.177923,20.538324,-1
342,343,1580697050901,-11.1202,-6.4824,11.2081995,-9.837555,-9.717164,20.384731,-1
343,344,1580697050911,-13.550799,-7.2479997,10.715,-12.115072,-10.302155,19.933578,-1
344,345,1580697050921,-15.3476,-7.9212,9.5633,-14.025319,-10.839633000000001,18.540909,-1
345,346,1580697050932,-15.9436,-8.1861,8.1453,-14.330407999999998,-10.84286,17.456316,-1
346,347,1580697050942,-15.013499,-7.7587,7.3461,-13.042309,-9.975565,16.627539000000002,-1
347,348,1580697050952,-13.8638,-6.7402,6.8631997,-12.039023,-8.791767,16.108839,-1
348,349,1580697050962,-13.863898999999998,-6.2602997,5.7035,-12.142557,-8.242681,14.853598999999999,-1
349,350,1580697050972,-14.040899,-6.2711997,4.1396,-12.266367,-8.042133,13.31928,-1
350,351,1580697050982,-13.783299,-6.279,2.6831,-11.852294,-7.8212442,11.672116,-1
351,352,1580697050993,-13.783299,-6.279,2.6831,-11.354732,-7.610765,10.490913,-1
352,353,1580697051003,-12.269899,-6.2075,-0.3561,-10.177961999999999,-7.2652149999999995,8.560488000000001,-1
353,354,1580697051013,-11.1931,-6.1748,-2.0629,-9.197316,-6.9286375,6.984269599999999,-1
354,355,1580697051024,-10.2933,-5.8870000000000005,-3.3602,-8.302747,-6.300083,5.930361,-1
355,356,1580697051034,-9.3303995,-5.3469,-4.1586,-7.3152246,-5.5467525,5.281427,-1
356,357,1580697051044,-8.344399000000001,-5.0224,-4.7134,-6.352056500000001,-5.146106700000001,4.809223,-1
357,358,1580697051054,-7.5748,-4.9209,-5.1242,-5.648142,-4.8116845999999995,4.3257575,-1
358,359,1580697051065,-6.9507,-4.7446,-5.7952,-4.85162,-4.4144006,3.3618328999999996,-1
359,360,1580697051075,-6.1589,-4.5994997,-6.5607,-3.8816714,-4.08175,2.9758396,-1
360,361,1580697051085,-5.015,-4.2552,-6.6566,-2.6521914,-3.5738919,3.1696262,-1
361,362,1580697051095,-3.6246998,-3.8135998,-6.4129996,-1.3899012,-3.0495330000000003,3.4046602,-1
362,363,1580697051105,-2.3713,-3.2528,-6.218499700000001,-0.2920447,-2.3310618,3.6206650000000002,-1
363,364,1580697051116,-1.1995,-2.5358999,-5.9824,0.86698836,-1.6148603000000001,3.8886623,-1
364,365,1580697051126,0.0316,-1.8948,-5.7728,2.0022135,-1.0783101000000002,3.9783013,-1
365,366,1580697051136,1.0917,-1.4302,-5.757000000000001,2.8215475,-0.6142564,3.9039567,-1
366,367,1580697051147,1.8589,-0.9851,-5.8086,3.4750116,-0.12029427,4.018408999999999,-1
367,368,1580697051157,2.477,-0.6037,-5.6247,4.074395,0.119892046,4.20531,-1
368,369,1580697051167,3.0693,-0.4982,-5.4809,4.279559,0.05692454,4.304823000000001,-1
369,370,1580697051177,3.0877,-0.6394,-5.3577,4.005203,-0.16241308,4.682704,-1
370,371,1580697051187,2.8332,-0.78999996,-4.9409,3.7969741999999997,-0.1872936,5.27027,-1
371,372,1580697051197,2.7603,-0.7639,-4.3574,4.1307163000000005,-0.12787910000000002,5.7778697,-1
372,373,1580697051208,3.1785,-0.65309995,-3.8908,4.625051999999999,0.15893670000000001,6.1613727,-1
373,374,1580697051218,3.7364,-0.3213,-3.5119,5.2630973,0.5142074999999999,6.685300999999999,-1
374,375,1580697051228,4.4139,0.049399998,-2.9668,5.955366000000001,0.6930448,7.198531,-1
375,376,1580697051238,5.0954,0.23709999,-2.4334,6.405007,0.76350135,8.0061245,-1
376,377,1580697051248,5.5371,0.3773,-1.568,6.5581784,0.78427345,8.993962,-1
377,378,1580697051259,5.6805,0.4533,-0.585,6.276821,0.7591726,9.940419,-1
378,379,1580697051269,5.361399700000001,0.48569998,0.3303,5.739543,0.746378,10.617939,-1
379,380,1580697051279,4.8568997000000005,0.5162,0.88449997,5.2431483,0.72236896,10.739794999999999,-1
380,381,1580697051289,4.4298,0.5108,0.9205,4.8364887,0.64016163,10.611189,-1
381,382,1580697051299,4.0427,0.44309998,0.78099996,4.3298087,0.5908985999999999,10.303619,-1
382,383,1580697051310,3.6508,0.42589998,0.5049,3.986729,0.47317088,9.902523,-1
383,384,1580697051320,3.3276,0.31669998,0.11109999599999999,3.5447782999999995,0.27251762,9.556571,-1
384,385,1580697051330,2.9087,0.13069999,-0.2435,3.1658432,0.06637685,9.456062,-1
385,386,1580697051341,2.5544,-0.067499995,-0.3435,3.1292312,0.08797255,9.639085000000001,-1
386,387,1580697051351,2.5441,0.044499997,0.2795,3.0864422,0.10827537599999999,10.0749445,-1
387,388,1580697051361,2.2063,0.054399997,0.7678,2.7150536,0.08414182,10.5727,-1
388,389,1580697051371,2.2063,0.054399997,0.7678,2.3367120999999997,0.080119565,11.123202000000001,-1
389,390,1580697051381,1.5789,0.1792,1.6780000000000002,2.0543973,0.15093048,11.489552999999999,-1
390,391,1580697051391,1.4441,0.2697,1.3350999,1.9303203000000002,0.23113623,11.029062,-1
391,392,1580697051402,1.5424,0.1872,0.7378,2.0847273,0.13896903,10.434074,-1
392,393,1580697051412,1.8118,0.21579999,0.23889999,2.3990667,0.22646275,9.94743,-1
393,394,1580697051422,2.0346,0.1881,-0.0736,2.5798194,0.21005768,9.723141,-1
394,395,1580697051432,1.8663,0.13069999,-0.023899998999999998,2.3577142,0.1501356,9.829605,-1
395,396,1580697051443,1.5705,0.043899997999999996,0.3193,2.0707736,0.051551953,10.188516,-1
396,397,1580697051453,1.2599,0.0016,0.64269996,1.6972497,0.042310335,10.5531435,-1
397,398,1580697051463,1.0303,0.048,0.8777,1.5603778,0.07108864,10.734575999999999,-1
398,399,1580697051473,1.0063,0.0424,0.92649996,1.5246468999999998,0.0041180267,10.691566,-1
399,400,1580697051484,0.9043,-0.036199998,0.7398,1.3979073999999998,-0.08795339,10.440759,-1
400,401,1580697051494,0.8318,-0.11,0.4551,1.3512683,-0.13910311,10.155055,-1
401,402,1580697051504,0.8251,-0.119899996,0.20979999,1.3805253999999998,-0.09226295,9.92523,-1
402,403,1580697051514,0.9228,-0.0053999997,-0.0058,1.5445857,0.14734876,9.718898,-1
403,404,1580697051524,1.1812999,0.2462,-0.1629,1.7765455,0.36223316,9.631883,-1
404,405,1580697051536,1.2754999,0.3834,-0.1533,1.7230016,0.48588887,9.6678915,-1
405,406,1580697051545,1.1596,0.4174,-0.1048,1.5949502,0.46652457,9.718687,-1
406,407,1580697051555,1.0386,0.4066,-0.0664,1.5059432,0.45956220000000003,9.741202000000001,-1
407,408,1580697051565,0.99009997,0.3789,-0.1655,1.3992098999999998,0.46956040000000004,9.487072,-1
408,409,1580697051575,0.9245,0.44219998,-0.4019,1.3855915,0.524809,9.36018,-1
409,410,1580697051587,1.0092,0.452,-0.40309998,1.4212459,0.53792924,9.607155,-1
410,411,1580697051597,1.0066,0.5074,-0.1296,1.3213503,0.5586821999999999,9.964792,-1
411,412,1580697051607,0.8937,0.5171,0.3989,1.206285,0.5185266,10.703356,-1
412,413,1580697051617,0.84139997,0.5248,1.0063,1.1880221000000002,0.5376994,11.151042,-1
413,414,1580697051627,0.868,0.5646,1.3689,1.30348,0.5573701999999999,11.15381,-1
414,415,1580697051638,0.9884,0.5574,1.3787,1.4503595,0.56382495,11.4221525,-1
415,416,1580697051648,1.1199,0.588,1.6825,1.4878719,0.6539331,11.705012,-1
416,417,1580697051658,1.151,0.70019996,1.9174999,1.426992,0.747374,11.853674,-1
417,418,1580697051668,1.1244999,0.81689996,2.1032,1.4578295000000001,0.82013863,12.317421000000001,-1
418,419,1580697051678,1.1942999,0.8717,2.6220999,1.3882636000000002,0.70449865,13.175119,-1
419,420,1580697051688,1.1409999,0.77489996,3.3569,1.258038,0.5222233000000001,14.355757999999998,-1
420,421,1580697051699,1.0472,0.6091,4.5429,1.0195756,0.35981979999999997,15.630679999999998,-1
421,422,1580697051709,0.8357,0.4626,5.8174996,0.769688,0.17990032,16.175235999999998,-1
422,423,1580697051719,0.598,0.26209998,6.3664,0.5798469,0.013876793,15.986362,-1
423,424,1580697051729,0.1771,-0.0381,5.4835997,0.36896563,-0.029994559,15.302339000000002,d
424,425,1580697051740,-0.0084,-0.0999,4.7488,0.19374838,0.014116213,14.562242999999999,-1
425,426,1580697051750,-0.0084,-0.0999,4.7488,0.124871984,0.06048711,13.894692000000001,-1
426,427,1580697051760,-0.0733,-0.1344,4.0831,0.053745043,0.20661962,13.593520000000002,-1
427,428,1580697051770,-0.1445,-0.085999995,3.6845999,0.02666183,0.26658000000000004,13.490253,-1
428,429,1580697051780,-0.13769999,-0.019399998999999998,3.5893998,-0.01094629,0.41941625,13.397809,-1
429,430,1580697051791,-0.0984,0.1494,3.5639,0.057010733,0.6945675,13.375936,-1
430,431,1580697051801,-0.0984,0.1494,3.5639,0.03395936,0.86586785,13.287925,-1
431,432,1580697051811,-0.3031,0.295,3.0948,-0.19185217,1.0021267,12.890141999999999,-1
432,433,1580697051821,-0.2611,0.18169999,2.73,-0.11534306400000001,1.005852,12.412403,-1
433,434,1580697051831,0.0634,0.1907,2.3276,0.29030177,1.1616858,12.074562,-1
434,435,1580697051841,0.4892,0.31689999,2.3678,0.6360053000000001,1.3782461000000001,12.141159,-1
435,436,1580697051852,0.3477,0.3184,2.2322,0.3477913,1.4799328,11.902161999999999,-1
436,437,1580697051862,-0.1604,0.39949998,1.7837,-0.106733516,1.6424223000000002,11.528292,-1
437,438,1580697051872,-0.5255,0.5295,1.4247999,-0.5676269,1.9188186,11.09114,-1
438,439,1580697051882,-0.7181,0.5104,1.1067,-0.77696633,1.9189622,10.750646000000001,-1
439,440,1580697051892,-0.9795,0.0567,0.84919995,-1.1165886,1.5251256000000002,10.508103,-1
440,441,1580697051903,-1.3801,-0.37039998,0.63269997,-1.4290031,1.3052422,10.310448,-1
441,442,1580697051913,-1.3593,-0.4759,0.4278,-1.3659878,1.345685,10.060388,-1
442,443,1580697051923,-1.15,-0.43359998,0.30249998,-1.1829653999999998,1.5092857,9.865969,-1
443,444,1580697051933,-1.1176,-0.3705,-0.0569,-1.1414403999999998,1.6846942999999999,9.494533,-1
444,445,1580697051943,-0.9754,-0.4028,-0.3567,-0.9427983,1.7399143,9.077741,-1
445,446,1580697051953,-0.83129996,-0.5007,-0.67539996,-0.7798298,1.7190273,8.765182000000001,-1
446,447,1580697051964,-0.69159997,-0.7112,-1.0038999,-0.68959713,1.5224249,8.325482000000001,-1
447,448,1580697051974,-0.5423,-0.99369997,-1.4898,-0.5092563,1.4442111,7.8095317,-1
448,449,1580697051984,-0.3482,-1.0643,-1.986,-0.36310464,1.4909748,7.2933707,-1
449,450,1580697051994,-0.23009999,-1.1193,-2.4338,-0.21175277,1.4819822,6.9341826,-1
450,451,1580697052005,0.0903,-1.1793,-2.5486,0.18104953,1.620798,6.860805,-1
451,452,1580697052017,0.6978,-0.8839,-2.7126,1.0776206,2.0576632,6.497375,-1
452,453,1580697052027,1.456,-0.7116,-2.9947999,1.5735747,2.1645402999999996,6.4437256,-1
453,454,1580697052037,1.6780000000000002,-0.7369,-2.8767,1.2590245,2.1184279999999998,6.625934,-1
454,455,1580697052047,1.3189,-0.8815,-2.7407,0.5954571,1.7981316999999999,6.4281635,-1
455,456,1580697052057,0.65569997,-1.3155,-2.9875998,-0.34072363,1.4388100000000001,6.0755935,-1
456,457,1580697052068,-0.22369999,-1.6802,-3.3121998,-1.2689365,1.1119246,5.792569599999999,-1
457,458,1580697052078,-0.9833,-2.1025999,-3.5507,-1.8462551999999999,0.8275223,5.6396284,-1
458,459,1580697052088,-1.4929,-2.3499,-3.6727,-2.025447,0.96181786,5.368279,-1
459,460,1580697052098,-1.5067999,-2.2191,-3.9534,-1.4177122,1.2870749,5.299211,-1
460,461,1580697052108,-0.79109997,-1.9534999,-3.8711,-0.3285611,1.5700216999999999,5.648391200000001,-1
461,462,1580697052118,0.0875,-1.8002,-3.5651998999999996,-0.16587986,1.6717752000000001,5.505122,-1
462,463,1580697052129,0.2224,-1.7423999,-3.7531998,-0.32399294,1.742749,5.4283733,-1
463,464,1580697052138,0.0341,-1.6823,-3.6732998,-0.7172261999999999,1.9135609,6.1406293,-1
464,465,1580697052148,-0.3541,-1.4692,-2.8465,-1.1819792,2.0838080000000003,7.070432,-1
465,466,1580697052158,-0.72789997,-1.3576,-1.9952999,-1.5478992,2.0089843000000003,7.5490613,-1
466,467,1580697052168,-1.0294,-1.42,-1.5367,-1.7017793999999997,1.9622302,8.047112,-1
467,468,1580697052178,-1.0375,-1.4503,-1.0659999999999998,-1.3660836,2.0066283,8.081866999999999,-1
468,469,1580697052188,-0.5819,-1.3809999,-1.1687,-0.8201673,2.1825256,7.6264615000000004,-1
469,470,1580697052198,-0.046,-1.2245,-1.6384,-0.27518955,2.4336581,7.286628200000001,-1
470,471,1580697052208,0.4351,-1.0086,-1.8896998999999999,-0.038460456000000004,2.8289793,7.2015386,-1
471,472,1580697052218,0.6035,-0.6225,-1.946,-0.020379445,3.142974,7.358933,-1
472,473,1580697052228,0.589,-0.36159998,-1.7018,-0.21542068,3.2094655,7.7822666,-1
473,474,1580697052238,0.37799999999999995,-0.3597,-1.2663,-0.49562848,3.0650666,8.165567999999999,-1
474,475,1580697052249,0.114199996,-0.5331,-0.91239995,-0.75821495,2.8013885,8.400296,-1
475,476,1580697052259,-0.124299996,-0.8014,-0.7062,-1.0470994,2.633009,8.335747999999999,-1
476,477,1580697052269,-0.37489998,-0.8958,-0.82269996,-1.3179313999999998,2.834639,8.219744,-1
477,478,1580697052279,-0.6125,-0.66139996,-0.9084,-1.5883996,3.2089102,8.238582000000001,-1
478,479,1580697052289,-0.8125,-0.33299999999999996,-0.88549995,-1.389384,3.5959377,8.151385000000001,-1
479,480,1580697052300,-0.612,0.040799998,-0.96029997,-0.7397796,3.8609949999999995,8.007589,-1
480,481,1580697052310,1.0256,0.4992,-1.2670000000000001,0.28393316,4.0702963,7.848375,-1
481,482,1580697052320,1.0256,0.4992,-1.2670000000000001,0.6702807,4.0812135000000005,8.044413,-1
482,483,1580697052330,1.4467,0.4849,-0.99149996,0.5781326999999999,3.8795836,8.475139,-1
483,484,1580697052341,0.5834,0.12709999,-0.47689998,-0.4112664000000001,3.6835654000000004,8.637906,-1
484,485,1580697052351,0.5834,0.12709999,-0.47689998,-0.8150725000000001,3.6486294000000004,8.694102,-1
485,486,1580697052361,-0.3188,0.0314,-0.015199998999999999,-1.1611973999999998,3.550582,9.214535,-1
486,487,1580697052371,-0.46859998,-0.0115,0.34289998,-1.2913748999999999,3.5136826,9.473253,-1
487,488,1580697052382,-0.46859998,-0.0115,0.34289998,-1.2595703999999999,3.5135867999999997,9.328873,-1
488,489,1580697052391,-0.18079999,0.074499995,-0.14909999,-0.9573646,3.6075449999999996,8.880630499999999,-1
489,490,1580697052401,0.0689,0.15609999,-0.63729995,-0.6665649,3.6829812999999993,8.413655,-1
490,491,1580697052411,0.47129998,0.2473,-0.8709,-0.26011565,3.7998182999999996,8.251578,-1
491,492,1580697052422,0.7553,0.3542,-0.6556,-0.020427328,3.8936900000000003,8.580005,-1
492,493,1580697052432,0.73929995,0.39069998,-0.1196,-0.09022310000000001,3.9078543,9.088907,-1
493,494,1580697052442,0.6224,0.3436,0.1015,-0.21406079999999997,3.8292193,9.237453,-1
494,495,1580697052452,0.4242,0.19,0.1364,-0.44469905,3.6354134,9.306272,-1
495,496,1580697052463,0.1139,0.0371,0.3676,-0.7812089,3.4859579,9.555067,-1
496,497,1580697052473,-0.2251,-0.011299999,0.3453,-1.1381364999999999,3.4323466000000002,9.426834,-1
497,498,1580697052483,-0.48139998,-0.097899996,-0.046699997,-1.3555778,3.3720608,9.016113,-1
498,499,1580697052493,-0.5345,-0.114599995,-0.3877,-1.3502915,3.3700974,8.699542999999998,-1
499,500,1580697052503,-0.42339998,-0.0779,-0.6002,-1.2016209999999998,3.4212279999999997,8.500958,-1
500,501,1580697052514,-0.38639998,-0.041699997999999995,-0.7345,-1.1671924999999999,3.4227412000000004,8.303809,-1
501,502,1580697052524,-0.4145,-0.17819999,-0.968,-1.1985662000000001,3.2695794,8.097976,-1
502,503,1580697052534,-0.4143,-0.2085,-1.0861,-1.1314806,3.343378,8.068028,-1
503,504,1580697052544,-0.2223,-0.1129,-0.9618,-0.92555046,3.4319252999999996,8.298504,-1
504,505,1580697052555,-0.1837,-0.010799999,-0.60429996,-1.0906068000000002,3.5453434,8.756658999999999,-1
505,506,1580697052565,-0.4261,0.0846,-0.3066,-1.3035853000000002,3.521124,8.878753,-1
506,507,1580697052575,-0.6271,0.0117999995,-0.3022,-1.5085961,3.3718402000000003,8.821369,-1
507,508,1580697052585,-0.94579995,-0.18329999,-0.39409998,-1.9765668,3.133732,8.677802999999999,-1
508,509,1580697052595,-1.3765999,-0.4252,-0.6012,-2.4107122000000003,2.8543866,8.208203999999999,-1
509,510,1580697052605,-1.8059,-0.6872,-1.2659999,-2.8267860000000002,2.6677442000000005,7.4152064,-1
510,511,1580697052616,-2.2366,-0.8121,-2.0456998,-3.1942383999999997,2.5621502,6.731164,-1
511,512,1580697052626,-2.5507,-1.0293,-2.6186,-3.4290905,2.2495344,6.233773,d
512,513,1580697052636,-2.8557,-1.4377999,-3.1148999,-3.7634839999999996,1.8019718999999996,5.7676415,-1
513,514,1580697052646,-3.2463,-1.8927,-3.4482,-4.195982,1.170803,5.8601339999999995,-1
514,515,1580697052656,-3.5941,-2.4205,-3.2273998,-4.52756,0.78467566,6.088838,-1
515,516,1580697052667,-4.1177998,-2.7608,-3.0198,-5.5170069999999996,0.951858,6.0254582999999995,-1
516,517,1580697052677,-5.0074997,-2.4027,-3.2047,-6.117655,1.2943341999999998,5.7979236,-1
517,518,1580697052687,-5.5066,-2.0109,-3.5542998,-6.102303,1.4322784,4.834631,-1
518,519,1580697052697,-5.366699700000001,-2.0744,-4.5864997,-5.9946117,0.88629514,3.8051907999999997,-1
519,520,1580697052708,-5.3557997,-2.6699,-5.4466,-5.8075957,0.38131970000000004,3.9933464999999995,-1
520,521,1580697052718,-5.1768,-3.1983,-4.9786,-5.3943086,-0.16468278,5.037755000000001,-1
521,522,1580697052728,-5.0734997,-3.7533,-4.0345,-6.254632,-0.79734576,5.3705099999999995,-1
522,523,1580697052739,-6.3852,-4.5361,-3.7821,-7.718695599999999,-1.389202,5.1982813,-1
523,524,1580697052749,-7.9625998,-5.0109,-3.9857998,-8.754782,-1.2368158999999999,4.9360876,-1
524,525,1580697052760,-8.83,-4.8366,-4.1942997,-8.409098,-1.4724053,5.2397585,-1
525,526,1580697052770,-8.524,-5.0243998,-3.8988,-7.589303,-1.9297648999999997,4.953833,-1
526,527,1580697052780,-7.1594,-5.7960997,-4.686899700000001,-6.994142999999999,-2.3799803,4.5156465,-1
527,528,1580697052790,-7.1594,-5.7960997,-4.686899700000001,-6.199565,-2.9245078999999996,5.0655660000000005,-1
528,529,1580697052800,-6.4277,-6.256,-4.165499700000001,-4.8085914,-2.556969,6.367331500000001,-1
529,530,1580697052811,-5.1384,-5.792000000000001,-2.891,-2.6643252,-1.7488781000000002,7.9604526,-1
530,531,1580697052821,-0.8749,-4.0701,0.087299995,-0.33580115,-1.0712041,9.417937,-1
531,532,1580697052831,0.94579995,-2.9031,0.7712,1.5694663999999998,-0.05218402,10.140516,-1
532,533,1580697052841,2.6664,-2.2902,0.778,3.60154,0.41151538,10.091331,-1
533,534,1580697052851,3.491,-2.4859,0.1405,4.2461457000000005,-0.00911712,9.512661,-1
534,535,1580697052862,3.5493998999999996,-2.7831,0.2715,4.296098000000001,-0.41782650000000005,9.957791,-1
535,536,1580697052872,3.8855998999999994,-2.7340999,1.3959,4.8290854,-0.48133987,11.160283999999999,-1
536,537,1580697052882,4.755,-2.6007,2.5908,5.793585,-0.50184387,12.359664,-1
537,538,1580697052892,5.8532996,-2.4013999,3.4132998,6.9721836999999995,-0.35713828,13.013377,-1
538,539,1580697052903,7.4584,-1.5030000000000001,3.0588999,8.332367999999999,0.2975035,12.675977,-1
539,540,1580697052913,9.597999999999999,-0.4556,2.5479,11.299425999999999,1.4783046999999998,12.167793,-1
540,541,1580697052923,11.717199,0.3782,2.5193,13.389218,2.0724018,12.269219999999999,-1
541,542,1580697052933,13.778398999999999,1.022,2.8479997999999997,15.463364000000002,2.4780178,12.803138,-1
542,543,1580697052943,15.8075,1.5232999,3.6225,17.205873,2.737923,13.724032999999999,-1
543,544,1580697052953,16.733,1.7339,4.5281,17.546001,2.7042317000000002,14.403432,-1
544,545,1580697052963,16.1322,1.5199,5.1134,16.613873,2.1676815,14.956042000000002,-1
545,546,1580697052973,15.3748,1.0911,5.192,16.144733,1.7550743999999998,14.920835999999998,-1
546,547,1580697052983,15.247299,0.9686,5.0671,16.128798,1.6275113,14.764935999999999,-1
547,548,1580697052993,15.4038,1.2155,4.8157997,16.333923000000002,1.8508903,14.425401,-1
548,549,1580697053003,15.7618,1.4409,4.5253,16.7633,1.9728605,14.222610999999999,-1
549,550,1580697053014,16.3156,1.7408999,4.1765,17.315096,2.3366642000000004,13.615892,-1
550,551,1580697053024,16.9519,2.1394,3.0637,17.918491,2.5123412999999997,12.259317999999999,-1
551,552,1580697053034,17.2862,2.1455,1.6280999,17.758081,2.4431775,10.876311999999999,-1
552,553,1580697053044,16.3587,1.9045999,0.21249999,16.060469,1.7822725,9.149691,-1
553,554,1580697053055,14.786698999999999,1.1295998999999999,-1.1144999,14.718115,1.0020308,8.324055,-1
554,555,1580697053065,13.127998999999999,0.0045,-1.7349,12.723486999999999,-0.38421193,8.124723,-1
555,556,1580697053075,11.5511,-1.1132,-1.4817,11.220061999999999,-1.517263,8.688663499999999,-1
556,557,1580697053085,10.1488,-2.1866999,-0.87439996,10.015875,-2.4987326000000003,9.172886,-1
557,558,1580697053095,10.1488,-2.1866999,-0.87439996,9.000905,-3.1514397,9.192383999999999,-1
558,559,1580697053105,8.051499,-3.5570998,-0.6774,8.147938,-3.7645852999999994,8.9180565,-1
559,560,1580697053115,7.2619996,-4.087,-1.0992,7.554558800000001,-4.05505,8.456464,-1
560,561,1580697053126,6.7662,-4.2861,-1.5027,7.1247993,-4.292516,8.1144285,-1
561,562,1580697053136,6.4255,-4.4193,-1.7306999,6.806169500000001,-4.5522394,8.012818,-1
562,563,1580697053146,6.1607,-4.6754,-1.7231,6.2445474,-5.0600114000000005,8.355582,-1
563,564,1580697053156,5.3687,-5.2053,-1.1847,5.111562999999999,-5.77152,8.963039,-1
564,565,1580697053167,4.0463,-5.9301996,-0.5464,3.4823282,-6.6564837,9.708909,-1
565,566,1580697053177,2.2963998,-6.6211996,0.2408,1.6248393,-7.231571000000001,10.488135,-1
566,567,1580697053187,0.3459,-7.0562997,0.89239997,-0.1564946,-7.6833477,10.9795885,-1
567,568,1580697053197,-1.2439,-7.332000000000001,1.3391,-1.2855139,-7.820247999999999,11.309213,-1
568,569,1580697053207,-2.1158,-7.3057,1.6294999,-1.8900307,-7.603286,11.763077000000001,-1
569,570,1580697053217,-2.6571,-6.956,2.0671,-2.692184,-7.1036057,11.970281,-1
570,571,1580697053228,-3.5456998,-6.393399700000001,2.1908998,-3.6125534,-6.779526700000001,11.928918,-1
571,572,1580697053239,-4.4688,-6.0249996,2.168,-4.511538,-6.214725,12.1079855,-1
572,573,1580697053248,-5.481,-5.343499700000001,2.4308999,-5.2071877,-5.6334032999999994,12.425963000000001,-1
573,574,1580697053259,-6.1389,-4.8399997,2.7154999,-5.686726999999999,-5.8511224,12.684883000000001,-1
574,575,1580697053269,-6.8564997000000005,-5.1779,3.0221,-7.331113,-6.4616823,13.666151000000001,-1
575,576,1580697053280,-8.4205,-5.6499,3.9483998,-8.944239999999999,-6.674095599999999,14.866403,-1
576,577,1580697053289,-10.132199,-5.8205,5.16,-9.957179,-6.490805,15.645045000000001,-1
577,578,1580697053299,-11.4459,-5.539,6.1257997,-11.000227,-5.9577503,16.345617,-1
578,579,1580697053309,-12.3531,-5.0478997,6.6682,-11.473216,-5.8338943,16.209665,-1
579,580,1580697053319,-12.9994,-4.8807,6.4528,-12.161338,-5.737168,15.731705999999999,-1
580,581,1580697053329,-13.613898999999998,-4.7927,6.0683,-12.524807000000001,-5.572858999999999,15.528371,-1
581,582,1580697053340,-14.0147,-4.6222997,5.8784,-12.384095,-4.9713970000000005,15.2677,-1
582,583,1580697053350,-12.7525,-3.2191,5.5216,-11.225014,-4.1766276,15.173357999999999,-1
583,584,1580697053360,-11.639199000000001,-2.4280999,6.0112,-10.12911,-3.4016914,15.663576,-1
584,585,1580697053370,-11.010699,-1.8525,6.5966,-9.530599,-2.8430473999999997,16.25076,-1
585,586,1580697053380,-10.9178,-1.466,7.0428996,-9.474594,-2.4180287999999996,16.721458,-1
586,587,1580697053391,-10.8222,-1.3399,6.6247997000000005,-9.409279,-2.3161027,16.284843,-1
587,588,1580697053401,-10.7142,-1.4304,5.0381,-9.290374,-2.3669363999999997,14.340034,-1
588,589,1580697053411,-10.344999000000001,-1.6873,3.3328,-8.820124,-2.5770707,12.755741,-1
589,590,1580697053421,-9.467,-1.8486999,2.4714,-7.8896894,-2.6129456,12.14884,-1
590,591,1580697053431,-8.293099,-1.7336999,2.886,-6.693450500000001,-2.3893845000000002,12.760492,-1
591,592,1580697053441,-7.0955,-1.4776,3.7819,-5.5428543,-2.1184568,13.6339445,-1
592,593,1580697053452,-6.0390997,-1.3450999,4.4423,-4.567677,-1.9182727,14.251543,-1
593,594,1580697053462,-5.2043,-1.1003,4.6998997000000005,-3.7687035000000004,-1.6404973999999999,14.402071,-1
594,595,1580697053472,-4.3255,-0.98459995,4.2801,-3.0856855,-1.4960313,14.005917000000002,-1
595,596,1580697053482,-3.1655998,-1.0072,3.6534998,-1.7359208,-1.45646,13.301696,-1
596,597,1580697053492,-1.9736999,-1.0744,3.3507998,-0.821556,-1.4460883,13.099195,-1
597,598,1580697053503,-0.9715,-1.2334,3.5001998,0.33231518,-1.5449687,13.356351,-1
598,599,1580697053513,-0.2519,-1.406,4.0926,1.0027492,-1.6260461000000002,14.014880999999999,-1
599,600,1580697053523,0.2306,-1.4850999,4.5193,1.3838965,-1.5771469,14.35685,-1
600,601,1580697053533,0.5843,-1.5794,4.7303,1.740393,-1.6667186999999999,14.518823000000001,-1
601,602,1580697053543,0.93039995,-1.8453,4.6763997,1.9631688999999999,-1.7992903999999998,14.342714,-1
602,603,1580697053553,1.1069,-1.9728999,4.4174,2.062624,-1.7973464,14.154434,-1
603,604,1580697053563,1.3113999,-2.1599,4.3761997,2.2117538,-1.8692874,14.136745999999999,-1
604,605,1580697053574,1.5692999,-2.438,4.0337,2.4485403999999997,-2.0008726,13.506314000000001,-1
605,606,1580697053584,1.8345,-2.5047998,3.2138,2.7164516,-1.7952012,12.625583,-1
606,607,1580697053594,2.3234,-2.3262,2.3873,3.2473322999999996,-1.3786386999999998,11.838561,-1
607,608,1580697053604,2.9083997999999998,-1.9067999,1.6328,3.7982574000000002,-0.8062522,11.114832,-1
608,609,1580697053615,3.4731998,-1.5955,1.1359999,4.169799299999999,-0.37980658,10.630151,-1
609,610,1580697053625,3.517,-1.5273,0.7204,3.9492550000000004,-0.23091596,10.224333,-1
610,611,1580697053635,3.3864,-1.574,0.4346,3.9293253,-0.11771811,10.072742,-1
611,612,1580697053646,3.4276998,-1.6301999,0.30859998,3.9036980000000003,-0.101743996,9.937823,-1
612,613,1580697053656,3.4276998,-1.6301999,0.30859998,3.860928,-0.09281841,9.871705,-1
613,614,1580697053666,3.2621999,-1.7759,-0.5374,3.858936,0.22342689999999998,8.410092,-1
614,615,1580697053676,3.4610000000000003,-1.7685,-1.4038,3.9854934,0.5832275,7.3934484,-1
615,616,1580697053686,3.6011998999999997,-1.5877999,-2.3344998,4.0146837,0.81519693,6.7489004,-1
616,617,1580697053696,3.5893,-1.4118998999999999,-2.9982998,3.8640307999999997,1.2608536,6.2120147,-1
617,618,1580697053706,3.3465998,-1.1987,-3.4352,3.4538083,1.5495944,5.700996400000001,-1
618,619,1580697053716,2.9693,-1.097,-3.9394998999999995,3.1133528,1.7499698000000001,5.1775856,-1
619,620,1580697053726,2.7036,-1.1310999,-4.4604,3.0075578999999997,1.8221886000000003,4.334568,-1
620,621,1580697053736,2.7501,-1.2168,-5.5361,3.2132869,1.9111186999999998,2.8774187999999996,-1
621,622,1580697053747,2.9456,-1.3014,-6.9126997,3.3034809999999997,1.9605543999999997,1.8045194,-1
622,623,1580697053757,2.9528,-1.3919,-7.5456996,3.1124240000000003,2.0818062,1.7601213,-1
623,624,1580697053767,2.7215,-1.3984,-7.3424997,2.7514932,2.1440458,2.1159859,-1
624,625,1580697053777,2.2066998,-1.449,-6.7453,2.0564756,2.225286,2.9148831000000004,-1
625,626,1580697053788,1.6903,-1.4635999,-6.1046996,1.6275879,2.1837516,3.018169,-1
626,627,1580697053798,1.2965,-1.6189,-6.1426,1.3643981,2.1385682,2.6954784,-1
627,628,1580697053809,0.9364,-1.7451999,-6.7386,1.0201023,2.1035072999999995,1.7388608,-1
628,629,1580697053819,0.8236,-1.8219,-7.4223,1.0651325,2.0707068,0.85881925,-1
629,630,1580697053829,0.9184,-1.9449999,-8.2926,1.1288853,2.06882,-0.047280695,-1
630,631,1580697053839,1.0325,-1.9843998999999999,-9.1545,1.3353803,2.13603,-1.0620391000000002,-1
631,632,1580697053849,1.2547,-1.9849,-9.9514,1.3721743999999998,2.173054,-1.7164607,-1
632,633,1580697053859,1.3284,-2.0012,-10.5873995,1.1306187,2.2760142999999995,-2.0012271,-1
633,634,1580697053869,0.9982,-1.8923999,-10.8682995,0.37236540000000007,2.3614778999999997,-1.8088673,-1
634,635,1580697053880,0.0959,-1.8054,-10.2301,0.06676950000000001,2.3908978,-1.3725767,-1
635,636,1580697053892,0.26299998,-1.9322,-9.8474,0.25602636,2.1873044999999998,-0.9397625,-1
636,637,1580697053902,0.4046,-2.1769,-9.7633,0.3857825,1.8940052,-0.9104287,-1
637,638,1580697053912,0.5539,-2.3939,-9.8593,0.56391114,1.6984084,-0.97894114,-1
638,639,1580697053922,0.5539,-2.3939,-9.8593,0.68640804,1.7599490000000002,-1.2089665,-1
639,640,1580697053933,0.8476,-2.2752,-10.424000000000001,0.8172751,1.6857861,-1.533151,-1
640,641,1580697053943,0.9165,-2.4362,-10.4428,0.88262725,1.4917983,-1.4421426000000002,-1
641,642,1580697053953,0.9106,-2.58,-10.3761,0.8911505999999999,1.1792305,-1.317376,-1
642,643,1580697053963,0.7065,-3.3367998999999995,-9.8104,0.59895265,0.26824638,-0.5443553000000001,-1
643,644,1580697053973,-0.3159,-4.0992,-8.7745,-0.23832841,-0.3972651,0.31299877,-1
644,645,1580697053983,-1.3112999,-4.7437997,-8.3786,-1.3340396,-1.40622,0.8570283999999999,-1
645,646,1580697053994,-1.4883,-5.3237,-8.011000000000001,-1.1482687,-1.9993403000000003,1.489069,-1
646,647,1580697054004,-1.2738999,-5.3061,-7.127000000000001,-1.0507864,-1.9276102,2.3280163,-1
647,648,1580697054014,-1.2112,-4.9617,-5.9872,-0.99092174,-1.8049694,3.543476,-1
648,649,1580697054024,-0.8998,-4.6875,-5.0615997,-0.61282945,-1.7144783,4.398503,-1
649,650,1580697054034,-0.1584,-4.3227,-5.1358,0.41227195,-1.5496421999999999,4.0395164,-1
650,651,1580697054044,0.5369,-4.3643,-5.6891,0.8265263,-1.9869863,3.5200799,-1
651,652,1580697054055,0.44009998,-4.5249,-6.2152996,0.761088,-2.0657268,3.1354177000000005,-1
652,653,1580697054065,0.3171,-4.6243,-6.4066,0.7165271,-2.6033017999999997,4.0539483999999995,-1
653,654,1580697054075,0.047399998,-4.8848,-4.5836997,0.41289443,-2.7775707,6.410876999999999,-1
654,655,1580697054085,-0.3141,-4.6352,-2.2786999,0.6035878,-2.8480752000000003,8.600423,-1
655,656,1580697054095,0.2593,-4.5217,-0.2818,1.4846253,-3.1010466,10.3635025,-1
656,657,1580697054106,1.0568,-4.3543997,1.2468,2.0045023,-3.2217526000000003,11.579135,-1
657,658,1580697054116,1.8052,-4.3268,2.9118,2.7927310000000003,-3.8131974000000004,14.030999,-1
658,659,1580697054126,2.2569999999999997,-4.4372997000000005,5.1496997,2.783288,-4.0976377,16.0398,-1
659,660,1580697054137,2.0126998,-4.383,6.8142,2.1885204,-4.6377892,17.107174,-1
660,661,1580697054147,1.2311,-4.8385997000000005,7.2359995999999995,0.97421986,-5.5045475999999995,15.827558999999999,-1
661,662,1580697054157,0.1094,-5.1586,5.5285,0.010141838,-5.6576996,13.861231,-1
662,663,1580697054167,-0.9982,-5.0618,3.5814,-0.7604941999999999,-5.663398,13.918470999999998,-1
663,664,1580697054177,-1.4289,-4.6900997,4.5443997000000005,-0.24889164,-4.8461323,16.168169,-1
664,665,1580697054188,-0.691,-3.4534,7.0276,1.1631798,-3.8721137000000003,18.829705999999998,-1
665,666,1580697054198,1.3053,-1.9697,10.6593,3.4974594,-2.8501152999999997,22.727064000000002,-1
666,667,1580697054208,3.0119,-0.986,13.4773,4.220058,-2.5762856,23.754827,-1
667,668,1580697054218,3.6676998,-0.3832,14.2393,4.4259596,-2.4166974999999997,23.116064,-1
668,669,1580697054228,3.7373998,-0.1416,13.340698999999999,3.9462669999999997,-2.861186,21.590135999999998,-1
669,670,1580697054238,3.1164,-0.4692,11.709499000000001,2.5693998,-3.5351922999999994,19.020487,-1
670,671,1580697054249,1.676,-1.0203999,8.9418,0.8850693000000001,-3.9448779999999997,15.863062,-1
671,672,1580697054258,0.0659,-1.1374999,6.0294,0.10895533,-3.4347315000000003,14.527509,-1
672,673,1580697054268,-0.3784,-0.1776,4.763499700000001,1.1566771,-2.1236186000000004,14.498558,-1
673,674,1580697054278,0.9453,1.0373,5.4641,2.5543737,-1.3203065,16.004137,-1
674,675,1580697054288,2.1374,1.8471999,6.9079,2.9739623,-1.3864246999999998,16.599564,-1
675,676,1580697054299,2.4256,1.7436,7.3753,3.2149053,-1.7309791,16.771057,-1
676,677,1580697054309,2.702,1.5841999,7.6291,3.4870112,-1.9205424,17.161089999999998,-1
677,678,1580697054319,2.8932,1.4819,8.07,2.9607368,-2.5021994,17.42427,-1
678,679,1580697054329,2.1897,0.9528,8.3308,1.7618451000000002,-3.2789550000000003,17.26344,-1
679,680,1580697054339,0.9589,0.2866,8.092199,0.76722676,-3.7912760000000003,16.78529,-1
680,681,1580697054350,0.0692,-0.0916,7.5664997000000005,0.4343369000000001,-3.9139931000000003,15.197377,-1
681,682,1580697054360,-0.3227,0.1617,4.5204,0.3515263,-3.6094315000000003,13.564254,-1
682,683,1580697054370,-0.2298,0.44259998,3.3055,0.54944056,-3.2741860000000003,12.174372,-1
683,684,1580697054380,0.159,0.69769996,2.7517,0.8856917999999999,-3.078905,11.786817999999998,-1
684,685,1580697054390,0.49969998,0.7651,2.812,1.2674809,-3.055643,11.900236,-1
685,686,1580697054401,0.49969998,0.7651,2.812,1.3494104,-3.1023014,12.359358,-1
686,687,1580697054411,0.58919996,0.55,3.7357,1.2763871999999998,-3.339921,12.731752,-1
687,688,1580697054421,0.2771,0.2723,3.8353,0.92565584,-3.6601980000000003,12.79222,-1
688,689,1580697054431,0.1793,0.2916,3.5556997999999997,0.8756937,-3.6221495000000004,12.536002,-1
689,690,1580697054441,0.2349,0.287,2.9761,0.9446753000000001,-3.6223793,11.954632,-1
690,691,1580697054451,0.2349,0.287,2.9761,0.9635703999999999,-3.501635,11.467077,-1
691,692,1580697054461,0.3179,0.5335,1.9257,1.0528646000000002,-3.3540660000000004,10.803998,-1
692,693,1580697054472,0.3645,0.3931,1.4782,1.0445806,-3.5219378,10.40115,-1
693,694,1580697054483,0.18879999,0.20969999,1.0912,0.8784709,-3.6931230000000004,10.034616,d
694,695,1580697054492,0.1787,0.0611,1.0491999,0.84307504,-3.8087343999999996,10.090565,-1
695,696,1580697054502,0.24659999,0.0126,1.2827,0.8799745000000001,-3.8400695,10.329113000000001,-1
696,697,1580697054512,0.1792,0.0174,1.3869999999999998,0.75442255,-3.8605354,10.397539,-1
697,698,1580697054522,-0.0156,-0.007999999,1.203,0.5592759,-3.8455381,10.139224,-1
698,699,1580697054532,-0.108899996,0.0056,0.682,0.47864880000000004,-3.7965812999999993,9.58941,-1
699,700,1580697054543,-0.078,0.1118,0.1687,0.53116804,-3.6355282999999994,9.107677,-1
700,701,1580697054553,0.0398,0.1889,-0.0206,0.7163930000000001,-3.5483599999999997,9.044528,-1
701,702,1580697054563,0.21669999,0.1715,0.0367,0.86666274,-3.5839953,9.197239,-1
702,703,1580697054573,0.2586,0.1003,0.3412,0.78488636,-3.6602652,9.581499,-1
703,704,1580697054583,0.0296,-0.044999998,0.68659997,0.5452555,-3.768914,9.775948,-1
704,705,1580697054593,-0.156,-0.14119999,0.72779995,0.38815758,-3.8548946,9.820086,-1
705,706,1580697054604,-0.18439999,-0.22989999,0.6994,0.38018966,-3.8449538,9.741106,-1
706,707,1580697054614,-0.19559999,-0.1372,0.5811,0.38400123,-3.7006601999999997,9.616292,-1
707,708,1580697054624,-0.113199994,-0.0299,0.3434,0.48624322,-3.5663837999999997,9.371011,-1
708,709,1580697054634,-0.033999998,0.0451,0.105,0.5664585999999999,-3.4912536,9.224477,-1
709,710,1580697054644,0.1349,0.153,0.1523,0.8520293999999999,-3.308624,9.515956,-1
710,711,1580697054655,0.4262,0.22839999,0.5844,1.0891128,-3.2629330000000003,10.084569,-1
711,712,1580697054665,0.5359,0.2703,1.1265,1.0319775,-3.2147617000000004,10.464271,-1
712,713,1580697054675,0.45139998,0.21429999,1.4626,0.9924445,-3.2815886,10.692495,-1
713,714,1580697054685,0.48229998,0.1928,1.6008999,0.9543288000000001,-3.2384644000000002,10.908777,-1
714,715,1580697054695,0.3496,0.1952,1.9533999,0.6381218000000001,-3.315979,11.335674000000001,-1
715,716,1580697054705,-0.065,0.0345,2.2158,0.16501796,-3.3759775000000003,11.51995,-1
716,717,1580697054716,-0.4728,0.0253,2.4078999,0.0010630256,-3.219981,11.805348,-1
717,718,1580697054726,-0.47700000000000004,0.1521,2.6780999,0.13290693,-3.1068022,12.050152,-1
718,719,1580697054736,-0.3295,0.2311,2.9192998,0.20315279999999997,-2.9792297000000003,12.321222,-1
719,720,1580697054747,-0.30429998,0.3044,3.4364,0.12728535,-3.0116377,13.54737,-1
720,721,1580697054757,-0.43449998,0.1959,4.5435,-0.17242083,-3.0663881,14.875166,-1
721,722,1580697054767,-0.7053,0.115899995,5.8564997000000005,-0.42942402,-3.0859249,16.068051999999998,-1
722,723,1580697054777,-0.9501,0.0565,6.9902997000000004,-0.67501163,-3.0632565,16.9457,-1
723,724,1580697054787,-1.1884999,0.030499997999999997,7.7565,-0.74272925,-3.04869,17.305147,-1
724,725,1580697054797,-1.2325,-0.0733,8.0854,-0.7688069000000001,-3.237813,17.470968,-1
725,726,1580697054807,-1.2964,-0.35259998,8.1052,-0.9482666999999999,-3.4506385,17.444317,-1
726,727,1580697054818,-1.5045998999999999,-0.65779996,8.0525,-1.2096848,-3.4983597,17.48406,-1
727,728,1580697054828,-1.8065,-0.76049995,8.0755,-1.3995354,-3.4107988,17.311735000000002,-1
728,729,1580697054838,-1.8662,-0.8276,7.7432,-1.2018604,-3.2789645,16.862938,-1
729,730,1580697054848,-1.4604,-0.7823,7.105,-0.48907796,-2.9633608,16.211754,-1
730,731,1580697054858,-0.8375,-0.65169996,6.5448,-0.00227928,-2.6557633999999997,15.499497,-1
731,732,1580697054868,-0.40109998,-0.52279997,5.7202997,0.41537485,-2.3653085,14.441757999999998,-1
732,733,1580697054879,0.0548,-0.42319998,4.602999700000001,0.7684622,-2.0927143,13.184926,-1
733,734,1580697054889,0.34329998,-0.39679998,3.5182,0.68153346,-2.0594542000000002,12.480207,-1
734,735,1580697054899,0.2683,-0.5543,2.7905998,0.43163627,-2.1326878,11.708393,-1
735,736,1580697054909,0.0251,-0.80539995,1.989,0.2088893,-1.9910182,11.205582000000001,-1
736,737,1580697054919,-0.1929,-0.8433,1.4664999,0.30501172,-1.7420115000000003,11.040544500000001,-1
737,738,1580697054930,-0.0933,-0.7545,1.2817,0.4570914000000001,-1.4432153,10.654686,-1
738,739,1580697054940,0.1328,-0.5004,0.5897,0.5370673,-1.1713105,10.376403,-1
739,740,1580697054950,-0.0493,-0.41279998,0.0519,0.35722446,-0.9549704999999999,9.853126,-1
740,741,1580697054960,-0.1055,-0.25579998,-0.1793,0.33255464,-0.6389836999999999,9.6263,-1
741,742,1580697054971,0.10789999,-0.2047,-0.0554,0.5735070999999999,-0.46859318,9.806669,-1
742,743,1580697054981,0.10789999,-0.2047,-0.0554,0.5735070999999999,-0.27874255,10.197230000000001,-1
743,744,1580697054991,0.0206,0.0042,0.98149997,0.4796352,-0.094666734,10.784279,-1
744,745,1580697055001,-0.0188,-0.1322,1.3244,0.44780192,-0.1298232,11.135212,-1
745,746,1580697055011,-0.0813,-0.20969999,1.1675,0.35720533,-0.09628522,10.971793,-1
746,747,1580697055021,-0.113,-0.4344,0.1488,0.30170774,-0.19957107,9.954027,-1
747,748,1580697055031,0.015199998999999999,-0.6716,-1.2399,0.4409545,-0.28828102,8.26895,-1
748,749,1580697055042,0.1549,-0.8872,-2.5858998,0.52366936,-0.33110850000000003,7.211048,-1
749,750,1580697055052,0.1523,-1.0037999,-3.0549998,0.51678365,-0.27117684,6.7263660000000005,-1
750,751,1580697055062,0.0071,-1.1609,-3.2457,0.29418993,-0.28263074,6.4216127,-1
751,752,1580697055072,-0.4885,-1.5252,-3.8348,-0.25466645,-0.48863742,5.778559,-1
752,753,1580697055082,-1.01,-1.9921,-4.2939,-0.75104195,-0.86994755,5.2812543,-1
753,754,1580697055092,-1.2150999,-2.445,-4.6053,-0.8861515,-1.1562365,4.9378495000000004,-1
754,755,1580697055102,-1.3457,-2.9852,-5.0656,-1.1165503,-1.5371062,4.5106087,-1
755,756,1580697055113,-1.5703,-3.3007,-5.1865,-1.3477823999999998,-1.6731638999999998,4.5033975,-1
756,757,1580697055123,-1.7957,-3.4492,-5.0667995999999995,-1.6847519,-1.7052174999999998,4.5996447,-1
757,758,1580697055133,-2.0345,-3.4791,-5.0379,-1.9468116999999998,-1.6046227,4.6545005,-1
758,759,1580697055143,-1.7149999,-3.2324,-4.8725,-1.4635946000000002,-1.1943139999999999,4.8141264999999995,-1
759,760,1580697055154,-0.8497,-2.7366998,-4.7752,-0.5431007,-0.6626576,4.801811,-1
760,761,1580697055164,0.2435,-2.3804,-4.9318,0.4135457,-0.30306762,4.607775,-1
761,762,1580697055174,0.9831,-2.0677,-5.0773,0.8722173000000001,0.057805605,4.566787000000001,-1
762,763,1580697055184,1.0622,-2.0042,-4.9181,0.7169101999999999,0.013350068999999999,4.806963400000001,-1
763,764,1580697055194,0.7614,-2.1801999,-4.513,0.44431594,-0.082140274,5.1616597,-1
764,765,1580697055205,0.7614,-2.1801999,-4.513,0.14655387,0.09273222,5.5870805,-1
765,766,1580697055215,0.2746,-1.9763998999999999,-3.5746998999999997,0.029324182999999997,0.2600678,6.1026,-1
766,767,1580697055225,0.0726,-2.0484,-3.4057,-0.27174190000000004,0.23491907,6.102533,-1
767,768,1580697055235,-0.1003,-2.0664,-3.4238,-0.16389747,0.30539479999999997,6.1186123,-1
768,769,1580697055245,0.1384,-2.0709999,-3.3934998999999997,0.047347732000000003,0.31404266,6.13609,-1
769,770,1580697055255,0.3644,-2.0333,-3.2853,0.3423038,0.6304603,6.485586,-1
770,771,1580697055265,0.6629,-1.6206,-2.7461998,0.7613274,1.1671063,7.263951,-1
771,772,1580697055275,1.0216,-1.1679,-1.8639,1.028051,1.5241201000000002,8.096827000000001,-1
772,773,1580697055286,1.1615,-0.9526,-1.2163,1.0507194,1.6668048999999998,8.324993,-1
773,774,1580697055296,1.0809,-0.91959995,-1.2239,0.930291,1.6632136000000002,8.107016999999999,-1
774,775,1580697055306,0.87119997,-0.9399,-1.6615,0.6653295,1.7354131999999998,7.540039999999999,-1
775,776,1580697055316,0.6875,-0.92999995,-2.0793,0.65275514,1.7681848999999998,7.200916,-1
776,777,1580697055326,0.7626,-0.9533,-2.2533998,0.7448170000000001,1.9168266,7.229139,-1
777,778,1580697055336,0.80189997,-0.78999996,-2.1654,0.77407414,2.1344787999999997,7.4124103,-1
778,779,1580697055346,0.8955,-0.5873,-1.8937998999999999,1.0198724000000001,2.249161,7.64573,-1
779,780,1580697055356,1.151,-0.5136,-1.7423999,1.0213377000000001,2.4339836,7.652683000000001,-1
780,781,1580697055366,1.0311999,-0.2787,-1.798,0.8980459000000001,2.6228,7.578232300000001,-1
781,782,1580697055376,0.95089996,-0.1308,-1.7951,0.8269476999999998,2.7547972,7.886672999999999,-1
782,783,1580697055386,0.941,-0.0422,-1.4293,0.8766513000000001,2.9802256000000003,8.289703,-1
783,784,1580697055396,0.9938,0.18899999999999997,-1.0623,0.91289955,3.2146373,8.448439,-1
784,785,1580697055406,1.021,0.39209998,-0.9381,0.9900406999999999,3.2867794000000004,8.377283,-1
785,786,1580697055416,1.0245,0.3611,-1.0857999,0.8276564000000001,3.2040834,8.05127,-1
786,787,1580697055426,0.6989,0.2285,-1.5461,0.51765513,3.0847661,7.553389999999999,-1
787,788,1580697055436,0.4303,0.083299994,-1.8513,0.3935014,2.9965541,7.6411424,-1
788,789,1580697055446,0.3511,0.0047,-1.5048,0.37945223,3.0028462000000005,8.213395,-1
789,790,1580697055457,0.364,0.0713,-0.9287,0.47842854,3.106582,8.7035265,-1
790,791,1580697055467,0.5047,0.20789999,-0.5031,0.6648890000000001,3.2105289,9.056394000000001,-1
791,792,1580697055477,0.6687,0.3188,-0.1866,0.7482359000000001,3.2500042999999996,9.338957,-1
792,793,1580697055487,0.73069996,0.35819998,0.0523,0.8027470999999999,3.22792,9.550997,-1
793,794,1580697055497,0.77419996,0.33089998,0.1664,0.80538076,3.2014306,9.501686,-1
794,795,1580697055507,0.75839996,0.3233,0.0971,0.8081100999999999,3.1698654,9.40815,-1
795,796,1580697055518,0.72349995,0.2679,0.0011,0.6835829000000001,3.088549,9.292174000000001,-1
796,797,1580697055528,0.5458,0.16849999,-0.0931,0.6091901999999999,3.0315862,9.23569,-1
797,798,1580697055538,0.46559998,0.1074,-0.2067,0.65717965,3.001515,9.094088000000001,-1
798,799,1580697055549,0.49769998,0.069,-0.2917,0.6017011999999999,3.0064087,9.026227,-1
799,800,1580697055559,0.3809,0.0756,-0.359,0.5382836,2.954981,9.002917,-1
800,801,1580697055569,0.3437,0.022000000000000002,-0.3409,0.65590596,2.9846406,9.267438,-1
801,802,1580697055579,0.49359998,0.08549999400000001,-0.0218,0.69691384,2.9010541,9.717069,-1
802,803,1580697055589,0.5132,0.0075,0.3346,0.55340534,2.84548,9.876072,-1
803,804,1580697055600,0.3775,-0.0128999995,0.4856,0.48614743,2.8528445,9.706294999999999,-1
804,805,1580697055610,0.3171,-0.00049999997,0.31489998,0.4692348,2.8408544,9.579967,-1
805,806,1580697055620,0.2782,0.0037,0.1469,0.34579936,2.9090602000000003,9.333355000000001,-1
806,807,1580697055630,0.1811,0.0497,-0.0579,0.43294826,3.0079696,9.171764999999999,-1
807,808,1580697055640,0.3626,0.20199999,-0.1117,0.5657403,3.067643,9.272217,-1
808,809,1580697055651,0.40489998,0.24679999,0.027199998,0.63042206,3.1161206000000004,9.419278,-1
809,810,1580697055661,0.3949,0.1769,0.0572,0.6294835,3.0526934,9.448191,-1
810,811,1580697055672,0.2547,0.061199997,0.027199998,0.44409567,2.911196,9.400757,-1
811,812,1580697055682,0.022699999,-0.021699998999999998,-0.0234,0.23780170000000003,2.8416207,9.357785,-1
812,813,1580697055692,-0.020399999,0.0064999997,0.022799998999999998,0.20655257,2.8726877999999996,9.441036,-1
813,814,1580697055702,-0.043899997999999996,0.0661,0.1568,0.16100527,2.9488137,9.584037,-1
814,815,1580697055712,-0.049399998,0.20359999,0.2909,0.19783768,3.0561027999999997,9.686289,-1
815,816,1580697055723,0.1069,0.2302,0.2888,0.34311783,3.0663497000000004,9.670679,-1
816,817,1580697055733,0.1795,0.2232,0.2979,0.4141969,3.053948,9.714177000000001,-1
817,818,1580697055743,0.305,0.2514,0.3574,0.5708064,3.086557,9.772634,-1
818,819,1580697055753,0.30949998,0.30609998,0.3296,0.5089115,3.1632863999999996,9.698528,-1
819,820,1580697055763,0.15869999,0.3698,0.2628,0.37088102,3.207981,9.659847000000001,-1
820,821,1580697055774,0.0525,0.3478,0.2539,0.27374345,3.1565156,9.623896,-1
821,822,1580697055784,-0.0444,0.2323,0.2042,0.16989255,2.9937384,9.601792999999999,-1
822,823,1580697055794,-0.2242,0.021599998999999998,0.2417,-0.008619126,2.7523553,9.676108000000001,-1
823,824,1580697055804,-0.3861,-0.2094,0.37759998,-0.24860433,2.5993847999999997,9.857953,-1
824,825,1580697055814,-0.62409997,-0.2778,0.6228,-0.443387,2.578584,10.109305,-1
825,826,1580697055825,-0.7036,-0.19489999,0.72279996,-0.42372584,2.715494,10.085556,-1
826,827,1580697055835,-0.57159996,0.0,0.5991,-0.21325633,2.9349082,9.877423,-1
827,828,1580697055845,-0.3536,0.132,0.2119,0.043382935,3.0239534,9.435309,-1
828,829,1580697055855,-0.1228,0.1858,-0.10669999599999999,0.3285132,3.055231,9.148311999999999,-1
829,830,1580697055865,0.0844,0.17639999,-0.2996,0.476925,3.0658517000000005,9.063153999999999,-1
830,831,1580697055876,0.1601,0.1633,-0.2888,0.4819145,3.0004807000000002,9.191436999999999,-1
831,832,1580697055886,0.0813,0.0184,0.0341,0.22648189999999999,2.9286737,9.789546000000001,-1
832,833,1580697055897,-0.1432,0.0635,0.4834,0.08063671,2.9897547,10.060005,d
833,834,1580697055907,-0.25849998,0.13859999,0.7461,0.09425493,3.0666467999999996,10.10855,-1
834,835,1580697055917,-0.20799999,0.1906,0.6667,0.13439132,3.075036,10.063117,-1
835,836,1580697055927,-0.1425,0.2279,0.71639997,0.33657688,3.1142912,10.037844,-1
836,837,1580697055937,0.0614,0.2491,0.6017,0.5753458,3.1803424,9.858172999999999,-1
837,838,1580697055948,0.37719998,0.3622,0.4596,1.0237032,3.385794,9.881991000000001,-1
838,839,1580697055958,0.7202,0.48369998,0.5143,1.314819,3.486111,9.846900999999999,-1
839,840,1580697055968,0.99649996,0.6161,0.4509,1.5690928,3.612544,9.75526,-1
840,841,1580697055978,1.1976,0.6929,0.4159,1.6836601000000002,3.6494145,9.902007000000001,-1
841,842,1580697055988,1.2845,0.7076,0.5846,1.8996267,3.6145167000000002,10.220962,-1
842,843,1580697055998,1.5511,0.6713,0.94689995,2.3189375,3.6171792000000003,10.9015665,-1
843,844,1580697056009,1.9835999,0.7204,1.7484,2.9531424,3.8651513999999993,11.976764,-1
844,845,1580697056019,2.6685998,1.0287,2.7937999,4.057942,4.2813305999999995,12.691031,-1
845,846,1580697056029,3.5979997999999997,1.3833,3.3204,4.666481,4.324713,12.854115,-1
846,847,1580697056040,4.321000000000001,1.4252,3.536,5.241185,4.1571097,12.909862,-1
847,848,1580697056050,4.7564,1.2507,3.549,5.6637044,3.7751197999999997,12.671389,-1
848,849,1580697056060,5.1594,0.84959996,3.3105998,6.266191,3.4186711000000005,12.867178,-1
849,850,1580697056070,6.3216996,0.391,4.0866,6.996987299999999,3.4045449999999997,13.509503,-1
850,851,1580697056081,6.8002996,0.35619998,4.4128,7.392825599999999,3.3771172,13.734482,-1
851,852,1580697056091,7.1046996,0.1761,4.2802,7.692225,3.2355914,13.592812,-1
852,853,1580697056101,7.0077996,-0.2302,3.7387998,7.533672,2.8163953,12.889396000000001,-1
853,854,1580697056111,7.0077996,-0.2302,3.7387998,7.241770699999999,2.3713610000000003,12.270677000000001,-1
854,855,1580697056121,6.4564,-1.2196,2.6763,6.995733,1.9440439999999999,11.87049,-1
855,856,1580697056131,6.2978997,-1.6559999,2.5386999,6.824289,1.6435906999999998,11.73291,-1
856,857,1580697056142,6.0319,-1.9146999,2.3464,6.532761,1.477778,11.450633999999999,-1
857,858,1580697056151,5.6763,-2.1719,1.7655,6.1406293,1.3335991000000003,10.713957,-1
858,859,1580697056161,5.3943,-2.3377,0.6484,5.8601055,1.2866918999999999,9.486833,-1
859,860,1580697056171,5.2223997,-2.4889997999999998,-0.8775,5.636822,1.2828228000000002,7.834067299999999,-1
860,861,1580697056181,5.0485997000000005,-2.5146,-2.5286999,5.406653400000001,1.3589777,6.1943455,-1
861,862,1580697056191,4.6932,-2.6121,-3.6711,4.936489599999999,1.3511723999999998,5.1917305,-1
862,863,1580697056202,4.1463,-2.6455,-3.7986998999999995,4.325776599999999,1.4319434,5.167118,-1
863,864,1580697056212,3.8307,-2.6520998,-3.5895998,3.9917184999999997,1.4570537000000001,5.351079,-1
864,865,1580697056223,3.4619999999999997,-2.8149998,-3.4724998,3.5050057999999997,1.3727586,5.3793783,-1
865,866,1580697056233,2.9796999,-2.9456,-3.8067,2.920361,1.3275370000000002,4.9175949999999995,-1
866,867,1580697056243,2.1592999,-3.0621998,-4.401799700000001,1.9276196,1.257339,4.268612999999999,-1
867,868,1580697056253,0.8817,-3.1460998,-5.3554,0.5294346,1.2818556,3.1531827,-1
868,869,1580697056263,-0.2976,-3.0361998,-6.7967,-0.6924989,1.5394622,1.4478695,-1
869,870,1580697056273,-0.9077,-2.8716,-8.1416,-1.4003111000000001,1.7150146000000002,0.050843265,-1
870,871,1580697056283,-1.3895998999999999,-2.8974,-9.2678995,-1.7913225,1.7000843,-0.9269966000000001,-1
871,872,1580697056293,-1.7042999,-2.8859,-9.755799,-2.2649052000000003,1.8588487,-1.0407977,-1
872,873,1580697056303,-2.2638,-2.7286,-9.332,-2.7854526,1.9061389,-0.57718456,-1
873,874,1580697056313,-3.1383,-2.9868,-8.6234,-3.7547019999999995,1.5806615,0.15801732,-1
874,875,1580697056323,-3.1383,-2.9868,-8.6234,-4.8532767,0.9924254000000001,0.719314,-1
875,876,1580697056333,-5.8761,-4.3224998,-7.1524997,-6.875103500000001,0.054281342999999996,1.9426647000000001,-1
876,877,1580697056343,-7.4382,-4.8608,-6.0657997,-8.156959,-0.38932592,2.8024704,-1
877,878,1580697056353,-9.061999,-5.2134,-5.4056,-10.044317,-0.769688,3.4505522000000006,-1
878,879,1580697056364,-10.3993,-5.1861997,-5.1212,-11.07052,-0.642259,3.6234326,-1
879,880,1580697056374,-10.8342,-4.936,-5.2028,-11.233316,-0.49703628,3.4794644999999997,-1
880,881,1580697056384,-10.864699,-4.7591,-5.5221,-11.267209,-0.41298065,3.1269807999999997,-1
881,882,1580697056394,-10.942599000000001,-4.6544,-5.7949,-11.280674000000001,-0.42057505,3.041747,-1
882,883,1580697056404,-10.747499000000001,-4.687,-5.6110997000000005,-10.882633,-0.5759108000000001,3.508492,-1
883,884,1580697056414,-10.261499,-4.7478,-4.892299700000001,-10.313886,-0.74631095,4.4168234,-1
884,885,1580697056424,-9.8199,-4.8417997,-4.0867,-9.994748,-0.90836966,4.9781294,-1
885,886,1580697056435,-9.964499,-4.8273,-3.9369,-10.328357,-0.9735686,5.012836,-1
886,887,1580697056445,-10.5863,-4.7704,-4.2571,-10.996128,-1.0663679,4.6737022,-1
887,888,1580697056455,-11.4122,-4.8518,-4.3926,-11.565987,-1.2623093,4.808505,-1
888,889,1580697056465,-12.0407,-5.2046,-3.5993998,-12.255794,-2.1273918,6.517055,-1
889,890,1580697056475,-12.5234995,-5.821399700000001,-2.0326,-12.474069,-2.8808662999999997,8.0714855,-1
890,891,1580697056485,-12.6257,-6.3973,-0.6586,-11.969027,-3.4911003,9.233497,-1
891,892,1580697056496,-11.8312,-6.7609997,0.13229999,-10.626108,-3.7658013999999995,9.427553,-1
892,893,1580697056506,-10.5679,-6.6949997,-0.081999995,-9.5820265,-3.6296767999999995,9.115339,-1
893,894,1580697056516,-9.532499000000001,-6.2577996,-0.3845,-8.285728,-3.2027237,8.991405499999999,-1
894,895,1580697056526,-8.5527,-5.7304997,-0.30879998,-7.3554187,-2.9866132999999997,9.745751,-1
895,896,1580697056536,-7.8317,-5.4623,0.9690000000000001,-6.6038213,-3.1505872999999998,11.545653999999999,-1
896,897,1580697056546,-7.2307997,-5.661299700000001,2.6799,-6.21055,-3.867718,12.927864999999999,-1
897,898,1580697056556,-7.0351,-6.3781,3.7714,-5.990043599999999,-4.802414,13.632689000000001,-1
898,899,1580697056567,-6.8143997,-7.4157,4.3136997,-5.478642,-6.0634885,13.886083,-1
899,900,1580697056577,-6.285,-8.024099,4.3043,-4.258959,-6.4235764,14.113636999999999,-1
900,901,1580697056588,-4.7503,-7.9019,4.7081,-2.4866085,-6.05802,14.70331,-1
901,902,1580697056598,-3.1641998,-7.2012997,5.3343997000000005,-0.5341847,-5.3966074,15.8131275,-1
902,903,1580697056608,-1.8528999,-6.5487,6.1628,0.42442492,-5.346587,16.673891,-1
903,904,1580697056619,-0.6902,-6.2753997,7.2359,1.3995832000000001,-5.2003307,17.937368,-1
904,905,1580697056629,0.25959998,-5.9031,8.4595995,2.3487597,-5.3282766,18.909107000000002,-1
905,906,1580697056639,1.2686,-5.8782997,9.3166,3.590412,-5.64049,18.994946,-1
906,907,1580697056649,2.2977,-5.9530997,9.268499,4.453876,-5.8243747,18.308872,-1
907,908,1580697056659,3.3936,-6.0761,8.3923,5.74392,-6.1230845,17.393368,-1
908,909,1580697056669,4.4316,-6.1896996,7.6667,6.523280000000001,-6.036558,16.938162,-1
909,910,1580697056680,5.4238,-5.9138,7.1772,8.208117999999999,-5.067385,17.428448,-1
910,911,1580697056690,6.9026,-4.9242,7.696799799999999,10.411511,-3.8384223,18.748276,-1
911,912,1580697056700,9.1413,-3.5658998,9.019,12.033469,-2.5667279,19.26524,-1
912,913,1580697056710,11.377399,-1.2682999,8.7831,12.490502000000001,-1.7646128,18.522367000000003,-1
913,914,1580697056721,11.331099499999999,-1.168,7.2166996,12.274939,-1.7982273999999998,16.512331,-1
914,915,1580697056731,11.331099499999999,-1.168,7.2166996,11.904278,-2.0243742,14.690007999999999,-1
915,916,1580697056741,10.7248,-1.4649999,3.7621998999999997,11.638396,-2.0316813000000002,13.5030775,-1
916,917,1580697056751,11.5019,-0.8638,4.1902,12.553412,-1.29556,14.157326000000001,-1
917,918,1580697056761,13.155399,0.1582,5.0207996,14.289056,-0.29724494,14.880375,-1
918,919,1580697056771,14.867599499999999,1.1234,5.1151,15.790373,0.6449501,14.759354,-1
919,920,1580697056782,15.6994,1.8154,4.0804,16.323744,1.2040727,13.538904,-1
920,921,1580697056792,15.6556,1.9949,2.3486,15.994684,1.3174622,11.747515,-1
921,922,1580697056802,15.0155,1.7124,0.3428,15.157354999999999,0.9563782,9.75484,-1
922,923,1580697056812,13.9862995,1.1783999,-0.9162,13.989598,0.43362823,8.719003,-1
923,924,1580697056822,12.880799,0.62619996,-1.4678,12.908539999999999,-0.12739068,8.313357,-1
924,925,1580697056832,12.451799000000001,0.28399998,-1.1453999,12.578188,-0.37274846,8.804687,-1
925,926,1580697056843,12.5707,0.38599998,-0.21419999,12.732412,-0.20862116,9.750885,-1
926,927,1580697056853,12.6679,0.54289997,0.21669999,12.893868,-0.060228538,9.915078999999999,-1
927,928,1580697056863,12.965899,0.6138,-0.0587,13.239887,0.07057149,9.641967999999999,-1
928,929,1580697056873,13.597999999999999,0.8369,-0.6188,13.921987,0.31936735,8.950025,-1
929,930,1580697056884,13.6964,0.8246,-1.1789,13.660521,0.1243261,8.43529,-1
930,931,1580697056894,12.866899499999999,0.33429998,-1.6015999,12.199539999999999,-0.67345065,8.052371,-1
931,932,1580697056905,11.3313,-0.5259,-1.7887,10.816189999999999,-1.4112191,7.984232,-1
932,933,1580697056915,9.5444,-1.4254,-1.9659,8.720832000000001,-2.407159,7.527466,-1
933,934,1580697056925,7.883599799999999,-2.2210999,-2.5549,7.5165386,-2.9631502999999997,6.9598675000000005,-1
934,935,1580697056935,6.5327997,-2.7261999,-3.2122,6.190735299999999,-3.2962029999999998,6.339558599999999,-1
935,936,1580697056945,5.6039,-2.8286998,-3.5254998,5.6669893,-3.2521877,6.291914,-1
936,937,1580697056956,5.2492,-2.7553,-3.4262998,5.516230999999999,-3.1567836,6.475233599999999,-1
937,938,1580697056966,5.0701,-2.687,-3.2375998,5.404364,-3.0579894,6.714117,-1
938,939,1580697056976,4.8839999999999995,-2.4884,-2.9499998,5.235046400000001,-2.7196121,7.078285,-1
939,940,1580697056986,4.6769,-2.1747,-2.6519999999999997,4.8713484000000005,-2.7270916,7.4093266,-1
940,941,1580697056996,4.1906,-2.25,-2.3041,4.315118,-2.9999826,7.659807700000001,-1
941,942,1580697057007,3.3725998,-2.6,-2.0533,3.2557888,-3.5968285000000004,7.8238199999999996,-1
942,943,1580697057017,2.3404999,-3.1274,-1.9094,2.2436926,-4.2575803,8.127089,-1
943,944,1580697057027,1.2759,-3.7391998999999996,-1.5683,1.3992098999999998,-4.63891,8.510382,-1
944,945,1580697057037,0.4084,-3.9613,-1.1672,0.67365175,-4.5403733,8.917511,-1
945,946,1580697057047,-0.35700000000000004,-3.7728,-0.71599996,0.19988711,-4.3496513,9.59257,-1
946,947,1580697057058,-0.90169996,-3.4968,0.16749999,-0.09628522,-4.2012496,10.629365,-1
947,948,1580697057068,-1.1134,-3.3346,1.0620999,-0.05755661,-4.208767,11.4284725,-1
948,949,1580697057079,-1.1912,-3.3344998,1.8593998999999999,-0.5032229,-4.5530343,12.125885,-1
949,950,1580697057089,-1.8414999,-3.6678,2.5688,-1.4391258999999998,-4.8178425,12.728621,-1
950,951,1580697057099,-2.8632998,-3.8546998999999995,3.1306,-2.3796258,-4.9064565,12.850311999999999,-1
951,952,1580697057109,-3.8616998,-3.8779,3.1127,-3.259629,-4.787905,12.404733,-1
952,953,1580697057119,-4.6317,-3.7482,2.7403998,-3.5381226999999997,-4.614661,12.027713,-1
953,954,1580697057129,-5.045,-3.4889997999999998,2.2819,-3.8690684,-4.1653266,11.482495,-1
954,955,1580697057139,-5.3553,-3.1141,1.8267,-3.9671730000000003,-4.071301999999999,11.117236,-1
955,956,1580697057150,-5.5555,-2.9433,1.6916,-4.019386,-4.0204296,11.321671499999999,-1
956,957,1580697057160,-5.4495997,-2.8106,2.4427,-3.9020123,-3.9257437999999993,12.0683565,-1
957,958,1580697057170,-5.4101996,-2.7733998,3.2821998999999997,-3.8536017,-3.9197967000000005,12.907772999999999,-1
958,959,1580697057180,-5.6965,-2.6673,3.4050998999999997,-4.1300173,-3.8487654000000004,13.020846,-1
959,960,1580697057190,-6.0818,-2.6039,3.2617998,-4.499519,-3.792942,12.87391,-1
960,961,1580697057201,-6.0818,-2.6039,3.2617998,-4.7557279999999995,-3.6404028,12.840448,-1
961,962,1580697057211,-6.5476,-1.8622999,2.7554998,-4.872392,-2.944169,12.22081,-1
962,963,1580697057221,-5.8877,-1.3579999,2.0291,-4.0766745,-2.4553497,11.51453,-1
963,964,1580697057231,-5.8877,-1.3579999,2.0291,-3.4578017999999995,-2.1868637000000004,11.1047,-1
964,965,1580697057241,-4.6128,-0.7902,1.2491,-3.0109767999999995,-1.9320633000000003,10.866152,-1
965,966,1580697057251,-4.3289,-0.83779997,1.1273,-2.7398765,-1.9707631999999997,10.753941000000001,-1
966,967,1580697057261,-4.0572,-0.8714,1.2303,-2.4822509999999998,-1.9960746999999999,10.901758000000001,-1
967,968,1580697057272,-4.0188,-0.8937,1.4018999,-2.5064417999999997,-2.0046651,11.030527000000001,-1
968,969,1580697057282,-4.0188,-0.8937,1.4018999,-2.5245135,-1.9282038000000001,10.877558,-1
969,970,1580697057292,-3.9782,-0.7061,0.89169997,-2.487384,-1.7834983,10.455133,-1
970,971,1580697057302,-3.9894,-0.57589996,0.52419996,-2.5179532000000004,-1.6385916,10.114286,-1
971,972,1580697057313,-3.7986998999999995,-0.4766,0.4219,-2.2923334,-1.5387151000000001,10.080308,-1
972,973,1580697057323,-3.4455998,-0.4464,0.38889998,-1.8068657,-1.4730662,9.932383999999999,-1
973,974,1580697057334,-2.9413998,-0.3858,0.12019999,-1.3076746000000001,-1.4020063,9.660671,-1
974,975,1580697057344,-2.3209,-0.33089998,-0.1787,-0.671315,-1.2985002,9.410323,-1
975,976,1580697057354,-1.7701,-0.2207,-0.2722,-0.19374838,-1.136585,9.385471,d
976,977,1580697057365,-1.3303,-0.0050999997,-0.19909999,0.15991351,-0.9647388000000001,9.571672999999999,-1
977,978,1580697057375,-1.0564,0.1178,0.021699998999999998,0.23059992,-0.9129187,9.803241,-1
978,979,1580697057386,-1.079,0.1443,0.2039,0.16189592,-0.83721405,9.93474,-1
979,980,1580697057396,-1.1072,0.18859999,0.26909998,0.16116807,-0.90070826,9.882575,-1
980,981,1580697057406,-1.0732,0.0815,0.109299995,0.12544659,-1.0486412,9.698069,-1
981,982,1580697057417,-1.0622,-0.018299998999999997,0.027999998999999998,0.16193423,-1.035205,9.750299,-1
982,983,1580697057427,-0.9119,0.050699997999999996,0.1724,0.44624087,-1.0005177,10.032596,-1
983,984,1580697057437,-0.6263,0.0072999996999999995,0.3557,0.59826314,-0.9367361999999999,10.077742,-1
984,985,1580697057447,-0.50729996,0.1934,0.46969998,0.6338696999999999,-0.8226669,10.395586,-1
985,986,1580697057457,-0.40399998,0.2267,0.92719996,0.790824,-0.7703392,10.750339,-1
986,987,1580697057467,-0.2324,0.3083,1.0416,0.51249325,-0.80441344,10.571502,-1
987,988,1580697057478,-0.5725,0.23709999,0.8321,-0.046658202999999995,-1.0368139,10.433404,-1
988,989,1580697057488,-1.0637,-0.0053999997,0.7012,-0.47804546,-1.2144731000000002,10.348075,-1
989,990,1580697057498,-1.4245,-0.15339999,0.61969995,-0.74252814,-1.306219,10.434629,-1
990,991,1580697057508,-1.6279,-0.22659999,0.7741,-0.7481593000000001,-1.3116777,10.660413,-1
991,992,1580697057518,-1.5747,-0.22379999,0.96819997,-0.49660529999999997,-1.1938639,10.861708,-1
992,993,1580697057529,-1.2612,-0.11449999,1.2018,-0.012315774,-1.0132933000000002,11.2195835,-1
993,994,1580697057539,-0.8422,0.044099998,1.4944998999999999,0.21015345,-0.8448370999999999,11.261884,-1
994,995,1580697057549,-0.617,0.2242,1.5518999,-0.06729622,-0.7579851,11.701871,-1
995,996,1580697057559,-0.87649995,0.2817,1.9720999,-0.5919424,-0.7592300999999999,12.197155,-1
996,997,1580697057569,-1.3757,0.285,2.4708997999999998,-1.0728132,-0.9983438,12.659504,-1
997,998,1580697057580,-1.8419999999999999,0.0528,2.9301999,-1.5942319999999999,-1.2914037,13.126401999999999,-1
998,999,1580697057590,-2.8553,-0.53859997,4.0341997,-2.1342201000000003,-1.5730863000000002,13.7619,-1
999,1000,1580697057600,-3.0705,-0.69189996,4.6003,-2.305511,-1.7005057000000001,14.398097,-1
1000,1001,1580697057611,-2.7851999,-0.6174,4.7829,-1.963772,-1.5382555,14.530783999999999,-1
1001,1002,1580697057621,-2.3753,-0.3805,4.7881,-1.5533963,-1.2495626,14.53606,-1
1002,1003,1580697057632,-2.2056,-0.2303,4.8122,-1.4331117,-1.0448296000000001,14.565289499999999,-1
1003,1004,1580697057642,-2.1106,-0.0927,4.7864,-1.3734098999999997,-0.806597,14.621984,-1
1004,1005,1580697057652,-2.0785,-0.0251,4.8089,-1.3634306999999999,-0.6583479999999999,14.532182,-1
1005,1006,1580697057663,-2.1818,0.0479,4.7816997,-1.6209704,-0.5879968000000001,14.554065,-1
1006,1007,1580697057673,-2.4378998,-0.081,4.7841,-1.8277526999999998,-0.6180679,14.555387,-1
1007,1008,1580697057684,-2.4085999,-0.168,4.7181997,-1.7371178,-0.61907357,14.433991,-1
1008,1009,1580697057694,-2.1848,-0.1946,4.5745997,-1.4629530000000002,-0.50809747,14.204846,-1
1009,1010,1580697057704,-1.7163,-0.1201,4.2455,-0.9794392,-0.31983662,13.991418,-1
1010,1011,1580697057714,-1.2760999,-0.0491,4.0941,-0.71866274,-0.11658804,13.806787,-1
1011,1012,1580697057725,-1.2617999,0.07719999599999999,3.8162,-0.90029645,0.18794484,13.177226999999998,-1
1012,1013,1580697057735,-1.3649,0.1498,3.0096998,-1.0208876,0.16486473,12.490454,-1
1013,1014,1580697057745,-1.4764999,-0.17119999,2.3026,-1.2004911,-0.07946835,11.898895,-1
1014,1015,1580697057755,-1.6215,-0.4701,1.8616999,-1.4349121,-0.2997062,11.638233,-1
1015,1016,1580697057765,-1.7498,-0.96349996,2.0405,-1.6274825000000002,-0.75573456,12.052162,-1
1016,1017,1580697057776,-1.8657,-1.4813,2.4863,-1.7153688999999999,-1.0151894000000001,12.250498,-1
1017,1018,1580697057786,-1.7782999,-1.6628,2.2879,-1.5546508999999997,-0.9737793,11.646948,-1
1018,1019,1580697057796,-1.5841999,-1.7279999,1.5245,-1.3749996000000002,-0.88380516,10.959736,-1
1019,1020,1580697057806,-1.392,-1.757,0.6767,-1.1895256,-0.69579333,9.912177,-1
1020,1021,1580697057816,-1.2585,-1.7368,-0.1779,-1.1072034,-0.47487554,9.186159,-1
1021,1022,1580697057826,-1.1826999,-1.686,-0.7274,-0.92914176,-0.28891313,8.85712,-1
1022,1023,1580697057836,-0.856,-1.6172999,-0.91429996,-0.5837351,-0.11719138,8.685571000000001,-1
1023,1024,1580697057847,-0.513,-1.5696,-1.171,-0.35161245,0.10052774,8.329092999999999,-1
1024,1025,1580697057857,-0.1858,-1.3312,-1.6147,0.18963993,0.64437544,7.7154202000000005,-1
1025,1026,1580697057867,0.3857,-1.0399,-2.0398,0.80947006,1.021376,7.4813156,-1
1026,1027,1580697057877,1.2554,-0.597,-2.2015,1.5969805000000001,1.4478695,7.4747076,-1
1027,1028,1580697057887,1.9762,-0.3098,-2.129,2.0223823,1.8344947,7.555047,-1
1028,1029,1580697057897,2.2914,-0.0655,-2.0275,2.1582293999999997,1.9497133000000002,7.801343400000001,-1
1029,1030,1580697057908,2.4924,-0.0138,-1.5927999,2.1546187000000003,2.1562276000000002,8.332730999999999,-1
1030,1031,1580697057918,2.4738,0.118099995,-1.2167,2.0148451,2.2857444,8.364699,-1
1031,1032,1580697057928,2.3657,0.14989999,-1.2515,1.9235208,2.1831767999999996,8.141244,-1
1032,1033,1580697057938,2.3827,-0.0321,-1.4721999,1.8654758000000002,2.061829,7.841039,-1
1033,1034,1580697057948,2.3723,-0.1688,-1.7126,1.5564799999999999,2.0220757,7.401770599999999,-1
1034,1035,1580697057959,2.0595,-0.26,-2.2178,1.1905503,2.0487566000000004,7.0292034,-1
1035,1036,1580697057969,1.8185999,-0.2572,-2.5270998,1.0238085,2.063055,6.932889500000001,-1
1036,1037,1580697057979,1.7637,-0.2814,-2.5623999,1.1439687,2.1810028999999997,6.938722,-1
1037,1038,1580697057989,1.9918,-0.1621,-2.5781999,1.4106541000000001,2.3412802000000004,6.8444767,-1
1038,1039,1580697057999,2.2740998,-0.060399997999999996,-2.6331,1.6685957999999999,2.5564137000000002,6.870209700000001,-1
1039,1040,1580697058010,2.4989,0.0747,-2.5897,1.9770455000000002,2.6699562,6.1636615,-1
1040,1041,1580697058020,2.8137,0.1379,-3.2911,2.2568509999999997,2.6011949,5.404364,-1
1041,1042,1580697058030,3.1671,-0.2741,-4.1897,2.279912,2.3269534,5.230516400000001,-1
1042,1043,1580697058040,3.1671,-0.2741,-4.1897,1.614688,2.0489578,5.171427700000001,-1
1043,1044,1580697058050,1.5639,-0.6789,-4.3083,0.54633766,1.9033137999999998,5.113354,-1
1044,1045,1580697058060,0.8893,-0.7319,-4.4151,-0.21826500000000001,1.8251575,5.005987999999999,-1
1045,1046,1580697058071,0.8127,-0.9501,-4.2497,-0.34264857,1.5768309,5.162138,-1
1046,1047,1580697058081,1.1625999,-1.0651,-3.9594,0.10807426,1.4550234,5.5432760000000005,-1
1047,1048,1580697058091,1.8115,-1.0002999,-3.4362,0.6727899,1.490065,5.992514599999999,-1
1048,1049,1580697058101,2.5063,-0.9287,-2.9539999999999997,1.4986266000000001,1.531207,6.574755000000001,-1
1049,1050,1580697058111,2.7143998,-0.90099996,-2.3941998,1.6873088,1.5695045,7.216717699999999,-1
1050,1051,1580697058122,2.7502,-0.7619,-1.7271,1.7133194,1.6687874,7.7250257,-1
1051,1052,1580697058132,2.5103998,-0.9352,-1.4223,1.3152596,1.3635841999999998,8.075125,-1
1052,1053,1580697058143,1.6708,-1.3880000000000001,-1.3715,0.36130419999999996,0.85418415,8.124359,-1
1053,1054,1580697058153,0.7822,-1.6471,-1.1529,-0.49795565,0.6420291,8.444742,-1
1054,1055,1580697058163,0.3448,-1.5033,-0.493,-0.9033323,0.78433084,9.192796000000001,-1
1055,1056,1580697058173,0.1533,-1.4346,-0.0876,-1.0121248,0.7899238000000001,9.408695,-1
1056,1057,1580697058183,0.2223,-1.4533,-0.161,-0.71719754,0.8076313,9.179350999999999,-1
1057,1058,1580697058193,0.6681,-1.3787,-0.71309996,-0.2603359,0.9160215,8.652845,-1
1058,1059,1580697058203,1.1050999,-1.2001,-1.2246,0.2665034,1.1143093000000002,8.248207,-1
1059,1060,1580697058214,1.2916,-1.0401,-1.2073,0.35062605,1.3114959,8.376727,-1
1060,1061,1580697058224,1.2181,-0.92039996,-0.88799995,0.20823808,1.3244532,8.86048,-1
1061,1062,1580697058234,0.9436,-0.9393,-0.3548,-0.22046767,1.3081726,9.347796,-1
1062,1063,1580697058244,0.51,-0.90849996,-0.0574,-0.56029105,1.2452242,9.492559,-1
1063,1064,1580697058254,0.4346,-0.9754,0.06399999599999999,-0.5999485999999999,1.1559589,9.696038,-1
1064,1065,1580697058264,0.3615,-0.9299,0.2843,-0.73711723,1.2227763,9.888196,-1
1065,1066,1580697058275,0.3735,-0.728,0.4173,-0.53075624,1.5244936000000002,9.982413000000001,-1
1066,1067,1580697058285,0.61509997,-0.4409,0.4632,-0.34927574,1.7664898999999998,10.031733500000001,-1
1067,1068,1580697058295,0.6953,-0.10789999,0.43199998,-0.3141001,2.1058824,9.82589,-1
1068,1069,1580697058305,0.74829996,0.0967,-0.029099998999999998,-0.14915876,2.221034,9.295728,-1
1069,1070,1580697058315,0.85099995,0.13229999,-0.3524,-0.14559619,2.258163,8.999794999999999,-1
1070,1071,1580697058325,0.73679996,0.154,-0.62689996,-0.33423057,2.1735425,8.826177000000001,-1
1071,1072,1580697058336,0.5445,0.0077,-0.72569996,-0.48043966,2.0469563,8.921141,-1
1072,1073,1580697058346,0.4851,-0.0517,-0.51199996,-0.36612135,2.1328316000000003,9.219936,-1
1073,1074,1580697058356,0.6774,0.0885,-0.2014,-0.119384475,2.2056918,9.496926,-1
1074,1075,1580697058366,0.8458,0.1313,0.030199998999999998,-0.09673533,2.1866147999999996,9.7739935,-1
1075,1076,1580697058376,0.8168,0.1353,0.2616,-0.16901149,2.2639763,9.996932000000001,-1
1076,1077,1580697058386,0.7675,0.2462,0.5717,-0.15891753,2.3021016,10.258550999999999,-1
1077,1078,1580697058397,0.7568,0.2852,0.6863,-0.13466905,2.4473531000000004,10.165111,-1
1078,1079,1580697058407,0.80609995,0.49519998,0.5669,-0.021270089,2.607123,10.063778,-1
1079,1080,1580697058417,0.9231,0.55259997,0.4093,0.15960705,2.5393286,9.745139,-1
1080,1081,1580697058427,1.041,0.489,0.1153,0.19009005,2.4586535,9.5633135,-1
1081,1082,1580697058437,1.0321,0.3464,-0.021599998999999998,0.08053137,2.2561998,9.514366,-1
1082,1083,1580697058448,0.8857,0.1757,-0.051,-0.13104902,2.1396213,9.557424000000001,-1
1083,1084,1580697058458,0.6701,0.0451,0.027099999,-0.41325837,2.0123743999999997,9.685273,-1
1084,1085,1580697058468,0.27789998,-0.064399995,0.16399999,-0.8077749,1.9791811999999998,9.709024000000001,-1
1085,1086,1580697058478,-0.0123,-0.0742,0.15359999,-0.93788546,1.9949734000000001,9.725755,-1
1086,1087,1580697058488,-0.1025,-0.0425,0.1726,-0.9181381,2.1297669999999997,9.761936,-1
1087,1088,1580697058499,-0.052899998,0.0989,0.21100000000000002,-0.7488584,2.2064388,9.817453,-1
1088,1089,1580697058509,0.1538,0.14299999,0.2688,-0.5085092999999999,2.1647606,9.86099,-1
1089,1090,1580697058519,0.3775,0.127,0.2777,-0.25348848,2.2195972999999998,9.779289,-1
1090,1091,1580697058529,0.63769996,0.20639999,0.1987,0.08850885,2.3284569999999998,9.6256485,-1
1091,1092,1580697058540,0.895,0.2929,0.0611,0.19007088,2.3424487000000003,9.689055999999999,-1
1092,1093,1580697058550,0.983,0.3199,0.1196,0.057240575999999994,2.4105875,9.661361,-1
1093,1094,1580697058560,0.7288,0.2881,0.15779999,-0.07028419,2.3275661,9.720554,-1
1094,1095,1580697058570,0.7288,0.2881,0.15779999,-0.277239,2.3295486,9.871389,-1
1095,1096,1580697058580,0.2722,0.26319999,0.489,-0.5103959,2.3002436,10.061939,-1
1096,1097,1580697058590,0.11229999,0.0822,0.61509997,-0.75213367,2.079872,10.258253999999999,-1
1097,1098,1580697058600,-0.228,-0.0967,0.9079999999999999,-1.0197384,1.908332,10.524356,-1
1098,1099,1580697058610,-0.16129999,-0.1007,1.0055,-0.9574316999999999,1.9193069999999999,10.576214,-1
1099,1100,1580697058620,-0.16129999,-0.1007,1.0055,-0.9890542999999999,2.0308669999999998,10.6628065,-1
1100,1101,1580697058630,-0.22569999,0.1554,0.8997,-0.9600462,2.251201,10.427667999999999,-1
1101,1102,1580697058640,0.0407,0.32709998,0.6766,-0.6237566,2.4243398,10.176258,-1
1102,1103,1580697058650,0.35,0.46539998,0.4441,-0.38577290000000003,2.5560400000000003,9.988255,-1
1103,1104,1580697058660,0.4201,0.4669,0.5446,-0.37871479999999996,2.5117762000000003,10.173491,-1
1104,1105,1580697058672,-0.076299995,0.24749999,0.8307,-0.94509673,2.3021972,10.424623,-1
1105,1106,1580697058682,-0.7989,0.0425,0.88119996,-1.6748111,2.1373324,10.483156,-1
1106,1107,1580697058692,-1.7782999,0.058399998,1.3823,-2.7214222,2.2203252,11.065886,-1
1107,1108,1580697058702,-2.6936,0.3125,1.9909999,-3.5350199,2.4139972000000003,11.665758,-1
1108,1109,1580697058712,-3.0219,0.0632,2.4728,-3.8320345999999996,2.0856848,12.075778,-1
1109,1110,1580697058722,-3.3916,-0.3902,2.6227999,-4.143262,1.7388225,12.178184,-1
1110,1111,1580697058735,-3.8237,-0.7572,2.3142,-4.8838267,1.1961815,11.672442,-1
1111,1112,1580697058745,-4.3006,-1.1049,1.9978,-5.222817,0.9787018,11.371606,-1
1112,1113,1580697058755,-4.5885,-1.3242999,1.7810999,-5.3799150000000004,0.7623521,11.298755,-1
1113,1114,1580697058765,-4.7858,-1.6881,1.6933,-5.6485057,0.45124957,10.991914,d
1114,1115,1580697058776,-5.0631,-1.9614999,1.3034999,-5.797789,0.29028259999999995,10.610728,-1
1115,1116,1580697058786,-5.1312,-2.2512999,0.6611,-5.903095700000001,-0.08855673,9.850205,-1
1116,1117,1580697058796,-5.4481997,-2.7151,0.1025,-6.363041,-0.4861666,9.049392999999998,-1
1117,1118,1580697058806,-5.8736,-3.0988,-0.8768,-6.6292186,-0.58827454,8.103674,-1
1118,1119,1580697058816,-6.1191998,-3.2998,-1.8722,-6.847072,-0.80685556,7.020776299999999,-1
1119,1120,1580697058826,-6.1995997,-3.5145,-2.7626998,-6.7763279999999995,-0.8358540999999999,6.033685,-1
1120,1121,1580697058836,-6.0681,-3.5525,-3.6724,-6.516069,-0.72457165,5.244048599999999,-1
1121,1122,1580697058847,-5.6622996,-3.4426,-4.494,-5.855805999999999,-0.41096953,4.32977,-1
1122,1123,1580697058857,-4.9151998,-3.1647,-5.3553,-5.0048103,-0.021911733,3.6440132000000003,-1
1123,1124,1580697058867,-4.1347,-2.904,-5.9528,-3.9850337999999996,0.33062008,2.545927,-1
1124,1125,1580697058877,-3.2614,-2.6703,-7.0218,-2.7876554000000002,0.507724,1.4590361,-1
1125,1126,1580697058887,-2.0928,-2.5951998,-8.0047,-1.5292628000000001,0.5848076999999999,1.055661,-1
1126,1127,1580697058898,-0.95699996,-2.5593,-8.2188,-0.6096882,0.6371258000000001,1.4940298,-1
1127,1128,1580697058907,-0.19229999,-2.5565999,-7.6366997,-0.2349095,0.5984738000000001,2.0265671999999997,-1
1128,1129,1580697058917,0.21429999,-2.6978,-6.6794,0.022926876000000002,0.48742118,3.0156023999999997,-1
1129,1130,1580697058927,0.1293,-2.6394,-6.2359,-0.30148745,0.686341,2.9291047999999997,-1
1130,1131,1580697058938,-0.2008,-2.4407,-6.4891996,-0.12572432,0.5194364,2.0038318999999998,-1
1131,1132,1580697058948,0.057299998,-2.6590998,-7.5741,0.39423883,0.3218669,0.47057557,-1
1132,1133,1580697058958,0.5112,-2.825,-9.1764,1.2039674999999999,-0.0247752,-0.8724758,-1
1133,1134,1580697058968,1.3666999,-3.1857998,-10.268599499999999,2.5719377999999997,-0.24513753,-1.0348314,-1
1134,1135,1580697058978,2.6732,-3.2568998,-10.3056,3.7077660000000003,-0.10432016,-0.7278852,-1
1135,1136,1580697058988,3.5756,-3.1148,-9.9279995,4.331398,-0.38138676,0.24116315,-1
1136,1137,1580697058998,3.9938998,-3.3644998,-8.845799000000001,4.5314,-0.6908996000000001,1.7994245,-1
1137,1138,1580697059008,4.0628,-3.4420998,-7.3155,4.3588166,-0.5391741999999999,3.0253514999999997,-1
1138,1139,1580697059018,3.8018,-3.0895998,-6.2268996,4.034680000000001,-0.31884062,3.8225727,-1
1139,1140,1580697059028,3.4682998999999994,-2.6352,-5.5836997,3.6740364999999997,-0.13747507,3.9270177000000004,-1
1140,1141,1580697059038,3.1955,-2.3376,-5.642299700000001,4.061447,-0.43494982,3.8542051,-1
1141,1142,1580697059048,3.8056997999999997,-2.5486999,-5.7398,5.7507863,-0.83887076,4.074395,-1
1142,1143,1580697059059,5.1601,-2.6820998,-5.5418997,7.326860400000001,-0.87676626,4.4805183,-1
1143,1144,1580697059069,6.6247997000000005,-2.5642,-5.160599700000001,8.282243,-1.164195,5.235592400000001,-1
1144,1145,1580697059079,7.6134996,-2.7596998,-4.2198,8.822174,-1.5848466,6.3589616,-1
1145,1146,1580697059090,7.9185,-2.8911998,-3.332,8.8766365,-1.8433534,7.237719500000001,-1
1146,1147,1580697059100,7.9501,-2.8975,-2.4782,8.631202,-1.9209638,7.6038985,-1
1147,1148,1580697059110,7.7244997,-2.5913,-1.4132999,8.555086,-2.1043884999999998,8.355524,-1
1148,1149,1580697059120,7.5659,-2.1559,0.1118,8.353351,-1.9486598999999998,9.894374000000001,-1
1149,1150,1580697059131,7.5659,-2.1559,0.1118,8.320932,-1.6495092,11.334391,-1
1150,1151,1580697059141,7.561899700000001,-1.5718,1.5485,8.743739,-1.4947575000000002,12.152115,-1
1151,1152,1580697059151,8.0051,-1.0931,2.3694,9.568188000000001,-1.5198393,11.895457,-1
1152,1153,1580697059161,9.3729,-0.99579996,1.4913,10.223213000000001,-1.8303479999999999,11.129783,-1
1153,1154,1580697059171,9.6025,-1.2238,0.92179996,10.415152,-2.1789438999999997,10.665805,-1
1154,1155,1580697059181,9.5341,-1.4713999,0.31689999,10.252604,-2.7536384999999997,9.994423,-1
1155,1156,1580697059192,8.8133,-1.9319998999999999,0.88519996,9.423282,-3.484981,10.937306,-1
1156,1157,1580697059202,7.8283997,-2.4387999,3.3560998,8.628751,-4.0749693,12.9963875,-1
1157,1158,1580697059212,7.121,-2.5863,5.513499700000001,7.785829,-4.582224,15.440972,-1
1158,1159,1580697059222,6.6394997,-2.7289,7.0993,7.36987,-4.9612169999999995,16.872303,-1
1159,1160,1580697059233,6.6239996,-2.5251,7.7184,7.5296593,-4.9142237,17.11721,-1
1160,1161,1580697059242,7.1823997,-2.2055,7.6426997000000005,8.067751,-4.865918,17.105710000000002,-1
1161,1162,1580697059252,7.6526,-1.9683,8.1384,8.480138,-4.7994742,17.740564000000003,-1
1162,1163,1580697059263,7.7675,-1.5573,9.0386,8.554856,-4.5903263,18.559314999999998,-1
1163,1164,1580697059273,8.0743,-1.1783,10.4014,9.02843,-4.3895290000000005,20.084307,-1
1164,1165,1580697059283,8.3674,-0.7773,11.4204,9.19384,-4.177231,20.696648,-1
1165,1166,1580697059293,8.1938,-0.30859998,11.955299,9.021735000000001,-3.8806752999999996,21.117931,-1
1166,1167,1580697059303,7.8430995999999995,-0.074099995,12.3389,8.630236,-3.8539943999999995,21.502996,-1
1167,1168,1580697059313,7.4361997,-0.1577,12.8462,8.203818,-4.2136226,22.119034,-1
1168,1169,1580697059324,6.9041,-0.5481,13.7618,7.700499499999999,-4.777696,23.177193,-1
1169,1170,1580697059334,6.3385997000000005,-1.1139,15.122399,7.167014,-5.4562325,24.480864999999998,-1
1170,1171,1580697059344,5.7883,-1.6036999,16.1672,6.7263465,-5.872957700000001,25.235872,-1
1171,1172,1580697059354,5.2201,-1.9138,16.4385,6.137536,-6.233036,25.075844,-1
1172,1173,1580697059364,4.3298,-2.4519,15.7476,5.1252580000000005,-6.776491,24.101651999999998,-1
1173,1174,1580697059375,2.875,-3.0088,14.3322,3.6251469,-7.206825,22.591427,-1
1174,1175,1580697059385,1.0964,-3.6237998,13.0215,1.4865981000000001,-7.8851023,21.398474,-1
1175,1176,1580697059395,-0.8785,-4.3406,12.1751995,0.08437166,-8.280403999999999,20.803639999999998,-1
1176,1177,1580697059405,-2.5319998,-4.9121,11.4527,-1.4725298,-8.673983,20.19602,-1
1177,1178,1580697059416,-3.8007,-5.4126,11.0213995,-2.857001,-9.012685000000001,19.84665,-1
1178,1179,1580697059425,-5.3012,-5.8856997,10.6166,-3.9390747999999998,-9.215349,19.523872,-1
1179,1180,1580697059435,-6.5722,-6.2700996,10.0814,-5.039852,-9.327015,18.8957,-1
1180,1181,1580697059445,-7.3862,-6.4343,9.113,-5.282653,-9.076869,17.796198,-1
1181,1182,1580697059455,-7.0483,-6.2981,8.3022995,-4.4853263,-8.556617999999999,17.126078,-1
1182,1183,1580697059466,-6.5070996,-6.0669,7.4747,-4.6875215,-8.290517999999999,16.040768,-1
1183,1184,1580697059477,-7.066,-6.2606997,6.5397997000000005,-5.541533,-8.513178,15.522701000000001,-1
1184,1185,1580697059487,-8.2121,-6.8739,5.9296,-6.667660000000001,-8.907378999999999,14.940632999999998,-1
1185,1186,1580697059497,-9.2525,-7.4561,5.1737,-7.676912299999999,-9.086331,14.109538,-1
1186,1187,1580697059507,-10.175,-7.8261,4.2731,-8.544963000000001,-8.965107000000001,13.010589999999999,-1
1187,1188,1580697059517,-10.6798,-7.911299700000001,3.2601,-8.645549,-8.569288,11.783878,-1
1188,1189,1580697059527,-10.6516,-7.7458,1.8828,-8.460016,-7.9382057,10.130939999999999,-1
1189,1190,1580697059538,-10.4537,-7.3861,0.23089999,-8.276746000000001,-7.475196,8.80958,-1
1190,1191,1580697059548,-10.2052,-7.3083,-1.0294,-7.934432000000001,-7.314296000000001,7.5240564,-1
1191,1192,1580697059558,-9.814099,-7.4399996,-2.3918,-7.6733210000000005,-7.05192,6.192507,-1
1192,1193,1580697059568,-9.4691,-7.3717,-3.6337998,-7.142919,-6.6257234,5.423882,-1
1193,1194,1580697059578,-8.8126,-7.1566,-4.3147,-6.679746000000001,-5.981195,4.916675,-1
1194,1195,1580697059588,-8.2936,-6.66,-4.7973,-6.3130503,-5.12023,4.5096126,-1
1195,1196,1580697059599,-7.9002,-6.1341996,-5.1302,-6.0034895,-4.623826,4.0595894,-1
1196,1197,1580697059609,-7.4073,-5.6952996,-5.6745,-5.5313144,-4.149755,3.4912919999999996,-1
1197,1198,1580697059619,-6.8113,-5.4143,-6.2434998,-4.60427,-3.6964846,2.9552014,-1
1198,1199,1580697059629,-5.9563,-5.1798,-6.652,-3.7006888,-3.3362434000000003,2.968973,-1
1199,1200,1580697059640,-5.0048,-4.957,-6.617999999999999,-2.6857387999999998,-2.8385463,3.0599527,-1
1200,1201,1580697059650,-2.7856998,-3.9801,-6.3794,-1.5773863000000001,-2.1555765,3.1853034,-1
1201,1202,1580697059660,-2.7856998,-3.9801,-6.3794,-1.1992078000000002,-1.8489941000000003,3.2856205000000003,-1
1202,1203,1580697059671,-0.84419996,-2.6803,-5.7832,0.40387312,-0.6044401999999999,3.8544827000000006,-1
1203,1204,1580697059681,-0.84419996,-2.6803,-5.7832,0.899492,-0.06464345,4.288484599999999,-1
1204,1205,1580697059691,0.45479998,-1.6135,-4.9096,1.3978211999999999,0.43482536,4.6490035,-1
1205,1206,1580697059701,1.0074999,-1.4057,-4.7514,1.8762497,0.67253125,4.802654,-1
1206,1207,1580697059711,1.6882,-1.1705999,-4.6403,2.6086838,0.9972136999999999,4.9376774,-1
1207,1208,1580697059721,2.3662999,-1.0172,-4.5661,3.259313,1.16838,4.992897,-1
1208,1209,1580697059732,3.0523,-0.82799995,-4.48,3.8653428999999995,1.4909077,5.0963650000000005,-1
1209,1210,1580697059742,3.5612,-0.3859,-4.2648997,4.3178663,1.952596,5.307064,-1
1210,1211,1580697059752,3.6938,-0.1977,-4.0004,4.3102045,2.1336744,5.591044999999999,-1
1211,1212,1580697059762,3.3586998,-0.16219999,-3.5995,3.8875705999999997,2.2320375,5.982229,-1
1212,1213,1580697059772,2.9092999,-0.1227,-3.3467,3.4130495,2.2592932999999995,6.205512000000001,-1
1213,1214,1580697059782,2.5671,-0.2868,-3.0549,3.03625,2.1110634999999998,6.4867735,-1
1214,1215,1580697059793,2.4387999,-0.2965,-3.095,3.0278509999999996,2.2147803,6.318011,-1
1215,1216,1580697059803,2.8536,-0.047,-3.4169,3.6381330000000003,2.5883522,5.9610357,-1
1216,1217,1580697059813,3.7275998999999995,0.34109998,-3.7185998,4.5538387,2.9958932000000003,5.678587,-1
1217,1218,1580697059824,4.5034,0.5924,-3.7777998,5.2853246,3.3246555,5.7912099999999995,-1
1218,1219,1580697059834,4.8431997,0.9377,-3.3511,5.4148893,3.6081769999999995,6.339903400000001,-1
1219,1220,1580697059844,4.7394,0.97529995,-2.8116,5.030840400000001,3.5011370000000004,7.028686500000001,-1
1220,1221,1580697059855,4.2058,0.8458,-2.1178,4.452248,3.3633839999999995,7.6311160000000005,-1
1221,1222,1580697059865,3.4227998,0.69049996,-1.3658999,3.550103,3.1234276000000003,8.600307,-1
1222,1223,1580697059875,2.7096,0.4642,-0.5147,3.0092912,2.977525,9.180902,-1
1223,1224,1580697059885,2.0561,0.3771,-0.161,2.5063365,2.933826,9.238535,-1
1224,1225,1580697059895,2.0075,0.3105,-0.27539998,2.7916583999999998,2.9016192000000003,9.160005,-1
1225,1226,1580697059906,2.5549,0.39749998,-0.3005,3.5150997999999998,3.1361554,9.151548,-1
1226,1227,1580697059916,3.0267,0.5737,-0.2671,3.7736928,3.1979544,9.231678,-1
1227,1228,1580697059926,3.1216,0.5762,-0.1759,3.6497114,3.1431847,9.37758,-1
1228,1229,1580697059936,2.9054,0.5107,-0.0459,3.2822974,3.0613892000000003,9.3692875,-1
1229,1230,1580697059947,2.54,0.4394,-0.084199995,2.8576522,2.9248621,9.366405,-1
1230,1231,1580697059957,2.0953999,0.24919999,-0.0437,2.3026762,2.8290367,9.573436000000001,-1
1231,1232,1580697059967,1.5363,0.23259999,0.17459999,2.0287029999999997,3.0208312999999998,9.750684,-1
1232,1233,1580697059977,1.3424,0.40829998,0.3651,2.0870256,3.1329086,9.9933405,-1
1233,1234,1580697059987,1.3579999,0.48299998,0.61579996,2.0099418,3.1569655,10.037728,-1
1234,1235,1580697059998,1.2664,0.4861,0.5732,1.9886047999999998,3.1709669999999996,9.632821,-1
1235,1236,1580697060008,1.2365,0.4956,0.1196,2.1593785,3.1928596000000002,9.274927,-1
1236,1237,1580697060018,1.4187,0.47700000000000004,-0.1681,2.2755547000000003,3.1936352,9.1126375,d
1237,1238,1580697060028,1.5006,0.4642,-0.3012,2.2306871,3.0790105,9.124829,-1
1238,1239,1580697060038,1.4233999,0.3302,-0.26999998,2.0089745999999997,3.0413544,9.229292999999998,-1
1239,1240,1580697060048,1.1931,0.31829998,-0.1423,1.8031211999999999,3.0696635,9.468914,-1
1240,1241,1580697060058,0.9917,0.3279,0.1417,1.6163256000000001,3.0141084,9.785629,-1
1241,1242,1580697060069,0.8077,0.2592,0.42589998,1.367501,2.9328876,9.858547,-1
1242,1243,1580697060079,0.5636,0.19699999999999998,0.42679998,1.2454733,2.9811833,9.598432,-1
1243,1244,1580697060089,0.4646,0.2277,0.13509999,1.2038143,2.8969362000000003,9.217888,-1
1244,1245,1580697060099,0.4324,0.1374,-0.1749,1.1212813,2.8466964,9.011975999999999,-1
1245,1246,1580697060110,0.3324,0.087,-0.4362,1.0806565000000001,2.8836725,8.810988,-1
1246,1247,1580697060120,0.45799997,0.0872,-0.385,1.2167046000000001,2.8666449000000003,9.011046,-1
1247,1248,1580697060131,0.5632,0.2154,-0.24849999,1.3252385,2.990195,9.142499,-1
1248,1249,1580697060141,0.5632,0.2154,-0.24849999,1.5071596,3.0162823,9.100141,-1
1249,1250,1580697060151,0.72319996,0.2546,-0.26909998,1.456709,2.90726,8.929462,-1
1250,1251,1580697060161,0.6052,0.023699999,-0.69,1.3491806,2.8011967999999996,8.704092,-1
1251,1252,1580697060172,0.5042,-0.068799995,-0.8461,1.2423321000000003,2.7150247000000003,8.542071,-1
1252,1253,1580697060182,0.42459998,-0.11800000000000001,-0.7879,1.1405976999999998,2.6649284,8.623072,-1
1253,1254,1580697060192,0.4244,-0.114599995,-0.6818,1.1153342,2.6734326,8.721043,-1
1254,1255,1580697060202,0.40539998,0.0383,-0.6745,1.1256578000000002,2.9079973999999997,8.716513,-1
1255,1256,1580697060212,0.5628,0.36929998,-0.6676,1.3623486999999999,3.2127314,8.748576,-1
1256,1257,1580697060223,0.8752,0.5542,-0.6216,1.5791101,3.3286872000000005,8.783005000000001,-1
1257,1258,1580697060233,0.9623,0.63269997,-0.5761,1.7065869999999999,3.4225879,8.86683,-1
1258,1259,1580697060244,1.1481,0.703,-0.42319998,1.8873874,3.442211,9.054296,-1
1259,1260,1580697060254,1.3737,0.7057,-0.251,2.0843632,3.4333522000000003,9.204796,-1
1260,1261,1580697060264,1.5521,0.7672,-0.1573,2.307503,3.4511077000000006,9.251377,-1
1261,1262,1580697060275,1.7619,0.70989996,-0.1811,2.4639592,3.3899024,9.212352000000001,-1
1262,1263,1580697060285,1.9125999,0.6902,-0.2534,2.5810068,3.3951888,9.158377,-1
1263,1264,1580697060295,1.9648999,0.72999996,-0.2277,2.519562,3.4404392,9.260791000000001,-1
1264,1265,1580697060305,1.8513998999999999,0.802,-0.075399995,2.4089022,3.489348,9.540166000000001,-1
1265,1266,1580697060315,1.8477,0.8290000000000001,0.2913,2.4156442000000005,3.4680202000000007,9.95781,-1
1266,1267,1580697060326,1.8398,0.8509,0.6272,2.3397002000000002,3.5038567000000005,10.209928999999999,-1
1267,1268,1580697060336,1.7630999,0.87509996,0.8247,2.2423037999999997,3.3982341,10.2835655,-1
1268,1269,1580697060346,1.7555,0.7818,0.75699997,2.260136,3.3439047,10.083553,-1
1269,1270,1580697060356,1.8851999,0.7848,0.51309997,2.3016036,3.3706050000000003,9.773419,-1
1270,1271,1580697060366,1.7945,0.8333,0.1134,1.9281368000000003,3.350647,9.333048,-1
1271,1272,1580697060377,1.4021,0.76989996,-0.31419998,1.4048505,3.1938459999999997,8.841845,-1
1272,1273,1580697060387,0.917,0.63339996,-0.8678,0.8568369,3.0594257999999996,8.349155999999999,-1
1273,1274,1580697060397,0.4657,0.45589998,-1.3126,0.34396059999999995,2.7708862,7.915690400000001,-1
1274,1275,1580697060407,-0.0491,0.18249999,-1.7184,-0.29637346,2.3721178,7.501656,-1
1275,1276,1580697060417,-0.5191,-0.1845,-2.0662,-0.77479243,2.1113698,7.081110000000001,-1
1276,1277,1580697060428,-0.94369996,-0.4093,-2.523,-1.1775643,1.9734255,6.732437599999999,-1
1277,1278,1580697060438,-1.4397999,-0.4797,-2.9029,-1.7301171999999998,1.821681,6.543832,-1
1278,1279,1580697060448,-1.821,-0.6274,-2.9815,-2.1183512,1.5634999,6.541226999999999,-1
1279,1280,1580697060459,-2.1357,-0.8217,-2.9645998,-2.1991796000000003,1.4584328000000002,6.737963000000001,-1
1280,1281,1580697060469,-2.1385999,-0.84669995,-2.7445,-1.9599128000000001,1.357407,7.160789,-1
1281,1282,1580697060479,-1.8330000000000002,-0.862,-2.2809,-1.7510424999999998,1.3082206,7.8620220000000005,-1
1282,1283,1580697060489,-1.6628,-0.8236,-1.7294999,-1.7773788000000001,1.1626723,8.295056,-1
1283,1284,1580697060499,-1.6886,-0.8849,-1.3047,-1.8108497,1.0356072,8.559071000000001,-1
1284,1285,1580697060511,-1.7371999,-0.9428,-1.0545,-1.8904233,0.90270025,8.765077,-1
1285,1286,1580697060521,-1.8456999,-1.0713,-0.46199998,-1.8711932,0.7777324999999999,9.179389,-1
1286,1287,1580697060531,-1.7131,-1.0452,-0.072299995,-1.7234327,0.74412745,9.582322999999999,-1
1287,1288,1580697060541,-1.4623,-1.0137,0.5719,-1.4076566000000001,0.71793485,10.366999,-1
1288,1289,1580697060551,-1.2508999,-0.8235,1.0889,-1.1799678999999998,0.8391581,10.845906,-1
1289,1290,1580697060562,-0.95589995,-0.6082,1.4011999,-0.88481075,1.0091656,11.140738,-1
1290,1291,1580697060572,-0.76049995,-0.3434,1.5978,-0.7006486999999999,1.2127589,11.311482,-1
1291,1292,1580697060582,-0.5212,-0.168,1.6590999,-0.46831542,1.3280063,11.33645,-1
1292,1293,1580697060592,-0.3619,-0.051099997,1.4670999,-0.286155,1.4096485,11.071056,-1
1293,1294,1580697060602,-0.2374,0.0016999998999999999,1.0602,-0.17293797,1.4012016999999999,10.656266,-1
1294,1295,1580697060612,-0.1829,0.0167,0.7905,-0.16024870000000002,1.3672136000000001,10.519815,-1
1295,1296,1580697060623,-0.16,0.0858,0.8929,-0.145261,1.454966,10.676885,-1
1296,1297,1580697060633,-0.0755,0.24659999,1.2009,-0.010151415,1.5539709,11.126583,-1
1297,1298,1580697060643,0.0862,0.3486,1.6366999,0.12423034,1.5906885,11.449696000000001,-1
1298,1299,1580697060653,0.11889999,0.3586,1.9652,0.035616145,1.5001781,11.747198,-1
1299,1300,1580697060663,-0.016999999,0.2729,1.9809999999999999,-0.07788817,1.4182676,11.714264,-1
1300,1301,1580697060674,-0.0185,0.1981,1.841,-0.058332327999999996,1.331339,11.512443,-1
1301,1302,1580697060684,-0.0123,0.1556,1.6136,-0.1093384,1.2704017,11.218999,-1
1302,1303,1580697060694,-0.123399995,0.0984,1.2299,-0.20030849,1.165641,10.833687,-1
1303,1304,1580697060704,-0.11449999,-0.0084999995,0.92469996,-0.17048632,1.0822846000000002,10.659972,-1
1304,1305,1580697060714,-0.0064999997,-0.045199998,0.91359997,-0.038010344,1.0328873,10.720478,-1
1305,1306,1580697060724,0.13059999,-0.0407,1.0396,0.13031161,1.0397539,10.871246000000001,-1
1306,1307,1580697060735,0.25779998,-0.054899998,1.2145,0.19759825,0.9689143,11.020874000000001,-1
1307,1308,1580697060745,0.2373,-0.13859999,1.3405,0.11306378,0.8645654,11.149567999999999,-1
1308,1309,1580697060755,0.1373,-0.2348,1.4080000000000001,0.0069048777,0.7526604,11.139225,-1
1309,1310,1580697060765,0.065799996,-0.3642,1.2896,-0.16627252,0.5917988000000001,11.018125999999999,-1
1310,1311,1580697060775,-0.12529999,-0.4782,1.2206,-0.31044176,0.5204229,10.950026,-1
1311,1312,1580697060785,-0.3685,-0.59639996,1.0442,-0.5930342,0.42033562,10.647886,-1
1312,1313,1580697060796,-0.4854,-0.6199,0.78959996,-0.60182565,0.44538856,10.475303,-1
1313,1314,1580697060805,-0.4254,-0.5458,0.7313,-0.47124594,0.5418174,10.534631,-1
1314,1315,1580697060815,-0.2267,-0.4314,0.78069997,-0.18880674,0.67210984,10.490117999999999,-1
1315,1316,1580697060825,0.071899995,-0.33699998,0.6536,0.07420109,0.78996205,10.362756,-1
1316,1317,1580697060836,0.2847,-0.2042,0.5855,0.28495790000000004,0.9148245,10.318032,-1
1317,1318,1580697060846,0.4684,-0.131,0.5372,0.349745,0.97500515,10.182128,-1
1318,1319,1580697060856,0.4649,-0.039899997,0.37129998,0.2567542,1.0826771000000002,10.115052,-1
