,Seq,Time,ACCx,ACCy,ACCz,ADGx,ADGy,ADGz,Keydown
0,1,1583552482420,0.61869997,-0.2163,1.0636,5.715735400000001,-7.584994,3.147935,-1
1,2,1583552482430,0.6077,0.2902,0.27199998,10.245805,0.8521155,-1.7103411,-1
2,3,1583552482441,0.5825,0.0451,-0.0892,10.252498,0.74640673,-1.5038556,-1
3,4,1583552482451,0.5322,-0.1683,0.0015,10.128958,0.43158838,-1.4001291999999999,-1
4,5,1583552482461,0.4131,-0.40289998,0.20809999,10.019648,0.29423782,-0.89994216,-1
5,6,1583552482471,0.33299999999999996,-0.4504,0.6396,9.971678,0.32545820000000003,-0.6453810000000001,-1
6,7,1583552482482,0.2811,-0.3676,0.88689995,9.979578,0.46811432,-0.517138,-1
7,8,1583552482492,0.3058,-0.2527,0.89809996,10.154710000000001,0.54951715,-0.4410215,-1
8,9,1583552482502,0.51559997,-0.1564,0.9589,10.3117695,0.7318404000000001,-0.44066718,-1
9,10,1583552482512,0.627,0.044999998,0.8771,10.267428,0.7944439999999999,-0.66811633,-1
10,11,1583552482523,0.5225,0.0677,0.5469,10.101654,0.8251664000000001,-0.9626223,-1
11,12,1583552482533,0.39119998,0.0889,0.27199998,10.172618,0.8375300999999999,-1.1618868999999998,-1
12,13,1583552482543,0.4673,0.081599995,0.0568,10.231496,0.9729269,-0.96258396,-1
13,14,1583552482553,0.5139,0.1792,0.2497,10.223787,0.835835,-0.7063374,-1
14,15,1583552482563,0.5008,0.0123,0.532,10.326592999999999,0.70078284,-0.23941060000000003,-1
15,16,1583552482574,0.6336,-0.1425,0.95129997,10.441908,0.5653477,0.16536272,-1
16,17,1583552482585,0.71639997,-0.2942,1.2336,10.355957,0.45611456,0.37140772,-1
17,18,1583552482595,0.62189996,-0.3945,1.3185999,10.251378,0.6903824000000001,0.5725398,-1
18,19,1583552482605,0.5076,-0.1635,1.4340998999999999,10.230492,1.0331938,0.8234043,-1
19,20,1583552482616,0.4585,0.4895,1.7643,10.198121,1.4908502000000001,1.1531337,-1
20,21,1583552482626,0.3281,0.82089996,2.0814,10.052478,1.7814009999999998,1.5334,-1
21,22,1583552482637,0.16929999,0.80579996,2.3258997999999997,9.874281,1.7556009999999997,1.8743823,-1
22,23,1583552482647,0.0208,0.5768,2.5646,9.754639,1.5094005,2.201076,-1
23,24,1583552482658,-0.098,0.2935,2.5960999,9.626424,1.2780919,2.2816072,-1
24,25,1583552482668,-0.2263,0.053999998,2.6526,9.532312,1.0794498,2.51825,-1
25,26,1583552482678,-0.16699999999999998,-0.0365,3.0444999,9.616713,1.0302536,3.24784,-1
26,27,1583552482688,-0.1744,-0.0019999999,3.6308,9.537972,1.1146829,3.8127854,-1
27,28,1583552482698,-0.5125,0.1037,4.0368,9.032154,1.2971401000000002,4.370443,-1
28,29,1583552482709,-1.1119,0.26819998,4.1776,8.305936,1.5220323999999998,4.626498000000001,-1
29,30,1583552482719,-1.9801999,0.4511,4.3764997,7.330767999999999,1.7415806,5.112569000000001,-1
30,31,1583552482729,-3.0528998,0.581,4.5446,6.1919227,2.0000682,5.578729599999999,-1
31,32,1583552482739,-4.1362,0.8242,4.5628,5.3342333,2.2597337000000004,5.5667005,-1
32,33,1583552482749,-5.0011,1.1711999,4.1341,4.424427,2.7410066000000004,5.0218186,-1
33,34,1583552482759,-5.0011,1.1711999,4.1341,3.998815,3.0842202000000003,4.840539499999999,-1
34,35,1583552482769,-5.9280996,1.7019999,3.8289999999999997,3.5417426,3.1433856,4.920228,-1
35,36,1583552482780,-6.4707,1.624,3.878,2.7757704,2.8600366000000004,4.715543,-1
36,37,1583552482790,-7.1341996,1.2322,3.5721,2.2146175,2.2920363,4.323765799999999,-1
37,38,1583552482800,-7.6245,0.6659,3.2085,1.8737788,1.7951342000000001,3.74185,-1
38,39,1583552482810,-7.882999999999999,0.2305,2.5749,1.7460433999999998,1.2651728000000002,2.7964373,-1
39,40,1583552482820,-7.9771,-0.3854,1.6657,1.7072861000000001,0.6039039,2.0419669999999996,-1
40,41,1583552482830,-8.003799,-1.1725,1.0626999,1.7259321,-0.39765775,1.398051,-1
41,42,1583552482840,-8.0598,-1.8564999,0.77639997,1.604144,-1.0968987,1.1388258999999998,-1
42,43,1583552482850,-8.1438,-2.2914,0.7399,1.7586465,-1.2525984,1.0330502000000001,-1
43,44,1583552482860,-7.8241,-2.0953,0.5444,2.1685052000000002,-0.8769482,0.29222667,-1
44,45,1583552482870,-7.5126,-1.5629,-0.3372,2.3097630000000002,-0.6502173000000001,-0.47746128,-1
45,46,1583552482881,-7.454799700000001,-1.4228,-1.2227,2.4069867,-1.1113309999999998,-1.5692843,-1
46,47,1583552482891,-7.2490997,-2.057,-2.0191,2.890989,-2.2062185000000003,-2.2785234,-1
47,48,1583552482902,-6.5811,-3.0914,-2.5727,3.6738163999999998,-3.2901504,-2.8931055,-1
48,49,1583552482912,-6.0176997000000005,-3.8219,-2.9924998,4.032937,-4.269532,-3.6192286,-1
49,50,1583552482922,-5.723799700000001,-4.4874997,-3.4803998,4.1539779999999995,-4.840262,-3.9510934,-1
50,51,1583552482932,-5.6507,-4.8159,-3.5451,4.3040657,-4.9474163,-3.5993087,-1
51,52,1583552482942,-5.4674,-4.6510997000000005,-3.0572999,4.3867807,-4.6990805,-3.3587012,-1
52,53,1583552482953,-5.402199700000001,-4.2051,-2.8741999,4.366564299999999,-4.479522,-3.4045547999999997,-1
53,54,1583552482963,-5.4441,-3.7910000000000004,-3.0969,4.267904,-4.4044595,-4.1866255,-1
54,55,1583552482973,-5.4912,-3.6097998999999996,-4.1431,4.4808254000000005,-4.881011,-5.7830124000000005,-1
55,56,1583552482983,-5.1877,-3.9692998,-5.8998,5.172653700000001,-5.631373,-6.913487400000001,-1
56,57,1583552482993,-4.3556,-4.4937,-6.7942,6.279416599999999,-6.5803199999999995,-6.7987475,-1
57,58,1583552483004,-3.1908998,-5.2089,-6.5368,6.982133999999999,-7.2802405,-6.175604,-1
58,59,1583552483014,-2.4405,-5.7158,-5.9010997000000005,7.529323599999999,-7.6420520000000005,-6.2435225999999995,-1
59,60,1583552483024,-2.0669,-5.5734997,-6.2489,7.5995984,-7.579133000000001,-6.6373973,-1
60,61,1583552483034,-1.9526,-5.2676,-6.8985,7.336552,-7.3409963000000005,-6.722832,-1
61,62,1583552483044,-2.1352,-4.8157,-7.0677,7.066908,-7.193149000000001,-6.6276674,-1
62,63,1583552483054,-2.3473,-4.4441,-7.1768,7.083581,-7.709194999999999,-6.761464999999999,-1
63,64,1583552483065,-2.2438,-4.7202,-7.4940996,7.494263,-8.500010000000001,-7.0423045,-1
64,65,1583552483075,-1.7337999,-5.2625,-7.9241996,8.417678,-9.737219,-7.831127599999999,-1
65,66,1583552483085,-0.696,-6.2263,-8.860499,9.905119000000001,-10.7912035,-8.7994,-1
66,67,1583552483095,0.9305,-6.9879,-9.9908,11.382169000000001,-11.529862,-9.173509,-1
67,68,1583552483105,2.5679,-7.4272,-10.5377,12.527803,-12.511629,-7.8105850000000006,-1
68,69,1583552483116,4.6491,-8.3407,-7.2841997,13.143555,-13.031228,-5.2299037,-1
69,70,1583552483126,4.682699700000001,-8.4791,-6.7135,12.852697000000001,-13.52113,-4.8057566,-1
70,71,1583552483136,4.4117,-8.9897995,-7.5009,12.45482,-14.300519,-5.5446644,-1
71,72,1583552483146,4.9691,-9.4121,-9.033,13.030989,-14.856710999999999,-6.904791400000001,-1
72,73,1583552483156,4.9691,-9.4121,-9.033,14.312299,-15.016529,-7.584352,-1
73,74,1583552483166,8.8693,-9.393499,-10.1412,16.586245,-15.233463,-7.192574499999999,-1
74,75,1583552483176,8.8693,-9.393499,-10.1412,17.553617000000003,-15.1802635,-6.554845299999999,-1
75,76,1583552483186,10.3877,-9.1609,-9.5139,17.878662,-15.261801,-6.016763,-1
76,77,1583552483196,10.6081,-9.3592,-8.1867,17.283464000000002,-15.816087,-4.852711,-1
77,78,1583552483206,9.809299000000001,-9.8501,-6.7671,16.325909,-16.399305,-3.4511077000000006,-1
78,79,1583552483216,8.8691,-9.9333,-5.2276998,15.327688,-16.5092,-1.9998671000000001,-1
79,80,1583552483226,8.0743,-9.6066,-4.0551,14.554572,-16.15684,-0.96227753,-1
80,81,1583552483237,8.0743,-9.6066,-4.0551,14.243049,-15.674417000000002,-0.20099802,-1
81,82,1583552483247,7.397,-8.4226,-2.0967,13.897191000000001,-15.11834,0.8284321,-1
82,83,1583552483257,7.397,-8.4226,-2.0967,13.744805,-14.679684,1.4574176,-1
83,84,1583552483267,6.9925,-7.5532,-0.6245,13.333951,-14.338757999999999,2.4270694,-1
84,85,1583552483277,6.6710997,-7.4792,0.23869999,13.111865,-14.426836999999999,3.195924,-1
85,86,1583552483288,6.6028,-7.8258996,1.4133999,13.145268,-14.906347,4.4750695,-1
86,87,1583552483297,6.657,-8.2262,2.7849998,13.203419,-15.160267999999999,5.712124299999999,-1
87,88,1583552483307,6.4649997,-8.0799,4.2201,12.936418,-14.854239999999999,6.886002,-1
88,89,1583552483317,5.7358,-7.5604,5.2002997,12.214862,-14.2573185,7.71475,-1
89,90,1583552483327,4.7146,-6.824,5.857599700000001,11.283327,-13.390339,8.293036,-1
90,91,1583552483337,3.6919,-6.0032,6.3917,10.379228999999999,-12.476539,8.693078,-1
91,92,1583552483348,2.7842999,-5.3265,6.5951,9.599944,-11.5777855,8.787831,-1
92,93,1583552483358,2.3516998,-4.8180000000000005,6.7114997,9.528012,-11.002238,8.882977,-1
93,94,1583552483368,2.3272998,-4.4171,6.9396,9.665133,-10.488719999999999,9.038791,-1
94,95,1583552483378,2.3653,-4.0667,7.0807,9.851911,-9.992775,9.015711,-1
95,96,1583552483388,2.2196,-3.8388,7.0452,9.671494000000001,-9.627611,8.895991,-1
96,97,1583552483398,1.5867,-3.5498998,7.2219996,9.0149355,-9.059286,9.146234,-1
97,98,1583552483409,0.5098,-3.0716999,7.7212,8.006526,-8.335395,9.558199,-1
98,99,1583552483420,-0.7102,-2.5572999,8.1461,6.958421,-7.6722383,9.754380000000001,-1
99,100,1583552483430,-1.7328,-2.2941,7.943,6.3146496,-7.264956,8.9330635,-1
100,101,1583552483440,-1.9756999,-2.2061,6.9157996,6.8230343,-6.865440400000001,7.6514372999999996,-1
101,102,1583552483451,-1.2444,-2.0139,5.6021,7.886328,-6.655507000000001,6.4063377,-1
102,103,1583552483461,-0.35909998,-2.1325998,4.4547,8.678358,-6.601331,5.302783,-1
103,104,1583552483471,0.1236,-2.2171,3.5488,8.85304,-6.2364073,4.889803,-1
104,105,1583552483481,-0.1117,-1.9583999,3.6627998,8.241111,-5.7094526,5.5052943,-1
105,106,1583552483491,-1.1995,-1.6136,4.6235,6.858497,-4.9546566,6.4852123,-1
106,107,1583552483502,-2.7710000000000004,-0.9748,5.6650996,5.1833797,-3.9917376000000004,7.536889599999999,-1
107,108,1583552483512,-4.2118,-0.56229997,6.4712996,4.161218,-3.8997425999999997,7.573904,-1
108,109,1583552483522,-5.2146,-0.7795,6.1906,3.8317377999999995,-3.656712,6.4210769999999995,-1
109,110,1583552483532,-5.4371,-0.6588,4.8870997,4.086423399999999,-3.0652006000000003,5.005529,-1
110,111,1583552483542,-5.1861997,-0.2549,3.4371998,4.660783,-2.502841,4.018658,-1
111,112,1583552483553,-4.5861998,0.1237,2.5871,5.232288400000001,-1.8362378000000001,3.9317292999999998,-1
112,113,1583552483563,-4.1819,0.6082,2.6485999,5.092792500000001,-1.290197,4.3672633,-1
113,114,1583552483573,-4.4953,0.8976,3.1739,4.602355,-1.0557089,4.849092,-1
114,115,1583552483584,-5.0253997,0.9213,3.7161998999999994,4.3050427,-0.9812970999999999,5.302007,-1
115,116,1583552483594,-5.317199700000001,0.792,4.2565,4.2605486,-0.8396273999999999,5.5165086,-1
116,117,1583552483604,-5.3578,0.8172,4.5017,4.101066599999999,-0.56789505,5.050636,-1
117,118,1583552483614,-5.5684,0.8696,4.1154,3.6450381000000003,-0.37087142,4.091508999999999,-1
118,119,1583552483624,-6.0466,0.9129999999999999,3.2164,3.3269637000000003,-0.0713089,3.0817113,-1
119,120,1583552483634,-6.3911,1.0795,2.25,3.3477645,0.19100942,2.3892889999999998,-1
120,121,1583552483644,-6.3385997000000005,1.2551999,1.4426,3.6967144,0.37497985,1.5931209,-1
121,122,1583552483654,-6.0477,1.2940999,0.847,4.0819035,0.2958563,1.00273,-1
122,123,1583552483664,-5.667000000000001,1.1251999,0.3066,4.495410400000001,0.26755682,0.5995943,-1
123,124,1583552483674,-5.2657,1.0297999,-0.018099999,4.968074,0.33724725,0.27963316,-1
124,125,1583552483684,-4.8139997,1.0539,-0.24419999,5.248597599999999,-0.020628443,-0.15267345,-1
125,126,1583552483695,-4.5273,0.6627,-0.5710000000000001,5.302084,-0.33006462,-0.5294633000000001,-1
126,127,1583552483705,-4.4846,0.301,-0.8763,5.131885,-0.42915586,-0.9968019,-1
127,128,1583552483715,-4.6665998,0.16129999,-1.2766,4.794389,-0.5070249,-1.615952,-1
128,129,1583552483726,-5.0048,0.029199999,-1.8254,4.718723000000001,-0.57816136,-2.44991,-1
129,130,1583552483735,-5.0871997,-0.1024,-2.5893,5.3141985,-0.43945092,-3.0307720000000002,-1
130,131,1583552483745,-4.492,-0.0028,-3.096,6.0855627,-0.1837885,-3.1443243,-1
131,132,1583552483755,-3.7192,0.20109999,-3.1408,6.523749400000001,-0.07521624,-3.0083432,-1
132,133,1583552483765,-3.2793998999999996,0.26119998,-2.9013,6.5546727,0.013809755,-2.6255965,-1
133,134,1583552483776,-3.3385,0.3883,-1.8288,6.44907,0.17362750000000002,-1.9458444,-1
134,135,1583552483786,-3.3385,0.3883,-1.8288,6.410887000000001,0.23718877,-1.7246104,-1
135,136,1583552483796,-3.3369,0.4667,-1.7613,6.5092983,0.27943206,-2.2750854,-1
136,137,1583552483806,-3.0906,0.38979998,-2.8402998,6.80435,0.22827277,-3.4656742,-1
137,138,1583552483816,-2.4227,0.375,-4.0359,7.5881925,0.23661417,-4.648295,-1
138,139,1583552483826,-1.3623999,0.49679998,-4.8731,8.639122,0.36472312,-5.416096,-1
139,140,1583552483836,-0.4394,0.6083,-5.0035,9.502357,0.47425306,-5.388362,-1
140,141,1583552483846,0.022799998999999998,0.6913,-4.1886,9.845253999999999,0.5536734999999999,-4.4263806,-1
141,142,1583552483856,-0.162,0.67329997,-2.8116999,9.540319,0.55059934,-3.0953677,-1
142,143,1583552483866,-0.162,0.67329997,-2.8116999,8.948358,0.44422978,-2.4401321,-1
143,144,1583552483876,-1.5324999,0.41979998,-1.6477,8.197689,0.33972764,-2.2416812999999998,-1
144,145,1583552483886,-1.6103,0.44039997,-1.6929,8.256567,0.37953842,-2.3009236,-1
145,146,1583552483896,-1.0902,0.4579,-1.8534,8.854726,0.38565803,-2.4768782000000003,-1
146,147,1583552483907,-0.43289998,0.36229998,-1.9286,9.457758,0.26399428,-2.5417994999999998,-1
147,148,1583552483917,-0.43289998,0.36229998,-1.9286,9.639611,0.21475989,-2.5091232999999997,-1
148,149,1583552483927,0.1761,0.1197,-1.8485999,10.04449,-0.03934152,-2.4599943,-1
149,150,1583552483937,0.5107,0.0245,-1.8945999,10.425255,-0.18352036,-2.5866284,-1
150,151,1583552483947,0.7669,-0.1121,-1.9877,10.5796995,-0.30359435,-2.6446542999999996,-1
151,152,1583552483957,0.7876,-0.1953,-2.083,10.580677,-0.38745844,-2.743104,d
152,153,1583552483967,0.74899995,-0.2263,-1.8985,10.53215,-0.446691,-2.4519212,-1
153,154,1583552483977,0.6221,-0.2647,-1.1844,10.368732000000001,-0.46315354,-1.7030531000000002,-1
154,155,1583552483989,0.299,-0.2014,-0.55799997,9.919972,-0.30634290000000003,-1.0618188,-1
155,156,1583552483999,0.0444,-0.050899997,-0.31559998,9.779529,-0.17669210000000002,-0.98688996,-1
156,157,1583552484009,-0.063099995,0.0853,-0.26229998,9.707769,-0.06799533,-0.9699581,-1
157,158,1583552484019,-0.08249999599999999,0.1519,-0.33899999999999997,9.716102000000001,-0.043689393,-1.0839988,-1
158,159,1583552484029,0.0058999998,0.1002,-0.4585,9.916113000000001,-0.18390343,-1.1395538,-1
159,160,1583552484039,0.24159999,-0.0123,-0.4123,10.154499000000001,-0.32948047,-1.0459118,-1
160,161,1583552484050,0.5852,-0.20889999,-0.33789998,10.521798,-0.5880064,-1.0193648000000002,-1
161,162,1583552484060,0.94839996,-0.47469997,-0.3834,10.971007,-0.8137795999999999,-1.0915166,-1
162,163,1583552484070,1.2722,-0.49269998,-0.43969998,11.125577,-0.7004764,-1.1211759,-1
163,164,1583552484080,1.321,-0.3058,-0.45729998,11.055311999999999,-0.5424208,-1.0712616000000001,-1
164,165,1583552484090,1.0850999,-0.0923,-0.22899999,10.552261,-0.31753817,-0.6906793000000001,-1
165,166,1583552484101,0.53529996,0.0828,0.059899997,10.051711,-0.09735782,-0.46483904,-1
166,167,1583552484111,0.1228,0.26639998,0.23259999,9.795033,0.012306198,-0.39670965,-1
167,168,1583552484121,0.0047,0.26029998,0.2593,9.893751,-0.16178098,-0.33308133,-1
168,169,1583552484131,0.20089999,0.0486,0.3274,10.222513000000001,-0.34460223,-0.34559825,-1
169,170,1583552484141,0.60359997,-0.0755,0.23169999,10.632458,-0.43517968,-0.5457631,-1
170,171,1583552484151,0.9964,-0.1453,-0.0042,11.101357,-0.56757903,-0.75947905,-1
171,172,1583552484162,1.3987,-0.2157,-0.15689999,11.437178,-0.5212846999999999,-0.92478436,-1
172,173,1583552484172,1.6831,-0.1453,-0.3196,11.510469,-0.5297314999999999,-1.0633895,-1
173,174,1583552484182,1.7124,-0.18249999,-0.4396,11.455202,-0.61244637,-1.1614368,-1
174,175,1583552484192,1.6436,-0.2696,-0.5656,11.402175,-0.6116898000000001,-1.2102594,-1
175,176,1583552484202,1.6139,-0.2784,-0.55979997,11.356973,-0.5868475999999999,-1.1102008999999997,-1
176,177,1583552484212,1.5548999,-0.2846,-0.44169998,11.266548,-0.5179041,-1.0246418,-1
177,178,1583552484222,1.4274,-0.2366,-0.37,10.999355,-0.47848599999999997,-1.0654293,-1
178,179,1583552484233,1.1529,-0.21,-0.3761,10.668409,-0.44701660000000004,-0.7694485,-1
179,180,1583552484243,0.8197,-0.2316,0.009699999,10.38598,-0.45754153,-0.2855229,-1
180,181,1583552484253,0.5749,-0.2871,0.48319998,10.387857,-0.5720993000000001,-0.027207707999999997,-1
181,182,1583552484263,0.6439,-0.4542,0.7181,10.728926,-0.82537705,0.14715720000000002,-1
182,183,1583552484273,1.0263,-0.713,0.8358,11.196485000000001,-1.125294,-0.077744514,-1
183,184,1583552484285,1.5062,-1.0246998999999999,0.5028,11.583177000000001,-1.3371806999999998,-1.1117332,-1
184,185,1583552484295,1.7892,-1.1705999,-0.4391,11.590387,-1.2526559,-2.1667335,-1
185,186,1583552484305,1.7971,-1.0903,-1.515,11.445203,-1.0222093,-2.8086379,-1
186,187,1583552484315,1.6480999,-0.8854,-2.1876,11.370332000000001,-0.7762385,-2.7156281000000004,-1
187,188,1583552484325,1.2925,-0.4402,-1.2852,10.979167,-0.43981484,-1.6952958999999999,-1
188,189,1583552484335,0.5176,-0.3153,-0.3663,10.121086,-0.2885109,-0.8177827,-1
189,190,1583552484346,0.5176,-0.3153,-0.3663,9.454913000000001,-0.25189874,-0.3813293,-1
190,191,1583552484356,-0.8339,-0.21139999,0.5656,8.922673,-0.03880522,0.039619252,-1
191,192,1583552484367,-0.8339,-0.21139999,0.5656,8.930784,0.0739138,0.28281268,-1
192,193,1583552484377,-0.77199996,-0.1392,1.0056,9.053989999999999,0.121089146,0.39031234,-1
193,194,1583552484387,-0.66319996,-0.24659999,0.8706,9.1477375,-0.012966996000000001,0.16626294,-1
194,195,1583552484398,-0.5749,-0.3356,0.6267,9.285921,-0.04776911,-0.07323384,-1
195,196,1583552484408,-0.39909998,-0.31239998,0.2436,9.414615,0.08923668400000001,-0.59742033,-1
196,197,1583552484418,-0.3021,-0.1718,-0.4411,9.542311999999999,0.22580196,-1.2365285,-1
197,198,1583552484428,-0.1951,-0.0352,-0.9404,9.610775,0.3504345,-1.5696481000000002,-1
198,199,1583552484438,-0.2052,0.025899999,-1.0529,9.560746,0.46745349999999997,-1.464064,-1
199,200,1583552484449,-0.30269998,0.108799994,-0.72529995,9.378203,0.55240935,-0.99427366,-1
200,201,1583552484459,-0.65419996,0.077,-0.1625,8.881215,0.5336005,-0.30021375,-1
201,202,1583552484469,-1.0539,0.022599999,0.4684,8.610746,0.52236694,0.24917895,-1
202,203,1583552484479,-1.3455,-0.087699994,1.0459,8.376239,0.45715845,0.62732875,-1
203,204,1583552484489,-1.5785999,-0.1704,1.1504999,8.215914,0.330917,0.50469774,-1
204,205,1583552484500,-1.4695,-0.3405,0.8915,8.421126,0.24470657,0.35283828,-1
205,206,1583552484510,-0.95949996,-0.2766,0.6101,8.995733999999999,0.4279013,0.027485436000000002,-1
206,207,1583552484520,-0.65639997,-0.07719999599999999,0.3047,9.160531,0.6410906,-0.32879093,-1
207,208,1583552484530,-0.6274,0.0422,-0.0196,9.103425,0.78358394,-0.62270314,-1
208,209,1583552484540,-0.7352,0.1426,-0.3117,9.011880999999999,0.8031014,-0.78019375,-1
209,210,1583552484551,-0.81299996,0.1135,-0.3274,8.985631,0.72443753,-0.48964298,-1
210,211,1583552484561,-0.79209995,-0.014599998999999999,0.0819,9.017522,0.6260646,0.10047985599999999,-1
211,212,1583552484572,-0.7708,-0.1034,0.5379,8.995102000000001,0.5813218000000001,0.41464700000000004,-1
212,213,1583552484582,-0.779,-0.15259999,0.8466,9.069179,0.6629927,0.5554739000000001,-1
213,214,1583552484592,-0.6992,-0.0722,0.90599996,9.188381,0.7916284,0.32163706,-1
214,215,1583552484602,-0.5609,0.030199998999999998,0.6166,9.390719,0.85306364,-0.14095144,-1
215,216,1583552484613,-0.3346,0.0852,0.17639999,9.656955,0.9510152,-0.40381566,-1
216,217,1583552484623,-0.0985,0.1502,-0.0681,9.665498,0.9191149,-0.5498524,-1
217,218,1583552484633,-0.13669999,0.104899995,-0.18249999,9.498239,0.92093444,-0.55320424,-1
218,219,1583552484643,-0.3019,0.085599996,-0.1752,9.446438,0.92287856,-0.513652,-1
219,220,1583552484653,-0.3197,0.074599996,-0.1451,9.577237,0.9798030999999999,-0.45430458,-1
220,221,1583552484663,-0.1611,0.1339,-0.055999997999999995,9.776685,1.1581712,-0.27125347,-1
221,222,1583552484673,0.046299997999999995,0.2934,0.1398,9.934606,1.2523111,0.047194503,-1
222,223,1583552484684,0.1654,0.3362,0.38369998,9.864828999999999,1.1708891000000001,0.30983844,d
223,224,1583552484694,0.068799995,0.2419,0.7262,9.754189,1.0614836,0.48626235,-1
224,225,1583552484704,-0.047399998,0.040799998,0.7766,9.777047999999999,0.8066736,-0.07121313,-1
225,226,1583552484714,0.012499999,-0.1378,0.2956,10.055935,0.83939755,-0.7112024,-1
226,227,1583552484724,0.2979,-0.1284,-0.3527,10.254951,0.98696655,-1.1674415,-1
227,228,1583552484734,0.4851,0.0167,-0.80869997,10.134319999999999,1.1623563000000001,-1.1396976,-1
228,229,1583552484745,0.37849998,0.1769,-0.7994,9.875488,1.2556151000000002,-0.72517496,-1
229,230,1583552484755,0.1156,0.2435,-0.3892,9.593575999999999,1.3153936000000002,-0.25250208,-1
230,231,1583552484765,-0.16569999,0.2701,0.070999995,9.379486,1.3672041000000001,-0.004003105,-1
231,232,1583552484775,-0.41939998,0.3259,0.37309998,9.011144,1.3498222,0.2834639,-1
232,233,1583552484785,-0.7507,0.2683,0.5906,8.670017,1.2172216999999999,0.32072726,-1
233,234,1583552484796,-1.0825,0.1363,0.63379997,8.594935000000001,1.2249789,0.40158424,-1
234,235,1583552484806,-1.1788,0.2391,0.5764,8.576269,1.3601555,0.22583069,-1
235,236,1583552484816,-1.2177,0.3031,0.31469998,8.495317,1.415318,-0.07743806,-1
236,237,1583552484826,-1.2177,0.3031,0.31469998,8.2988,1.5316092,-0.3291357,-1
237,238,1583552484836,-1.9418,0.6082,-0.2701,7.7016587,1.7806060000000001,-0.6310254,-1
238,239,1583552484846,-2.4105,0.7877,-0.3646,7.2631364000000005,1.9602191000000002,-0.6369630000000001,-1
239,240,1583552484857,-2.8391,0.8859999999999999,0.12459999,6.7599807,2.0636773,-0.065218054,-1
240,241,1583552484867,-3.6885998,0.7866,0.8759,5.8380694,1.9280026999999997,0.6558771999999999,-1
241,242,1583552484877,-4.7044997,0.5527,1.3715,4.842167400000001,1.7316973999999998,1.0171238999999999,-1
242,243,1583552484887,-5.4961,0.4463,1.4606999,3.959847,1.6741886000000001,1.0141072,-1
243,244,1583552484897,-6.1723,0.51129997,1.3292999,3.4173877,1.746187,0.79607207,-1
244,245,1583552484908,-6.7535,0.6415,0.8616,2.9311254,1.8763838,0.30706117,-1
245,246,1583552484918,-6.857199700000001,1.1011,0.3263,2.8929138,2.378084,-0.22134873,-1
246,247,1583552484928,-6.8942,1.8655,-0.0047999997999999995,2.7523837,3.2398434,-0.4513166,-1
247,248,1583552484938,-7.303999999999999,2.5347,-0.1682,2.2031636000000003,3.6611269,-0.62988573,-1
248,249,1583552484948,-7.85,2.7326999,-0.3188,1.7594606,3.7565120000000003,-0.4505792,-1
249,250,1583552484959,-7.85,2.7326999,-0.3188,1.5565088,3.597949,0.45164222,-1
250,251,1583552484969,-8.5472,2.378,1.4271,0.8775994,2.964328,1.6269559,-1
251,252,1583552484979,-9.4908,1.6607,2.7091,-0.14173675,2.1858103,2.7039921000000002,-1
252,253,1583552484990,-10.5625,1.0488,3.4148998,-1.3374202,1.4936563,2.9586587000000004,-1
253,254,1583552485000,-11.3123,0.70849997,3.2944998999999995,-1.655964,1.2217227,2.3516232999999995,-1
254,255,1583552485010,-11.4078,0.64059997,2.3195999,-1.5135664,1.1137826000000002,0.76650846,-1
255,256,1583552485021,-11.1423,0.74799997,0.6726,-1.1021756,1.0528549999999999,-0.37302622,-1
256,257,1583552485031,-10.689,0.8638,-0.105399996,-0.5612295999999999,0.95344776,-0.53148407,-1
257,258,1583552485041,-9.9962,0.9669,-0.0163,0.35286704,0.6048903,-0.0132638775,-1
258,259,1583552485052,-9.130199000000001,0.5994,0.51089996,1.1793933,-0.46212882,0.82183367,-1
259,260,1583552485062,-8.561299,-0.08109999400000001,1.2294999,0.9970604999999999,-1.5340705,1.3561333,-1
260,261,1583552485072,-8.937099,-0.98069996,1.6890999,0.34405637,-2.7576606,1.4221462,-1
261,262,1583552485083,-9.513,-1.9497999,1.7722,-0.14551,-3.5963209000000003,1.7820904999999998,-1
262,263,1583552485093,-9.9452,-2.4589,2.2581,-0.5103672,-4.175028299999999,2.159225,-1
263,264,1583552485104,-10.2034,-2.7944,2.5077999,-0.04222414,-4.7596917,1.687395,-1
264,265,1583552485114,-9.668,-2.9801,2.0125,0.8243619000000001,-4.768225,1.5655972,-1
265,266,1583552485124,-8.767099,-2.6803,1.8116,2.0697777,-5.2945375,0.95263374,-1
266,267,1583552485135,-7.4484,-2.8885999,1.0962,3.7737024,-5.936768,0.7187201999999999,-1
267,268,1583552485145,-5.6507998,-3.1857998,0.7855,4.860679599999999,-7.194192999999999,1.2477909,-1
268,269,1583552485155,-4.4529,-4.0987,1.2536,4.770725,-9.1108,1.9717974999999999,-1
269,270,1583552485165,-4.6872997000000005,-7.2352,3.2319,4.403751000000001,-11.450624000000001,3.542614,-1
270,271,1583552485176,-3.7621,-8.5425,3.6316,5.4552364,-12.923796000000001,3.5599383999999996,-1
271,272,1583552485186,-1.3597,-8.8582,2.0423,7.8885784,-13.452531,1.954023,-1
272,273,1583552485196,1.4722998999999999,-8.9422,0.114999995,10.427782,-14.015857999999998,0.21028753,-1
273,274,1583552485207,3.8541,-9.4262,-1.3083,12.469998,-14.873432000000001,-0.8531690000000001,-1
274,275,1583552485217,5.4504,-9.832,-1.3612,13.568045999999999,-15.587642,-0.46618938,-1
275,276,1583552485227,5.5733,-10.169,-0.0802,13.146227,-16.233158,0.99435025,-1
276,277,1583552485237,4.5334,-10.526899,1.3556,11.815232,-16.95429,2.4399118,-1
277,278,1583552485248,3.9664998,-11.1616,2.2898,11.280425,-17.828415,3.217874,-1
278,279,1583552485258,4.9442,-11.415899000000001,1.8931999,12.617203,-18.239573999999998,2.630423,-1
279,280,1583552485268,6.9258,-11.2276,0.98389995,14.279747,-18.284998,1.7347237000000002,-1
280,281,1583552485278,8.4784,-11.0239,-0.0717,15.313879,-18.18944,0.9776386999999999,-1
281,282,1583552485288,9.3398,-10.519,-0.5369,15.520441,-17.785692,0.94525,-1
282,283,1583552485298,9.1465,-9.970799000000001,-0.2333,14.734673499999998,-17.52369,1.7135206000000003,-1
283,284,1583552485309,8.414599,-9.485,0.6936,13.975875,-17.202234,2.4841279999999997,-1
284,285,1583552485319,7.9719,-8.9883995,1.0373,13.379345,-16.82647,2.6879413,-1
285,286,1583552485330,8.1834,-8.527599,0.71199995,13.671591000000001,-16.275898,2.1922843,-1
286,287,1583552485340,8.6532,-7.896,0.16319999,13.843044,-15.951991,1.8110125,-1
287,288,1583552485350,8.9403,-7.5955,-0.091299996,13.810828,-15.676122,1.7204063000000003,-1
288,289,1583552485360,8.8821,-7.0674996,-0.23539999,13.384554999999999,-14.918175,1.5469416,-1
289,290,1583552485370,8.3626995,-6.1639,-0.41579998,12.368762,-14.067179999999999,1.50579,-1
290,291,1583552485380,7.250099700000001,-5.3044,-0.3004,11.063999,-13.320208,1.7695831999999998,-1
291,292,1583552485391,6.055,-4.4842997,-0.0451,10.078785,-12.431327,1.9489473000000002,-1
292,293,1583552485401,5.4551,-3.5124,0.0703,9.707148,-11.42561,1.7552084,-1
293,294,1583552485411,5.2697,-2.7388,-0.3367,9.610689,-10.719406,1.215517,-1
294,295,1583552485422,5.2511,-1.9971,-0.8297,9.333661,-10.141742,1.3242426,-1
295,296,1583552485432,4.97,-1.4452,-0.6213,8.765143,-9.839958,1.7300214,-1
296,297,1583552485442,4.4103,-1.1823,-0.31329998,8.125900999999999,-9.545960000000001,1.9168171000000003,-1
297,298,1583552485452,3.8274998999999994,-0.8358,-0.1239,7.608150500000001,-9.221086,2.1492748,-1
298,299,1583552485463,3.3226,-0.5226,0.0611,7.022222,-9.010741000000001,2.143567,-1
299,300,1583552485473,2.7521,-0.3107,0.0009,6.426325,-8.738626,2.0010738,-1
300,301,1583552485483,2.1984,-0.0423,-0.1114,5.924787,-8.581366000000001,2.210911,-1
301,302,1583552485493,1.8118,0.0691,0.0695,5.7128906,-8.697569,2.4077435,-1
302,303,1583552485503,1.604,-0.092999995,0.29889998,5.7362103,-8.992516499999999,2.5875862,-1
303,304,1583552485514,1.7014999,-0.3822,0.4202,6.228985,-9.313914,2.1260319,-1
304,305,1583552485524,2.1689,-0.6428,-0.064399995,6.5724089999999995,-9.291762,1.3501766000000002,-1
305,306,1583552485534,2.5195,-0.62189996,-0.8476,6.440038700000001,-9.173364999999999,1.1889319999999999,-1
306,307,1583552485544,2.3853,-0.4964,-0.99039996,5.9036703,-9.042306,1.4607216,-1
307,308,1583552485555,1.8258,-0.3743,-0.7091,5.3384279999999995,-8.899956,1.8085224999999998,-1
308,309,1583552485565,1.102,-0.2149,-0.2453,4.6347437000000005,-8.743883,2.216954,-1
309,310,1583552485575,0.4953,-0.0955,0.089999996,4.317349,-8.503552,2.2640243,-1
310,311,1583552485585,0.15439999,0.14109999,0.1576,4.085054,-8.315953,2.2658343,-1
311,312,1583552485595,-0.0827,0.324,0.1665,4.0480394,-8.606275,2.3719069999999998,-1
312,313,1583552485606,0.37399998,-0.48749998,0.3315,4.6972322,-9.184828,2.3780456,d
313,314,1583552485616,1.0631,-0.6908,0.1608,5.3533683,-9.35815,2.18627,-1
314,315,1583552485626,1.4110999,-0.81,-0.1393,5.588603,-9.502376,1.8384022,-1
315,316,1583552485636,1.2570000000000001,-0.9353,-0.6175,5.407582,-9.565497,1.3772501,-1
316,317,1583552485646,0.9953,-0.82979995,-0.7621,5.148788,-9.422477,1.3104806999999998,-1
317,318,1583552485657,0.56229997,-0.6477,-0.6002,4.730224,-9.247633,1.5366465,-1
318,319,1583552485667,0.19899999999999998,-0.73939997,-0.1524,4.4710754999999995,-9.372419,1.9888443,-1
319,320,1583552485677,0.2932,-0.85789996,0.1759,4.6666055,-9.447616,2.2565446,-1
320,321,1583552485688,0.7089,-0.9051,0.1461,5.0286756,-9.485253,2.1946209999999997,-1
321,322,1583552485697,1.1668999,-1.0497999,-0.0836,5.59795,-9.686327,1.9119616000000001,-1
322,323,1583552485707,1.6227,-1.3627,-0.3735,6.0616975,-9.983582499999999,1.6410335999999999,-1
323,324,1583552485717,2.1701,-1.5807999,-0.4867,6.730973,-10.153407000000001,1.5710655,-1
324,325,1583552485727,2.5031,-1.6662999,-0.5128,6.888261999999999,-10.247835,1.5550148000000001,-1
325,326,1583552485737,2.3255,-1.837,-0.5141,6.670648,-10.431776,1.5643618000000001,-1
326,327,1583552485748,2.112,-2.1499999,-0.5306,6.671730499999999,-10.715729,1.5134035,-1
327,328,1583552485758,2.112,-2.1499999,-0.5306,7.1740336,-10.771725,1.4547839,-1
328,329,1583552485768,2.9938,-2.2702,-0.6325,7.8049919999999995,-10.614205,1.5787079,-1
329,330,1583552485778,3.4064998999999996,-2.1355,-0.4173,8.182528999999999,-10.496707,1.7702631999999998,-1
330,331,1583552485788,3.6629998999999995,-2.2092,-0.32729998,8.4888525,-10.588614999999999,1.7764306,-1
331,332,1583552485798,3.9032,-2.3353,-0.3012,8.812826,-10.69169,1.8448856,-1
332,333,1583552485809,4.1309,-2.5239,-0.25059998,9.12958,-10.877576,1.8324358,-1
333,334,1583552485819,4.4358997,-2.8051999,-0.3193,9.595645,-11.077301,1.7053611000000002,-1
334,335,1583552485829,4.9746,-2.9538,-0.5349,10.280567999999999,-11.218741,1.422874,-1
335,336,1583552485839,5.5671,-3.2152,-0.95949996,10.922262,-11.392857000000001,0.9670084999999999,-1
336,337,1583552485849,6.139199700000001,-3.424,-1.3965,11.548537,-11.542810000000001,0.6619393,-1
337,338,1583552485859,6.5776997,-3.6202998,-1.4419999,12.069889,-11.668343,0.7307199000000001,-1
338,339,1583552485869,6.6531997,-3.7477,-1.2576,12.103829,-11.645636999999999,0.9159258,-1
339,340,1583552485879,6.4164,-3.7782,-0.6709999999999999,11.854708,-11.591585,1.6416945,-1
340,341,1583552485890,5.8729997,-3.8392,0.0625,11.436200999999999,-11.543213,2.183914,-1
341,342,1583552485900,5.1491,-3.8511,0.48749998,10.778609,-11.38824,2.5537512,-1
342,343,1583552485910,4.5646,-3.8699,0.8612,10.540319,-11.327017,2.8514178,-1
343,344,1583552485920,4.3089,-3.9129,1.0741,10.515601,-11.1966,2.7297826,-1
344,345,1583552485930,4.0871,-3.8819999999999997,0.7073,10.442014,-11.0882,1.9631016,-1
345,346,1583552485941,3.9053998,-3.9447,-0.113199994,10.450758,-11.001051,1.3319231000000002,-1
346,347,1583552485951,3.7503998,-4.0134,-0.4425,10.448153,-10.942211,1.4218016000000002,-1
347,348,1583552485961,3.5282998,-4.0813,-0.0033999997999999997,10.167083,-10.870901,2.2408577999999997,-1
348,349,1583552485971,2.9229998999999998,-4.1324,1.1775,9.500019,-10.774242999999998,3.5802894,-1
349,350,1583552485981,1.9659,-4.2861,2.5561,8.881109,-10.745502,4.502076000000001,-1
350,351,1583552485991,1.3004,-4.3547,3.217,8.468971,-10.350191,4.3167844,-1
351,352,1583552486001,0.84489995,-4.1094,2.9592,8.291284,-9.888628,3.9861254999999995,-1
352,353,1583552486012,0.45479998,-3.7533,2.7121,7.946575599999999,-9.3438225,3.7380288,-1
353,354,1583552486022,-0.2127,-3.4522998,2.5462,7.1600614,-8.772307000000001,3.4322126,-1
354,355,1583552486032,-1.0294,-3.1748998,2.4143,6.7148356,-8.263617,3.2770492999999994,-1
355,356,1583552486042,-1.5623,-2.8783,2.3704998,6.666568300000001,-7.741267999999999,3.3385993999999997,-1
356,357,1583552486052,-1.6825999,-2.5981,2.5269999999999997,6.8497057,-7.384167999999999,3.2682578999999996,-1
357,358,1583552486063,-1.5763999,-2.4603,2.5198,7.327109299999999,-7.2356606,3.2155468,-1
358,359,1583552486073,-1.1672,-2.5753,2.6036,7.854064,-7.207217,3.3397867999999993,-1
359,360,1583552486083,-0.8307,-2.7228,2.8257,7.857071,-6.898279,3.4205097999999996,-1
360,361,1583552486093,-1.06,-2.5563,3.0247998,7.4587235,-6.290947,3.6269093,-1
361,362,1583552486103,-1.5906999,-2.1264,3.2963998,6.8982600000000005,-5.512965,3.59634,-1
362,363,1583552486114,-2.273,-1.5562999,3.287,6.22503,-4.414094,3.2583647,-1
363,364,1583552486124,-2.9276,-0.86759996,3.0583,5.952292,-3.5769949999999997,2.6986485,-1
364,365,1583552486134,-3.2875997999999997,-0.2599,2.5678,5.9387693,-2.9538605,1.9931153999999998,-1
365,366,1583552486144,-3.362,0.2821,1.7696999,6.1618037,-2.2048012999999997,1.030474,-1
366,367,1583552486154,-3.2196999,0.7012,1.0770998999999999,6.6935463,-1.9034957,0.6461663000000001,-1
367,368,1583552486165,-2.7447999,0.8181,0.79749995,7.150206599999999,-1.8300128,1.0649122,-1
368,369,1583552486175,-2.3315,0.7054,1.3339,7.1414919999999995,-2.057395,2.2578185,-1
369,370,1583552486186,-2.3846,0.3041,2.6427999,6.592147,-2.6014245,3.7270440000000002,-1
370,371,1583552486196,-3.8453998999999994,-0.5895,5.0896,5.5551224,-2.4475062000000003,4.477521,-1
371,372,1583552486206,-5.0174,-0.059499998,4.5903997,4.3721285000000005,-1.6722542,3.7200531999999997,-1
372,373,1583552486216,-5.0174,-0.059499998,4.5903997,3.4540095,-1.0668658000000002,2.7766322999999997,-1
373,374,1583552486226,-6.6586,0.9982,2.4398,3.0836456,-0.22758323,1.4990863,-1
374,375,1583552486238,-6.1931,1.4702,1.6545999,3.752126,0.3077986,0.76273525,-1
375,376,1583552486248,-5.3578997,1.7736,1.1937,4.6334605,0.64028615,0.45962927,-1
376,377,1583552486258,-4.8222,1.8289,1.4113,4.936767,0.56171805,0.91569597,-1
377,378,1583552486268,-4.772599700000001,1.3586999,2.3216999,4.9279470000000005,0.060927648,1.6943861,-1
378,379,1583552486278,-4.6024,0.4868,3.0446,5.289912,-1.0044634,2.1706505000000003,-1
379,380,1583552486288,-4.0882,-0.29549998,2.8944,5.797761,-1.4360901000000001,1.5333712,-1
380,381,1583552486299,-3.8302,-0.20289999,1.7929,5.796784,-1.0324851000000002,0.10213664,-1
381,382,1583552486309,-4.1818,0.3761,0.1257,5.273373,-0.37927985,-1.669429,-1
382,383,1583552486319,-4.838,0.7949,-1.3249999,4.6005254,-0.032762256000000003,-2.888413,-1
383,384,1583552486329,-5.3848,0.97059995,-1.8713,4.218823,0.19259916,-3.0253514999999997,-1
384,385,1583552486339,-5.5154,1.0170000000000001,-1.1184,4.2207574999999995,0.19626707,-1.8119221999999997,-1
385,386,1583552486350,-5.2969,0.82989997,0.8696,4.460867400000001,0.06777506,0.11611878,-1
386,387,1583552486360,-5.2106,0.6597,2.3432999,4.3351617,-0.113360666,0.8064533,-1
387,388,1583552486370,-5.3977,0.39409998,2.2561,4.197495,-0.4101459,-0.20766348,-1
388,389,1583552486381,-5.4312997,0.0751,1.0371,4.313748,-0.504736,-1.5855457,-1
389,390,1583552486391,-5.1858,0.14389999,-0.1398,4.6285377,-0.28389487,-2.5198205000000002,-1
390,391,1583552486401,-4.8563,0.27339998,-0.7942,4.9874763,-0.43172243,-2.7729359000000002,-1
391,392,1583552486411,-4.4704,-0.0023,-0.7671,5.334309999999999,-0.73034644,-2.621057,-1
392,393,1583552486422,-4.1337,-0.22729999,-0.7114,5.617889,-0.7604941999999999,-2.9364502,-1
393,394,1583552486432,-3.8455,-0.1389,-1.2027999,6.012243,-0.51117164,-3.4994035000000006,-1
394,395,1583552486442,-3.3895,0.17379999,-1.6984999,6.498505000000001,-0.24794352,-4.1046,-1
395,396,1583552486452,-3.0203998,0.2879,-2.1383,6.908517,-0.27398288,-4.0452433,-1
396,397,1583552486462,-2.6097,0.2598,-1.8311,7.142678999999999,-0.41320089,-3.1665997999999997,-1
397,398,1583552486472,-2.4217,0.0594,-0.8628,7.040399000000001,-0.7731452,-2.4764473,-1
398,399,1583552486483,-2.5556997999999997,-0.34,-0.2024,6.796209299999999,-1.1421875,-2.3136509999999997,-1
399,400,1583552486493,-2.7884998,-0.72679996,-0.077,6.8381944,-1.4333031999999999,-2.462312,-1
400,401,1583552486503,-2.582,-0.95589995,-0.2287,7.5508619999999995,-1.4235828000000001,-2.9251688,-1
401,402,1583552486514,-1.7808,-0.87549996,-0.7129,8.532916,-1.181347,-3.5053410000000005,-1
402,403,1583552486525,-0.9939,-0.6538,-1.1891,9.002553,-1.1154393999999999,-3.8593574,-1
403,404,1583552486535,-0.5239,-0.55469996,-1.5425999,9.203617999999999,-0.9123344999999999,-4.0182459999999995,-1
404,405,1583552486545,-0.3193,-0.3199,-1.7220999,9.024436,-0.7850013000000001,-4.0424370000000005,-1
405,406,1583552486555,-0.50549996,-0.1689,-1.757,8.791528,-0.9035716999999999,-3.7404612999999998,-1
406,407,1583552486565,-0.7277,-0.2683,-1.4340000000000002,9.024636,-1.1017733,-3.6747932,-1
407,408,1583552486576,0.251,-0.39839998,-1.5677999,9.911717,-1.0523761999999999,-3.9527120000000004,-1
408,409,1583552486586,0.88879997,-0.33049998,-1.6305,10.514911999999999,-1.0199299000000002,-4.0042352999999995,-1
409,410,1583552486596,1.1717,-0.2792,-1.4146999,10.6255245,-0.9755031,-3.7270440000000002,-1
410,411,1583552486606,0.8836,-0.2074,-0.9702,10.212936000000001,-0.8904036,-3.3098402,-1
411,412,1583552486616,0.2796,-0.1309,-0.611,9.625753999999999,-0.8276372,-3.047024,-1
412,413,1583552486626,-0.30609998,-0.1205,-0.44419998,9.097852,-0.8006306,-2.9124985,-1
413,414,1583552486637,-0.3726,-0.0416,-0.53679997,9.165904,-0.7389943,-3.0754576,-1
414,415,1583552486647,-0.3726,-0.0416,-0.53679997,9.555900999999999,-0.6941748999999999,-3.3054062999999996,d
415,416,1583552486657,0.7238,-0.0959,-0.9244,10.309279,-0.9259335999999999,-3.402333,-1
416,417,1583552486667,1.2107999,-0.22119999,-0.8118,10.767559,-1.0599227,-3.3339449999999995,-1
417,418,1583552486677,1.3944,-0.2926,-0.82299995,10.845944,-1.1271806,-3.363997,-1
418,419,1583552486687,1.2931,-0.3037,-0.80439997,10.66568,-1.1523197,-3.37638,-1
419,420,1583552486697,0.8563,-0.3044,-0.82019997,10.201234,-1.1542447,-3.3640160000000003,-1
420,421,1583552486707,0.42749998,-0.3313,-0.5658,9.780773,-1.1765299,-3.0759842,-1
421,422,1583552486717,0.106,-0.2627,-0.4208,9.5108795,-1.109473,-3.0252175,-1
422,423,1583552486727,0.098799996,-0.13329999,-0.657,9.639727,-0.9540415000000001,-3.4040567999999998,-1
423,424,1583552486737,0.3877,-0.0773,-1.1236,9.872251,-0.95362014,-3.8640501000000005,-1
424,425,1583552486748,0.7173,-0.2136,-1.6349,10.194157,-1.1322945,-4.2899785,-1
425,426,1583552486758,0.7173,-0.2136,-1.6349,10.410745,-1.5616708000000001,-4.154122,-1
426,427,1583552486768,1.1229,-0.9303,-1.3288,10.592781,-1.9328294999999998,-3.8551724000000003,-1
427,428,1583552486778,1.1856999,-1.1259,-1.0697,10.489745,-2.0320356,-3.7866406,-1
428,429,1583552486788,0.87439996,-1.1816,-1.3333,10.115637,-2.0775063,-4.2666974,-1
429,430,1583552486798,0.5035,-1.214,-2.0194,9.80054,-2.1085830000000003,-5.0127883,-1
430,431,1583552486809,0.31919998,-1.2301999,-2.7033,9.73017,-2.087332,-5.647893,-1
431,432,1583552486820,0.43039998,-1.2085999,-3.3335,9.968508,-1.9904819,-6.544617,-1
432,433,1583552486830,0.66969997,-1.1103,-4.1672,10.083553,-1.8316122,-7.5185785,-1
433,434,1583552486840,0.6642,-0.9759,-5.1267,9.959104,-1.7561374,-8.397317,-1
434,435,1583552486850,0.48049998,-0.96459997,-5.9239999999999995,9.636700999999999,-1.7779436999999998,-9.11893,-1
435,436,1583552486861,0.1362,-1.127,-6.5164,9.351264,-1.9611576000000002,-9.285423,-1
436,437,1583552486871,-0.122899994,-1.3563,-6.3335,9.062954,-2.2282738999999996,-8.79217,-1
437,438,1583552486881,-0.4635,-1.7491,-5.6888,8.852924,-2.5961478,-7.775131699999999,-1
438,439,1583552486891,-0.5826,-2.1236,-4.6274,8.694495,-2.8014457000000004,-7.103117500000001,-1
439,440,1583552486901,-0.8627,-2.2587,-4.5238,8.338334,-2.7496736,-7.747033,-1
440,441,1583552486912,-1.1845,-2.2182999,-5.5699,8.301885,-2.6456888,-9.2235565,-1
441,442,1583552486922,-1.0971,-2.1306,-6.8349,8.724203,-2.4969034,-9.934548,-1
442,443,1583552486932,-0.62909997,-2.0191,-7.4824,9.239129,-2.5683367,-9.880564,-1
443,444,1583552486943,-0.19219999,-2.1878,-7.3543997,9.411597,-2.8167590000000002,-9.025727999999999,-1
444,445,1583552486954,-0.1679,-2.5293,-6.4364,8.816158999999999,-3.4072652000000003,-7.454424,-1
445,446,1583552486964,-0.7412,-3.0978,-5.2236,8.038397999999999,-3.7498178,-6.3145924,-1
446,447,1583552486974,-1.7350999,-3.5946,-3.9325,6.9341919999999995,-3.8941786,-5.0471205999999995,-1
447,448,1583552486984,-2.6608,-3.7628998999999994,-3.0138,6.478671599999999,-3.5787666,-4.391406,-1
448,449,1583552486994,-3.1455998,-3.5332,-2.4696999,6.406099,-3.1709766,-4.2627034,-1
449,450,1583552487005,-3.2380998,-3.0941,-2.4566998,6.4255586,-2.5901911,-4.286722,-1
450,451,1583552487015,-3.2516,-2.6708,-2.6187,6.3554945,-2.2764645,-4.2060857,-1
451,452,1583552487025,-3.3414998,-2.406,-2.6727,6.3029757,-2.0849759999999997,-3.9213576,-1
452,453,1583552487035,-3.5091,-2.2618,-1.9612999,6.196768799999999,-2.0138397,-3.1192330000000004,-1
453,454,1583552487045,-3.7157,-2.1843,-1.1503,5.94691,-1.8696321,-2.155969,-1
454,455,1583552487055,-3.7157,-2.1843,-1.1503,5.573797,-1.5669283999999999,-1.1789528,-1
455,456,1583552487065,-4.1668,-1.8958,-0.059899997,4.901247,-0.99415874,0.07965030000000001,-1
456,457,1583552487075,-4.8535,-1.3719,1.0749999,4.126646,-0.50122136,1.0267869,-1
457,458,1583552487086,-5.6481,-0.9277,1.9011999,3.4140165000000002,-0.19914012,1.5936190000000001,-1
458,459,1583552487096,-6.3638997,-0.65309995,2.3381,2.7391294999999998,-0.16907853,1.4098017,-1
459,460,1583552487106,-7.1161,-0.85109997,1.3159,2.7799652000000004,-0.41875547,0.7401148,-1
460,461,1583552487116,-6.2207,-0.7478,1.1862,3.8154383000000003,-0.279614,0.96268934,-1
461,462,1583552487126,-6.2207,-0.7478,1.1862,4.539598000000001,-0.040529046,1.9948968,-1
462,463,1583552487136,-5.2492,-0.2047,3.8695998,4.444988700000001,0.18743725,4.105405,-1
463,464,1583552487147,-6.1045,0.033,5.6664,3.4625809999999997,0.40296328,5.9764733,-1
464,465,1583552487157,-7.4391,0.2131,6.9842997,2.1284549999999998,0.5096393,7.249728999999999,-1
465,466,1583552487167,-8.5669,0.025899999,7.6594,1.0977128,0.17810945,7.910864,-1
466,467,1583552487177,-8.9088,-0.30339998,7.8431997,0.9975202,-0.22381955,8.217015,-1
467,468,1583552487187,-7.9835,-0.4355,8.313399,2.1152580000000003,-0.38519832,8.903519000000001,-1
468,469,1583552487197,-6.5941,-0.2683,8.867499,3.4390410000000005,-0.29570305,9.626682,-1
469,470,1583552487208,-5.4852,0.1854,9.193999999999999,4.633010400000001,0.048994943,10.070912,-1
470,471,1583552487218,-4.7753,0.49319997,9.4211,5.125430000000001,0.18573259,10.353342,-1
471,472,1583552487228,-4.6327,0.687,9.659599,5.0824976,0.20173542,10.722710000000001,-1
472,473,1583552487238,-5.1577,0.6185,10.6953,4.188196,-0.24511836,12.346554,-1
473,474,1583552487248,-6.0765,0.086399995,12.3424,3.4558098,-0.9692494,13.940239000000002,-1
474,475,1583552487258,-6.236000000000001,-0.40969998,13.5359,3.7056687000000004,-1.4850945,14.874188,-1
475,476,1583552487269,-5.3184,-0.5627,13.8494,4.9571559999999995,-1.5901809,14.712082,-1
476,477,1583552487279,-3.7817,-0.2566,12.8561,6.4020095,-1.2883295,13.455854,-1
477,478,1583552487289,-2.7185,0.36069998,11.3817,7.196472,-0.8625255,12.162248,-1
478,479,1583552487300,-2.123,0.7916,10.5422,7.6442266000000005,-0.8725236999999999,11.94609,-1
479,480,1583552487311,-1.9111999,0.68189996,10.787499,7.49615,-1.5019688999999998,12.490646,-1
480,481,1583552487321,-2.2224998,-0.0654,11.3642,7.055875,-2.8305402,12.889978999999999,-1
481,482,1583552487331,-2.497,-1.1934999,11.5246,7.2076864,-4.4149650000000005,12.133546,-1
482,483,1583552487341,-2.1127,-2.395,10.6795,8.0147915,-5.2207675,11.140853,-1
483,484,1583552487351,-0.9094,-3.0328999,9.4648,9.321882,-5.673875,9.711811,-1
484,485,1583552487361,0.4279,-3.1011999,8.1248,10.424239,-5.7702465,8.641373,-1
485,486,1583552487371,1.3792,-2.9582999,7.3545,11.019649000000001,-5.75839,8.173192,-1
486,487,1583552487381,1.7761999,-2.8216,6.9809,10.896491000000001,-6.245965,7.809388,-1
487,488,1583552487391,1.5999999,-3.2749,6.7429,10.610786000000001,-7.1201740000000004,7.803996000000001,-1
488,489,1583552487402,1.3036,-4.3134,6.7107,10.363551,-8.660393,7.528577,-1
489,490,1583552487411,1.272,-5.3746,6.2299,10.400201,-9.137126,7.156517999999999,-1
490,491,1583552487421,1.6545,-6.2941,4.7387,10.942900999999999,-10.491899499999999,4.99441,-1
491,492,1583552487431,2.2807,-6.7871,3.1381,11.735955,-10.890324,4.049246299999999,-1
492,493,1583552487441,3.3495,-6.9198,2.3997,12.75239,-11.121795,3.7626987,-1
493,494,1583552487451,4.3634,-6.9344997,2.2357,13.391316,-11.093467,4.1487875,-1
494,495,1583552487461,4.8374,-6.6675,2.6915998,13.351907,-10.959823,4.7020493,-1
495,496,1583552487472,4.5369,-6.4799,3.1014,12.277266000000001,-10.955149,5.1875362,-1
496,497,1583552487482,3.5249,-6.407099700000001,3.3997,11.148304,-11.202977,5.254238,-1
497,498,1583552487492,2.5614,-6.6695,3.1146,10.576328,-11.687783999999999,3.7709059999999996,-1
498,499,1583552487502,2.2066998,-7.047999999999999,1.2772,10.927700999999999,-12.04745,1.7614526000000001,-1
499,500,1583552487512,2.8204,-7.361399700000001,-0.76339996,12.206608000000001,-12.407386,0.17115669,-1
500,501,1583552487522,4.2683,-7.6289997000000005,-2.299,13.54986,-12.497196,-0.73565197,-1
501,502,1583552487532,5.534,-7.5312,-3.0040998,14.053226,-11.99744,-0.4716003,-1
502,503,1583552487543,5.8381996,-6.9476,-2.5874999,13.486969,-11.413839999999999,-0.034198776,-1
503,504,1583552487553,5.0681,-6.3054,-2.1868,11.999241,-10.780305,0.04148673,-1
504,505,1583552487563,3.4975,-5.6910996,-2.1374,10.433251,-10.190287,-0.010754753999999998,-1
505,506,1583552487574,1.979,-5.0863,-2.2092,9.283967,-9.822279,-0.62400556,-1
506,507,1583552487584,0.98889995,-4.9035997,-3.1964998,9.174543,-10.659628,-3.8062732000000006,-1
507,508,1583552487594,1.0163,-5.6861997,-6.0801,10.373445,-11.043657000000001,-6.4392915,-1
508,509,1583552487604,2.2374,-6.0551996,-8.741799,12.067974000000001,-11.219660000000001,-7.9328330000000005,-1
509,510,1583552487614,3.9369,-6.2072997,-10.1896,12.879168,-11.297586,-8.517612,-1
510,511,1583552487624,4.7249,-6.2669997,-10.6762,12.738274,-10.849622,-8.005933,-1
511,512,1583552487635,4.3914,-5.6812,-9.7251,10.843541,-10.131839999999999,-6.004399299999999,-1
512,513,1583552487645,2.596,-5.1365,-7.843499700000001,8.444053,-9.378739,-5.074884,-1
513,514,1583552487655,0.1251,-4.4498997000000005,-6.7570996,6.855327000000001,-8.618034,-5.531181,-1
514,515,1583552487665,-1.5229,-3.7384,-7.1047997,6.5156665,-8.185153,-7.205216,-1
515,516,1583552487676,-0.7294,-3.0656998,-10.732999999999999,8.065108,-7.8267026,-9.5928,-1
516,517,1583552487685,-0.7294,-3.0656998,-10.732999999999999,9.345575,-7.6598554000000005,-10.608975,-1
517,518,1583552487695,0.89989996,-2.8644,-12.053699499999999,10.042996,-7.6250539999999996,-11.0448265,-1
518,519,1583552487705,1.5873,-2.8369999999999997,-12.4397,9.668754,-7.704608,-10.671963,-1
519,520,1583552487715,1.1969,-2.9291,-12.0054,8.663812,-7.7934713,-9.814138999999999,-1
520,521,1583552487726,-0.7657,-2.8709,-9.6254,7.616674000000001,-7.494196400000001,-8.123689,-1
521,522,1583552487736,-1.5734999,-2.5237,-8.2402,6.8419485,-7.121753699999999,-6.9554243,-1
522,523,1583552487746,-1.5734999,-2.5237,-8.2402,6.261546,-6.8948603,-6.714328299999999,-1
523,524,1583552487756,-2.3385,-2.2744,-7.808399700000001,5.7193265,-6.630703,-7.15103,-1
524,525,1583552487766,-2.9160000000000004,-2.2263,-8.9265995,5.7813745,-6.845655000000001,-7.9769917,-1
525,526,1583552487776,-2.4090000000000003,-2.5124,-9.2357,6.3379593000000005,-7.0910697,-8.065251,-1
526,527,1583552487787,-2.0351999,-2.7021,-8.5815,6.603975,-7.3039145,-7.2813229999999995,-1
527,528,1583552487797,-2.2212,-3.0779998,-7.7432,6.33071,-7.662585000000001,-6.4022584,-1
528,529,1583552487807,-2.7338998,-3.2515,-6.7299,5.790089,-7.809589,-5.366219999999999,-1
529,530,1583552487817,-3.3262,-3.3672,-5.7697,5.1997557,-7.9082875,-4.470875,-1
530,531,1583552487827,-3.7199998,-3.5088,-5.1474,4.901793,-8.0329485,-3.8591084,-1
531,532,1583552487838,-3.7659,-3.4378998,-4.5445,4.859376999999999,-7.923830499999999,-3.279405,-1
532,533,1583552487848,-3.8056,-3.32,-4.2988,4.772822,-7.8438163,-3.1428876,-1
533,534,1583552487858,-3.8771,-3.3502,-4.5139,4.723875,-7.902742999999999,-3.2886754999999996,-1
534,535,1583552487868,-3.7745,-3.4101,-4.6040998,4.8930106,-8.01098,-3.3077523999999996,-1
535,536,1583552487879,-3.5291997999999998,-3.4606998,-4.7911997,5.1604339999999995,-8.10829,-3.4905355000000005,-1
536,537,1583552487890,-3.1241999,-3.5131997999999998,-4.789,5.5414376,-8.205207000000001,-3.0405022999999995,-1
537,538,1583552487900,-2.9271,-3.5714998,-3.6797998,5.438199,-8.438987,-1.4198287,-1
538,539,1583552487910,-3.1945999,-3.8249998,-2.3474998,5.0127015,-8.715297,-0.20820935,-1
539,540,1583552487920,-3.5705998,-3.9199,-1.1899998999999999,4.7364492,-8.788712,0.75589734,-1
540,541,1583552487930,-3.6188,-3.9406998,-0.42769998,5.0019665,-8.770047,1.1143955,-1
541,542,1583552487940,-3.2284,-3.8070998,-0.23789999,5.3437339999999995,-8.709503,1.232602,-1
542,543,1583552487951,-2.9189999999999996,-3.6771,-0.2032,5.42732,-8.679211,1.0135901,-1
543,544,1583552487961,-2.8599,-3.6227998999999995,-0.5823,5.485777,-8.771416,0.8686451,-1
544,545,1583552487971,-2.6708,-3.6931,-0.4012,5.7562065,-8.904783,1.5840996999999999,-1
545,546,1583552487981,-2.2851,-3.7594998,0.47469997,6.2525916,-9.201759,2.6842449,-1
546,547,1583552487991,-1.7937,-3.9419,1.4235,6.617400599999999,-9.469728,3.9312312999999994,-1
547,548,1583552488002,-1.4140999,-4.1159,2.8186998,6.7853975,-9.799237,5.3877773,-1
548,549,1583552488012,-1.245,-4.3917,4.2911997,6.807127499999999,-10.070816,6.539877,-1
549,550,1583552488022,-1.1862999,-4.5558,5.4398,6.7923979999999995,-10.032327,7.270166000000001,-1
550,551,1583552488032,-1.1494,-4.3399,6.0906997,6.8459897,-9.677593,7.256346700000001,-1
551,552,1583552488042,-1.0683,-3.9285,5.9396,7.0176253,-9.338305,6.624105,-1
552,553,1583552488052,-0.79109997,-3.5379,5.2490997,7.473146400000001,-8.862865,6.1885037,-1
553,554,1583552488062,-0.2793,-2.9545999,4.9439,7.627217999999999,-8.614855,6.229722,-1
554,555,1583552488072,-0.0082,-2.3859,5.3199997,7.7557387,-7.923447599999999,7.083188499999999,-1
555,556,1583552488082,-0.14800000000000002,-1.8932999,6.3381,7.2837934,-7.630924,8.606763,-1
556,557,1583552488093,-0.5706,-1.7016,7.682699700000001,6.9610457,-7.559108,9.522382,-1
557,558,1583552488103,-0.7808,-1.5821999,8.5155,7.128812,-7.346024000000001,9.634449,-1
558,559,1583552488113,-0.5283,-1.3651999,8.4741,7.553438000000001,-7.287328,8.818717,-1
559,560,1583552488123,-0.0569,-1.2857,7.5478997,7.936041,-7.211651299999999,7.529716499999999,-1
560,561,1583552488133,0.3083,-1.1883,6.2562,8.171908,-7.213778,6.4035797,-1
561,562,1583552488143,0.5164,-1.1623,5.3638,8.323011,-7.2125998,6.298743,-1
562,563,1583552488154,0.7123,-1.1198,5.2759,8.474047,-7.0805354000000005,6.6521072,-1
563,564,1583552488164,0.85389996,-0.9454,5.7166,8.246866,-6.890378500000001,7.251500599999999,-1
564,565,1583552488174,0.6246,-0.7888,6.2181997,7.9095707,-6.7528744000000005,7.3018074,-1
565,566,1583552488184,0.2219,-0.63,6.2144,7.8340197,-6.685866000000001,6.518578,-1
566,567,1583552488194,0.2092,-0.5822,5.5126,8.199949,-6.6078053,5.9885497,-1
567,568,1583552488205,0.5693,-0.4949,4.9986,8.480808,-6.7846413,5.517428400000001,-1
568,569,1583552488215,0.89919996,-0.73219997,4.4054,8.663217999999999,-6.900500999999999,4.767755999999999,-1
569,570,1583552488225,1.0203999,-0.807,3.7989998,8.579995,-6.867921000000001,4.3241005,-1
570,571,1583552488235,0.9324,-0.78889996,3.362,8.298246,-6.893251400000001,4.1738599999999995,-1
571,572,1583552488245,0.6358,-0.8251,3.1971998,8.101433,-6.8098087,4.114819000000001,-1
572,573,1583552488255,0.426,-0.7675,3.1162,8.138016,-6.662967699999999,3.8059955000000003,-1
573,574,1583552488265,0.4574,-0.5809,2.6541,8.123124,-6.191855400000001,3.2351985,-1
574,575,1583552488275,0.424,-0.19209999,2.1719,7.815315700000001,-5.6742004999999995,3.3069574999999998,-1
575,576,1583552488285,-0.49469998,0.5319,2.6829,7.1331215,-5.3530807000000005,3.8961036,-1
576,577,1583552488295,-0.49469998,0.5319,2.6829,6.7257915,-5.200378400000001,4.1340010000000005,d
577,578,1583552488306,-1.1173999,0.83919996,2.9301,6.7204957,-4.9864902,4.017949,-1
578,579,1583552488317,-0.8165,0.9155,2.5047998,7.067711999999999,-4.9172883,3.5913792,-1
579,580,1583552488327,-0.50049996,0.88989997,1.8597,7.3719196,-4.9739059999999995,2.9340463,-1
580,581,1583552488337,-0.3093,0.72969997,1.2014999,7.557269,-5.111113,2.3432338,-1
581,582,1583552488347,-0.1183,0.5107,0.83919996,7.7477035999999995,-5.326725,2.0852060000000003,-1
582,583,1583552488357,0.1195,0.428,0.7615,7.9953694,-5.3447585,2.0623653,-1
583,584,1583552488367,0.21599999,0.45069999,0.9719,7.991270500000001,-5.3745613,2.4911478,-1
584,585,1583552488377,-0.0738,0.2447,1.5759,7.6157449999999995,-5.5606675,3.1029430000000002,-1
585,586,1583552488388,-0.5514,0.13509999,2.1323,7.235746400000001,-5.5761247,3.4912248,-1
586,587,1583552488397,-0.8495,0.12539999,2.4038,7.051392999999999,-5.553236,3.69795,-1
587,588,1583552488407,-0.7097,0.2774,2.3253,7.235162700000001,-5.373393,3.5555716,-1
588,589,1583552488417,-0.436,0.4452,1.7729,7.509231599999999,-5.2211223,2.9683217999999996,-1
589,590,1583552488427,-0.0501,0.3929,1.1012,7.953088,-5.337011,2.3699532000000003,-1
590,591,1583552488437,-0.0501,0.3929,1.1012,8.428614999999999,-5.555975,2.1133618,-1
591,592,1583552488448,1.3596,-0.1514,0.7349,9.534189999999999,-5.9975038,2.2520533,-1
592,593,1583552488457,1.9534999,-0.5351,1.0881,9.935698,-6.276754,2.5465302000000003,-1
593,594,1583552488467,2.1561,-0.75229996,1.6569999999999998,10.046108,-6.4384966,3.1507502,-1
594,595,1583552488477,1.9296999,-0.843,2.45,9.816916,-6.498035400000001,3.9397642999999998,-1
595,596,1583552488487,1.9296999,-0.843,2.45,9.763602,-6.470282,4.6321096,-1
596,597,1583552488498,1.9828,-0.835,3.4043998999999996,10.0730095,-6.4078126,4.704472,-1
597,598,1583552488508,2.6324,-0.8359,3.1357,10.780104,-6.365962000000001,4.311115,-1
598,599,1583552488518,3.4320998,-0.84499997,2.2874,11.824263,-6.393112,3.3615837,-1
599,600,1583552488528,4.4473,-0.982,1.8331,12.7884655,-6.596581,3.2919796000000003,-1
600,601,1583552488538,5.0649,-1.3298999,2.1179,13.219489000000001,-6.9610259999999995,3.760793,-1
601,602,1583552488548,5.2615,-1.7866,2.7668,13.352472,-7.3041160000000005,4.541235400000001,-1
602,603,1583552488558,5.2419,-1.9835999,3.6171,13.267134,-7.354710000000001,5.313107,-1
603,604,1583552488568,4.9392,-2.0392,4.1770997,12.943514,-7.2910147,5.7594247,-1
604,605,1583552488578,4.4739,-2.0795999,4.3023,12.554580999999999,-7.293035000000001,5.604836,-1
605,606,1583552488589,4.2518997,-2.2768,3.6179,12.602436,-7.3663077,4.6395607000000005,-1
606,607,1583552488600,4.6282997,-2.2733,2.4434,13.358879,-7.1361194,3.4705007000000005,-1
607,608,1583552488610,5.2383,-2.1671999,1.6851,13.946609,-6.960719999999999,3.229079,-1
608,609,1583552488620,5.6454997,-2.1499,1.7645998999999999,14.092098000000002,-6.851209599999999,3.6511477999999995,-1
609,610,1583552488630,5.4641,-2.1776,2.4824998,13.720825,-6.7976747,4.4664025,-1
610,611,1583552488640,4.9488,-2.3414,2.9729997999999997,13.326203,-6.890771000000001,4.4803176,-1
611,612,1583552488650,4.5650997,-2.6094,2.638,13.218866,-6.935983,3.8716635999999998,-1
612,613,1583552488660,4.4930997,-2.8697999,1.6788,13.366608,-7.0839925,2.625156,-1
613,614,1583552488670,4.5287,-3.1611998,0.7689,13.357299,-7.03313,2.142322,-1
614,615,1583552488681,4.2799997,-3.2015998,0.6494,12.908023,-6.629467999999999,2.3922575,-1
615,616,1583552488691,3.533,-2.9241998,1.0849999,11.979905,-6.101805000000001,2.975916,-1
616,617,1583552488701,2.3985999,-2.6404,1.6492,10.85577,-5.6545873,3.3594383999999997,-1
617,618,1583552488711,1.2615,-2.4798,1.7882999,10.074044,-5.285804,3.2790987,-1
618,619,1583552488721,0.6525,-2.3838,1.5452,9.883916000000001,-5.0133433,2.7980362999999997,-1
619,620,1583552488731,0.59999996,-2.3463,0.9996,10.13005,-4.7016086999999995,2.4780178,-1
620,621,1583552488741,0.78779995,-2.2005,0.82799995,10.269278,-4.2173195,2.26842,-1
621,622,1583552488752,0.82229996,-2.0296,0.68369997,10.283767,-4.0482597,2.4091318,-1
622,623,1583552488762,0.72389996,-2.1977,0.9558,9.932768,-3.7347918,2.8173625,-1
623,624,1583552488772,0.2647,-1.9054999,1.3524,9.542866,-3.3121195,2.9070206,-1
624,625,1583552488782,-0.50369996,-1.3231,1.4502,8.497041000000001,-2.0957694,2.9349656000000004,-1
625,626,1583552488792,-1.2964,-0.6744,1.4893,7.750404400000001,-1.3596001,2.8410554,-1
626,627,1583552488802,-2.0444,-0.2059,1.3564999,7.077212299999999,-1.0309529,1.9970229,-1
627,628,1583552488812,-2.7379,-0.1743,0.35819998,6.679727000000001,-0.89322877,0.6810067,-1
628,629,1583552488823,-3.0549,-0.2026,-0.7729,6.793758,-0.72587407,0.20638019,-1
629,630,1583552488833,-2.8499,-0.22919999,-0.968,7.4679649999999995,-0.682721,0.27972895,-1
630,631,1583552488843,-2.1232998,-0.34649998,-0.7899,8.19225,-0.60325265,0.4315022,-1
631,632,1583552488853,-1.4621998999999999,-0.3279,-0.4396,8.535779,-0.257166,1.0091656,-1
632,633,1583552488863,-1.2681,-0.1419,0.2687,8.110033,-0.19858468,1.1967368999999999,-1
633,634,1583552488873,-1.8350999,-0.2913,0.4008,7.3097277,-0.40055949999999996,0.78505874,-1
634,635,1583552488884,-2.6436,-0.6444,0.0312,6.5788546000000006,-0.43524670000000004,0.40214926,-1
635,636,1583552488893,-3.3119,-0.7655,-0.18509999,6.205799,-0.34648886,0.38787982,-1
636,637,1583552488903,-3.6355,-0.7981,-0.0691,5.9496965,-0.2455589,0.39291725,-1
637,638,1583552488913,-3.8792,-0.78059995,0.0098,6.0683050000000005,-0.026470292000000003,0.35355654,-1
638,639,1583552488923,-3.6215,-0.6342,0.1245,6.7073083,0.37001908,0.30057767,-1
639,640,1583552488933,-2.9016,-0.3362,0.1347,7.469603,0.513336,-0.042779595,-1
640,641,1583552488943,-2.2193,-0.3698,-0.0368,7.689936599999999,0.24358608,-0.12338758,-1
641,642,1583552488954,-2.0939999,-0.7445,0.0826,7.309105000000001,-0.04379474,0.33365595,-1
642,643,1583552488964,-2.447,-1.0177,0.5920000000000001,6.393821,-0.024851814,0.88444686,-1
643,644,1583552488974,-3.3571,-1.0814999,1.2324,5.126273,-0.054463297,1.2442187,-1
644,645,1583552488984,-4.6095,-1.1948999,1.6593,4.440966,-0.0017717092,1.1914216999999998,-1
645,646,1583552488994,-5.6473,-1.2077,1.4625,3.5981690000000004,0.24778071,-0.27750713,-1
646,647,1583552489004,-6.1191998,-1.0408,0.2707,4.1820955,0.7504386,-2.0287316000000004,-1
647,648,1583552489015,-5.5365,-0.54969996,-1.4555,5.2478504,1.1758212,-2.872027,-1
648,649,1583552489025,-4.4674997,-0.120299995,-2.2712998,6.165490599999999,1.271053,-2.6399713,-1
649,650,1583552489035,-3.5572,-0.0127,-2.0307999,6.348561,0.88960874,-2.221283,-1
650,651,1583552489045,-3.3718,-0.37809998,-1.5892998999999999,5.9700184,0.21100578,-1.6102347,-1
651,652,1583552489055,-3.7429997999999998,-1.0399,-0.95919997,5.744973,-0.48993984,-0.5874413,-1
652,653,1583552489065,-3.9739999999999998,-1.7346,0.1187,5.820907599999999,-0.7702626,-0.05383123,-1
653,654,1583552489076,-3.8887,-2.0370998,0.71739995,5.927143,-0.5289749,-0.26886886,-1
654,655,1583552489086,-3.7724,-1.8159,0.557,5.966273999999999,0.036669593,-0.6680014,-1
655,656,1583552489096,-3.87,-0.6405,-0.2128,5.756063,0.7932948000000001,-1.2747973999999997,-1
656,657,1583552489106,-4.1358,-0.3134,-0.61969995,5.4996824,1.0806084999999999,-1.7830865000000002,-1
657,658,1583552489117,-4.1588,-0.3452,-1.2309999999999999,5.543917700000001,0.9890639000000001,-2.4595346,-1
658,659,1583552489127,-3.7333,-0.5962,-1.7889999,6.06481,0.6900664000000001,-3.0306091,-1
659,660,1583552489137,-2.9073,-0.96239996,-2.1125998,6.9537770000000005,0.27223033,-3.3365690000000003,-1
660,661,1583552489147,-1.9541998999999999,-1.4418,-2.0351999,7.833301,-0.29475498,-3.2057786,-1
661,662,1583552489157,-1.3431,-1.9461,-1.594,8.407200999999999,-0.7367629,-2.8158397999999996,-1
662,663,1583552489167,-0.945,-1.9632,-1.3718,8.734699,-0.65436405,-2.7660692000000004,-1
663,664,1583552489177,-0.956,-1.5922999,-1.6856999,8.601266,-0.1814326,-3.2531645,-1
664,665,1583552489188,-1.2791,-1.2227,-2.0586998,8.114208,0.18958247,-3.5445197,-1
665,666,1583552489198,-1.8456999,-0.9774,-1.831,7.6653147,0.35637212,-3.2571774,-1
666,667,1583552489208,-2.1666,-0.8671,-1.3264999,7.4385449999999995,0.5096968,-2.7942727,-1
667,668,1583552489218,-1.989,-0.7747,-0.9719,7.730053999999999,0.5219934,-2.5560882,-1
668,669,1583552489228,-1.5696,-0.89229995,-0.8422,8.21078,0.28289887,-2.6195917,-1
669,670,1583552489238,-1.0170000000000001,-1.27,-0.98109996,8.825161,-0.15465586,-2.799454,-1
670,671,1583552489249,-0.3017,-1.5690998999999999,-1.1456,9.592608,-0.39579985,-3.0196438,-1
671,672,1583552489259,0.37199998,-1.5654,-1.504,10.161949,-0.26981696,-3.5070841,-1
672,673,1583552489269,0.7722,-1.179,-1.9688,10.393038,0.21488439,-3.7964665999999996,-1
673,674,1583552489279,0.74219996,-0.6696,-1.9203,10.211356,0.6575340000000001,-3.5912452000000004,-1
674,675,1583552489290,0.3217,-0.3074,-1.6042,9.545183999999999,0.9894086,-3.258796,-1
675,676,1583552489300,-0.2539,-0.10759999599999999,-1.3605,9.077232,1.0630159,-3.0537562,-1
676,677,1583552489310,-0.5819,-0.1415,-1.1624,9.034539,0.87292594,-3.0206877999999997,-1
677,678,1583552489320,-0.4378,-0.384,-1.1488999,9.409375,0.65255404,-3.0483932,-1
678,679,1583552489330,0.0696,-0.52169997,-1.1204,9.860741,0.56327903,-3.0520804,-1
679,680,1583552489340,0.6162,-0.5099,-1.0336,10.293047,0.6911676999999999,-3.0010746,-1
680,681,1583552489351,0.7104,-0.2853,-0.91679996,10.068633,0.93206275,-2.8715097999999997,-1
681,682,1583552489361,0.3715,-0.0458,-0.81079996,9.642379,1.1390271,-2.9026535,-1
682,683,1583552489371,-0.067099996,0.094399996,-0.8997,9.363187,1.0453659,-3.167864,-1
683,684,1583552489382,-0.14469999,-0.0157,-1.1421,9.6339035,0.9339877000000001,-3.4105597000000003,-1
684,685,1583552489392,0.3164,-0.12,-1.4533,10.278576,0.78465647,-3.6610122000000005,-1
685,686,1583552489402,0.8172,-0.23189999,-1.5360999,10.542206,0.6787658000000001,-3.4100711,-1
686,687,1583552489412,1.0059999,-0.3005,-1.1925,10.428061,0.6858526,-3.0936246,-1
687,688,1583552489422,0.74619997,-0.24149999,-0.82269996,9.937527000000001,0.803111,-2.8733964,-1
688,689,1583552489433,0.3514,-0.1318,-0.63299996,9.78132,0.91995764,-2.6509560000000003,-1
689,690,1583552489443,0.2525,-0.0061,-0.3989,9.711677,1.0206482,-2.6724463,d
690,691,1583552489453,0.1928,0.0607,-0.45,9.642963,0.94353575,-2.9336536,-1
691,692,1583552489463,0.1314,-0.046699997,-0.6746,9.655422999999999,0.7446829,-3.0614276,-1
692,693,1583552489473,0.17629999,-0.2695,-0.7578,9.7355995,0.49363652,-3.2797690000000004,-1
693,694,1583552489484,0.29819998,-0.48029998,-0.9934,9.95533,0.39303216,-3.6103604,-1
694,695,1583552489495,0.46799999999999997,-0.5429999999999999,-1.2533,10.156424000000001,0.53575534,-3.8179855000000003,-1
695,696,1583552489505,0.67829996,-0.4084,-1.4389,10.116498,0.55971646,-4.0985190000000005,-1
696,697,1583552489515,0.64089996,-0.3779,-1.7056999,10.129666,0.43675026,-4.328746,-1
697,698,1583552489525,0.6532,-0.5067,-1.9411999,10.336391,0.29202557,-4.7437086,-1
698,699,1583552489535,0.9835,-0.92579997,-3.02,10.466751,-0.050402734000000005,-5.5711923,-1
699,700,1583552489546,0.9835,-0.92579997,-3.02,10.470581,-0.45410344,-5.927938,-1
700,701,1583552489556,1.0151,-2.0629,-3.7027,10.463016,-1.184967,-6.163001,-1
701,702,1583552489566,0.868,-2.4496,-3.938,10.264000000000001,-1.4409646,-6.54343,-1
702,703,1583552489576,0.6508,-2.4352,-4.768399700000001,10.088428500000001,-1.2760425,-7.352325,-1
703,704,1583552489586,0.66679996,-2.0256,-5.165499700000001,10.085201,-0.80448055,-7.644647999999999,-1
704,705,1583552489596,0.66679996,-2.0256,-5.165499700000001,10.040621,-0.6162101,-7.955559,-1
705,706,1583552489606,0.5275,-1.7565998999999999,-5.7693,9.925930000000001,-0.56474435,-8.337023,-1
706,707,1583552489616,0.45459998,-1.861,-6.1877,9.889863,-0.6685473000000001,-8.709599,-1
707,708,1583552489626,0.6874,-2.2129,-6.3265,10.201014,-1.0121440000000002,-8.773035,-1
708,709,1583552489636,1.2256,-2.6397,-5.8757997,10.713066,-1.3851702,-8.244836,-1
709,710,1583552489646,1.3719999999999999,-2.9016,-5.3227,10.695062,-1.5470182,-7.748709700000001,-1
710,711,1583552489657,0.8304,-2.9417999,-5.1182,10.023717999999999,-1.4400166,-7.589351,-1
711,712,1583552489667,-0.21409999,-2.5999,-5.3248,8.952973,-0.9648633,-7.868879,-1
712,713,1583552489677,-1.1151999,-2.0246,-5.7757,8.108022,-0.28025568,-8.235739,-1
713,714,1583552489687,-1.8542999,-1.3768,-5.874,7.413483,0.47772944,-8.163787,-1
714,715,1583552489697,-2.4013,-0.78,-5.782,6.8481255,1.1911056999999998,-8.003979,-1
715,716,1583552489707,-2.7157,-0.45909998,-5.749399700000001,6.6151505,1.4499668,-7.7190595,-1
716,717,1583552489717,-2.7747998,-0.3971,-5.0983,6.634563000000001,1.4574653999999998,-6.917232,-1
717,718,1583552489727,-2.7733,-0.76299995,-3.804,6.6378856,1.0653048,-5.484464599999999,-1
718,719,1583552489738,-2.8983998,-1.3436999,-2.4411,6.469133,0.5437901999999999,-4.067988,-1
719,720,1583552489748,-3.3277997999999998,-1.6503999,-1.5472,5.8631988,0.40892008,-3.0509505,-1
720,721,1583552489758,-3.3277997999999998,-1.6503999,-1.5472,5.224799,0.6802789,-2.4016333,-1
721,722,1583552489768,-4.6426997000000005,-1.2172999,-0.529,4.6902413,0.9905195,-1.9953564,-1
722,723,1583552489778,-5.2750998,-0.9091,-0.30179998,4.0360303,1.3743484,-1.4748569999999999,-1
723,724,1583552489788,-5.5365,-0.7242,0.33139998,3.9938733999999996,1.5129822,-0.502112,-1
724,725,1583552489799,-5.3768997,-0.69049996,1.1740000000000002,4.1908392999999995,1.4292618000000001,0.39636487,-1
725,726,1583552489809,-5.2269,-0.92679995,1.7149999,4.3227595999999995,1.145865,0.9888915,-1
726,727,1583552489819,-5.1837,-1.1819998999999999,2.2044,4.3705387,0.9351655999999999,1.7255107,-1
727,728,1583552489829,-5.1105,-1.3211,3.1074998,4.467379599999999,0.7940609000000001,2.83145,-1
728,729,1583552489839,-5.076699700000001,-1.305,4.0059,4.475702,0.87896895,3.6388513999999996,-1
729,730,1583552489849,-5.1124997,-0.9956,4.4765997,4.451223400000001,1.2240212,4.4171777,-1
730,731,1583552489860,-5.14,-0.6852,5.1485,4.437968700000001,1.4256992,5.066868299999999,-1
731,732,1583552489871,-5.1782,-0.3926,5.8294997,4.3674645,1.5975262,6.299308,-1
732,733,1583552489881,-5.3634996,-0.31309998,6.9694996,4.077881,1.315748,7.627198700000001,-1
733,734,1583552489891,-5.714299700000001,-0.723,7.9262,3.7661269999999996,0.68342966,8.405161,-1
734,735,1583552489901,-5.848,-1.133,8.512,4.4505816,0.62728083,9.425570500000001,-1
735,736,1583552489911,-5.0297,-0.8556,9.311,5.3569116999999995,0.97848153,10.418186,-1
736,737,1583552489922,-4.1909,-0.4019,10.2097,5.8152194,1.1213483,11.329133,-1
737,738,1583552489932,-3.8207,-0.19039999,11.2329,5.869146,1.1015242,12.269432,-1
738,739,1583552489942,-3.8895998,-0.1174,11.8236,5.7719226,1.0382216999999998,12.610903,-1
739,740,1583552489952,-4.0059,-0.0532,11.9542,5.696687,0.8658007999999999,12.757255,-1
740,741,1583552489962,-4.0235,-0.12329999,11.9653,5.7550097000000004,0.7233361999999999,12.654007,-1
741,742,1583552489972,-3.9527997999999998,-0.17899999,11.7407,6.094191599999999,0.35914943,12.462404,-1
742,743,1583552489982,-3.5486,-0.3843,11.561399,6.675216000000001,0.038489185,12.345462,-1
743,744,1583552489992,-2.9672,-0.5442,11.481899,7.245027,-0.20643765,12.613133,-1
744,745,1583552490003,-2.1984,-0.7295,11.8926,8.234991,-0.6080985,12.919839999999999,-1
745,746,1583552490013,-1.379,-0.8742,12.037399,8.753623,-0.8863622,13.063062,-1
746,747,1583552490023,-1.0296999,-1.041,12.2002,8.485788000000001,-1.5517683,12.765281,-1
747,748,1583552490033,-1.3666999,-1.6738,11.719999000000001,8.331085,-2.5370588,11.435559,-1
748,749,1583552490043,-1.4283,-2.4863,10.3547,8.594313,-3.2453307999999996,10.031953999999999,-1
749,750,1583552490054,-1.1942999,-2.8962998,9.314799,9.451408,-3.6366966,9.276286,-1
750,751,1583552490064,-0.3398,-3.1476,8.626599,10.469786000000001,-3.7507467000000005,8.583444,-1
751,752,1583552490074,0.90999997,-3.1041,7.8392,11.177934,-3.6704166,7.904553,-1
752,753,1583552490084,1.4269999,-2.905,7.2331,11.169611,-3.853975,7.231849,-1
753,754,1583552490094,1.4063,-2.9459,6.7468,10.958213,-4.0603940000000005,6.855098,-1
754,755,1583552490105,1.2106,-3.0214,6.4219,10.571799,-4.6222363,6.20556,-1
755,756,1583552490115,0.8303,-3.4520998,5.8262997,10.797246000000001,-5.523471400000001,4.7653620000000005,-1
756,757,1583552490125,1.0698999,-4.2242,4.461,11.544333,-6.350936,3.0083144,-1
757,758,1583552490135,3.6769,-5.5436997,-0.6476,13.676016,-7.1379676,-1.0555940000000001,-1
758,759,1583552490146,3.6769,-5.5436997,-0.6476,15.015035999999998,-6.947236,-2.690805,-1
759,760,1583552490156,5.7426,-4.7787,-2.5109,15.336347,-6.556933,-2.3595243,-1
760,761,1583552490166,4.9392,-4.3538,-1.1920998999999999,14.257366000000001,-6.2838316,-1.0007476,-1
761,762,1583552490176,3.1516,-4.3445,0.08549999400000001,12.367028,-6.433717700000001,-0.008159439000000001,-1
762,763,1583552490186,1.4991,-4.7296,-0.2251,10.899823,-6.935064,-0.7611646,-1
763,764,1583552490196,1.3294,-5.3420000000000005,-2.4485,11.085892,-7.6468887,-3.2320478,-1
764,765,1583552490207,2.8915,-5.8341,-5.3203998,12.822377000000001,-8.145294,-6.10396,-1
765,766,1583552490217,4.6939,-5.8992,-7.6935,14.776247,-8.23456,-8.605958,-1
766,767,1583552490228,5.7711,-5.626,-9.054,15.331806,-7.977308,-9.574355,-1
767,768,1583552490237,5.5976,-5.1415,-9.219999000000001,14.890220999999999,-7.5719313999999995,-9.406072,-1
768,769,1583552490247,4.3567,-4.4635997000000005,-8.1209,13.469453,-6.9528,-8.172569000000001,-1
769,770,1583552490257,4.3567,-4.4635997000000005,-8.1209,11.753625,-6.607498599999999,-7.175681,-1
770,771,1583552490267,1.6801,-3.878,-6.8568997000000005,11.123959,-6.5376453,-7.3640375,-1
771,772,1583552490277,2.0279999,-4.1173997,-8.3884,11.751814999999999,-6.860728699999999,-9.337578,-1
772,773,1583552490287,2.997,-4.2985,-9.9699,12.903856,-7.040485400000001,-10.910425,-1
773,774,1583552490298,3.9471,-4.3132,-11.2149,13.485179,-6.9297104,-12.038478,-1
774,775,1583552490308,3.9910997999999998,-3.9004,-11.9817,13.227812,-6.355274,-12.624013,-1
775,776,1583552490318,3.3230998999999994,-3.1246,-12.2969,12.399867,-5.484168,-12.777586,-1
776,777,1583552490328,2.4826,-2.2221,-12.093599000000001,11.592294,-4.5435147,-12.40297,-1
777,778,1583552490338,1.7068,-1.474,-11.5057,10.866247,-3.8944373,-11.862627999999999,-1
778,779,1583552490349,1.0667,-1.1,-10.9697,10.349463,-3.5683279999999997,-11.364317,-1
779,780,1583552490359,0.5938,-1.0052,-10.330299,9.815116,-3.5657419999999997,-10.761909,-1
780,781,1583552490369,0.0246,-1.2725999,-9.7415,9.328298,-3.8552969,-10.285376,-1
781,782,1583552490379,-0.21899999999999997,-1.4756,-9.3555,9.173019,-3.8093953000000003,-10.08795,-1
782,783,1583552490390,-0.52059996,-1.3853999,-9.2283,8.803777,-3.7260196000000003,-10.189042,-1
783,784,1583552490400,-0.9111,-1.4029,-9.422,8.413091,-3.6966858,-10.289867,-1
784,785,1583552490410,-1.1937,-1.3802999,-9.352,8.158539,-3.6757412000000005,-10.0952,-1
785,786,1583552490420,-1.4361,-1.5043,-9.1536,8.086694,-4.0645595000000005,-9.792467,-1
786,787,1583552490431,-1.3734,-2.0413,-8.8593,8.359872,-4.6898675,-9.344702999999999,-1
787,788,1583552490441,-0.9367,-2.6906,-8.3236,8.955311,-5.269504,-8.574422,-1
788,789,1583552490451,-0.4114,-3.234,-7.5158997,9.200927,-5.7862587,-7.629909,-1
789,790,1583552490461,-0.3683,-3.7003,-6.6081996,8.779355,-6.1631637,-6.496638,-1
790,791,1583552490471,-0.9357,-3.9754,-5.7191997,8.009524,-6.2612014,-5.979088,-1
791,792,1583552490482,-1.9174,-4.0947,-5.1548,7.2005234,-6.166937,-5.4287852999999995,-1
792,793,1583552490492,-2.5734,-3.9471998,-4.6821,6.835705,-5.7488136,-5.143952400000001,-1
793,794,1583552490502,-2.7663999,-3.5971,-4.645,6.736967599999999,-5.3032045,-5.059073000000001,-1
794,795,1583552490512,-2.892,-3.1899998,-4.4941,6.479993299999999,-5.0357723,-4.3738523,-1
795,796,1583552490522,-3.1453998,-2.978,-3.8149,6.443112999999999,-5.070785,-3.4691026,-1
796,797,1583552490532,-3.1413999,-3.0911,-2.9507,6.445354,-5.266832,-2.3062005,-1
797,798,1583552490542,-3.1938999,-3.2942998,-1.8343999,6.27435,-5.4755199999999995,-1.2878124,-1
798,799,1583552490552,-3.3818,-3.5021,-0.9658,6.0857925,-5.479830000000001,-0.6559441999999999,-1
799,800,1583552490562,-3.5588998999999997,-3.4419,-0.4657,5.9805145,-5.3578215,-0.32769918,-1
800,801,1583552490572,-3.6267998,-3.3088998999999997,-0.20789999,5.914061,-5.2605977,-0.008293514,-1
801,802,1583552490582,-3.7524998,-3.1917999,0.2278,5.7344003,-5.1794343000000005,0.8409298000000001,-1
802,803,1583552490592,-3.8964999,-3.1288998,0.9116,5.4877305,-5.1396136,1.4944704,-1
803,804,1583552490602,-4.1765,-3.0613,1.5201,5.134021,-5.0626063,2.2268757999999997,-1
804,805,1583552490613,-4.5137997,-2.9580998,2.1983,4.922555,-4.926788,2.8878574,-1
805,806,1583552490623,-4.6724997,-2.7682,2.8102,4.881614,-4.742942299999999,3.5207598,-1
806,807,1583552490633,-4.6619,-2.5584,3.4062997999999998,5.10304,-4.666615,4.2115730000000005,-1
807,808,1583552490643,-4.4037,-2.4566998,4.114,5.359248,-4.573136,5.300628,-1
808,809,1583552490653,-4.1341,-2.2310998,5.202999999999999,5.4876059999999995,-4.287335400000001,6.106383,-1
809,810,1583552490663,-4.0401,-1.9044,5.8896,5.2956389999999995,-4.0040436,6.682417999999999,-1
810,811,1583552490673,-4.2199,-1.6149,6.3255,5.0738115,-3.8961129999999997,7.105972,-1
811,812,1583552490683,-4.4273,-1.4282,6.7314,4.9402246,-3.8127565000000003,7.653928,-1
812,813,1583552490693,-4.593,-1.2250999,7.4091997,4.730732,-3.6266312999999997,8.261174,-1
813,814,1583552490703,-4.8441997,-0.88769996,8.1029,4.548830000000001,-3.3506565000000004,8.938503,-1
814,815,1583552490713,-4.8669,-0.6114,8.627999,4.7608223,-3.1933,9.613543,-1
815,816,1583552490723,-4.5825,-0.3376,9.2944,4.9063706,-3.1076066000000004,10.242969500000001,-1
816,817,1583552490733,-4.4530997,-0.19699999999999998,9.9018,4.8487277,-3.144765,10.769751,-1
817,818,1583552490744,-4.4997,-0.1348,10.387799000000001,4.701599,-3.0590522,11.055513000000001,-1
818,819,1583552490755,-4.654,0.093499996,10.664599,4.4692373,-2.8866506000000003,11.329975,-1
819,820,1583552490764,-4.8224,0.39519998,11.0008,4.185917,-2.9517729999999998,11.369346,-1
820,821,1583552490774,-5.045,0.3735,11.020599,4.154256,-3.2805063999999997,10.672107,-1
821,822,1583552490784,-5.0411997,0.1721,10.367499,4.416487999999999,-3.4876432,9.882346,-1
822,823,1583552490794,-4.7165,0.091199994,9.625,4.5745916,-3.6025074,9.588156,-1
823,824,1583552490804,-4.4242,0.0009999999,9.2619,4.791123000000001,-3.9835591,9.457775999999999,-1
824,825,1583552490814,-4.1657,-0.162,9.326,5.1900067000000005,-4.2867894,9.58737,-1
825,826,1583552490825,-3.7645998,-0.252,9.4733,5.626393,-4.8740487,9.708861,-1
826,827,1583552490835,-3.2502,-0.6811,9.6257,6.134232,-5.375873599999999,9.716944999999999,-1
827,828,1583552490845,-2.4319,-1.2172999,9.274799,6.294519,-5.8509593,9.170223,-1
828,829,1583552490856,-2.412,-1.6387,8.5864,6.186732,-6.485797,8.466510000000001,-1
829,830,1583552490866,-2.3464,-2.2228,7.8839999999999995,6.2205477,-7.243657000000001,7.751419500000001,-1
830,831,1583552490876,-1.8714998999999999,-2.9789999,7.2124,6.6711655,-8.206269,7.037344500000001,-1
831,832,1583552490886,-1.8714998999999999,-2.9789999,7.2124,7.125135,-8.799006,6.1137667,-1
832,833,1583552490896,-0.44,-3.6736,5.2264,7.936319,-9.088322999999999,5.206929,-1
833,834,1583552490906,0.4626,-3.59,5.2560997,8.671789,-9.139567999999999,5.3909283,-1
834,835,1583552490916,0.922,-3.3789999999999996,5.4802,8.926053,-9.074791000000001,5.5589437,-1
835,836,1583552490927,0.8397,-3.3634,5.3185,8.651553,-9.268519,5.413549,-1
836,837,1583552490937,0.57049996,-3.7073,5.1991,8.267562,-9.782459,5.366823,-1
837,838,1583552490947,0.2244,-3.9273,5.2149997,7.8260130000000006,-10.0493355,5.432434,-1
838,839,1583552490957,-0.2068,-4.1103997,4.9340997,7.2920300000000005,-10.470246000000001,5.1073976,-1
839,840,1583552490967,-0.2068,-4.1103997,4.9340997,7.170749000000001,-11.014975,4.040387600000001,-1
840,841,1583552490978,-0.2509,-4.5134,3.8374998999999996,7.7875814,-11.1601305,3.0328884,-1
841,842,1583552490988,1.3671,-4.8002,1.8456,8.798126,-11.506045,2.3546877,-1
842,843,1583552490998,2.4787,-5.1024,1.3745999,9.888858,-11.983392,2.1876874,-1
843,844,1583552491009,3.1624,-5.2685,1.6261,10.101224,-12.291276,2.5114026000000003,-1
844,845,1583552491019,2.929,-5.5122,1.6524,9.459223,-12.503592999999999,2.6655604999999998,-1
845,846,1583552491029,1.7366999,-5.3160996,1.7242,7.948319000000001,-12.246858999999999,2.4485595,-1
846,847,1583552491039,0.4642,-5.0481997000000005,0.7402,6.7625475,-12.1056,1.4135271,-1
847,848,1583552491049,-0.2111,-4.7967,-0.4256,6.436141,-11.89697,0.03140235,-1
848,849,1583552491059,0.129,-4.6514997000000005,-1.8686999,6.9702106,-11.861028999999998,-1.2143677,-1
849,850,1583552491070,1.2207999,-4.5014997,-3.5528,8.430817999999999,-11.717597,-2.9572127,-1
850,851,1583552491080,2.5495,-4.4165,-4.8567,9.403027,-11.954316,-3.7160883,-1
851,852,1583552491090,3.3804998,-4.6960998,-5.2064,9.823065,-12.29775,-3.2699337,-1
852,853,1583552491100,3.6481,-4.9544997,-4.5204997,9.6365185,-12.624252,-2.4773667,-1
853,854,1583552491110,3.2034,-5.2658,-3.7240998999999997,8.712672999999999,-12.878689,-1.7115766,-1
854,855,1583552491120,2.2244,-5.2792,-3.1114,7.8961825,-12.642859,-1.4044579,-1
855,856,1583552491131,1.2775999,-4.7167,-3.0667,6.8866434000000005,-11.966191,-1.4875653999999998,-1
856,857,1583552491141,0.7028,-4.2883997,-3.4478998,6.7214149999999995,-11.763603,-2.3573117000000003,-1
857,858,1583552491151,0.95369995,-4.1362,-4.8664,7.528614999999999,-11.516110000000001,-3.9787705,-1
858,859,1583552491161,2.1055,-3.7752,-6.4407997,8.798385000000001,-11.062581,-5.061141,-1
859,860,1583552491171,3.2166,-3.3337,-7.1375,9.295603,-10.762435,-4.9364989999999995,-1
860,861,1583552491182,3.2979998999999998,-3.1710000000000003,-6.7317995999999996,8.609166,-10.796308,-4.0560555,-1
861,862,1583552491192,2.4875,-3.2319,-5.7781997,7.771080499999999,-10.871084,-3.169023,-1
862,863,1583552491202,1.6951,-3.2805,-4.8664,7.3220243,-10.756774,-2.707306,-1
863,864,1583552491212,1.2544,-3.1473,-4.4873,7.01345,-10.565325,-2.694061,-1
864,865,1583552491222,0.9655,-2.978,-4.5664997000000005,6.929835000000001,-10.230424000000001,-2.9994845000000003,-1
865,866,1583552491232,0.8893,-2.6234,-4.8782,6.850117699999999,-9.817836,-3.0692422,-1
866,867,1583552491243,0.76739997,-2.2398,-4.907,6.654674000000001,-9.459012,-2.9027493,-1
867,868,1583552491253,0.5571,-1.9146999,-4.7377996,6.478671599999999,-9.214114,-2.5285547000000004,-1
868,869,1583552491263,0.36159998,-1.7098,-4.3561,6.346013500000001,-9.011564,-2.1641572,-1
869,870,1583552491273,0.2482,-1.5071,-4.0151997,6.310665599999999,-8.721607,-1.8612428,-1
870,871,1583552491283,0.17639999,-1.219,-3.6706998,6.165596,-8.486266,-1.4473428,-1
871,872,1583552491293,-0.046,-1.0292,-3.2368,5.6837196,-8.355046000000002,-0.8987736999999999,-1
872,873,1583552491304,-0.4865,-0.9485,-2.7410997999999998,5.3140264,-8.29835,-0.5495363,-1
873,874,1583552491314,-0.96389997,-0.8875,-2.3109999,5.009101,-8.121946000000001,-0.3393733,-1
874,875,1583552491324,-1.2384,-0.68729997,-2.1409,4.9226418,-7.751649400000001,-0.42285433,-1
875,876,1583552491334,-1.3072,-0.39499998,-2.2619,5.139585,-7.5726204,-0.82740736,-1
876,877,1583552491344,-1.0919,-0.21509999,-2.6878,5.5790935,-7.4629563999999995,-0.78794134,-1
877,878,1583552491354,-0.6461,-0.1082,-2.6766999,5.8731775,-7.4452490000000004,-0.48609954,-1
878,879,1583552491365,-0.3493,-0.0865,-2.3632998,5.867078,-7.5399637,-0.13214077,-1
879,880,1583552491375,-0.3628,-0.18339999,-1.9936999,5.5052275999999996,-7.57172,0.5321640000000001,d
880,881,1583552491385,-0.7366,-0.2149,-1.3282,5.0652595,-7.6075854000000005,1.0421578,-1
881,882,1583552491395,-1.1917,-0.25869998,-0.78959996,4.8122206,-7.5715,1.3465948,-1
882,883,1583552491405,-1.3706,-0.0209,-0.3753,4.9272575,-7.292106599999999,1.408461,-1
883,884,1583552491416,-1.3706,-0.0209,-0.3753,5.06027,-7.1538463000000005,1.0693558,-1
884,885,1583552491426,-0.8462,0.18100000000000002,-1.611,5.493764,-7.174187,0.12917197,-1
885,886,1583552491436,-0.25759998,0.0145,-1.9118998999999999,6.0869513,-7.406319,0.031718384,-1
886,887,1583552491446,0.31849998,-0.37359998,-1.3359999999999999,6.5719786,-7.8405414,0.7208941,-1
887,888,1583552491456,0.36659998,-0.8517,-0.37579998,6.525205000000001,-8.328997,1.6845218999999998,-1
888,889,1583552491466,0.36659998,-0.8517,-0.37579998,6.4036374,-8.52469,2.2669356,-1
889,890,1583552491477,0.069299996,-0.97129995,0.6464,6.2387533,-8.341753,2.447152,-1
890,891,1583552491487,-0.1748,-0.97209996,0.1988,5.935475,-8.404530000000001,1.8839495,-1
891,892,1583552491497,-0.5613,-1.2674,-0.835,5.554318,-8.703373,0.7888799,-1
892,893,1583552491507,-0.7374,-1.5216,-2.258,5.645719000000001,-8.954046,-0.8817749,-1
893,894,1583552491517,0.2936,-1.4697,-3.303,7.2668137999999995,-8.704886,-1.5058476,-1
894,895,1583552491528,2.432,-1.1298,-3.3012998,9.392033,-8.5278015,-1.2005581,-1
895,896,1583552491538,4.0759,-1.2688999,-2.7314,10.440930999999999,-8.81387,-0.44760079999999997,-1
896,897,1583552491548,4.0856,-1.6379,-1.7069999,10.069075,-9.168606,0.41029912,-1
897,898,1583552491558,2.8655999,-2.1936998,-1.1216999,8.567938999999999,-9.76367,0.7174176999999999,-1
898,899,1583552491568,1.9821999,-2.4071,-1.6947,8.048061,-9.626194,-0.03392105,-1
899,900,1583552491578,1.9781,-1.89,-2.4596999,8.222531,-9.047659,-0.54009354,-1
900,901,1583552491589,2.108,-1.5825,-2.8207998,8.269908000000001,-8.877364,-0.6004754,-1
901,902,1583552491599,2.0300999,-1.6119,-2.6180000000000003,8.114562,-9.048809,-0.14200489,-1
902,903,1583552491609,1.7522999,-2.0541,-1.8982999,7.8644257,-9.536669999999999,0.75759244,-1
903,904,1583552491619,1.7579999,-2.4847999,-1.1431,8.24271,-9.786375999999999,1.2645408,-1
904,905,1583552491629,2.6125998,-2.4915,-1.1039,9.272302999999999,-9.6315,0.9705998,-1
905,906,1583552491640,3.4907,-2.4011,-1.6284,10.272294,-9.714675,0.16567875,-1
906,907,1583552491650,4.1930000000000005,-2.6778998,-2.335,10.881551,-10.116498,-0.56938905,-1
907,908,1583552491660,4.6721,-3.1945999,-2.8651,11.351091,-10.576778,-0.8539254999999999,-1
908,909,1583552491670,5.3532,-3.9210000000000003,-2.9701,12.317995,-11.343096000000001,-0.9281458,-1
909,910,1583552491680,6.1033998,-4.4834,-2.9438,12.945219,-11.68018,-0.9595865,-1
910,911,1583552491691,6.7763995999999995,-4.8136,-2.6538,13.672835999999998,-11.945524,-0.17781258,-1
911,912,1583552491700,7.1233997,-5.0804,-1.6743,13.848915,-12.075061,0.71848077,-1
912,913,1583552491710,7.0929,-5.1979,-0.5633,13.64219,-12.107966000000001,1.8006886999999998,-1
913,914,1583552491720,6.6924996,-5.3155,0.18879999,13.3042345,-12.200632,2.4698583999999997,-1
914,915,1583552491730,6.2728,-5.4055,0.8221,13.006721,-12.064766,2.798477,-1
915,916,1583552491740,5.8810997,-5.183399700000001,1.0232999,12.789414,-11.514941,2.7031782000000004,-1
916,917,1583552491750,5.5848,-4.7962,0.79219997,12.489813,-11.167725,2.366151,-1
917,918,1583552491761,5.0912,-4.7205,0.62909997,12.146695,-11.101645,2.1501175999999997,-1
918,919,1583552491771,4.678999999999999,-4.7855,0.5548,11.969572,-11.003483000000001,2.282814,-1
919,920,1583552491781,4.4316998,-4.6854997,0.9058,11.784892999999999,-10.593786999999999,2.397381,-1
920,921,1583552491791,4.0509,-4.3549,1.0989,11.548824,-10.219631,2.3937995,-1
921,922,1583552491802,3.4982998,-4.129699700000001,1.2429,10.904803,-9.726683999999999,2.6681939999999997,-1
922,923,1583552491812,2.6568,-3.8442,1.9089999,9.847102,-9.221689,3.8036876000000004,-1
923,924,1583552491822,1.5583,-3.6917,3.1329,8.996012,-8.955855999999999,4.820275,-1
924,925,1583552491832,0.6095,-3.6190998999999997,4.1988,8.523328999999999,-8.439838,5.2641025,-1
925,926,1583552491842,0.061499998,-3.2847,4.7256,8.402097,-8.006575,5.7050095,-1
926,927,1583552491853,-0.0907,-3.0539,5.3939,8.549905,-7.351875,5.923801,-1
927,928,1583552491863,-0.102699995,-2.5735,5.5614,8.410285,-6.702222999999999,5.0117345,-1
928,929,1583552491873,-0.408,-2.1893,4.6596,8.116478,-6.409537,3.7043087,-1
929,930,1583552491883,-0.8128,-2.1392999,3.5205,7.7405976999999995,-6.198128,2.7474708999999997,-1
930,931,1583552491893,-1.2799,-2.1601,2.7375,7.483115700000001,-6.088320700000001,2.2719057,-1
931,932,1583552491904,-1.5848,-2.2424,2.4863,7.3827314,-5.9705744,2.4311395,-1
932,933,1583552491914,-1.7571,-2.375,2.7258,7.1842426999999995,-5.8620305,2.7230694,-1
933,934,1583552491924,-2.0709999,-2.4099998,3.1959,6.7695289999999995,-5.3380647,3.7421949999999997,-1
934,935,1583552491934,-2.5174,-2.1611,4.1131,6.079271,-4.415118700000001,4.7794585,-1
935,936,1583552491944,-3.2735,-1.4623,5.1712,5.2711987,-3.3432152000000004,5.2286586999999995,-1
936,937,1583552491955,-4.143,-0.59569997,5.5892,4.750364299999999,-2.3703743999999998,4.6331153,-1
937,938,1583552491964,-4.7214,0.1705,4.9477997,4.7738276,-1.6890327,3.041096,-1
938,939,1583552491974,-4.7521,0.66609997,3.322,5.3831615,-1.382163,1.2129504999999998,-1
939,940,1583552491984,-4.1865997,0.7924,1.4806,6.140237,-1.4227878,-0.07823294,-1
940,941,1583552491994,-3.4680998,0.584,0.20799999,6.550431,-1.5772713,-0.52437806,-1
941,942,1583552492005,-3.0993,0.2573,-0.2162,6.549262000000001,-1.4928997,-0.47426262,-1
942,943,1583552492015,-3.1309998,0.1647,-0.1399,6.1853914,-1.060459,-0.41214746,-1
943,944,1583552492025,-3.5239999999999996,0.40179998,-0.0537,5.5998173,-0.25439829999999997,0.38761166,-1
944,945,1583552492035,-4.13,1.0030999,0.75119996,4.8887877,0.48300627,1.3858788999999998,-1
945,946,1583552492045,-4.8592997,1.5173999,1.7559999,4.372463,0.78794134,1.7811424999999999,-1
946,947,1583552492055,-5.4195,1.3271998999999999,1.9634999,4.398119400000001,0.5297411,1.563701,-1
947,948,1583552492066,-5.0548997,0.5489,2.0340000000000003,4.880072599999999,-0.17401057,1.6054271,-1
948,949,1583552492076,-4.2358,-0.16579999,1.6143,5.7855024,-0.6951996,1.0390834999999998,-1
949,950,1583552492086,-2.9638999,-0.2787,0.7353,7.057378999999999,-0.5838595999999999,0.10337205,-1
950,951,1583552492097,-2.2210999,0.20799999,-0.0879,7.601370299999999,0.056484005999999996,-0.673125,-1
951,952,1583552492107,-2.6652,0.5675,-0.5484,6.901411,0.41657192,-1.0614263000000002,-1
952,953,1583552492117,-3.9622,0.4165,-0.5747,5.621988,0.32887715,-0.92287856,-1
953,954,1583552492127,-4.6696,0.2662,-0.14400000000000002,4.9771433,0.31202194,-0.35939840000000006,-1
954,955,1583552492138,-5.0913,0.2058,0.6343,4.6352897,0.39026445,0.6789286,-1
955,956,1583552492149,-5.2472,0.2188,1.6079999,4.4922023,0.48401179999999994,1.5371062,-1
956,957,1583552492160,-5.3436,0.19039999,2.0358,4.483985400000001,0.44585782,1.6813808999999997,-1
957,958,1583552492170,-5.165499700000001,-0.0348,1.8093,4.964425,0.23767719,1.1027884,-1
958,959,1583552492180,-4.5172,-0.1651,1.1373999,5.839132299999999,0.36553714,0.24183352,-1
959,960,1583552492190,-3.5951998,0.1077,0.1381,6.684342999999999,0.73615956,-0.8241321,-1
960,961,1583552492200,-2.9187999,0.42999998,-0.9087,7.0466622999999995,0.99978036,-1.7068933999999998,-1
961,962,1583552492211,-2.7521,0.6074,-1.7133,6.9446692,1.1334726000000002,-2.1908765,-1
962,963,1583552492221,-2.9475,0.6085,-1.9976,6.746879600000001,1.0423396,-2.0033243,-1
963,964,1583552492231,-3.1123998,0.4639,-1.5412999,6.4933046999999995,0.9698431999999999,-1.0229083,-1
964,965,1583552492242,-3.5117998,0.30589998,-0.26899999999999996,5.889736,0.7336121,0.7289674,-1
965,966,1583552492252,-3.9501,0.0716,1.1125,5.8286457,0.8133103,1.5738237,-1
966,967,1583552492262,-3.9078,0.1636,1.7579999,6.2171,1.1116853,1.4023893,-1
967,968,1583552492272,-3.4654998999999997,0.4604,1.3937,6.8926286999999995,1.2390089,0.7502853,-1
968,969,1583552492282,-2.7495,0.5135,0.7033,7.659827000000001,1.1322564,9.576806000000001e-06,-1
969,970,1583552492293,-1.995,0.3915,-0.0572,8.260772,0.80703753,-0.7556292,-1
970,971,1583552492303,-1.4271,-0.020299999,-0.8364,8.787438,0.11260410000000001,-1.3399676,-1
971,972,1583552492313,-0.87829995,-0.68259996,-1.3364999,9.376135000000001,-0.13073298,-1.2382427,-1
972,973,1583552492323,-0.3287,-0.7971,-1.1215,9.667097,0.11311167,-0.79694355,-1
973,974,1583552492333,-0.1408,-0.53529996,-0.6974,9.265272999999999,0.46454218,-0.39740875,-1
974,975,1583552492344,-0.6674,-0.2214,-0.28149998,8.360724000000001,0.939887,0.18360654,-1
975,976,1583552492354,-1.4187,0.1327,0.1883,7.757558,1.1129973,0.5268297,-1
976,977,1583552492364,-2.0132,0.26479998,0.5349,7.665898299999999,0.9597396999999999,0.80276626,-1
977,978,1583552492374,-2.1085,0.076299995,0.8167,8.138983999999999,0.63963497,0.7043933000000001,-1
978,979,1583552492384,-1.6365,-0.261,0.7342,9.017128999999999,0.41561425,0.19876663,-1
979,980,1583552492395,-0.7635,-0.48700000000000004,0.2478,9.9926605,0.38230613,-0.28576234,-1
980,981,1583552492404,0.21689999,-0.51199996,-0.1859,10.608143,0.549182,-0.70469016,-1
981,982,1583552492414,0.835,-0.3463,-0.5843,10.39865,0.74195355,-1.0486699,-1
982,983,1583552492424,0.62079996,-0.1645,-0.91209996,9.80666,0.8206366,-0.9467631,-1
983,984,1583552492434,0.044999998,-0.1138,-0.7897,9.345872,1.0192690999999998,-0.6963486999999999,-1
984,985,1583552492444,-0.42200000000000004,0.0473,-0.5272,9.128181,1.1935478000000002,-0.4985973,-1
985,986,1583552492455,-0.68299997,0.20889999,-0.2738,8.998483,1.305223,-0.026700137000000002,-1
986,987,1583552492464,-0.7678,0.2674,0.1866,9.165799,1.4734108,0.60575217,-1
987,988,1583552492474,-0.58849996,0.41279998,0.8168,9.227943,1.4705857,0.61672723,-1
988,989,1583552492484,-0.5281,0.38299999999999995,0.78749996,9.423942,1.3088046,0.26212677,-1
989,990,1583552492494,-0.33179998,0.23719999,0.5076,9.755864,1.2240691000000001,0.033940202999999995,-1
990,991,1583552492504,0.049799997,0.15969999,0.26549998,10.266423,1.0982778,-0.45452484,-1
991,992,1583552492514,0.5092,0.0579,-0.1691,10.593701,1.1415841999999998,-0.92118347,d
992,993,1583552492525,0.8412,0.1201,-0.6411,10.653556,1.1400136,-1.1002313999999997,-1
993,994,1583552492535,0.88949996,0.1152,-0.82549995,10.481451,1.0865941000000001,-1.0419949,-1
994,995,1583552492545,0.7231,0.0607,-0.77669996,10.14247,1.0564655,-0.9891405000000001,-1
995,996,1583552492555,0.0504,0.090399995,-0.4504,9.737974000000001,1.1881369,-0.61114395,-1
996,997,1583552492566,0.0504,0.090399995,-0.4504,9.4018,1.3114287,-0.10840946,-1
997,998,1583552492576,-0.34829998,0.2096,0.15529999,8.860921000000001,1.4421903999999999,0.68864906,-1
998,999,1583552492586,-1.4591,0.4294,1.5725,8.186494,1.5967601999999999,1.3816938,-1
999,1000,1583552492596,-1.7703999,0.47239998,2.1023,7.963957300000001,1.6261896999999998,1.9116647,-1
1000,1001,1583552492606,-1.6615,0.3791,2.7157,8.105513,1.5175024,2.5446150000000003,-1
1001,1002,1583552492617,-1.6615,0.17549999,3.4684,7.986396000000001,1.2859927,3.2828622000000003,-1
1002,1003,1583552492627,-2.1131,0.1013,4.0365,7.539053999999999,1.2829760000000001,3.800757,-1
1003,1004,1583552492637,-2.7909,0.019299998999999998,4.3792,6.770889,1.1307145,4.14511,-1
1004,1005,1583552492647,-3.5377,-0.0308,4.7272,6.10689,1.1455201000000002,4.4574294000000005,-1
1005,1006,1583552492657,-4.1182,0.2686,4.5248,5.524247,1.4801052,4.1353993,-1
1006,1007,1583552492667,-4.5032997,0.6554,4.0190997,5.191003,1.9083799,3.610274,-1
1007,1008,1583552492677,-4.5456,0.98099995,3.8760000000000003,5.206182,2.1954925,3.6100924,-1
1008,1009,1583552492687,-4.5776,1.3867999,4.1506,5.111975,2.5760077999999997,4.0413456,-1
1009,1010,1583552492698,-4.8729,1.7680999,4.8956,4.7624598,2.8452501,4.7095866,-1
1010,1011,1583552492708,-5.6175,2.0448,5.9613,3.9460275,3.0732355,5.721165,-1
1011,1012,1583552492718,-6.6850996,2.1357,7.1197996,2.6838424,3.073676,6.999917999999999,-1
1012,1013,1583552492728,-7.6060996,1.9619999,8.0117,1.8291126,2.7806162999999997,7.6130443,-1
1013,1014,1583552492739,-8.146299,1.7502999,8.3504,1.6266781000000001,2.5538950000000002,7.5760393,-1
1014,1015,1583552492749,-7.825599700000001,1.5888,7.8514,2.23153,2.2060939999999998,6.615878599999999,-1
1015,1016,1583552492760,-7.825599700000001,1.5888,7.8514,3.1196639999999998,1.3989896000000002,4.8631697,-1
1016,1017,1583552492770,-5.9797997,0.2674,4.7418,4.4203477,0.18698715,3.1005293999999997,-1
1017,1018,1583552492780,-4.9403,-0.6569,3.4803,5.4295897,-1.0148158999999999,1.7937262999999999,-1
1018,1019,1583552492790,-3.8564,-1.6456,2.289,6.665544000000001,-1.6777511999999999,0.71967787,-1
1019,1020,1583552492800,-2.6697,-1.6894,1.6646,7.3343973,-1.3555683,0.5533861999999999,-1
1020,1021,1583552492811,-2.5095,-1.1381999,2.0184999,7.087766,-1.1662157,0.9565698,-1
1021,1022,1583552492821,-3.3483,-1.101,3.1151,5.850462,-1.5663729,2.1786566,-1
1022,1023,1583552492831,-4.0692997,-1.4369999,3.6757998,5.598256,-2.138271,2.0871692,-1
1023,1024,1583552492841,-3.8869998,-2.0476,3.1141999,6.526776,-3.1670213,0.47620672,-1
1024,1025,1583552492851,-2.5052,-2.9838,1.1419,8.212007,-4.109657,-1.5747238000000001,-1
1025,1026,1583552492861,-0.75439996,-3.4940998999999997,-0.6098,9.679288,-4.556233,-2.95365,-1
1026,1027,1583552492871,0.37469998,-3.6028,-1.4755,10.465477,-4.660256400000001,-3.2014499,-1
1027,1028,1583552492881,1.0946,-3.3360999,-1.2904999,10.72995,-4.361689599999999,-2.659709,-1
1028,1029,1583552492891,1.0185,-2.8548,-0.71849996,10.223566,-4.3894720000000005,-2.5197727999999997,-1
1029,1030,1583552492901,0.5668,-2.9691,-1.0397999,10.095975,-4.948528,-3.5917814,-1
1030,1031,1583552492911,0.75329995,-3.4466998999999996,-2.5321999,10.733188,-5.6604867,-5.5088377,-1
1031,1032,1583552492921,1.7199,-4.0744,-4.6198,11.963941,-6.614030400000001,-7.618043400000001,-1
1032,1033,1583552492932,3.1743999,-4.8264,-6.5653996,13.621762,-7.528759,-9.04245,-1
1033,1034,1583552492942,4.4294,-5.282099700000001,-7.2721995999999995,14.098869,-7.762586,-8.82472,-1
1034,1035,1583552492952,4.7256,-5.3652997000000004,-6.6748,13.370773000000002,-8.12412,-7.6880690000000005,-1
1035,1036,1583552492962,3.8586998,-5.5042,-5.5674,12.139963,-8.164391,-6.534485299999999,-1
1036,1037,1583552492972,2.6868,-5.4066,-4.5264997000000005,11.293391,-8.178334,-6.535481,-1
1037,1038,1583552492982,2.0073,-5.3208,-4.9214997,11.318196,-8.258157,-8.233784,-1
1038,1039,1583552492992,2.299,-5.2717,-6.9038,12.22735,-8.287003,-9.97161,-1
1039,1040,1583552493003,3.6550998999999997,-5.2113,-9.0774,13.757495,-8.544321,-11.980202,-1
1040,1041,1583552493013,4.8187,-5.3212,-10.5337,14.383329000000002,-8.597205,-12.300680999999999,-1
1041,1042,1583552493023,5.3132,-5.1977,-10.6765995,13.939483,-8.493008999999999,-11.947421,-1
1042,1043,1583552493033,4.6914,-5.0368,-10.3073,12.835622,-8.551217,-11.576779,-1
1043,1044,1583552493043,3.5983,-4.9958,-9.9811,12.0755205,-8.327867,-11.2620945,-1
1044,1045,1583552493053,2.9589,-4.7407,-9.689799,11.767185000000001,-8.108212,-10.687189,-1
1045,1046,1583552493063,2.6588,-4.4885,-9.0391,11.172667,-7.8486720000000005,-9.9725685,-1
1046,1047,1583552493073,1.9635999,-4.2552,-8.4339,10.22374,-7.7755529999999995,-9.769761,-1
1047,1048,1583552493084,1.0102999,-4.1914997000000005,-8.2914,9.402921000000001,-7.8237724,-9.501141,-1
1048,1049,1583552493094,0.2516,-4.2423997,-8.0206995,8.907167999999999,-7.659329,-9.256884,-1
1049,1050,1583552493104,-0.2038,-4.0022,-7.9118,8.611417,-7.3766026,-9.001987,-1
1050,1051,1583552493114,-0.4342,-3.7572,-7.7458,8.648344999999999,-7.1075807,-8.661686,-1
1051,1052,1583552493124,-0.401,-3.4736998,-7.5151,8.65955,-6.657642999999999,-8.637974,-1
1052,1053,1583552493135,-0.3998,-3.0109,-7.5976996,8.559548,-6.122673000000001,-8.671128,-1
1053,1054,1583552493145,-0.5092,-2.4817998,-7.7407,8.159363,-5.9062085,-8.514308,-1
1054,1055,1583552493155,-0.92469996,-2.2705998,-7.6734,7.366766999999999,-6.1276627,-7.8555098,-1
1055,1056,1583552493165,-1.7336999,-2.5232,-7.0499,6.4922322999999995,-6.675685400000001,-6.841479,-1
1056,1057,1583552493175,-2.6204,-3.1060998,-6.0467997,6.0046577,-7.2799053,-5.737790599999999,-1
1057,1058,1583552493186,-3.1122,-3.7459998,-4.9256997,6.0393066,-7.4947705000000004,-4.5710864,-1
1058,1059,1583552493196,-2.8019,-3.8918998,-3.1652,6.410533,-7.3771005,-3.9559107000000004,-1
1059,1060,1583552493206,-2.3848999,-3.8579998,-3.3028998,6.8265395,-7.315253299999999,-4.2051277,-1
1060,1061,1583552493216,-2.1048,-3.6319999999999997,-3.984,7.087076700000001,-7.08315,-4.8147874,-1
1061,1062,1583552493226,-1.8635999,-3.4534,-4.204,7.2899227,-6.9580765,-4.8125176,-1
1062,1063,1583552493236,-1.8635999,-3.4534,-4.204,7.2047467,-7.031100299999999,-4.3244166,-1
1063,1064,1583552493247,-2.2337,-3.6811998,-2.688,6.766818499999999,-7.2546034,-2.9705627,-1
1064,1065,1583552493257,-2.2337,-3.6811998,-2.688,6.2533389999999995,-7.5083027,-1.7911693,-1
1065,1066,1583552493267,-2.9641,-4.0987,-0.55289996,6.2291093,-7.5910273,-0.92169106,-1
1066,1067,1583552493277,-2.5989999999999998,-4.1586,0.3196,6.668781,-7.686986999999999,-0.008350976,-1
1067,1068,1583552493287,-2.0929,-4.2079,1.2257999,7.2496524,-7.7096643,1.0168078999999999,-1
1068,1069,1583552493297,-1.6421,-4.1889,1.7327,7.597309599999999,-7.720592,1.3716382,-1
1069,1070,1583552493308,-1.1007,-3.9864998,2.1225998,8.118853,-7.524171400000001,1.8064156999999998,-1
1070,1071,1583552493318,-0.7148,-3.5163998999999997,2.3501,8.45838,-7.023524799999999,1.9890741000000003,-1
1071,1072,1583552493328,-0.56439996,-3.0075998,2.2175999,8.575379,-6.5717006,2.0100472,-1
1072,1073,1583552493338,-0.42479998,-2.9241998,2.5142,8.755336999999999,-6.74755,2.4336387999999998,-1
1073,1074,1583552493348,-0.168,-3.2263,3.0089,9.070586,-7.090246700000001,3.2599928,-1
1074,1075,1583552493358,0.3139,-3.5310998,4.4855,9.577726,-7.362572,5.1665529999999995,-1
1075,1076,1583552493369,0.74619997,-3.6425998,6.7065997,9.869033,-7.460417999999999,7.4225616,-1
1076,1077,1583552493379,0.82449996,-3.6583,8.9655,9.854707000000001,-7.416125999999999,9.670161,-1
1077,1078,1583552493389,0.746,-3.4478,10.7848,9.68265,-7.038617599999999,11.079858,-1
1078,1079,1583552493399,0.60069996,-2.9577,11.2848,9.739785000000001,-6.4476905,11.28282,-1
1079,1080,1583552493409,0.9492,-2.2642999,11.2104,10.263349,-5.903843,11.000888,-1
1080,1081,1583552493420,1.8398999,-1.6941998999999999,10.4761,11.056931,-5.542519599999999,10.424747,-1
1081,1082,1583552493430,3.0042,-1.1782,9.7413,12.553939999999999,-4.7903957,9.6055565,-1
1082,1083,1583552493440,3.8082,-0.5804,9.1775,12.880211,-4.3986273,9.2805195,-1
1083,1084,1583552493450,3.8360999,-0.38819999,9.0411,12.555577,-4.3775296,9.509587,-1
1084,1085,1583552493460,3.3339999,-0.42319998,9.5981,12.040632,-4.375250299999999,10.480186,-1
1085,1086,1583552493470,2.9041,-0.433,10.7288,11.76096,-4.2645135000000005,11.355507000000001,-1
1086,1087,1583552493481,2.6984,-0.2412,11.268599499999999,11.634748,-3.8601425000000003,11.08118,-1
1087,1088,1583552493491,2.5730999,0.1786,10.527699,11.678456,-3.34741,10.021285,-1
1088,1089,1583552493501,2.7158,0.6335,9.3522,11.908702,-3.0103352,8.751525,-1
1089,1090,1583552493511,2.9982,0.7791,7.9877,12.365391,-3.1116576,7.447030000000001,-1
1090,1091,1583552493521,3.5463998,0.4851,6.6677,13.029753,-3.4486942000000003,6.23498,-1
1091,1092,1583552493531,4.2304,0.109799996,5.501,13.662367999999999,-3.8145761,5.4021335,-1
1092,1093,1583552493542,4.7035,-0.2766,4.933399700000001,13.712943,-3.9851966,5.266353,-1
1093,1094,1583552493552,4.4823,-0.3682,5.002,13.226021,-3.9138782,5.395975,-1
1094,1095,1583552493562,3.7933998,-0.37989998,5.0722,12.609935,-3.9065422999999995,5.448408000000001,-1
1095,1096,1583552493572,3.3860997999999998,-0.4599,5.1833,12.629854,-3.9179482000000005,5.243943,-1
1096,1097,1583552493582,3.4508997999999997,-0.58849996,4.8856,12.935967,-4.045645700000001,4.4298096,-1
1097,1098,1583552493593,3.7338998,-0.8315,3.9389,13.121126,-4.278256400000001,3.194229,-1
1098,1099,1583552493603,3.8416,-1.1626999,2.7254999,13.195672,-4.512994,2.3599741,-1
1099,1100,1583552493613,3.9101,-1.4677,1.9283999,13.498557,-4.7246222,1.603531,-1
1100,1101,1583552493623,4.2518997,-1.7595999,1.2133,13.996628,-4.6765175,1.0187137,-1
1101,1102,1583552493634,4.6795,-1.7580999,0.6295,14.109385000000001,-4.4917045,0.62162095,-1
1102,1103,1583552493644,4.6229997,-1.6732999,0.3384,13.577394,-4.4577928,1.2335502,-1
1103,1104,1583552493654,4.1127,-1.8384,1.0308,12.931572000000001,-4.73236,2.2073197,-1
1104,1105,1583552493664,3.2781,-2.3374,2.2201,12.307557000000001,-5.0531635,2.5038753,-1
1105,1106,1583552493675,2.7689,-2.7230000000000003,2.4185998,11.931351,-4.9264436,1.8736256000000002,-1
1106,1107,1583552493684,2.3509,-2.7456,1.8432,11.823976,-4.560159,1.067632,-1
1107,1108,1583552493694,2.2208,-2.5296,1.0788,11.819734,-4.241807,0.22352268,-1
1108,1109,1583552493704,2.1917999,-2.3493,0.2629,12.116997,-4.0452337,-0.24122061,-1
1109,1110,1583552493714,2.4598,-2.3035,-0.1584,12.296361,-3.9907224,-0.522501,-1
1110,1111,1583552493724,2.6023998,-2.3874,-0.38869998,12.279382,-4.1671176,-0.6325385,-1
1111,1112,1583552493734,2.5698,-2.7152998,-0.4454,12.037587,-4.3826056,-0.49543694,-1
1112,1113,1583552493744,2.3033,-3.0965,-0.2173,11.438442,-4.293464,-0.1604594,-1
1113,1114,1583552493754,1.6956999,-3.1889999999999996,0.20619999,10.605700500000001,-4.170498,0.13928507,-1
1114,1115,1583552493765,0.8407,-3.3297,0.5995,10.086685000000001,-3.8772469,0.37287298,-1
1115,1116,1583552493775,0.31399998,-3.1531,0.8806,9.553651,-3.4285924,0.36728013,-1
1116,1117,1583552493785,-0.23399999999999999,-2.9053,0.9417,8.852416999999999,-2.9722962,0.08148905,-1
1117,1118,1583552493795,-1.3097999,-2.5469999999999997,-0.1487,8.475752,-2.711261,-0.82741696,-1
1118,1119,1583552493805,-1.3097999,-2.5469999999999997,-0.1487,8.664232,-2.500916,-1.4818097,-1
1119,1120,1583552493815,-1.1317999,-2.4898,-0.7669,9.142872,-2.6468856,-1.3022158000000001,-1
1120,1121,1583552493826,-0.6465,-2.7891998,-0.5324,9.208368,-2.706693,-1.2353793,-1
1121,1122,1583552493836,-0.9702,-2.9823,-0.5719,8.694313000000001,-2.4657310000000003,-1.4565845,-1
1122,1123,1583552493846,-1.4345,-2.8727,-0.41529998,8.224341,-2.1097322,-1.2788485,-1
1123,1124,1583552493856,-1.9323,-2.4975998,0.0756,7.6564369999999995,-1.5533772,-0.8224849,-1
1124,1125,1583552493866,-1.9323,-2.4975998,0.0756,6.890982000000001,-1.2109488000000002,-0.6013851,-1
1125,1126,1583552493876,-3.6676,-1.9828999,0.4378,5.897762,-0.6390699000000001,-0.81800294,-1
1126,1127,1583552493887,-3.8897,-1.5892998999999999,-0.21759999,5.764433,-0.046131477000000004,-1.6174365,-1
1127,1128,1583552493897,-3.7108998,-1.2448,-0.92509997,5.94895,0.3933482,-2.3301327,-1
1128,1129,1583552493907,-3.4248998,-1.2789999,-1.5139999,6.204258,0.44626963,-2.965123,-1
1129,1130,1583552493917,-3.0389999999999997,-1.3873,-1.8270998999999999,6.5993395,0.5029547000000001,-3.168841,-1
1130,1131,1583552493927,-2.6,-1.4218,-1.4089999,6.866935000000001,0.65243906,-2.6430933,-1
1131,1132,1583552493938,-2.9489,-1.3225,-0.8983,6.096193,1.0110713,-2.2304382,-1
1132,1133,1583552493948,-4.1054997,-1.0509,-0.44799998,4.71946,1.492009,-1.8197081999999998,-1
1133,1134,1583552493958,-5.4445996,-0.6555,0.0359,3.4318202000000007,2.1126435000000003,-1.4906683,-1
1134,1135,1583552493969,-5.4445996,-0.6555,0.0359,2.6626203,2.577109,-1.8809421999999998,-1
1135,1136,1583552493979,-6.7247,-0.0986,-0.6617,2.573604,2.8397818,-2.7513402,-1
1136,1137,1583552493989,-6.3226,0.1762,-1.5711,3.218238,3.3072065999999998,-3.6354230000000003,-1
1137,1138,1583552494000,-5.5360000000000005,0.62939996,-2.2566,3.8500774,3.9044068,-4.089019,-1
1138,1139,1583552494010,-5.3023,0.8667,-2.2542,3.6663464999999995,3.8798614000000002,-3.7633116,-1
1139,1140,1583552494020,-5.5887,0.6726,-1.7959,3.3545062999999993,3.9583432999999997,-3.2431188,-1
1140,1141,1583552494030,-5.8437,0.86789995,-1.2383,2.9832616,4.316391,-2.710016,-1
1141,1142,1583552494040,-6.3124,1.0629,-0.7338,2.3619375,4.4180017,-2.3594953999999997,-1
1142,1143,1583552494051,-6.946399700000001,1.0353,-0.47599998,1.7168533,4.503254,-2.2698853,-1
1143,1144,1583552494061,-7.495,1.0781,-0.4987,1.3205554,4.6512637,-2.402112,-1
1144,1145,1583552494071,-7.6972,1.2666998999999999,-0.60069996,1.3823162,4.9463444,-2.6878746,-1
1145,1146,1583552494081,-7.437999700000001,1.5558,-1.0602,1.8489366999999999,5.271247,-3.3392794,-1
1146,1147,1583552494091,-6.9136,1.8749,-1.6543,2.3495164,5.64999,-3.814739,-1
1147,1148,1583552494102,-6.5518,2.1478,-1.9187,2.5506005000000003,5.7179475,-3.6427300000000002,-1
1148,1149,1583552494112,-6.3982,2.2108998,-1.6437998999999999,2.5979577999999997,5.646888,-3.0070407,-1
1149,1150,1583552494122,-6.4019,2.1189,-0.9059,2.2454066000000004,5.5257125,-2.1610925,-1
1150,1151,1583552494132,-6.8669,2.0191998,-0.1081,1.6247436000000002,5.314649,-1.8434298999999998,-1
1151,1152,1583552494142,-7.4525,1.8197999,0.0923,1.2365861,5.1684303,-2.0036306,-1
1152,1153,1583552494152,-7.8185997,1.7047,-0.0808,0.86875045,4.819853299999999,-2.2670312000000004,-1
1153,1154,1583552494163,-8.242,1.3553,-0.29659998,0.40441898,4.079068,-2.3010479999999998,-1
1154,1155,1583552494174,-8.7027,0.6447,-0.3098,0.2652967,3.1493905,-2.0278888,-1
1155,1156,1583552494184,-8.8183,-0.015299999,-0.0449,0.37087142,2.60628,-1.4778928999999998,-1
1156,1157,1583552494194,-8.7249,-0.5674,0.634,0.6709128000000001,1.7629368000000003,-1.0094433,-1
1157,1158,1583552494204,-8.499,-1.1320000000000001,0.9539,1.1762712,1.2175378000000001,-1.1218271,-1
1158,1159,1583552494215,-8.0511,-1.5144,0.8163,1.6362454,1.0523187,-1.6269367000000001,-1
1159,1160,1583552494225,-7.6438,-1.5234,0.2889,1.6921068,1.0959793,-1.2569941,-1
1160,1161,1583552494235,-7.6475,-1.3048999,0.6242,1.3261005,1.3915674999999998,-0.38938340000000005,-1
1161,1162,1583552494245,-8.0603,-0.8440000000000001,1.4429,0.7602644000000001,1.7181557,0.3623672,-1
1162,1163,1583552494255,-8.667399000000001,-0.353,2.1264,0.58068013,1.8942348999999998,0.88353705,-1
1163,1164,1583552494265,-8.9503,0.056399997,2.5544,0.88400626,1.5577538,0.8148713000000001,-1
1164,1165,1583552494275,-8.646,-0.1371,2.4626,1.6094877,0.8101404000000001,0.6101191999999999,-1
1165,1166,1583552494286,-7.2433,-1.3637999,1.8826,2.4800482,-0.3559795,0.25901430000000003,-1
1166,1167,1583552494297,-7.2433,-1.3637999,1.8826,2.7062714,-1.0653622999999999,-0.21637838,-1
1167,1168,1583552494308,-6.627000000000001,-2.3309,0.4854,3.2821536,-1.8582644,-1.3081152,-1
1168,1169,1583552494318,-5.9333,-2.5479,-0.1063,4.1519194,-2.2879949,-1.5712668,-1
1169,1170,1583552494328,-4.9712996,-2.6034,-0.0122,4.956649,-2.5299816,-1.2846041000000001,-1
1170,1171,1583552494338,-4.24,-2.5216,0.77889997,5.6979604,-2.6424708,0.087723546,-1
1171,1172,1583552494349,-4.0308,-2.2061,2.0272,5.4760947,-2.7186735,1.3771448,-1
1172,1173,1583552494358,-4.7833,-2.4153,2.7043,4.6291223,-3.4818491999999996,1.6687490000000003,-1
1173,1174,1583552494368,-5.357599700000001,-3.1889,2.3955998,4.400859,-4.682359,1.2828516,-1
1174,1175,1583552494378,-4.8292,-4.0989,1.7178999,5.141309,-5.629783,0.7443956,-1
1175,1176,1583552494388,-3.5010000000000003,-4.7654,0.89269996,6.544531299999999,-6.7968706999999995,0.015428236000000001,-1
1176,1177,1583552494398,-2.4733999,-5.3764,0.7341,7.5805305999999995,-7.7623086,0.23924778,-1
1177,1178,1583552494409,-1.0813,-5.8648996,0.90239996,8.9993925,-8.390863000000001,0.4672907,-1
1178,1179,1583552494420,0.1258,-5.9399,1.0926,9.813899000000001,-8.6861925,0.89108354,-1
1179,1180,1583552494430,0.5671,-5.8736,1.6581999,9.682286,-9.181457,2.2000990000000002,-1
1180,1181,1583552494440,0.1143,-6.2626995999999995,3.0514,8.8634405,-10.093045,3.7765275999999997,-1
1181,1182,1583552494450,-0.6228,-6.8341,4.1619997,8.070826,-10.780544,4.171542,-1
1182,1183,1583552494461,-1.1783,-7.2423997,3.8068,8.036741000000001,-11.610403,3.3404190000000002,-1
1183,1184,1583552494471,-0.3507,-7.7165,2.8027,9.6186,-12.101214,2.6219862000000003,-1
1184,1185,1583552494481,1.6446999,-7.7113,1.8887,11.593461999999999,-12.4255905,1.6519991000000003,-1
1185,1186,1583552494492,3.8123998999999995,-7.789,0.6145,13.662838,-12.639997,0.75878954,-1
1186,1187,1583552494501,5.5327997,-7.5147,0.0931,14.362941000000001,-12.45776,0.88751143,-1
1187,1188,1583552494512,6.147599700000001,-7.0548997,0.2701,13.919448000000001,-12.492092,1.6009357,-1
1188,1189,1583552494522,5.3279,-7.0881996,1.4031999,12.048486,-13.158935000000001,3.6198702000000003,-1
1189,1190,1583552494532,4.0188,-7.3504,3.0421,11.378214,-13.382648999999999,4.713771299999999,-1
1190,1191,1583552494542,3.7250997999999997,-7.3251995999999995,3.9243,11.903626,-13.057698,5.15192,-1
1191,1192,1583552494552,4.5067,-6.7542995999999995,4.1895,12.551517,-12.933324,4.906744000000001,-1
1192,1193,1583552494562,5.3431,-6.6180997,3.655,13.507291,-13.602944,3.7283180000000002,-1
1193,1194,1583552494573,6.6527,-7.0558996,2.1039,15.103974,-13.67048,1.5541530000000001,-1
1194,1195,1583552494583,8.5113,-6.741699700000001,-0.2565,16.46777,-13.313946,-0.15759593,-1
1195,1196,1583552494593,9.8833,-6.2714,-1.7111,16.519705,-13.052968,-0.18432479999999998,-1
1196,1197,1583552494603,9.7822,-5.8099,-1.4951999,15.108284,-12.486777,0.7300015999999999,-1
1197,1198,1583552494614,8.2806,-5.0952997,-0.5215,12.77838,-12.033641000000001,1.929085,-1
1198,1199,1583552494624,6.4382997,-4.6686997,0.5013,11.350336,-11.5802555,2.5815240000000004,-1
1199,1200,1583552494634,5.1064997000000005,-4.1349,1.1809,10.960033000000001,-11.747333,3.0775547000000003,-1
1200,1201,1583552494644,4.8122997000000005,-4.2173,1.6973,12.189867,-12.035708999999999,2.8843522,-1
1201,1202,1583552494655,6.1514997000000005,-4.4124,1.4914,13.367507999999999,-11.73674,1.6397792000000002,-1
1202,1203,1583552494665,7.4456,-4.0341997,0.2051,13.246801000000001,-10.984406,0.1539759,-1
1203,1204,1583552494675,7.4286,-3.2131998999999998,-1.3316,12.450472,-10.148111,-0.6152524,-1
1204,1205,1583552494685,5.736000000000001,-1.6342,-1.9380000000000002,11.233728,-9.344024000000001,-0.22266075,-1
1205,1206,1583552494695,5.736000000000001,-1.6342,-1.9380000000000002,10.095592,-8.492952,0.7198981,-1
1206,1207,1583552494706,3.6085,-0.2126,-0.2817,9.044441,-8.066697999999999,1.296556,-1
1207,1208,1583552494716,2.8371,-0.3145,0.2007,8.355687,-8.439675,1.6931794999999998,-1
1208,1209,1583552494726,2.8371,-0.3145,0.2007,8.576413,-8.855969,1.6350768999999998,-1
1209,1210,1583552494736,3.7214,-1.1839,-0.1179,9.471117,-9.166229,1.1183987,-1
1210,1211,1583552494746,3.9919,-1.0307,-0.49229997,9.43776,-8.98654,0.77917856,-1
1211,1212,1583552494756,3.9919,-1.0307,-0.49229997,8.723235,-8.746210000000001,0.74452966,-1
1212,1213,1583552494767,2.5623,-0.5448,-0.5708,7.902330999999999,-8.561511999999999,0.74811137,-1
1213,1214,1583552494777,2.1392,-0.32569999,-0.9377,7.5774856,-8.298312,0.36692578,-1
1214,1215,1583552494787,2.0758997999999997,0.010799999,-1.1366,7.551772,-7.967482,0.26856238,-1
1215,1216,1583552494797,2.0077999,0.3084,-0.8542,7.408924000000001,-7.7138686000000005,0.5490862,-1
1216,1217,1583552494807,1.6208,0.3701,-0.54429996,7.034069000000001,-7.701582000000001,0.8863238999999999,-1
1217,1218,1583552494817,1.2498,0.2643,0.1502,6.6027584,-7.849524499999999,1.6768126,-1
1218,1219,1583552494828,0.95549995,0.0101,0.8463,6.319103,-8.2341385,2.3577046000000004,-1
1219,1220,1583552494838,0.6807,-0.4816,1.3334,6.135142299999999,-8.583758,2.516306,-1
1220,1221,1583552494848,0.4858,-0.5449,0.9798,5.953575,-8.498277,1.8586283,-1
1221,1222,1583552494858,0.4508,-0.2865,0.0994,6.0188127,-8.259938,0.9620860000000001,-1
1222,1223,1583552494868,0.60359997,-0.19569999,-0.62619996,6.151097,-8.205571,0.49119443,-1
1223,1224,1583552494879,0.65599996,-0.105,-0.7734,6.168181400000001,-8.049354,0.5500725999999999,-1
1224,1225,1583552494889,0.5057,0.053299997,-0.46429998,5.919702,-7.927479300000001,1.0237702,-1
1225,1226,1583552494899,0.1328,0.0835,0.1938,5.5221305,-7.9674244000000005,1.6140941,-1
1226,1227,1583552494909,-0.22309999,-0.0431,0.7193,5.318547,-8.058941,1.9601616000000002,-1
1227,1228,1583552494919,-0.2243,-0.119799994,0.97029996,5.4506296999999995,-8.119667,2.0369484,d
1228,1229,1583552494929,-0.0547,-0.1762,0.77639997,5.635903,-8.169284,1.793439,-1
1229,1230,1583552494939,0.0202,-0.16409999,0.68189996,5.582780400000001,-8.108854,1.77056,-1
1230,1231,1583552494950,-0.15709999,-0.1628,0.5574,5.428747,-8.105953,1.4022647,-1
1231,1232,1583552494960,-0.22299999,-0.15179999,0.089499995,5.490345,-8.084817,1.0343143,-1
1232,1233,1583552494970,0.0295,-0.0902,-0.3011,5.868782,-7.9828334000000005,0.794511,-1
1233,1234,1583552494980,0.32279998,-0.0177,-0.40559998,6.007406,-8.007733,0.73423463,-1
1234,1235,1583552494990,0.4077,-0.122099996,-0.5399,6.1150400000000005,-8.138332,0.6214006999999999,-1
1235,1236,1583552495002,0.6052,-0.2672,-0.5911,6.5043755,-8.308187,0.9102946,-1
1236,1237,1583552495012,0.86539996,-0.4432,-0.2312,6.617726299999999,-8.585778999999999,1.2172121999999999,-1
1237,1238,1583552495022,0.93369997,-0.6902,0.061199997,6.6741532999999995,-8.595136,1.4493348999999998,-1
1238,1239,1583552495032,0.9497,-0.6947,0.2834,6.6319194,-8.661551,1.5113637,-1
1239,1240,1583552495042,0.8674,-0.7991,0.33769998,6.574928,-8.749869,1.5885241,-1
1240,1241,1583552495053,0.8172,-0.88449997,0.41579998,6.788261,-8.80234,1.5982925,-1
1241,1242,1583552495063,1.125,-0.95879996,0.3706,7.3533025,-8.900435,1.4978126,-1
1242,1243,1583552495073,1.6737,-1.1194998999999999,0.16579999,7.8833017000000005,-9.105483999999999,1.1545702,-1
1243,1244,1583552495084,2.4112,-1.4166,-0.3478,8.823533,-9.4002495,0.54422116,-1
1244,1245,1583552495094,3.2050998,-1.6366999,-0.92569995,9.70935,-9.621445,-0.08649772,-1
1245,1246,1583552495104,4.0201,-1.8906,-1.5218999,10.427333,-9.984232,-0.44842440000000006,-1
1246,1247,1583552495114,4.5669,-2.2203999,-1.7978,10.78111,-10.218779,-0.05902186,-1
1247,1248,1583552495124,4.8722997,-2.4909,-1.4093,10.86528,-10.599256,0.74701965,-1
1248,1249,1583552495135,4.8984,-2.9183,-0.5985,10.702857,-11.004757000000001,1.2599726,-1
1249,1250,1583552495144,4.6612,-3.3831,-0.0853,10.973958,-11.475936,0.9759245000000001,-1
1250,1251,1583552495154,4.8638,-3.9015,-0.36929998,11.80396,-11.948656,0.022591688,-1
1251,1252,1583552495164,5.626,-4.4328,-1.3342999,13.010447000000001,-12.167353,-0.9256846,-1
1252,1253,1583552495174,6.7555,-4.7253,-2.2740998,13.908435,-12.115608,-1.2669063,-1
1253,1254,1583552495185,7.5548997,-4.7567997,-2.6245,13.77345,-12.360047,-0.86124223,-1
1254,1255,1583552495195,7.3106,-5.0923,-2.2008997999999997,13.311561,-12.708031,0.7728003999999999,-1
1255,1256,1583552495205,6.7007,-5.5554,-0.5578,13.005725,-12.629922,2.243348,-1
1256,1257,1583552495216,5.9052,-5.0955997,1.1632999,12.780153,-11.794221,2.2770295,-1
1257,1258,1583552495226,5.3961997,-4.4933,0.4779,12.406763,-11.06894,1.4929093,-1
1258,1259,1583552495236,4.8157,-4.118,-0.2059,12.004613,-10.54166,0.81063837,-1
1259,1260,1583552495247,4.3627,-3.7617998,-0.631,11.744785,-9.981791000000001,0.35753092,-1
1260,1261,1583552495256,4.3627,-3.7617998,-0.631,11.620813,-9.440241,0.029372066000000002,-1
1261,1262,1583552495266,3.6862998,-2.8081,-1.3483,11.398957000000001,-8.638060000000001,-0.52359277,-1
1262,1263,1583552495276,3.2961998,-2.5630999,-1.5751,11.17757,-8.237767999999999,-0.7615571999999999,-1
1263,1264,1583552495286,2.9399,-2.5094,-1.0727999,10.978583,-8.01302,-0.19740672,-1
1264,1265,1583552495296,2.5709999,-2.6358,0.1004,10.769013000000001,-7.914129300000001,1.0034578,-1
1265,1266,1583552495306,2.5709999,-2.6358,0.1004,10.587092,-7.7912016,2.1074626,-1
1266,1267,1583552495316,1.3504,-2.524,2.8126,9.758297,-7.3321853,3.0496862,-1
1267,1268,1583552495326,0.9324,-2.2905,1.8055999,9.589084,-6.8136779999999995,1.7579474,-1
1268,1269,1583552495336,1.1534,-1.7080000000000002,0.1026,10.022472,-5.986701,-0.11835976,-1
1269,1270,1583552495346,1.7662,-1.2772,-1.7773,10.795399,-5.463941999999999,-1.9375796000000003,-1
1270,1271,1583552495357,2.61,-1.3288,-2.3463,11.745714,-5.4382470000000005,-2.2359068,-1
1271,1272,1583552495367,3.1713998,-2.1179,-1.4512,12.2296295,-6.0742335,-1.314388,-1
1272,1273,1583552495377,2.6927,-2.8825998,0.221,11.587104,-6.4945974,0.34202608,-1
1273,1274,1583552495387,1.1554999,-3.1952,2.4043,10.083247,-6.433182,2.3755653,-1
1274,1275,1583552495397,-0.4242,-3.0914998,4.1916,8.643680999999999,-5.93626,3.8192498999999995,-1
1275,1276,1583552495407,-1.5899,-2.5015,4.892299700000001,7.691382400000001,-5.038482,4.1718297,-1
1276,1277,1583552495417,-1.9469999,-1.7801,4.5417,7.598851700000001,-3.955949,3.3290992,-1
1277,1278,1583552495428,-1.594,-1.4850999,3.1237,8.403580999999999,-3.6153786,1.4126556000000001,-1
1278,1279,1583552495438,-0.2005,-1.3814,1.2287999,9.673456,-3.3625510000000003,-0.015859192,-1
1279,1280,1583552495448,1.0921,-1.1324999,0.1713,10.958921,-2.94844,-1.0038216999999998,-1
1280,1281,1583552495458,1.4189999,-1.2207,-0.24589999,10.976686500000001,-2.989611,-1.5126950000000001,-1
1281,1282,1583552495469,1.2399,-1.6699,-0.4314,10.787019,-3.319551,-1.3349303,-1
1282,1283,1583552495479,0.8594,-2.1601,0.5699,10.348065,-3.4416935,-0.07578127,-1
1283,1284,1583552495489,0.5503,-2.248,2.2403,10.134005,-3.087821,1.4276338,-1
1284,1285,1583552495499,0.0358,-1.7682999,3.1581,8.874626,-1.9495984,1.8369656000000003,-1
1285,1286,1583552495509,-1.5564,-0.9665,3.2038999,6.8033156,-1.0548565,1.5174451,-1
1286,1287,1583552495520,-3.8225,-0.48729998,2.7142,5.116208,-0.6004275,0.96418333,-1
1287,1288,1583552495529,-5.31,-0.26479998,1.5518999,4.226608799999999,-0.3456844,-0.4150205,-1
1288,1289,1583552495539,-5.1377997,-0.4156,0.1973,5.131416000000001,-0.23309948,-1.5624655,-1
1289,1290,1583552495549,-3.6866,-0.3891,-0.6162,6.5381722,-0.34310824,-2.2570617000000004,-1
1290,1291,1583552495559,-2.5857,-1.0392,-1.0378,7.6211658,-1.1042249,-2.2342978,-1
1291,1292,1583552495569,-1.235,-1.9848,0.0037,8.822997,-1.7590294999999998,-0.6482349000000001,-1
1292,1293,1583552495579,-1.0566,-2.3260999,1.9767,7.987631299999999,-1.6980636000000002,1.3666104,-1
1293,1294,1583552495590,-3.3839,-2.3018,3.8256997999999998,4.11298,-1.4321540000000001,2.9641557,-1
1294,1295,1583552495600,-6.8837,-2.1965,4.6103997,1.2369499,-0.8204929,3.0594068,-1
1295,1296,1583552495610,-9.1669,-1.6437,4.3003,-0.09025183,-0.054357957,2.5078592,-1
1296,1297,1583552495620,-9.6104,-1.0615,3.7064,0.37372532,0.61583656,1.9103240000000001,-1
1297,1298,1583552495630,-8.3737,-0.2826,2.4835,2.1586602000000004,1.5596212999999999,0.023300372000000003,-1
1298,1299,1583552495640,-6.9188,0.2342,0.6701,3.278754,1.7393109,-1.8533707999999998,-1
1299,1300,1583552495650,-6.0179996,0.13769999,-0.9952,3.9958842000000003,1.0553833000000001,-2.7079282000000005,-1
1300,1301,1583552495661,-5.245,-0.8487,-1.1111,5.028034,0.011396401,-1.9514563000000003,-1
1301,1302,1583552495671,-4.1542,-1.7146,-0.2259,5.717248400000001,-0.46638092,-1.3638426000000001,-1
1302,1303,1583552495681,-3.7465,-2.0895998,0.4764,5.6060615,-0.52423435,-0.4788978,-1
1303,1304,1583552495691,-4.2874,-1.8641,1.1861,4.6275992,0.06646304,-0.01508347,-1
1304,1305,1583552495701,-5.3472,-1.1773,1.4368,3.7762307999999996,0.9796403,-0.07709329599999999,-1
1305,1306,1583552495711,-5.9972,-0.38369998,1.1194998999999999,3.2671083999999997,1.7416093000000001,-0.69294906,-1
1306,1307,1583552495722,-6.3359,0.0791,0.5014,3.4466162000000002,1.8860849999999998,-1.3187647,-1
1307,1308,1583552495732,-6.0091,0.0607,-0.0755,4.228457,1.4318761999999998,-1.1955973,-1
1308,1309,1583552495742,-5.1233,-0.5302,0.25149998,5.482578299999999,0.5071206,-0.40388265,-1
1309,1310,1583552495752,-3.7939,-1.5167999,1.0248,6.860106,-0.28691155,-0.16639702,-1
1310,1311,1583552495762,-2.4686,-2.1659,1.1312,7.677544,-0.022045807999999997,-0.5926128,-1
1311,1312,1583552495772,-1.8251,-1.7091999,0.64129996,7.331122,0.9263741,-1.2388079,-1
1312,1313,1583552495783,-2.3634,-0.847,0.0367,6.528375,1.4672147,-1.3693781,-1
1313,1314,1583552495793,-3.1286,-0.4693,0.046499997,6.0055003,1.7754825,-0.61853725,-1
1314,1315,1583552495803,-3.5712998,-0.24049999,0.8134,5.772918,2.039199,0.10939587,-1
1315,1316,1583552495813,-3.7405,-0.080699995,1.4444,5.8174220000000005,1.9946956999999998,0.6819644,-1
1316,1317,1583552495824,-3.7045,-0.24929999,1.8949,5.7583613,1.6093919,0.7813238,-1
1317,1318,1583552495834,-3.6989,-0.73289996,1.8392998999999999,6.584925999999999,1.0684364,-0.041467573,-1
1318,1319,1583552495844,-2.5470998,-1.2267,0.8303,9.024752000000001,1.0591662,-1.7821096,-1
1319,1320,1583552495854,-0.46469998,-1.1775,-0.59279996,10.271575,1.6299917,-2.755391,-1
1320,1321,1583552495864,0.7855,-0.60469997,-1.5361999,9.864322,2.0441024,-3.0388262000000004,-1
1321,1322,1583552495874,0.39339998,-0.22289999,-1.7986,8.499396,2.0099706999999998,-2.6732123,-1
