,Seq,Time,ACCx,ACCy,ACCz,ADGx,ADGy,ADGz,Keydown
0,1,1583551723634,0.8415,-0.9841,-0.5783,7.503246300000001,-8.233152,0.9424056999999999,-1
1,2,1583551723644,0.70199996,-1.2142,-0.0028,9.85782,1.055661,-1.1060925,-1
2,3,1583551723654,0.1774,0.0184,-0.0174,10.036052999999999,1.0418895000000001,-0.38917270000000004,-1
3,4,1583551723665,0.3442,0.0134,0.7028,10.069055,1.1573379,0.113169126,-1
4,5,1583551723675,0.34379998,0.1392,1.0675,9.794085,1.3776045,0.15341087,-1
5,6,1583551723685,-0.0105,0.3044,0.9166,9.34455,1.3673095,-0.20547038,-1
6,7,1583551723695,-0.4479,0.1929,0.4851,8.9268,1.1928391,-0.14046302,-1
7,8,1583551723705,-0.8617,-0.030199998999999998,0.5216,8.936741,0.8912655,0.038738184,-1
8,9,1583551723715,-0.784,-0.3037,0.59889996,9.486766000000001,0.93637234,0.062182207,-1
9,10,1583551723726,-0.2465,-0.2717,0.5703,9.913193,1.11701,-0.10625467,-1
10,11,1583551723736,0.2509,-0.0576,0.3087,10.143007,1.1984416000000002,-0.35235947,-1
11,12,1583551723746,0.4172,-0.0099,0.1096,9.990860000000001,1.1099806,-0.21007682,-1
12,13,1583551723757,0.1907,-0.13069999,0.25759998,9.591575,0.8644888000000001,-0.13181517,-1
13,14,1583551723767,-0.2253,-0.2917,0.2038,9.539486,0.87212145,-0.06894343,-1
14,15,1583551723778,-0.2253,-0.2917,0.2038,9.619692,0.9355104,-6.703765000000001e-05,-1
15,16,1583551723788,-0.0101,0.1051,0.10529999400000001,9.774567999999999,1.2329181,-0.055143252000000004,-1
16,17,1583551723798,0.1003,0.2759,-0.076299995,9.865826,1.3996408,-0.23736116,-1
17,18,1583551723808,0.1131,0.23779999,-0.087,9.88088,1.3517951000000001,-0.15978901,-1
18,19,1583551723818,0.20459999,0.1803,0.1105,9.992594,1.3363763000000002,0.114835486,-1
19,20,1583551723829,0.3647,0.1724,0.3513,10.171,1.365873,0.35496435,-1
20,21,1583551723839,0.5642,0.17369999,0.66179997,10.32012,1.3898245,0.6571222,-1
21,22,1583551723849,0.4799,0.2105,1.0058,10.174601,1.4668125,0.9936799000000001,-1
22,23,1583551723859,0.1706,0.2527,1.2573,9.84672,1.537633,1.2652973,-1
23,24,1583551723869,-0.118499994,0.3022,1.4384999,9.569144999999999,1.6358048,1.4783237,-1
24,25,1583551723880,-0.28959998,0.38099998,1.5085,9.4058895,1.7684819999999999,1.5993267,-1
25,26,1583551723890,-0.4301,0.5173,1.4793,9.24906,1.9619908,1.6394056000000001,-1
26,27,1583551723900,-0.4513,0.62189996,1.4081999,9.278192500000001,2.0916128,1.7090483,-1
27,28,1583551723911,-0.4414,0.7255,1.6344999,9.189895,2.1793362999999997,2.2350352000000004,-1
28,29,1583551723921,-0.63449997,0.5317,2.1808999,9.001739,1.9576718000000002,3.0352254000000003,-1
29,30,1583551723932,-0.7916,0.1496,2.8999999,8.726578,1.5179143,3.9844975,-1
30,31,1583551723942,-1.0066998999999999,-0.1779,3.3511998999999997,8.537981,1.3066596000000001,4.264360400000001,-1
31,32,1583551723952,-1.1682,-0.3375,3.3927998999999995,8.328000999999999,1.2489591999999998,4.216601,-1
32,33,1583551723963,-1.4678999,-0.3189,3.3169,7.933617999999999,1.3390003000000001,4.2892985,-1
33,34,1583551723974,-1.9043,-0.21419999,3.4375,7.5241046,1.4306983999999998,4.5272245,-1
34,35,1583551723984,-2.5163999,-0.122899994,3.7833997999999998,6.3514919999999995,1.5818012,5.047485,-1
35,36,1583551723995,-3.4908,0.005,4.0520997,5.54138,1.6511468999999996,5.106794,-1
36,37,1583551724005,-4.4172,0.046699997,3.9664,4.692405,1.6502081999999998,4.758093,-1
37,38,1583551724015,-5.0424,0.027099999,3.5719,4.333581400000001,1.639013,4.4776362999999995,-1
38,39,1583551724025,-5.337999999999999,0.0083,3.3927998999999995,4.1045620000000005,1.4936848999999999,4.6132727,-1
39,40,1583551724035,-5.579,-0.1281,3.5693,3.7207138999999994,1.2816927,4.742214,-1
40,41,1583551724046,-6.0089999999999995,-0.3265,3.7126,3.1936447999999995,0.9621339,4.7225722999999995,-1
41,42,1583551724056,-6.5843,-0.6224,3.6905,2.3889441000000002,0.6342432,3.8996086,-1
42,43,1583551724066,-7.2654,-0.85929996,2.9624999,1.9244019,0.5659702,3.3884754,-1
43,44,1583551724077,-8.0427,-0.9287,2.2186,0.9463801,0.29464963,2.1972356,-1
44,45,1583551724087,-8.7434,-1.1189,1.4158,0.44808919999999997,-0.058102485,1.3667252,-1
45,46,1583551724097,-9.2597,-1.3964,0.69439995,0.171444,-0.5675406999999999,0.84157145,-1
46,47,1583551724107,-9.552,-1.8342999,0.2944,0.16460615,-1.2010368,0.18317558,-1
47,48,1583551724117,-9.538199,-2.7805998,-0.6886,0.22106144,-1.7904894,-0.47917554,-1
48,49,1583551724129,-9.538199,-2.7805998,-0.6886,0.11746911,-2.1074338,-0.5464621999999999,-1
49,50,1583551724139,-9.5777,-3.2623,-1.0112,0.26752812,-2.5330272000000003,-1.1158226,-1
50,51,1583551724149,-9.109,-3.2559,-1.5021,0.8199565999999999,-2.6312563,-1.6791493999999998,-1
51,52,1583551724159,-8.5099,-3.2034,-1.9869,1.3970263,-2.8014266,-2.287583,-1
52,53,1583551724170,-8.1812,-3.4243,-2.5863,1.6300874,-3.3080876000000004,-3.0205537999999996,-1
53,54,1583551724180,-8.1708,-4.1268997,-3.3492,1.6895881999999998,-4.494769,-4.2428703,-1
54,55,1583551724190,-7.9686,-4.8466997,-4.4585,2.0668664,-5.346147,-5.626508,-1
55,56,1583551724200,-7.0548,-5.2841,-5.862,3.299526,-5.7273325999999996,-6.8399277000000005,-1
56,57,1583551724211,-5.6158,-5.0073,-6.3143,4.522713700000001,-5.571719,-6.9396895999999995,-1
57,58,1583551724222,-4.672,-4.5821,-5.9305997,5.231867299999999,-5.3845496,-6.224235,-1
58,59,1583551724232,-4.5176997000000005,-4.2131,-5.3571,5.0269904,-5.388275599999999,-6.220509,-1
59,60,1583551724242,-4.7890997,-4.0386,-5.9325,4.7491097,-5.6344852,-7.356788000000001,-1
60,61,1583551724252,-4.7890997,-4.0386,-5.9325,4.9092913000000005,-5.958938,-8.269956,-1
61,62,1583551724262,-4.2658997,-4.2938,-8.012199,5.920391599999999,-6.5607733999999995,-8.724364999999999,-1
62,63,1583551724272,-3.1831,-4.4848,-8.1581,7.0369034,-7.008489,-8.5997715,-1
63,64,1583551724283,-2.0200999,-4.5673,-7.8896,7.8795094,-7.2740064,-7.724336599999999,-1
64,65,1583551724292,-1.3853999,-4.5295,-6.7170997,8.002025999999999,-7.664979499999999,-6.527791000000001,-1
65,66,1583551724302,-1.4165,-4.8964,-5.7416,7.700978299999999,-8.508887,-6.040628400000001,-1
66,67,1583551724312,-1.4646,-5.3237,-6.1896996,8.082442,-9.355669,-7.123554700000001,-1
67,68,1583551724322,-0.4676,-5.8845,-7.8546,9.662462,-10.267313,-9.079857,-1
68,69,1583551724332,1.6144999,-6.47,-9.946199,11.882241,-10.927721,-10.919647,-1
69,70,1583551724343,4.0229,-6.6868,-11.6369,13.609619,-11.252977,-11.868910000000001,-1
70,71,1583551724353,6.0828,-6.5381,-12.1756,15.387688,-11.158522,-11.387513,-1
71,72,1583551724363,7.0888995999999995,-6.0660996,-10.8831,15.22739,-11.06059,-9.385242,-1
72,73,1583551724373,6.4472,-6.0105,-8.901899,14.030854999999999,-11.819905,-7.960164999999999,-1
73,74,1583551724384,5.5353,-6.6249,-8.2813,13.701547,-12.307413,-8.630666,-1
74,75,1583551724394,6.0831,-6.7989999999999995,-9.785299,15.798025,-12.960293,-10.742352499999999,-1
75,76,1583551724404,8.4913,-7.2854,-11.354099,18.6902,-14.091351500000002,-11.170053,-1
76,77,1583551724414,11.5668,-8.1818,-11.564,21.093854999999998,-14.758242999999998,-10.348037,-1
77,78,1583551724424,13.9508,-8.534699,-10.5880995,22.49904,-14.952096,-9.249806,-1
78,79,1583551724434,15.2922,-8.4807,-9.5015,22.880869,-14.789367000000002,-8.443258,-1
79,80,1583551724444,15.600598999999999,-8.1363,-8.6496,22.479513,-14.600072,-7.3590484,-1
80,81,1583551724454,15.179399499999999,-7.9006,-7.4202,21.856085,-14.78137,-6.0719543,-1
81,82,1583551724464,14.6036,-8.078199,-6.1183,21.347085999999997,-15.128921499999999,-4.9986809999999995,-1
82,83,1583551724474,14.1556,-8.434199000000001,-5.0257,21.028570000000002,-15.440695999999999,-4.1852465,-1
83,84,1583551724485,13.9172,-8.7196,-3.8909,21.020996,-15.455232999999998,-2.9350709999999998,-1
84,85,1583551724495,13.9459,-8.5918,-2.8790998,20.856302,-14.948754000000001,-1.9198624,-1
85,86,1583551724505,13.6676,-8.026999,-1.8269999,19.936863,-14.208188,-0.84635025,-1
86,87,1583551724515,12.7829,-7.4821,-0.87939996,18.801216,-14.010676,0.2605083,-1
87,88,1583551724526,11.566999000000001,-7.3603997,0.2836,17.857756,-13.660998999999999,1.3285329,-1
88,89,1583551724537,10.5252,-7.1292,1.4333,16.86965,-13.447829,2.2062569,-1
89,90,1583551724547,9.4172,-7.06,2.406,15.744864000000002,-13.232245,3.1323054,-1
90,91,1583551724557,8.1679,-6.9937,3.4120998,14.930319,-12.788916,4.104054,-1
91,92,1583551724567,7.2124,-6.7316,4.4301,14.442925,-12.48128,4.2879004,-1
92,93,1583551724577,5.9795,-6.4853997,4.7172,13.84406,-12.012993,4.3223386,-1
93,94,1583551724587,5.9795,-6.4853997,4.7172,13.414626,-11.756526,4.507324,-1
94,95,1583551724598,5.2349,-6.3452,4.9554,12.618286,-11.503852,4.9754385999999995,-1
95,96,1583551724608,4.2831,-6.3402,5.468899700000001,11.685984,-11.304654,5.8675755999999994,-1
96,97,1583551724618,2.2077,-6.3664,7.187599700000001,10.73335,-10.884165,6.736096400000001,-1
97,98,1583551724628,1.6084,-6.1189,7.4316998,10.368099,-10.335692,6.781451700000001,-1
98,99,1583551724639,1.4288,-5.901,7.0035,10.352556,-9.824406,6.290133,-1
99,100,1583551724649,1.1697,-5.7514997,6.4444,10.111413,-9.328519,5.632235,-1
100,101,1583551724660,0.6453,-5.7475,6.1351,9.714636,-9.0778265,5.474783,-1
101,102,1583551724670,-0.22289999,-5.7398,6.3752,8.707654,-8.581384,5.905806,-1
102,103,1583551724680,-1.3568,-5.4521,6.9147,7.5609660000000005,-7.895713300000001,6.572236999999999,-1
103,104,1583551724690,-2.6769,-4.961,7.4488997,6.572888400000001,-7.1907167,6.933244,-1
104,105,1583551724701,-3.9943998,-4.4586,7.4480996,5.1913667000000006,-6.229138400000001,6.907875,-1
105,106,1583551724711,-4.8856,-4.1053,7.2395,4.6290355000000005,-5.6052475,6.760287299999999,-1
106,107,1583551724722,-5.1243,-3.7659998,7.0062,4.6288443,-4.9393720000000005,6.5266128,-1
107,108,1583551724732,-5.0754,-3.4484,6.6096,4.626583999999999,-4.3305073,5.9723554000000005,-1
108,109,1583551724742,-5.2121997,-3.2343,6.0873,4.422636,-3.7717294999999997,5.322291000000001,-1
109,110,1583551724752,-5.5298,-3.0137,5.3391,3.9725072,-3.2984917,4.565647,-1
110,111,1583551724762,-6.0297,-2.7933998,4.7081,3.4803745999999998,-2.9835583999999997,4.3930826,-1
111,112,1583551724772,-6.4869,-2.7714,4.7883,3.2369702,-2.7968776,4.562687400000001,-1
112,113,1583551724783,-6.6538,-2.7862,4.6142,3.1744527999999996,-2.4447575,3.8484302,-1
113,114,1583551724792,-6.5606,-2.5637999,3.7294,3.2848735000000002,-1.9751781000000002,3.1371702999999997,-1
114,115,1583551724802,-6.5214,-2.1259,2.9187,3.0872178,-1.2167908,2.276953,-1
115,116,1583551724812,-6.9191,-1.7311,2.3372998,2.4339263,-0.63860065,1.8390917000000002,-1
116,117,1583551724822,-7.6169,-1.3195,2.0407999,1.7784226000000003,0.014307749,1.6019317,-1
117,118,1583551724832,-8.1846,-0.91389996,1.7571,1.3602322,0.5755469,1.0335864,-1
118,119,1583551724843,-8.4282,-0.486,1.0993,1.3587956,1.2061796999999999,0.20666750000000003,-1
119,120,1583551724853,-8.2416,0.0191,0.19919999,1.6915418000000002,1.7750611,-0.7637408,-1
120,121,1583551724863,-7.7927,0.40649998,-0.6659999999999999,2.3466527000000004,2.1636496,-1.7170831000000002,-1
121,122,1583551724874,-7.1991,0.5920000000000001,-1.3384,2.9743166000000003,2.361401,-2.1040628,-1
122,123,1583551724884,-6.587000000000001,0.6932,-1.5902,3.296289,2.398454,-2.142169,-1
123,124,1583551724894,-6.3273997,0.6225,-1.5092,3.3242724000000003,2.2364047,-2.0602393,-1
124,125,1583551724904,-6.3118,0.37489998,-1.3843,3.3507237,2.1444099999999997,-2.2455312999999997,-1
125,126,1583551724915,-6.236399700000001,0.31329998,-1.5633,3.5123224000000004,2.4222906,-2.5701945,-1
126,127,1583551724925,-6.0534,0.56,-1.8534,3.6280584000000005,2.796016,-3.06318,-1
127,128,1583551724935,-5.9108,0.8935,-2.3233,3.8480663,3.1000888,-3.7312486000000002,-1
128,129,1583551724945,-5.6524,1.1113,-2.9703999,4.1929172999999995,3.138243,-4.476516,-1
129,130,1583551724956,-5.2589999999999995,1.0972998999999999,-3.6557998999999994,4.91001,3.029776,-5.119464,-1
130,131,1583551724967,-4.6324,0.97929996,-4.0734997,5.846813,2.7440328999999997,-5.252984,-1
131,132,1583551724977,-3.6941998,0.6958,-4.1499,6.8792696,2.309629,-5.119243599999999,-1
132,133,1583551724987,-2.6499,0.2714,-3.9589,7.6332803,2.0949838,-4.667707,-1
133,134,1583551724998,-1.6703,0.089099996,-2.9408998,7.840704,2.150309,-4.087448,-1
134,135,1583551725008,-1.6703,0.089099996,-2.9408998,7.643996700000001,2.2523117000000004,-3.7998855000000002,-1
135,136,1583551725018,-2.1877,0.2418,-2.4557,7.2911963,2.3241475,-3.7588873,-1
136,137,1583551725028,-2.2108998,0.3495,-2.4361,7.3520093,2.4389446,-3.7394748,-1
137,138,1583551725039,-2.2108998,0.3495,-2.4361,7.6516867,2.5198302000000004,-3.7023551,-1
138,139,1583551725049,-1.3031,0.4385,-2.2331998,8.33572,2.4845683999999997,-3.5523822,-1
139,140,1583551725059,-0.68619996,0.3405,-1.9554,8.93177,2.3428414,-3.3360903,-1
140,141,1583551725069,-0.68619996,0.3405,-1.9554,9.364268,2.1690892999999996,-3.2477057,-1
141,142,1583551725079,0.1047,0.034399997,-1.7931,9.6969,1.9288743000000002,-3.2190902,-1
142,143,1583551725089,0.27109998,-0.1801,-1.7376,9.836969999999999,1.747116,-3.1731502999999996,-1
143,144,1583551725100,0.38959998,-0.23169999,-1.719,9.941156,1.7389374,-3.24761,-1
144,145,1583551725110,0.4692,-0.19849999,-1.7536,9.96846,1.7867258000000001,-3.282374,d
145,146,1583551725120,0.4107,-0.070599996,-1.7183,9.881933,1.8822638999999999,-3.2130473,-1
146,147,1583551725130,0.2832,0.014699998999999998,-1.4844998999999999,9.736759,1.9581697,-2.89549,-1
147,148,1583551725140,0.14549999,0.107999995,-1.0590000000000002,9.594600999999999,2.065516,-2.4324708,-1
148,149,1583551725150,0.0178,0.1126,-0.6525,9.519777000000001,2.0068486,-2.0717793,-1
149,150,1583551725161,0.0866,0.1096,-0.42729998,9.708143,2.0449738999999996,-2.0077488000000003,-1
150,151,1583551725170,0.4003,0.1608,-0.5805,9.970979,2.064482,-2.2092638,-1
151,152,1583551725180,0.7427,0.098799996,-0.8304,10.344254,1.9347352,-2.5149555,-1
152,153,1583551725190,0.94759995,-0.0018,-0.9935,10.51247,1.8383063999999998,-2.6596994,-1
153,154,1583551725200,1.1031,-0.0064,-1.1316998999999999,10.598796,1.840011,-2.7211251,-1
154,155,1583551725210,1.0329,0.0143,-1.0103999,10.456303,1.8523556,-2.5755002,-1
155,156,1583551725221,0.83529997,-0.0081,-0.8836,10.324238000000001,1.8148335999999998,-2.486503,-1
156,157,1583551725231,0.755,-0.022499999,-0.7317,10.266316999999999,1.7903553,-2.2157187,-1
157,158,1583551725241,0.7229,-0.0074,-0.4477,10.257555,1.8194592,-1.9869383999999999,-1
158,159,1583551725251,0.7229,-0.0074,-0.4477,10.421261,1.878232,-2.1439502,-1
159,160,1583551725261,0.98069996,0.0656,-0.7675,10.515592999999999,1.8756175,-2.5263807999999996,-1
160,161,1583551725271,1.0064,0.092599995,-1.0368998999999999,10.526663000000001,1.8980465,-2.6285462,-1
161,162,1583551725282,0.9644,0.106,-1.1674,10.455919,1.8611662,-2.6578703,-1
162,163,1583551725292,0.89419997,0.025899999,-0.9729,10.400739,1.7404889,-2.176272,-1
163,164,1583551725302,0.83529997,-0.1382,-0.3937,10.322887,1.6330371000000001,-1.690948,-1
164,165,1583551725312,0.6403,-0.2391,0.0694,9.997516000000001,1.5423831000000001,-1.3289065,-1
165,166,1583551725322,0.38689998,-0.2643,0.2373,9.755529,1.5502552,-1.2481356000000001,-1
166,167,1583551725332,0.1228,-0.2687,0.23399999999999999,9.520256,1.6808733,-1.3725479999999999,-1
167,168,1583551725343,-0.0547,-0.0727,-0.0106999995,9.512182000000001,1.9257616999999998,-1.7294276000000002,-1
168,169,1583551725354,0.0407,0.1486,-0.4447,9.688443,2.1301498,-2.1150856,-1
169,170,1583551725364,0.24319999,0.3064,-0.7902,9.869225,2.1428297,-2.2951107000000004,-1
170,171,1583551725374,0.3279,0.2694,-0.8698,9.821916,2.0624897,-2.1645596,-1
171,172,1583551725385,0.2561,0.182,-0.7236,9.718592,1.9788842,-1.916568,-1
172,173,1583551725395,0.1355,0.0831,-0.3725,9.6139555,1.8519915,-1.4595532,-1
173,174,1583551725405,0.044099998,-0.0266,-0.06359999599999999,9.595951,1.8212596,-1.2411542,-1
174,175,1583551725415,0.0703,-0.029099998999999998,0.10569999,9.69283,1.8305875,-1.1880125,-1
175,176,1583551725425,0.1557,-0.0325,0.1092,9.681778,1.8718252,-1.1512950000000002,-1
176,177,1583551725436,0.0852,0.0001,0.1251,9.384772,1.8183866000000002,-1.1577593000000002,-1
177,178,1583551725446,-0.2589,-0.0883,0.1125,8.902331,1.641819,-0.76381737,-1
178,179,1583551725457,-0.6522,-0.2559,0.4612,8.748356,1.6980636000000002,-0.560971,-1
179,180,1583551725467,-0.81079996,-0.20439999,0.6416,8.852886999999999,1.7901349999999998,-0.80682683,-1
180,181,1583551725477,-0.3852,0.053099997,0.0099,9.251645,1.9823415,-1.2253811000000001,-1
181,182,1583551725487,-0.024999999,0.1664,-0.4159,9.610277,2.087246,-1.5953620000000002,-1
182,183,1583551725498,0.1988,0.2374,-0.46469998,9.748269,2.1225652999999998,-1.5671487,-1
183,184,1583551725507,0.1988,0.2374,-0.46469998,9.631414,2.0198921999999997,-1.3750954,-1
184,185,1583551725517,0.0613,0.126,-0.24659999,9.350478,1.8187697,-1.0181677,-1
185,186,1583551725527,-0.2122,-0.089499995,0.097799994,9.135679,1.7477002000000001,-0.7021331999999999,-1
186,187,1583551725537,-0.4761,-0.1699,0.4486,9.060454,1.7382766,-0.6416844,-1
187,188,1583551725547,-0.4077,-0.1494,0.3342,9.165378,1.8040502,-0.7331812,-1
188,189,1583551725558,-0.39839998,-0.0783,0.3159,9.152391,1.8709824000000002,-0.7348859000000001,-1
189,190,1583551725568,-0.39839998,-0.0783,0.3159,9.068911,1.9099599999999999,-0.61471605,-1
190,191,1583551725578,-0.5453,-0.0725,0.57629997,9.025834,1.8650831,-0.43110952,-1
191,192,1583551725588,-0.5843,-0.2232,0.63019997,8.980688,1.7033403999999999,-0.40802940000000004,-1
192,193,1583551725599,-0.5654,-0.3403,0.48709998,9.041157,1.6102922,-0.59254575,-1
193,194,1583551725609,-0.2537,-0.3252,0.18339999,9.491802999999999,1.6666805,-0.92456406,-1
194,195,1583551725619,0.126,-0.21059999,0.0047999997999999995,9.810308000000001,1.8132438999999998,-0.96153057,-1
195,196,1583551725630,0.34019998,0.007999999,0.1522,9.893684,2.0046077,-0.75004596,-1
196,197,1583551725640,0.1639,0.0918,0.3615,9.534601,2.0170286,-0.5919041,-1
197,198,1583551725650,-0.3243,-0.0069,0.3109,9.17867,1.9301288,-0.700122,-1
198,199,1583551725661,-0.4592,-0.0572,0.0765,9.169514999999999,1.9390448,-1.0256377,-1
199,200,1583551725671,-0.1733,0.0337,-0.07,9.53011,2.0647404,-1.0003166,-1
200,201,1583551725681,0.0919,0.0887,0.0942,9.656122,2.0466595,-0.8056776,-1
201,202,1583551725691,0.052899998,0.015999998999999997,0.2647,9.508313000000001,1.9407973000000003,-0.53673214,-1
202,203,1583551725702,-0.133,-0.0771,0.5617,9.317188999999999,1.8634073,-0.27481604,-1
203,204,1583551725712,-0.2798,-0.1692,0.6742,9.277571,1.7630422,-0.43944135,d
204,205,1583551725722,-0.2311,-0.2676,0.3274,9.537504,1.7070755000000002,-0.94602567,-1
205,206,1583551725732,-0.2311,-0.2676,0.3274,9.927508999999999,1.6965026,-1.2396314,-1
206,207,1583551725742,0.6498,-0.2227,-0.37289998,10.342731,1.7882962,-1.3682863,-1
207,208,1583551725752,0.7682,-0.19829999,-0.4357,10.17801,1.8170267,-1.2988448000000001,-1
208,209,1583551725763,0.43649998,-0.1506,-0.2645,9.743731,1.9807709999999998,-1.0489190000000002,-1
209,210,1583551725773,0.0185,0.0245,-0.027199998,9.384409,2.169434,-0.8611752,-1
210,211,1583551725783,-0.2913,0.1785,0.1205,9.102793,2.319857,-0.70729506,-1
211,212,1583551725793,-0.5427,0.26569998,0.2489,8.897486,2.3626366,-0.68123657,-1
212,213,1583551725803,-0.6965,0.2886,0.2049,8.853078,2.3183532000000002,-0.736083,-1
213,214,1583551725814,-0.655,0.1795,0.20449999,8.95645,2.2255254,-0.63016343,-1
214,215,1583551725824,-0.5552,0.094299994,0.2954,9.061086,2.2120889999999997,-0.55538774,-1
215,216,1583551725834,-0.48529997,0.099199995,0.37579998,9.054076,2.2181992999999998,-0.5208921,-1
216,217,1583551725845,-0.5136,0.10439999400000001,0.38599998,8.881932,2.2776616,-0.70076364,-1
217,218,1583551725855,-0.70849997,0.1767,0.1497,8.675035000000001,2.3670228,-0.93274266,-1
218,219,1583551725865,-0.91279995,0.25669998,-0.029199999,8.430252000000001,2.4475443,-0.7357861,-1
219,220,1583551725875,-1.1951,0.3146,0.2722,7.863870599999999,2.3803632,-0.13286862,-1
220,221,1583551725885,-1.6728,0.23369999,0.7822,7.427484,2.1897945,0.028921956000000002,-1
221,222,1583551725896,-2.1113,0.026899998999999997,0.9238,7.137163,2.113314,-0.13420936,-1
222,223,1583551725906,-2.3937,-0.0568,0.7855,6.9978976,2.0699406000000002,-0.33204705,-1
223,224,1583551725916,-2.5398,-0.0958,0.6001,6.678251700000001,2.077037,-0.44814667,-1
224,225,1583551725926,-2.8535,-0.0916,0.50299996,6.095695,2.052683,-0.48407885,-1
225,226,1583551725936,-3.4326,-0.104899995,0.47329998,5.3001976,2.0793738,-0.29468793,-1
226,227,1583551725946,-4.227999700000001,-0.0679,0.66609997,4.3507432999999995,2.083827,0.033461366,-1
227,228,1583551725957,-5.1816,-0.0569,0.97139996,3.4833529999999997,2.1237049999999997,0.50130755,-1
228,229,1583551725967,-6.058799700000001,-0.0001,1.4363999,2.9026918,2.3027337,0.6234884,-1
229,230,1583551725977,-7.1068997000000005,0.5098,1.2149,2.365519,2.5972492999999996,0.24826914,-1
230,231,1583551725987,-7.1068997000000005,0.5098,1.2149,2.0570788,2.6995007999999996,-0.15415785,-1
231,232,1583551725998,-7.7928996,0.70669997,0.3533,1.6947788000000001,2.6027557999999997,-0.5921148,-1
232,233,1583551726009,-8.300799000000001,0.5488,0.091299996,1.2191178999999999,2.3377178,-0.7370598,-1
233,234,1583551726019,-8.7223,0.33399999999999996,0.3933,0.8372331000000001,2.0520415,-0.30420727,-1
234,235,1583551726029,-9.0864,0.2197,1.0239,0.5012501,1.8544338,0.430104,-1
235,236,1583551726039,-9.1973,0.2367,1.8011999,0.54285175,1.8048832,1.3836473999999999,-1
236,237,1583551726050,-9.084,0.4358,2.3319,0.60494775,1.8952596000000002,1.7365146,-1
237,238,1583551726060,-9.084,0.4358,2.3319,0.5300762,1.9638581999999998,1.46302,-1
238,239,1583551726070,-9.1848,0.8566,1.7091999,0.57327724,1.883825,0.9443689000000001,-1
239,240,1583551726080,-9.2077,0.7768,1.1316,0.45074198,1.5603683000000002,0.43167457,-1
240,241,1583551726090,-9.488,0.3374,0.703,0.21297860000000002,0.7285843000000001,0.108964905,-1
241,242,1583551726101,-9.5983,-0.5008,0.5545,0.19367176,-0.33748665,0.06423164,-1
242,243,1583551726111,-9.5095,-1.2944,0.9612,0.46385264,-1.2860023,0.82628685,-1
243,244,1583551726121,-8.976399,-1.7881,1.9454,1.1533635,-1.7918971999999997,1.6485037,-1
244,245,1583551726131,-8.4985,-1.7265999,1.9904,1.4705473,-1.894254,0.9806363000000001,-1
245,246,1583551726141,-8.172,-1.6416998999999999,1.055,1.871605,-2.0701993,0.21675186,-1
246,247,1583551726151,-7.7890997,-1.5378,0.4732,2.1726902000000003,-2.4495077000000003,-0.0029305028999999996,-1
247,248,1583551726162,-7.4856997000000005,-1.915,0.33269998,2.3798362999999996,-3.2453501,-0.0701118,-1
248,249,1583551726172,-7.1923,-2.8804,0.36139998,2.7758374,-4.705095,0.17503529999999998,-1
249,250,1583551726182,-6.8198,-3.589,0.6587,3.003344,-5.551866,0.5470368,-1
250,251,1583551726192,-6.5241,-4.1636,1.0037,3.5135483999999995,-6.51401,0.5487893,-1
251,252,1583551726203,-5.6657,-4.7865,0.71279997,4.7093663,-7.4005156,0.15227123,-1
252,253,1583551726213,-4.1724997,-5.2792997,0.1925,6.278459,-8.131504,-0.43287167,-1
253,254,1583551726223,-2.6029,-5.6617,-0.3391,7.4785957,-9.229476,-0.3969012,-1
254,255,1583551726233,-1.7242,-6.2713,-0.17819999,7.5845532,-10.21827,0.05641697,-1
255,256,1583551726244,-1.6854999,-7.4087,0.44919997,7.4115577,-12.159471,1.0062351,-1
256,257,1583551726254,-1.3478,-9.0421,1.5289999,8.827622999999999,-14.656604000000002,1.9987848999999998,-1
257,258,1583551726264,0.4269,-10.7514,1.9322,11.612807,-15.70534,1.1636107,-1
258,259,1583551726274,3.5565998999999997,-11.1896,0.90669996,14.675566,-15.723345000000002,0.21606234,-1
259,260,1583551726284,6.6979,-10.7183,0.0229,16.650170000000003,-15.126078,-0.57042336,-1
260,261,1583551726296,8.5244,-9.7282,-0.73069996,16.958399,-14.155967,-1.0480857,-1
261,262,1583551726306,8.6916,-8.4661,-1.0873,15.4155655,-13.183154,-0.95407027,-1
262,263,1583551726316,7.4424996,-7.4476,-0.96099997,13.959413,-13.13686,-0.4608647,-1
263,264,1583551726326,5.8528,-7.2465,-0.3329,13.234141000000001,-13.740974,0.22579238,-1
264,265,1583551726336,5.5738,-7.5884,0.1357,14.838735999999999,-14.107776999999999,-0.34441072,-1
265,266,1583551726347,7.3599,-7.7469997,-0.4685,17.185033999999998,-13.872101,-1.2124716999999998,-1
266,267,1583551726357,11.2456,-6.910599700000001,-1.9805,18.387545000000003,-13.689451000000002,-1.8647863000000002,-1
267,268,1583551726368,11.2464,-6.631,-2.168,18.091929999999998,-13.520832999999998,-2.0285401000000003,-1
268,269,1583551726378,10.833799,-5.9873,-2.3097,17.498445999999998,-12.92913,-2.2363281,-1
269,270,1583551726389,10.1587,-5.199,-2.4668,16.64697,-12.278136,-2.3345957000000004,-1
270,271,1583551726399,9.214399,-4.5555,-2.2927,15.324461999999999,-11.821878,-1.9254648999999997,-1
271,272,1583551726409,8.3098,-4.4142,-1.4986999,14.583282999999998,-11.846434,-1.1002601,-1
272,273,1583551726420,7.6341,-4.3795,-0.2932,13.692707999999998,-11.843982,0.28172090000000005,-1
273,274,1583551726429,7.0318,-4.1457,0.2807,13.138594,-11.6657095,0.587901,-1
274,275,1583551726439,6.6303997,-3.7034,0.113199994,12.679233,-11.181199000000001,0.2899474,-1
275,276,1583551726449,6.5469,-3.0131,-0.6084,12.617816,-10.467833,-0.42067079999999996,-1
276,277,1583551726460,6.5906,-2.3613,-1.0515,12.553863,-9.949326,-0.6183456999999999,-1
277,278,1583551726470,6.3815,-1.7617999,-0.87009996,12.077177,-9.384754,-0.11301589999999999,-1
278,279,1583551726481,5.5821,-1.3835,-0.1938,11.012369999999999,-9.117014999999999,0.5023896999999999,-1
279,280,1583551726491,4.3237,-1.1261,0.0295,9.724136,-8.878255000000001,0.5459163,-1
280,281,1583551726501,3.214,-0.885,-0.104899995,8.782966,-8.620036,0.39683414,-1
281,282,1583551726511,2.6055999,-0.6238,-0.1762,8.376833,-8.382713,0.34840423,-1
282,283,1583551726521,2.5125,-0.4569,-0.32909998,8.540902,-8.34249,0.043823466,-1
283,284,1583551726531,2.875,-0.4632,-0.61719996,8.9909935,-8.276553999999999,-0.10155246,-1
284,285,1583551726541,3.2752,-0.3622,-0.6227,9.157411,-8.215952,0.03934152,-1
285,286,1583551726551,3.2363,-0.18789999,-0.4346,8.867931,-8.005118,0.15837166,-1
286,287,1583551726561,2.6582,-0.030499997999999997,-0.4628,8.019484,-7.878819999999999,0.14882357,-1
287,288,1583551726571,1.9262999,0.0235,-0.3276,7.3995295,-7.821761,0.49128062,-1
288,289,1583551726581,1.3694,0.027199998,0.049999997000000004,7.035639999999999,-7.9830440000000005,0.7755681,d
289,290,1583551726592,1.0601,-0.3108,0.3041,6.896459599999999,-8.253905,1.0149690999999998,-1
290,291,1583551726601,1.1169,-0.353,0.60859996,7.0542183000000005,-8.102553,1.3866929,-1
291,292,1583551726611,1.2530999,-0.15959999,0.7308,7.113096700000001,-7.967855499999999,1.2910206,-1
292,293,1583551726622,1.3289,-0.0462,0.3996,7.196309599999999,-7.884891499999999,0.7778378,-1
293,294,1583551726632,1.3817999,-0.0232,-0.0755,7.2758064,-7.9109783,0.50660354,-1
294,295,1583551726642,1.4501,-0.1104,-0.19739999,7.3749839999999995,-8.067751,0.59215313,-1
295,296,1583551726652,1.5130000000000001,-0.2891,-0.014699998999999998,7.388391499999999,-8.236571000000001,0.83080715,-1
296,297,1583551726662,1.4624,-0.44219998,0.21139999,7.248398,-8.309650999999999,1.0797753,-1
297,298,1583551726672,1.1803,-0.5511,0.48459998,6.8711576,-8.416528999999999,1.3810521,-1
298,299,1583551726683,0.777,-0.69269997,0.78169996,6.5518765,-8.505353999999999,1.5675796,-1
299,300,1583551726693,0.5021,-0.7856,0.7672,6.495890599999999,-8.598431,1.3225284,-1
300,301,1583551726703,0.6246,-0.9245,0.43989998,6.9864625999999985,-8.721531,1.0580935,-1
301,302,1583551726713,1.2630999,-1.0396,0.1875,7.925028,-8.804553,0.7307199000000001,-1
302,303,1583551726723,2.0309,-1.1042,-0.1218,8.394712,-8.805643,0.61711985,-1
303,304,1583551726733,2.47,-1.1233,-0.2573,8.574614,-8.786394,0.5114015000000001,-1
304,305,1583551726743,2.4580998,-1.1395,-0.3355,8.377369,-8.926149,0.6803172,-1
305,306,1583551726753,2.174,-1.375,-0.0642,8.194088,-9.1685,1.0987280000000001,-1
306,307,1583551726763,2.0384998,-1.6209999,0.4755,8.346895,-9.278116,1.5564034,-1
307,308,1583551726773,2.2263,-1.7684,0.7653,8.654666,-9.391831,1.555647,-1
308,309,1583551726784,2.5221999,-1.9174,0.6017,9.09563,-9.575198,1.2254770000000001,-1
309,310,1583551726794,2.8774,-2.1661,0.2789,9.750272,-9.798769,1.0657071000000002,-1
310,311,1583551726804,3.5569,-2.3961,0.1345,10.681443,-9.8769245,0.8628703000000001,-1
311,312,1583551726814,4.4909,-2.5197,-0.19739999,11.844000999999999,-9.993714,0.29237992,-1
312,313,1583551726824,5.6649,-2.6969,-0.81839997,13.001407,-10.096817,-0.024449587000000002,-1
313,314,1583551726834,6.973099700000001,-2.9132,-1.0861,14.264079,-10.398975,-0.09683109,-1
314,315,1583551726845,7.7906,-3.2726,-1.0324,14.795266,-10.676396,0.14119086,-1
315,316,1583551726855,8.113999,-3.5937,-0.7284,14.809967000000002,-10.713957,0.7121601,-1
316,317,1583551726865,7.9080997,-3.7292,-0.0758,14.509016,-10.635417,1.0123643,-1
317,318,1583551726875,7.4649997,-3.7439999999999998,0.1742,14.294025,-10.264603999999999,1.0013413,-1
318,319,1583551726885,7.1461997,-3.4650998,0.1418,14.299159,-9.878217999999999,0.5617659,-1
319,320,1583551726895,7.0751,-3.2889,-0.3205,14.6684885,-10.009793,0.01934515,-1
320,321,1583551726906,7.379699700000001,-3.675,-0.7657,15.379604,-10.3536005,-0.18203595,-1
321,322,1583551726916,7.830899700000001,-4.1073,-0.853,15.850295000000001,-10.508659,-0.40006152,-1
322,323,1583551726927,8.1684,-4.436,-1.0206,15.851214,-10.594859,-0.42808324,-1
323,324,1583551726937,8.0146,-4.7183,-0.9834,15.260546,-10.477227000000001,-0.23404758,-1
324,325,1583551726947,7.2510996,-4.8219,-0.7344,14.106071,-10.261903,0.043497857,-1
325,326,1583551726958,5.9206,-4.8445,-0.41669998,12.657914,-9.823889,0.6483403,-1
326,327,1583551726968,2.7991998,-4.232199700000001,1.1386,11.108338999999999,-8.928045,1.6169288999999998,-1
327,328,1583551726978,2.7991998,-4.232199700000001,1.1386,10.381488000000001,-8.173392,1.9163573,-1
328,329,1583551726988,0.9298,-2.7659,1.5674,9.649581,-6.9027324000000005,1.7482461,-1
329,330,1583551726999,0.2171,-2.6855,1.4004999,9.095993,-6.7511220000000005,1.5785642,-1
330,331,1583551727010,-0.1458,-3.1482,1.7127,8.897945,-7.031426,2.0026252,-1
331,332,1583551727020,-0.1909,-3.5674,2.1913,9.053567999999999,-7.153741,2.2659873999999998,-1
332,333,1583551727030,0.0583,-3.7631997999999998,2.1450999,9.459414500000001,-6.9514116999999995,1.9804262,-1
333,334,1583551727040,0.4116,-3.4706,1.7233,9.827086,-6.400093599999999,1.5477653,-1
334,335,1583551727051,0.63049996,-2.7977998,1.3689,9.926428,-5.25624,1.2418532,-1
335,336,1583551727061,0.0764,-2.0458998999999998,1.7306999,9.05669,-4.252294,1.8089247,-1
336,337,1583551727071,-1.5231,-1.4582,2.4456,7.2018065,-3.590115,2.4144087000000005,-1
337,338,1583551727081,-3.5753998999999994,-1.3332,3.0605998,5.036672599999999,-3.2412607999999996,2.856618,-1
338,339,1583551727092,-5.075999700000001,-1.3449999,3.1137,4.288245,-3.1068599999999997,2.5084242999999997,-1
339,340,1583551727102,-5.2885,-1.4253,2.3432,5.1303334000000005,-2.7602367,1.4180665000000001,-1
340,341,1583551727112,-3.9508,-1.0993998999999999,1.6252999,6.6440344,-2.1505296,1.0959506,-1
341,342,1583551727122,-2.6264,-0.6641,1.6334,7.453590400000001,-1.7245339,1.389068,-1
342,343,1583551727132,-2.0446,-0.28689998,2.1468,7.490107000000001,-1.0818919,2.0914502,-1
343,344,1583551727143,-2.6581,0.0871,2.7299,6.5205126,-0.8404988999999999,2.409381,-1
344,345,1583551727153,-4.2703,-0.0436,2.8230999,4.550199500000001,-0.9782228999999999,2.2388084,-1
345,346,1583551727163,-5.7226,-0.2588,2.3934999,3.5660964999999996,-0.8440040000000001,1.5010782,-1
346,347,1583551727173,-6.4551997000000005,-0.12459999,1.5634999,3.188483,-0.5794351,0.70991915,-1
347,348,1583551727184,-6.6057997,0.1028,0.3755,3.4099559999999998,-0.43440396,-1.4024085,-1
348,349,1583551727194,-6.2634,-0.059000000000000004,-1.1535,3.949475,-0.60523504,-2.4648783,-1
349,350,1583551727204,-5.7331,-0.2401,-1.9891,4.211257499999999,-0.5763514,-2.5114697999999995,-1
350,351,1583551727214,-5.6238,-0.2969,-1.6969,3.8594148,-0.75947905,-1.2189072,-1
351,352,1583551727224,-6.0537,-0.6211,-0.16409999,3.1933384,-1.1686482,0.60705465,-1
352,353,1583551727234,-6.7288,-1.0971999,1.6633999,2.5556092,-1.1107277,1.7960726000000002,-1
353,354,1583551727245,-7.3447,-1.0008,2.6271,2.0769699,-0.43275675,1.7656375,-1
354,355,1583551727255,-7.7830997,-0.35999998,2.3995,1.6468276000000002,0.4591983,0.6603783000000001,-1
355,356,1583551727265,-8.2037,0.4341,1.1969,1.2877931999999999,1.0561111,-0.48936528,-1
356,357,1583551727275,-8.5455,0.8893,0.12969999,1.0889596000000001,1.2554715,-1.125476,-1
357,358,1583551727285,-8.6912,0.935,-0.33769998,1.4328531,0.7228287,-1.2249598999999998,-1
358,359,1583551727295,-8.3466,0.41439998,-0.4069,2.2996882999999997,0.23859656,-1.2120981000000002,-1
359,360,1583551727306,-7.1882,-0.14919999,-0.32619998,3.6644212999999994,0.08865251,-0.5899025999999999,-1
360,361,1583551727316,-5.9031,-0.22909999,0.44299999999999995,4.4776362999999995,0.118560866,0.63866764,-1
361,362,1583551727326,-5.2949,-0.2104,1.4512999,4.5874440000000005,0.29050288,1.1154872999999998,-1
362,363,1583551727337,-5.1863,-0.0565,1.9311999,4.2476487,0.6624181,0.47994167,-1
363,364,1583551727346,-5.5281,0.2883,1.2988,4.0269995000000005,0.979037,-0.35793316,-1
364,365,1583551727356,-5.7711997,0.63839996,0.32209998,4.0024443,1.1833485000000001,-0.9191628000000001,-1
365,366,1583551727366,-5.7688,0.7748,-0.0369,4.450179,0.71768594,-0.46742478,-1
366,367,1583551727376,-5.3145,0.30789998,0.4513,5.169388,0.07678683,-0.5001104000000001,-1
367,368,1583551727386,-4.3497,-0.4394,0.36969998,6.99602,-0.67437,-1.2458467,-1
368,369,1583551727397,-2.7667,-1.0191,-0.23439999,8.862377,-0.7910729999999999,-2.0658512,-1
369,370,1583551727407,-0.8889,-1.107,-0.99429995,10.205648,-0.5247611,-2.7439852000000005,-1
370,371,1583551727417,0.4592,-0.8135,-1.633,10.332089999999999,-0.28509194,-2.6751277,-1
371,372,1583551727427,-0.2553,-0.5433,-0.4204,9.249452999999999,-0.21600488,-1.3845379999999998,-1
372,373,1583551727437,-0.2553,-0.5433,-0.4204,8.368913000000001,-0.25007915,-0.7183276,-1
373,374,1583551727448,-2.0248,-0.6191,0.782,7.642042999999999,-0.18646044,-0.59465265,-1
374,375,1583551727458,-1.9016998999999999,-0.46109998,0.08109999400000001,7.956938,0.027226862,-1.4741195,-1
375,376,1583551727469,-0.8606,-0.098299995,-1.0711,9.120538999999999,0.41620803,-2.606031,-1
376,377,1583551727479,0.42299998,0.28399998,-1.7752999,10.355507000000001,0.7322714,-3.1722982,-1
377,378,1583551727489,1.3246,0.3448,-1.8781999,11.176909,0.7034739000000001,-3.1910303,-1
378,379,1583551727499,1.8066,0.1484,-1.5097,11.560183,0.39311835,-2.661548,-1
379,380,1583551727509,1.7314,-0.086399995,-0.87829995,11.363053,0.23094471,-2.1426861,-1
380,381,1583551727520,1.0878999,-0.2803,-0.2778,10.635168,0.0764325,-1.5848466,-1
381,382,1583551727529,0.267,-0.43469998,0.1269,9.860403999999999,-0.063838996,-1.2543415,-1
382,383,1583551727539,-0.1734,-0.44959998,0.2917,9.501217,-0.00028730419999999996,-1.1093006,-1
383,384,1583551727549,-0.2041,-0.19929999,0.20009999,9.522764,0.30459990000000003,-1.2868834999999998,-1
384,385,1583551727559,0.028099999,0.0546,-0.27269998,9.788148,0.5254698,-1.7129651000000001,-1
385,386,1583551727569,0.2698,0.21159999,-0.4712,10.075691,0.6825965,-1.8432959,-1
386,387,1583551727579,0.5421,0.276,-0.4632,10.356761,0.66916025,-1.7737108,-1
387,388,1583551727590,0.8754,0.0756,-0.3217,10.71274,0.28901845,-1.7019901000000002,-1
388,389,1583551727600,1.1912999,-0.38419998,-0.39249998,10.997688,-0.12610739999999998,-1.7910161,d
389,390,1583551727610,1.3608999,-0.56839997,-0.3612,11.062102000000001,-0.18565598,-1.7167671000000002,-1
390,391,1583551727620,1.1675999,-0.51949996,-0.2659,10.767549,-0.11338939,-1.6637307000000001,-1
391,392,1583551727630,0.6016,-0.4529,-0.13499999,10.110455499999999,0.0022122425,-1.4781513000000002,-1
392,393,1583551727641,0.124699995,-0.315,0.0673,9.685427,0.23835714,-1.2914706,-1
393,394,1583551727651,-0.17469999,-0.0799,0.23529999,9.435549,0.5046210999999999,-1.2371607,-1
394,395,1583551727661,-0.35549998,0.1498,0.1453,9.290805,0.77268547,-1.5119958,-1
395,396,1583551727671,-0.4182,0.30069998,-0.1645,9.305333000000001,0.8232702,-1.882896,-1
396,397,1583551727681,-0.26549998,0.2676,-0.66969997,9.532867999999999,0.7566539000000001,-2.4656065,-1
397,398,1583551727691,0.033099998,0.1863,-1.1498,9.920834,0.60626936,-2.9957113,-1
398,399,1583551727703,0.4188,-0.0158,-1.5959999999999999,10.415496000000001,0.35305858,-3.4953046000000003,-1
399,400,1583551727713,0.9407,-0.17899999,-2.0302,10.849736,0.43828255,-3.9660141,-1
400,401,1583551727723,1.1782,-0.0082,-2.4187999,10.5443325,0.6580031999999999,-4.418145,-1
401,402,1583551727733,0.7793,0.1761,-2.8446,10.179831,0.7251941,-4.7243533,-1
402,403,1583551727743,0.392,0.257,-3.2356,9.825919,0.8570572,-5.23724,-1
403,404,1583551727753,0.018000000000000002,0.3028,-3.7301998,9.539659,0.8412267,-5.621317400000001,-1
404,405,1583551727763,-0.1906,0.1548,-4.1131997,9.404759,0.70491046,-6.1839066,-1
405,406,1583551727774,-0.2794,0.1195,-4.7021,9.057112,0.91260266,-7.2464633,-1
406,407,1583551727784,-0.6827,0.2738,-5.6770000000000005,8.49254,0.9567613000000001,-8.397432,-1
407,408,1583551727794,-1.4307,0.1859,-7.1408997,7.924913,0.5435029,-9.5305605,-1
408,409,1583551727804,-1.6427,-0.2791,-7.6892996,8.388699,0.05329493,-9.305591999999999,-1
409,410,1583551727815,-1.0935999,-0.73609996,-7.401799700000001,9.173738499999999,-0.3572532,-9.011019000000001,-1
410,411,1583551727825,-0.26319999,-1.1378,-7.1478,10.043562,-0.5449778000000001,-8.993043,-1
411,412,1583551727835,0.573,-1.2703999,-7.2560997,10.650587,-0.30161193,-9.420418,-1
412,413,1583551727845,1.0119,-1.0411,-7.6987,10.497195,-0.11784261,-9.7247305,-1
413,414,1583551727856,0.73219997,-0.8508,-8.214399,9.717872999999999,-0.17926826,-10.271997,-1
414,415,1583551727866,-0.12539999,-0.9790000000000001,-8.7985,8.725926,-0.28950685,-9.972339,-1
415,416,1583551727876,-0.951,-1.1178,-8.5553,8.192900999999999,-0.6232681999999999,-8.790981,-1
416,417,1583551727886,-1.5,-1.4954,-7.4653997,8.092086,-0.959031,-7.0144934999999995,-1
417,418,1583551727897,-1.6065999,-1.8698,-5.7844,7.975871000000001,-1.2241266000000002,-5.9459333,-1
418,419,1583551727907,-1.7325,-2.1678,-4.8101997,7.8611026,-1.4594479,-5.871693,-1
419,420,1583551727917,-1.8591,-2.4285997999999998,-4.8455997,7.8578467000000005,-1.3606249,-5.5353847,-1
420,421,1583551727927,-1.8686,-2.3515,-4.6197,7.632801,-1.051476,-4.933664299999999,-1
421,422,1583551727938,-2.9243,-1.9942,-3.4908,6.58937,-0.9674778,-3.9804082000000003,-1
422,423,1583551727948,-3.9201,-2.0502,-2.7389,5.5150533,-0.97320473,-2.8374066000000004,-1
423,424,1583551727958,-4.8064,-2.0327,-1.4767,4.77603,-0.9306741,-1.4419893999999998,-1
424,425,1583551727968,-5.2602997,-2.0722,-0.47219998,4.447727700000001,-1.0164632,-0.5174827000000001,-1
425,426,1583551727978,-5.2924,-2.2537,0.3759,4.5011470000000005,-1.1850628,0.5274043,-1
426,427,1583551727988,-4.9909,-2.1766,1.6057999,4.8458643,-1.0354635,1.9154093,-1
427,428,1583551727999,-4.8167,-1.8057,2.7911,4.9156504,-0.68573767,3.1267796000000003,-1
428,429,1583551728009,-5.1419,-1.4179,3.4419,4.506126999999999,-0.35217750000000003,3.7688758,-1
429,430,1583551728019,-5.6721,-1.1307,3.49,3.9969952000000006,-0.12400050000000001,3.889007,-1
430,431,1583551728029,-6.0741,-0.93189996,3.8602998,3.6287095999999996,-0.008226477,4.5497785,-1
431,432,1583551728039,-6.4073,-1.1141,4.7601,3.232383,-0.5588929,5.6767769999999995,-1
432,433,1583551728050,-6.6721,-1.7965,5.4112,3.060527,-1.1511897,6.25513,-1
433,434,1583551728060,-6.7317,-2.1575,6.4449,3.0729002999999997,-1.4795208999999998,7.764760000000001,-1
434,435,1583551728070,-6.5758,-1.9518,7.8441997,3.2354286,-1.2387217,9.254499000000001,-1
435,436,1583551728080,-6.634299799999999,-1.6308999,9.1796,2.9789423999999998,-1.0271317,10.625745,-1
436,437,1583551728090,-7.0532,-1.3323,10.4018,2.5019026,-0.8505449,11.728093,-1
437,438,1583551728100,-7.5278997,-1.0924,11.099199,2.0667899,-0.77242696,12.469348,-1
438,439,1583551728111,-7.8143997,-1.0172,11.6615,1.887014,-0.9368703000000002,12.874178,-1
439,440,1583551728121,-7.8957,-1.2150999,11.4739,1.8421946,-1.2524452,12.625909,-1
440,441,1583551728131,-7.6944,-1.4128,10.9163,2.2889814,-1.655102,11.980805,-1
441,442,1583551728141,-6.9059,-1.5831,10.5443,3.1948418999999997,-2.0002885,11.975749,-1
442,443,1583551728151,-6.0678,-1.7502999,11.2269,3.8604681000000003,-2.2408197,12.977081,-1
443,444,1583551728161,-5.7377,-1.6746,12.5012,4.0104313,-2.2063048,14.298316,-1
444,445,1583551728172,-5.7478,-1.4352,13.621699,3.8558524,-2.045989,15.084189000000002,-1
445,446,1583551728182,-5.9217997,-1.1351,13.6817,3.68301,-2.0238857,14.700895999999998,-1
446,447,1583551728192,-6.1042,-1.2486,12.9326,3.6513107000000002,-2.8497417,13.58359,-1
447,448,1583551728203,-5.7966,-2.1527,11.8976,4.403674,-4.1636987,12.278127,-1
448,449,1583551728213,-4.7421,-3.3263998,10.7303,5.806992500000001,-5.630387000000001,11.318119,-1
449,450,1583551728223,-3.1727,-4.5771,9.9998,7.489685499999999,-6.841249499999999,10.543058,-1
450,451,1583551728234,-1.3805,-5.3434,9.3849,9.490212,-7.494971799999999,10.066794999999999,-1
451,452,1583551728244,0.17359999,-5.5334997,9.1746,10.48555,-7.552011,9.767308,-1
452,453,1583551728254,1.1116999,-5.2437997,8.908899,10.773610000000001,-7.358080999999999,9.567938999999999,-1
453,454,1583551728264,1.2152,-4.9877996,8.7911,10.353371000000001,-7.6167983999999995,9.407336,-1
454,455,1583551728274,0.5897,-5.4042997,8.2851,9.704246000000001,-8.774357,7.6873217,-1
455,456,1583551728284,0.32899999999999996,-6.2651,6.6524997,10.481069,-9.879204,6.0422754,-1
456,457,1583551728295,1.4174,-7.2257,5.1429,12.256359,-10.975576,4.803257,-1
457,458,1583551728305,3.386,-8.029699,4.0615,14.409618,-11.332054,4.031692,-1
458,459,1583551728315,5.5264997000000005,-8.019199,3.4218998,15.667492999999999,-11.001644,3.697021,-1
459,460,1583551728325,6.5978,-7.4256997,3.1736999,15.275026,-10.386507,3.7172758999999997,-1
460,461,1583551728335,5.7900996,-6.7416,3.3555998999999996,12.991006,-10.522047,4.39699,-1
461,462,1583551728346,3.4173,-6.9637,3.9873998,11.167017,-11.418303,4.3411856,-1
462,463,1583551728356,1.9969,-7.7987,3.6137,11.560882000000001,-12.586922,2.5408034,-1
463,464,1583551728366,2.597,-8.626699,1.9544,13.312318,-13.01127,0.80995846,-1
464,465,1583551728376,4.9446,-8.9555,-0.2502,16.149954,-13.044913000000001,-1.1126047,-1
465,466,1583551728386,7.3349,-8.784599,-1.7996,17.157183,-12.514952000000001,-1.2337799999999999,-1
466,467,1583551728396,8.4102,-8.1193,-1.9562,16.270966,-12.138862,-0.9775334000000001,-1
467,468,1583551728406,7.5604997,-7.664499799999999,-1.7139,14.899587,-12.061069,-0.61380625,-1
468,469,1583551728417,5.2345,-7.5203,-0.9375,12.101157,-12.027579,0.2616192,-1
469,470,1583551728427,3.0089998,-7.5346,-0.569,10.62427,-12.11647,-1.9540324,-1
470,471,1583551728437,2.9241998,-7.0678,-5.6717,11.980988,-11.42083,-5.572255,-1
471,472,1583551728448,2.9241998,-7.0678,-5.6717,13.239935999999998,-10.827805499999998,-7.4105425,-1
472,473,1583551728458,4.975,-5.7191997,-9.2944,13.588951999999999,-10.147288,-8.883696,-1
473,474,1583551728468,4.0947,-5.1995,-9.6574,12.561639,-9.598374,-9.125126,-1
474,475,1583551728478,2.7956,-4.5281,-9.3768,11.217381,-8.871111,-8.821044,-1
475,476,1583551728488,1.4140999,-3.7287998,-8.802899,9.878324000000001,-8.034903,-8.189491,-1
476,477,1583551728499,0.081,-3.0989999999999998,-8.5144,8.624326,-7.437473,-8.153167,-1
477,478,1583551728509,-0.5618,-2.7475998,-9.6094,8.236408,-7.083035000000001,-9.484304,-1
478,479,1583551728519,0.0863,-2.2656999,-11.2913,9.076945,-6.494569,-11.071449000000001,-1
479,480,1583551728530,1.1308,-1.5192,-12.1241,10.053521,-5.7669806,-11.714906,-1
480,481,1583551728540,1.3991,-1.0877,-11.9892,9.976734,-5.366287000000001,-11.424441,-1
481,482,1583551728550,0.59389997,-0.89049995,-11.699699,9.137921,-5.1615443,-11.302327,-1
482,483,1583551728561,-0.6455,-0.6311,-11.774799,7.7830520000000005,-4.8626523,-11.482074,-1
483,484,1583551728571,-1.4623,-0.4587,-12.043699,7.2160087,-4.633585,-11.821218,-1
484,485,1583551728581,-1.7648,-0.2298,-12.2288,7.046863,-4.443283999999999,-11.892958,-1
485,486,1583551728591,-1.739,-0.2374,-12.2477,7.246567999999999,-4.6530830000000005,-11.975767999999999,-1
486,487,1583551728601,-1.3679,-0.6523,-12.285999,7.691660000000001,-5.110481,-11.6301985,-1
487,488,1583551728611,-1.0662999,-1.0088999,-11.6684,7.8151054,-5.408818,-11.057544,-1
488,489,1583551728622,-1.1108999,-1.3511,-10.7534,7.4860077,-5.692569000000001,-9.759819,-1
489,490,1583551728632,-1.6682,-1.5036,-9.616099,6.852664999999999,-5.757988500000001,-9.071102999999999,-1
490,491,1583551728642,-2.5202,-1.5404999,-9.104899000000001,6.002378500000001,-5.663695,-8.757367,-1
491,492,1583551728652,-3.0254,-1.3656,-8.9395,5.731604,-5.5026894,-8.588403999999999,-1
492,493,1583551728663,-3.142,-1.3651999,-8.8011,5.9133716,-5.717727,-8.267486,-1
493,494,1583551728673,-2.7235,-1.5796,-8.330299,6.4620748,-5.764021400000001,-7.5724483,-1
494,495,1583551728683,-2.283,-1.5739,-7.6640997,6.5445123,-5.958182,-7.018296,-1
495,496,1583551728693,-2.3637,-1.875,-7.305299799999999,6.363003,-6.405553,-6.6001725,-1
496,497,1583551728703,-2.5163,-2.2014,-6.8956,6.110798,-6.5115680000000005,-5.790693,-1
497,498,1583551728714,-2.8081,-2.2559,-5.9993,5.570158,-6.704511599999999,-4.654059999999999,-1
498,499,1583551728724,-3.3741,-2.5147,-4.8594,5.125488,-6.960519000000001,-3.8881547,-1
499,500,1583551728735,-3.7298,-2.6764997999999998,-4.263,5.1988363,-6.837821000000001,-3.9998970000000003,-1
500,501,1583551728745,-3.5284998,-2.5098999,-4.5218,5.6664433,-6.826664,-4.379694000000001,-1
501,502,1583551728755,-2.8047,-2.5254,-4.9504,6.622275999999999,-7.043617,-4.452047,-1
502,503,1583551728765,-2.0277,-2.6792,-4.8866,6.991480999999999,-7.371594,-4.1919889999999995,-1
503,504,1583551728775,-1.7067,-3.0193,-4.6012,7.1726837,-7.802397,-3.6583593,-1
504,505,1583551728785,-1.5361999,-3.3460998999999996,-4.0002,7.0030303,-7.807875,-2.6778188,-1
505,506,1583551728796,-1.6934999,-3.2681,-3.1422,6.518425,-7.9104524000000005,-1.7819947,-1
506,507,1583551728806,-2.3047,-3.4013998999999995,-1.9835999,5.7975497,-8.178889,-0.61823076,-1
507,508,1583551728816,-2.8660997999999998,-3.5727,-1.0416,5.806887000000001,-8.132002,-0.34390312,-1
508,509,1583551728826,-2.8337,-3.4901,-0.7532,6.3418097,-8.150580999999999,-0.16475938,-1
509,510,1583551728836,-2.2645,-3.4543,-0.5728,7.0826616,-8.156863000000001,0.41322005,-1
510,511,1583551728846,-1.4934,-3.3899,-0.017099998999999998,7.649733,-8.017052,0.79025894,-1
511,512,1583551728857,-0.8871,-3.1857998,0.3649,7.9137845,-8.076093,1.2835315,-1
512,513,1583551728867,-0.5864,-3.181,0.8638,7.937314999999999,-8.534438,2.3096577999999996,-1
513,514,1583551728877,-0.5225,-3.5632,1.9257,7.706131,-8.864695,3.3041803999999995,-1
514,515,1583551728887,-0.8402,-3.9273998999999997,3.1799998,6.9437213,-9.361405,4.5438790000000004,-1
515,516,1583551728897,-1.4648,-4.3192,4.1958,6.733749400000001,-9.424401,5.39473,-1
516,517,1583551728907,-1.6580000000000001,-4.3398,5.0604997,7.0405619999999995,-9.040161,6.0243955,-1
517,518,1583551728917,-0.8814,-3.4041,6.1689997000000005,7.5191436000000005,-8.47897,6.63168,-1
518,519,1583551728928,-0.8814,-3.4041,6.1689997000000005,7.616625999999999,-8.283047,7.230671000000001,-1
519,520,1583551728938,-0.5686,-2.9643998,7.5105996,7.768753500000001,-8.213731,7.942390400000001,-1
520,521,1583551728948,-0.33159998,-2.9104997999999997,7.9175,7.996384599999999,-8.183238000000001,8.348706,-1
521,522,1583551728958,-0.15529999,-2.8007,8.1919,8.102122,-8.070729,8.478107000000001,-1
522,523,1583551728969,-0.25599998,-2.5872998,7.8815,7.939738,-7.885619,8.050042999999999,-1
523,524,1583551728979,-0.45729998,-2.3098,7.187599700000001,7.764539699999999,-7.593469,7.3484755,-1
524,525,1583551728989,-0.29729998,-1.8,6.6421,7.9711213,-7.070949000000001,6.879384,-1
525,526,1583551728999,-0.0605,-1.2439,6.5186,8.156077999999999,-6.5526237,6.8472347000000005,-1
526,527,1583551729009,-0.092,-0.8006,6.805,8.027472,-6.1383405,7.215501299999999,-1
527,528,1583551729019,-0.5492,-0.4901,7.31,7.52036,-5.8868246,7.6498384,-1
528,529,1583551729030,-1.0173,-0.65169996,7.3623996,7.143206,-6.157762,7.5229936,-1
529,530,1583551729040,-0.7176,-0.8583,6.5964,7.8366914,-6.187393,6.4800024,-1
530,531,1583551729050,0.2729,-0.4998,5.6656,8.774021000000001,-5.810565,5.434646599999999,-1
531,532,1583551729061,0.9009,-0.22929999,4.434,9.100821,-5.616480999999999,4.2098684,-1
532,533,1583551729071,0.86679995,-0.0155,3.5449998,8.865901,-5.3808823,3.5490209999999998,-1
533,534,1583551729081,0.40539998,0.2193,3.2805,8.341408,-5.1953697,3.5781730000000005,-1
534,535,1583551729091,-0.1175,0.25419998,3.6560998,7.858440400000001,-5.2091317,4.079308,-1
535,536,1583551729101,-0.5311,0.30089998,4.1426997000000005,7.5159163,-5.141816599999999,4.426533999999999,-1
536,537,1583551729111,-0.76339996,0.2365,4.0741,7.421411999999999,-5.3024287,4.004302,-1
537,538,1583551729121,-0.5186,0.11199999599999999,3.2305,8.010309,-5.3068247,2.9035632999999996,-1
538,539,1583551729131,0.15259999,0.24919999,2.2907,8.558946,-5.2127233,2.2459624,-1
539,540,1583551729141,0.80509996,0.2699,1.4750999,9.11439,-5.322521,1.4668125,-1
540,541,1583551729151,1.2383,0.1191,0.6938,9.422323,-5.432175,0.8239405999999999,-1
541,542,1583551729161,1.3318,0.08779999599999999,0.4621,9.392732,-5.492825,0.8543565000000001,-1
542,543,1583551729171,1.1061,-0.0682,0.7148,9.046175,-5.7045403,1.1353303999999997,d
543,544,1583551729181,0.7211,-0.287,1.0244,8.701046,-5.877497,1.4411563,-1
544,545,1583551729192,0.41509998,-0.3683,1.3003,8.39297,-5.891344999999999,1.642116,-1
545,546,1583551729202,0.131,-0.3099,1.4093,8.161,-5.733299,1.7804242,-1
546,547,1583551729212,0.0365,-0.1204,1.4828,8.139998,-5.6222080000000005,1.8082736000000001,-1
547,548,1583551729222,0.0336,-0.0543,1.252,8.207506,-5.595086599999999,1.3800274,-1
548,549,1583551729232,0.2491,-0.0338,0.6949,8.573942,-5.5564632000000005,0.67654395,-1
549,550,1583551729243,0.6816,-0.0213,-0.0797,8.956249,-5.6551046,0.16344735,-1
550,551,1583551729252,1.135,-0.2126,-0.48529997,9.3097,-5.9722114,0.15972199,-1
551,552,1583551729262,1.2347,-0.5046,-0.1644,9.178326,-6.2148595,0.71475536,-1
552,553,1583551729273,0.9561,-0.6763,0.4725,8.764598,-6.288907,1.3733524,-1
553,554,1583551729283,0.5162,-0.7363,1.1724,8.328527000000001,-6.3309492999999994,1.9637433999999998,-1
554,555,1583551729294,0.12539999,-0.8068,1.5324999,8.210493,-6.379427400000001,1.9244785,-1
555,556,1583551729303,0.2686,-0.84239995,1.2803999,8.731338000000001,-6.398973000000001,1.541885,-1
556,557,1583551729313,0.9866,-0.8411,0.9173,9.560794,-6.4153686,1.1802839,-1
557,558,1583551729323,1.7469999999999999,-0.90449995,0.4006,10.169438000000001,-6.504194,0.58017254,-1
558,559,1583551729333,2.2897,-0.9805,-0.14549999,10.685858999999999,-6.52623,0.3447842,-1
559,560,1583551729343,2.6597,-0.9762,-0.1999,10.840237,-6.49184,0.661154,-1
560,561,1583551729354,2.7661998,-0.94339997,0.2223,10.7892685,-6.407946599999999,1.4422767,-1
561,562,1583551729364,2.6485999,-0.88229996,1.0809,10.589344,-6.3665366,2.3998616000000004,-1
562,563,1583551729375,2.4276,-0.8973,2.0239,10.49597,-6.435346,3.0875049999999997,-1
563,564,1583551729385,2.3732,-1.0411999,2.665,10.918163,-6.609299000000001,3.4671678999999997,-1
564,565,1583551729395,2.8734,-1.2480999,2.9794998,11.767291,-6.909484399999999,3.5399709,-1
565,566,1583551729405,3.7538998,-1.5841,2.9586,12.755484,-7.351061,3.5517983,-1
566,567,1583551729416,4.7578998,-2.1207,2.9384,14.1941595,-8.213731,4.0318165,-1
567,568,1583551729426,5.9979,-2.8551,3.3083,15.439651500000002,-8.903184,5.0540543,-1
568,569,1583551729436,7.231,-3.5812,4.2521,16.177937,-9.442147,5.976387,-1
569,570,1583551729447,7.9391,-4.1623,5.1252,16.384298,-9.717241,6.2987519999999995,-1
570,571,1583551729457,8.0584,-4.5772,5.4196,15.977734,-9.747877,6.43435,-1
571,572,1583551729468,6.5157,-4.1994,6.2246,14.737537,-8.97592,7.3611645999999995,-1
572,573,1583551729478,5.3898997,-3.4215998999999995,6.5594997,13.695379999999998,-8.029625999999999,7.5978556,-1
573,574,1583551729488,4.4941,-2.7898998,6.0167,12.954278,-7.281772999999999,7.073573,-1
574,575,1583551729498,4.0355,-2.2503,4.7953997,12.683695,-6.538546,5.9284935,-1
575,576,1583551729509,4.0583,-1.6544,3.6646998,12.767933,-5.8172296999999995,5.001774299999999,-1
576,577,1583551729520,3.8895998,-1.3196,2.9991999,12.493528,-5.2951794,4.431083,-1
577,578,1583551729530,3.2917,-1.2282,2.7731,11.905828999999999,-5.108757499999999,4.4455824,-1
578,579,1583551729540,2.6799,-1.28,3.1211998,11.456820500000001,-5.0184956,4.8984312999999995,-1
579,580,1583551729550,2.2254999,-1.4420998999999999,3.4296,11.1722355,-4.982774299999999,4.906667700000001,-1
580,581,1583551729560,2.0195,-1.6258999,3.1832,11.130519999999999,-4.954982299999999,4.6069517,-1
581,582,1583551729571,1.9949,-1.6853,3.0684998,11.189053,-4.752241000000001,4.5558114000000005,-1
582,583,1583551729581,1.9059,-1.6805999,2.8595,11.056347,-4.5727910000000005,4.043136,-1
583,584,1583551729591,1.5557,-1.7213999,1.9799999,10.696537,-4.454680000000001,3.145052,-1
584,585,1583551729601,1.0318,-1.8637999,1.1682,10.203944,-4.377146700000001,2.1915662,-1
585,586,1583551729611,0.55039996,-2.0059,0.0069999998,9.8894415,-4.233954,0.8243811,-1
586,587,1583551729621,0.3854,-1.9696,-0.81979996,9.909084,-3.9090898000000003,0.3536236,-1
587,588,1583551729631,0.41799998,-1.6776999,-0.91169995,10.056395,-3.2462025000000003,0.7838808,-1
588,589,1583551729641,0.46269998,-1.2978,0.0725,9.894335,-2.8329058,1.7206361000000001,-1
589,590,1583551729651,-0.2052,-1.4094,1.3457999,9.114725,-3.1344697,2.7694209,-1
590,591,1583551729661,-0.9756,-2.1097999,2.1532,8.418942,-3.4749155,2.9366417,-1
591,592,1583551729671,-1.9253999,-2.2898,1.8238,7.3627256999999995,-3.2311857,2.2667153,-1
592,593,1583551729681,-3.0339,-2.092,1.3,6.3497105000000005,-2.7519432999999998,1.7300693,-1
593,594,1583551729692,-3.9092998999999997,-1.7469999999999999,1.002,5.4682994,-2.1493995,0.92375004,-1
594,595,1583551729702,-4.5716,-1.5781,-0.0072999996999999995,4.944764,-2.1058536,-0.8692771999999999,-1
595,596,1583551729712,-4.9533997,-1.7578,-1.8894999,4.8358374,-1.9768923999999999,-2.4743786,-1
596,597,1583551729722,-4.8998,-1.5797,-2.7947,5.0158143,-1.4468161,-2.493676,-1
597,598,1583551729733,-4.7258997,-1.0855,-2.2535,5.175565,-0.87882525,-1.5378628,-1
598,599,1583551729743,-4.7071,-0.6447,-1.0626,4.775053,-0.4767909000000001,-0.47576618,-1
599,600,1583551729753,-5.3631997,-0.5295,-0.048499997999999996,3.9418328000000002,-0.69360024,0.18394172,-1
600,601,1583551729764,-6.1267,-0.98029995,0.5182,3.4651666,-1.2330426,0.082427576,-1
601,602,1583551729774,-6.3694,-1.4569999999999999,0.15339999,3.4717934,-1.4807276000000003,-0.9805405,-1
602,603,1583551729784,-6.3178997,-1.6931,-0.87899995,3.5775980000000005,-1.6352015,-2.2821436,-1
603,604,1583551729794,-6.1878,-1.8418,-2.1629,3.779554,-1.5806615,-3.543878,-1
604,605,1583551729804,-5.9789996,-1.7534,-3.2545,3.9651906,-1.3128556999999998,-3.8871875,-1
605,606,1583551729815,-5.7499,-1.3350999,-3.2614,4.0941133,-0.7033111,-3.303347,-1
606,607,1583551729825,-5.706,-0.8642,-2.5437,3.9727947999999995,-0.21635923,-2.492747,-1
607,608,1583551729835,-5.8961997,-0.44739997,-1.7112,3.7399824,0.1300339,-2.142935,-1
608,609,1583551729846,-6.0464997,-0.2357,-1.3984,3.72442,0.41599736,-1.9699588,-1
609,610,1583551729856,-6.0585,0.0207,-1.1482999,3.8120383999999996,0.35615185,-1.9434022000000002,-1
610,611,1583551729867,-5.9512,-0.046299997999999995,-1.0222,4.1147513,-0.12928689999999998,-1.8969356,-1
611,612,1583551729877,-5.6461997,-0.5229,-0.8767,4.7345432999999995,-0.43287167,-2.0910861,-1
612,613,1583551729888,-5.0071,-0.8211,-0.956,5.3361487,-0.59401107,-3.2930424,-1
613,614,1583551729898,-3.7523,-1.0390999,-3.0454,6.111104,-0.66577,-4.4697156,-1
614,615,1583551729908,-3.0885,-0.79359996,-3.4118,6.761302499999999,-0.41644746,-4.8111486,-1
615,616,1583551729918,-2.5135,-0.6523,-3.5017,7.257103,-0.34232298,-4.884861,-1
616,617,1583551729929,-2.3107,-0.6881,-3.2489998,7.4177537,-0.36821866,-4.607191,-1
617,618,1583551729939,-2.1657999,-0.7529,-2.7196,7.552921,-0.48098552,-4.097571,-1
618,619,1583551729949,-2.0400999,-0.9989,-1.9548999,7.669557000000001,-0.70673007,-3.3398730000000003,-1
619,620,1583551729960,-1.8362999,-1.1460999,-1.1938,7.896757000000001,-0.7989834,-2.6500173,-1
620,621,1583551729971,-1.5258,-1.0919,-0.65529996,8.170164999999999,-0.7152534,-2.252398,-1
621,622,1583551729981,-1.5258,-1.0919,-0.65529996,8.191206,-0.63410914,-2.2959435,-1
622,623,1583551729991,-1.4825,-0.97969997,-0.64019996,8.168854,-0.57756764,-2.3890398,-1
623,624,1583551730002,-1.3163999,-1.0059,-1.1257,8.515879,-0.81922877,-3.0754576,-1
624,625,1583551730012,-0.7802,-1.263,-1.9416,9.216556,-1.0965731,-3.9142802000000003,-1
625,626,1583551730022,0.1388,-1.3908,-2.6966999,10.224036,-1.1306762,-4.549414,d
626,627,1583551730032,1.0886999,-1.1755999,-2.9759,11.170972,-0.7814386999999999,-4.3151655,-1
627,628,1583551730042,1.5504999,-0.8727,-2.3316998,10.978085,-0.59454733,-3.3767629,-1
628,629,1583551730052,0.9659,-0.7334,-1.321,10.247689999999999,-0.45833638,-2.6631856,-1
629,630,1583551730062,-0.0284,-0.5151,-0.606,9.202238000000001,-0.053409852,-1.9969653000000003,-1
630,631,1583551730072,-0.6687,-0.1936,-0.14119999,8.700403999999999,0.36529773,-1.8852327000000002,-1
631,632,1583551730082,-1.1129,0.16489999,-0.2755,8.5025,0.6868677,-2.3331976,-1
632,633,1583551730092,-1.0487,0.42159998,-0.78889996,8.90822,0.8572583,-2.938126,-1
633,634,1583551730102,-0.46699998,0.5203,-1.3801,9.575686,0.8163653000000001,-3.5550544,-1
634,635,1583551730112,0.1811,0.3875,-1.9898,10.101262,0.56769395,-4.275115,-1
635,636,1583551730123,0.6121,0.1706,-2.8917,10.524356,0.46719494,-5.4311986,-1
636,637,1583551730133,1.0622,0.2041,-4.0222,10.957533,0.61373925,-6.211593,-1
637,638,1583551730143,1.3863,0.40989998,-4.4904,10.909219,0.8436305000000001,-6.182222,-1
638,639,1583551730153,1.0368998999999999,0.4964,-4.1414,10.213233,0.6641036,-5.617755000000001,-1
639,640,1583551730163,0.22029999,0.1515,-3.5426,9.375081,0.25624663,-5.104074,-1
640,641,1583551730173,-0.4861,-0.3374,-3.1799998,8.967597999999999,-0.16242264,-5.619651,-1
641,642,1583551730184,-0.6238,-0.6116,-3.9354,9.377476,-0.1618576,-7.218978,-1
642,643,1583551730194,-0.1662,-0.60249996,-5.4572,10.017387,0.01810974,-8.946835,-1
643,644,1583551730204,0.5319,-0.4416,-7.3419,10.367823,0.05018247,-10.600492,-1
644,645,1583551730214,0.7449,-0.4542,-8.8961,10.278039999999999,-0.07493851,-11.54577,-1
645,646,1583551730224,0.6015,-0.5841,-9.753099,9.846097,-0.45169967,-12.136649,-1
646,647,1583551730234,0.1144,-1.0524,-10.352699000000001,9.490558,-0.8773216999999999,-12.182197,-1
647,648,1583551730244,-0.2453,-1.6218,-10.0366,9.277513,-1.5011071000000002,-10.60685,-1
648,649,1583551730255,-0.3637,-2.2173998,-8.5169,9.236543,-1.7416573,-9.326574,-1
649,650,1583551730265,-0.4675,-2.355,-7.5010996,8.879242,-1.4155574,-9.404894,-1
650,651,1583551730275,-0.87189996,-1.9631,-7.964699700000001,8.364489,-0.7275883000000001,-10.350354,-1
651,652,1583551730285,-1.4351,-1.3556,-8.9379,7.592416,-0.36908057,-10.166097,-1
652,653,1583551730296,-2.3116,-1.1434,-8.596,6.051211,-0.4842321,-8.720171,-1
653,654,1583551730305,-3.6471,-1.3259999999999998,-7.4508,5.2337155,-0.77221626,-7.271277,-1
654,655,1583551730315,-4.5991,-1.7199,-5.6907997,4.840539499999999,-0.9097679,-5.3137584,-1
655,656,1583551730325,-4.9340997,-1.8547,-4.0223,4.689063,-0.9361136999999998,-4.598026,-1
656,657,1583551730335,-5.1822,-1.864,-3.3128,4.4619393,-0.84525853,-3.8488708,-1
657,658,1583551730345,-5.2728,-1.7809,-3.0816998,4.671164,-0.6089317,-3.4823568,-1
658,659,1583551730355,-5.0868998,-1.5597,-2.9435,4.7292566,-0.42840886,-2.7431229999999998,-1
659,660,1583551730365,-5.094599700000001,-1.3331,-2.0449998,4.1802763999999994,-0.30668765,-1.1267688,-1
660,661,1583551730375,-5.7861,-1.2344998999999999,-0.5482,3.086423,-0.37754646,0.16554467,-1
661,662,1583551730385,-6.9077997,-1.3281,0.506,2.3265991,-0.54291874,1.1737716999999999,-1
662,663,1583551730395,-7.4804997,-1.4562,1.4555,2.5178764,-0.6268020000000001,2.8755991,-1
663,664,1583551730405,-7.2688,-1.4642998999999999,2.7663999,2.9551346,-0.6995666,4.012002,-1
664,665,1583551730415,-6.7135,-1.4998,4.031399700000001,3.5509937000000007,-0.90381116,5.3764286,-1
665,666,1583551730425,-6.147,-1.6369999999999998,5.2949,3.7802339,-1.2187061000000001,6.977853,-1
666,667,1583551730436,-6.0,-1.8535,6.8238997,3.7213652,-1.5064988000000001,8.592991,-1
667,668,1583551730446,-6.115,-2.1132,8.8418,3.3752402999999997,-1.9486023999999997,12.182876,-1
668,669,1583551730456,-6.4031997,-2.3165,11.3814,3.1598961,-2.4635186,14.433895000000001,-1
669,670,1583551730468,-6.1524,-2.9248,14.5801,3.598217,-2.810946,15.709985999999999,-1
670,671,1583551730477,-5.2608,-2.8959,15.382299,4.464238,-2.9349465,16.671354,-1
671,672,1583551730487,-5.2608,-2.8959,15.382299,5.2827773,-3.2420267999999997,17.456267999999998,-1
672,673,1583551730500,-4.4246,-3.0575,16.0192,5.894083999999999,-3.5443857000000003,18.154465,-1
673,674,1583551730510,-2.9127,-3.5872998,17.5986,7.017500999999999,-4.1493144,19.791075,-1
674,675,1583551730520,-2.2112,-3.5145998,18.658499,7.609184700000001,-4.035350299999999,20.761522,-1
675,676,1583551730530,-1.8859999,-3.1736999,19.029298999999998,7.723599,-3.8524046000000003,20.66493,-1
676,677,1583551730540,-1.9010999,-3.0149,18.0655,7.716214999999999,-3.9310398,19.367435,-1
677,678,1583551730551,-1.7483,-3.1715999,16.7039,7.934010499999999,-4.161965400000001,18.377777,-1
678,679,1583551730561,-1.2903,-3.6192,15.447498999999999,8.496524,-4.9502707,16.454859,-1
679,680,1583551730571,-0.83769995,-4.4142,13.6649,9.064150999999999,-5.919807,14.640227,-1
680,681,1583551730581,0.0614,-5.1969,12.1676,10.118902,-6.434292299999999,13.258102,-1
681,682,1583551730591,1.1136999,-5.1745996,11.1131,11.083124,-6.305264,12.175108999999999,-1
682,683,1583551730601,1.7232,-4.9013,10.528999,11.362048,-6.073094,11.5514,-1
683,684,1583551730612,1.3433,-4.6523,9.8495,10.443728,-5.8577785,10.254309,-1
684,685,1583551730621,0.3687,-4.5179,8.7558,9.798912,-5.881078700000001,8.993436,-1
685,686,1583551730631,-0.0033,-4.6436996,6.7285,9.744525,-6.0921993,6.397403,-1
686,687,1583551730641,0.3251,-5.0299997,4.0772,10.312114999999999,-6.747444000000001,3.7266803,-1
687,688,1583551730651,1.1974,-5.8610997000000005,1.7886,11.71279,-7.693758,0.8844851999999999,-1
688,689,1583551730662,2.6429,-6.2521996,-0.24159999,12.9610405,-7.746229,-0.5521795,-1
689,690,1583551730672,3.9829,-5.942199700000001,-1.2925,13.906242,-7.3121505,-1.3715231,-1
690,691,1583551730682,3.9993,-5.5839,-1.3589,13.190366000000001,-7.1674547,-1.4795114,-1
691,692,1583551730692,2.5534,-5.4083,-1.5677999,11.42583,-6.899984,-2.770829,-1
692,693,1583551730702,1.5002999,-5.1275997,-3.3765,11.198821,-6.685569,-5.674172,-1
693,694,1583551730713,1.8337,-5.0457,-6.6408,12.252308,-6.7398024,-9.496227000000001,-1
694,695,1583551730723,3.2221,-4.9986,-9.956099499999999,13.8312645,-6.5598826,-11.725066,-1
695,696,1583551730733,4.7718997000000005,-4.652199700000001,-11.234799,14.884492999999999,-6.084835,-12.421799,-1
696,697,1583551730743,5.2917,-4.0701,-11.4225,14.471454999999999,-5.4203005,-12.466080999999999,-1
697,698,1583551730754,4.3585997,-3.4071998999999997,-11.323199,13.005811999999999,-4.804071400000001,-12.773572999999999,-1
698,699,1583551730765,2.8260999,-2.7889999999999997,-11.7435,11.749019,-4.140801000000001,-13.43513,-1
699,700,1583551730775,1.9,-2.1596,-12.3848,11.189081,-3.6680224000000003,-14.368812,-1
700,701,1583551730785,1.6019,-1.9490999,-13.1865,11.479593,-3.7101699999999997,-15.717542000000002,-1
701,702,1583551730795,1.9142,-1.9991,-14.2645,11.700061999999999,-3.6051888,-16.438465,-1
702,703,1583551730805,2.1590000000000003,-1.8231,-15.113898999999998,11.447444,-3.1012957,-17.54768,-1
703,704,1583551730815,1.7938,-1.2811999,-16.2262,10.625554,-2.3530598,-18.771978,-1
704,705,1583551730825,0.88449997,-0.5255,-17.2592,9.538383999999999,-1.5426321000000003,-18.783604,-1
705,706,1583551730835,-0.24679999,0.20719999,-16.973799,8.0714,-0.87814534,-17.345667000000002,-1
706,707,1583551730846,-1.4808999,0.68399996,-15.6866,6.9263580000000005,-0.8459002,-15.9598255,-1
707,708,1583551730856,-2.6285,0.65599996,-14.2996,6.054103,-0.7697454,-15.189303,-1
708,709,1583551730866,-3.511,0.6721,-13.5443,5.591773,-0.7363894,-14.967695999999998,-1
709,710,1583551730876,-4.0685997,0.6623,-13.3435,5.6060905,-0.79154223,-15.026317,-1
710,711,1583551730886,-3.9780998,0.5913,-13.428498999999999,6.1434927,-0.7695156,-14.7879305,-1
711,712,1583551730897,-3.4556,0.60359997,-13.219999,6.3974795,-0.8774653,-14.434432000000001,-1
712,713,1583551730907,-3.1878,0.4443,-12.7992,6.397422,-1.2953111000000002,-13.526473999999999,-1
713,714,1583551730917,-3.2038,0.07369999599999999,-12.027699,6.123506,-1.6052164,-12.173682000000001,-1
714,715,1583551730927,-3.4836,-0.2561,-10.7034,5.434005,-2.1671548,-10.099480999999999,-1
715,716,1583551730937,-4.7104,-1.4338,-7.4041,4.815343,-2.898373,-8.583587,-1
716,717,1583551730948,-4.7104,-1.4338,-7.4041,4.6585803,-3.4171484,-7.895225,-1
717,718,1583551730958,-4.7707,-2.9219,-6.0129,5.026502,-4.5206647,-7.229378,-1
718,719,1583551730968,-4.1085,-3.8269,-5.6727,5.684304,-5.3498816,-6.9147515,-1
719,720,1583551730978,-3.299,-4.5253997,-5.4660997,6.5134544000000005,-6.029136,-6.5231657,-1
720,721,1583551730988,-2.6069,-4.763999999999999,-4.6074,7.094929,-6.254794599999999,-5.4598427,-1
721,722,1583551730998,-2.6069,-4.763999999999999,-4.6074,6.982526299999999,-6.335297,-4.382864,-1
722,723,1583551731009,-3.468,-5.0445,-1.9308,6.0027905,-6.572859299999999,-2.5714203999999996,-1
723,724,1583551731019,-4.343499700000001,-5.1074,-0.7582,5.209064499999999,-6.6622205,-1.382527,-1
724,725,1583551731029,-4.6678,-5.0228,0.4209,4.9888554,-6.5510244,-0.079774804,-1
725,726,1583551731039,-4.5969999999999995,-4.8143997,1.5627999,5.0669928,-6.4634347000000005,1.0796125,-1
726,727,1583551731049,-4.513499700000001,-4.8844,2.3869998,5.154036,-6.5866213,1.9760017,-1
727,728,1583551731060,-4.3487,-4.5505,3.0700998,5.3574475999999995,-6.115528,2.850077,-1
728,729,1583551731071,-4.2788,-3.9931997999999997,3.5698,5.364496,-5.748957,3.5756636,-1
729,730,1583551731081,-4.255,-3.6880998999999997,4.5836,5.361374,-5.5249267,4.9521093,-1
730,731,1583551731091,-4.3268,-3.3734998999999997,6.114,5.189767400000001,-5.447374,6.670523599999999,-1
731,732,1583551731101,-4.6266,-3.3966,7.5845,4.7670856,-5.599769599999999,7.9387035,-1
732,733,1583551731111,-5.0741,-3.4447,8.252,4.3952756,-5.656771,8.395928,-1
733,734,1583551731121,-5.2402997000000004,-3.2512999,8.596,4.2307844,-5.286273,8.9354,-1
734,735,1583551731131,-5.3363,-2.6633,9.091000000000001,4.1048303,-4.6847057,9.56611,-1
735,736,1583551731142,-5.4695,-1.9721999,9.810599,3.794829,-4.218794,10.481278,-1
736,737,1583551731152,-5.8346,-1.5565,10.8516,3.4150414,-4.187468,11.563974,-1
737,738,1583551731163,-6.1554,-1.6373,11.766999,3.2442584,-4.545689,11.970338,-1
738,739,1583551731173,-5.9790998,-1.9260999,11.794499,3.7583413,-4.832227,11.740552000000001,-1
739,740,1583551731183,-5.3547,-1.8860999,11.4963,4.268833,-4.900662400000001,11.457251,-1
740,741,1583551731194,-4.9417995999999995,-1.8017,11.2918,4.442355,-4.949313,11.465813,-1
741,742,1583551731204,-4.763099700000001,-1.5747,11.4219,4.6408724999999995,-4.596245,11.681425,-1
742,743,1583551731214,-4.516,-1.1097,11.6241,4.865085,-4.227126,11.771169,-1
743,744,1583551731224,-4.2682,-0.5708,11.644299499999999,4.809520200000001,-3.8513703,11.287301,-1
744,745,1583551731235,-4.3329,-0.1621,11.144199,4.467245,-4.115805,10.898166999999999,-1
745,746,1583551731244,-4.6489997,-0.4182,10.9477,4.120871,-4.6529393,10.980614,-1
746,747,1583551731254,-4.9618,-0.9029,11.1967,3.9669912000000003,-5.699589,11.185566,-1
747,748,1583551731264,-4.878,-1.7976999,11.3975,4.3209214000000005,-6.633959299999999,11.174716,-1
748,749,1583551731274,-4.2139997000000005,-2.7682,11.2939,5.228228,-7.746842,10.482007000000001,-1
749,750,1583551731284,-3.3535,-3.3634,10.576799000000001,5.846564,-8.152841,9.475302000000001,-1
750,751,1583551731294,-2.7026,-3.5045,9.5416,6.1487126,-8.378614,8.557748,-1
751,752,1583551731304,-2.3522,-3.5600998,8.7358,6.231148999999999,-8.695999,8.349203999999999,-1
752,753,1583551731314,-2.1747,-3.7268,8.636499,6.2601,-9.108559,8.461329,-1
753,754,1583551731324,-2.0609,-4.052,8.7442,6.088110400000001,-9.820727999999999,8.579277000000001,-1
754,755,1583551731334,-2.1461,-4.523,8.8586,5.897024,-10.8997755,8.512468,-1
755,756,1583551731344,-2.1245,-5.5881,8.7123995,6.3971540000000005,-12.281824,7.8849583,-1
756,757,1583551731354,-1.339,-6.649399799999999,7.8989997,7.410609700000001,-12.987079,6.372685,-1
757,758,1583551731364,-0.1148,-7.0727997,6.1445,8.598756,-13.302271,4.0261949999999995,-1
758,759,1583551731375,1.1998999,-7.1397996,3.7514,9.580963,-13.332256,2.2241367999999997,-1
759,760,1583551731385,2.2463999,-6.9262,2.145,9.85235,-13.200498000000001,1.7082436999999997,-1
760,761,1583551731395,2.45,-6.6628,1.7939,9.3235,-13.245432999999998,1.8889293999999999,-1
761,762,1583551731405,1.6998,-6.6252,2.1027,7.9873633,-13.482563,2.4702797000000003,-1
762,763,1583551731415,0.7051,-6.7788997,2.5196,7.565457,-13.839224,2.0157647,-1
763,764,1583551731426,0.63879997,-6.9793,1.6315998999999999,8.357287,-13.69697,-0.053045932000000004,-1
764,765,1583551731436,1.7515999,-6.603399799999999,-0.7036,10.282637,-13.3819685,-3.1570134,-1
765,766,1583551731446,3.5121998999999997,-6.2704,-3.3576998999999996,11.506735,-13.155439000000001,-4.7171330000000005,-1
766,767,1583551731456,4.8423,-5.9389,-4.9652,11.607502,-12.995248,-4.892570500000001,-1
767,768,1583551731466,5.0369,-5.7035,-5.1596,10.43644,-12.802688,-4.2924489999999995,-1
768,769,1583551731476,3.9278,-5.4470997,-4.5639,8.925871,-12.810138,-3.7612143,-1
769,770,1583551731487,2.4833,-5.4082,-4.0357,8.055646000000001,-12.711057,-3.5063467000000004,-1
770,771,1583551731497,1.6645,-5.2648997,-3.8279998,7.850587400000001,-12.476272,-4.0942097,-1
771,772,1583551731507,1.5062,-4.9842,-4.4788,8.433067999999999,-12.160744000000001,-5.8527217,-1
772,773,1583551731517,2.1543,-4.6257,-6.3378,9.456427,-11.725009,-7.610066000000001,-1
773,774,1583551731528,3.2314,-4.1528997,-8.177,10.38735,-11.370332000000001,-8.546313,-1
774,775,1583551731538,4.2346997,-3.1882,-8.7174,10.231592,-10.723381,-7.920842599999999,-1
775,776,1583551731548,3.2510998,-2.7996,-8.0033,9.184215,-10.351168,-7.252152000000001,-1
776,777,1583551731558,3.2510998,-2.7996,-8.0033,8.38979,-9.932404,-6.693757000000001,-1
777,778,1583551731568,1.5812998999999999,-1.9056,-6.7662997,7.650087400000001,-9.44321,-6.095398,-1
778,779,1583551731578,1.2929,-1.4685,-6.4828997,7.4247065,-8.990381,-5.8119726,-1
779,780,1583551731588,1.2251999,-0.8818,-6.2093,7.363722,-8.389215,-5.4535317,-1
780,781,1583551731598,0.9249,-0.5297,-5.6050997,6.9605284,-8.138954,-4.756225,-1
781,782,1583551731609,0.9249,-0.5297,-5.6050997,6.46695,-8.365532,-4.3019685999999995,-1
782,783,1583551731619,-0.042799998,-1.1365,-4.7370996,6.0870852,-8.813918,-3.9528174,-1
783,784,1583551731629,0.21329999,-1.2788,-4.8349,6.457909,-8.901297,-4.0274779999999994,-1
784,785,1583551731639,0.7733,-1.1942999,-4.7604,6.981434299999999,-8.7985,-3.8376083,-1
785,786,1583551731649,0.8662,-1.0833,-4.0597997,6.9021773,-8.719223,-3.0117333,-1
786,787,1583551731660,0.2548,-1.0464,-3.1827998,6.2193027,-8.649637,-2.1966896,-1
787,788,1583551731671,-0.46719998,-0.89449996,-2.6141999,5.4438305,-8.444215,-1.6340905000000001,-1
788,789,1583551731681,-0.8125,-0.7305,-2.3985999,5.3380737,-8.316183,-1.5415211000000002,-1
789,790,1583551731692,-0.6888,-0.6591,-2.5149,5.551981400000001,-8.298389,-1.7408528000000003,-1
790,791,1583551731702,-0.303,-0.7098,-2.6820998,6.158806299999999,-8.320147500000001,-1.6906799,-1
791,792,1583551731712,0.3101,-0.6405,-2.508,6.6748905,-8.226131,-1.4477738000000002,-1
792,793,1583551731722,0.72349995,-0.5038,-2.2226,6.900980000000001,-8.013144500000001,-1.15639,-1
793,794,1583551731732,0.7757,-0.26459998,-2.0045,6.6819777,-7.809359599999999,-1.0811161,-1
794,795,1583551731742,0.7757,-0.26459998,-2.0045,6.3519034,-7.671913000000001,-0.91897124,-1
795,796,1583551731752,-0.041899998,0.0034999999,-1.5359,5.863534,-7.689352,-0.49346409999999996,d
796,797,1583551731762,-0.4689,-0.18609999,-1.0279,5.587875,-7.879289,-0.08349060000000001,-1
797,798,1583551731772,-0.4691,-0.32349998,-0.71349996,5.851735,-7.9946322,0.13933297,-1
798,799,1583551731782,-0.039899997,-0.33799999999999997,-0.8391,6.360149,-7.9610460000000005,-0.17926826,-1
799,800,1583551731792,0.4711,-0.262,-1.2035999,6.760153,-7.901364,-0.45566446,-1
800,801,1583551731802,0.91209996,-0.2357,-1.4563,7.1326814,-7.9381766,-0.67113304,-1
801,802,1583551731813,1.1316,-0.2816,-1.5335,7.3309784,-8.001087,-0.5720418,-1
802,803,1583551731824,1.2849,-0.3324,-1.4061999,7.2326727,-8.014877,-0.45848003,-1
803,804,1583551731835,1.0983,-0.37809998,-1.2560999,7.005864999999999,-8.151481,0.112096526,-1
804,805,1583551731845,0.85819995,-0.5254,-0.6243,6.683317999999999,-8.280969,0.642259,-1
805,806,1583551731855,0.5096,-0.63449997,-0.13419999,6.4704165,-8.323596,0.8946365,-1
806,807,1583551731865,0.35079998,-0.7028,0.031999997999999995,6.560563,-8.417812,0.54503524,-1
807,808,1583551731875,0.4349,-0.78639996,-0.3269,6.9411836,-8.54641,0.1366706,-1
808,809,1583551731885,0.9783,-0.9435,-0.8774,7.852771000000001,-8.560228,-0.45336604,-1
809,810,1583551731895,1.9282,-0.90209997,-1.485,8.611025,-8.444367999999999,-0.94192684,-1
810,811,1583551731905,2.5707,-0.8340000000000001,-1.9626,8.684431,-8.672162,-1.1076248,-1
811,812,1583551731915,2.5166,-1.1452,-2.0168,8.371202,-9.1841,-0.43617564,-1
812,813,1583551731925,2.1866999,-1.7278999,-1.23,8.195151,-10.107707000000001,0.7281438,-1
813,814,1583551731936,2.0382,-2.5193,-0.2676,8.490241000000001,-10.872672999999999,1.5099273000000002,-1
814,815,1583551731946,2.3243,-3.2998,0.5,9.277273,-11.471885,1.4603099,-1
815,816,1583551731956,3.1004,-3.8994,0.4183,10.185058999999999,-11.779262,1.046611,-1
816,817,1583551731966,4.2506,-4.2889,-0.2066,11.765941,-12.008185000000001,0.10800722,-1
817,818,1583551731977,5.6046,-4.4519,-1.0972998999999999,12.897469000000001,-12.177207000000001,-0.5084327000000001,-1
818,819,1583551731987,6.7440996,-4.6382,-1.8116,13.619713,-12.709783,-1.1835496,-1
819,820,1583551731997,7.4726,-5.1872,-2.6074998,14.08392,-13.433320000000002,-1.3941723,-1
820,821,1583551732007,7.9193997000000005,-5.9449997,-2.9176998,14.702706,-14.061568,-0.82169956,-1
821,822,1583551732017,8.786,-6.7749996,-1.9282,15.132254999999999,-14.097097,-0.12588713,-1
822,823,1583551732028,9.0056,-6.5087,-1.4283,15.3245,-13.731732999999998,0.27391583,-1
823,824,1583551732038,8.6201,-6.1369996,-1.6107999,14.975042000000002,-13.241179999999998,-0.0089543145,-1
824,825,1583551732048,7.9660997,-5.6699,-2.2236,14.470977,-12.638081,-0.72653484,-1
825,826,1583551732058,7.4796996,-5.1133,-3.0533,14.161378,-11.923478,-1.6001406999999999,-1
826,827,1583551732069,7.0354,-4.7398,-3.7068,13.841282000000001,-11.413581,-2.2426965,-1
827,828,1583551732079,6.4681,-4.5297,-3.6373,13.420123,-11.056078999999999,-1.9203317,-1
828,829,1583551732089,5.683399700000001,-4.3753,-2.5616999,12.811717999999999,-10.729059,-0.9425877,-1
829,830,1583551732099,4.5415,-4.0011997,-1.3212,11.556515,-9.991933,0.20739533,-1
830,831,1583551732110,4.5415,-4.0011997,-1.3212,10.426174000000001,-9.398294,0.5551387,-1
831,832,1583551732120,2.1852,-3.1773,-0.43129998,9.984950999999999,-8.66363,0.46880382,-1
832,833,1583551732130,1.9717,-2.7925,-0.46159998,10.121439,-8.215798,0.32912612,-1
833,834,1583551732140,2.1137,-2.8186998,-0.4596,10.490511,-8.157811,0.13153745,-1
834,835,1583551732150,2.3729,-3.0058,-0.5692,10.883868,-8.02977,-0.17225802,-1
835,836,1583551732160,2.4901,-2.8997998,-0.8066,11.043447500000001,-7.552422999999999,-0.41694543,-1
836,837,1583551732173,2.267,-2.5639999999999996,-0.5512,10.629844,-6.807874000000001,0.1448875,-1
837,838,1583551732184,1.5066998999999999,-2.2072,0.3396,9.663161,-6.223402,1.314704,-1
838,839,1583551732194,0.2323,-1.9921,1.7479999,8.264804,-5.991097,2.6287472000000003,-1
839,840,1583551732204,-0.9924,-2.2526,2.8076,7.730753,-6.1398444,3.1239638,-1
840,841,1583551732214,-1.4573,-2.6341,3.3667998,8.0763035,-5.831701,3.1482985,-1
841,842,1583551732224,-1.0919,-2.5305998,3.3104,8.375865,-5.7739139999999995,2.71875,-1
842,843,1583551732234,-0.92939997,-2.8488,3.0321999,8.3436775,-5.9263678,2.813484,-1
843,844,1583551732244,-1.1211,-3.1748998,3.3137,8.000455,-5.488382,3.2211685,-1
844,845,1583551732255,-1.6449,-3.0351999,3.8082,7.271746,-4.8466783,3.4132314,-1
845,846,1583551732265,-2.4263,-2.4636,3.8744,6.5649869999999995,-3.7964568,3.1623192,-1
846,847,1583551732276,-3.1771998,-1.6151999,3.6248,5.7913346,-2.4724922,2.8093467,-1
847,848,1583551732286,-3.8701,-0.7635,3.2912998,5.180755,-1.7715178,2.4609330000000003,-1
848,849,1583551732296,-4.5151997,-0.27899998,2.9236,4.636343,-1.4009143999999998,2.3076177,-1
849,850,1583551732307,-5.0836,-0.1205,2.7654998,4.463271,-1.7268706999999999,2.3883789,-1
850,851,1583551732317,-5.2627,-0.8078,2.9136,5.008699,-2.4403617000000004,2.7512155,-1
851,852,1583551732327,-4.750099700000001,-1.5215,3.2456,5.2235255,-2.1624717999999996,2.9525773999999996,-1
852,853,1583551732337,-4.5481,-1.4054999,3.4503998999999994,4.680071,-1.5085386,2.878271,-1
853,854,1583551732347,-6.5512,0.0503,1.9238,2.9588695,-0.14169843,1.1646546,-1
854,855,1583551732357,-7.8924,0.9481,0.315,1.6991363000000002,0.9017521000000001,-0.44688255,-1
855,856,1583551732367,-8.4557,1.6185,-1.2598,1.4166683,1.6510031000000003,-1.8481991999999998,-1
856,857,1583551732378,-7.740999700000001,1.9869,-1.4659,2.2829192000000003,2.0919385,-1.5447677,-1
857,858,1583551732388,-6.7391,1.8240999,0.547,3.2378802,1.7802135,0.70278436,-1
858,859,1583551732398,-5.9701,0.4628,3.0460000000000003,3.9437866,0.4349594,3.0182743,-1
859,860,1583551732408,-5.8465,-0.39299998,4.4363,3.8479129999999997,-0.10984598,4.023686,-1
860,861,1583551732418,-6.6927,-0.4308,4.1967,2.8868325,0.04433104,3.406537,-1
861,862,1583551732428,-7.7162,-0.259,2.7540998,1.920121,0.38588786,1.8972131999999997,-1
862,863,1583551732438,-8.1634,0.14469999,1.6164,1.5827014,0.96659666,0.9219209,-1
863,864,1583551732448,-8.1033,0.6647,1.2617999,1.8055631999999997,1.4337246000000001,0.642259,-1
864,865,1583551732458,-7.4175997,0.7247,0.5463,2.7142584,1.4219548,-0.14980042,-1
865,866,1583551732468,-5.977999700000001,0.6739,-0.3154,4.1438746,1.3627316999999999,-0.8024215,-1
866,867,1583551732479,-4.3617,0.3836,-0.2792,5.702653400000001,0.96168375,-0.5525626,-1
867,868,1583551732489,-3.1662,-0.436,0.34109998,6.812672,0.040672697,0.114931256,-1
868,869,1583551732499,-2.4599,-1.2964,1.3606,7.37892,-0.7316968,1.2289245,-1
869,870,1583551732509,-2.4492,-1.5049,2.3327,7.240123700000001,-0.8020001,2.0551827,-1
870,871,1583551732519,-3.2424998,-1.3421999,2.3945,6.333419999999999,-0.6003892,1.9493398999999998,-1
871,872,1583551732529,-4.1832,-1.1709,1.8348999,5.5176773,-0.38171238,1.4046686000000002,-1
872,873,1583551732540,-4.0558,-0.7522,1.3488,6.0505404,0.20981826,0.90028685,-1
873,874,1583551732549,-3.1943,-0.2852,0.7859,6.7663199999999994,0.5218402,0.35313517,-1
874,875,1583551732559,-2.4313998,-0.2564,-0.15969999,7.500603,0.42716387,-0.5744551999999999,-1
875,876,1583551732569,-2.4313998,-0.2564,-0.15969999,8.161154,0.13555013,-1.0506906999999999,-1
876,877,1583551732579,-0.6404,-0.9159,-0.6982,9.326977000000001,-0.32303527,-0.8180221,-1
877,878,1583551732589,0.0256,-1.2075,-0.03,9.869465,-0.5652423000000001,-0.08328949,-1
878,879,1583551732600,-0.0036,-1.1333,0.36769998,9.593547000000001,-0.35500264,0.31659967,-1
879,880,1583551732610,-0.5908,-0.8495,0.8556,8.9349985,-0.046619895999999994,0.82680404,-1
880,881,1583551732620,-1.158,-0.612,1.1904,8.583721,0.19075084,1.0153043,-1
881,882,1583551732630,-1.3136,-0.30179998,1.0222,8.527102000000001,0.6204813,0.6268594,-1
882,883,1583551732640,-1.1559,0.0572,0.3308,8.680388,0.9048359,-0.14934073,-1
883,884,1583551732651,-0.98899996,0.10300000000000001,-0.36929998,8.941482,0.7856429,-0.70657676,-1
884,885,1583551732661,-0.4989,-0.1378,-0.6083,9.590022,0.5548419,-0.73593926,-1
885,886,1583551732671,0.3046,-0.3444,-0.4303,10.251033,0.38118565,-0.56869954,-1
886,887,1583551732681,0.9122,-0.4545,-0.087299995,10.8067465,0.23749524,-0.09414959,-1
887,888,1583551732691,1.03,-0.6019,0.261,10.630294000000001,0.21398418,0.15296075,-1
888,889,1583551732701,0.62869996,-0.456,0.327,10.164477,0.4239748,0.10381258,-1
889,890,1583551732712,0.0023999998999999998,-0.19049999,0.2074,9.540932000000002,0.66225535,-0.029688101,-1
890,891,1583551732722,-0.4376,-0.042999998,-0.095,9.321096,0.78029907,-0.33107020000000004,-1
891,892,1583551732732,-0.4174,0.0536,-0.35169998,9.513762,0.87583727,-0.8066066,-1
892,893,1583551732742,-0.1037,0.0711,-0.95839995,10.0303545,0.93765557,-1.4327860000000001,-1
893,894,1583551732752,0.5038,0.2017,-1.3665999,10.549800999999999,1.0854832,-1.39943,-1
894,895,1583551732762,1.0235,0.3193,-1.1733999,10.923229,1.0949738000000002,-1.2110447,d
895,896,1583551732773,1.0932,0.2591,-0.99689996,10.635705,1.0796987,-0.91337836,-1
896,897,1583551732783,0.61509997,0.24329999,-0.5805,9.933304,1.0962763,-0.33460405,-1
897,898,1583551732793,-0.1656,0.19649999,0.089899994,9.086533,1.098048,0.24084711,-1
898,899,1583551732803,-0.77919996,0.1963,0.48229998,8.769855499999998,1.2211195,0.3992571,-1
899,900,1583551732813,-1.0798,0.33139998,0.638,8.712777,1.3658153999999998,0.43939346,-1
900,901,1583551732824,-1.0483,0.4001,0.63479996,8.744094,1.3966336000000001,0.26908909999999997,-1
901,902,1583551732834,-1.0085,0.42249998,0.38529998,8.778895,1.4168983,-0.22306299,-1
902,903,1583551732844,-0.9404,0.45499998,-0.4096,9.095907,1.4364061000000001,-1.3298736999999998,-1
903,904,1583551732854,-0.5493,0.484,-1.2074,9.663765,1.5197531000000002,-1.2036513,-1
904,905,1583551732864,-0.030499997999999997,0.5696,-0.8434,9.684382000000001,1.5083950000000002,-0.15692556,-1
905,906,1583551732875,-0.1769,0.5241,0.2482,8.955042,1.4508862,0.8818324000000001,-1
906,907,1583551732885,-1.0175999,0.44149998,1.2523999,7.884997,1.4890306,1.6998929,-1
907,908,1583551732895,-2.0728,0.49539998,2.0653,7.064437,1.7104943,2.4134414,-1
908,909,1583551732905,-2.8044,0.7163,2.7770998,6.392978,2.1685052000000002,3.4504662000000006,-1
909,910,1583551732915,-3.3604,1.0835,3.6857,5.781566000000001,2.4023612,4.1973805,-1
910,911,1583551732926,-4.1242,1.3564999,4.5743,4.885292,2.588429,4.803553599999999,-1
911,912,1583551732936,-4.8606997000000005,1.4995999,5.0211997,4.528738,2.5181737,4.655755,-1
912,913,1583551732946,-5.2367,1.4476999,4.8518,4.831853400000001,2.368172,4.327088400000001,-1
913,914,1583551732956,-4.9284,1.3575,4.4936,5.2251825,2.0718656,4.598237,-1
914,915,1583551732966,-4.5424,1.1136999,4.7553997,5.3519315999999995,1.4001483000000001,5.2587776,-1
915,916,1583551732977,-4.4109,0.3039,5.672000000000001,5.384405999999999,0.33307177,7.0282173,-1
916,917,1583551732986,-4.396,-0.5004,7.2022996,5.0893736,-0.013254301000000001,7.9876223,-1
917,918,1583551732996,-4.6939,-0.77129996,8.2039995,4.5930557,0.066989765,8.226582,-1
918,919,1583551733006,-5.197,-0.67429996,8.4684,3.6777236000000006,0.6472197,8.697407,-1
919,920,1583551733016,-6.1018,-0.0383,8.9671,2.6041636,0.9807991,9.108013,-1
920,921,1583551733026,-7.1931,0.3489,9.4077,1.7103411,0.9977212999999999,9.537216,-1
921,922,1583551733036,-8.0885,0.43649998,9.8631,1.4373542,0.5608944,9.613773,-1
922,923,1583551733046,-8.3562,0.08549999400000001,9.9885,1.7784896000000001,-0.19949447,8.971399,-1
923,924,1583551733057,-8.0243,-0.5322,9.4278,2.4043052000000005,-1.4568716999999998,7.551149400000001,-1
924,925,1583551733067,-7.384999799999999,-1.6554999,8.1163,3.5293023999999997,-2.8594048,5.65498,-1
925,926,1583551733077,-6.2595,-2.9006998999999998,6.3673997,5.0556636,-3.5725608,4.065536499999999,-1
926,927,1583551733087,-4.725,-3.4480998999999994,4.9469,6.6398587,-3.7753305,2.4173872000000003,-1
927,928,1583551733097,-3.3404998999999997,-3.4605,3.7017,7.1782575,-3.6002949999999996,1.6707984,-1
928,929,1583551733108,-2.5497,-3.1227,2.8839,6.7952330000000005,-3.586677,0.9710595,-1
929,930,1583551733117,-2.9045,-2.9480999,2.3253999,6.285871,-4.2185354,-0.8725716,-1
930,931,1583551733127,-3.3748998999999995,-3.3637998,0.65819997,7.0553675,-4.916158,-3.234691,-1
931,932,1583551733137,-2.5844,-3.9406,-1.6169,8.817136,-5.60723,-5.2649264,-1
932,933,1583551733147,-0.7722,-4.4536,-3.4936,10.662836,-6.4021626,-6.9025793,-1
933,934,1583551733157,1.1299,-5.0606,-4.9547,11.801021,-6.6222086,-7.991194,-1
934,935,1583551733168,2.3142,-4.982199700000001,-6.7352,11.655147,-6.716828,-9.237942,-1
935,936,1583551733178,2.2568,-4.8905,-7.8016,11.673907,-6.6875032999999995,-10.366577000000001,-1
936,937,1583551733188,2.7812,-4.5580997000000005,-8.8349,12.347635,-6.5562625,-11.731454,-1
937,938,1583551733198,3.8165,-4.67,-10.470799000000001,13.4297285,-6.9407144,-13.441526999999999,-1
938,939,1583551733208,5.0926,-4.946000000000001,-12.1296,14.658241,-7.245553,-15.151657,-1
939,940,1583551733218,5.9965997,-4.835099700000001,-13.380099,15.213102,-7.194174,-16.118982,-1
940,941,1583551733228,5.7746997,-4.5327,-13.8006,14.685476999999999,-6.962281,-16.525920000000003,-1
941,942,1583551733239,4.5077,-4.2446,-13.9119,13.35116,-6.7425895,-16.565655,-1
942,943,1583551733249,4.5077,-4.2446,-13.9119,12.509312,-6.282596,-16.43178,-1
943,944,1583551733259,3.1812,-3.1309998,-14.0138,12.194473,-5.703525,-16.716192000000003,-1
944,945,1583551733269,2.7568998,-2.6536999,-14.2072,11.662626,-5.3200884,-16.799423,-1
945,946,1583551733279,1.7929,-2.5721,-14.3896,10.685619,-5.362418,-16.984389999999998,-1
946,947,1583551733289,0.87839997,-2.9038,-14.5399,9.817347999999999,-5.7251205,-16.962238,-1
947,948,1583551733300,0.3367,-3.0546,-14.1641,9.338574000000001,-5.802281,-16.626926,-1
948,949,1583551733310,-0.12969999,-2.7061,-14.3294,8.860519,-5.437835,-16.762074,-1
949,950,1583551733320,-0.6224,-2.4264997999999998,-13.9709,8.310742999999999,-5.1518144999999995,-16.05319,-1
950,951,1583551733330,-1.0144,-2.1481,-13.308399,8.040198,-4.890339,-15.443482000000001,-1
951,952,1583551733340,-1.5195999,-1.6683999,-12.4109,7.303302,-4.319168599999999,-14.088076999999998,-1
952,953,1583551733351,-2.5166,-1.3629999,-11.389199000000001,6.1939910000000005,-4.2390685,-13.031822,-1
953,954,1583551733361,-3.6495998,-1.5426999,-10.449699,5.2432346,-4.4764867,-11.967455000000001,-1
954,955,1583551733372,-4.2773,-1.8485999,-9.4444,4.863514,-4.871462999999999,-10.930010000000001,-1
955,956,1583551733382,-4.3794,-2.4350998,-8.8123,4.9057093,-5.5298014,-10.431613,-1
956,957,1583551733392,-4.1733,-2.9963999,-8.3854,5.2370477,-6.0597625,-9.653345,-1
957,958,1583551733402,-3.9169998,-3.4064,-7.638099700000001,5.590949,-6.531574,-8.616635,-1
958,959,1583551733412,-3.4740998999999997,-3.7845,-6.6022997000000005,5.962701999999999,-6.74914,-7.741316,-1
959,960,1583551733423,-3.3346,-3.9638998999999995,-6.1305,5.753036499999999,-6.9520817,-7.6495895,-1
960,961,1583551733432,-3.6055998999999996,-4.178499700000001,-6.2801,5.598390599999999,-7.288314,-7.743518400000001,-1
961,962,1583551733442,-3.6968,-4.8373,-6.4374,5.599444,-8.401129,-7.774403599999999,-1
962,963,1583551733452,-3.6067998,-5.879699700000001,-6.3603,5.886691000000001,-9.3152075,-7.2696295,-1
963,964,1583551733462,-2.7558,-6.9810996,-5.257000000000001,7.1421432000000005,-10.365323,-5.8727849999999995,-1
964,965,1583551733472,-1.0574,-7.7025,-3.7133,9.264056,-10.923066,-3.7726010999999997,-1
965,966,1583551733482,0.6518,-7.8153,-1.8726,10.614004,-10.880441000000001,-1.8251479,-1
966,967,1583551733493,1.6718,-7.6727,0.015199998999999999,11.239905,-10.660222000000001,0.14514609,-1
967,968,1583551733503,2.04,-7.3171,1.9463999,10.912580499999999,-10.324152,2.0001352,-1
968,969,1583551733513,1.1783,-7.1376,3.5825998999999995,9.395298,-10.4881935,3.6073244,-1
969,970,1583551733523,-0.5288,-7.3417997,5.0585,7.866609599999999,-10.680256,4.800326999999999,-1
970,971,1583551733534,-1.5762,-7.3859,5.7288,8.044671000000001,-10.359586,4.9033823,-1
971,972,1583551733544,-0.93899995,-6.888499700000001,5.4831,9.357191,-9.5202265,4.931701,-1
972,973,1583551733554,0.4215,-5.9363,5.513999999999999,10.4896,-8.750328,5.9866247,-1
973,974,1583551733564,1.5181999,-5.1387997,6.7584,11.252863,-8.006928,7.8951197,-1
974,975,1583551733574,2.1180000000000003,-4.3472,8.598599,10.843446,-7.427149000000001,9.531269,-1
975,976,1583551733585,1.4425,-3.9103,10.1126995,9.453812,-7.6199875,11.20766,-1
976,977,1583551733595,-0.0154,-4.2113,11.8589,8.454146000000001,-7.967951299999999,12.475313,-1
977,978,1583551733605,-0.96389997,-4.6405997,13.0278,8.480032000000001,-8.112877000000001,12.817454,-1
978,979,1583551733616,-0.5047,-4.5634,12.975699,9.710258999999999,-7.484246000000001,12.464414999999999,-1
979,980,1583551733626,0.78349996,-3.8151998999999996,12.5264,10.848655,-6.480615599999999,11.9453335,-1
980,981,1583551733636,1.8564999,-2.812,12.035299,11.521730999999999,-5.59773,12.458956,-1
981,982,1583551733646,2.347,-2.1046,12.540199000000001,11.677383,-5.5975575,13.002919,-1
982,983,1583551733656,2.4984999,-2.1189,13.0983,11.823736,-6.159371,13.078949,-1
983,984,1583551733666,2.6364,-2.7034,13.207,12.306341,-6.588613499999999,12.488415,-1
984,985,1583551733677,3.1058998,-3.156,12.648,13.09453,-6.733041,12.034397,-1
985,986,1583551733687,3.878,-3.3474,12.203199,13.542429,-6.5080624,11.074246,-1
986,987,1583551733697,4.3143997,-3.1618998,11.236899000000001,13.823192,-6.0620709999999995,9.540348,-1
987,988,1583551733707,4.5808,-2.7593,9.6764,14.266070999999998,-5.414238500000001,8.444953,-1
988,989,1583551733717,5.0011997,-2.1697,8.5365,14.542285000000001,-5.1402936,7.729133999999999,-1
989,990,1583551733729,5.3009996,-1.9435999,7.5853996,14.902469,-5.2651653,6.3169956,-1
990,991,1583551733739,6.1949997,-2.7045999,5.4986997,15.6927185,-5.772420400000001,5.48117,-1
991,992,1583551733749,6.6344,-3.0621,6.0028996,16.04005,-6.022605,6.132862599999999,-1
992,993,1583551733759,6.4069,-3.2753,6.0613,15.727635000000001,-6.001775299999999,5.8540626,-1
993,994,1583551733770,5.7366,-3.0335999,5.0102,14.908339499999999,-5.404115,4.4529084999999995,-1
994,995,1583551733780,4.9972997,-2.5963,4.1222997,14.227247,-4.853325,4.0264726,-1
995,996,1583551733790,4.2399,-2.4292998,3.9594,13.439554000000001,-4.6261053,3.7465522000000004,-1
996,997,1583551733800,3.2986998999999995,-2.3636,3.3716998,12.5827265,-4.389941,3.1085548,-1
997,998,1583551733810,2.7235,-2.2989,2.5634,12.326595,-4.189575,2.5010310000000002,-1
998,999,1583551733820,2.7693,-2.2048,2.008,12.493845,-3.9110050000000003,1.9511595000000002,-1
999,1000,1583551733831,2.8566,-2.2223,1.8384,12.477841,-3.8043864000000003,1.9874363999999998,-1
1000,1001,1583551733841,2.4651,-2.3968,2.1274,11.9190445,-3.8649695,2.381934,-1
1001,1002,1583551733851,1.7522999,-2.6697,2.6734,11.255486999999999,-3.8844485,2.7239215,-1
1002,1003,1583551733861,1.2196,-2.7126,2.5528,10.740982,-3.4376523,2.182085,-1
1003,1004,1583551733871,0.8089,-2.3625,2.0456,10.388622999999999,-2.9231286,1.788641,-1
1004,1005,1583551733881,0.24569999,-1.9591999,1.535,9.7607,-2.4259584,0.77747387,-1
1005,1006,1583551733892,-0.12709999,-1.8819,0.28579998,9.652942999999999,-2.1889133,-0.38985267,-1
1006,1007,1583551733902,-0.054899998,-1.7183,-0.7919,9.887775,-1.8622196,-1.0527879999999998,-1
1007,1008,1583551733912,0.0795,-1.7379999,-0.8473,9.804791999999999,-1.7742470000000001,-0.70577234,-1
1008,1009,1583551733922,-0.1158,-1.8119999,-0.2744,9.428788,-1.6119777,-0.064787105,-1
1009,1010,1583551733933,-0.61109996,-1.7577,0.3445,8.81637,-1.2051933000000001,0.31130368,-1
1010,1011,1583551733943,-1.1803,-1.5328,0.5629,8.414833999999999,-0.8527283999999999,0.24352862,-1
1011,1012,1583551733953,-1.5784,-1.2578,0.39929998,8.108759,-0.41207084,-0.2812421,-1
1012,1013,1583551733963,-1.7476,-1.1618998999999999,-0.2024,7.8582106,-0.13211204,-1.0006422,-1
1013,1014,1583551733973,-2.0609,-1.0684,-0.76909995,7.275682000000001,0.06449022,-1.6858244999999998,-1
1014,1015,1583551733984,-2.7343,-1.1242,-1.5423,6.463722,0.14524186,-2.6501799999999998,-1
1015,1016,1583551733993,-3.3076,-1.2587999,-2.2944999,6.4862275,0.2667428,-3.4038462999999997,-1
1016,1017,1583551734003,-2.9085999,-1.0681,-3.1044998,7.2264576,0.9289311,-3.7765372000000004,-1
1017,1018,1583551734013,-2.2735,-0.48569998,-3.0168998,7.2960997,1.4061816999999999,-3.5071894999999995,-1
1018,1019,1583551734023,-2.5381,-0.4919,-2.7043998,6.676385000000001,1.1233882,-3.1335886000000004,-1
1019,1020,1583551734033,-3.1813998,-0.9644,-2.0669,5.957808,0.99512595,-2.3482618,-1
1020,1021,1583551734043,-3.9095,-1.1162,-1.3579,5.059944000000001,1.1026063999999998,-2.0899944,-1
1021,1022,1583551734054,-4.8406,-1.1502,-1.2369,3.8736556,1.2633915,-2.082103,-1
1022,1023,1583551734064,-5.7609,-1.129,-1.1882,3.2665433999999998,1.4813404,-2.3278822999999997,-1
1023,1024,1583551734074,-6.2023997,-1.025,-1.4580000000000002,3.2309082,1.8069136000000001,-2.8280022000000002,-1
1024,1025,1583551734084,-6.1285,-0.8235,-2.0325,3.4670913,2.011685,-3.7393503,-1
1025,1026,1583551734094,-5.8542,-0.7226,-2.8718998,3.512926,2.435018,-3.9979722,-1
1026,1027,1583551734104,-5.8766,-0.31129998,-2.9513,3.02697,2.955393,-3.5608767999999995,-1
1027,1028,1583551734114,-6.4375,0.0503,-2.4652,2.2223744,3.2635076,-2.823578,-1
1028,1029,1583551734125,-7.2419,0.2627,-1.6255,1.2731597,3.5540010000000004,-1.7938125,-1
1029,1030,1583551734135,-8.1735,0.47759998,-0.6271,0.35562515,3.8668275000000003,-0.88013726,-1
1030,1031,1583551734145,-9.058599000000001,0.70229995,0.2128,-0.56882405,4.1385117,-0.59336936,-1
1031,1032,1583551734155,-9.9005995,0.9052,0.3624,-1.1135433000000001,4.3108273,-0.9142306999999998,-1
1032,1033,1583551734166,-10.3287,1.0322,-0.0797,-1.1351581,4.5278279999999995,-1.3643119,-1
1033,1034,1583551734176,-10.2759,1.2336,-0.46609998,-0.88282835,4.7778974000000005,-1.6035118,-1
1034,1035,1583551734186,-9.975699,1.4947,-0.746,-0.5805364000000001,5.019233,-1.9391023,-1
1035,1036,1583551734196,-9.7584,1.7098999,-1.0253999,-0.8198416999999999,5.304229299999999,-1.7279338,-1
1036,1037,1583551734207,-10.0134,2.0182,-0.8226,-1.2660443000000001,5.6715765,-1.5485122,-1
1037,1038,1583551734217,-11.3287,2.8869998,-0.4066,-2.3331976,6.1754794,-1.2383481,-1
1038,1039,1583551734227,-12.5092,3.0433998,0.0638,-3.5166705,6.1925735,-0.7118153,-1
1039,1040,1583551734238,-13.5679,2.6799998,0.64,-4.459411,5.7180624,-0.19684169,-1
1040,1041,1583551734248,-13.5679,2.6799998,0.64,-4.9084487,5.1017660000000005,-0.13823164,-1
1041,1042,1583551734258,-14.2582,1.5776,0.6712,-4.922785299999999,4.3710847,-0.2896984,-1
1042,1043,1583551734268,-13.885698999999999,0.9302,0.58809996,-4.408453,3.5187294000000002,-0.3660926,-1
1043,1044,1583551734278,-13.2849,0.23799999,0.3173,-3.757508,2.6649957000000004,-0.7269180000000001,-1
1044,1045,1583551734288,-12.873199000000001,-0.0977,-0.2834,-3.411632,2.1798344,-1.3013540000000001,-1
1045,1046,1583551734299,-13.2737,-0.1771,-0.4091,-3.8777738,1.8314206999999998,-1.2170781000000002,-1
1046,1047,1583551734309,-13.8659,-0.4644,0.2086,-4.4041915000000005,1.2028661,-0.40249404,-1
1047,1048,1583551734319,-14.295898999999999,-0.9745,1.1209999,-4.7832127,0.30288568,0.56475383,-1
1048,1049,1583551734329,-14.632,-2.1419,1.8233999,-4.8811836,-1.6586455000000002,0.8224466,-1
1049,1050,1583551734339,-14.1082,-3.717,0.93359995,-4.160203,-2.948105,-0.16620548,-1
1050,1051,1583551734350,-12.6251,-4.3086,0.2929,-2.2967482000000006,-3.8207053999999996,-0.41516414,-1
1051,1052,1583551734360,-11.387099000000001,-4.427,1.0042,-1.5101283,-4.1301513,0.31775844,-1
1052,1053,1583551734370,-11.3640995,-4.5018,1.7578,-1.7985913,-4.75431,1.0688578000000002,-1
1053,1054,1583551734380,-11.7415,-4.9765997,2.1915998,-1.9560148999999998,-5.717459,1.4286008999999997,-1
1054,1055,1583551734390,-11.271299,-5.6924,2.3407,-1.3046579,-6.621931,1.4394706,-1
1055,1056,1583551734401,-9.705,-6.8306,1.9384999,0.86246806,-8.678426,0.6425367,-1
1056,1057,1583551734411,-7.2068,-8.140699,0.7942,3.6233847000000003,-10.269278,-0.61456287,-1
1057,1058,1583551734421,-4.1576,-9.1439,-0.4624,6.7354259999999995,-11.563936,-1.7653981,-1
1058,1059,1583551734431,-0.9209,-9.6401,-1.4095,9.517201,-12.244636999999999,-2.5291295,-1
1059,1060,1583551734441,1.0382999,-9.7332,-1.7031,10.463398,-13.022092,-2.3996987,-1
1060,1061,1583551734452,0.8628,-10.3744,-1.2281,9.125357000000001,-14.535285,-1.7102932000000002,-1
1061,1062,1583551734462,-0.6843,-11.644099,-0.3937,7.8581247,-15.957172,-0.9141828000000002,-1
1062,1063,1583551734472,-1.02,-13.1571,1.1165999,8.658353,-17.843218,0.91677815,-1
1063,1064,1583551734482,1.8441,-14.382898999999998,2.5835,13.317153,-19.064327,1.8502294999999997,-1
1064,1065,1583551734493,6.6306996,-14.428498999999999,2.3725,17.803963,-19.215164,0.40436152,-1
1065,1066,1583551734502,11.0191,-14.057799,-0.029399997999999997,21.129835,-19.111055,-2.6681461,-1
1066,1067,1583551734512,13.7534,-13.4635,-3.1411,22.202015,-18.834543,-4.825236,-1
1067,1068,1583551734522,14.0757,-12.9639,-4.2532997,20.796045,-18.865496,-4.1372094,-1
1068,1069,1583551734532,12.012899,-12.9634,-2.6464999,18.089094,-19.24173,-1.9551721000000002,-1
1069,1070,1583551734542,9.622,-12.9586,-0.4297,16.355213,-18.941027,-0.11948024,-1
1070,1071,1583551734552,8.8215,-12.1945,1.145,16.3883,-17.89886,0.7320989999999999,-1
1071,1072,1583551734562,9.4668,-10.701799000000001,1.3366,17.239515,-16.396832999999997,0.45752236,-1
1072,1073,1583551734573,10.540999000000001,-8.969399000000001,0.8695,18.04007,-15.185329999999999,0.08082825,-1
1073,1074,1583551734583,11.7072,-7.4866996,0.0106999995,18.97427,-13.955198000000001,-1.0925891,-1
1074,1075,1583551734593,12.3509,-6.5671,-1.1586,19.022766,-13.535897,-1.9568098000000003,-1
1075,1076,1583551734604,12.2954,-6.2777,-1.7649,18.651634,-13.5594845,-1.7215842000000001,-1
1076,1077,1583551734614,11.9529,-6.0745,-1.2518,17.626476,-12.955294,-0.9933734000000001,-1
1077,1078,1583551734624,10.9851,-5.3108997,-0.6161,15.951656,-12.228854,-0.36914757,-1
1078,1079,1583551734635,9.2838,-4.5631,-0.0142,14.306993499999999,-11.503737,0.021155167000000002,-1
1079,1080,1583551734645,7.797999999999999,-3.725,0.2947,13.079611,-10.533626,-0.27769867,-1
1080,1081,1583551734655,6.6744,-2.7192,-0.1135,12.348392500000001,-9.728809,-0.8700625,-1
1081,1082,1583551734665,5.9087,-1.6682,-0.8294,11.493461,-8.563227000000001,-1.3113617,-1
1082,1083,1583551734675,5.2198,-0.7463,-1.0464,10.74057,-7.9538636,-1.5879782,-1
1083,1084,1583551734685,4.5506997,-0.13849999,-1.3377999,10.443613000000001,-7.446762,-1.7118255,-1
1084,1085,1583551734696,4.3342,0.3719,-1.3903999,10.032586,-7.2420864,-1.5137006000000002,-1
1085,1086,1583551734706,3.9417998999999995,0.5392,-1.157,9.420475,-7.2255282,-1.4965198,-1
1086,1087,1583551734716,3.4496998999999997,0.5678,-1.1812,8.948788,-7.36602,-1.5754997,-1
1087,1088,1583551734726,3.0247,0.4579,-1.2609999,8.626557,-7.7069925999999995,-1.1624518999999998,-1
1088,1089,1583551734737,2.7254,0.1406,-0.8551,8.562144,-8.038044000000001,-0.59866536,-1
1089,1090,1583551734747,2.6977,-0.2082,-0.1698,8.4511,-8.021591,-0.45270523,-1
1090,1091,1583551734757,2.62,-0.12629999,-0.1699,8.271192,-7.890867,-1.1991119,-1
1091,1092,1583551734767,2.3818,0.13949999,-1.3234,8.174839,-7.7540913,-1.5673785,-1
1092,1093,1583551734778,2.194,0.0673,-1.1062,7.929749,-7.894947,-1.2394208,-1
1093,1094,1583551734788,1.9641998999999999,-0.095199995,-0.5969,7.718590299999999,-8.04764,-0.7804331999999999,-1
1094,1095,1583551734798,1.9004999,-0.24849999,-0.4393,7.677410000000001,-8.208961,-0.6868294,-1
1095,1096,1583551734808,1.9004999,-0.24849999,-0.4393,7.609031699999999,-8.346895,-0.7011563000000001,-1
1096,1097,1583551734818,1.7929,-0.71169996,-0.2589,7.5894184000000005,-8.740474,-0.46589250000000004,-1
1097,1098,1583551734828,1.9138998999999999,-1.0619999,-0.1025,7.6930585,-9.016286000000001,-0.27457663,-1
1098,1099,1583551734839,1.8637999,-0.9544,0.0735,7.5871296,-8.842361,-0.1500973,-1
1099,1100,1583551734849,1.5625,-0.6745,-0.1735,7.2937727,-8.560382,-0.41679220000000006,-1
1100,1101,1583551734859,1.3637999,-0.3691,-0.5531,7.158557400000001,-8.238764,-0.69739264,-1
1101,1102,1583551734869,1.319,-0.2427,-0.5038,7.149048,-8.194002000000001,-0.576246,-1
1102,1103,1583551734879,1.4081999,-0.4621,-0.32369998,7.2631364000000005,-8.407163,-0.35674563,-1
1103,1104,1583551734890,1.4081999,-0.4621,-0.32369998,7.212178,-8.536957000000001,-0.23909456,d
1104,1105,1583551734900,1.2534,-0.9088,-0.0379,7.175499,-8.802244,-0.07328172,-1
1105,1106,1583551734910,1.3556,-0.97679996,0.092099994,7.3154645,-8.820028,0.024851814,-1
1106,1107,1583551734920,1.3693,-0.9568,0.0762,7.2628303,-8.785378999999999,-0.029467834,-1
1107,1108,1583551734930,1.1762999,-0.9766,0.0175,7.135037,-8.784048,-0.07027461,-1
1108,1109,1583551734940,1.2095,-1.0059,-0.12239999,7.3047759999999995,-8.799716,-0.20620781,-1
1109,1110,1583551734951,1.5572,-0.9956,-0.35009998,7.757827000000001,-8.773408,-0.5015469,-1
1110,1111,1583551734961,2.0695,-1.0266,-0.75519997,8.3219,-8.766465,-0.8345517,-1
1111,1112,1583551734971,2.4773,-1.0236,-1.0124999,8.601974,-8.772097,-0.8918593,-1
1112,1113,1583551734981,2.4837,-1.2242,-0.7794,8.572535499999999,-9.035727,-0.45689988,-1
1113,1114,1583551734991,2.3844,-1.5192,-0.17600000000000002,8.508964,-9.255658,0.08682334,-1
1114,1115,1583551735001,2.3123,-1.7873,0.1655,8.583175,-9.506341,0.34431493,-1
1115,1116,1583551735011,2.4768,-2.0549,0.3216,9.018632,-9.668878,0.54357,-1
1116,1117,1583551735022,2.9189,-2.2228,0.5017,9.6014,-10.017339999999999,0.73133284,-1
1117,1118,1583551735032,3.5417,-2.8097,0.6245,10.559713,-10.69872,0.7162877,-1
1118,1119,1583551735042,4.8475,-3.4313,0.34899998,12.429335,-11.025835,0.1465443,-1
1119,1120,1583551735053,6.8061,-3.7157998,-0.5373,14.510998,-11.261348,-0.9890256,-1
1120,1121,1583551735063,8.6518,-3.8881,-1.5562999,15.915235500000001,-11.233394,-1.4911376,-1
1121,1122,1583551735073,9.6332,-3.9415998,-1.7718999,16.050325,-11.464597,-1.0759159,-1
1122,1123,1583551735084,9.1107,-4.4458,-1.1754999,15.091018,-12.062899,-0.37343803,-1
1123,1124,1583551735094,7.9981,-5.0578,-0.3667,14.325189000000002,-12.082291,0.73968387,-1
1124,1125,1583551735104,7.3668,-5.0048,0.5333,13.976545000000002,-11.776781,0.84039354,-1
1125,1126,1583551735114,6.895,-4.8767,0.4527,13.839827,-11.498891,0.17762104,-1
1126,1127,1583551735124,6.6685996,-4.6967998,-0.17379999,13.871803,-11.004669999999999,-0.27296773,-1
1127,1128,1583551735135,6.5831,-4.3736,-0.5751,13.942289,-10.620458,-0.5682590000000001,-1
1128,1129,1583551735145,6.4909,-4.1819997,-0.8063,13.983651,-10.352997,-0.74293995,-1
1129,1130,1583551735155,6.379699700000001,-4.0757,-1.0265,13.784107999999998,-10.195373,-0.94402415,-1
1130,1131,1583551735165,5.9332,-4.1563,-1.2134,13.238451000000001,-10.288822999999999,-0.8322341000000001,-1
1131,1132,1583551735175,5.2381,-4.4361997,-0.9949,12.707484,-10.136149000000001,-0.21939507,-1
1132,1133,1583551735185,4.5694,-4.4456,-0.2778,11.857687,-9.865039999999999,0.467578,-1
1133,1134,1583551735195,3.6729998999999998,-4.4402,0.25509998,11.106376,-9.491775,0.5502354,-1
1134,1135,1583551735206,2.6102,-4.2029,0.3601,10.448421000000002,-8.899065,0.5045445,-1
1135,1136,1583551735216,1.8762,-3.8158,0.3956,10.035162,-8.234224000000001,0.5825093000000001,-1
1136,1137,1583551735226,1.4154999,-3.5184,0.4813,9.886894,-8.115482,0.30900526,-1
1137,1138,1583551735236,1.1407,-3.6518,0.2531,9.864054,-7.9261293,0.24723485,-1
1138,1139,1583551735246,0.9912,-3.6107,0.2399,9.732095,-7.414201299999999,0.057652377000000005,-1
1139,1140,1583551735256,0.7145,-3.5409,0.0793,9.15647,-7.020900699999999,0.120514534,-1
1140,1141,1583551735267,0.070099995,-3.3062,0.155,8.484208,-6.4298205,0.37615782,-1
1141,1142,1583551735277,-0.71349996,-2.9921,0.45139998,7.7154584,-5.525894,0.84599596,-1
1142,1143,1583551735287,-1.5787,-2.3725998,0.95119995,6.6080155,-4.625205,1.7063283999999999,-1
1143,1144,1583551735297,-2.7775998,-1.7443999,1.8599999,5.760497,-3.9392948,2.7370799999999997,-1
1144,1145,1583551735307,-3.7092,-1.3421,2.9387999,5.49861,-3.3005126000000002,2.9628341000000002,-1
1145,1146,1583551735317,-4.0288,-0.9486,3.2150998,5.7931447,-3.2557982999999995,2.4000149,-1
1146,1147,1583551735327,-3.6585998999999996,-1.1571,2.4349,6.5639052,-3.3828154,0.44954488,-1
1147,1148,1583551735338,-3.063,-1.4738,0.7988,7.268222,-3.4396538999999997,-1.1153053,-1
1148,1149,1583551735348,-1.8580999,-1.8147,-2.5658,7.928878,-3.2597150000000004,-3.26232,-1
1149,1150,1583551735358,-1.5870999,-1.5730000000000002,-2.8339,8.060263,-2.71129,-2.962882,-1
1150,1151,1583551735368,-2.628,-1.0688,-0.8549,6.7620783,-1.9308183,-0.786524,-1
1151,1152,1583551735378,-4.7123,-0.7405,1.1472,4.65362,-1.3403412000000001,1.0568389999999999,-1
1152,1153,1583551735388,-6.5716,-0.43949997,2.7096999,2.9231286,-0.74861896,2.5449696,-1
1153,1154,1583551735398,-7.6949997,-0.0018,3.8105998,1.9483631000000001,0.015495273,3.4212663,-1
1154,1155,1583551735408,-8.4375,0.4743,3.4203,1.2844126,0.6417227,2.6254816,-1
1155,1156,1583551735419,-8.3519,0.156,2.2680000000000002,1.6164117,0.36784515,1.4734011999999999,-1
1156,1157,1583551735429,-7.0987,-0.41579998,1.4557999,2.9815855,-0.022208613999999998,0.70906675,-1
1157,1158,1583551735439,-5.8475,-0.6267,0.9453,4.232010400000001,-0.09597876,0.12847286,-1
1158,1159,1583551735449,-5.8475,-0.6267,0.9453,4.599846,-0.022869416,-0.31306583,-1
1159,1160,1583551735459,-5.2359,-0.44259998,-0.3795,4.458808,0.33333033,-0.9944939,-1
1160,1161,1583551735469,-5.7541,-0.154,-0.5877,3.8530366000000003,0.8354232,-0.99085474,-1
1161,1162,1583551735480,-6.1036,0.16569999,-0.5858,3.588104,1.0896298999999998,-0.94980854,-1
1162,1163,1583551735490,-6.5203,0.2084,-0.5697,3.0984993,1.184967,-0.6704722,-1
1163,1164,1583551735500,-6.8188,0.1845,0.046299997999999995,2.879966,1.2300642,0.122008525,-1
1164,1165,1583551735510,-6.9119997,0.2447,0.9226,2.8384602,1.3196361,1.0469173,-1
1165,1166,1583551735520,-6.8989997,0.1369,1.7053,2.9077005000000002,1.0694995,1.5840996999999999,-1
1166,1167,1583551735530,-6.5253997,-0.217,1.7429,3.5150616,0.79229885,1.2850639,-1
1167,1168,1583551735540,-5.6832,-0.3685,0.8727,4.43024,0.7120356,0.14280935,-1
1168,1169,1583551735550,-4.8522,-0.38329998,-0.6272,5.071053,0.7054563,-1.1047325000000001,-1
1169,1170,1583551735560,-3.9817998,-0.4572,-1.9393,6.1584900000000005,0.5886958999999999,-2.1988251,-1
1170,1171,1583551735570,-3.1392999,-0.42339998,-1.9707999,6.776758999999999,0.73133284,-1.6375766,-1
1171,1172,1583551735580,-3.0593,-0.2509,-0.91679996,6.517974400000001,0.85722953,-0.36794093,-1
1172,1173,1583551735590,-3.5851,-0.2934,0.26659998,6.0057116,0.81581944,0.6960135999999999,-1
1173,1174,1583551735601,-3.7960000000000003,-0.2669,1.1262,5.843212,0.95069915,1.5397973,-1
1174,1175,1583551735611,-4.105,-0.35700000000000004,2.0166,5.686478,0.7274351,2.2103846000000003,-1
1175,1176,1583551735621,-3.7382,-0.6148,2.1907,6.252209,0.6245706,2.0053353,-1
1176,1177,1583551735631,-3.2451,-0.49839997,1.6690999,6.561683,0.8498171,1.4453125,-1
1177,1178,1583551735641,-3.1259,-0.32369998,1.4180000000000001,6.6066556,0.89639866,1.3881103000000001,-1
1178,1179,1583551735652,-3.1255,-0.3761,1.3672999,6.67422,0.9232904000000001,1.1739441000000002,-1
1179,1180,1583551735662,-2.8615,-0.2331,0.83889997,7.214946,1.1895448,0.20917661,-1
1180,1181,1583551735672,-2.1866,0.0459,-0.2049,8.190526,1.4828537,-0.8912751,-1
1181,1182,1583551735682,-1.1003,0.3479,-1.2046,9.2399235,1.6426808999999998,-1.6451517,-1
1182,1183,1583551735692,-0.1997,0.4017,-1.5989,9.809667,1.4379097,-1.2470632,-1
1183,1184,1583551735702,0.0846,0.031799997999999996,-0.6915,9.61589,0.97948706,-0.19837397,-1
1184,1185,1583551735713,-0.3349,-0.4129,0.2641,9.003549000000001,0.6941078,0.44518745,-1
1185,1186,1583551735723,-0.9788,-0.5439,0.7026,8.503112,0.79712546,0.5383793,-1
1186,1187,1583551735733,-1.3188,-0.3708,0.6292,8.448179,1.1172878000000002,0.34128866,-1
1187,1188,1583551735743,-1.2186999,0.025999999,0.524,8.604771000000001,1.5655302,0.35784695,-1
1188,1189,1583551735753,-1.0713,0.35619998,0.4612,8.889987,1.6568738,-0.15655206,-1
1189,1190,1583551735763,-0.7389,0.3542,-0.13949999,9.301464,1.5280178999999998,-0.8200523999999999,-1
1190,1191,1583551735774,-0.2119,0.1786,-0.88079995,9.851650999999999,1.305539,-1.3673669,-1
1191,1192,1583551735784,0.3047,-0.050699997999999996,-1.2608,10.238180999999999,1.0143083000000002,-1.5070063999999999,-1
1192,1193,1583551735794,0.86109996,-0.4493,-1.2837,11.0830765,0.6384281999999999,-1.3136793,-1
1193,1194,1583551735804,1.4187,-0.5431,-0.9759,11.165542,0.74405086,-0.8209813,-1
1194,1195,1583551735814,1.3209,-0.4262,-0.39119998,10.615976,0.86249685,-0.29939014,-1
1195,1196,1583551735824,0.7346,-0.30629998,0.011000000000000001,9.876571,1.1689353999999998,-0.19459113,-1
1196,1197,1583551735835,-0.0074,-0.0084999995,0.008599999,9.259048,1.4026287,-0.41520244,-1
1197,1198,1583551735845,-0.5635,0.1644,-0.2025,8.986646,1.3817321000000002,-0.47733679999999995,d
1198,1199,1583551735855,-0.7387,0.0938,-0.23889999,9.252267999999999,1.2576838,-0.32808223,-1
1199,1200,1583551735865,-0.37629998,-0.0405,-0.0782,9.875048,1.0806661,-0.29951462,-1
1200,1201,1583551735876,0.1414,-0.1841,-0.085,10.207019,1.0232434000000001,-0.36335364,-1
1201,1202,1583551735886,0.5509,-0.22559999,-0.2042,10.560948,0.9905290999999999,-0.61783814,-1
1202,1203,1583551735896,0.8821,-0.2305,-0.4664,10.680389,1.1334246000000001,-0.76299375,-1
1203,1204,1583551735906,0.9104,-0.038399998,-0.613,10.211145,1.3658059,-0.80376226,-1
1204,1205,1583551735916,0.47959998,0.1309,-0.6493,9.506723,1.5214386,-0.6415311,-1
1205,1206,1583551735927,-0.23399999999999999,0.26929998,-0.49429998,8.754016,1.5910236999999998,-0.37282512,-1
1206,1207,1583551735937,-0.97639996,0.3245,-0.23619999,8.526000999999999,1.5421053,-0.36692578,-1
1207,1208,1583551735947,-1.1992999,0.2547,-0.2375,8.714692999999999,1.5474012,-0.22546677,-1
1208,1209,1583551735958,-0.7636,0.2057,0.7689,8.960003,1.5217067,0.76878774,-1
1209,1210,1583551735968,-0.96699995,0.21779999,1.3403,8.662002000000001,1.5531954,1.2739260000000001,-1
1210,1211,1583551735979,-1.5131999,0.2462,1.4777,8.105148,1.613644,1.269013,-1
1211,1212,1583551735989,-1.9807999,0.36200000000000004,1.2752,7.620715,1.7911693,1.1601056,-1
1212,1213,1583551735999,-2.6548,0.54859996,1.7825999,6.900453,1.9642221999999998,1.7640765999999999,-1
1213,1214,1583551736009,-3.6629998999999995,0.5348,2.3839,5.601522,1.859203,2.4001777,-1
1214,1215,1583551736019,-4.6236997,0.2962,2.8095,4.889458,1.6498252,2.7997412999999995,-1
1215,1216,1583551736029,-4.6236997,0.2962,2.8095,4.7734733,1.6144676000000002,2.8647772999999996,-1
1216,1217,1583551736040,-5.0318,0.083,3.1004999,4.813638,1.2993428999999999,3.0134957,-1
1217,1218,1583551736050,-4.5175,-0.16129999,3.1799998,5.5058017,1.2246438,3.2263207,-1
1218,1219,1583551736060,-3.9445998999999996,0.1846,4.089299700000001,5.789016999999999,1.6318974,4.7274375,-1
1219,1220,1583551736070,-4.3903,0.46299999999999997,6.3696,5.0506835,1.7301555,6.8057003,-1
1220,1221,1583551736080,-6.285599700000001,0.3556,9.156799000000001,3.0190883,1.5385427,9.460727,-1
1221,1222,1583551736091,-8.1412,0.0911,10.479799,1.0238756,1.2048963,10.193275,-1
1222,1223,1583551736101,-9.293099,-0.18069999,9.7994995,0.21239443,0.8225328000000002,9.135067,-1
1223,1224,1583551736111,-9.693,-0.66279995,8.747499000000001,0.20971292,0.12555194,8.256376,-1
1224,1225,1583551736121,-8.8892,-1.3804,8.4274,1.5584433000000002,-0.7118249,8.052457,-1
1225,1226,1583551736131,-7.173899700000001,-1.8504,8.4284,3.2030682999999995,-1.1473972,7.987392,-1
1226,1227,1583551736141,-5.8093,-1.8651999,8.2435,4.4825873,-1.1287893999999998,7.4961785999999995,-1
1227,1228,1583551736151,-5.1747,-1.6104,7.9578,4.488745,-1.2307633,6.762691,-1
1228,1229,1583551736162,-5.5035,-1.8419,6.7999997,4.1888760000000005,-1.9899359,4.901649,-1
1229,1230,1583551736172,-5.2742,-2.5800998,5.1552997000000005,5.2822413,-2.7897334,3.1770864,-1
1230,1231,1583551736182,-3.8200998,-3.0728,3.7317,6.808161699999999,-3.167797,1.6809498,-1
1231,1232,1583551736192,-2.5551999,-3.1397,2.6668,7.5224667,-3.196853,0.45756066,-1
1232,1233,1583551736202,-2.093,-2.8692,1.5426999,7.556636999999999,-2.9552492999999997,-0.9598929,-1
1233,1234,1583551736213,-2.0349998,-2.4045,0.023799999,7.877316499999999,-2.7131765,-2.6819944,-1
1234,1235,1583551736223,-0.92679995,-2.0175,-2.6448998,10.019015,-2.9329257,-6.4996257,-1
1235,1236,1583551736233,1.4843998999999999,-2.4294999,-5.9431996,12.934799,-4.0294704,-9.702694000000001,-1
1236,1237,1583551736243,4.696399700000001,-3.3532998999999997,-8.4113,15.908963,-5.0842886,-11.127263000000001,-1
1237,1238,1583551736253,7.2489996,-4.2184,-9.155499,17.355864999999998,-6.2657795,-12.160601,-1
1238,1239,1583551736263,8.0999,-5.0516,-10.1591,17.20638,-6.5117307,-13.632326,-1
1239,1240,1583551736273,7.7485,-4.796,-11.2251,16.467126999999998,-5.7654004,-14.782998000000001,-1
1240,1241,1583551736284,7.0863,-3.8686,-12.1536,15.805323000000001,-4.959857,-15.604486999999999,-1
1241,1242,1583551736294,6.4667997,-3.0807998,-12.9893,15.507617999999999,-4.8056126,-16.722656,-1
1242,1243,1583551736305,6.2823997,-3.0128,-14.6119995,15.712906,-5.3004465,-18.863445000000002,-1
1243,1244,1583551736315,6.6471995999999995,-3.4499,-16.166,16.162364999999998,-5.965977,-19.68236,-1
1244,1245,1583551736325,7.1204996,-4.0457997,-16.752499,16.422749,-6.3777800000000004,-19.85746,-1
1245,1246,1583551736335,7.2952,-4.337,-16.8319,16.00564,-6.532071599999999,-19.75311,-1
1246,1247,1583551736346,6.7625,-4.4178,-16.5661,15.01128,-6.3093634000000005,-19.128529999999998,-1
1247,1248,1583551736356,5.6768,-4.0764,-15.9682,13.316378,-5.5277996,-18.555973,-1
1248,1249,1583551736366,4.223799700000001,-3.4399,-15.4907,11.68357,-4.650104499999999,-17.008015,-1
1249,1250,1583551736376,2.5635,-2.6138,-13.970799,10.109698,-3.9698355000000003,-15.300319,-1
1250,1251,1583551736387,0.523,-1.8548,-11.9339,7.200341000000001,-3.2979937000000006,-13.683542999999998,-1
1251,1252,1583551736397,-1.9841,-1.4116,-10.750299,5.542184,-3.0139549999999997,-13.213206,-1
1252,1253,1583551736408,-3.6799998,-1.188,-10.3639,5.585979,-2.6898377,-12.986092999999999,-1
1253,1254,1583551736417,-3.0010998,-0.8562,-9.746099000000001,6.36487,-2.6464837,-12.1569805,-1
1254,1255,1583551736428,-3.1252,-1.0909,-8.7459,6.077671499999999,-2.8975685,-11.001778999999999,-1
1255,1256,1583551736438,-3.9541998,-1.3713,-7.5101,5.2152705,-3.1161397,-9.631519,-1
1256,1257,1583551736448,-5.0464997,-1.4913,-6.252999999999999,4.140073,-3.1518992999999997,-8.324582000000001,-1
1257,1258,1583551736458,-5.0464997,-1.4913,-6.252999999999999,3.2706902,-3.110796,-7.501034,-1
1258,1259,1583551736468,-7.206,-1.7299999,-4.4226,2.0939019,-3.352955,-6.35853,-1
1259,1260,1583551736478,-7.206,-1.7299999,-4.4226,1.6792643,-3.484636,-5.3870687,-1
1260,1261,1583551736489,-8.0829,-1.9195,-2.1945999,1.388953,-3.4012985000000002,-3.9157073,-1
1261,1262,1583551736498,-8.4177,-1.9518,-1.4669999999999999,1.0417554,-3.4685566,-3.134441,-1
1262,1263,1583551736508,-8.4177,-1.9518,-1.4669999999999999,0.9175155999999999,-3.6584934999999996,-2.5316862999999996,-1
1263,1264,1583551736518,-8.6025,-2.3365,0.1495,0.98086613,-3.9244220000000003,-1.2662166000000001,-1
1264,1265,1583551736528,-8.6025,-2.3365,0.1495,1.210336,-4.29809,-0.50357723,-1
1265,1266,1583551736538,-7.9385,-2.9225,1.4544,1.6852307,-4.5369644000000005,0.06530424,-1
1266,1267,1583551736549,-8.1278,-2.7354998999999998,1.2930000000000001,1.3197318,-4.4061737,-0.03964798,-1
1267,1268,1583551736559,-8.1278,-2.7354998999999998,1.2930000000000001,0.71705383,-4.315730599999999,0.30417854,-1
1268,1269,1583551736569,-9.8343,-2.4338999,2.7818,-0.586905,-4.1975050000000005,2.1674037,-1
1269,1270,1583551736579,-10.946199,-2.1780999,4.457,-1.7602457999999999,-4.031433600000001,3.9359336000000003,-1
1270,1271,1583551736589,-12.0912,-1.9096999,6.0646996,-2.7758567000000003,-3.9053642999999996,5.371411,-1
1271,1272,1583551736599,-13.0419,-1.9547,7.3044,-3.7767956,-4.2818955999999995,6.9604425,-1
1272,1273,1583551736609,-13.423699,-2.3495998,8.6481,-3.8772757000000007,-4.768608,8.172732,-1
1273,1274,1583551736620,-12.5866995,-2.7739,10.4576,-2.5956883,-5.452574299999999,10.461272,-1
1274,1275,1583551736630,-12.5866995,-2.7739,10.4576,-1.3246448,-5.86566,11.680257000000001,-1
1275,1276,1583551736640,-10.1798,-3.3037998999999996,12.777699,-0.7564145,-6.383047,12.182493,-1
1276,1277,1583551736650,-10.1798,-3.3037998999999996,12.777699,-0.68103546,-7.443602,12.612942,-1
1277,1278,1583551736661,-9.9648,-4.7813,13.7183,-0.8236054,-8.395228999999999,12.950150500000001,-1
1278,1279,1583551736671,-9.8277,-5.9616,14.4183,-0.59165514,-10.253859,13.640417999999999,-1
1279,1280,1583551736681,-8.8938,-7.4487996,15.0508995,0.8207706,-12.03252,14.200709,-1
1280,1281,1583551736691,-6.2678,-8.6017,15.536798999999998,3.8885953,-13.214815,14.332803,-1
1281,1282,1583551736701,-2.5978,-8.8533,15.121099,7.250111599999999,-13.5321045,13.750484,-1
1282,1283,1583551736711,0.27519998,-8.856999,14.344299,9.784623,-14.320717000000002,12.961385,-1
1283,1284,1583551736721,2.214,-9.4314995,13.9149,11.216941,-15.2704,12.934693,-1
1284,1285,1583551736732,3.605,-10.0271,14.0026,11.910081,-16.209120000000002,13.224410999999998,-1
1285,1286,1583551736742,4.227999700000001,-10.8201,14.5522995,12.175099000000001,-17.235216,13.841397,-1
1286,1287,1583551736752,5.0924,-11.6651,15.0329,13.466607999999999,-18.02969,13.830719,-1
1287,1288,1583551736762,6.6798997,-11.571199,14.6433,14.905965,-17.607065,13.343824,-1
1288,1289,1583551736772,8.1142,-10.793699,13.853499,15.805773,-17.060660000000002,12.136256,-1
1289,1290,1583551736783,8.992,-10.0237,12.2667,16.252357,-16.558355,10.806804,-1
1290,1291,1583551736793,9.467899000000001,-9.472199,11.0779,16.396748000000002,-16.5897,10.079637,-1
1291,1292,1583551736803,9.7262,-9.6314,10.2156,16.598263,-17.16183,9.355391000000001,-1
1292,1293,1583551736813,10.2348995,-10.1086,9.3094,17.172106,-17.740085999999998,8.252152,-1
1293,1294,1583551736823,11.0188,-10.5219,7.7432,17.822226999999998,-18.103037,6.7189345000000005,-1
1294,1295,1583551736833,12.190599,-10.6868,5.1788,19.407524,-17.781506,3.197236,-1
1295,1296,1583551736843,13.3022995,-10.087,2.7533998,19.668703,-17.144678,1.6202712,-1
1296,1297,1583551736854,13.3269,-9.441999000000001,1.2436,18.984716,-16.752804,0.7487052,-1
1297,1298,1583551736864,12.2139,-8.9964,0.1442,17.10547,-16.209856,0.0009576807000000001,-1
1298,1299,1583551736874,10.491099,-8.6361,-0.27539998,15.739289999999999,-16.305874,-0.013225569,-1
1299,1300,1583551736884,9.2604,-8.8708,-0.5319,15.514954999999999,-16.55601,-1.5935615,-1
1300,1301,1583551736894,9.250199,-9.123099,-2.521,16.724054000000002,-16.616037,-4.0632953999999994,-1
1301,1302,1583551736904,10.6585,-9.2147,-5.0882998,18.499095999999998,-16.344381,-6.0470543,-1
1302,1303,1583551736915,12.2093,-8.937699,-6.9669,19.019817,-15.754795000000001,-6.67558,-1
1303,1304,1583551736925,12.2575,-8.4333,-7.3148,17.647354,-15.321129,-5.858037,-1
1304,1305,1583551736935,10.4903,-8.1823,-6.3164,15.818701,-14.99864,-4.688699199999999,-1
1305,1306,1583551736945,8.4276,-7.9948997,-5.2035,13.867915,-14.412117000000002,-3.8840752,-1
1306,1307,1583551736955,6.3725,-7.5944996,-4.4736,12.410680000000001,-13.792345000000001,-3.5423555,-1
1307,1308,1583551736965,4.8979,-7.1854997,-4.2281,11.786779,-12.969104,-3.817248,-1
1308,1309,1583551736976,4.2657,-6.7015,-4.5243998,11.921305,-12.190681,-4.940675,-1
1309,1310,1583551736986,4.2199,-6.1327996,-5.6580997,12.023107000000001,-11.4489765,-5.774106,-1
1310,1311,1583551736996,4.1268997,-5.4357,-6.6013,11.320628,-10.724442999999999,-5.3725023,-1
1311,1312,1583551737006,3.2842998999999997,-5.1271,-6.0565,10.311117999999999,-10.25562,-3.7051803999999997,-1
1312,1313,1583551737016,2.0828,-4.9175,-4.3111,9.211442,-9.692523,-2.2245965,-1
1313,1314,1583551737026,0.8017,-4.6491,-2.7294,7.8055,-8.940619,-1.7299256,-1
1314,1315,1583551737037,-0.7772,-4.189,-2.1051,6.6636186,-8.368377,-1.9092801,-1
1315,1316,1583551737047,-2.0883,-3.9097998,-2.1646,6.096653,-7.784756,-2.3868372000000004,-1
1316,1317,1583551737057,-2.7924,-3.6129,-2.5221999,6.01774,-7.212675999999999,-2.9260783,-1
