,Seq,Time,ACCx,ACCy,ACCz,ADGx,ADGy,ADGz,Keydown
0,1,1583552445730,-0.185,-0.92069995,1.5281999,6.190706700000001,-8.3902025,3.2897003,-1
1,2,1583552445740,0.1223,-0.8533,1.4981999,8.401216,1.2018414,-0.2996583,-1
2,3,1583552445751,-1.5273,-0.23099999,0.0072999996999999995,7.9455705000000005,1.350684,-0.06950846,-1
3,4,1583552445761,-1.5273,-0.23099999,0.0072999996999999995,7.8367777,1.7982466000000001,-0.37041175,-1
4,5,1583552445771,-1.7802999,-0.0508,-0.41979998,7.785810000000001,1.9668463,-0.75914395,-1
5,6,1583552445781,-1.8247,-0.1952,-0.8261,7.9447656,1.6146497,-0.99487704,-1
6,7,1583552445792,-1.495,-0.6296,-0.97959995,8.8476095,1.3514215,-0.9921093000000001,-1
7,8,1583552445802,-0.48639998,-0.8621,-1.0205,9.9044485,1.2579136,-1.1855513,-1
8,9,1583552445812,0.5259,-0.9799,-1.1666,10.641805,1.2454348999999998,-1.1524729,-1
9,10,1583552445822,1.1523,-0.94479996,-1.0344,10.78315,1.3908014,-0.56171805,-1
10,11,1583552445833,1.1686,-0.7829,-0.3299,10.420102,1.5318868,-0.12718,-1
11,12,1583552445843,0.7309,-0.5552,-0.0676,9.932394,1.6796761999999998,-0.41242516,-1
12,13,1583552445853,0.2561,-0.37359998,-0.4711,9.750042,1.7633679,-0.8224849,-1
13,14,1583552445863,0.18599999,-0.2315,-0.6835,9.883610000000001,1.7180791000000002,-0.5725876999999999,-1
14,15,1583552445874,0.2649,-0.24329999,-0.4572,9.969676,1.5632222,-0.45268607,-1
15,16,1583552445884,0.4026,-0.5092,-0.133,10.212055,1.095807,-0.09755893,-1
16,17,1583552445894,0.5794,-0.76339996,0.040799998,10.681003,1.3671658000000002,-0.041285615,-1
17,18,1583552445904,1.0327,-0.4594,0.0901,10.798041,1.7622761999999998,0.15949214,-1
18,19,1583552445914,1.1458,-0.0336,0.2534,10.532294,1.9501442999999998,0.73186916,-1
19,20,1583552445924,0.8789,0.16319999,0.8149,10.07141,1.9211363000000001,1.5461468,-1
20,21,1583552445935,0.4177,0.13409999,1.6017,9.329955,1.6940031000000002,2.4750202,-1
21,22,1583552445944,-0.3171,-0.1056,2.4731998,8.566492,1.4935701000000001,3.1594365,-1
22,23,1583552445954,-1.0811,-0.3048,3.0706,8.065443,1.3166864,3.5641712999999995,-1
23,24,1583552445964,-1.5804,-0.47289997,3.3307,8.067454,1.5853063,3.5692758999999996,-1
24,25,1583552445974,-1.5749999,-0.177,3.0781999,8.017703,2.089755,3.4291098,-1
25,26,1583552445985,-1.5906999,0.34289998,2.4517,7.80007,2.320604,3.5773013,-1
26,27,1583552445995,-1.8070998999999999,0.56799996,2.5293999,7.644475,2.3915393,4.0688214,-1
27,28,1583552446005,-1.9467,0.62409997,2.9726,7.1210070000000005,2.3986452000000003,4.6422133,-1
28,29,1583552446015,-2.4694,0.6181,3.5073,6.1217723,2.3795203999999996,5.6199574,-1
29,30,1583552446025,-4.3382,0.7705,4.9677997000000005,5.0149045,2.6706072999999995,6.1321635,-1
30,31,1583552446035,-5.3901997,1.1482999,4.5072,3.9563704,3.092868,5.553255,-1
31,32,1583552446046,-6.4138,1.5884999,3.8330998,2.985598,3.5661442,4.981031400000001,-1
32,33,1583552446056,-6.4138,1.5884999,3.8330998,2.3364822999999997,3.9200456,4.892427,-1
33,34,1583552446066,-8.0258,2.3158998,4.1561,1.3450912,4.213364,5.533565,-1
34,35,1583552446076,-8.9606,2.1162999,4.5536,0.43027636,3.9090992999999994,5.752242,-1
35,36,1583552446086,-9.5092,1.6078,4.183,-0.0036870707,3.3647248999999997,5.2433877,-1
36,37,1583552446096,-9.7701,1.1561999,3.6736998999999995,-0.23735158,2.8550377,4.6939473,-1
37,38,1583552446107,-9.7701,1.1561999,3.6736998999999995,-0.37582263,2.4446812,4.380115,-1
38,39,1583552446117,-10.392099,-0.1612,2.9707,-0.8904706,1.3633063,3.7548169999999996,-1
39,40,1583552446127,-11.053699499999999,-0.8343,2.3790998,-1.5728086000000001,0.6619202,3.0117428,-1
40,41,1583552446138,-11.053699499999999,-0.8343,2.3790998,-2.2074158,0.042396523,2.4021025000000003,-1
41,42,1583552446148,-12.0927,-2.0769,0.7962,-2.189689,-1.0710988000000001,0.6086731,-1
42,43,1583552446158,-11.3047,-2.6950998,-0.7672,-0.9548268,-1.6853265,-0.90408885,-1
43,44,1583552446168,-9.702499000000001,-3.1664,-1.9458,0.6901526,-2.4671388,-2.087064,-1
44,45,1583552446178,-8.352099,-3.8945,-2.9354,1.7312185000000002,-3.3294632000000006,-2.9924169999999997,-1
45,46,1583552446189,-7.7911,-4.2731,-3.1903,2.095319,-3.710486,-2.9691452999999997,-1
46,47,1583552446199,-7.5685,-4.4512,-2.6722,2.289144,-4.1971793,-2.424493,-1
47,48,1583552446209,-7.4589996,-4.807699700000001,-2.3686,2.476495,-4.832007,-2.4171095,-1
48,49,1583552446219,-7.0014997,-5.4804997,-2.967,3.1557782000000003,-5.949218,-3.456911,-1
49,50,1583552446229,-5.8809,-6.4536,-4.6566997,5.013142,-7.283036999999999,-5.744763,-1
50,51,1583552446240,-4.0072,-7.1506996,-6.6924,6.526431,-7.9419116999999995,-7.1975546,-1
51,52,1583552446250,-2.4197,-7.461899799999999,-7.9153,7.833895,-8.348313000000001,-7.473836,-1
52,53,1583552446260,-1.7610999,-7.263,-7.2214,7.8767705,-8.400344,-6.288476,-1
53,54,1583552446270,-2.1276999,-7.2285,-6.1607,7.2850866,-8.72158,-5.554711,-1
54,55,1583552446280,-2.6576,-7.555299799999999,-5.9164996,7.347000599999999,-9.27575,-6.036788,-1
55,56,1583552446290,-1.8037,-7.5224,-7.0747,8.862855999999999,-9.392827,-7.4474993000000005,-1
56,57,1583552446300,0.0725,-7.5249996,-8.7203,10.734155,-9.964782000000001,-8.766264999999999,-1
57,58,1583552446311,1.8306999,-7.9323997,-9.8574,11.855521000000001,-10.626281,-9.145361999999999,-1
58,59,1583552446321,2.4959,-8.267799,-9.9258995,11.741711,-11.031389,-8.688836,-1
59,60,1583552446331,2.1454,-8.2849,-9.3646,11.101828,-11.283882,-7.7718277,-1
60,61,1583552446341,1.7349,-8.3803,-8.6357,11.455489,-11.601727,-7.5241523,-1
61,62,1583552446351,2.536,-8.3263,-8.9269,12.931677,-11.82163,-8.376594,-1
62,63,1583552446361,4.3045,-8.332399,-10.0953,15.03684,-12.124151,-9.331009,-1
63,64,1583552446371,6.5523,-8.3457,-10.9932995,16.683104,-12.183077,-9.036464,-1
64,65,1583552446382,8.0539,-8.1883,-10.6248,16.691933,-12.783352,-8.387942,-1
65,66,1583552446392,7.8592,-8.6946,-10.0161,15.722435999999998,-13.565910999999998,-7.5363817,-1
66,67,1583552446402,7.0592,-9.1406,-9.1744995,15.570336,-13.841856,-7.047304,-1
67,68,1583552446412,7.2219996,-9.203199,-8.8426,16.334747,-14.083479999999998,-7.03268,-1
68,69,1583552446422,8.2649,-9.1918,-8.9569,17.61693,-13.931026000000001,-7.473874,-1
69,70,1583552446433,9.7048,-8.7761,-9.4264,18.850123999999997,-13.279708,-7.414747,-1
70,71,1583552446443,10.974899,-7.8448997,-9.304299,19.379568,-12.627642999999999,-6.927460000000001,-1
71,72,1583552446453,11.4386,-7.1579,-8.7196,19.155998,-12.557004,-5.6711645,-1
72,73,1583552446463,11.169399,-7.0685,-7.3473,18.192198,-13.159289000000001,-4.2254305,-1
73,74,1583552446473,10.4129,-7.4862,-6.1486998,17.52046,-13.632575,-3.1439507,-1
74,75,1583552446484,9.8095,-7.8507,-5.0092,17.214941,-13.703089000000002,-2.0744705000000003,-1
75,76,1583552446494,9.5479,-7.8294997,-3.8643,17.20938,-13.282312,-0.94026047,-1
76,77,1583552446504,9.577499000000001,-7.3374,-2.6719999999999997,16.899233,-12.610873,-0.3126253,-1
77,78,1583552446514,9.2972,-6.6222997,-1.9813999,16.415470000000003,-12.217611,-0.040404547,-1
78,79,1583552446524,8.823999,-6.2036,-1.6445,16.490562,-12.146082,0.52269256,-1
79,80,1583552446535,8.944799,-6.1355996,-0.8717,16.701866,-12.189686,1.5148306,-1
80,81,1583552446545,9.082,-6.1724997,0.0311,16.512224,-12.179160000000001,1.6878548,-1
81,82,1583552446555,8.8604,-6.19,0.2707,16.228673999999998,-12.170407,2.0425221999999996,-1
82,83,1583552446565,8.0325,-6.1917995999999995,2.1824,15.697382999999999,-12.052785,3.7004879,-1
83,84,1583552446575,7.249399700000001,-6.0608997,3.6441998,14.938448999999999,-11.756057,5.0435777,-1
84,85,1583552446585,7.249399700000001,-6.0608997,3.6441998,14.202309,-11.532496,5.9511523,-1
85,86,1583552446595,6.2377996,-5.8747997000000005,4.9279,13.591022,-11.028114,6.482071400000001,-1
86,87,1583552446605,5.5228,-5.5122,5.5494,13.202442000000001,-10.396897000000001,6.895071499999999,-1
87,88,1583552446615,4.6548,-4.8676,6.1770997,12.91077,-10.012935,6.9822679999999995,-1
88,89,1583552446625,4.6548,-4.8676,6.1770997,12.813413,-9.801584,6.711905499999999,-1
89,90,1583552446636,4.4077997,-4.7763,5.9386997,12.735573,-9.442319,6.0951877,-1
90,91,1583552446646,3.7442,-4.0348997,5.4330997000000005,12.200804,-8.519125,6.252362000000001,-1
91,92,1583552446656,3.7442,-4.0348997,5.4330997000000005,11.206626,-7.923438000000001,6.667784700000001,-1
92,93,1583552446666,1.015,-3.3009998999999994,7.0959,9.673743,-7.418069999999999,7.985266,-1
93,94,1583552446676,0.20989999,-3.122,7.8771,9.125815,-6.912539,8.513914999999999,-1
94,95,1583552446686,-0.0977,-2.5942,7.7008996,8.921159,-6.1526575,8.152937,-1
95,96,1583552446697,-0.72069997,-2.3827999,7.2514997,8.308388,-5.7330594,7.635253,-1
96,97,1583552446707,-1.5404999,-2.3488,6.7969,7.6311255000000005,-5.421976,7.2113166,-1
97,98,1583552446717,-2.0163999,-2.0353,6.554199700000001,7.3169966,-4.7710595,6.9375539999999996,-1
98,99,1583552446727,-2.2958,-1.4591999,6.1751,7.1018057,-3.9673262,6.523874,-1
99,100,1583552446737,-2.5562,-1.0911,5.871299700000001,6.939086,-3.4196480000000005,6.259869999999999,-1
100,101,1583552446747,-2.681,-0.8912,5.749,6.8764534,-3.0046082000000003,6.112320400000001,-1
101,102,1583552446757,-2.681,-0.8912,5.749,6.741411,-2.822218,5.595479,-1
102,103,1583552446767,-2.9693,-1.3270998999999999,4.9632,6.7027116,-3.1308496,5.2765045,-1
103,104,1583552446777,-2.9187999,-1.6534,4.6766,6.725322200000001,-3.0121834,4.9489007,-1
104,105,1583552446787,-3.2458,-1.4722998999999999,4.6418,6.180200599999999,-2.5618627,4.9000688,-1
105,106,1583552446797,-4.1267,-1.1473,4.6175,5.275882,-1.9691063999999998,4.9250739999999995,-1
106,107,1583552446808,-4.9624,-0.6915,4.8658,4.66899,-1.3934829,5.2037206,-1
107,108,1583552446818,-5.5569997,-0.16579999,5.1983,4.075774,-0.52727985,5.406682,-1
108,109,1583552446828,-5.8715,0.3017,4.9625,3.8246605000000002,0.07950665,4.9844885,-1
109,110,1583552446838,-6.1916,0.6579,4.3192,3.4971817,0.5506664000000001,4.1267323,-1
110,111,1583552446848,-6.4400997,0.82729995,3.2317,3.3851235,0.61899686,3.0099044,-1
111,112,1583552446859,-6.1865,0.24149999,2.3764,3.95683,-0.1633133,2.2551754,-1
112,113,1583552446869,-5.1180997,-0.8009999999999999,1.4985,5.3037505,-0.98746455,1.298931,-1
113,114,1583552446879,-3.7547,-1.1113,0.8682,6.359584,-0.7938598000000001,0.8520868,-1
114,115,1583552446889,-3.6258998,-0.54609996,0.847,5.6256847,-0.11307336,1.0403093,-1
115,116,1583552446899,-5.3094997,-0.2624,1.2738999,3.8436418,0.16637787,1.4429566999999999,-1
116,117,1583552446909,-7.2165,-0.040799998,1.5537,1.679657,0.82893014,1.5654536000000001,-1
117,118,1583552446920,-8.474999,0.51559997,1.5067999,1.1156979999999999,1.5183165,1.157405,-1
118,119,1583552446930,-8.6651,1.0446,1.0523,1.2435005,1.9095098999999998,0.68959713,-1
119,120,1583552446940,-8.3666,1.2481999,0.60319996,1.7724370999999999,1.9679284,0.04674439,-1
120,121,1583552446950,-7.7072997,1.0957,-0.0448,2.4750106,1.6430161,-0.5796937,-1
121,122,1583552446960,-6.6085997,0.5808,-0.6803,3.9710803,1.0213857,-1.4976403,-1
122,123,1583552446970,-5.2755,0.19219999,-1.6037999,5.29041,0.7995866999999999,-2.707871,-1
123,124,1583552446980,-4.0604,0.1812,-2.8990998,6.227576999999999,0.9727258,-4.226101,-1
124,125,1583552446990,-3.3744998,0.3879,-4.4448,6.498581400000001,1.0242203,-5.6716337,-1
125,126,1583552447000,-3.2861,0.3538,-5.4986,6.431898599999999,0.8899535,-5.8892765,-1
126,127,1583552447010,-3.4025998,0.2261,-5.1285,6.292776,0.8398955,-4.9118580000000005,-1
127,128,1583552447021,-3.6157,0.2338,-3.8841998999999996,6.0131235,0.8835658000000002,-3.6286137000000003,-1
128,129,1583552447031,-3.906,0.21679999,-2.7135,5.760229,0.8363712999999999,-3.122853,-1
129,130,1583552447041,-3.9896998,0.1371,-2.5719,6.08246,0.71089596,-3.4994226000000004,-1
130,131,1583552447051,-3.3385,0.023599999,-3.0279,7.153722,0.65653795,-4.0062275000000005,-1
131,132,1583552447061,-2.1588,-0.0354,-3.4308,8.296435,0.40192902,-4.4720907,-1
132,133,1583552447071,-1.3522999,-0.2747,-3.7233998999999995,8.757817,0.10277829,-4.7757044,-1
133,134,1583552447082,-0.93829995,-0.5254,-3.9656,9.045533,-0.021423317,-4.8044353,-1
134,135,1583552447092,-0.5834,-0.6246,-3.8820998999999996,9.406896000000001,-0.16822618,-4.4794745,-1
135,136,1583552447102,-0.3266,-0.7011,-3.4717998999999997,9.481805,-0.15228081,-4.0898232000000005,-1
136,137,1583552447112,-0.2658,-0.6659,-3.1431,9.516779,-0.09036675,-3.9505095,-1
137,138,1583552447122,-0.22459999,-0.60359997,-2.9636998,9.608755,-0.05812164,-3.7452786,-1
138,139,1583552447132,-0.1147,-0.5791,-2.715,9.7276125,-0.031871613,-3.6271004999999996,-1
139,140,1583552447143,0.0733,-0.5214,-2.6039999,10.006278,0.0046830587,-3.4734983,-1
140,141,1583552447153,0.2807,-0.50839996,-2.4359999,10.10287,-0.05641697,-3.3898639999999998,-1
141,142,1583552447163,0.34989998,-0.5506,-2.3437997999999998,10.008911999999999,-0.082111545,-3.2660357999999996,-1
142,143,1583552447173,0.2509,-0.5482,-2.1952999,9.974254,-0.07797436,-2.9993793999999996,-1
143,144,1583552447183,0.2206,-0.50339997,-1.8829999,10.019341,-0.03968629,-2.5809877,-1
144,145,1583552447194,0.3263,-0.436,-1.2975999,10.208119,0.21382137,-1.9454421000000002,-1
145,146,1583552447204,0.4515,-0.2136,-0.9499,10.105628999999999,0.35709998,-2.0472627,-1
146,147,1583552447214,0.3513,-0.0526,-1.0639,9.928286,0.33186507,-2.1575015,d
147,148,1583552447224,0.1043,-0.0799,-1.2241,9.859611,0.30810505,-2.2300267000000003,-1
148,149,1583552447234,0.0927,-0.0762,-1.2659,10.045534,0.29916027,-1.8473948,-1
149,150,1583552447244,0.2773,-0.0699,-0.8957,10.137433,0.26635975,-1.5122066,-1
150,151,1583552447255,0.3734,-0.091699995,-0.5755,10.08432,0.19285774,-1.3800753000000001,-1
151,152,1583552447265,0.3125,-0.14019999,-0.4631,10.169094,0.16095739999999997,-1.4694173000000001,-1
152,153,1583552447276,0.6839,-0.126,-0.63449997,10.505872,0.18893124,-1.5375372,-1
153,154,1583552447286,0.743,-0.2077,-0.5022,10.468273,0.06804321,-1.3403698,-1
154,155,1583552447296,0.6652,-0.276,-0.1126,10.417631,0.03395936,-0.8944833000000001,-1
155,156,1583552447306,0.6069,-0.2285,0.30449998,10.37513,0.11029608,-0.58309346,-1
156,157,1583552447316,0.59709996,-0.110199995,0.34399998,10.364461,0.19353768,-0.61972475,-1
157,158,1583552447327,0.6652,-0.046,0.0254,10.455478999999999,0.2873808,-1.0064937,-1
158,159,1583552447337,0.84059995,0.0817,-0.37559998,10.624989,0.37584179999999995,-1.3296629,-1
159,160,1583552447347,0.8788,0.035299998,-0.3338,10.671982,0.28761065,-1.2103169,-1
160,161,1583552447357,1.0153999,-0.1384,-0.17009999,10.931542,0.04459919,-1.0481241,-1
161,162,1583552447367,1.4465,-0.25239998,-0.13229999,11.435636500000001,-0.09867942,-1.0842764,-1
162,163,1583552447378,1.9459,-0.47419998,-0.24409999,11.887566,-0.36467522,-1.1150084999999998,-1
163,164,1583552447388,2.3762,-0.62189996,-0.1466,12.225147999999999,-0.41048107,-1.0093284,-1
164,165,1583552447398,2.6397,-0.5236,-0.023699999,12.4024725,-0.23027432,-0.9248226,-1
165,166,1583552447408,2.4132,-0.3391,-0.1259,11.950141,-0.09588299,-1.0251971,-1
166,167,1583552447418,1.7853999,-0.3418,-0.1839,11.341861,-0.10467449999999999,-1.0319966999999999,-1
167,168,1583552447429,1.3838999,-0.3881,-0.12629999,11.123145,-0.107288964,-0.8806927,-1
168,169,1583552447439,1.3751,-0.38259998,0.092599995,11.200181,-0.12707464,-0.7199173000000001,-1
169,170,1583552447449,1.5426999,-0.48929998,0.15519999,11.425581,-0.24767539,-0.6859867,-1
170,171,1583552447459,1.818,-0.6597,0.2258,11.667596000000001,-0.36850595,-0.50311756,-1
171,172,1583552447469,1.8475,-0.7987,0.5664,11.442646,-0.5929479999999999,-0.14822024,-1
172,173,1583552447480,1.5727999,-1.0475,0.7841,11.312842,-0.7324149999999999,-0.05894524599999999,-1
173,174,1583552447490,1.4348999,-1.0732,0.6529,11.118491,-0.5774431,-0.38752547,-1
174,175,1583552447500,1.2770000000000001,-0.9244,0.309,10.988141,-0.5158164000000001,-0.7578989,-1
175,176,1583552447510,1.168,-0.88809997,-0.13759999,10.840725,-0.4077613,-1.2311944,-1
176,177,1583552447520,0.9518,-0.7892,-0.6598,10.588184,-0.25304797,-1.6634052,-1
177,178,1583552447531,0.6976,-0.6403,-0.9867,10.324927,-0.0038211459999999997,-1.7352504,-1
178,179,1583552447541,0.42549998,-0.4425,-0.84919995,9.943551,0.20277931,-1.29918,-1
179,180,1583552447552,-0.0312,-0.3213,-0.26819998,9.396782,0.3977631,-0.46111369999999996,-1
180,181,1583552447562,-0.428,-0.2429,0.43809998,9.11191,0.39882612,-0.101743996,-1
181,182,1583552447572,-0.7363,-0.3279,0.77199996,8.969437,0.39918044,-0.03074155,-1
182,183,1583552447582,-0.7711,-0.3461,0.7539,9.079388,0.42998904,-0.24209210000000003,-1
183,184,1583552447593,-0.65029997,-0.366,0.5379999999999999,9.171737,0.49536030000000003,-0.46120945,-1
184,185,1583552447603,-0.55009997,-0.3031,0.27399999999999997,9.334733,0.7213251,-0.9393698,-1
185,186,1583552447613,-0.3714,-0.08339999599999999,-0.2373,9.401963,0.91626096,-1.2993046,-1
186,187,1583552447623,-0.3687,0.0839,-0.6191,9.129541,1.0378865,-1.3831398000000001,-1
187,188,1583552447633,-0.71779996,0.097899996,-0.54469997,8.53915,1.0232723,-0.9167494,-1
188,189,1583552447644,-1.193,0.0187,-0.117599994,8.313301,0.94952124,-0.60721743,-1
189,190,1583552447654,-1.4419,-0.118499994,0.2173,8.310724,0.9740281999999999,-0.52644664,-1
190,191,1583552447665,-1.4165,-0.122499995,0.2987,8.453677,1.1033919,-0.51079816,-1
191,192,1583552447675,-1.2644,-0.022000000000000002,0.319,8.558542999999998,1.1677191999999998,-0.31168675,-1
192,193,1583552447686,-1.1524,0.0045,0.5193,8.535578,1.1608527,0.024708163,-1
193,194,1583552447696,-1.2537,-0.0614,0.74079996,8.46313,1.1475505,-0.19303969,-1
194,195,1583552447706,-1.1134,-0.13509999,0.0534,8.615181,1.1166173000000001,-0.939456,-1
195,196,1583552447716,-0.8354,-0.089999996,-0.7657,8.937114999999999,1.1898129,-1.6973166000000002,-1
196,197,1583552447726,-0.8354,-0.089999996,-0.7657,9.195152,1.3263111,-1.6976519,-1
197,198,1583552447737,-0.4529,0.1823,-0.4807,9.209153,1.5436281,-1.216197,-1
198,199,1583552447747,-0.6429,0.34849998,0.1055,8.979204,1.7537144,-0.64800507,-1
199,200,1583552447758,-0.6429,0.34849998,0.1055,8.445412,1.8764987000000002,-0.19317377,-1
200,201,1583552447768,-1.4446,0.4441,0.7003,8.135392,1.9313546000000001,-0.202741,-1
201,202,1583552447778,-1.5773,0.4649,0.508,8.198082000000001,1.9246794999999999,-0.530105,-1
202,203,1583552447789,-1.1231999,0.429,0.052899998,8.837181,1.9502686999999999,-1.0582274999999999,-1
203,204,1583552447799,-0.4057,0.5004,-0.48079997,9.478883999999999,1.9944273999999997,-1.5493358,-1
204,205,1583552447809,0.0266,0.38779998,-0.9698,9.766878,1.8398386000000002,-2.0167606,-1
205,206,1583552447819,0.2242,0.3383,-1.2262,9.907915,1.9938049,-2.0346308,-1
206,207,1583552447829,0.20729999,0.5549,-1.0622,9.786817,2.1686582999999997,-1.8389863000000002,-1
207,208,1583552447839,-0.0337,0.6552,-0.7412,9.523464,2.2584887000000005,-1.3847104,-1
208,209,1583552447849,-0.3031,0.7302,-0.1244,9.234035,2.3505316,-0.8282309999999999,-1
209,210,1583552447860,-0.6112,0.75619996,0.1424,8.920919999999999,2.370796,-0.7284311,d
210,211,1583552447870,-0.7729,0.65099996,0.0791,8.875947,2.1892006,-0.82441944,-1
211,212,1583552447881,-0.6616,0.40879998,0.125,9.105264,1.9600370999999999,-0.68880224,-1
212,213,1583552447891,-0.2091,0.1478,0.2561,9.820183,1.7276464,-0.72336495,-1
213,214,1583552447901,0.4472,0.0327,0.0583,10.479459,1.7038672,-1.0287597,-1
214,215,1583552447911,0.8968,0.0477,-0.2034,10.552702,1.6715933,-1.3742238000000002,-1
215,216,1583552447921,0.8858,-0.0095,-0.5675,10.346111,1.6240348999999998,-1.6388790000000002,-1
216,217,1583552447932,0.66999996,-0.0642,-0.79399997,10.273892,1.5598032,-1.7465509999999997,-1
217,218,1583552447942,0.6619,-0.1258,-0.8781,10.377428,1.5194465,-1.6444526999999998,-1
218,219,1583552447952,0.75339997,-0.2324,-0.63229996,10.345106,1.3634499,-1.1481538,-1
219,220,1583552447963,0.6992,-0.3931,-0.2051,10.346045,1.315815,-0.72823,-1
220,221,1583552447973,0.69439995,-0.4384,0.2113,10.154717999999999,1.4437611000000001,-0.49798438,-1
221,222,1583552447983,0.48319998,-0.2974,0.36569998,9.79058,1.7152252000000001,-0.7009361,-1
222,223,1583552447993,0.1829,-0.0865,0.15089999,9.744372,1.9945616000000002,-0.7854323000000001,-1
223,224,1583552448003,0.13679999,0.177,0.050899997,9.763036999999999,2.024738,-0.9220741,-1
224,225,1583552448013,0.15869999,0.18969999,-0.1061,9.875211,2.046736,-1.0426748,-1
225,226,1583552448024,0.26899999999999996,0.195,-0.20719999,9.975949,2.0073848,-1.0394857,-1
226,227,1583552448035,0.37989998,0.122499995,-0.20349999,9.929166,1.7857870999999998,-0.97818464,-1
227,228,1583552448045,0.32459998,-0.098699994,-0.1373,9.904468,1.6900861,-0.75975686,-1
228,229,1583552448056,0.32389998,-0.0896,0.091299996,9.913469000000001,1.893057,-0.7790444999999999,-1
229,230,1583552448066,0.2604,0.1891,-0.0648,9.809935000000001,2.1846995,-0.9755988999999999,-1
230,231,1583552448077,-0.1068,0.2297,-0.2446,9.376777,2.210059,-1.0801393,-1
231,232,1583552448087,-0.63049996,0.1502,0.1026,8.737256,2.1473212000000004,-0.4839352,-1
232,233,1583552448098,-0.63049996,0.1502,0.1026,8.524057,2.110709,-0.21875341,-1
233,234,1583552448108,-1.8348999,-0.13329999,0.96819997,7.587321,1.8892837,0.17289968,-1
234,235,1583552448118,-1.8348999,-0.13329999,0.96819997,7.265157,1.7972888999999999,0.24032997,-1
235,236,1583552448129,-2.2296999,-0.26389998,1.0191,7.451061999999999,1.8861426,-0.020810401,-1
236,237,1583552448139,-1.9246,-0.1004,0.4351,7.6509203999999995,2.0600574000000003,-0.6080409999999999,-1
237,238,1583552448149,-1.9729999,0.0058,0.095199995,7.456846700000001,2.1583153999999998,-0.7693528000000001,-1
238,239,1583552448159,-1.9729999,0.0058,0.095199995,6.920105,2.3420846,-0.64814866,-1
239,240,1583552448169,-3.0289998,0.36479998,0.37109998,6.054725599999999,2.6585407,-0.36610216,-1
240,241,1583552448180,-3.7723,0.6299,0.5074,5.4336696,2.8942642000000003,-0.41346905,-1
241,242,1583552448190,-4.3388,0.8165,0.3918,4.926788,3.0178242,-0.44616428,-1
242,243,1583552448200,-5.0629,0.87109995,0.5652,3.9988818,2.9320736000000003,-0.23755269,-1
243,244,1583552448210,-5.8571,0.7183,0.56729996,3.3343949999999998,2.7222266,-0.45200613,-1
244,245,1583552448221,-6.3599,0.51989996,0.38459998,3.1038623,2.5652912,-0.5333898,-1
245,246,1583552448231,-6.3851,0.4628,0.31919998,3.3551862,2.6229438999999997,-0.66067517,-1
246,247,1583552448241,-6.0703998,0.6744,0.2104,3.5522006,2.8005936,-0.7192852,-1
247,248,1583552448251,-6.0425997,0.90529996,0.3268,3.4425843,3.070401,-0.3852079,-1
248,249,1583552448261,-6.206,1.3195,0.5133,3.327222,3.6883347,-0.34614409999999995,-1
249,250,1583552448271,-6.325999700000001,1.9097998999999999,0.5187,3.0106319999999998,4.0093684000000005,-0.35923558,-1
250,251,1583552448282,-6.8124,2.2538,0.4403,2.2411642000000005,3.874192,-0.28219017,-1
251,252,1583552448292,-7.5532,2.0547,0.6015,1.6096983999999999,3.4482730000000004,-0.004960786,-1
252,253,1583552448302,-8.332499499999999,1.5035,0.91139996,0.95891607,2.3396041000000003,0.23102131,-1
253,254,1583552448312,-8.738999,0.57629997,1.0582,1.1736856000000002,1.2361263,0.11472057,-1
254,255,1583552448322,-8.3716,-0.3405,0.9604,1.6895881999999998,0.74206847,0.033432632999999996,-1
255,256,1583552448332,-7.7602997,-0.64,0.90629995,2.2554145,0.45101014,-0.013206416,-1
256,257,1583552448343,-7.375499700000001,-0.672,0.95129997,2.597067,0.7012234,0.22299594,-1
257,258,1583552448353,-7.119,-0.1374,1.1565,2.3881493,1.183722,0.32671276,-1
258,259,1583552448363,-7.4512,0.4443,1.2472,1.9696522,1.0400506999999999,0.41970354,-1
259,260,1583552448373,-7.8206997000000005,0.3583,1.2515,1.9544538,0.65966004,0.3559795,-1
260,261,1583552448383,-7.7742,0.069,1.0933,2.1017451,-0.17735289,0.24470657,-1
261,262,1583552448393,-7.6728997,-0.5877,1.0705,2.0629014999999997,-1.8016941999999998,0.42685740000000005,-1
262,263,1583552448404,-7.7219996,-1.7709999,1.2396,2.2139087,-2.8297837,0.46204263,-1
263,264,1583552448414,-7.4709997,-2.7461998,1.3379999,2.9725832999999997,-3.5772057,0.93677455,-1
264,265,1583552448424,-6.7934,-3.0714,1.7945,3.5957942000000003,-3.7383256,1.7465892,-1
265,266,1583552448435,-6.1513,-2.9739999999999998,2.5877,3.907768,-3.4249248999999997,2.3960787999999997,-1
266,267,1583552448445,-5.8192997,-2.3969,3.1764997999999998,4.0127206,-2.8497896000000003,3.0360394,-1
267,268,1583552448455,-5.687,-1.5558,3.7091,3.9872077000000004,-3.0192702000000002,2.8568382000000003,-1
268,269,1583552448465,-5.6819,-1.4394,3.4192,3.8469074,-3.6946554,1.4887912,-1
269,270,1583552448475,-5.5608997,-3.3766,0.61329997,4.162655,-6.057474,-0.031335313,-1
270,271,1583552448485,-5.5608997,-3.3766,0.61329997,5.4547099999999995,-7.898097999999999,-0.6019023,-1
271,272,1583552448496,-1.6932,-6.3233,-0.009099999000000001,8.135803999999998,-9.278297,-0.39285976,-1
272,273,1583552448506,0.45909998,-6.2872996,0.4824,10.058893,-9.3639145,0.17564821,-1
273,274,1583552448516,1.2724999,-5.5011,1.6263,10.339321,-8.850425,1.5100805,-1
274,275,1583552448526,0.0903,-5.1481,3.2231998,8.758306,-9.047105,3.122882,-1
275,276,1583552448537,-1.5999999,-5.9888,3.8704,7.1411858,-10.303007000000001,3.6219580000000002,-1
276,277,1583552448547,-1.5519999,-6.8995,3.3076,7.4569516,-11.473723,3.0629885,-1
277,278,1583552448558,0.0424,-7.7830997,1.7831999,9.048052,-12.763997,1.4617271,-1
278,279,1583552448568,2.3336,-8.744599000000001,-0.4549,11.72228,-14.061357500000002,-0.8038771,-1
279,280,1583552448578,4.9568996,-8.8694,-1.5134,14.0979595,-14.186535999999998,-1.1035354,-1
280,281,1583552448588,7.1133,-8.3595,-1.0471,15.555837,-13.678247,-0.08488881599999999,-1
281,282,1583552448599,7.6766996,-7.1913,0.3171,15.073491,-12.667396,1.3086132,-1
282,283,1583552448609,6.184,-6.1967998,1.1991,12.907725,-12.189062,1.9489473000000002,-1
283,284,1583552448619,4.0007,-5.9769998,1.6868,10.773036,-12.327017,2.7120464,-1
284,285,1583552448629,2.6067998,-6.0313,2.7142,9.630217,-12.902726,4.1526756,-1
285,286,1583552448639,2.5175998,-6.7011,3.3936,9.970481,-13.856069,4.1498413,-1
286,287,1583552448649,3.9322998999999994,-7.5389,2.2314,12.137817,-14.715252,2.3356776000000004,-1
287,288,1583552448660,6.4656,-7.6365,0.096999995,14.651403,-14.437064999999999,0.20532674,-1
288,289,1583552448670,9.1293,-6.862,-2.0963,16.164597,-13.766966,-0.89369804,-1
289,290,1583552448680,10.2652,-5.8339,-2.4259999,15.851818,-13.119889,0.10527784,-1
290,291,1583552448690,9.053599,-5.7019997,-0.9662,13.909354,-13.363419,1.9546646,-1
291,292,1583552448700,7.3096,-5.6949997,0.8839,12.345366499999999,-13.272065,3.3593907,-1
292,293,1583552448710,6.079,-5.5165,1.7649,11.444083000000001,-13.154013,3.4498339,-1
293,294,1583552448720,5.6092,-5.2653,1.4448,11.280453999999999,-12.87798,2.9585054,-1
294,295,1583552448731,5.7929,-4.6812997,0.59209996,11.595310000000001,-12.254961,1.7707418999999998,-1
295,296,1583552448741,6.371,-4.128,-0.69729996,12.068271000000001,-11.831284,0.58935666,-1
296,297,1583552448752,6.8601,-3.7452,-1.6897999,12.291822,-11.783389999999999,0.17861702,-1
297,298,1583552448762,7.2256,-3.8446,-1.8657,12.499371,-12.241602,0.69299686,-1
298,299,1583552448772,7.4399996,-4.0972,-1.3133999,12.2224,-11.868938,1.3805925,-1
299,300,1583552448782,7.0726,-3.5776,-0.65849996,11.282867,-11.334036,1.792807,-1
300,301,1583552448792,6.0792,-3.0339,-0.2886,10.117714999999999,-10.781952,2.0873897,-1
301,302,1583552448802,4.9410996,-2.4429998,0.0381,9.062887,-10.265207,2.4499772,-1
302,303,1583552448812,3.9234998,-1.9473,0.32479998,8.282798,-9.673696000000001,2.4570830000000004,-1
303,304,1583552448822,3.2501,-1.3374,0.253,7.893731,-9.123460000000001,2.127909,-1
304,305,1583552448832,2.9248998,-0.79649997,-0.184,7.686642,-8.721761,1.4416063000000001,-1
305,306,1583552448842,2.7982,-0.4804,-0.9561,7.855529,-8.782027000000001,0.7663648000000001,-1
306,307,1583552448852,3.0702,-0.5943,-1.5968,8.270176,-8.970930000000001,0.53252786,-1
307,308,1583552448862,3.6253998,-0.80619997,-1.704,8.624949,-8.970614,0.8484859,-1
308,309,1583552448873,3.7113998,-0.71849996,-1.2973,8.105646,-8.803183,1.2909918,-1
309,310,1583552448884,3.0232,-0.5703,-0.8294,7.020125,-8.633204,1.8809421999999998,-1
310,311,1583552448894,2.0683,-0.4296,-0.2836,6.195054,-8.467784,2.355454,-1
311,312,1583552448904,1.1905,-0.2926,0.2137,5.779976400000001,-8.320388000000001,2.3989615,-1
312,313,1583552448914,0.74219996,-0.1554,0.2728,5.6169887,-8.176668,2.108899,-1
313,314,1583552448925,0.5606,-0.0354,-0.0289,5.728415,-8.081704,1.5171576999999998,-1
314,315,1583552448935,0.655,0.0488,-0.63769996,6.0755935,-8.223336,1.0396965,-1
315,316,1583552448945,1.0986999,-0.1282,-1.2087,6.638547,-8.321823,1.0412958,-1
316,317,1583552448956,1.5486,-0.20629999,-1.1495,6.5707911999999995,-8.448984,1.6387831999999998,-1
317,318,1583552448966,0.7675,-0.3233,-0.2434,5.765812400000001,-8.360907000000001,1.9463422,-1
318,319,1583552448976,0.113299996,-0.081599995,-0.0918,5.20646,-8.101146,2.07516,-1
319,320,1583552448986,-0.2455,0.0026,0.1157,4.9658422,-8.0300665,2.2893069,-1
320,321,1583552448996,-0.3699,-0.0376,0.382,4.909674,-8.076332,2.5399895,d
321,322,1583552449007,-0.327,-0.2315,0.518,4.9949845999999996,-8.276553999999999,2.6592013999999997,-1
322,323,1583552449017,-0.22639999,-0.37359998,0.58379996,5.114676,-8.362257000000001,2.6637504,-1
323,324,1583552449027,-0.051999997,-0.4849,0.1424,5.3517303,-8.497491,2.170066,-1
324,325,1583552449037,0.4173,-0.635,-0.40699998,5.8760796,-8.595432,1.6833918999999997,-1
325,326,1583552449047,0.9596,-0.5606,-0.6519,6.384254,-8.488269,1.5066328000000002,-1
326,327,1583552449057,1.0976,-0.5484,-0.4868,6.4365144,-8.471279,1.7477863999999999,-1
327,328,1583552449068,0.64309996,-0.62979996,-0.16839999,5.866062599999999,-8.547224,2.1717612999999996,-1
328,329,1583552449078,0.1317,-0.7346,0.5495,5.4751177,-8.701899000000001,2.9260017999999994,-1
329,330,1583552449088,-0.123399995,-1.0071,1.1452,5.4239106,-8.907991,3.3226730000000004,-1
330,331,1583552449098,0.0132,-1.1214,1.31,5.717526,-8.970576,3.3638055000000002,-1
331,332,1583552449109,0.4457,-1.2534,1.1191,6.296875,-9.071227,2.9844682000000002,-1
332,333,1583552449119,0.99369997,-1.2767,0.4998,6.857242599999999,-9.039672999999999,2.3619087000000003,-1
333,334,1583552449129,1.8464999,-1.3492,-0.3667,8.021409,-9.262754,1.3261483,-1
334,335,1583552449139,2.7115,-1.6294999,-1.0425,8.699773,-9.397874,1.0524813999999998,-1
335,336,1583552449151,3.3948,-1.7667999,-0.9285,9.340834,-9.61293,1.7255874,-1
336,337,1583552449161,3.6399998999999994,-2.1167,-0.0764,9.379419,-10.01258,2.4476116,-1
337,338,1583552449171,3.5595999,-2.5240998,0.505,9.438537,-10.267937,2.7722845,-1
338,339,1583552449181,3.613,-2.7818,0.6918,9.742092999999999,-10.500605,2.5756536,-1
339,340,1583552449191,3.9817,-3.1092,0.3114,10.42988,-10.667098,2.0685808999999997,-1
340,341,1583552449201,4.7079,-3.1798,-0.26479998,11.220272999999999,-10.510086,1.5004367,-1
341,342,1583552449212,5.4209,-3.0653,-0.80609995,11.959277,-10.424574,1.0251397,-1
342,343,1583552449222,5.9975,-3.0936,-1.15,12.600434,-10.386948,1.0841616000000003,-1
343,344,1583552449232,6.3736997,-3.1495,-0.9345,12.900935,-10.4986515,1.5175505,-1
344,345,1583552449242,6.5288,-3.3723998,-0.39519998,13.074964999999999,-10.673715,2.1210809,-1
345,346,1583552449252,6.571799799999999,-3.6459,0.1988,13.131592999999999,-10.893445,2.3118315,-1
346,347,1583552449262,6.4326,-3.9917998,0.37809998,13.150412,-10.968786,2.1585646,-1
347,348,1583552449273,6.3406,-4.1471,0.22909999,13.046302,-10.928228,1.8280976000000002,-1
348,349,1583552449283,6.0483,-4.2102,-0.0468,12.716419,-10.76774,1.3434919,-1
349,350,1583552449293,5.5546,-4.1584,-0.49089998,12.488864999999999,-10.417411,1.2300451000000001,-1
350,351,1583552449303,5.2030997,-3.9024,-0.4204,12.241946,-9.867395,1.6662973,-1
351,352,1583552449313,4.7391,-3.5398,0.1806,11.703614,-9.501916,2.3372676,-1
352,353,1583552449324,4.0081,-3.4031,0.88809997,11.1330185,-9.180576,2.493609,-1
353,354,1583552449334,3.3969,-3.3033,1.03,10.972424499999999,-8.682447999999999,2.2823255000000002,-1
354,355,1583552449344,3.0841,-2.9924998,0.91239995,10.963968,-8.462507,2.1564,-1
355,356,1583552449354,2.9234998,-2.9687,0.8825,11.169573,-8.458427,2.3935983,-1
356,357,1583552449364,2.9837,-3.1636999,1.2253,11.340902,-8.450058,2.7020863999999998,-1
357,358,1583552449374,3.0182,-3.3557,1.6517998999999999,11.000131,-8.333344,3.0334917999999997,-1
358,359,1583552449385,2.5347,-3.4527997999999998,2.0837998,10.253436,-7.897178599999999,2.929057,-1
359,360,1583552449395,1.6405,-3.2423,2.0753999,9.473291,-7.308693400000001,2.9273043,-1
360,361,1583552449405,0.7305,-2.9071,2.166,8.813948,-6.528289,3.2469012999999998,-1
361,362,1583552449416,-0.0557,-2.3738,2.5893,8.511464,-5.6548934,3.2784379,-1
362,363,1583552449426,-0.8462,-1.3395,2.6605,8.252248,-4.889774,3.1895075,-1
363,364,1583552449436,-0.8681,-1.2623,3.1009998,8.357391,-4.6302137000000005,3.48591,-1
364,365,1583552449446,-0.98639995,-1.3151,3.3932,8.250994,-4.4499016,3.5978818,-1
365,366,1583552449457,-1.3489,-1.3824999,3.3695998,7.983992,-4.263604,3.3231616,-1
366,367,1583552449467,-1.5347998999999999,-1.3091999,3.0871,7.904160000000001,-3.9392567,2.9306943,-1
367,368,1583552449477,-1.6435,-0.99789995,3.1313999,7.8441806,-3.336837,2.9462664000000003,-1
368,369,1583552449487,-1.9317,-0.6859999999999999,3.3939998,7.4438224,-2.7529776000000004,2.9684557999999996,-1
369,370,1583552449498,-2.6359,-0.46179998,2.8829,6.691937400000001,-2.3437509999999997,2.074681,-1
370,371,1583552449508,-3.7264998,-0.2434,1.6164999,5.4522962999999995,-1.8592987,0.690076,-1
371,372,1583552449518,-4.8988,-0.0075,0.8341,4.56875,-1.5051963,0.26582342,-1
372,373,1583552449528,-5.8087,0.17289999,1.0385,3.739724,-1.0417364,0.7342441999999999,-1
373,374,1583552449538,-5.9164996,0.46159998,1.9986,3.9816818,-0.48848420000000004,1.7283549999999999,-1
374,375,1583552449548,-5.5172,0.9507,2.8788998,4.2619185,0.035865142999999995,2.2428977000000003,-1
375,376,1583552449559,-5.513999999999999,1.1776,3.1206,4.1446505,0.23538834,2.2587185,-1
376,377,1583552449569,-5.7125998,0.6085,3.2066,4.074538700000001,-0.62301916,2.4690924,-1
377,378,1583552449579,-5.5555997,-0.5536,3.6873998999999995,4.2330537,-1.5127045,2.745594,-1
378,379,1583552449589,-5.5554,-1.002,3.5616,4.091346,-1.4122534,1.8926356,-1
379,380,1583552449600,-5.7035,-0.779,2.3229,3.9800922999999995,-1.1217027,0.44703576,-1
380,381,1583552449610,-5.8139997,-0.4163,0.099,3.979575,-0.34466928,-2.3697042,-1
381,382,1583552449620,-5.6608,0.32,-1.9065,4.273612,0.53931785,-3.5185760999999998,-1
382,383,1583552449631,-5.4283,1.0058,-2.3706,4.2973045999999995,0.92936206,-3.152043,-1
383,384,1583552449641,-5.6633997,1.04,-1.1082,3.7052855000000005,0.7252324,-0.79637855,-1
384,385,1583552449651,-6.3752,0.6204,1.3662,2.7790935,0.3776901,1.6061742,-1
385,386,1583552449661,-7.3476,0.2087,3.5707,2.002108,-0.16661727,3.359199,-1
386,387,1583552449672,-7.6611996,-0.42409998,4.7620997,2.6401630000000003,-0.6837840000000001,3.437135,-1
387,388,1583552449682,-6.4459995999999995,-0.9442,4.4028997,3.9977517,-0.75210494,2.3641495999999997,-1
388,389,1583552449692,-4.7434,-0.5920000000000001,2.3569,5.7118473,-0.08780016,-1.020562,-1
389,390,1583552449702,-3.9271,-0.16219999,-0.047799997000000004,5.7837305,-0.043344627999999996,-2.8433156000000004,-1
390,391,1583552449715,-3.9559,-0.1811,-1.6227,5.82108,-0.010381259,-3.0411534,-1
391,392,1583552449726,-3.8964999,-0.1551,-1.6100999,6.032842,0.19841228,-1.5734215,-1
392,393,1583552449736,-3.8776998999999996,-0.0098,1.6882,5.7551055,0.20648554,0.47140875,-1
393,394,1583552449746,-3.8776998999999996,-0.0098,1.6882,5.5573825999999995,0.18043661,1.085033,-1
394,395,1583552449756,-4.1334,-0.0822,2.6046,5.601081400000001,0.21150379,0.66083795,-1
395,396,1583552449766,-3.8181,-0.2765,1.3555,5.946077,-0.05656062,-0.54462343,-1
396,397,1583552449776,-3.3883,-0.45589998,0.1891,6.3368487,-0.21327548,-1.7685682,-1
397,398,1583552449787,-2.9710999,-0.49879998,-0.94439995,6.797569800000001,-0.27111942,-2.8854153,-1
398,399,1583552449797,-2.3207998,-0.3918,-1.9237,7.6540713,-0.11419385,-3.9959226,-1
399,400,1583552449807,-1.5143,-0.1811,-2.4476,8.431019000000001,0.04766377,-4.154371299999999,-1
400,401,1583552449817,-0.90279996,-0.1302,-2.0256998999999998,8.839805,0.05146576,-3.5377684,-1
401,402,1583552449827,-0.80689996,-0.13699999999999998,-1.1618998999999999,8.801957000000002,0.072324045,-2.80701,-1
402,403,1583552449838,-1.1771,-0.14029999,-0.24749999,8.242672,0.06060203,-1.9111379000000002,-1
403,404,1583552449848,-1.6635,-0.15879999,0.33789998,7.790062,0.10049901,-1.4747516,-1
404,405,1583552449858,-1.9445,-0.0524,0.6441,7.597175,0.22886653,-1.3945363000000002,-1
405,406,1583552449868,-1.9633,-0.0265,0.5071,7.7432795,0.19080831,-1.79025,-1
406,407,1583552449878,-1.4749999,-0.1169,-0.2491,8.296139,0.12835795,-2.5940312999999997,-1
407,408,1583552449888,-0.5083,0.0061999997,-1.5145998999999999,9.427495,0.23545536,-4.1902356,-1
408,409,1583552449898,0.281,-0.0412,-2.7547998,9.970011999999999,0.08262869,-5.163603299999999,-1
409,410,1583552449908,0.80609995,-0.15619999,-3.6016998,10.513103,-0.03934152,-5.929106,-1
410,411,1583552449918,1.068,-0.11229999,-3.7275998999999995,10.652033,0.020398598,-5.774441,-1
411,412,1583552449929,1.0179,-0.1187,-3.0435,10.404444999999999,-0.029199684,-4.819997,-1
412,413,1583552449939,0.47849998,-0.114599995,-1.6997,9.694266,0.09727163,-3.4966357000000006,-1
413,414,1583552449949,-0.2863,-0.029099998999999998,-0.5726,8.986856,0.16908811,-2.5710852,-1
414,415,1583552449959,-0.5822,0.0061,-0.090799995,8.969963,0.29484117,-2.4540757999999996,-1
415,416,1583552449969,-0.51879996,0.1095,-0.1218,9.117389,0.34182495,-2.6762194999999998,-1
416,417,1583552449980,-0.3211,0.1538,-0.4773,9.372189,0.27428934,-3.2360892000000003,-1
417,418,1583552449990,0.0116,0.0656,-1.0854,9.797657000000001,0.15400462,-3.8081023999999997,-1
418,419,1583552450000,0.46199998,-0.015999998999999997,-1.5963,10.26175,-0.028701691,-4.112883999999999,-1
419,420,1583552450010,0.93329996,-0.1592,-1.7493,10.655892,-0.15819927,-4.1473894,-1
420,421,1583552450020,1.2106999,-0.2254,-1.7077999,10.734547000000001,-0.1466305,-4.01002,-1
421,422,1583552450030,1.1371,-0.1792,-1.4926,10.525821,-0.13406572,-3.7735972,-1
422,423,1583552450041,0.7312,-0.2148,-1.1063,9.9568815,-0.24311683,-3.3910419999999997,-1
423,424,1583552450051,0.276,-0.3353,-0.84919995,9.560345,-0.26047954,-3.3067467000000006,-1
424,425,1583552450061,-0.0042,-0.3066,-0.8537,9.517928999999999,-0.16786228,-3.4676085,d
425,426,1583552450071,0.026899998999999997,-0.2013,-1.0234,9.557058999999999,-0.08155608,-3.5833154,-1
426,427,1583552450081,0.076299995,-0.12709999,-1.1493,9.558017999999999,-0.010304645,-3.7323017,-1
427,428,1583552450091,0.037299998,-0.095199995,-1.2951,9.52131,-0.17530344,-3.908898,-1
428,429,1583552450101,0.0972,-0.38189998,-1.5554999,9.803154,-0.51757854,-4.376677,-1
429,430,1583552450112,0.5604,-0.6371,-2.1643,10.433892,-0.66788656,-5.1604433,-1
430,431,1583552450122,1.1223,-0.71989995,-2.8592,10.687831,-0.80563927,-5.495938,-1
431,432,1583552450132,1.1847,-0.85499996,-2.9436,10.518733000000001,-0.97938174,-5.4119782,-1
432,433,1583552450142,0.973,-1.0059999,-2.8504,10.20608,-0.9528061,-5.5336704,-1
433,434,1583552450152,0.6811,-0.99039996,-3.0383,9.955062,-0.77258974,-5.8294120000000005,-1
434,435,1583552450162,0.4157,-0.8027,-3.3158,9.587571,-0.5417121,-5.9859257,-1
435,436,1583552450173,0.0207,-0.6368,-3.4645998,9.164601,-0.5498428000000001,-6.085381,-1
436,437,1583552450183,-0.41329998,-0.72639996,-3.5839,8.774203,-0.86194134,-6.323326,-1
437,438,1583552450194,-0.7571,-1.1169,-3.8818,8.874866,-1.513624,-6.940312,-1
438,439,1583552450204,-0.608,-1.7056999,-4.4054,9.525934,-1.8948287,-7.3966947,-1
439,440,1583552450214,0.2577,-2.1778998,-4.964699700000001,10.588289999999999,-2.0504804,-8.184866,-1
440,441,1583552450224,1.112,-2.2625,-5.6285996,10.7218,-1.7965324,-8.785581,-1
441,442,1583552450234,1.2377,-2.0204,-6.2444997,10.346418,-1.6098708000000002,-8.983141,-1
442,443,1583552450244,0.7035,-1.8378999,-6.451699700000001,9.19656,-1.573182,-8.476595,-1
443,444,1583552450255,-0.2931,-1.8985,-5.9921,8.465964,-1.6122745,-7.743557000000001,-1
444,445,1583552450265,-1.0246,-2.0212998,-5.2918,8.334809,-1.6833537,-7.2326155,-1
445,446,1583552450275,-1.1656,-2.1337,-4.8059,8.353542,-1.8186740000000001,-7.1373262,-1
446,447,1583552450285,-1.1524999,-2.3293998,-4.7455997000000005,8.554416,-1.8201966,-7.591400999999999,-1
447,448,1583552450295,-0.95629996,-2.3892999,-5.2478,8.668275,-1.6922505,-7.5765758000000005,-1
448,449,1583552450306,-1.0322,-2.3474998,-5.2105,8.451130000000001,-1.6979966,-7.415953599999999,-1
449,450,1583552450316,-1.3801,-2.3523,-5.3018,8.099786,-1.5954194,-7.3952865999999995,-1
450,451,1583552450326,-1.9037,-2.2463999,-5.3185997,7.553764,-1.4519589,-7.3837660000000005,-1
451,452,1583552450336,-2.4459,-2.2856,-5.3785,7.087267999999999,-1.4360325,-7.1724442999999996,-1
452,453,1583552450346,-2.8091998,-2.2847,-4.2704,6.689457000000001,-1.3192146999999999,-5.799417500000001,-1
453,454,1583552450357,-3.4738998,-2.2415,-2.6306,5.9525023,-1.225927,-4.014454,-1
454,455,1583552450367,-3.4738998,-2.2415,-2.6306,5.175239,-1.1067341999999998,-2.4463284,-1
455,456,1583552450377,-5.2736998,-2.0133997999999997,0.0652,4.2532415,-0.7797915,-1.4119948,-1
456,457,1583552450387,-5.4919996,-1.6171,0.59889996,4.154141,-0.32213503,-0.75925887,-1
457,458,1583552450397,-5.370899700000001,-1.3199999,0.9043,4.321802,-0.083806634,-0.44646114,-1
458,459,1583552450407,-5.1637,-1.2261,0.6038,4.5305767,0.0026719290000000004,-0.6450840999999999,-1
459,460,1583552450418,-5.0641,-1.1482999,0.5093,4.63143,0.07516836,-0.48623365,-1
460,461,1583552450427,-5.0706,-1.0645,1.0381,4.6341977,0.15066232,0.2926672,-1
461,462,1583552450437,-5.0555,-0.8017,1.9074999,4.6497507,0.41439799999999993,1.3121566,-1
462,463,1583552450447,-5.2448,-0.5351,2.9589,4.388505,0.61506087,2.5844257,-1
463,464,1583552450458,-5.8547,-0.6737,4.9364,3.7125258000000003,0.3437882,4.8643665,-1
464,465,1583552450468,-6.6312,-1.0739,7.1424,2.8906155,-0.22980505,7.1789565,-1
465,466,1583552450478,-7.0751995999999995,-1.3927,7.803,2.6910732000000004,-0.5134509,7.494091,-1
466,467,1583552450488,-6.8139997,-1.3318,7.8001,3.2909260000000002,-0.3924001,7.626969,-1
467,468,1583552450498,-5.895,-0.9227,7.7429,4.29265,-0.05400361,7.6694417,-1
468,469,1583552450508,-4.8849998,-0.42819998,7.6412997,5.2742059999999995,0.32705754,7.802148,-1
469,470,1583552450518,-4.1851,0.100499995,7.879699700000001,5.6963425,0.6154918,8.315494000000001,-1
470,471,1583552450529,-4.1096997,0.1937,8.5563,5.5341783,0.34242833,9.359941000000001,-1
471,472,1583552450539,-4.8271,-0.2696,9.844399000000001,4.516661599999999,-0.5105683,10.771753,-1
472,473,1583552450549,-5.8181996,-1.2457,11.195499,3.8661282,-1.6485131999999998,11.994663000000001,-1
473,474,1583552450559,-5.7095,-2.0363998,12.057799000000001,4.590834,-2.3397765,12.651441,-1
474,475,1583552450569,-5.7095,-2.0363998,12.057799000000001,5.601847599999999,-2.3876417,12.813327000000001,-1
475,476,1583552450579,-2.7173,-1.7150999,12.265699,7.491725,-2.0763762,12.509503,-1
476,477,1583552450590,-1.9314,-1.3642,11.7739,7.956114299999999,-1.9996085,12.075529,-1
477,478,1583552450600,-1.8391,-1.2351999,11.5287,7.709042,-2.0395918,12.083527,-1
478,479,1583552450610,-2.3148,-1.1657,11.610399000000001,6.9117727,-2.3444022999999996,12.2506895,-1
479,480,1583552450620,-3.1731,-1.4582,11.8624,6.171936,-3.0141563,12.585322,-1
480,481,1583552450630,-3.6185,-2.0948,12.238,6.230077,-3.7194307,12.940516,-1
481,482,1583552450640,-3.3253,-2.5277,12.7197,6.6680717000000005,-4.201125,13.337245000000001,-1
482,483,1583552450650,-2.7531,-2.8246999,12.8136,7.241100299999999,-4.473671400000001,12.822645,-1
483,484,1583552450661,-1.7053,-2.7717,11.6065,8.720458,-4.4339757,11.033199,-1
484,485,1583552450671,-0.46719998,-2.4698,10.1874,9.577142,-4.4098516,9.820200999999999,-1
485,486,1583552450681,0.1255,-2.4768,9.1159,9.726703,-4.822076,8.861525,-1
486,487,1583552450691,0.0717,-2.8360999,8.3618,9.404739999999999,-5.6121235,8.206174,-1
487,488,1583552450701,-0.226,-3.6236,7.7567997,9.204441000000001,-6.622122999999999,7.483920599999999,-1
488,489,1583552450711,-0.2857,-4.4426,7.2167997,9.307076,-7.764042,6.6893325,-1
489,490,1583552450722,-0.047,-5.2785,6.4886,10.030307,-8.679681,5.3425746,-1
490,491,1583552450732,0.86289996,-5.9624996,5.1036997,11.386124,-8.996644,3.9948308,-1
491,492,1583552450742,2.3551,-5.9677997000000005,3.8439,12.649908,-8.682409,3.2058551,-1
492,493,1583552450752,3.4550998,-5.4221997,3.2207,12.693769999999999,-8.225548,3.3732290000000003,-1
493,494,1583552450762,3.3453998999999994,-4.790499700000001,3.5691998,11.649792999999999,-8.126505,3.9913545,-1
494,495,1583552450772,2.2049,-4.8068,4.0964,10.778065,-8.980746,3.7307410000000005,-1
495,496,1583552450782,1.5718,-5.6433,3.5575,10.804514999999999,-9.565267,2.8254454,-1
496,497,1583552450793,2.217,-6.4753,1.4032999,12.35613,-10.8656435,-0.70097435,-1
497,498,1583552450803,3.6102,-7.266,-1.0383999,13.839214000000002,-11.536058,-2.4862254,-1
498,499,1583552450813,5.1187,-7.6547,-2.6590998,15.034735000000001,-11.193382000000001,-3.2115822,-1
499,500,1583552450823,6.1587,-7.0636997,-3.1394,14.8508215,-10.602732000000001,-2.9838362000000003,-1
500,501,1583552450833,5.7067,-6.4607,-2.7547,13.395970000000002,-10.119831,-1.9260298999999999,-1
501,502,1583552450843,4.1173,-5.9386,-1.5754,11.734164,-9.853462,-0.793879,-1
502,503,1583552450853,2.5634,-5.7386,-0.72609997,10.856269000000001,-10.10084,-1.6594403000000002,-1
503,504,1583552450864,1.944,-6.0333,-2.2013,11.43716,-10.634172,-4.998958999999999,-1
504,505,1583552450874,2.9196,-6.5228996,-5.8519998,14.034179,-10.992087,-8.633519999999999,-1
505,506,1583552450884,5.1938,-6.7209997,-8.818399000000001,15.655541,-10.856719,-9.713908,-1
506,507,1583552450894,6.8349,-6.5369997,-9.9211,15.114203,-10.480139,-8.932344,-1
507,508,1583552450904,6.312599700000001,-6.1482,-9.104899000000001,13.002842999999999,-10.03089,-8.151912,-1
508,509,1583552450914,4.1846,-5.7151,-8.2796,11.185126,-9.724816,-7.5726204,-1
509,510,1583552450925,1.9495,-5.3508,-7.4986997,9.215886,-9.153703,-7.081148599999999,-1
510,511,1583552450935,0.3621,-4.9084,-7.166599799999999,8.831539999999999,-8.848844999999999,-7.9407916,-1
511,512,1583552450945,-0.031799997999999996,-4.6302,-8.0805,9.544609,-8.46358,-9.913862,-1
512,513,1583552450955,1.7296,-3.7143998,-12.1467,10.749228500000001,-7.8434525,-12.131477,-1
513,514,1583552450965,2.1581,-3.3799,-13.1102,11.037864,-7.460486,-12.904728,-1
514,515,1583552450976,1.8041999,-2.9698,-13.0752,10.441505000000001,-7.051882000000001,-12.583138,-1
515,516,1583552450986,0.9141,-2.7779999,-12.2102995,9.535836999999999,-6.873734,-11.678934,-1
516,517,1583552450996,0.9141,-2.7779999,-12.2102995,8.848299,-6.8419867,-11.189511999999999,-1
517,518,1583552451006,-0.71349996,-2.9454,-10.6023,8.1689205,-7.067894,-10.320819,-1
518,519,1583552451016,-0.847,-3.0579998,-10.221399,8.11326,-7.039240400000001,-10.195095,-1
519,520,1583552451026,-0.8106,-2.7038999,-10.9818,8.151078,-6.6085615,-11.023766499999999,-1
520,521,1583552451037,-0.94879997,-2.4448,-11.5789995,8.015203,-6.400343,-11.426624,-1
521,522,1583552451047,-0.9982,-2.4201999,-11.298699000000001,7.9859266,-6.331658,-10.974886999999999,-1
522,523,1583552451057,-1.0776,-2.2405,-10.4239,7.851727,-6.133236,-10.002237,-1
523,524,1583552451067,-1.6499,-2.2036,-9.247,7.000511599999999,-6.03833,-8.565649,-1
524,525,1583552451077,-2.6950998,-2.1525,-8.1932,6.1243963,-6.003939599999999,-7.763122599999999,-1
525,526,1583552451087,-3.5135998999999996,-2.1093,-7.3297,5.3913975,-5.805460500000001,-6.8069353,-1
526,527,1583552451098,-3.7198,-1.8311,-6.9034996,5.3983693,-5.552106,-6.610592,-1
527,528,1583552451108,-3.5579,-1.8061999,-6.9251,5.5037519999999995,-5.620302,-6.5892167,-1
528,529,1583552451118,-3.5293998999999996,-2.0665998,-6.7558,5.5821004,-5.99827,-6.2455815999999995,-1
529,530,1583552451128,-3.3702,-2.4479,-6.3559,5.7125177,-6.2846932,-5.8611207,-1
530,531,1583552451138,-3.3369999999999997,-2.6983,-5.8775,5.6686172,-6.546303,-5.2351327,-1
531,532,1583552451149,-3.4989998,-2.9659,-5.3153996,5.538478,-6.9033837,-4.538985,-1
532,533,1583552451159,-3.4536998,-3.22,-4.6288,5.650718,-6.9987016,-3.9911248999999995,-1
533,534,1583552451169,-3.3084998,-3.077,-4.3866,5.741047,-6.8735037,-3.7006025,-1
534,535,1583552451179,-3.3181998999999998,-3.1444,-3.8274,5.6907687000000005,-7.131914999999999,-2.8761257999999996,-1
535,536,1583552451190,-3.2868,-3.3539999,-3.3021,5.8634577000000005,-7.374428699999999,-2.6767366000000004,-1
536,537,1583552451200,-2.9877,-3.5765,-3.2045999,6.202429,-7.528614999999999,-2.3972279999999997,-1
537,538,1583552451210,-2.7256,-3.6366,-2.6929,6.224771,-7.601705,-1.8447038,-1
538,539,1583552451220,-2.8738,-3.7524,-2.0628,5.932918,-7.913622,-1.089448,-1
539,540,1583552451230,-3.0001,-4.0215,-1.3407999,6.000118700000001,-8.100121000000001,-0.35710955,-1
540,541,1583552451241,-2.7201998,-4.0188,-0.4227,6.4236526,-8.040869,0.5508005,-1
541,542,1583552451251,-2.3678,-3.9411,0.009099999000000001,6.690970399999999,-8.131475,0.99736696,-1
542,543,1583552451261,-2.0368,-3.9761,0.5718,6.9779963,-8.147564,1.644491,-1
543,544,1583552451271,-1.7371,-3.9167998,1.0722,7.214830999999999,-8.222924,1.8946180000000001,-1
544,545,1583552451281,-1.5293,-3.9924,1.2321,7.2969713,-8.359978,2.2607392999999996,-1
545,546,1583552451291,-1.5085,-4.0785,1.7643,7.130364,-8.578567999999999,2.9699880000000003,-1
546,547,1583552451302,-1.6738,-4.253,2.5851,7.0378327,-8.839316,4.326859,-1
547,548,1583552451312,-1.6515,-4.3773,3.8458,7.199738000000001,-9.070472,5.628749,-1
548,549,1583552451322,-1.4016,-4.5871997,5.1144,7.5088773,-9.279888,6.8773922999999995,-1
549,550,1583552451332,-1.053,-4.6699,6.3813996,7.853594999999999,-9.181141,7.9021106,-1
550,551,1583552451344,-0.6669,-4.4330997000000005,7.2661996,8.209497,-8.726291,8.369085,-1
551,552,1583552451354,-0.31239998,-3.8597,7.6229,8.35494,-7.965413000000001,8.403964,-1
552,553,1583552451364,-0.1858,-3.1848,7.5878,8.253369000000001,-7.5358458,7.9058747,-1
553,554,1583552451374,-0.2669,-2.7110000000000003,7.057699700000001,8.380941,-7.3073335,7.5862966,-1
554,555,1583552451385,-0.1047,-2.4555,6.7208,8.696036999999999,-7.016390299999999,7.886672999999999,-1
555,556,1583552451395,0.2278,-1.9950999,7.2791,8.657805999999999,-6.9110646,8.197182000000002,-1
556,557,1583552451406,0.033099998,-1.8339,7.571399700000001,8.423894,-6.708429,8.436544,-1
557,558,1583552451416,0.033099998,-1.8339,7.571399700000001,8.2163925,-6.3526316,8.428414,-1
558,559,1583552451426,-0.22469999,-1.3853999,7.6327,8.163787,-5.9682374000000005,8.136982000000001,-1
559,560,1583552451436,-0.17549999,-0.43129998,6.5509996,8.290068,-5.3220997,7.0445647,-1
560,561,1583552451446,0.0845,0.0774,5.2373,8.573502000000001,-4.833807,5.813054599999999,-1
561,562,1583552451457,0.4121,0.4673,4.5157,8.859139,-4.5065193,5.154812000000001,-1
562,563,1583552451467,0.46269998,0.5309,4.0997,8.841557,-4.506558,4.825178,-1
563,564,1583552451477,0.33339998,0.34559998,4.3427997000000005,8.731376,-4.709261,5.1686214999999995,-1
564,565,1583552451487,0.2218,0.2163,4.7879,8.621329,-4.82152,5.523864,-1
565,566,1583552451497,0.081,0.1156,4.8019,8.464595,-4.894926,5.3719187,-1
566,567,1583552451507,0.0209,0.1433,4.2257,8.480032000000001,-4.832179,4.74865,-1
567,568,1583552451517,0.3662,0.32099998,3.6406,8.866475999999999,-4.642318700000001,4.195982,-1
568,569,1583552451528,0.3662,0.32099998,3.6406,9.127521,-4.527866400000001,3.6927782999999996,-1
569,570,1583552451538,0.9115,0.46089998,2.6357,9.316901,-4.5539727,3.3416064,-1
570,571,1583552451548,0.8229,0.4181,2.5465999,9.1148405,-4.644722499999999,3.283753,-1
571,572,1583552451558,0.5349,0.23369999,2.573,8.890092999999998,-4.786536,3.3915975,-1
572,573,1583552451568,0.27429998,0.1347,2.9085999,8.624757,-4.8946486,3.7655525,d
573,574,1583552451578,0.1898,0.005699999599999999,2.9215,8.640741,-4.9933760000000005,3.6197934000000003,-1
574,575,1583552451589,0.3904,0.0539,2.4206,8.92297,-4.811005000000001,3.033741,-1
575,576,1583552451599,0.5717,0.2694,2.0867,9.050619000000001,-4.6512923,2.8214421,-1
576,577,1583552451609,0.6156,0.2687,1.8797,9.033821000000001,-4.6987166,2.576027,-1
577,578,1583552451619,0.5028,0.2082,1.6259999,8.844822,-4.7149014000000005,2.4152708,-1
578,579,1583552451629,0.31219998,0.196,1.5291,8.720410000000001,-4.723875,2.3557412999999996,-1
579,580,1583552451639,0.23979999,0.1634,1.4038,8.679269,-4.7246413,2.2036138,-1
580,581,1583552451650,0.1769,0.17889999,1.2283,8.585761,-4.7475677,2.1464402999999996,-1
581,582,1583552451660,0.1222,0.0947,1.1601,8.66317,-4.8252935,2.1352065,-1
582,583,1583552451670,0.2714,0.0492,1.2045,8.859935,-4.7885375,2.2339244,-1
583,584,1583552451680,0.3994,0.0427,1.3216,8.890572,-4.838930599999999,2.3567374,-1
584,585,1583552451691,0.3599,-0.0332,1.4136,8.798002,-4.882199,2.3538259999999998,-1
585,586,1583552451701,0.2821,-0.0596,1.3616999,8.808546,-4.8654675,2.3161507,-1
586,587,1583552451711,0.3047,-0.0942,1.3083999,8.863335000000001,-4.8769794,2.252618,-1
587,588,1583552451721,0.35869998,-0.0392,1.1075,8.875544999999999,-4.722343,1.9441588,-1
588,589,1583552451731,0.38439998,0.065299995,0.8418,8.943866,-4.670053,1.8370517,-1
589,590,1583552451742,0.4691,0.0821,0.7643,9.197278,-4.658513,1.9101708,-1
590,591,1583552451752,0.73939997,0.0898,0.89309996,9.559099,-4.744197,2.2902452999999996,-1
591,592,1583552451762,1.0841,-0.0437,1.31,9.869513000000001,-4.9906945,2.9489381000000003,-1
592,593,1583552451772,1.4129,-0.3256,2.0214,10.338546000000001,-5.2342234,3.6235669,-1
593,594,1583552451782,1.8851,-0.55399996,2.6397,10.803692,-5.3673215,3.9901192,-1
594,595,1583552451792,2.3291,-0.6759,2.9584,11.150621000000001,-5.4382567,4.1736298,-1
595,596,1583552451803,2.6371,-0.7617,3.0972998,11.32761,-5.4500839999999995,4.2068806,-1
596,597,1583552451812,2.8084,-0.80249995,3.0003,11.706248,-5.511423000000001,3.9492836000000002,-1
597,598,1583552451822,3.2433999,-0.868,2.7066,12.273903,-5.4249067,3.8264608,-1
598,599,1583552451832,3.8019998,-0.80329996,2.5354,12.835047,-5.3472676,3.7349930000000002,-1
599,600,1583552451842,4.3237,-0.7881,2.4487997999999997,13.155879999999998,-5.3261223,4.1023884,-1
600,601,1583552451852,4.5424,-0.8048,2.9692,13.184370999999999,-5.2968459999999995,5.2900367,-1
601,602,1583552451862,4.508,-0.85289997,4.2111998,12.997039,-5.2662096,6.3136053,-1
602,603,1583552451873,4.2646,-0.9095,5.1162,12.780383,-5.249632,6.8223734,-1
603,604,1583552451883,4.013099700000001,-0.97059995,5.4811,12.719694,-5.253932,6.7494845,-1
604,605,1583552451893,3.9715998,-1.0725,5.2634,12.943475999999999,-5.3250394,6.117961,-1
605,606,1583552451903,4.1984,-1.2241,4.402,13.280417000000002,-5.3585777000000006,4.8680634000000005,-1
606,607,1583552451913,4.5431,-1.3698,3.115,13.74265,-5.5737305,4.308184,-1
607,608,1583552451923,4.9708,-1.6811,2.6978998,14.148382000000002,-5.630032,4.4994903,-1
608,609,1583552451933,5.2784,-1.7932999,2.9635,13.789079000000001,-5.5320425,5.144086,-1
609,610,1583552451944,4.8275,-1.8486999,3.5363,13.1208,-5.4107237,5.71586,-1
610,611,1583552451954,3.9253,-1.8484,4.2764997000000005,12.397694,-5.1462984,6.264381,-1
611,612,1583552451964,3.1773,-1.7343998999999999,4.7671,11.824742,-4.9476466,6.2800293,-1
612,613,1583552451975,2.6590998,-1.7610999,4.7678,11.327561,-5.0324874,5.7298417,-1
613,614,1583552451985,2.0878,-2.0541,4.2364,10.972809,-5.007578,3.9205532,-1
614,615,1583552451995,1.693,-2.1561,2.435,11.33463,-4.7611194,2.0929058,-1
615,616,1583552452005,2.009,-2.0749,0.6083,12.154232,-4.8258777,1.9939486000000002,-1
616,617,1583552452015,2.787,-2.2798998,0.5518,12.975501,-5.1738029999999995,2.8597207,-1
617,618,1583552452025,3.5514,-2.7851,1.4798,12.6932335,-5.024261,2.994811,-1
618,619,1583552452036,1.9338,-2.5707,1.2598,11.235241,-4.457659,2.3095044999999996,-1
619,620,1583552452046,0.6487,-2.1225998,0.8832,10.04247,-3.7710017999999996,1.8965908,-1
620,621,1583552452056,0.6487,-2.1225998,0.8832,9.40745,-3.2918072,1.8501048999999998,-1
621,622,1583552452066,-0.52669996,-1.3159999999999998,1.1594,9.157142,-2.4150312,2.0067527,-1
622,623,1583552452076,-0.5412,-0.7589,1.3654,9.200619999999999,-1.6444622,2.0640223,-1
623,624,1583552452086,-0.71389997,-0.3674,1.1571,8.894775,-1.2131995,1.5074372,-1
624,625,1583552452096,-1.0662999,-0.39319998,0.2259,8.723389,-1.176051,0.46450385,-1
625,626,1583552452106,-1.0662999,-0.39319998,0.2259,9.148427,-1.3209289,-0.6493745,-1
626,627,1583552452116,-0.6386,-0.68579996,-1.0504999,10.45795,-1.5371445,-2.0594637,-1
627,628,1583552452126,1.4822999,-0.9044,-3.2331998,11.271958999999999,-1.2304186000000001,-3.0727279999999997,-1
628,629,1583552452136,0.8785,-0.8348,-3.0858,10.449388,-1.1864419,-2.7491949,-1
629,630,1583552452146,-0.46879998,-1.3786,-1.8836,9.082672,-1.6059921999999998,-1.5110573,-1
630,631,1583552452156,-1.5884999,-1.5979999,-0.659,8.043589,-1.5558671999999998,-0.47676218,-1
631,632,1583552452166,-2.3918998,-1.3838999,-0.23600000000000002,7.280949000000001,-1.2037281000000002,-0.308287,-1
632,633,1583552452177,-2.3918998,-1.3838999,-0.23600000000000002,7.1320972000000005,-1.1415458,-0.35435143,-1
633,634,1583552452188,-3.7085,-1.1341,-1.2497,6.0230265,-0.6999018,-1.575787,-1
634,635,1583552452198,-3.9684,-0.96999997,-1.9008,5.878292,-0.5023418,-2.2750854,-1
635,636,1583552452209,-3.7774,-0.98289996,-2.0405,6.1055017,-0.49759173,-2.1612169999999997,-1
636,637,1583552452219,-3.6450998999999995,-1.1808,-1.3668,6.073898000000001,-0.64746875,-1.3194636999999998,-1
637,638,1583552452229,-3.9731,-1.4252,-0.38169998,5.4541445,-1.0173729999999999,-0.3349105,-1
638,639,1583552452239,-4.495899700000001,-1.9265,0.32009998,5.0979834,-1.4560578000000002,0.01616565,-1
639,640,1583552452251,-4.8606,-2.3011,0.4809,4.5440702,-1.529349,-0.18752345,-1
640,641,1583552452260,-5.5555997,-2.3435,0.22999999,3.5989737999999996,-1.4687948,-0.67504996,-1
641,642,1583552452270,-6.5285997,-2.3000998,-0.1918,2.9540522,-1.3435303,-0.8485242000000001,-1
642,643,1583552452280,-6.981,-2.0976999,0.1682,2.7886127999999997,-0.95365846,-0.22243091,-1
643,644,1583552452290,-6.8668,-1.726,0.67689997,3.1081047,-0.5810344,-0.06794744,-1
644,645,1583552452300,-6.442,-1.4348999,0.7423,3.5817642,-0.49763003,-0.23761015,-1
645,646,1583552452310,-5.9709997,-1.5131999,0.3179,4.0716660000000005,-0.86655736,-1.4229602,-1
646,647,1583552452320,-5.3841,-1.9193,-1.2601,4.6902795,-1.2316444,-2.8428174999999998,-1
647,648,1583552452331,-4.4638,-2.2733,-2.8004,5.8703046,-1.5278741000000002,-4.1450143,-1
648,649,1583552452341,-3.5117998,-2.2686,-3.1353,6.61788,-1.3597723999999998,-3.6035894999999996,-1
649,650,1583552452351,-3.0858,-2.0042999,-2.1433,6.343342,-1.0687333,-2.4393182,-1
650,651,1583552452361,-3.7642998999999997,-1.7673999,-0.8954,5.2720413,-0.9188563,-1.3454455,-1
651,652,1583552452371,-4.9302998,-1.6667,0.095199995,4.2836003,-0.6873849,-0.84567994,-1
652,653,1583552452381,-5.566,-1.4467,0.3136,4.4646597,-0.30687922,-1.3496306,-1
653,654,1583552452391,-5.026,-1.1003,-0.1848,5.674603,0.07626969,-1.9212223999999998,-1
654,655,1583552452401,-3.7421,-0.7515,-0.6928,6.6132255,0.2457313,-2.4079634999999997,-1
655,656,1583552452411,-2.6748,-0.6626,-1.3087,7.4702444,0.06974789,-3.2590830000000004,-1
656,657,1583552452421,-1.9504,-0.84529996,-2.0911,7.915058599999999,-0.103123054,-3.8129672999999995,-1
657,658,1583552452431,-1.5288,-1.0139999,-2.5296,8.300448,-0.25536555,-4.226694999999999,-1
658,659,1583552452441,-1.2638999,-1.0839,-2.6311,8.588117,-0.25607425,-4.1163125,-1
659,660,1583552452451,-0.9111,-0.91969997,-2.1743999,8.889671,0.16820703,-3.2700869999999997,-1
660,661,1583552452461,-0.71529996,-0.43159997,-1.1359,8.778034,0.66256183,-2.3733720000000003,-1
661,662,1583552452472,-1.0294,-0.084199995,-0.47289997,8.393545,0.7818026,-2.2515742999999997,-1
662,663,1583552452481,-1.4621998999999999,-0.044999998,-0.56909996,8.039949,0.87106806,-2.6238918,-1
663,664,1583552452491,-1.5631,0.0663,-0.9816,8.176141000000001,0.99505895,-3.1880615000000003,-1
664,665,1583552452501,-1.2538999,0.1653,-1.5929999,8.693385000000001,0.9388048000000001,-3.9395344,-1
665,666,1583552452511,-0.65239996,0.063099995,-2.3065,9.406808999999999,0.79220307,-4.775963,-1
666,667,1583552452521,0.1742,0.0069999998,-3.1873,10.485282000000002,0.7710286999999999,-5.647453,-1
667,668,1583552452531,1.0404,0.045399997000000004,-3.7359,11.046694,0.77569264,-5.7446475,-1
668,669,1583552452542,1.6522,0.098799996,-3.6599,11.263378,0.83543277,-5.2995176,-1
669,670,1583552452552,1.5101,0.1602,-2.8312,10.805415,0.82249445,-4.325432,-1
670,671,1583552452562,0.6143,-0.0047,-1.4734,9.389283,0.65164423,-2.76288,-1
671,672,1583552452572,-0.3398,-0.0802,-0.5488,8.753708999999999,0.71864355,-2.2940762,-1
672,673,1583552452582,-0.8742,-0.0111,-0.14029999,8.635282499999999,0.93622863,-2.2357152,-1
673,674,1583552452593,-0.9108,0.2206,-0.20789999,8.94718,1.1090326000000001,-2.7349348,-1
674,675,1583552452603,-0.4989,0.3813,-0.73249996,9.482599,1.2087462,-3.1353698,-1
675,676,1583552452613,-0.0009999999,0.486,-1.0768,9.825985000000001,1.1049337,-3.3599555,-1
676,677,1583552452623,0.3092,0.39839998,-1.2692,10.029943,1.0048082,-3.3292525,-1
677,678,1583552452634,0.473,0.3081,-1.176,10.044872999999999,0.82271475,-3.0582576,-1
678,679,1583552452644,0.4613,0.1524,-0.884,9.951078,0.7014531999999999,-2.7159824,-1
679,680,1583552452654,0.36229998,0.0497,-0.56979996,9.884951,0.65445983,-2.6056578,d
680,681,1583552452664,0.3132,0.0418,-0.5082,9.827316999999999,0.54733366,-2.786391,-1
681,682,1583552452674,0.2546,-0.056199998,-0.6807,9.776817999999999,0.2977621,-2.886526,-1
682,683,1583552452684,0.20600000000000002,-0.2927,-0.77449995,9.786836,0.06607997,-2.8312871,-1
683,684,1583552452695,0.21669999,-0.5294,-0.7187,9.79579,-0.11562079,-2.8299847000000002,-1
684,685,1583552452705,0.2271,-0.6767,-0.7136,9.864436,-0.08688079,-2.8733294,-1
685,686,1583552452715,0.2952,-0.63549995,-0.7521,10.011249000000001,0.1209455,-3.2546394,-1
686,687,1583552452725,0.4409,-0.4341,-1.137,10.059746,0.28004497,-4.016187,-1
687,688,1583552452735,0.6331,-0.3041,-2.5098999,10.25565,0.17192283,-4.7290754,-1
688,689,1583552452745,0.6331,-0.3041,-2.5098999,10.395634,-0.009021352,-5.1245394,-1
689,690,1583552452756,0.8181,-0.5002,-3.0235999,10.596314999999999,-0.15487611,-5.337853400000001,-1
690,691,1583552452766,1.1917,-0.8778,-3.1383,10.792506,-0.42498037,-5.207839,-1
691,692,1583552452776,1.2235,-1.0367,-2.9464,10.778035000000001,-0.51166004,-5.0087175,-1
692,693,1583552452786,1.0202,-0.9992,-2.5010998,10.511743,-0.43294826,-4.545325,-1
693,694,1583552452796,0.5417,-1.0553,-2.3056,9.964322,-0.49909526,-4.4492884,-1
694,695,1583552452806,-0.065299995,-1.2083,-2.5568,9.349846000000001,-0.6080601999999999,-4.8132358,-1
695,696,1583552452818,-0.4086,-1.3251,-3.3014997999999998,9.134081,-0.72345114,-5.758045,-1
696,697,1583552452828,-0.23259999,-1.4915,-4.5555997,9.570371000000002,-0.84215564,-7.189299,-1
697,698,1583552452838,0.37559998,-1.5856,-5.9028997,10.227789999999999,-0.9677650999999999,-8.366413,-1
698,699,1583552452848,1.015,-1.7368,-6.450999700000001,10.737812,-1.0151128,-8.392453,-1
699,700,1583552452858,1.1952,-1.7212,-5.91,10.617517999999999,-0.9547405999999999,-7.6459117,-1
700,701,1583552452869,0.6701,-1.7560999,-4.9235,9.857828999999999,-0.9134167,-6.5441199999999995,-1
701,702,1583552452879,-0.3556,-1.7257999,-3.8300998,8.785083,-0.74734527,-5.585596,-1
702,703,1583552452889,-1.3253,-1.5669999,-3.2615,7.938407000000001,-0.502045,-5.2882934,-1
703,704,1583552452899,-1.9756,-1.3644999,-3.6209998,7.3265443,-0.2605083,-6.1086235,-1
704,705,1583552452910,-2.3065999,-1.2903999,-4.4846997,7.373978599999999,-0.099598795,-6.820956,-1
705,706,1583552452920,-2.0711,-1.1524,-5.246299700000001,7.6733685,-0.02245761,-7.4467144,-1
706,707,1583552452930,-1.8176,-1.1746,-5.6426,7.8376107,-0.09444647,-7.181379300000001,-1
707,708,1583552452940,-1.7300999,-1.3089,-5.2571,7.8400145000000006,-0.20152475,-6.785675500000001,-1
708,709,1583552452950,-1.8568,-1.4038,-5.0396,7.563886599999999,-0.17829141,-6.3373847,-1
709,710,1583552452960,-2.1871998,-1.3736,-4.3132997,7.146270299999999,0.004510676,-5.0378313,-1
710,711,1583552452970,-2.7215,-1.2267,-2.9705,6.3737580000000005,0.19778979,-3.679735,-1
711,712,1583552452981,-3.6367,-1.0946,-1.796,5.359717400000001,0.40220672,-2.4711418,-1
712,713,1583552452991,-4.6495,-1.0067999,-0.6701,4.506548400000001,0.49129978,-1.4756519,-1
713,714,1583552453001,-5.3113,-0.991,-0.1072,4.2559333,0.50926584,-1.3514694,-1
714,715,1583552453011,-5.2514,-0.87899995,-0.5107,4.7796407,0.6834967,-2.1264439,-1
715,716,1583552453021,-4.5288,-0.78889996,-1.3630999,5.815554,0.720377,-2.7943687,-1
716,717,1583552453031,-3.7208,-0.74829996,-1.8342999,6.199996,0.48145479999999996,-2.2883972999999997,-1
717,718,1583552453041,-3.4919998999999997,-1.0047,-1.2852,6.005769,0.09051998,-1.3491518,-1
718,719,1583552453052,-3.7326998999999996,-1.361,-0.3732,5.866924299999999,-0.04046201,0.26087222,-1
719,720,1583552453062,-3.8732,-1.3389,1.2016,5.610898000000001,0.3911455,2.1783786,-1
720,721,1583552453072,-4.2169,-0.83989996,2.9408,4.9004426,0.72633374,3.649539,-1
721,722,1583552453082,-4.9999,-0.5176,4.2191997,4.232173,0.88285714,4.660102999999999,-1
722,723,1583552453092,-5.8216996,-0.3432,5.3483,3.5594308,0.8902599,5.9884443,-1
723,724,1583552453102,-6.183799700000001,-0.3148,6.2616997,3.8399739999999998,0.8386505999999999,6.590011,-1
724,725,1583552453113,-5.7827,-0.2875,6.6166,4.5758557,0.6264476999999999,6.7795559999999995,-1
725,726,1583552453123,-4.999399700000001,-0.4308,6.7064,5.615868,0.41205169999999997,7.249777000000001,-1
726,727,1583552453133,-3.9596,-0.4892,7.1028,6.4565586999999995,0.29437187,8.028295,-1
727,728,1583552453143,-3.2203999,-0.4447,7.8280997,6.735282400000001,0.273188,9.276392,-1
728,729,1583552453153,-3.0956,-0.3771,9.0548,6.5384593,0.046236824,11.002229,-1
729,730,1583552453163,-3.3216998999999996,-0.4973,10.7302,5.9809747,-0.29394093,12.671428,-1
730,731,1583552453173,-3.9692998,-0.7626,12.263,5.306461,-0.9278105999999999,14.267403,-1
731,732,1583552453184,-4.4701,-1.1839,13.5274,5.3346453,-1.6087407,14.846014000000002,-1
732,733,1583552453194,-4.3427,-1.9363999,14.0735,6.42281,-2.4918947,14.412576999999999,-1
733,734,1583552453204,-3.3599,-2.4945,13.590798999999999,7.9517183000000005,-2.5063846,13.688407000000002,-1
734,735,1583552453214,-1.8246,-2.3542,12.822000000000001,9.348678,-2.0474064,13.042575999999999,-1
735,736,1583552453224,-0.41399997,-1.7523999,12.1198,9.752417,-1.7506019,12.911528,-1
736,737,1583552453234,-0.0033999997999999997,-1.3103,11.955299,9.232308999999999,-1.9759825,13.256513,-1
737,738,1583552453244,-0.5177,-1.4269999,12.303499,8.228,-2.6971736,13.446219000000001,-1
738,739,1583552453255,-1.5273,-2.0421999,12.559999000000001,8.0354,-3.7651597999999997,12.993783,-1
739,740,1583552453265,-1.7159,-2.9973,12.2232,8.749361,-4.5675907,11.896214,-1
740,741,1583552453275,-0.73609996,-3.8407998,10.8805,10.406312,-4.7825804000000005,9.862138,-1
741,742,1583552453285,0.648,-3.8386998,9.309199000000001,11.041455000000001,-4.645441,8.748576,-1
742,743,1583552453295,1.2894,-3.6060998,8.3151,11.058358,-4.3668512999999995,8.229713,-1
743,744,1583552453305,1.305,-3.2345998,7.8961997,10.815213,-3.9915172999999995,7.5915155,-1
744,745,1583552453316,0.9289,-2.9596999,6.5185,10.662597,-4.4074,6.375108,-1
745,746,1583552453326,1.0869,-3.7177,5.1264997,10.906805,-5.2769832999999995,4.844494999999999,-1
746,747,1583552453336,1.777,-4.3740997,3.74,11.652005,-5.9642725,3.3828826000000003,-1
747,748,1583552453346,1.777,-4.3740997,3.74,12.30408,-6.297124,2.459525,-1
748,749,1583552453356,3.1534,-4.6919,2.0318,12.862782000000001,-6.316833,1.6275017,-1
749,750,1583552453367,3.0128,-4.4119,1.9451,12.572288499999999,-6.0434823,1.5139495,-1
750,751,1583552453378,2.4493,-3.9060998,1.9188999,12.009028,-5.6013017,1.3436068,-1
751,752,1583552453388,2.0914,-3.5023,1.0687,11.611409,-5.3161044,-0.20378487,-1
752,753,1583552453398,1.9018999,-3.4979,-1.0408,11.58423,-5.538918499999999,-2.69205,-1
753,754,1583552453408,2.3538,-3.7510998,-3.2849,12.344934,-5.8995523,-4.669517,-1
754,755,1583552453418,3.3594,-4.0853,-4.4918,13.193574,-6.249039,-5.6079006,-1
755,756,1583552453428,3.6898,-4.3236,-4.8641,13.075923,-6.593631299999999,-5.800337,-1
756,757,1583552453439,3.2042,-4.6322,-4.7781,12.509818,-6.9161115,-6.0446124,-1
757,758,1583552453449,2.842,-4.6594,-5.5962,12.361244000000001,-6.8237624000000014,-7.313233,-1
758,759,1583552453459,3.0951998,-4.264199700000001,-7.1,12.722222,-6.324399,-8.936425,-1
759,760,1583552453469,3.3871998999999997,-3.7884,-8.6470995,12.858846,-6.0468054,-10.474613,-1
760,761,1583552453479,3.3543,-3.7041,-9.8289995,12.70011,-6.0738025,-11.4070015,-1
761,762,1583552453489,3.1049,-3.6669,-10.0562,12.291458,-5.9725566,-11.462633,-1
762,763,1583552453500,2.6968,-3.5655,-10.0667,11.907169999999999,-5.9214735,-11.688148,-1
763,764,1583552453512,2.2954,-3.4938,-10.7266,11.609925,-5.7939973,-13.070704,-1
764,765,1583552453522,2.2247,-3.3123998999999995,-12.1438,11.757331,-5.598362,-14.655416500000001,-1
765,766,1583552453532,2.4252,-3.1432,-13.2639,11.997556,-5.3233924,-15.029046,-1
766,767,1583552453542,2.593,-2.8488998,-13.4436,11.729165,-5.080697,-14.70602,-1
767,768,1583552453553,2.2086,-2.661,-13.0351,11.024332000000001,-5.0436926,-13.968767999999999,-1
768,769,1583552453563,1.4671999,-2.6660000000000004,-12.224,10.412221,-4.9211383,-13.335531,-1
769,770,1583552453573,0.7114,-2.4935,-11.4183,9.422007,-4.6034180000000005,-12.656191,-1
770,771,1583552453583,-0.1656,-2.2835,-11.104199000000001,8.774721000000001,-4.3693029999999995,-12.952172000000001,-1
771,772,1583552453593,-0.71099997,-2.0597,-11.533899,8.812347,-4.0078363,-13.378109,-1
772,773,1583552453603,-0.5592,-1.7119,-11.958799,9.240038,-3.5619687999999994,-13.5494,-1
773,774,1583552453614,-0.2294,-1.393,-12.092999,9.129091,-3.3165440000000004,-12.878841,-1
774,775,1583552453624,-0.3511,-1.1899998999999999,-11.455,8.555516,-3.1821718,-11.820566,-1
775,776,1583552453634,-1.112,-1.1065999,-10.126699,7.686498599999999,-3.224846,-10.275367999999999,-1
776,777,1583552453644,-1.9918,-1.2652999,-8.5745,7.003049400000001,-3.4671008999999997,-8.845386999999999,-1
777,778,1583552453654,-2.616,-1.5782,-7.3192,6.824279300000001,-3.8188953000000003,-8.308886,-1
778,779,1583552453664,-2.7191,-1.9108,-7.0035996,7.047533500000001,-3.8524334000000002,-8.184242999999999,-1
779,780,1583552453674,-2.5168,-1.9878,-6.9213,6.995436,-3.9109476,-7.930228,-1
780,781,1583552453685,-2.5786998,-2.0774999,-6.7307997,6.965796000000001,-4.0409718,-7.7309823,-1
781,782,1583552453695,-2.6215,-2.2307,-6.6050997,7.0434923,-4.0268846,-7.3754053,-1
782,783,1583552453705,-2.5467,-2.2135,-6.2074,7.0066504,-3.8686564,-6.3603309999999995,-1
783,784,1583552453715,-2.6088998,-2.0994,-5.4002,6.7604117,-3.8776010999999997,-5.334626,-1
784,785,1583552453725,-2.8662999,-2.1362,-4.4474998,6.3826065000000005,-4.027497299999999,-4.438754599999999,-1
785,786,1583552453736,-3.2496,-2.3229,-3.6162998999999996,5.948231,-4.210625,-3.540402,-1
786,787,1583552453746,-4.2072997,-2.7872,-1.4204,5.3627725,-4.49407,-1.8692874,-1
787,788,1583552453756,-4.2072997,-2.7872,-1.4204,5.1482806,-4.802376000000001,-0.68076736,-1
788,789,1583552453766,-4.4925,-3.1569,0.41959998,5.187775599999999,-4.7678895,-0.15869726,-1
789,790,1583552453776,-4.4925,-3.1569,0.41959998,5.3217072,-4.6429605,-0.071529165,-1
790,791,1583552453786,-4.171,-2.7693,0.62369996,5.511644,-4.3946724,0.27604187,-1
791,792,1583552453796,-4.0411,-2.5974998,0.9966,5.642645,-4.302687000000001,0.78294224,-1
792,793,1583552453807,-3.9189999999999996,-2.5791,1.7544,5.75681,-4.3667172999999995,1.7187207999999998,-1
793,794,1583552453817,-3.9722998,-2.7463,2.8437,5.635136599999999,-4.571067299999999,2.8528445,-1
794,795,1583552453827,-4.3289,-2.8753,3.6462998,5.224665,-4.721451999999999,3.6042120000000004,-1
795,796,1583552453837,-4.832,-2.8465,4.3399,4.6865253,-4.691084,4.3579645,-1
796,797,1583552453847,-5.343499700000001,-2.5964,5.1134996,4.2087,-4.4605894,5.222262000000001,-1
797,798,1583552453858,-5.4797997,-2.1195,6.0533,4.241423999999999,-3.8690300000000004,6.2290616,-1
798,799,1583552453868,-5.1319,-1.4995999,6.5414996,4.6570387,-3.31414,6.6736364,-1
799,800,1583552453878,-4.7012997,-0.9126,6.9768996,4.9851589999999995,-2.9258199,7.240947,-1
800,801,1583552453888,-4.4237,-0.636,7.6457996,5.2069097,-2.911474,7.852177,-1
801,802,1583552453898,-4.2502,-0.7418,7.9515996,5.293302,-3.2221932,8.173010000000001,-1
802,803,1583552453909,-4.2503,-0.96919996,8.2997,5.1985207,-3.5434473,8.624364,-1
803,804,1583552453919,-4.4347,-1.1656,8.8426,4.920151000000001,-3.8504415,9.230442,-1
804,805,1583552453929,-4.7551,-1.2639999,9.4268,4.5906709999999995,-3.9495902000000003,9.694564,-1
805,806,1583552453939,-4.9463,-0.98899996,9.689199,4.5996447,-3.6153882000000004,10.014821000000001,-1
806,807,1583552453949,-4.5657997,-0.5035,10.0486,5.164944,-3.1432900000000004,10.416721,-1
807,808,1583552453959,-3.8971,0.106,10.4622,5.558694999999999,-2.882772,10.673226,-1
808,809,1583552453970,-3.4301,0.4472,10.8526,5.876769,-2.833643,11.111661999999999,-1
809,810,1583552453980,-3.4294998999999997,0.38259998,11.0498,5.659577,-3.2107012000000004,11.107918,-1
810,811,1583552453990,-3.61,0.0501,10.8677,5.521939,-3.7650832999999997,10.641939,-1
811,812,1583552454000,-3.5978,-0.3416,10.226299000000001,5.578958999999999,-4.2038636,9.97842,-1
812,813,1583552454010,-3.4215998999999995,-0.51879996,9.6338,5.7968507,-4.5085406,9.668696,-1
813,814,1583552454020,-3.0233,-0.6608,9.484099,6.18769,-4.7899065,9.772192,-1
814,815,1583552454030,-2.5904999,-0.7421,9.602799000000001,6.418194000000001,-5.0990459999999995,9.911565,-1
815,816,1583552454040,-2.3407,-0.9535,9.6538,6.524687999999999,-5.4826646,9.963431,-1
816,817,1583552454051,-2.0888,-1.0916,9.783299000000001,6.916005999999999,-5.6387377,10.416291000000001,-1
817,818,1583552454061,-1.5791,-1.0368998999999999,10.1524,7.074818,-5.7621446,10.560815,-1
818,819,1583552454071,-1.6646999,-1.1133,9.807899,6.4830575,-6.2348843,9.641757,-1
819,820,1583552454081,-2.0801,-1.3686999,8.9537,6.0786866999999996,-6.671683,9.243917,-1
820,821,1583552454092,-2.4299998,-1.7792,8.4712,5.8044734,-7.3534837,8.9235735,-1
821,822,1583552454102,-2.4074,-2.4299998,8.0048,6.2154336,-8.398783,8.21963,-1
822,823,1583552454112,-1.7371999,-3.0765998,7.192199700000001,7.212169,-8.893233,7.3173127000000004,-1
823,824,1583552454122,-0.569,-3.3511,6.1457996,8.260914999999999,-9.302872,6.4179835,-1
824,825,1583552454132,0.60209996,-3.5928998,5.1281,9.168327,-9.543422,5.62896,-1
825,826,1583552454142,1.5747,-3.6590998,4.2778,9.681348,-9.799841,5.0573296999999995,-1
826,827,1583552454152,2.1095,-3.8165998,3.6316998,9.687726,-10.151042,4.7273510000000005,-1
827,828,1583552454163,2.1462998,-4.0161,3.2861998,9.285193,-10.569289999999999,4.391387,-1
828,829,1583552454173,1.7947999,-4.3729,2.8028,8.842236999999999,-11.164162,3.5911396,-1
829,830,1583552454183,1.5496999,-4.8931,1.8183999,9.028353,-11.892516,2.4120624,-1
830,831,1583552454193,1.9454999,-5.5323997,0.56619996,9.617488999999999,-12.886283,1.4569867,-1
831,832,1583552454203,2.7482998,-6.5049,-0.4139,10.624136,-14.006128,0.549996,-1
832,833,1583552454214,3.9352998999999995,-7.4126997,-1.4078,11.948177000000001,-14.288222,-0.2831862,-1
833,834,1583552454223,5.3802,-7.4185,-2.2498,12.837767,-13.965779999999999,-0.895192,-1
834,835,1583552454233,6.1299,-7.0007997,-2.8901,12.351266,-13.594535999999998,-1.2694633,-1
835,836,1583552454243,5.45,-6.557699700000001,-3.2482998,11.278701,-13.196007,-1.2829952,-1
836,837,1583552454253,4.0983,-5.9983,-3.1334999,9.777307,-12.504484,-0.73911875,-1
837,838,1583552454263,2.9951,-5.397599700000001,-2.6207,8.955377,-12.031046,-0.23721750000000003,-1
838,839,1583552454273,2.3004,-4.9451,-2.2972999,8.718553,-11.753098,-0.6426324000000001,-1
839,840,1583552454284,2.1921,-4.6776,-2.9055,8.950483,-11.455173,-1.782397,-1
840,841,1583552454294,2.5258,-4.3526,-4.2145,9.365159,-11.003608,-3.0271904,-1
841,842,1583552454304,2.9515998,-3.8725,-5.3729997,9.411434,-10.574011,-3.2883307999999998,-1
842,843,1583552454314,2.9341998,-3.5331,-5.4872,8.860452,-10.365734,-2.591302,-1
843,844,1583552454325,1.5644,-3.0295,-4.0955,7.874099,-10.009103999999999,-1.7856531000000002,-1
844,845,1583552454336,0.77269995,-2.7361,-3.5981998,7.124598,-9.718112,-1.3256408000000002,-1
845,846,1583552454346,0.22899999,-2.5219998,-3.6116998,6.655545,-9.520677000000001,-1.4447954,-1
846,847,1583552454356,0.22899999,-2.5219998,-3.6116998,6.711129,-9.419766000000001,-1.8687415,-1
847,848,1583552454366,0.71029997,-2.3507,-4.8567,7.308693400000001,-9.295498,-2.7260763999999997,-1
848,849,1583552454376,1.3334999,-2.0897,-5.8166,7.924836599999999,-9.065892999999999,-3.7222843,-1
849,850,1583552454387,1.7218,-1.8988999,-6.4413,8.262869,-8.838386999999999,-4.218746,-1
850,851,1583552454397,1.5697,-1.5949,-6.3415,7.9991045,-8.505459,-4.0061026,-1
851,852,1583552454407,0.8894,-1.2175,-5.4472,7.2766304,-8.107025,-3.0662830000000003,-1
852,853,1583552454417,-0.0681,-0.9209,-4.5014997,6.1985019999999995,-7.8261285,-2.111935,-1
853,854,1583552454428,-0.77529997,-0.8278,-3.8365998,5.7495317,-7.7511134,-1.5302875,-1
854,855,1583552454438,-0.8918,-0.84529996,-3.3223998999999997,5.8235893,-7.8050785000000005,-1.2418053999999998,-1
855,856,1583552454448,-0.45479998,-0.8354,-3.2493,6.4421263,-7.7119919999999995,-1.3197031000000001,-1
856,857,1583552454458,0.198,-0.6644,-3.6355998999999994,7.049908599999999,-7.5514655,-1.8064060000000002,-1
857,858,1583552454469,0.6666,-0.5814,-4.1747,7.443688000000001,-7.499511200000001,-2.352964,-1
858,859,1583552454479,1.0015,-0.5011,-4.4968,7.728482700000001,-7.3761716,-2.3564882000000003,-1
859,860,1583552454489,1.1206,-0.37449998,-3.9724,7.737523599999999,-7.3206929999999995,-1.8016655,-1
860,861,1583552454499,0.8785,-0.44689998,-3.0772,7.3890332999999995,-7.385834700000001,-0.7035697,-1
861,862,1583552454509,0.3872,-0.43359998,-1.9799999,6.8153057,-7.3633194,0.28907594,-1
862,863,1583552454519,-0.2583,-0.44009998,-1.1858,6.2486559999999995,-7.355293799999999,0.94073933,-1
863,864,1583552454529,-0.62009996,-0.4143,-0.7068,6.1040936,-7.320597,1.3329766,-1
864,865,1583552454540,-0.4877,-0.40179998,-0.4987,6.3828363,-7.341934700000001,1.3628274999999999,d
865,866,1583552454550,0.009000000000000001,-0.4332,-0.8709,7.1386285,-7.3711057,0.5549759,-1
866,867,1583552454560,0.7752,-0.4244,-1.7056999,7.851880599999999,-7.3142380000000005,-0.024947582000000003,-1
867,868,1583552454570,1.4088,-0.3496,-2.0414999,8.172922999999999,-7.3134913,-0.06099468,-1
868,869,1583552454580,1.5189999,-0.3893,-1.933,7.9502726,-7.283746000000001,0.42067079999999996,-1
869,870,1583552454590,1.0346,-0.3299,-1.2529,7.197277000000001,-7.178535000000001,1.2823057,-1
870,871,1583552454600,0.1673,-0.21859999,-0.2773,6.375395,-7.062023599999999,2.2786002,-1
871,872,1583552454611,-0.5833,-0.0801,0.6554,5.806906,-6.9360695,2.920227,-1
872,873,1583552454621,-1.0704,-0.036000000000000004,1.0419999,5.58392,-6.9557970000000005,2.8885565,-1
873,874,1583552454631,-1.1319,-0.0928,0.83709997,5.8475212999999995,-7.0220785,2.5512805,-1
874,875,1583552454641,-0.74829996,-0.1514,0.4675,6.3739204,-7.0885034,2.1877449,-1
875,876,1583552454651,0.018199998999999998,-0.2716,-0.1475,7.4184339999999995,-7.313721000000001,1.2238584,-1
876,877,1583552454661,0.9134,-0.46859998,-1.0143,8.030008,-7.5115685,0.6841862,-1
877,878,1583552454671,1.5925,-0.72819996,-1.615,8.538623,-7.790789599999999,0.35755965,-1
878,879,1583552454682,2.0088,-0.9464,-1.6843,8.586632,-7.9562,0.78626543,-1
879,880,1583552454692,1.79,-1.1148,-1.1488999,7.9327083,-8.262639,1.4939531000000001,-1
880,881,1583552454702,1.0713999,-1.4769,-0.3911,7.5775429999999995,-8.537158,1.8644988999999998,-1
881,882,1583552454712,0.7772,-1.7427,-0.1078,7.7917476,-8.626739500000001,1.6750792,-1
882,883,1583552454723,1.1414,-1.7895999,-0.3901,8.568599,-8.587561,0.8855960999999999,-1
883,884,1583552454733,1.9962,-1.7645998999999999,-1.3917999,9.659934,-8.502528,-0.44032243,-1
884,885,1583552454743,3.0898,-1.6897999,-2.6959999,10.525754,-8.497587,-1.4676361,-1
885,886,1583552454753,3.8732,-1.726,-3.6467,11.15428,-8.681969,-1.8669601999999998,-1
886,887,1583552454763,4.4210997,-1.9923999,-3.9510998999999996,11.424114999999999,-9.021448,-1.9298798,-1
887,888,1583552454773,4.6078997,-2.3625,-3.9039998,11.507375999999999,-9.465487,-1.4950927,-1
888,889,1583552454784,4.638099700000001,-2.8483999,-3.3989,11.506131,-9.856584,-0.89143795,-1
889,890,1583552454794,4.5478,-3.2331,-2.7868,11.5349,-9.996127,-0.46566266,-1
890,891,1583552454804,4.5662,-3.3776998999999996,-2.4868999,11.807819,-9.970566999999999,-0.44377008,-1
891,892,1583552454814,4.803499700000001,-3.4082,-2.5014,12.252634,-9.885419,-0.36086366,-1
892,893,1583552454824,5.22,-3.3716,-2.4684,12.823411,-9.725601,-0.45145068,-1
893,894,1583552454835,5.7527,-3.2684999,-2.6006,13.230282,-9.572688000000001,-0.48676035,-1
894,895,1583552454845,6.1106,-3.1697,-2.6575,13.401926999999999,-9.571176,-0.4221648,-1
895,896,1583552454855,6.2286997,-3.2349,-2.5973,13.327822,-9.814244,0.10109277,-1
896,897,1583552454865,6.0745,-3.5535997999999998,-2.059,13.2000675,-10.207545,1.1733408,-1
897,898,1583552454875,5.8557,-4.0285997,-0.9083,12.806047999999999,-10.496955999999999,2.3573310000000003,-1
898,899,1583552454885,5.4375,-4.3979,0.1959,12.5652685,-10.311808000000001,2.738373,-1
899,900,1583552454896,4.6493,-4.0025,0.8601,12.294034,-9.769847,2.617121,-1
900,901,1583552454906,4.3961,-3.7431,0.6191,12.144377,-9.419029,2.2086895,-1
901,902,1583552454916,4.3961,-3.7431,0.6191,12.211425,-9.156939999999999,1.4935893,-1
902,903,1583552454926,4.3977,-3.4341,0.037000000000000005,12.441709,-8.789458999999999,1.7889761999999998,-1
903,904,1583552454936,4.0625,-3.3116,1.3806,12.102622,-8.575514,3.161524,-1
904,905,1583552454947,3.2944,-3.5121,3.1281998,11.487418,-8.583269999999999,4.734754,-1
905,906,1583552454957,3.2944,-3.5121,3.1281998,11.131974000000001,-8.182395,5.853258,-1
906,907,1583552454967,2.2010999,-2.9378998,5.5051,10.635935,-7.442021400000001,6.558656699999999,-1
907,908,1583552454977,1.0824,-2.2696,6.0976,9.532485000000001,-6.52759,6.9082584,-1
908,909,1583552454987,-0.39909998,-1.7669,6.061,8.214525,-5.840482,6.6756473,-1
909,910,1583552454997,-1.5249,-1.4002999,5.7151,7.2096405,-5.098586599999999,6.188465,-1
910,911,1583552455008,-1.9613999,-1.035,5.5453997,7.155924300000001,-4.5644207,5.9947844,-1
911,912,1583552455018,-1.7597,-0.6987,5.1179,7.549655400000001,-3.9958174,5.267493,-1
912,913,1583552455028,-1.3922,-0.29569998,4.2625,7.930275999999999,-3.3963666,4.3863306,-1
913,914,1583552455038,-1.3211,-0.18329999,3.9115,8.066449,-3.2449572,3.9556236000000005,-1
914,915,1583552455048,-1.1251,-0.4526,3.3643,8.38165,-3.3148199999999997,3.2632585,-1
915,916,1583552455059,-0.991,-0.58629996,3.3191998,8.43008,-3.1558547000000003,3.34786,-1
916,917,1583552455069,-1.3505,-0.64379996,3.6199,7.8729205,-3.057357,3.4922209000000004,-1
917,918,1583552455079,-2.1742,-0.95519996,3.7624998,7.0621867,-3.299593,3.4119097999999997,-1
918,919,1583552455089,-2.9020998,-1.3443999,3.7024998999999994,6.6071925,-3.367253,3.2726822,-1
919,920,1583552455099,-3.0927,-1.3596,3.3221998,6.6000576,-3.0633717000000003,2.5441651000000003,-1
920,921,1583552455110,-2.9041997999999998,-1.0767,2.5286,7.005855599999999,-2.46733,1.5064892,-1
921,922,1583552455119,-2.4956,-0.7647,1.6283,7.264572599999999,-2.24896,0.96168375,-1
922,923,1583552455129,-2.1622999,-0.66279995,0.76489997,7.6629777,-1.9859042000000002,0.024602817000000003,-1
923,924,1583552455139,-1.9638,-0.5218,0.107,7.7297378,-1.7718433999999998,-0.48970044,-1
924,925,1583552455149,-2.1362997999999997,-0.6236,-0.1592,7.5138288,-1.8860946,-0.5259295,-1
925,926,1583552455159,-2.1894999,-1.0022,0.1541,7.674872,-2.1608627,-0.076805994,-1
926,927,1583552455169,-1.9570999,-1.2402999,0.5187,7.835456,-2.1856475,0.20619823,-1
927,928,1583552455179,-2.0475,-1.235,0.8702,7.4094796,-1.9380871,0.7772345,-1
928,929,1583552455190,-2.6076999,-1.1913999,1.2688999,6.873811,-1.7289106,0.94142884,-1
929,930,1583552455200,-3.0879998,-1.0449,1.2830000000000001,6.534207299999999,-1.3331681,0.9593183000000001,-1
930,931,1583552455210,-3.5956,-0.5221,1.3665999,5.843212,-0.51546204,1.0322936,-1
931,932,1583552455220,-4.2283,-0.0482,1.1862999,5.36758,-0.14115256,0.6760938,-1
932,933,1583552455230,-4.584,0.1661,0.7040000000000001,5.271917,0.2559689,0.20220469,-1
933,934,1583552455241,-4.408,0.3435,0.37849998,5.777371400000001,0.07437348,0.12685439,-1
934,935,1583552455251,-3.5834,-0.3594,0.5682,7.0379952999999995,-0.945384,0.21864808,-1
935,936,1583552455261,-2.1891,-1.2530999,0.3042,8.354787,-1.0026151,-0.8697655999999999,-1
936,937,1583552455271,-1.158,-0.93979996,-1.0956,8.733607000000001,-0.4348349,-2.0624323,-1
937,938,1583552455281,-1.4108,-0.28129998,-2.2851,7.414517,0.43480617,-2.5081658,-1
938,939,1583552455291,-2.7013,0.09559999400000001,-1.9319998999999999,6.053231200000001,0.7341772,-1.3401017,-1
939,940,1583552455302,-4.46,0.27179998,-0.19839999,4.118602,0.8961783999999999,1.0209450999999998,-1
940,941,1583552455312,-5.8929,0.19739999,1.6847999,3.4114212999999998,0.8649868000000001,1.8294287,-1
941,942,1583552455322,-6.374,0.0953,2.1855,3.593553,1.0664828000000002,1.3557119,-1
942,943,1583552455332,-6.0818,0.26909998,1.6114,4.097542,1.4098305,0.7288429,-1
943,944,1583552455342,-5.321000000000001,0.551,0.85789996,5.35332,1.3439229,-0.08809704,-1
944,945,1583552455352,-4.1507,0.32549998,0.2509,6.581976400000001,1.2054806,-0.58330417,-1
945,946,1583552455362,-3.0212998,0.2382,-0.2041,6.9294615,1.2817694,-0.8755883,-1
946,947,1583552455373,-2.863,0.2557,-0.4861,6.5284424,1.0647016000000002,-1.0160513,-1
947,948,1583552455383,-3.3214998,-0.003,-0.5904,6.1998050000000005,0.9478357,-0.8730216999999999,-1
948,949,1583552455393,-3.7103,-0.114199996,-0.2627,5.830264,1.0004507,0.06297708,-1
949,950,1583552455403,-3.9606,-0.1116,0.5948,5.673885,1.0543873,0.6760841999999999,-1
950,951,1583552455413,-4.0438,-0.0872,1.0738,5.994736,1.0652665000000001,0.70111805,-1
951,952,1583552455424,-3.7449,-0.1326,1.0648999,6.648822999999999,1.1236275,0.4018045,-1
952,953,1583552455434,-3.0841,-0.0968,0.78279996,7.3047,1.1960282,-0.06422207,-1
953,954,1583552455444,-2.4243,-0.0409,0.3707,7.746056599999999,1.0814226,-0.57230043,-1
954,955,1583552455454,-1.9809999999999999,-0.1655,-0.114199996,8.011085000000001,0.9445604,-0.8200523999999999,-1
955,956,1583552455464,-1.6462,-0.3382,-0.40489998,8.352392,0.97935295,-0.89563257,-1
956,957,1583552455474,-1.3701,-0.28,-0.4222,8.414010000000001,1.2492177,-0.67190874,-1
957,958,1583552455485,-1.3088,-0.0339,-0.204,8.168058,1.3830059,-0.25366089999999997,-1
958,959,1583552455495,-1.5496999,0.0762,0.23079999,7.8523016000000005,1.4326903,0.06258443,-1
959,960,1583552455506,-1.8241999,0.1219,0.85349995,7.9737163,1.5157979,0.38131970000000004,-1
960,961,1583552455516,-1.2135999,0.3471,0.9528,8.634468,1.7868023000000002,0.33505416,-1
961,962,1583552455526,-0.6349,0.574,0.3983,9.145267,1.9540994999999999,-0.28319573,-1
962,963,1583552455536,-0.39119998,0.58169997,-0.18689999,9.302488,1.9191346000000002,-0.8606868000000001,-1
963,964,1583552455546,-0.3737,0.5046,-0.7655,9.360092999999999,1.8149484,-1.4105201,-1
964,965,1583552455556,-0.20899999,0.331,-1.1343,9.553258,1.6267643,-1.7009366999999997,-1
965,966,1583552455567,0.08339999599999999,0.1366,-1.0171,9.855319,1.4320773999999998,-1.4775673,-1
966,967,1583552455577,0.3281,-0.0532,-0.6674,10.077636,1.2496296,-1.1667328000000001,-1
967,968,1583552455587,0.4172,-0.13159999,-0.5951,10.137058999999999,1.1644535,-1.1784549,-1
968,969,1583552455597,0.3793,-0.1554,-0.71739995,10.059603,1.1556333,-1.3233614,-1
969,970,1583552455607,0.1944,-0.1319,-0.8443,9.871428,1.2006538,-1.4542574,-1
970,971,1583552455617,0.1069,-0.1656,-0.8903,9.836146000000001,1.174739,-1.4774235,-1
971,972,1583552455628,0.28329998,-0.097799994,-0.78779995,10.034683,1.2534125,-1.3446506999999999,-1
972,973,1583552455638,0.47849998,0.0805,-0.7701,10.181889,1.4692641000000002,-1.489385,-1
973,974,1583552455648,0.4874,0.1893,-1.1257,10.181199000000001,1.5349802,-1.7179833999999998,-1
974,975,1583552455658,0.3892,0.2278,-1.1398,10.011949000000001,1.5162288000000002,-1.6440791000000001,-1
975,976,1583552455668,0.21319999,0.0499,-0.96809995,9.908221000000001,1.2728628999999998,-1.3643597,-1
976,977,1583552455678,0.2236,-0.1862,-0.5378,10.008980000000001,1.1052209,-0.9456713999999999,d
977,978,1583552455689,0.34149998,-0.27399999999999997,-0.2488,10.081399000000001,1.0030938,-0.85827345,-1
978,979,1583552455699,0.39999998,-0.3426,-0.47849998,10.129503999999999,1.0122494,-1.1237903999999999,-1
979,980,1583552455709,0.50769997,-0.1008,-0.98069996,10.219478,1.3763499,-1.7308642,-1
980,981,1583552455719,0.43949997,0.2139,-1.2107999,10.061009,1.6020083,-1.6798581999999997,-1
981,982,1583552455729,0.1373,0.3047,-0.88729995,9.705271,1.6922120999999999,-1.1040908999999999,-1
982,983,1583552455740,-0.30069998,0.3297,0.100499995,9.053118,1.7538676,0.28967926,-1
983,984,1583552455750,-0.8458,0.33299999999999996,1.1262,8.527198,1.7540209,1.1948215,-1
984,985,1583552455760,-1.3507,0.3029,1.9706,8.230136,1.7489834999999998,1.502716,-1
985,986,1583552455770,-1.4283,0.30719998,1.9125999,8.494571,1.7985435,1.0432974,-1
986,987,1583552455780,-1.0079,0.3811,1.3936,8.981235,1.8481226000000002,0.8634832,-1
987,988,1583552455790,-0.6378,0.40299999999999997,1.3603,8.989336999999999,1.8248508999999997,0.75941205,-1
988,989,1583552455801,-0.77739996,0.4129,1.2256,8.797006,1.8571535,0.8333736999999999,-1
989,990,1583552455811,-1.0337,0.4553,1.4544,8.526058,1.9399929,1.2328894,-1
990,991,1583552455821,-1.2788,0.58849996,1.8462,8.206873,2.1433566,1.7011281000000003,-1
991,992,1583552455832,-1.7184999,0.80219996,2.5003998,7.696046400000001,2.342391,2.4804409,-1
992,993,1583552455842,-2.559,1.0401,3.7222998,6.3308824999999995,2.5558102000000003,4.2291465,-1
993,994,1583552455852,-3.5368998,1.1034,4.9198,5.598333,2.6938217,5.1078567999999995,-1
994,995,1583552455862,-4.2225,1.2473999,5.7313,5.0937696,2.7501333,5.6159067,-1
995,996,1583552455872,-4.8427997000000005,1.2832,6.2883997,4.5080233,2.5821753,5.8836455,-1
996,997,1583552455882,-5.2313,1.1251,6.2994,4.5275793,2.430086,5.4258833,-1
997,998,1583552455892,-5.1714,1.0653,5.7589999999999995,4.7436986,2.4760353999999998,4.730722,-1
998,999,1583552455903,-4.8968997000000005,1.2142998999999999,5.1057,5.107608,2.654461,4.653992700000001,-1
999,1000,1583552455913,-4.5624,1.4826,5.2222,5.2465577,2.7626312,5.50201,-1
1000,1001,1583552455924,-4.5492,1.6157,6.2507,4.425548,2.6157708,7.0706716,-1
1001,1002,1583552455934,-5.3073997,1.5227,7.6211,3.3239756000000003,2.3364727000000003,7.7038899999999995,-1
1002,1003,1583552455944,-6.6903996,1.1923,8.404099,2.090751,1.6793601999999999,7.5350410000000005,-1
1003,1004,1583552455954,-7.6506,0.7,8.2761,2.14237,1.0553257,7.064742999999999,-1
1004,1005,1583552455964,-7.6011,0.1783,7.9192995999999996,3.1364522,0.26774836,6.2843485,-1
1005,1006,1583552455975,-6.6008997,-0.48819998,7.2555,4.553073,-0.81354016,4.7654575999999995,-1
1006,1007,1583552455985,-5.1886997,-1.3913,5.8368998,6.131589,-1.7541167000000002,2.9190009999999997,-1
1007,1008,1583552455995,-3.5974,-2.1603,4.0824,7.262676700000001,-2.0842099999999997,1.6858723000000002,-1
1008,1009,1583552456006,-1.3691,-2.1223,2.1239,8.387616,-2.0330603,0.7499023,-1
1009,1010,1583552456016,-1.5936999,-2.0593998,2.7588,7.935725,-2.226282,1.3695121000000001,-1
1010,1011,1583552456026,-2.3922,-2.5576,3.3386,7.155416499999999,-2.9295162999999995,1.6534644,-1
1011,1012,1583552456036,-2.3922,-2.5576,3.3386,7.1509732999999995,-3.4905355000000005,1.3179219,-1
1012,1013,1583552456047,-1.415,-3.6432998,1.8363999,8.484371000000001,-4.3059816,-0.5252399999999999,-1
1013,1014,1583552456057,0.0735,-3.8873,-0.5107,9.936588,-4.665408599999999,-2.988002,-1
1014,1015,1583552456067,1.4154999,-3.9101998999999994,-2.6079,11.19341,-4.857346499999999,-5.006678,-1
1015,1016,1583552456077,2.3278,-3.6404,-3.7069,11.961346,-4.6863722999999995,-5.787963400000001,-1
1016,1017,1583552456087,2.2522,-3.1718,-3.0586,11.370255,-4.5717664000000005,-4.9046373,-1
1017,1018,1583552456097,1.3051,-3.5574,-2.7903,10.548297,-5.4507356,-5.381773,-1
1018,1019,1583552456107,1.3297,-4.3835998,-4.1531997,11.225195,-6.308482,-7.1437907,-1
1019,1020,1583552456118,2.6924,-4.7834997,-5.817,12.786081,-6.700067999999999,-8.771359,-1
1020,1021,1583552456128,4.429199700000001,-4.8708,-7.4177,14.341957999999998,-6.795577499999999,-10.1829605,-1
1021,1022,1583552456138,5.5834,-4.6005,-8.2383995,15.027839000000002,-6.5688276,-10.541803,-1
1022,1023,1583552456148,5.4445996,-4.1816,-7.9873996,14.222813,-6.27775,-10.045841000000001,-1
1023,1024,1583552456158,3.8834998999999994,-3.8409,-7.1459,12.412375,-5.9907427,-9.001786,-1
1024,1025,1583552456169,2.1866,-3.4296,-6.0583,10.89943,-5.798278,-8.087824000000001,-1
1025,1026,1583552456179,1.1218,-3.6164,-6.0455,10.325483,-6.3091145,-8.749208,-1
1026,1027,1583552456189,1.6261,-4.1324997,-7.7482996,11.597686,-6.748114599999999,-10.8953705,-1
1027,1028,1583552456199,3.5667998999999995,-4.2156,-10.255,13.833324,-6.771961,-13.209625,-1
1028,1029,1583552456209,5.0768,-3.9912998999999996,-11.4581995,14.572098,-6.5056877,-13.466245,-1
1029,1030,1583552456219,5.071000000000001,-3.5156998999999995,-10.858299,13.246265,-5.979404,-11.698423,-1
1030,1031,1583552456230,3.0159,-3.2206,-8.7992,10.792131,-5.8727183,-9.559903,-1
1031,1032,1583552456240,0.8438,-3.1457,-7.0448,9.343468,-5.5958333,-8.835802000000001,-1
1032,1033,1583552456250,-0.2136,-2.7963,-7.0979,8.752589,-5.263978,-9.997401,-1
1033,1034,1583552456260,-0.48659998,-2.6029,-8.6299,9.071036,-5.187833,-11.22759,-1
1034,1035,1583552456270,0.1273,-2.5541,-9.5236,9.843454,-5.2116504,-11.887652000000001,-1
1035,1036,1583552456281,0.84889996,-2.5792,-10.3118,10.343678,-5.2104917,-12.528638,-1
1036,1037,1583552456291,1.0387,-2.4796,-10.815,10.111557000000001,-5.192286,-12.585868,-1
1037,1038,1583552456301,0.6861,-2.5802,-10.6291,9.762692,-5.3689113,-11.908252000000001,-1
1038,1039,1583552456311,0.3899,-2.6985997999999998,-9.6656,9.599695,-5.3449306,-10.837345,-1
1039,1040,1583552456321,-0.0844,-2.5895998,-8.371099000000001,8.512269,-5.1330247,-9.521022,-1
1040,1041,1583552456331,-1.3356999,-2.475,-7.5484995999999995,7.307305,-4.9925809999999995,-8.753173,-1
1041,1042,1583552456342,-2.2937,-2.363,-6.7286997,6.817049000000001,-4.888088,-7.929194,-1
1042,1043,1583552456352,-2.6427999,-2.3474,-6.1489997,6.761858,-5.0176625,-7.9770970000000005,-1
1043,1044,1583552456362,-2.5002,-2.5576,-6.593899700000001,7.3304806,-5.192755,-8.620600999999999,-1
1044,1045,1583552456372,-1.6786,-2.7296999,-7.3423996,8.12186,-5.368336,-8.831214,-1
1045,1046,1583552456382,-1.2377,-2.8939,-7.3827996,7.962961,-5.8611875,-8.464738,-1
1046,1047,1583552456392,-1.5029,-3.4552,-7.0564,7.6929817,-6.3438587,-7.8134103,-1
1047,1048,1583552456402,-1.8664,-3.9680998,-6.0213,7.281859,-6.657882000000001,-5.8546949999999995,-1
1048,1049,1583552456413,-2.2105,-4.1582,-4.3807,7.083073,-6.794505,-4.7363915,-1
1049,1050,1583552456423,-2.369,-4.3355,-3.4887,6.974711999999999,-6.817183,-4.085121,-1
1050,1051,1583552456433,-2.4886,-4.3184,-2.9025,6.977565299999999,-6.76134,-3.6147177000000004,-1
1051,1052,1583552456443,-2.4606,-4.3094997,-2.5835,7.0392213,-6.807318700000001,-3.7439568,-1
1052,1053,1583552456453,-2.4315999,-4.3944,-2.8381998999999998,7.0531745,-6.906697299999999,-3.6666529999999997,-1
1053,1054,1583552456464,-2.4006,-4.4743,-2.6771,7.179991,-6.8113985,-2.9901855,-1
1054,1055,1583552456474,-2.2989,-4.3914,-2.1411998,7.2814283,-6.657959,-2.1998117,-1
1055,1056,1583552456484,-2.1857998,-4.1738,-1.1899998999999999,7.483690299999999,-6.1828055,-0.6375376,-1
1056,1057,1583552456494,-2.0022,-3.7438998,0.0928,7.767910499999999,-5.879125,1.0539371000000002,-1
1057,1058,1583552456504,-1.7183,-3.4252,1.7102,7.917453,-5.871512,2.7257700000000002,-1
1058,1059,1583552456514,-1.5695,-3.4048,3.3248,7.8207073000000005,-6.097093,4.2800474,-1
1059,1060,1583552456524,-1.6636,-3.6051,4.8322,7.626365700000001,-6.374055,5.2074175,-1
1060,1061,1583552456534,-1.8334999,-3.9143,5.9178,8.300439,-6.7288559999999995,5.7157545,-1
1061,1062,1583552456545,-1.1658,-4.1486,6.178499700000001,9.721867,-6.631958,6.163547,-1
1062,1063,1583552456556,1.5547999,-3.7131,7.9154,11.111691,-6.4067115999999995,7.989011,-1
1063,1064,1583552456566,1.9354,-3.7228,9.9506,11.317344,-6.576633,10.107793,-1
1064,1065,1583552456576,1.9354,-3.7228,9.9506,11.200382000000001,-6.768954300000001,11.264077,-1
1065,1066,1583552456586,1.9067999,-3.9857998,12.347099,11.347482000000001,-6.849236500000001,12.204348,-1
1066,1067,1583552456597,2.4394,-3.6873998999999995,12.0034,11.945017,-6.5584940000000005,11.902544,-1
1067,1068,1583552456607,3.1952,-3.2615,11.6623,12.692477,-6.155684,11.588951,-1
1068,1069,1583552456617,3.8781998,-2.7807999,11.5639,13.344563,-5.6904907,11.63968,-1
1069,1070,1583552456627,3.8781998,-2.7807999,11.5639,13.538119,-5.244585,12.475189,-1
1070,1071,1583552456637,4.0051,-2.0867,12.969399000000001,13.279545,-5.083302,12.919686,-1
1071,1072,1583552456647,3.7350998,-2.103,12.243,13.099521000000001,-5.061438,11.916352999999999,-1
1072,1073,1583552456658,4.0326,-1.9563999,10.6493,13.506620999999999,-4.8452706,10.344101,-1
1073,1074,1583552456668,4.5927,-1.5429,9.2983,14.058895999999999,-4.258145,8.979971,-1
1074,1075,1583552456678,4.5302997000000005,-1.1551,8.748,13.664245000000001,-3.9009205999999996,8.853852999999999,-1
1075,1076,1583552456688,3.8149998,-0.9238,8.9986,12.955006,-3.6510332,9.205447,-1
1076,1077,1583552456698,3.2145,-0.7725,9.175799000000001,12.524787,-3.4362543,9.148455,-1
1077,1078,1583552456708,2.9868,-0.68149996,8.8225,12.450988,-3.2931097,8.536823,-1
1078,1079,1583552456719,3.0647,-0.6755,7.7465997,12.605269999999999,-3.2749808,7.1988187,-1
1079,1080,1583552456728,3.2615,-0.765,6.147599700000001,12.87256,-3.3140635,5.4854703,-1
1080,1081,1583552456738,3.5763998,-0.8556,4.535,13.2199,-3.3279883999999997,4.1318464,-1
1081,1082,1583552456748,3.9296,-0.99079996,3.7071998,13.566695999999999,-3.4109232000000005,3.6657333,-1
1082,1083,1583552456758,3.9296,-0.99079996,3.7071998,13.556535,-3.453004,3.683757,-1
1083,1084,1583552456768,3.6599998,-1.2145,3.5712,13.042873,-3.3598025000000002,3.562304,-1
1084,1085,1583552456778,3.1639,-1.1909999999999998,3.6320998999999996,12.621992,-3.2772217000000006,3.6243615,-1
1085,1086,1583552456789,2.8351998,-1.2994,3.5437999,12.348066000000001,-3.2596576,3.3495072999999995,-1
1086,1087,1583552456799,2.5475,-1.4461,3.1158,12.119095,-3.3391836,2.818119,-1
1087,1088,1583552456809,2.3895,-1.6391,2.583,12.096015,-3.3882072,2.2036617,-1
1088,1089,1583552456819,2.6064,-1.8076999,1.7364,12.493797,-3.4649843999999996,0.93353754,-1
1089,1090,1583552456829,3.2666,-1.9720999,0.0037,13.482181,-3.4370489999999996,-1.0971764,-1
1090,1091,1583552456840,4.1040998,-1.895,-1.1581,14.056932000000002,-3.14216,-1.4274423,-1
1091,1092,1583552456850,4.4119,-1.6460999,-0.7456,13.853464,-2.8973958,-0.5121102,-1
1092,1093,1583552456860,3.6604,-1.7919999,0.29979998,12.591787,-3.0208507,0.48522806,-1
1093,1094,1583552456870,2.3709,-2.0153,1.0433999,11.551373,-2.8380961,0.5359851999999999,-1
1094,1095,1583552456880,1.5554,-1.8685,0.8207,11.129514,-2.4806418,-0.014585477,-1
1095,1096,1583552456890,1.2638,-1.7425,0.3532,10.970232000000001,-2.3356493,-0.46067312,-1
1096,1097,1583552456900,1.0935999,-1.8994,-0.0968,10.8257475,-2.5942418999999997,-0.92885447,-1
1097,1098,1583552456911,1.0243,-2.3527,-0.2967,10.778916,-2.8654284,-1.3777865,-1
1098,1099,1583552456921,1.0064,-2.6948,-0.9195,10.7905035,-2.9127188,-2.4980047,-1
1099,1100,1583552456931,1.0201,-2.7839,-2.0561,10.773821,-2.788948,-3.4033290999999997,-1
1100,1101,1583552456941,0.87909997,-2.763,-2.5685,10.329535,-2.6192377000000002,-3.40829,-1
1101,1102,1583552456951,0.2899,-2.7839,-2.1789,9.169217999999999,-2.3701830000000004,-2.5864656000000004,-1
1102,1103,1583552456961,-0.83529997,-2.6891,-1.339,7.897139999999999,-2.0299191000000003,-1.7998459,-1
1103,1104,1583552456972,-2.0449998,-2.5014,-0.5484,7.159707000000001,-1.5720328000000001,-1.5838506,-1
1104,1105,1583552456981,-2.7805998,-2.0140000000000002,-0.4913,6.7442265,-0.89662856,-2.0513809,-1
1105,1106,1583552456991,-3.0433998,-1.5906999,-1.0713,6.564661500000001,-0.5806321999999999,-2.634752,-1
1106,1107,1583552457001,-3.3246,-1.6345999,-1.5663999,6.151164,-0.92438215,-2.9534395,-1
1107,1108,1583552457011,-3.5948,-2.3105,-1.4685,5.877276999999999,-1.3838198,-2.6947315,-1
1108,1109,1583552457021,-3.8920999,-2.7252998,-1.1776,5.3798385,-1.315499,-2.6413693,-1
1109,1110,1583552457032,-4.441,-2.6301,-1.0959999999999999,4.781623000000001,-0.8537244,-2.6224842,-1
1110,1111,1583552457042,-5.0453,-2.2194,-1.0483999,4.065728,-0.048267104000000005,-2.902414,-1
1111,1112,1583552457053,-5.5195,-1.7028999,-1.4168999,3.7975101,0.71341467,-3.2686217,-1
1112,1113,1583552457063,-5.7377,-1.0841,-1.6055,3.3402943999999994,1.3324115,-2.8923106,-1
1113,1114,1583552457073,-6.2388997,-0.6957,-1.1101999,2.5117955000000003,1.5811212,-2.3877661,-1
1114,1115,1583552457083,-7.0822997,-0.6347,-0.5965,1.7224175,1.6877971999999999,-2.0842483,-1
1115,1116,1583552457093,-7.7492,-0.67179996,-0.29839998,1.3996983,1.8916491000000002,-1.9638008999999998,-1
1116,1117,1583552457103,-7.9659,-0.53859997,-0.1749,1.2355038,2.2056057,-2.0017538,-1
1117,1118,1583552457113,-8.097000000000001,-0.3425,-0.2609,1.1710615,2.6157324,-2.5347988999999997,-1
1118,1119,1583552457123,-8.055099499999999,0.0224,-0.80579996,1.3900831,3.2994013,-2.9920914,-1
1119,1120,1583552457133,-7.8104997,0.6518,-1.2113,1.2337992,3.995396,-3.2267040000000002,-1
1120,1121,1583552457143,-8.0884,1.2674,-1.3808,0.45949520000000005,4.625138300000001,-3.1683908,-1
1121,1122,1583552457153,-8.8875,1.8081,-1.2516,-0.356171,5.2546215,-2.6906326000000003,-1
1122,1123,1583552457163,-9.6493,2.3469,-0.72069997,-1.0434601000000001,5.8070693,-2.2305722,-1
1123,1124,1583552457173,-10.2389,2.8232,-0.3051,-1.2442282,6.284741400000001,-2.02877,-1
1124,1125,1583552457183,-10.3454,3.2744,-0.16139999,-1.1006624,6.620485,-2.2005587,-1
1125,1126,1583552457193,-10.127399,3.5656998,-0.3811,-0.6750786999999999,6.8289723,-2.798046,-1
1126,1127,1583552457203,-9.7912,3.7535,-0.9296,-0.6800682,6.955634599999999,-3.4434652000000003,-1
1127,1128,1583552457214,-9.8838,3.8999998999999996,-1.7006999,-1.2461628999999999,6.667344,-3.7493007000000005,-1
1128,1129,1583552457224,-10.3933,3.6761,-1.8893,-1.3622911,6.2418466,-3.2891160000000004,-1
1129,1130,1583552457234,-10.5344,3.307,-1.4451,-1.1961431999999999,5.790664,-2.4565083999999997,-1
1130,1131,1583552457244,-10.412499,2.9779,-0.6562,-1.5336872,5.4892917,-1.6397983,-1
1131,1132,1583552457254,-10.7814,2.7547998,0.1445,-2.3020632,5.255943,-0.8766705,-1
1132,1133,1583552457265,-11.575299000000001,2.6021,0.88299996,-2.7933152000000003,4.9840480000000005,-0.41684008,-1
1133,1134,1583552457275,-12.0994,2.428,1.3129,-2.9357029999999997,4.6868606,-0.17015113,-1
1134,1135,1583552457285,-12.2851,2.2874,1.5148,-3.1250463,4.0833205999999995,-0.08136455,-1
1135,1136,1583552457295,-12.5376,0.88689995,0.9659,-2.906877,2.565502,-0.7971064,-1
1136,1137,1583552457305,-11.276299,-0.3425,0.1311,-1.4425448,1.2410872,-1.6213438999999998,-1
1137,1138,1583552457316,-9.8251,-0.6814,-0.9296,-0.045317452,0.76858664,-2.6406798,-1
1138,1139,1583552457326,-9.3288,-0.9384,-1.1227,0.26151386,0.12369404,-2.4342425,-1
1139,1140,1583552457336,-9.8833,-1.5932,0.3822,-0.45204443,-0.82378733,-0.6555995,-1
1140,1141,1583552457346,-11.0385,-2.4819999,2.6060000000000003,-1.5895966000000001,-2.058822,1.6152434,-1
1141,1142,1583552457356,-11.8737,-3.7649998999999994,4.3290997,-2.20098,-3.6368883000000003,3.1068695,-1
1142,1143,1583552457366,-11.3001995,-4.7764,4.0431,-1.3014976999999999,-4.8769794,2.3053386000000002,-1
1143,1144,1583552457377,-9.5018,-5.3996,1.6221,0.7271287,-5.804311,-0.16342820000000002,-1
1144,1145,1583552457386,-9.5018,-5.3996,1.6221,2.8954515,-6.4173029999999995,-1.4785344999999999,-1
1145,1146,1583552457396,-4.651,-6.1369,-0.5678,5.3232393,-7.361567,-1.7347811000000002,-1
1146,1147,1583552457406,-3.7239999999999998,-6.8682,-0.1347,5.9797387,-8.606026,-1.0220559999999999,-1
1147,1148,1583552457416,-3.6151998,-8.0711,1.2444,5.966753,-10.22395,0.43421245,-1
1148,1149,1583552457426,-3.3748,-9.2773,2.2962,6.265176,-11.765787,1.4926316000000002,-1
1149,1150,1583552457436,-2.1685,-10.282599000000001,3.6111,7.626106699999999,-13.124889000000001,2.960277,-1
1150,1151,1583552457446,0.0643,-10.8517,4.3374,9.832842999999999,-13.88139,3.5097466,-1
1151,1152,1583552457456,2.1682,-10.571199,3.8565998,11.62995,-13.976459,3.0077302,-1
1152,1153,1583552457466,3.2482,-10.6291,2.7082999,12.375974000000001,-14.483178,1.8246307000000002,-1
1153,1154,1583552457476,3.4764,-10.7768,1.3695998999999999,12.349149,-14.939492999999999,0.6605219,-1
1154,1155,1583552457486,3.4764,-10.7768,1.3695998999999999,12.223980000000001,-15.04207,0.77257055,-1
1155,1156,1583552457496,3.909,-10.497399,2.2635999,12.642994,-15.350051,1.8148623,-1
1156,1157,1583552457506,5.3002,-10.7174,1.6003,14.1044235,-15.8015785,0.8229446,-1
1157,1158,1583552457516,7.6798,-10.066299,-0.50699997,16.31093,-15.232879,-1.3062669,-1
1158,1159,1583552457526,9.433,-9.0342,-1.7967,17.6214,-14.533732999999998,-2.0506432,-1
1159,1160,1583552457536,9.649099,-8.5518,-0.5931,17.298948,-14.472211999999999,-0.49032295,-1
1160,1161,1583552457546,8.373799,-8.569799,1.0885999,15.74969,-14.672770000000002,1.0947056999999998,-1
1161,1162,1583552457557,7.0337996,-8.1848,1.8535,14.331557,-14.356457,1.7174375,-1
1162,1163,1583552457567,7.0337996,-8.1848,1.8535,13.862379999999998,-13.841033,1.9560244999999998,-1
1163,1164,1583552457577,6.7546,-7.0025,1.9571999,14.047806,-13.685792999999999,1.7450474999999999,-1
1164,1165,1583552457587,7.6397996,-6.6962,0.4675,14.857438,-13.484585000000001,0.07849151,-1
1165,1166,1583552457597,8.7465,-6.1301,-1.3181,15.875109,-13.033047999999999,-1.5837549,-1
1166,1167,1583552457607,9.4537,-5.4318,-2.0246,16.089676,-12.407079,-1.7538676,-1
1167,1168,1583552457618,8.9777,-4.5469,-1.2961,15.268992,-11.713335,-0.90785253,-1
1168,1169,1583552457629,7.4286,-3.8042998,-0.36659998,13.147585999999999,-11.030403,0.10345824,-1
1169,1170,1583552457639,5.7702,-3.3686,0.2608,11.60122,-10.775400999999999,0.6863314,-1
1170,1171,1583552457649,5.0164,-3.267,0.7019,11.357997,-10.91868,1.1859343,-1
1171,1172,1583552457659,5.6056,-3.2201,1.0333999,11.978411,-10.809476,1.4233434,-1
1172,1173,1583552457669,6.099,-2.9594998,0.96699995,12.0416565,-10.510143,1.2296907,-1
1173,1174,1583552457679,5.9340997,-2.5340998,0.52279997,11.669339,-10.149165,0.7518368000000001,-1
1174,1175,1583552457690,5.5971,-1.9949,-0.3455,11.354415,-9.703469,-0.22659683,-1
1175,1176,1583552457700,5.5594997,-1.5155,-1.4169999,11.312986,-9.286706,-1.0192596,-1
1176,1177,1583552457710,5.4790998,-1.1525999,-1.5394,10.943887,-8.928371,-0.51739657,-1
1177,1178,1583552457720,4.933799700000001,-0.78889996,-0.8099,9.988782,-8.532925,0.15901329999999997,-1
1178,1179,1583552457730,3.8790998,-0.42200000000000004,-0.4023,8.952322,-8.332127999999999,0.24905445,-1
1179,1180,1583552457740,3.0881,-0.28239998,-0.4156,8.49865,-8.385644000000001,0.29684272,-1
1180,1181,1583552457751,2.852,-0.3752,-0.2708,8.445701,-8.562814999999999,0.6641132,-1
1181,1182,1583552457761,3.0023,-0.5815,0.1087,8.652549,-8.892275999999999,1.0412958,-1
1182,1183,1583552457771,3.2554998,-0.89839995,0.39769998,8.90417,-9.135603999999999,1.164894,-1
1183,1184,1583552457781,3.5523,-1.0127,0.2065,8.969196,-9.052381,0.5283142,-1
1184,1185,1583552457791,3.4752,-0.8319,-0.6024,8.558428999999999,-8.802321000000001,0.03439989,-1
1185,1186,1583552457801,3.0591,-0.612,-0.8732,7.970517599999999,-8.541314,0.37585136,-1
1186,1187,1583552457812,2.4517,-0.34039998,-0.4815,7.4460726,-8.362085,0.7399806999999999,-1
1187,1188,1583552457822,1.7936,-0.1811,-0.0324,6.871905,-8.244779,1.3622911,-1
1188,1189,1583552457832,1.3957,-0.0814,0.525,6.6891603,-8.22528,1.8395418000000001,-1
1189,1190,1583552457842,1.2551999,-0.1069,1.0301,6.673138000000001,-8.38754,2.2187354999999997,-1
1190,1191,1583552457852,1.2387999,-0.3057,1.3302,6.676528500000001,-8.697158,2.0597892,-1
1191,1192,1583552457862,1.2788,-0.6293,1.0807999,6.8717704,-8.801746000000001,1.5352579,-1
1192,1193,1583552457873,1.4901999,-0.6775,0.4671,7.157073,-8.797399,0.8351646,-1
1193,1194,1583552457883,1.7616999,-0.66789997,-0.24069999,7.249556500000001,-8.755921,0.55849063,-1
1194,1195,1583552457893,1.8029,-0.5936,-0.4624,7.069589,-8.639688,0.5048604999999999,-1
1195,1196,1583552457903,1.5991,-0.50519997,-0.5866,6.937860499999999,-8.55003,0.27365726,-1
1196,1197,1583552457913,1.472,-0.43199998,-0.80939996,6.8198357000000005,-8.48146,0.45995486,-1
1197,1198,1583552457923,1.2951,-0.4118,-0.5164,6.544626999999999,-8.52195,1.0361147,-1
1198,1199,1583552457933,0.9436,-0.4926,0.1498,6.1475344000000005,-8.553333,1.9330976000000002,d
1199,1200,1583552457944,0.58019996,-0.5255,0.93909997,6.031396400000001,-8.518828,2.1812997000000003,-1
1200,1201,1583552457954,0.42659998,-0.4692,1.2074,6.0673285,-8.402842999999999,1.9113103999999999,-1
1201,1202,1583552457964,0.4477,-0.4103,0.9435,6.1372485,-8.486822,1.7351258999999999,-1
1202,1203,1583552457974,0.52739996,-0.5614,0.7168,6.369946,-8.657099,1.6390226000000003,-1
1203,1204,1583552457985,0.71529996,-0.6879,0.6141,6.6533237000000005,-8.694706,1.2695014,-1
1204,1205,1583552457995,0.9801,-0.7412,0.18699999,7.1093807,-8.798662,0.6576201999999999,-1
1205,1206,1583552458005,1.4307,-0.8646,-0.4795,7.660986,-8.914954,0.21392672,-1
1206,1207,1583552458015,1.9617,-1.0016999,-0.9651,7.9838586,-8.817452000000001,0.22140619,-1
1207,1208,1583552458026,2.0513,-0.97139996,-0.34989998,7.7426759999999994,-8.855031,1.0155438,-1
1208,1209,1583552458036,1.5259999,-1.1955,0.6482,7.259536,-9.054086,2.0420816000000004,-1
1209,1210,1583552458046,1.0989,-1.3226,1.5640999,6.960767999999999,-9.107869,2.8260389999999997,-1
1210,1211,1583552458056,1.1611999,-1.476,1.714,7.1954093,-9.249386,2.842147,-1
1211,1212,1583552458066,1.8822,-1.6739,1.2207,8.047744999999999,-9.397367,2.2530205000000003,-1
1212,1213,1583552458076,2.8948998,-1.6829,0.1125,9.088878,-9.339167999999999,1.1142039,-1
1213,1214,1583552458087,3.8665998,-1.6644,-1.2903999,10.083295,-9.313569000000001,-0.2692615,-1
1214,1215,1583552458096,3.8665998,-1.6644,-1.2903999,10.811621,-9.320033,-1.0270168,-1
1215,1216,1583552458106,5.2623997000000005,-1.7558999,-2.1792,11.405364,-9.370235000000001,-0.71729326,-1
1216,1217,1583552458116,5.1902,-2.1835,-1.2349,11.346639,-9.799602,0.32073686,-1
1217,1218,1583552458126,4.9108996,-2.6782,-0.0241,11.158138000000001,-10.200735,1.4450444,-1
1218,1219,1583552458136,4.7543,-3.013,0.6712,11.135997,-10.429555,1.9564457999999998,-1
1219,1220,1583552458146,4.7543,-3.013,0.6712,11.281172,-10.475006,1.8611566000000002,-1
1220,1221,1583552458157,5.1457996,-3.0602,0.0909,11.774894999999999,-10.24455,1.2578177,-1
1221,1222,1583552458167,5.5758,-2.9095,-0.2076,12.283969,-10.0198965,1.0439006,-1
1222,1223,1583552458178,5.836,-2.892,-0.1662,12.599314999999999,-9.971592,1.1426566999999999,-1
1223,1224,1583552458188,5.8454,-3.0786,-0.0569,12.662502,-10.068777,1.307033,-1
1224,1225,1583552458198,5.749399700000001,-3.2747,0.0964,12.595685000000001,-10.183162,1.3994396,-1
1225,1226,1583552458208,5.5857997,-3.4812,0.1331,12.594899,-10.211021,1.4987128,-1
1226,1227,1583552458218,5.3629999999999995,-3.6306,0.2277,12.365735,-10.242806,1.5060200000000001,-1
1227,1228,1583552458228,4.7764,-3.7343,0.40199998,11.854545,-10.14114,1.9031508999999998,-1
1228,1229,1583552458238,4.0527997000000004,-3.7536,1.1169,11.275905,-9.94853,2.5104642000000004,-1
1229,1230,1583552458248,3.3748,-3.5874,1.5554,10.745158,-9.516502000000001,2.7911987000000003,-1
1230,1231,1583552458258,2.7096,-3.2568998,1.8779999,10.330377,-9.003616000000001,3.0028078999999996,-1
1231,1232,1583552458268,2.7096,-3.2568998,1.8779999,10.033419,-8.651055,2.9521081000000002,-1
1232,1233,1583552458278,1.9425999,-2.9194,1.9402,9.958327,-8.484542999999999,2.879698,-1
1233,1234,1583552458289,1.9399998999999999,-3.1668,1.9937999,10.215225,-8.717672,2.8295348,-1
1234,1235,1583552458299,2.1843,-3.7536,1.7639999,10.655414,-9.100848,2.273888,-1
1235,1236,1583552458309,2.5939,-4.0101,1.1481999,11.15881,-8.923094,1.5579549,-1
1236,1237,1583552458319,2.7343,-3.8163,0.6662,11.091427000000001,-8.362458,1.331023,-1
1237,1238,1583552458329,2.1539,-3.5684998,1.1048,10.301694,-7.8857436000000005,2.1360877,-1
1238,1239,1583552458340,0.95419997,-3.3639,2.2359999999999998,8.889192999999999,-7.337787599999999,3.3371341,-1
1239,1240,1583552458350,-0.593,-3.0646,3.5635998,7.772958,-6.724795299999999,4.3477745,-1
1240,1241,1583552458360,-1.6569999999999998,-2.7050998,4.263499700000001,6.9402065,-6.1179132,4.126665,-1
1241,1242,1583552458370,-2.4203,-2.3913999,3.7559,6.5939283,-5.5283365,3.0885777,-1
1242,1243,1583552458381,-2.7252998,-2.0286999,2.574,6.7059484,-4.9060736,1.7287860000000002,-1
1243,1244,1583552458391,-2.3674,-1.6639999,1.4821,7.4711924,-4.421841000000001,0.91945964,-1
1244,1245,1583552458401,-1.5652,-1.4569,1.036,8.391112,-4.0633817,0.5209496,-1
1245,1246,1583552458411,-0.7543,-1.3668,0.7863,8.997247,-3.832619,0.32089007,-1
1246,1247,1583552458422,-0.4982,-1.2486,0.8727,8.644764,-3.2159204,0.56936985,-1
1247,1248,1583552458432,-1.0541999,-0.86509997,1.1294999,7.856266499999999,-2.6923182,0.38923976,-1
1248,1249,1583552458442,-1.9116,-0.6084,0.9151,6.882573,-2.264637,-0.12333011599999999,-1
1249,1250,1583552458452,-2.9801,-0.3848,0.41619998,5.8872747,-1.8208191000000002,-1.0004603,-1
1250,1251,1583552458462,-3.9146,-0.16659999,-0.42100000000000004,5.582579,-1.5735747,-1.5026585,-1
1251,1252,1583552458472,-3.9782998999999997,-0.08249999599999999,-0.66099995,6.3072658,-1.1530571000000003,-1.2094166000000002,-1
1252,1253,1583552458483,-3.2201998,0.1157,-0.2219,6.9095035000000005,-0.81195045,-0.9717203000000001,-1
1253,1254,1583552458493,-2.7698998,0.2463,0.0655,6.985993400000001,-0.78869796,-0.77173746,-1
1254,1255,1583552458503,-2.698,0.0191,0.4093,7.3059735,-1.0774195,-0.36570954,-1
1255,1256,1583552458513,-2.3686,-0.449,0.81909996,7.396944,-1.4130578,-0.31889809999999996,-1
1256,1257,1583552458523,-2.3625,-0.9766,0.9106,6.961802499999999,-1.6945201,-0.43198103,-1
1257,1258,1583552458533,-2.9254,-1.3435999,0.7629,5.7481623,-1.3977062,-0.9587437,-1
1258,1259,1583552458544,-3.9878,-1.217,0.30249998,4.9744425,-0.8945791,-1.1593204,-1
1259,1260,1583552458554,-4.9504,-0.7576,0.0953,4.168334,-0.10920433,-1.1642523999999999,-1
1260,1261,1583552458564,-5.685,-0.14389999,0.0792,3.5828078000000003,0.5635472,-1.0650463,-1
1261,1262,1583552458574,-6.2700996,0.2909,0.2597,3.004771,0.80883795,-0.41693586,-1
1262,1263,1583552458584,-6.7254,0.33519998,0.83889997,2.8274276,0.8751860999999999,0.23215137,-1
1263,1264,1583552458595,-6.8854,0.2875,1.4747,2.9887586,0.93505067,0.74282503,-1
1264,1265,1583552458605,-6.7216997,0.26749998,1.9979999,3.4334002,0.658846,0.7728579000000001,-1
1265,1266,1583552458615,-6.2750998,-0.0591,2.0405,4.118323999999999,-0.19001342,0.22010374,-1
1266,1267,1583552458625,-5.5861998,-0.9167,1.4807,5.096221,-0.49596369999999995,-0.8199662,-1
1267,1268,1583552458635,-4.0597997,-0.7998,-0.4759,5.641132,0.129737,-1.8260001000000001,-1
1268,1269,1583552458645,-4.5529,-0.37809998,-1.0325999,4.9608145,0.51599836,-2.2686977,-1
1269,1270,1583552458656,-5.6313996,-0.32819998,-1.1524999,3.846515,0.596003,-2.1988060000000003,-1
1270,1271,1583552458666,-6.5684,-0.4445,-0.5827,3.0938833,0.5702414000000001,-1.4809478999999999,-1
1271,1272,1583552458676,-6.5684,-0.4445,-0.5827,3.5048334999999997,0.76288843,-0.5703372,-1
1272,1273,1583552458686,-4.9825,0.1215,1.6077,4.908238,1.3432429,0.64816785,-1
1273,1274,1583552458696,-4.2675,0.38099998,1.9636999,5.5158005,1.5596501,0.7822336,-1
1274,1275,1583552458706,-4.0438,0.19849999,1.5428,5.657805000000001,1.3225284,0.12892297,-1
1275,1276,1583552458717,-3.8221,-0.09219999599999999,0.6629,5.9946694,1.084602,-0.81840515,-1
1276,1277,1583552458727,-3.2989,-0.2554,-0.19899999999999998,6.4837856,0.9762501,-1.5195998,-1
1277,1278,1583552458737,-2.7879999,-0.4416,-0.58379996,6.9803429999999995,0.7764396,-1.7925292000000002,-1
1278,1279,1583552458747,-2.2486,-0.6375,-0.5446,7.515016,0.6115749,-1.7355376,-1
1279,1280,1583552458757,-2.2486,-0.6375,-0.5446,7.854341499999999,0.715761,-1.8589061000000002,-1
1280,1281,1583552458768,-1.6092,-0.39339998,-0.6202,8.113959,0.97830915,-1.7088183000000001,-1
1281,1282,1583552458778,-1.3702999,-0.13239999,-0.0587,8.318109,1.2956079,-0.9975202,-1
1282,1283,1583552458788,-1.3664,0.0501,0.46719998,8.228411,1.4349887,-0.63029754,-1
1283,1284,1583552458798,-1.4512,0.049799997,0.5409,8.215273,1.4042663999999998,-0.7516644,-1
1284,1285,1583552458808,-1.3605,-0.0021,0.18339999,8.328949,1.3874686,-1.1186285,-1
1285,1286,1583552458818,-1.153,-0.066599995,-0.4869,8.596994,1.2705933,-2.032342,-1
1286,1287,1583552458828,-0.75009996,-0.2539,-1.2169,9.028995,1.1169622,-2.4826436000000003,-1
1287,1288,1583552458839,0.1721,-0.12629999,-1.3208,10.201397,1.4253545,-2.546425,-1
1288,1289,1583552458849,0.93759996,0.2914,-1.3507,10.629317,1.8279252000000001,-2.5345308999999996,-1
1289,1290,1583552458859,0.7333,0.541,-1.208,10.038802,1.9640787,-2.2763114,-1
1290,1291,1583552458869,-0.1653,0.48459998,-0.81909996,9.115644999999999,1.8681093,-1.8565884999999998,-1
1291,1292,1583552458879,-0.8767,0.3475,-0.31829998,8.659971,1.8078808999999998,-1.2874581,-1
1292,1293,1583552458889,-1.0390999,0.3349,0.1595,8.652989,1.8371859,-0.9858365,-1
1293,1294,1583552458900,-0.7324,0.3732,0.2465,9.060741,1.9044342,-1.0255036,-1
1294,1295,1583552458909,-0.3394,0.5208,-0.011899999,9.357047999999999,2.047454,-1.3425534,-1
1295,1296,1583552458919,-0.066,0.67689997,-0.5692,9.649063,2.2194824,-1.9632741000000002,-1
1296,1297,1583552458929,0.1276,0.7693,-0.9149,9.815183,2.2307255,-2.251201,-1
1297,1298,1583552458939,0.2321,0.66819996,-1.0884,9.902122,2.017498,-2.3025517000000004,-1
1298,1299,1583552458949,0.2875,0.3897,-1.1166999,9.951001,1.6642479,-2.3644943,-1
1299,1300,1583552458959,0.32389998,0.1165,-1.1158999,9.997641,1.3328520000000001,-2.1414409,-1
1300,1301,1583552458970,0.4301,-0.2121,-0.8003,10.106489999999999,1.1260697,-1.7254341,-1
1301,1302,1583552458980,0.4592,-0.36249998,-0.4052,10.091914,1.0730237,-1.3908969999999998,-1
1302,1303,1583552458990,0.4303,-0.28489998,-0.1195,10.025815,1.2428589,-1.209206,-1
1303,1304,1583552459000,0.2839,-0.054199997,0.093499996,9.702071,1.5324903,-0.9395230999999999,-1
1304,1305,1583552459010,-0.1471,0.1565,0.2549,9.189942,1.7293414,-0.93135405,-1
1305,1306,1583552459021,-0.5986,0.28399998,0.16059999,8.940447,1.7617397000000001,-1.0305601,-1
1306,1307,1583552459031,-0.659,0.2552,0.0598,9.246914,1.686332,-1.1287128999999998,-1
1307,1308,1583552459041,-0.15179999,0.20879999,-0.0554,9.771513,1.6141133,-1.2033545,-1
1308,1309,1583552459051,0.5212,-0.0157,-0.1187,10.4936905,1.1880221000000002,-1.2575591999999998,-1
1309,1310,1583552459061,0.98859996,-0.3597,-0.1917,10.789039,0.8988311999999999,-1.3354282,-1
1310,1311,1583552459071,1.1826999,-0.547,-0.2479,10.785783,0.89590067,-1.3681043,-1
1311,1312,1583552459082,1.0547,-0.5223,-0.2681,10.344828,1.0138104,-1.2679884,-1
1312,1313,1583552459092,0.59499997,-0.3926,-0.1529,9.833178,1.2516983,-0.9604963,d
1313,1314,1583552459102,0.077599995,-0.1626,0.1582,9.312488,1.5193795,-0.6746573,-1
1314,1315,1583552459112,-0.4297,0.0764,0.4299,9.003386,1.7496921000000003,-0.46920609999999996,-1
1315,1316,1583552459122,-0.6634,0.2726,0.6031,8.922404,1.8904330000000003,-0.24967693,-1
1316,1317,1583552459132,-0.74149996,0.3906,0.8082,8.967166,1.8185397,-0.18340543,-1
1317,1318,1583552459143,-0.6246,0.2447,0.81219995,9.449119999999999,1.5736226,-0.3853228,-1
1318,1319,1583552459153,-0.07719999599999999,0.029199999,0.5755,10.048081,1.4113053,-0.7279044,-1
1319,1320,1583552459163,0.50909996,-0.105,0.2025,10.418685,1.3004729,-1.1644343000000001,-1
1320,1321,1583552459173,0.78249997,-0.1971,-0.2314,10.2689705,1.2726427,-1.4060190000000001,-1
1321,1322,1583552459184,0.3709,-0.204,-0.36679998,9.551725,1.3580104,-1.0332321,-1
