,Seq,Time,ACCx,ACCy,ACCz,ADGx,ADGy,ADGz,Keydown
0,1,1583552011061,0.1255,-0.54969996,0.3852,4.484407,-9.214478,1.5753368,-1
1,2,1583552011071,-0.2259,-0.4621,0.1161,10.475868,1.0432208,-1.0026438,-1
2,3,1583552011081,0.45139998,0.0359,-0.019,9.969265,0.60315686,0.12084015,-1
3,4,1583552011092,0.1173,-0.2977,0.73859996,9.809648,0.38150167,0.5183255,-1
4,5,1583552011102,-0.051999997,-0.45119998,0.8121,9.7294035,0.3316065,0.2410578,-1
5,6,1583552011112,-0.0078,-0.3502,0.3674,9.87725,0.53086156,-0.026642676,-1
6,7,1583552011122,0.1549,-0.1121,0.116799995,10.06148,0.6654444,-0.27023834,-1
7,8,1583552011132,0.37809998,0.0276,-0.2263,10.320762,0.8013968,-0.5989144000000001,-1
8,9,1583552011143,0.6221,0.17729999,-0.51989996,10.554991000000001,0.8942439,-0.76259154,-1
9,10,1583552011153,0.857,0.2601,-0.557,10.665094999999999,0.8911985,-0.53275776,-1
10,11,1583552011163,0.7884,0.1308,-0.25869998,10.457193,0.66955286,-0.1912201,-1
11,12,1583552011173,0.57269996,-0.0782,0.079799995,10.205504,0.51307744,0.11830229,-1
12,13,1583552011183,0.3469,-0.1776,0.2988,10.030039,0.47116932,0.27427974,-1
13,14,1583552011193,0.1698,-0.21329999,0.34849998,9.936406,0.44710281,0.33905727,-1
14,15,1583552011204,0.17889999,-0.2154,0.33399999999999996,10.038639,0.5035389,0.2876681,-1
15,16,1583552011214,0.2864,-0.0924,0.2965,10.119860000000001,0.63918483,0.5247706999999999,-1
16,17,1583552011224,0.32569999,-0.023,0.5767,10.072091,0.61592275,0.9191628000000001,-1
17,18,1583552011234,0.24769999,-0.0457,0.857,9.871542999999999,0.52818006,0.654613,-1
18,19,1583552011244,0.051999997,-0.1741,0.45929998,10.029848,0.3478392,0.48723918,-1
19,20,1583552011254,0.35639998,-0.33069998,0.3308,10.63988,0.35047280000000003,0.4497747,-1
20,21,1583552011265,0.9740000000000001,-0.3014,0.2268,11.156414999999999,0.4091212,0.30638119999999996,-1
21,22,1583552011275,1.4449999,-0.23079999,0.0947,11.363542,0.5829401999999999,0.44006383,-1
22,23,1583552011285,1.5837,-0.0267,0.3132,11.123978999999999,0.8038771,1.2162832000000001,-1
23,24,1583552011296,1.2135999,0.1312,1.1781,10.067761,0.81762946,2.7686357000000004,-1
24,25,1583552011306,0.2861,0.0875,2.4784,9.142431,0.8730121,4.033406299999999,-1
25,26,1583552011316,-0.8656,0.1232,4.0032,7.835341499999999,0.97049445,5.361853,-1
26,27,1583552011326,-1.9373,0.132,4.9384,7.5346675,0.94163954,5.4850205999999995,-1
27,28,1583552011336,-2.2807999,0.0663,4.8936,7.596514699999999,1.0991396999999998,5.3212566,-1
28,29,1583552011346,-2.1476,0.2007,4.5614,7.602672599999999,1.3193967,5.028398,-1
29,30,1583552011357,-2.1186,0.3965,3.9808998,7.5247173,1.3781503000000002,4.705267,-1
30,31,1583552011367,-2.1318,0.42389998,3.0809,7.3143725,1.4528781000000002,4.772238,-1
31,32,1583552011377,-2.3133,0.47200000000000003,3.1232998,6.852799,1.4371723,5.2286496,-1
32,33,1583552011387,-2.7663999,0.43969998,3.5424,6.015604,1.26139,5.8062167,-1
33,34,1583552011397,-3.5957,0.2262,4.1124997,4.6369843,1.1490539,6.4983997,-1
34,35,1583552011408,-6.312599700000001,-0.0716,4.8802,2.9489572,1.0094912,6.4499889999999995,-1
35,36,1583552011418,-6.312599700000001,-0.0716,4.8802,1.9664918999999998,1.0900034,6.0693589999999995,-1
36,37,1583552011428,-8.4595995,-0.0123,3.9155,1.1637161,1.1066958,5.496407,-1
37,38,1583552011438,-9.1149,-0.1304,2.8408,0.47709736,0.9511589,4.134164,-1
38,39,1583552011448,-8.939799,-0.2875,1.7250999,0.7065672,0.7893109,3.1995728,-1
39,40,1583552011458,-8.5139,-0.46789998,0.5991,1.1474355,0.5654626,2.005546,-1
40,41,1583552011469,-8.5044,-0.87649995,-0.0426,1.1716553,0.10957782,1.2697983999999998,-1
41,42,1583552011479,-8.752399,-1.508,-0.0648,0.8719969999999999,-0.7673416999999999,1.0505757,-1
42,43,1583552011489,-9.2556,-2.2735999,-0.4005,0.47106397,-1.4242436,0.62202317,-1
43,44,1583552011499,-9.687999999999999,-2.7972,-1.0281,-0.025244462999999998,-2.0990922000000003,-0.4487596,-1
44,45,1583552011509,-9.8719,-2.9550998,-1.3686,-0.16089036,-2.282833,-0.7076303,-1
45,46,1583552011520,-10.141,-2.8804998,-1.402,-0.47242388,-2.1659002,-0.9879913,-1
46,47,1583552011530,-10.2014,-2.3451998,-1.8098999,-0.25153485,-1.5084429,-1.4567663999999998,-1
47,48,1583552011540,-9.6317,-1.3557999,-2.0578,0.29542533,-0.87056047,-1.6596607,-1
48,49,1583552011550,-9.099299,-0.912,-2.4019,0.7749264,-0.73851544,-2.1360683,-1
49,50,1583552011560,-8.7316,-1.1923,-3.2549,1.2438165,-1.5184411,-3.4095923999999997,-1
50,51,1583552011570,-8.2626,-1.9997,-4.2885,1.8558223999999999,-2.680098,-4.425251,-1
51,52,1583552011581,-7.4641,-3.1483,-4.9772997000000005,2.606127,-4.2122245000000005,-5.102570500000001,-1
52,53,1583552011591,-6.795099700000001,-4.5252,-5.4293,3.125659,-5.438649,-5.512812,-1
53,54,1583552011601,-6.1184998,-5.0190997,-5.642299700000001,3.9119532,-5.847407,-5.792426,-1
54,55,1583552011611,-5.5522,-4.5243,-5.9656,4.2768296999999995,-5.622064599999999,-6.1059804,-1
55,56,1583552011621,-5.1445,-3.9931,-6.7225,4.7096725,-5.3390985,-7.17819,-1
56,57,1583552011631,-4.7475,-3.6525998,-8.1872,5.1365776,-5.4969144,-8.748825,-1
57,58,1583552011642,-3.9387,-4.0404,-9.6061,6.2196474,-6.50179,-9.580303,-1
58,59,1583552011652,-2.3051,-5.0839996,-9.6325,8.396753,-8.100935,-9.229705000000001,-1
59,60,1583552011662,-0.3466,-5.9832,-9.4727,9.799534,-8.84942,-9.506015,-1
60,61,1583552011672,1.2392,-6.2578998,-10.4634,11.168051,-9.299767999999998,-10.912092,-1
61,62,1583552011682,2.0207999,-6.2655997,-11.618,11.193774000000001,-9.617364,-11.359884,-1
62,63,1583552011692,1.8514999,-6.4196,-11.7155,10.877193,-10.180912,-10.714828500000001,-1
63,64,1583552011703,1.7236999,-6.7,-11.083099,10.7759,-10.7104225,-10.127243,-1
64,65,1583552011713,2.0309,-7.0926,-11.130999999999998,11.612480999999999,-11.605031,-10.652339999999999,-1
65,66,1583552011723,3.4863,-7.9186997,-11.9797,13.595273,-12.944308,-11.021678999999999,-1
66,67,1583552011733,5.831,-8.8059,-12.2463,15.880683,-13.356810999999999,-10.695397,-1
67,68,1583552011743,7.6057,-8.658199,-11.8866,16.390052999999998,-13.460212,-10.129753,-1
68,69,1583552011754,7.9178,-8.558499000000001,-11.403399,15.777014000000001,-13.562434,-9.964849000000001,-1
69,70,1583552011764,7.178499700000001,-8.432,-11.4451,15.063522,-13.608671,-9.770967,-1
70,71,1583552011774,6.8503,-8.3608,-11.0834,15.3441515,-13.557348000000001,-8.980095,-1
71,72,1583552011784,7.5520000000000005,-8.0618,-10.5507,16.2417,-13.420198999999998,-8.798902499999999,-1
72,73,1583552011794,8.860499,-7.8066998,-10.559299000000001,17.488657,-13.540560999999999,-8.998185000000001,-1
73,74,1583552011804,9.8674,-7.7960997,-10.726999000000001,17.862574,-13.720604999999999,-8.895551,-1
74,75,1583552011814,10.2438,-7.9458,-10.4319,17.9317,-14.061385999999999,-7.768313,-1
75,76,1583552011825,10.3784,-8.0532,-9.1268,17.974834,-14.042107999999999,-5.8988914,-1
76,77,1583552011835,10.4963,-7.9034996,-7.1500998,18.059023,-13.979102,-3.9167607,-1
77,78,1583552011845,10.6195,-7.7707996,-5.1521,17.996008,-14.028604500000002,-2.4926033,-1
78,79,1583552011855,10.555699,-7.7914,-3.8167,17.80315,-14.317097,-1.6135291999999999,-1
79,80,1583552011865,10.4158,-8.0802,-2.9645,17.830635,-14.72706,-1.0865175,-1
80,81,1583552011875,10.5633,-8.3997,-2.4064999,18.22857,-14.832702,-0.36416766,-1
81,82,1583552011886,10.9943,-8.4082,-1.5927999,18.450178,-14.676581,0.2423411,-1
82,83,1583552011896,11.123899,-8.248099,-1.0333999,18.335323000000002,-14.514454999999998,0.8548162,-1
83,84,1583552011906,10.975599,-8.052,-0.2504,17.960985,-14.242807999999998,2.3865976000000004,-1
84,85,1583552011916,10.5857,-7.8819,1.1851,17.148546,-14.472404000000001,4.041135,-1
85,86,1583552011926,9.7007,-8.1717,2.9375,16.185081,-14.464943,5.549348,-1
86,87,1583552011937,8.647699000000001,-8.2554,4.5474997,15.432641,-14.205382,5.991126,-1
87,88,1583552011947,7.6094,-8.0318,5.106,14.664217,-13.553068,6.089125599999999,-1
88,89,1583552011957,6.9048,-7.6045,5.2149,14.213323,-12.645206,6.3005238,-1
89,90,1583552011967,6.3289,-6.8638997,5.4549,13.484681,-11.910388000000001,6.48097,-1
90,91,1583552011977,5.468499700000001,-6.3023996,5.6735997000000005,12.598633999999999,-11.245834,6.7382029999999995,-1
91,92,1583552011990,3.3195,-5.3542,6.2756,11.447023,-10.395672,7.0442967,-1
92,93,1583552012000,2.2955,-5.1064997000000005,6.6303997,10.549638,-9.9030695,7.322723,-1
93,94,1583552012011,1.7067,-5.0175,6.7985997000000005,10.268500999999999,-9.493814,7.419133,-1
94,95,1583552012021,1.4578999,-4.692,7.0754,10.159536,-8.74418,7.705192599999999,-1
95,96,1583552012031,1.0885999,-4.0912,7.3662996,9.766016,-7.8710723,7.8384149999999995,-1
96,97,1583552012041,0.31469998,-3.4706,7.3219,9.011469,-6.9628844,7.5936995,-1
97,98,1583552012051,-0.63629997,-2.9150999,6.843,8.219122,-6.1856599999999995,7.029605999999999,-1
98,99,1583552012062,-1.3996998999999999,-2.5363998,6.1204996,7.71634,-5.5968394,6.1509433,-1
99,100,1583552012072,-1.5731,-2.4485,5.513,7.947006699999999,-5.104007,5.9594555,-1
100,101,1583552012082,-1.4323,-2.1008,5.5386996,7.790483500000001,-4.410435700000001,6.0943255,-1
101,102,1583552012092,-2.0382,-1.8497,5.7405996,6.765353,-4.2456190000000005,6.522543,-1
102,103,1583552012102,-3.2739,-2.0904999,6.3921,5.587041999999999,-4.2241664000000005,7.133811,-1
103,104,1583552012113,-4.4318,-2.2593,6.8532,4.7550282,-3.9134949999999997,7.29338,-1
104,105,1583552012123,-5.0889,-2.0258,6.8809,4.431312999999999,-3.0773153,6.992285300000001,-1
105,106,1583552012133,-5.3921,-1.3254,6.3292,4.094133,-2.1300447,6.080171,-1
106,107,1583552012143,-5.7839,-0.7546,5.3978996,3.6714795,-1.4783621,5.108326,-1
107,108,1583552012153,-6.3443,-0.392,4.0873,3.2050796000000004,-1.0911335,3.4565759,-1
108,109,1583552012164,-6.5747,-0.22739999,2.4784,3.3937711999999998,-0.5505515000000001,2.5956976000000003,-1
109,110,1583552012174,-6.3497996,0.069699995,2.1629,3.459679,-0.24430433,2.8945515,-1
110,111,1583552012184,-6.3682,0.1495,2.5226998,3.2693014,-0.12872186,3.1970065,-1
111,112,1583552012194,-6.7282,0.14379999,2.8764,2.6897802000000004,0.14357549,3.4130876000000003,-1
112,113,1583552012204,-7.242799799999999,0.1423,3.1331,2.179681,-0.039580945,3.5130312000000004,-1
113,114,1583552012214,-7.7244997,-0.2226,3.3088998999999997,1.7828375,-0.005257667,3.4456873,-1
114,115,1583552012225,-8.1343,-0.2411,3.2840998,1.3265697,0.5296069999999999,3.0802937000000004,-1
115,116,1583552012235,-8.5713,0.2104,2.8581,1.0004028,1.0124886999999998,1.9933261999999998,-1
116,117,1583552012245,-8.8018,0.5392,1.6775999,1.2585263999999998,1.355913,0.5260636,-1
117,118,1583552012256,-8.4133,0.8092,0.1902,2.1472352000000003,1.9226685000000001,-1.2512864,-1
118,119,1583552012266,-7.4112,1.3801,-1.6580000000000001,3.3389535,2.3754694,-3.0906942,-1
119,120,1583552012276,-6.2030997,1.7251999,-3.3212,4.648869,2.5086637,-3.8725254999999996,-1
120,121,1583552012286,-5.1421,1.7807,-3.8070998,5.2580595,2.2474467999999996,-3.6808267,-1
121,122,1583552012296,-4.5216,1.4965,-3.5614998,5.4982653,1.8712122,-3.2613432,-1
122,123,1583552012306,-4.282099700000001,1.0821999,-3.0765,5.5790834,1.7603223000000001,-2.62439,-1
123,124,1583552012317,-4.1977997,0.9095,-2.3789,5.4935055,1.9912575000000001,-2.0116084,-1
124,125,1583552012327,-4.2787,1.0783,-1.7182,4.921588,2.5014908,-1.5662388999999999,-1
125,126,1583552012337,-4.8489,1.5155,-1.2238,4.190283999999999,2.6617775000000004,-1.474359,-1
126,127,1583552012347,-5.9428997,1.3824999,-1.3719999999999999,3.8446279999999997,2.4298467999999995,-1.8601031000000003,-1
127,128,1583552012358,-5.3220997,1.0129,-1.8073,4.691285,2.0307044999999997,-2.3477063,-1
128,129,1583552012368,-5.3220997,1.0129,-1.8073,6.073295,1.6422691000000003,-2.6981409,-1
129,130,1583552012378,-1.9420998999999999,0.0818,-2.5049,8.061507,1.0219985,-3.0393145,-1
130,131,1583552012388,-1.0231,-0.4043,-2.7437,8.824394999999999,0.5491341,-3.2288396,-1
131,132,1583552012398,-0.6616,-0.5521,-2.4954,9.110234,0.48109087,-2.9205909,-1
132,133,1583552012409,-0.81799996,-0.3651,-2.1994,8.834652,0.69671273,-2.68141,-1
133,134,1583552012419,-1.4143,-0.18159999,-2.1778998,8.206998,0.8690281999999999,-2.7401927,-1
134,135,1583552012429,-1.9317,-0.1191,-2.1668,7.769682400000001,0.9278871999999999,-2.6726665,-1
135,136,1583552012439,-1.9792,-0.0885,-1.9106,7.830706,0.97747594,-2.3978312,-1
136,137,1583552012449,-1.4984,-0.06399999599999999,-1.5238,8.390805,0.98176634,-2.0185897,-1
137,138,1583552012459,-0.76379997,0.0028,-1.242,9.198858,1.0464098,-1.8079956999999998,-1
138,139,1583552012470,-0.3437,0.038399998,-1.2631999,9.462009,1.021989,-1.8694694,d
139,140,1583552012479,-0.1493,-0.24679999,-1.3810999,9.627411,0.633726,-2.0594254000000003,-1
140,141,1583552012489,0.074599996,-0.6885,-1.7249999,9.907647,0.1915074,-2.435966,-1
141,142,1583552012499,0.6024,-0.7777,-2.0338,10.460899000000001,0.15954961,-2.7374249,-1
142,143,1583552012509,1.0223,-0.60569996,-2.2028,10.834213,0.34792540000000005,-2.8701305,-1
143,144,1583552012519,1.0404999,-0.46179998,-2.1828,10.738491999999999,0.46023262,-2.8103907,-1
144,145,1583552012529,0.77489996,-0.3272,-2.0188,10.38802,0.5541045,-2.6048913,-1
145,146,1583552012540,0.4903,-0.2864,-1.7845,10.211241000000001,0.5615744,-2.276675,-1
146,147,1583552012550,0.46089998,-0.3346,-1.3804,10.327848,0.5297411,-1.8849646,-1
147,148,1583552012560,0.726,-0.3234,-1.0012,10.574739,0.5264754,-1.5377096000000001,-1
148,149,1583552012570,0.88339996,-0.32279998,-0.64019996,10.645512,0.5489809,-1.1822663999999998,-1
149,150,1583552012581,0.83489996,-0.31399998,-0.51699996,10.501887,0.5701648,-1.289201,-1
150,151,1583552012591,0.6684,-0.21759999,-0.7905,10.402711,0.7063566,-1.6281146,-1
151,152,1583552012601,0.66819996,-0.080299996,-1.1456,10.519135,0.8422514000000001,-1.9151218999999997,-1
152,153,1583552012612,0.8247,-0.039499998,-1.2678,10.608132000000001,0.7905367,-1.9423968,-1
153,154,1583552012622,0.8732,-0.096999995,-1.2534,10.633416,0.76453567,-1.8839303,-1
154,155,1583552012632,0.88299996,-0.0787,-1.1280999,10.597186,0.76490915,-1.7149092000000001,-1
155,156,1583552012642,0.7559999999999999,-0.1814,-0.8912,10.380579,0.59596467,-1.3804584,-1
156,157,1583552012652,0.5509,-0.3157,-0.59389997,10.244750999999999,0.5099170999999999,-1.1467843,-1
157,158,1583552012663,0.4437,-0.3906,-0.4062,10.247136,0.48963338,-1.0228700000000002,-1
158,159,1583552012673,0.5322,-0.39499998,-0.3989,10.318539999999999,0.55703497,-1.2128164,-1
159,160,1583552012683,0.57129997,-0.2708,-0.6791,10.328203,0.7050445,-1.5673689,-1
160,161,1583552012693,0.6103,-0.13759999,-0.9917,10.3772745,0.7983226,-1.7028233,-1
161,162,1583552012703,0.6202,-0.0758,-1.0979999,10.356214999999999,0.8368501,-1.7652929,-1
162,163,1583552012714,0.611,-0.0664,-1.1034,10.385894,0.8327511999999999,-1.6291202,-1
163,164,1583552012724,0.6123,-0.0906,-0.87799996,10.245287,0.88213885,-1.2643683000000001,-1
164,165,1583552012734,0.4576,-0.0501,-0.5873,10.026197999999999,0.92133665,-1.1539382,-1
165,166,1583552012744,0.15619999,-0.040999997,-0.4892,9.767845,0.8901546,-1.1172208000000001,-1
166,167,1583552012754,-0.027199998,-0.0927,-0.4017,9.700846,0.9292089,-0.9961124,-1
167,168,1583552012764,-0.0358,-0.0535,-0.3093,9.788072,0.98757946,-0.9289119,-1
168,169,1583552012775,0.1118,0.0277,-0.2914,9.961957,1.0586298,-1.1233785,-1
169,170,1583552012784,0.2392,0.0539,-0.51379997,9.946731,0.9793243,-1.3760339,-1
170,171,1583552012794,0.19929999,-0.0458,-0.7418,10.030412,0.8635693999999999,-1.43858,-1
171,172,1583552012804,0.3261,-0.166,-0.8052,10.272619,0.85417455,-1.3873729,-1
172,173,1583552012814,0.5711,-0.1717,-0.7399,10.367171,0.84718347,-1.2408572,-1
173,174,1583552012824,0.5521,-0.17359999,-0.51339996,10.06824,0.8696794,-0.8794860000000001,-1
174,175,1583552012834,0.2595,-0.15439999,-0.2078,9.842582,0.95315087,-0.60956377,-1
175,176,1583552012844,-0.0324,-0.0718,0.0865,9.411817999999998,1.0481049,-0.46033794,-1
176,177,1583552012854,-0.3834,-0.0378,0.1338,9.168692,1.1102488000000001,-0.42338103,-1
177,178,1583552012864,-0.578,0.0103,0.1695,9.179215,1.1781579,-0.25284684,-1
178,179,1583552012875,-0.5381,0.065799996,0.3423,9.261231,1.1567922,-0.039159562,-1
179,180,1583552012885,-0.45,0.0018999999,0.5351,9.48827,1.0652953,-0.07149086,-1
180,181,1583552012895,-0.19569999,-0.0758,0.4154,9.743482,1.0658507,-0.3860315,-1
181,182,1583552012905,0.058199997999999996,-0.051999997,0.053299997,9.989912,1.1088219,-0.7260177,-1
182,183,1583552012915,0.25329998,-0.018199998999999998,-0.2109,10.214363,1.0811449,-0.46444643,-1
183,184,1583552012926,0.47829998,-0.0462,0.044999998,10.199577,1.0580648000000001,-0.22542845,-1
184,185,1583552012936,0.4684,-0.069699995,0.27019998,9.900139,1.0589266000000002,-0.2899953,-1
185,186,1583552012946,0.15529999,-0.0796,0.1925,9.565745,1.0906354999999999,-0.43353248,-1
186,187,1583552012956,-0.177,-0.0637,0.0449,9.439886999999999,1.2000217,-0.27936503,-1
187,188,1583552012966,-0.30339998,0.04,0.1786,9.470083,1.2826697,-0.07935342,-1
188,189,1583552012977,-0.2732,0.0963,0.37109998,9.5869875,1.3781695,0.0031411927000000004,-1
189,190,1583552012987,-0.1449,0.1846,0.4299,9.641651,1.4778641000000001,-0.05384081,-1
190,191,1583552012997,-0.0953,0.28509998,0.38509998,9.675352,1.4128855,0.010275913000000001,-1
191,192,1583552013007,-0.0358,0.18159999,0.45279998,9.830161,1.2082386,0.23556072,d
192,193,1583552013017,0.092099994,0.011000000000000001,0.6494,9.880343,0.9978745000000001,0.40961918,-1
193,194,1583552013027,0.1414,-0.2078,0.82269996,9.931206,0.9137232,0.37119702,-1
194,195,1583552013037,0.034199997999999995,-0.1236,0.2995,9.741997,1.1667040000000002,-0.22413560000000002,-1
195,196,1583552013048,-0.1218,0.1004,-0.2548,9.596948,1.3738503,-0.73715556,-1
196,197,1583552013058,-0.1218,0.1004,-0.2548,9.654303,1.5107414,-0.92397994,-1
197,198,1583552013068,0.22369999,0.4804,-0.30699998,9.994624,1.7881526,-0.6025057,-1
198,199,1583552013078,0.382,0.6171,-0.0309,10.123528,1.8610418000000002,-0.3852941,-1
199,200,1583552013089,0.38369998,0.38009998,-0.015999998999999997,10.092442,1.6080511999999998,-0.39050388,-1
200,201,1583552013098,0.38369998,0.38009998,-0.015999998999999997,10.001414,1.3650396999999999,-0.31250079999999997,-1
201,202,1583552013108,0.2996,-0.2374,0.17889999,10.032767999999999,1.0260016,-0.2343732,-1
202,203,1583552013118,0.2823,-0.4231,-0.1503,9.986149000000001,0.90997857,-0.5958593000000001,-1
203,204,1583552013128,0.2823,-0.4231,-0.1503,9.856689,1.0304834999999999,-0.6587119,-1
204,205,1583552013138,-0.1621,-0.24409999,-0.1935,9.491802999999999,1.1449742,-0.52577627,-1
205,206,1583552013148,-0.49109998,-0.1916,0.0902,9.108357,1.2439889,-0.16604269,-1
206,207,1583552013158,-1.0352,-0.16,0.3628,8.556436999999999,1.2830143999999999,0.106628165,-1
207,208,1583552013168,-1.6479,-0.30269998,0.64519995,7.961238000000001,1.168131,0.44092575,-1
208,209,1583552013178,-1.6479,-0.30269998,0.64519995,7.715372599999999,1.0846403999999998,0.79964423,-1
209,210,1583552013188,-2.0721,-0.583,1.2529,7.633702,0.92024493,0.9377800999999999,-1
210,211,1583552013198,-2.0021,-0.6211,1.1251,7.7076344,0.9482954,0.7587704000000001,-1
211,212,1583552013209,-1.9231999,-0.4779,0.6674,7.7661869999999995,1.0832326,0.1932887,-1
212,213,1583552013219,-1.9326999,-0.2667,-0.0806,7.725064,1.3584412000000001,-0.49729487,-1
213,214,1583552013229,-2.2747,0.0066,-0.37039998,7.296962,1.6148412,-0.6281524,-1
214,215,1583552013239,-3.0268998,0.1823,-0.0311,6.4696693,1.8029871,-0.23112665,-1
215,216,1583552013249,-3.0268998,0.1823,-0.0311,5.114915,1.9978751000000001,0.41115147,-1
216,217,1583552013259,-5.3124,0.527,1.1649,4.0918345,2.2414707999999997,1.0915836,-1
217,218,1583552013269,-6.5731997,0.87509996,1.9035,2.5659330000000002,2.7115195,1.8086852999999998,-1
218,219,1583552013280,-7.7876,1.2681,2.1007,1.6081948,3.0761757000000003,1.7460626000000001,-1
219,220,1583552013290,-8.467199,1.7053,1.6501,1.1295365,3.4569782999999994,1.2789155,-1
220,221,1583552013300,-8.494599000000001,1.8765,1.3684,1.2749507,3.4292917000000003,1.0228030000000001,-1
221,222,1583552013310,-8.3095,1.6480999,1.0006,1.395063,3.0901291,0.68899375,-1
222,223,1583552013321,-8.3806,1.06,0.67249995,1.2983372,2.1883962,0.44211328,-1
223,224,1583552013331,-8.4418,0.3112,0.6451,1.2736100000000001,1.3770969,0.39121255,-1
224,225,1583552013341,-8.5022,-0.3362,0.4676,1.1876293,0.77247477,0.07755298,-1
225,226,1583552013351,-8.6693,-0.561,0.1838,0.8515504999999999,0.6619871999999999,-0.20528844,-1
226,227,1583552013361,-9.0121,-0.40199998,0.184,0.5731527,0.7880371,-0.007383718,-1
227,228,1583552013372,-9.2372,-0.0907,0.47779998,0.30036697,1.1654782,0.23673867,-1
228,229,1583552013382,-9.7275,0.3682,0.69119996,-0.43955627,1.2858108,0.43312067,-1
229,230,1583552013392,-10.4437,0.392,0.8308,-0.8573253000000001,1.0261166,0.37391683,-1
230,231,1583552013402,-10.6889,0.1458,0.5338,-0.61650693,0.44011173,-0.099340215,-1
231,232,1583552013412,-10.6889,0.1458,0.5338,0.28881735,-0.40292498,-0.43932644,-1
232,233,1583552013423,-9.174399000000001,-1.0124999,-0.104499996,1.0424641,-1.3289447,-0.6085103000000001,-1
233,234,1583552013433,-8.519199,-1.6935999,-0.019399998999999998,1.6810648000000001,-1.9244497,-0.28526434,-1
234,235,1583552013443,-7.8908,-1.81,0.4457,2.1613033,-1.9831173,0.38358942,-1
235,236,1583552013453,-7.5719,-1.5317999,1.1351,2.1586986,-1.8820723000000001,0.99428326,-1
236,237,1583552013463,-7.7081,-1.1624,1.4149,1.9392459,-1.7020668,0.982906,-1
237,238,1583552013474,-7.8557,-0.75479996,1.2619,1.8008131999999997,-1.9697863999999998,0.86278415,-1
238,239,1583552013484,-7.9726996,-1.1496998999999999,0.9729,1.9370720000000001,-3.5568163,0.49867392,-1
239,240,1583552013494,-7.6454997,-2.3209999,0.6915,2.780942,-4.9980397000000005,0.79587096,-1
240,241,1583552013504,-6.617999999999999,-3.4178,1.0181,4.0796432000000005,-6.094316,0.70531267,-1
241,242,1583552013514,-5.2139997000000005,-4.0143,0.8454,5.310205000000001,-6.396349,0.44179723,-1
242,243,1583552013524,-3.9824998,-3.8685,0.5653,5.912673000000001,-6.591381,0.38601235,-1
243,244,1583552013535,-3.3537998,-3.9608,0.5221,5.909273000000001,-7.6083803,0.57479995,-1
244,245,1583552013545,-3.4143,-4.585099700000001,0.7036,5.5642014,-8.766397999999999,1.2702677,-1
245,246,1583552013555,-3.6315,-5.4256997,1.4478999,5.352401,-10.414491,2.4482915000000003,-1
246,247,1583552013565,-3.5721,-6.7874,2.4952,6.282797,-11.773697,2.846907,-1
247,248,1583552013575,-2.1366,-7.5360000000000005,2.4622998,8.429353,-12.173099,1.7795526000000002,-1
248,249,1583552013585,0.3218,-7.4992,1.0971999,11.141877000000001,-12.625342999999999,-0.021911733,-1
249,250,1583552013596,2.7682,-7.521,-0.491,12.647342,-13.221767999999999,-0.15388972,-1
250,251,1583552013606,4.506,-7.7598,-0.69189996,12.893705,-14.065523,0.74223125,-1
251,252,1583552013616,4.8978,-8.526899,0.4114,12.148831,-15.464781,1.8730509999999998,-1
252,253,1583552013626,4.4516,-9.3906,1.344,11.434832,-15.976095999999998,2.1613226,-1
253,254,1583552013636,3.9685,-9.6264,1.6485,11.524969,-16.053114,1.7923951,-1
254,255,1583552013647,4.2792997,-9.4431,1.2586,12.2308655,-15.651357,1.4257951000000002,-1
255,256,1583552013657,5.2404,-8.788899,0.802,13.003734,-15.644489000000002,1.214253,-1
256,257,1583552013667,6.4954,-8.5594,0.37939999,14.67049,-15.516304000000002,0.43420285,-1
257,258,1583552013677,8.1846,-8.1988,-0.42319998,15.997922,-15.317192000000002,-0.03068409,-1
258,259,1583552013687,10.055099499999999,-7.737,-0.99899995,15.888862,-15.477575,-0.0025761612,-1
259,260,1583552013697,10.055099499999999,-7.737,-0.99899995,14.903341000000001,-15.545169,0.5220988,-1
260,261,1583552013708,9.0982,-7.6832,-0.4509,13.946484,-15.543809,1.4875367,-1
261,262,1583552013718,8.0807,-7.5527997000000004,0.73719996,12.445224000000001,-15.419731,2.1552892000000003,-1
262,263,1583552013728,6.5821,-7.1260996,1.2047,11.749057,-15.296037,2.159656,-1
263,264,1583552013738,6.2783,-6.5790997,0.5808,11.369508999999999,-14.766898999999999,1.5050622,-1
264,265,1583552013748,6.2783,-6.5790997,0.5808,11.435914,-14.421933,0.69352365,-1
265,266,1583552013758,7.0706,-5.7668,-1.4151,12.048772999999999,-14.1353,-0.35289577,-1
266,267,1583552013769,8.0588,-5.178999999999999,-1.8249999,12.852975,-13.605281,-0.50001466,-1
267,268,1583552013779,8.3361,-4.5555997,-1.4897,12.778592,-13.043878999999999,-0.1665694,-1
268,269,1583552013789,7.3194,-4.0175,-1.2972,11.527764999999999,-12.517318,-0.0046255975,-1
269,270,1583552013799,5.8033,-3.3460998999999996,-0.8375,9.961738,-11.919496,0.48751694,-1
270,271,1583552013809,4.3448,-3.0644999,-0.43539998,8.375847,-11.699563000000001,0.7331045,-1
271,272,1583552013819,3.5688,-2.9799,-0.47259998,7.9370084,-11.642839,0.6538661,-1
272,273,1583552013830,3.5688,-2.9799,-0.47259998,8.159880000000001,-11.244799,0.36436877,-1
273,274,1583552013840,3.7273,-2.6243,-0.7626,8.364977,-10.928391,0.17811903,-1
274,275,1583552013850,3.9784,-1.8061,-1.2073,8.137375,-10.449963,0.10282617,-1
275,276,1583552013860,3.7770998,-1.6549,-1.2184,7.9372,-10.381325,0.13749422,-1
276,277,1583552013870,3.7022,-1.5468,-1.0991,7.9222410000000005,-10.277158,0.46270344,-1
277,278,1583552013881,3.6811998,-1.4038999,-0.70669997,7.7406454,-10.070836,0.73863035,-1
278,279,1583552013890,3.1922998,-1.1686,-0.5746,7.0748277,-9.876828999999999,0.94245356,-1
279,280,1583552013900,2.4145,-0.9388,-0.2375,6.326783,-9.589554,1.3357731000000002,-1
280,281,1583552013910,1.7191,-0.6920000000000001,0.2287,5.7328014000000005,-9.373808,1.746503,-1
281,282,1583552013920,1.2717,-0.5331,0.44349998,5.3999877,-9.205553,1.8194495,-1
282,283,1583552013930,1.0782,-0.43089998,0.3511,5.3092666,-9.202937,1.727407,d
283,284,1583552013941,1.2181,-0.5812,0.0784,5.523136,-9.358552,1.4496412,-1
284,285,1583552013951,1.6288999,-0.7988,-0.27199998,6.1069379999999995,-9.63219,1.0820642,-1
285,286,1583552013961,2.2838,-0.96809995,-0.4958,6.671874000000001,-9.756764,1.0106883,-1
286,287,1583552013971,2.5651999,-1.0629,-0.56439996,6.755192299999999,-9.797246000000001,0.98668885,-1
287,288,1583552013981,2.3387,-1.0756,-0.44259998,6.42508,-9.756382,1.2016786,-1
288,289,1583552013991,1.8902999,-0.97609997,-0.1603,5.9047623,-9.603344,1.5551106000000001,-1
289,290,1583552014001,1.4045999,-0.87979996,0.1174,5.524103599999999,-9.562921000000001,1.8305683000000001,-1
290,291,1583552014012,1.0864999,-0.9115,0.401,5.4590955,-9.595549,2.092197,-1
291,292,1583552014022,1.1574,-1.0008,0.5764,5.6715,-9.662643,2.15187,-1
292,293,1583552014032,1.56,-1.1084,0.4145,6.353771,-9.793586999999999,1.6139026,-1
293,294,1583552014042,2.1432,-1.1866,-0.2977,6.847895599999999,-9.7534895,1.1129111,-1
294,295,1583552014052,2.655,-1.1486,-0.7341,7.354394,-9.831368,0.9339973,-1
295,296,1583552014063,2.9422,-1.3779,-0.62839997,7.623148,-10.118739,1.3624061,-1
296,297,1583552014073,3.2096,-1.7765,-0.076299995,8.074963,-10.596469,1.9353194,-1
297,298,1583552014083,3.6938,-2.3156,0.3681,8.831156,-11.193161,2.0548763,-1
298,299,1583552014093,4.5726,-2.9659998,0.48459998,10.091961999999999,-11.693319,2.4721759999999997,-1
299,300,1583552014104,5.4898,-3.3170998,0.8854,10.626309,-11.907361,2.706559,-1
300,301,1583552014114,5.902,-3.6467998,1.1169,10.886751,-12.136754,2.5881032999999998,-1
301,302,1583552014124,5.9655,-3.8098998,0.91789997,11.102814,-12.08208,2.1927726,-1
302,303,1583552014134,6.107,-3.8349998,0.5083,11.529392999999999,-12.105410000000001,1.7752718999999997,-1
303,304,1583552014145,6.4473996,-3.8776998999999996,0.1505,12.014985000000001,-11.994492,1.440706,-1
304,305,1583552014155,6.8104997,-3.8792,-0.16319999,12.406858,-12.075923,1.459151,-1
305,306,1583552014165,7.0664997000000005,-4.165,0.0189,12.455259,-12.480255,1.9235208,-1
306,307,1583552014175,6.812,-4.6579,0.48409998,12.200986,-12.887336999999999,2.1820180000000002,-1
307,308,1583552014186,6.4108,-5.1327,0.6629,12.080223,-12.96556,2.2780063,-1
308,309,1583552014195,6.1582,-5.2461,0.7234,11.964803,-12.728793,2.16839,-1
309,310,1583552014205,5.8385997000000005,-5.1161,0.58129996,11.637315,-12.511428,1.8866118000000003,-1
310,311,1583552014215,5.2833,-5.078,0.3195,11.1959,-12.315610000000001,1.7940328,-1
311,312,1583552014225,4.7383,-5.062999700000001,0.2961,11.005887,-12.009133,2.0337307,-1
312,313,1583552014235,4.3526,-4.9332,0.5828,10.774022,-11.641241,2.196613,-1
313,314,1583552014245,3.8237,-4.6698,0.8441,10.012561999999999,-11.109105,2.7775707,-1
314,315,1583552014256,2.8594,-4.5095,1.4735999,9.053655000000001,-10.739939,3.4384184,-1
315,316,1583552014266,1.7748,-4.2648997,2.1729,8.381487,-10.30429,3.6190083,-1
316,317,1583552014276,0.91209996,-4.0381,2.4134,8.126936,-9.789191,3.3838017,-1
317,318,1583552014286,0.47529998,-3.7507,2.2352,8.241493,-9.529411,2.8738751000000002,-1
318,319,1583552014296,0.46539998,-3.6834,1.5924,8.595606,-9.780285000000001,2.26706,-1
319,320,1583552014306,0.6156,-4.1502,1.2238,9.298437,-9.605509,2.5983026000000002,-1
320,321,1583552014316,1.1329,-4.2265,1.6364,9.866764,-9.126112,2.6358438,-1
321,322,1583552014327,1.6018,-3.8932998,1.7188,9.722469,-8.465237,2.6345987,-1
322,323,1583552014337,1.3192999,-3.4631998999999998,1.7767998999999999,8.992124,-7.9263496,2.4075902,-1
323,324,1583552014347,0.19929999,-3.0553,1.5156,7.5870914,-7.4493284,1.8791418000000002,-1
324,325,1583552014358,-2.1341999,-2.9325,1.1817,6.602748399999999,-7.0664864000000005,1.8179939999999999,-1
325,326,1583552014367,-2.1341999,-2.9325,1.1817,6.488794,-6.736306699999999,1.8688755000000001,-1
326,327,1583552014377,-2.4931,-2.806,1.3764,6.821071000000001,-6.0667253,1.8468585,-1
327,328,1583552014387,-2.2793999,-2.4092999,1.4883,7.023113,-5.2034907,1.8201008,-1
328,329,1583552014397,-2.7754,-1.4593999,1.8187,6.234224,-4.441838,1.8915534999999999,-1
329,330,1583552014407,-3.8212998,-1.3824999,2.07,5.3119674,-4.169683999999999,2.0283008000000002,-1
330,331,1583552014419,-3.8212998,-1.3824999,2.07,4.9528084,-4.055356,2.1125574,-1
331,332,1583552014429,-4.5824,-1.6077,2.6525,4.9969196,-3.9217312000000004,2.2921033,-1
332,333,1583552014440,-4.496,-1.4466,2.4968998,5.008651,-3.2836190000000003,1.7778767,-1
333,334,1583552014450,-4.9316998,-0.9564,1.8273,4.3471518,-2.5680400000000003,0.8413415999999999,-1
334,335,1583552014460,-5.8417997,-0.4991,0.90629995,3.482625,-1.8976251,-0.03427539,-1
335,336,1583552014471,-6.617799799999999,-0.0881,0.5552,2.8570773999999997,-1.2858875,-0.009509769,-1
336,337,1583552014481,-7.0927997000000005,0.26319999,1.2738999,2.4663436,-0.80086046,1.0007285,-1
337,338,1583552014492,-7.4041,0.4014,2.494,2.2900062,-0.5456003,2.284576,-1
338,339,1583552014502,-7.4346,0.43739998,3.3283,2.312636,-0.4258327,2.5393286,-1
339,340,1583552014512,-7.3325996,0.26479998,3.3427,2.7269576,-0.9085708,2.3055779999999997,-1
340,341,1583552014523,-6.6878,-0.4612,2.9533,3.5129068,-1.3168014,1.3087951999999998,-1
341,342,1583552014533,-5.973099700000001,-0.6811,1.7109,4.0698366,-1.0904535,-0.22052513,-1
342,343,1583552014543,-5.5235996,-0.4243,0.1884,4.3676944,-0.77540535,-1.5223387,-1
343,344,1583552014553,-5.3399,-0.22029999,-0.7596,4.3468647,-0.5223094,-1.9098643,-1
344,345,1583552014563,-5.4800997,-0.033999998,-0.7532,4.058057,-0.08748413,-0.9890447,-1
345,346,1583552014574,-5.7757998,0.2437,0.309,3.6662410000000003,0.17193241,0.19942743,-1
346,347,1583552014584,-6.1577,0.3744,1.4605,3.4839082,0.4084508,0.9034376000000001,-1
347,348,1583552014594,-6.3023996,0.5642,2.2663,3.5257970999999997,0.522252,1.513576,-1
348,349,1583552014604,-6.1812,0.496,2.7112,3.8396292,0.47267288,1.5625231000000002,-1
349,350,1583552014614,-5.843499700000001,0.4075,2.6387,4.2326809999999995,0.29486987,0.99036634,-1
350,351,1583552014624,-5.4075,0.14899999,2.0265,4.7813454,0.059098475,0.10152373,-1
351,352,1583552014634,-4.8443,-0.0766,1.1667,5.3453617,-0.02629791,-1.0154097,-1
352,353,1583552014644,-4.3889,-0.1174,0.2575,5.8718085,0.063484654,-1.871873,-1
353,354,1583552014654,-3.6689,-0.0263,-0.7513,6.6516094,0.2984516,-2.4091415,-1
354,355,1583552014664,-2.655,0.35869998,-1.0573,7.56381,0.8321575000000001,-1.8631008000000002,-1
355,356,1583552014674,-2.1121,0.7452,-0.35639998,7.3892727,0.8786815999999998,-1.1464968999999998,-1
356,357,1583552014684,-2.4415,0.6369,0.3753,6.6255608,0.53895396,-0.6924796999999999,-1
357,358,1583552014695,-3.2491,0.2525,0.7665,5.8044734,0.17964174,-0.63269174,-1
358,359,1583552014705,-4.0148,-0.1414,0.8113,5.5642014,-0.021787236,-0.6341281999999999,-1
359,360,1583552014715,-4.0527,-0.3071,0.9661,6.3240347,-0.039063793,-0.56031024,-1
360,361,1583552014725,-3.1185,-0.28579998,0.94269997,7.552575999999999,0.24242729,-1.4968357,-1
361,362,1583552014735,-1.8999,0.0267,-0.042099997,8.278852,0.5027441,-2.3928130000000003,-1
362,363,1583552014745,-1.1624,0.3047,-0.9149,8.530368,0.63952005,-2.7143927000000003,-1
363,364,1583552014756,-1.1486,0.3538,-0.80009997,8.069331,0.32969117,-2.1262232999999995,-1
364,365,1583552014766,-1.5619,0.071499996,-0.2461,7.892342,0.0028538886,-1.7547488000000002,-1
365,366,1583552014776,-1.7296,-0.24839999,0.1716,8.173077000000001,0.10887872,-1.9121531000000003,-1
366,367,1583552014786,-1.4384999,-0.1389,0.049399998,8.599675999999999,0.40120116,-2.7815547,-1
367,368,1583552014796,-1.0222,0.1748,-0.7996,8.908461,0.6569785,-3.767899,-1
368,369,1583552014806,-0.6958,0.4527,-1.7643,8.969915,0.76059955,-4.228687,-1
369,370,1583552014817,-0.63409996,0.5808,-2.2094998,9.032059,0.6986089,-3.8824375,-1
370,371,1583552014827,-0.57129997,0.5266,-1.8462,9.138313,0.5069483,-3.1952439999999998,-1
371,372,1583552014837,-0.4583,0.3398,-1.1351,9.16125,0.3163315,-2.5859964,-1
372,373,1583552014847,-0.433,0.1689,-0.5,9.113031,0.19586486,-2.5688922,-1
373,374,1583552014857,-0.4759,0.044999998,-0.4522,9.152372,-0.015878346,-2.892301,-1
374,375,1583552014867,-0.4312,-0.1366,-0.7507,9.141886,-0.14475343,-3.048451,-1
375,376,1583552014877,-0.30719998,-0.2316,-1.0062,9.297806,-0.08554004,-3.1816642,-1
376,377,1583552014888,-0.1875,-0.0665,-1.0067999,9.382513000000001,0.10040324,-3.1867783,-1
377,378,1583552014898,-0.1875,-0.0665,-1.0067999,9.472764999999999,0.23341551,-3.1759467,-1
378,379,1583552014908,0.1099,0.3083,-0.9227,9.707492,0.42799708,-3.1225467,-1
379,380,1583552014918,0.2101,0.28300000000000003,-0.9519,9.788952,0.33191296,-3.137697,-1
380,381,1583552014928,0.31129998,0.072299995,-0.8102,9.919369,0.093507946,-3.0117428,-1
381,382,1583552014938,0.58989996,-0.19669999,-0.6849,10.209384,-0.22581153,-2.8970703999999996,-1
382,383,1583552014948,0.58989996,-0.19669999,-0.6849,10.399896,-0.40088513,-2.864509,d
383,384,1583552014959,0.76339996,-0.5377,-0.636,10.256482,-0.52707875,-2.9257815,-1
384,385,1583552014969,0.49949998,-0.5058,-0.5931,10.003492,-0.47297934,-2.8196703999999997,-1
385,386,1583552014979,0.33179998,-0.3599,-0.3913,9.877297,-0.28503449999999997,-2.6113174,-1
386,387,1583552014989,0.2713,-0.0585,-0.19209999,9.818611,0.038996756,-2.429703,-1
387,388,1583552015000,0.1918,0.2719,-0.1184,9.704417999999999,0.3591973,-2.3817136000000003,-1
388,389,1583552015010,0.0252,0.4278,-0.2454,9.510095,0.48035347,-2.5791588,-1
389,390,1583552015020,-0.0611,0.4601,-0.45319998,9.50794,0.47292188,-2.768971,-1
390,391,1583552015030,0.060599997999999995,0.3895,-0.60249996,9.671378,0.3953306,-2.9310104999999997,-1
391,392,1583552015040,0.4887,0.1665,-0.79109997,10.195314999999999,0.05554548,-3.225574,-1
392,393,1583552015051,0.90809995,-0.0652,-1.1527,10.584507,-0.12102211,-3.6792559999999996,-1
393,394,1583552015061,1.1309999,-0.1445,-1.6136,10.645512,-0.20065325,-4.1579337,-1
394,395,1583552015071,1.0091,-0.2128,-1.9051,10.417047,-0.24051194,-4.320442,-1
395,396,1583552015081,0.68,-0.26119998,-2.0154,10.004449000000001,-0.2753715,-4.503235,-1
396,397,1583552015091,0.2823,-0.28669998,-2.1552,9.668907,-0.30952240000000003,-4.5615387,-1
397,398,1583552015101,0.13149999,-0.34379998,-2.1216,9.65708,-0.33671093,-4.595325,-1
398,399,1583552015112,0.24759999,-0.3983,-2.1880999,9.907015,-0.372442,-4.8455095,-1
399,400,1583552015122,0.4917,-0.39799999999999996,-2.4884,10.0592,-0.38185602,-5.299881500000001,-1
400,401,1583552015132,0.6064,-0.4604,-2.9923,10.145497,-0.5474581999999999,-5.8548098,-1
401,402,1583552015143,0.7277,-0.7053,-3.5377,10.343602,-0.79967296,-6.420358,-1
402,403,1583552015153,0.9439,-0.94149995,-4.0262,10.480464999999999,-1.0068191999999998,-6.753228999999999,-1
403,404,1583552015163,0.9625,-1.1458,-4.3343997000000005,10.266662,-1.2208035,-7.0330825,-1
404,405,1583552015173,0.6565,-1.412,-4.5875,9.979444500000001,-1.4414818,-7.0703745,-1
405,406,1583552015183,0.4199,-1.5723,-4.3485,9.795263,-1.4858512,-6.6928472999999995,-1
406,407,1583552015193,0.23399999999999999,-1.6618998999999999,-4.1334,9.616166999999999,-1.5336586,-6.765602,-1
407,408,1583552015204,0.1178,-1.7142998999999999,-4.3073997,9.593834,-1.4993353,-6.839669000000001,-1
408,409,1583552015214,0.0712,-1.7468,-4.3216,9.326564999999999,-1.625845,-6.885216000000001,-1
409,410,1583552015224,-0.2209,-1.9452,-4.3673997,9.002447,-1.8007749,-7.1366559999999994,-1
410,411,1583552015234,-0.5336,-2.1513999,-4.6919,8.766504,-1.9850134999999998,-7.605402000000001,-1
411,412,1583552015245,-0.7413,-2.3746998,-5.125,8.715363499999999,-2.0425413,-7.6578539999999995,-1
412,413,1583552015255,-0.7673,-2.4371998,-5.1182,8.797034,-1.8432001,-7.463033,-1
413,414,1583552015265,-0.6739,-2.2268999,-4.9247,8.737399,-1.5320114,-7.1091895,-1
414,415,1583552015275,-0.8121,-1.9612999,-4.5927997000000005,8.368547999999999,-1.2671072,-6.618972,-1
415,416,1583552015285,-1.1472,-1.8003,-4.2483,7.877105,-1.28515,-6.7896399999999995,-1
416,417,1583552015296,-1.6488,-1.8781999,-4.4756,7.602481,-1.4250096,-7.0296826,-1
417,418,1583552015306,-1.9729999,-2.1048,-4.7708,7.433642,-1.4842038999999998,-6.522284,-1
418,419,1583552015316,-2.109,-2.1972,-4.3371,7.033207000000001,-1.5073893999999999,-5.5292554,-1
419,420,1583552015326,-2.5195,-2.3141,-3.4055998,6.330212,-1.4936563,-4.1852846,-1
420,421,1583552015336,-3.2294,-2.3421,-2.0987,5.826299,-1.291643,-3.585087,-1
421,422,1583552015346,-3.7368,-2.1938,-1.5593,5.859588,-0.8891011999999999,-4.134011,-1
422,423,1583552015357,-3.7196998999999997,-1.8300999,-2.1763,6.4732895,-0.19143079,-4.756206,-1
423,424,1583552015367,-3.1195998,-1.1547999,-2.9039,6.6484494000000005,0.48961425,-4.720159,-1
424,425,1583552015377,-2.9638,-0.5123,-2.9842,6.176456,0.7355179000000001,-4.2131433,-1
425,426,1583552015387,-4.1823,-0.461,-1.5941,5.2952943,0.49534118,-2.7725142999999997,-1
426,427,1583552015397,-4.1823,-0.461,-1.5941,4.7126126,-0.015217546,-1.6649758000000001,-1
427,428,1583552015407,-4.9553,-1.0481,-0.3409,4.6265745,-0.37334222,-0.12159672,-1
428,429,1583552015418,-4.8869,-1.1244999,2.1057,4.7974725,0.005832275400000001,1.2140517,-1
429,430,1583552015428,-4.8869,-1.1244999,2.1057,4.658005,0.28455567,1.4882357,-1
430,431,1583552015438,-5.3839999999999995,-0.37759998,2.7533998,4.298502,0.7739784000000001,2.1213682,-1
431,432,1583552015448,-5.6134,0.0252,3.3579,4.1040354,1.0965827,2.8658688,-1
432,433,1583552015458,-5.6959,0.1723,3.8748,4.034603,1.1338173,3.480949,-1
433,434,1583552015468,-5.8167995999999995,0.102,4.0381,3.917728,0.93747365,3.7413616000000003,-1
434,435,1583552015479,-6.0341,-0.3444,4.1312,3.715035,0.33423057,3.9975410000000005,-1
435,436,1583552015489,-6.0924997,-0.9264,4.3575,3.7456233999999995,-0.3406949,4.419859400000001,-1
436,437,1583552015499,-5.5603,-1.2759,5.3622,4.393322,-0.6983599,5.730646599999999,-1
437,438,1583552015509,-4.8494,-1.2135999,7.2177,5.02315,-0.6946536999999999,7.7690983,-1
438,439,1583552015519,-4.8518,-0.91239995,8.715099,4.695633,-0.4005308,9.214057,-1
439,440,1583552015530,-5.528,-0.5582,8.9542,4.002013,-0.14317326,9.368703,-1
440,441,1583552015540,-6.4073,-0.2401,9.0758,2.9974735,-0.07460333,9.806372,-1
441,442,1583552015550,-7.3234,-0.4957,9.4821,2.3066506,-0.6392518,10.318454,-1
442,443,1583552015560,-7.325599700000001,-1.061,9.6571,2.6286802000000002,-1.1864992,10.418915,-1
443,444,1583552015570,-5.933799700000001,-1.3152,9.4247,4.5217752,-1.5616419,10.232635499999999,-1
444,445,1583552015580,-4.3738,-1.2995,9.414599,5.857453,-1.635824,10.52811,-1
445,446,1583552015590,-3.5579,-1.0803,9.9557,6.246865000000001,-1.5479854,11.340988000000001,-1
446,447,1583552015600,-3.7510000000000003,-0.8728,11.2553,5.651264,-1.5989532,13.041791,-1
447,448,1583552015610,-4.6786,-0.98859996,13.1914,4.642826,-1.9755516,14.839224,-1
448,449,1583552015621,-5.6238,-1.2917,14.159598999999998,3.6428833,-2.5599282000000003,14.953916,-1
449,450,1583552015631,-6.2421,-1.6449,13.352699,3.3363389999999997,-2.9725257999999997,13.667828,-1
450,451,1583552015641,-6.2286,-2.0400999,11.4532995,4.133158,-3.5844169000000003,11.869264999999999,-1
451,452,1583552015652,-4.8385,-2.1887999,10.5788,5.9284360000000005,-3.7226195,11.683513,-1
452,453,1583552015662,-2.9563,-2.0897,10.7543,7.5185976,-3.9254277,11.925796499999999,-1
453,454,1583552015672,-1.7606,-2.0751,11.0941,7.9279394,-4.0865480000000005,12.211022,-1
454,455,1583552015682,-1.7923,-2.1657999,11.3382,7.367178999999999,-4.5764017,11.826637,-1
455,456,1583552015692,-2.3924,-2.6331,10.749599,6.9784565,-5.1981087,10.904334,-1
456,457,1583552015703,-2.6448,-3.2779,9.088699,6.88898,-6.3281145,8.161642,-1
457,458,1583552015713,-2.4083,-4.2063,6.7268996,7.437539599999999,-7.5213943,5.788806,-1
458,459,1583552015724,-1.6022999,-5.1594,4.7377996,8.899659,-8.583021,4.1279387000000005,-1
459,460,1583552015734,-0.11,-5.7202,3.787,10.71548,-9.068432000000001,3.7402604,-1
460,461,1583552015744,1.7907,-5.9077997,3.5268,12.162467999999999,-9.182482,3.4825387,-1
461,462,1583552015754,3.1689,-5.7222,3.2884,12.816353999999999,-9.061938,3.2469206,-1
462,463,1583552015764,3.7238,-5.4907,3.0763,12.735285000000001,-9.1404295,2.9114162999999995,-1
463,464,1583552015774,3.5726,-5.4179997,2.6949,12.137664,-9.455363,2.4126658,-1
464,465,1583552015785,3.0070999,-5.7215,2.185,11.784797,-10.414653999999999,1.6636733,-1
465,466,1583552015795,2.8432999,-6.6013,1.2571,12.227121,-11.41225,-0.0018770541,-1
466,467,1583552015805,3.5839999,-7.4234995999999995,-0.5387,13.784377,-12.099597,-2.0323517,-1
467,468,1583552015815,5.3363,-7.8367996,-2.5858,15.671132,-11.836147,-3.515253,-1
468,469,1583552015825,7.2028,-7.3013997,-3.8978998999999996,16.61346,-11.299569,-3.8356163999999997,-1
469,470,1583552015835,7.910599700000001,-6.664499799999999,-3.9399,16.00564,-10.685217,-2.6516838,-1
470,471,1583552015846,7.0032,-6.0032,-2.5881998999999998,13.885785999999998,-10.382283000000001,-0.76398975,-1
471,472,1583552015857,4.7479,-5.7434998,-0.6757,11.415774,-10.558516000000001,1.1971871,-1
472,473,1583552015867,2.1476998,-6.3715997,-0.2553,10.851911999999999,-11.104605000000001,-0.15130398,-1
473,474,1583552015877,2.1476998,-6.3715997,-0.2553,11.94156,-11.120837,-2.5466835,-1
474,475,1583552015888,3.3499,-6.4084,-3.2558,14.074822,-10.832239999999999,-5.397019,-1
475,476,1583552015898,7.0013,-5.5646,-7.6721997,15.596069,-10.283163,-6.7127384999999995,-1
476,477,1583552015908,6.835099700000001,-5.1309,-7.3824997,14.942538,-9.815145,-6.0088816,-1
477,478,1583552015919,5.1766,-4.5511,-6.1668,12.98887,-9.188132000000001,-4.6793904,-1
478,479,1583552015929,2.9359999,-3.9055,-4.8861,10.776378999999999,-8.524142999999999,-3.4778557,-1
479,480,1583552015939,0.70409995,-3.4636,-4.1668997,8.812549,-8.187749,-2.980714,-1
480,481,1583552015949,-0.7524,-3.5544998999999997,-4.7072,7.649072,-8.350477,-3.7570099999999997,-1
481,482,1583552015959,-0.4283,-3.8623998,-6.6872,8.400238,-8.548698,-5.8005185,-1
482,483,1583552015969,1.7112,-3.5210998,-8.888,11.083861,-8.11393,-8.102888,-1
483,484,1583552015979,3.5556997999999997,-3.2201998,-10.2855,12.313417999999999,-7.887601400000001,-9.024886,-1
484,485,1583552015990,3.7875,-3.0872,-10.7927,12.107124,-7.822603999999999,-9.300775,-1
485,486,1583552016000,2.6876,-3.0618,-10.7727995,10.894086999999999,-7.7585163,-9.16216,-1
486,487,1583552016010,1.4783,-2.8342,-10.034599,9.600269,-7.340210400000001,-8.166718,-1
487,488,1583552016020,0.5405,-2.4738998,-9.006,8.737686,-7.120088000000001,-7.210387,-1
488,489,1583552016030,-0.2473,-2.5051,-8.302899,8.098789,-7.1179809999999994,-6.9045043,-1
489,490,1583552016041,-0.57739997,-2.4236,-8.5062,8.013297,-6.950473,-7.4752244999999995,-1
490,491,1583552016051,-0.3786,-2.195,-9.467899000000001,8.39591,-6.669403599999999,-8.358857,-1
491,492,1583552016061,0.11199999599999999,-1.9555999,-10.0091,8.817213,-6.5002002999999995,-8.633826,-1
492,493,1583552016071,0.3125,-1.9540999,-9.9323,8.824357000000001,-6.555248,-8.138026,-1
493,494,1583552016081,0.15079999,-1.9697,-9.2623,8.412746,-6.642684,-7.3641143,-1
494,495,1583552016092,-0.39399999999999996,-2.0832999,-8.5394,7.791135000000001,-6.7511410000000005,-6.7559295,-1
495,496,1583552016102,-0.9483,-2.2163,-8.0134,7.3902307,-6.872671,-6.207178599999999,-1
496,497,1583552016112,-1.2358,-2.3077,-7.4821,7.225394199999999,-6.9012956999999995,-5.6490808,-1
497,498,1583552016122,-1.3145,-2.2586,-6.9670997,7.181044,-6.885475,-5.233993,-1
498,499,1583552016132,-1.3808,-2.2763,-6.6949997,7.0881395000000005,-6.962587400000001,-5.0842977,-1
499,500,1583552016143,-1.4347999,-2.3508,-6.6454,7.0374303,-7.024683500000001,-4.9530769999999995,-1
500,501,1583552016153,-1.4670999,-2.4033,-6.3929,6.977824000000001,-7.1086149999999995,-4.371965400000001,-1
501,502,1583552016163,-1.5173,-2.4624,-5.7362,6.9611220000000005,-7.281735,-3.3290417000000003,-1
502,503,1583552016173,-1.4692999,-2.6262999,-4.8549,7.026561,-7.484064,-2.5543067,-1
503,504,1583552016183,-1.393,-2.7981,-4.1584,7.088513400000001,-7.7005669999999995,-2.2044566000000003,-1
504,505,1583552016194,-1.3283,-3.0089998,-3.9325997999999998,7.1163144,-7.853451,-2.2446884999999996,-1
505,506,1583552016204,-1.255,-3.074,-3.9777,7.317753,-7.834757000000001,-2.0987668,-1
506,507,1583552016214,-1.0351,-3.031,-3.7458,7.378537,-7.8599440000000005,-1.5191114,-1
507,508,1583552016224,-1.0126,-3.0670998,-3.1162999,7.265761,-8.051403,-0.8785858,-1
508,509,1583552016234,-1.1389999,-3.2315,-2.51,7.1399784,-8.017071000000001,-0.40058824,-1
509,510,1583552016245,-1.2476,-3.1423,-2.0256,6.988003999999999,-8.010788,0.09420705,-1
510,511,1583552016255,-1.3836,-3.1436,-1.5091,6.9913177,-8.061057,0.46838248,-1
511,512,1583552016265,-1.3302,-3.1506,-1.2001,7.219504400000001,-8.100829,0.5617564,-1
512,513,1583552016275,-1.0376999,-3.2154,-1.1129999,7.5739517,-8.224974000000001,0.42346725,-1
513,514,1583552016285,-0.7252,-3.2693,-1.2192,7.708189999999999,-8.229695,0.3206219,-1
514,515,1583552016296,-0.6107,-3.2563,-1.2715,7.6231860000000005,-8.360705000000001,0.62562406,-1
515,516,1583552016306,-0.6836,-3.3725998,-0.93039995,7.5172186000000005,-8.376411000000001,1.5748388999999998,-1
516,517,1583552016316,-0.79749995,-3.3632998,0.0628,7.3027844,-8.198025,2.420557,-1
517,518,1583552016326,-1.0015,-3.1694,0.9536,6.936213,-8.183468,2.921769,-1
518,519,1583552016336,-1.3622999,-3.1327999,1.5016999,6.7116466,-8.356299,3.390678,-1
519,520,1583552016346,-1.5935999,-3.2897,2.0193,6.904370299999999,-8.617353999999999,3.491426,-1
520,521,1583552016357,-1.3888999,-3.5205,2.1557,7.469612,-8.708219,3.6353462,-1
521,522,1583552016367,-0.81759995,-3.5914998,2.3301,8.023238000000001,-8.665037,3.8187518,-1
522,523,1583552016377,-0.2455,-3.5177,2.5212,8.19632,-8.577534,3.9112637,-1
523,524,1583552016387,-0.0692,-3.4225,2.6246998,8.039489999999999,-8.455458,4.368365,-1
524,525,1583552016397,-0.2129,-3.2879998999999995,3.0916997999999998,7.626920699999999,-8.0723095,5.036117,-1
525,526,1583552016407,-0.62759995,-2.9069,3.7612997999999997,6.988445,-7.616387,5.6661754,-1
526,527,1583552016417,-1.7804999,-1.9420998999999999,4.8375998,6.4390044,-6.965536999999999,6.1157010000000005,-1
527,528,1583552016428,-1.9034,-1.4563,4.9913,6.390517,-6.5279922,6.2080307,-1
528,529,1583552016438,-1.9034,-1.4563,4.9913,6.619086299999999,-6.133561599999999,6.109744,-1
529,530,1583552016448,-1.324,-0.7137,4.5259,7.025133599999999,-5.8493505,5.6679087,-1
530,531,1583552016458,-1.056,-0.7055,4.4511,7.2407556,-5.841038,5.660784,-1
531,532,1583552016468,-1.0442,-0.6099,4.6651998,7.213336999999999,-5.752002200000001,5.856342,-1
532,533,1583552016478,-1.151,-0.5651,4.7704997,7.113709399999999,-5.7537265,5.90888,-1
533,534,1583552016489,-1.1984999,-0.67859995,4.8378997,7.0701732999999995,-5.8721247000000005,5.9936347,-1
534,535,1583552016499,-1.2157999,-0.6658,4.8837,7.0691004,-5.8394294,5.989967299999999,-1
535,536,1583552016509,-1.0555,-0.527,4.6401,7.2525353,-5.669153700000001,5.729679,-1
536,537,1583552016519,-0.7477,-0.2522,4.2318997000000005,7.5792766,-5.3697443,5.3344445,-1
537,538,1583552016529,-0.4804,0.070199996,3.7386,7.795884599999999,-5.042763,4.838519,-1
538,539,1583552016539,-0.5092,0.2636,3.4282,7.6897163,-4.9136105,4.677121,-1
539,540,1583552016550,-0.8143,0.2598,3.7329998,7.3081190000000005,-4.9512477,5.1365875999999995,-1
540,541,1583552016560,-1.1481,0.119899996,4.1461997,7.013249000000001,-5.1536245,5.5235286,-1
541,542,1583552016570,-1.3023,-0.1347,4.4041,6.971781299999999,-5.342805,5.659366,-1
542,543,1583552016580,-1.0991,-0.24859999,4.2163,7.329225999999999,-5.4336595999999995,5.359277,-1
543,544,1583552016590,-0.63729995,-0.184,3.8184,7.748134599999999,-5.2784677,5.0130563,-1
544,545,1583552016600,-0.3511,0.0267,3.4429,7.8833975999999994,-5.0857730000000005,4.700804,-1
545,546,1583552016611,-0.3701,0.1074,3.1253,7.8204303,-5.079691400000001,4.510102,-1
546,547,1583552016621,-0.45909998,0.1274,3.036,7.694045,-5.021914499999999,4.6786246,-1
547,548,1583552016631,-0.5683,0.21609999,3.4910997999999998,7.540787,-4.911638,5.2242346,-1
548,549,1583552016641,-0.85349995,0.3548,3.7814998999999996,7.194250599999999,-4.8523097,5.3591237000000005,-1
549,550,1583552016651,-1.0778999,0.26899999999999996,3.7233998999999995,7.0833607,-5.0087657,5.3788323,-1
550,551,1583552016661,-0.9755,0.0875,3.5995998,7.2975554,-5.1296824999999995,5.110711,d
551,552,1583552016672,-0.5374,0.103199996,2.8819999999999997,7.849381,-5.0383677,4.2975636,-1
552,553,1583552016682,0.0173,0.2355,1.9618,8.29453,-4.996335,3.1724799,-1
553,554,1583552016692,0.27399999999999997,0.1495,1.063,8.499989999999999,-5.178103,2.8581119,-1
554,555,1583552016702,0.4174,-0.037000000000000005,1.2120999,8.456014,-5.30286,3.6463980000000005,-1
555,556,1583552016712,0.1907,-0.1294,2.1863,7.9874496,-5.3410616,4.5583014,-1
556,557,1583552016723,-0.3547,-0.1276,2.9162998,7.570753,-5.302879,4.9277940000000005,-1
557,558,1583552016733,-0.6940000000000001,-0.0872,3.1334999,7.498142,-5.229032,4.888443,-1
558,559,1583552016743,-0.45889997,-0.0525,2.73,8.085142,-5.1738696,3.9594157,-1
559,560,1583552016753,0.30449998,0.0365,1.6072999,8.956632,-5.1443925,2.9275243,-1
560,561,1583552016763,1.1278,0.0491,0.6637,9.571453,-5.112233,2.2474467999999996,-1
561,562,1583552016773,1.609,0.0793,0.121999994,9.749476,-5.1558943,2.1060357000000005,-1
562,563,1583552016783,1.6051999,-0.0242,0.25959998,9.509903,-5.2394614,2.7685685,-1
563,564,1583552016793,1.2724999,-0.0652,1.0414,9.087614,-5.248971,3.4328735,-1
564,565,1583552016803,0.8574,-0.1104,1.505,8.860356,-5.3500065999999995,3.816664,-1
565,566,1583552016813,0.8142,-0.21509999,1.9211999,9.216325999999999,-5.305666,4.495679,-1
566,567,1583552016823,1.2126,-0.1803,2.4008,9.747102,-5.379273400000001,4.4709706,-1
567,568,1583552016834,1.7485,-0.2915,2.3235,10.181965,-5.45606,4.5529766,-1
568,569,1583552016843,2.2737,-0.3926,2.5058,10.585253999999999,-5.567065,4.924930000000001,-1
569,570,1583552016853,2.6125998,-0.5432,2.9417999,10.921869000000001,-5.79777,5.4074097000000005,-1
570,571,1583552016863,2.8851,-0.87189996,3.4148998,11.089903999999999,-6.1799707,5.8596262999999995,-1
571,572,1583552016873,3.062,-1.2344998999999999,3.7324998,11.421788000000001,-6.3712487,6.151307599999999,-1
572,573,1583552016883,3.5039999999999996,-1.3679,3.8499,11.9054365,-6.3607907,6.1484437000000005,-1
573,574,1583552016893,3.9513,-1.2856,3.758,12.199864999999999,-6.179454,6.0366445,-1
574,575,1583552016904,4.1124997,-1.1867,3.5528,12.253649000000001,-6.089087,5.943644,-1
575,576,1583552016914,4.1031,-1.247,3.5579998,12.252423,-6.120748000000001,6.2058954,-1
576,577,1583552016924,4.0434,-1.3405,3.8242998,12.220388,-6.2164583,6.618674799999999,-1
577,578,1583552016934,3.9253,-1.5005,4.2588,12.268292,-6.200264,6.861332000000001,-1
578,579,1583552016944,4.0101,-1.4779999,4.4986997,12.361991,-5.8408947,6.804197,-1
579,580,1583552016954,3.9582998999999996,-1.2182,4.3132,12.173059,-5.5619125,6.1689386,-1
580,581,1583552016964,3.7798998,-1.0644,3.5758997999999997,12.393719,-5.407075,5.6655050000000005,-1
581,582,1583552016975,4.0341,-1.0598999,3.2868998,12.981639999999999,-5.565772,6.5547495,-1
582,583,1583552016985,4.6005,-1.3773,4.4439,13.429345999999999,-5.8763765999999995,7.925679,-1
583,584,1583552016995,4.9540997,-1.8864,6.0920000000000005,13.218032999999998,-6.2086440000000005,8.886874,-1
584,585,1583552017005,4.4247,-2.2175999,6.4091997,12.477172,-6.221486,7.8026075,-1
585,586,1583552017015,3.6339998,-2.2963,5.0846,12.091130999999999,-5.964186,6.1114296999999995,-1
586,587,1583552017026,3.3162,-2.1815999,3.4991,12.474480999999999,-5.6006794,5.073237000000001,-1
587,588,1583552017036,3.6227,-2.0498,2.7219,12.871056,-5.3636723,4.5789013,-1
588,589,1583552017046,3.9531998999999995,-1.979,2.2226999,12.854181,-5.315300499999999,3.8451836000000004,-1
589,590,1583552017056,3.8797998,-2.1027,1.4872999,12.500309,-5.198856,3.2589872000000004,-1
590,591,1583552017066,3.4561,-2.1692998,0.93549997,12.140001,-4.9681025000000005,3.1604322999999996,-1
591,592,1583552017076,2.9076998,-2.0585,0.9088,11.256885,-4.414821599999999,3.539224,-1
592,593,1583552017087,2.0521,-1.7753999,1.3630999,10.505919,-4.0532010000000005,4.4754906,-1
593,594,1583552017097,1.2284,-1.6185,2.4122,9.898760000000001,-3.7612907999999994,5.319926000000001,-1
594,595,1583552017107,0.5391,-1.5051999,3.3553998,9.356205000000001,-3.7106103999999998,5.1368747,-1
595,596,1583552017117,-0.45979998,-1.9829999,2.4668999,8.965777000000001,-3.8747472999999997,4.03558,-1
596,597,1583552017128,-0.79139996,-2.0643,1.4516,8.656581,-3.7435737000000002,2.8366597000000002,-1
597,598,1583552017138,-1.1271,-1.9619,-0.2333,8.4075165,-3.4488093999999996,0.9919848,-1
598,599,1583552017148,-1.1271,-1.9619,-0.2333,8.4032545,-3.0019267000000003,-0.37745067,-1
599,600,1583552017158,-0.91239995,-1.022,-2.3995,8.780477000000001,-2.1428967,-0.93216807,-1
600,601,1583552017168,-0.9241,-0.61719996,-1.7278,8.6523,-1.6696205000000002,-0.26450184,-1
601,602,1583552017178,-1.5128,-0.3566,-1.0117999,8.042181,-1.2824686,0.30400616,-1
602,603,1583552017188,-2.2268,-0.10229999599999999,-0.44039997,7.351272,-0.93717676,0.70616496,-1
603,604,1583552017198,-2.2268,-0.10229999599999999,-0.44039997,6.8394685,-1.2660826,0.9968019,-1
604,605,1583552017208,-3.1934,-1.7815,0.7065,6.5707145,-2.6217658999999998,1.6086639999999999,-1
605,606,1583552017218,-3.1615,-2.5407999,1.1316998999999999,6.602988000000001,-3.1070130000000002,1.708464,-1
606,607,1583552017229,-3.3608,-2.6210000000000004,0.4355,6.3576016,-3.0288663,0.6639121,-1
607,608,1583552017239,-3.8500997999999997,-2.4845,-1.2128999,5.876089599999999,-2.7261147,-1.2164172,-1
608,609,1583552017249,-3.8500997999999997,-2.4845,-1.2128999,5.8751125,-2.0440256999999997,-2.6209613999999997,-1
609,610,1583552017259,-3.6037998,-1.2655,-2.8344,6.4042788,-1.1177858,-2.2090917,-1
610,611,1583552017269,-3.2036,-0.6871,-1.8283,6.628817,-0.67584485,-1.3876793,-1
611,612,1583552017280,-3.3911998,-0.3699,-0.7693,6.165184,-0.25838223,-0.27789020000000003,-1
612,613,1583552017290,-4.098099700000001,-0.2737,-0.21679999,5.4656944,-0.19446665,-0.056244586,-1
613,614,1583552017300,-4.6375,-0.2923,-0.089899994,4.9904165,-0.18398961,-0.19440918,-1
614,615,1583552017310,-4.8918,-0.4346,-0.16,5.009963,-0.40564479999999997,-0.14681245,-1
615,616,1583552017321,-4.6359997,-0.9442,0.0219,5.354776,-1.0026342,-0.13352942,-1
616,617,1583552017331,-4.6359997,-0.9442,0.0219,5.810651,-1.4157202,-0.44836694,-1
617,618,1583552017341,-3.3500997999999997,-1.7675999,-1.0201,6.830255499999999,-1.5699643,-1.7454592,-1
618,619,1583552017351,-2.5266,-1.4956,-2.1664,7.4390717,-1.2254194,-2.7293324,-1
619,620,1583552017361,-2.2621999,-1.0546,-2.6910000000000003,7.4911509999999994,-0.7646793000000001,-2.8292856,-1
620,621,1583552017371,-2.6548998,-0.64959997,-2.3012,6.791564999999999,-0.44124179999999996,-2.2778435,-1
621,622,1583552017382,-3.6355998999999994,-0.5223,-1.8406999,5.647366000000001,-0.3877266,-1.7969058999999998,-1
622,623,1583552017392,-4.3905,-0.5161,-1.5162,5.346846,-0.25128582,-1.7418103999999999,-1
623,624,1583552017402,-4.3410997,-0.37309998,-1.6163,5.9562182,-0.2808782,-1.7219386000000003,-1
624,625,1583552017412,-3.5267,-0.5786,-1.3759999,7.036338300000001,-0.58070886,-1.1966795000000001,-1
625,626,1583552017422,-2.3392,-0.83699995,-0.71309996,7.8074436,-0.7352785,-0.7217081,-1
626,627,1583552017432,-1.9552,-0.9341,-0.4012,7.7495713,-0.8296579,-0.82040673,-1
627,628,1583552017442,-2.2080998,-1.0527999,-0.6295,7.3816880000000005,-0.89101654,-1.3812532,-1
628,629,1583552017452,-2.5196,-1.0533,-1.2452999,7.108624000000001,-0.7132518,-2.1013908,-1
629,630,1583552017462,-2.7426,-0.8211,-1.8756,7.1323365999999995,-0.3789255,-2.4383125,-1
630,631,1583552017472,-2.5929,-0.5571,-1.9099,7.2526402,-0.31498116,-2.3034997,-1
631,632,1583552017482,-2.5117,-0.64269996,-1.6212,7.3251557,-0.39264908,-1.8934400000000002,-1
632,633,1583552017493,-2.4303,-0.68439996,-1.1344,7.4885744999999995,-0.40686107,-1.5901426,-1
633,634,1583552017502,-2.2114,-0.64269996,-0.9693,7.7590523000000005,-0.25265533,-1.7235474999999998,-1
634,635,1583552017512,-1.9138,-0.4488,-1.1558,8.004037,-0.08487924,-2.0923216,-1
635,636,1583552017522,-1.6554999,-0.3493,-1.4705,8.327129,-0.14869907,-2.099284,-1
636,637,1583552017532,-1.3575,-0.50409997,-1.0282,8.489486,-0.36664805,-1.2690419,-1
637,638,1583552017542,-1.2942,-0.6907,-0.22899999,8.356597,-0.5203175,-1.0774386,-1
638,639,1583552017553,-1.4956,-0.8595,-0.3448,8.147535000000001,-0.63818884,-1.6004758999999997,-1
639,640,1583552017564,-1.6387,-0.9396,-0.94909996,8.172071,-0.5181148,-2.2256498,-1
640,641,1583552017574,-1.4879999,-0.6943,-1.4412,8.473558,-0.21305522,-2.8038783,-1
641,642,1583552017584,-1.2199,-0.4569,-1.8886,8.776885,-0.006033388000000001,-3.0720387000000002,-1
642,643,1583552017595,-0.9029,-0.26909998,-2.0335,9.085785000000001,0.15972199,-2.939323,-1
643,644,1583552017605,-0.62439996,-0.1331,-1.8017,9.241361,0.17127160000000002,-2.5030419999999998,-1
644,645,1583552017615,-0.49269998,-0.1295,-1.2744,9.138648,0.19107644,-1.9531802,-1
645,646,1583552017625,-0.6545,-0.1314,-0.73469996,8.859323,0.116166666,-1.6010889,-1
646,647,1583552017635,-0.94339997,-0.23369999,-0.312,8.511894,-0.019469649,-1.1007774,-1
647,648,1583552017645,-1.2717,-0.3726,0.20729999,8.406167,-0.15416743,-1.0101806999999998,-1
648,649,1583552017655,-1.2964,-0.49339998,0.1942,8.674088000000001,-0.15556565,-1.4385513,-1
649,650,1583552017666,-0.9693,-0.4658,-0.24769999,9.120156,-0.030789435,-2.0769606,-1
650,651,1583552017676,-0.6045,-0.33069998,-0.75769997,9.486009,0.15800774,-2.5160666000000003,-1
651,652,1583552017686,-0.2402,-0.1427,-1.1838,9.712645,0.32999763,-2.9751882999999997,-1
652,653,1583552017696,-0.0033999997999999997,0.0541,-1.6298,9.763066,0.34493744,-3.241069,-1
653,654,1583552017706,0.0475,0.0401,-1.8966,9.843664,0.024899698999999997,-2.8130147,-1
654,655,1583552017717,0.1193,-0.2356,-1.4311,9.862627,-0.30007964,-1.8556116999999999,d
655,656,1583552017727,0.1433,-0.5395,-0.43949997,9.884673,-0.45409387,-0.9837392,-1
656,657,1583552017737,0.17819999,-0.6935,0.4691,9.798855,-0.22708523,-1.1115513000000001,-1
657,658,1583552017747,0.1063,-0.47959998,0.37359998,9.708008999999999,0.23573309,-1.7835366999999998,-1
658,659,1583552017757,-0.0749,0.7504,-1.2823,9.628091,1.1670296,-3.0195673,-1
659,660,1583552017769,0.14829999,1.2422999,-1.8857,9.890362,1.6141995,-3.6189222,-1
660,661,1583552017779,0.5467,1.3571,-2.2319999,10.308178,1.6283253,-3.8911717000000006,-1
661,662,1583552017789,0.9633,0.9848,-1.999,10.752915,1.0845639,-3.4851246,-1
662,663,1583552017799,1.1736,0.4834,-1.5719999,10.78587,0.57975113,-3.3534627,-1
663,664,1583552017809,1.0209,-0.0972,-1.8725,10.6616,0.11854172,-3.6690662000000005,-1
664,665,1583552017820,1.0241,-0.5106,-2.0999,10.7232275,-0.30152577,-3.8723052000000004,-1
665,666,1583552017830,1.1532999,-0.67719996,-2.0609999,10.842229,-0.4311478,-3.7946470000000003,-1
666,667,1583552017840,1.2120999,-0.8423,-1.9921999,10.85237,-0.61443835,-3.7513597,-1
667,668,1583552017850,1.1523,-0.9784,-1.9972999,10.718133,-0.7624095999999999,-3.8800626000000005,-1
668,669,1583552017860,0.9357,-1.2721,-2.4828,10.522210000000001,-1.1652963,-4.469026599999999,-1
669,670,1583552017870,0.8759,-1.8113999,-2.978,10.580275,-1.7319273000000002,-4.8997912,-1
670,671,1583552017881,1.0716,-2.2855,-3.5009,10.753078,-2.1068208,-5.3780375,-1
671,672,1583552017891,1.0424,-2.4641,-3.9239,10.604954,-2.1071465,-5.7666835999999995,-1
672,673,1583552017901,0.7783,-2.2628999,-4.0228,10.356637,-1.8620089,-5.7608705,-1
673,674,1583552017911,0.2395,-2.0239,-3.8009998999999994,9.641077000000001,-1.5963962,-5.3288226,-1
674,675,1583552017921,-0.42639998,-1.9283999,-3.3256997999999998,8.966908,-1.4645523999999999,-5.0314627,-1
675,676,1583552017931,-0.8081,-1.8708999,-3.3999998999999996,8.783703,-1.421677,-5.4550257,-1
676,677,1583552017942,-0.8271,-1.9158,-4.004699700000001,8.926024,-1.4365976999999999,-6.071657,-1
677,678,1583552017952,-0.64059997,-1.9353,-4.5422,9.077117999999999,-1.407216,-6.588928999999999,-1
678,679,1583552017962,-0.6512,-1.9541998999999999,-5.1144,8.954888,-1.4195796,-6.9012384,-1
679,680,1583552017973,-0.79899997,-1.9577999,-5.5223,8.8667345,-1.225611,-7.5889297000000004,-1
680,681,1583552017982,-0.75009996,-1.7018,-6.2331,8.964734,-0.8727056999999999,-8.3274555,-1
681,682,1583552017992,-0.61149997,-1.3668,-6.7732997,9.08658,-0.5332845,-8.311022,-1
682,683,1583552018002,-0.5868,-0.98939997,-6.1334995999999995,8.786912,-0.10319967,-7.2350283,-1
683,684,1583552018013,-1.2161,-0.8725,-5.2306,7.759474000000001,-0.061138335999999995,-6.444281,-1
684,685,1583552018023,-2.2858,-0.95019996,-4.4586,6.919740700000001,-0.07526412,-5.6865835,-1
685,686,1583552018033,-2.8671,-1.0799,-3.8356998,6.705067,-0.12385684,-5.4975758,-1
686,687,1583552018043,-2.8269,-1.0814999,-3.8866,7.148148,0.10725065,-5.838778,-1
687,688,1583552018053,-2.3811998,-0.9435,-4.3759,7.4275894000000005,0.25694573,-6.5624210000000005,-1
688,689,1583552018064,-2.224,-0.8217,-5.2188,7.374007000000001,0.41676348,-7.036817599999999,-1
689,690,1583552018074,-2.2739,-0.70699996,-5.5519,7.462506299999999,0.38771700000000003,-6.275375,-1
690,691,1583552018084,-2.1955,-0.8121,-4.6826,7.2163343,0.10313263,-4.5861697,-1
691,692,1583552018094,-2.5753999,-1.1903,-2.9064999,6.6629963000000005,-0.38281370000000003,-2.7598347999999997,-1
692,693,1583552018105,-3.4031,-1.8621,-0.74719995,5.528557,-0.94176406,-0.74736446,-1
693,694,1583552018115,-4.2887,-2.2391,0.5119,5.1199617,-0.96231586,-0.27017128,-1
694,695,1583552018125,-4.559,-2.2101998,0.7951,5.344787,-0.5586918000000001,0.19196709,-1
695,696,1583552018135,-4.2545,-1.7414,1.2027,5.69118,-0.074469246,0.9485826999999999,-1
696,697,1583552018145,-3.9724,-1.3133,1.8334999,5.800107,0.29330885,1.6840335,-1
697,698,1583552018155,-3.8971,-0.9306,2.4782,5.7455287,0.5629821999999999,3.0047805,-1
698,699,1583552018166,-3.9972,-0.68689996,3.6107,5.315626,0.66534865,4.5631666,-1
699,700,1583552018176,-4.5365,-0.6044,5.1842,4.70249,0.3005585,6.5117400000000005,-1
700,701,1583552018186,-5.0348,-0.89879996,6.6793,4.850193,-0.014528016000000001,8.448439,-1
701,702,1583552018196,-4.8947,-1.1453999,8.5229,5.093357599999999,-0.14389153,10.220771000000001,-1
702,703,1583552018206,-4.666,-1.227,10.2077,5.1259955999999995,-0.15471332,11.492532,-1
703,704,1583552018216,-4.633,-1.1765,11.4063,4.9502707,0.07845319999999999,12.48466,-1
704,705,1583552018226,-4.825,-0.895,12.3116,4.977689,0.45763729999999997,13.027742,-1
705,706,1583552018237,-4.7418,-0.33859998,12.8474,5.404125,1.2245861999999998,13.177026000000001,-1
706,707,1583552018247,-4.3733997,0.41700000000000004,12.7914,5.785157,1.7670166,12.601124,-1
707,708,1583552018257,-3.9961,1.0947,12.1044,6.0130186,1.8739799,12.06965,-1
708,709,1583552018267,-3.7735999,1.2653999,11.5557995,6.3169575,1.2804286,11.729683,-1
709,710,1583552018277,-3.4773,0.7754,11.2455,6.829489,0.54782206,11.803567,-1
710,711,1583552018287,-2.4442,-0.2924,12.2857,7.436754,-0.12815683,12.685716000000001,-1
711,712,1583552018297,-2.4442,-0.2924,12.2857,7.6976843,-0.41615057,12.876084,-1
712,713,1583552018308,-2.1157,-0.5703,12.7239,7.972040700000001,-0.42898348,12.584308,-1
713,714,1583552018318,-1.5590000000000002,-0.3184,11.7828,8.283804,-0.37116832,11.462327,-1
714,715,1583552018328,-1.5590000000000002,-0.3184,11.7828,8.220491,-0.44899902,9.602214,-1
715,716,1583552018338,-1.2975,-0.4508,8.2839,8.665535,-0.8868219,7.749178999999999,-1
716,717,1583552018348,-0.3971,-1.0598999,6.6113,9.604694,-1.7180026000000002,6.032354,-1
717,718,1583552018358,0.5463,-1.9221,5.4003,10.526482000000001,-2.7451055,4.882676999999999,-1
718,719,1583552018368,1.4544,-2.7430000000000003,5.0873,11.375656,-3.6404412000000006,4.5450473,-1
719,720,1583552018379,2.1492,-3.0654,5.3108,12.007966,-3.9605842000000004,4.770782,-1
720,721,1583552018389,2.4426,-2.87,6.0544,12.113368,-3.8147101,5.471756500000001,-1
721,722,1583552018399,1.9018999,-2.5853999,6.752999999999999,11.453804,-3.7053335,5.988588,-1
722,723,1583552018409,0.9884,-2.6838999,6.5193,10.517335000000001,-3.9740875,5.355322,-1
723,724,1583552018419,0.4985,-3.1159,4.6566,10.181592,-4.606578400000001,3.2458577,-1
724,725,1583552018429,0.9454,-3.8246,2.3214,10.817282,-5.46646,0.9089348,-1
725,726,1583552018440,2.3994,-4.6358,0.42569998,12.383338,-6.4668055,-1.0070778,-1
726,727,1583552018450,4.1425,-5.3494997,-1.033,14.293335999999998,-7.351731299999999,-2.692864,-1
727,728,1583552018460,5.4255,-5.7495,-1.9813,15.331462,-7.739897999999999,-3.4848564,-1
728,729,1583552018470,6.1643996,-5.7247996,-2.1265,15.675901000000001,-7.5836916,-3.2586713,-1
729,730,1583552018480,5.750099700000001,-5.2604,-1.2648,14.674933,-7.1310344,-2.4349412999999998,-1
730,731,1583552018490,4.0467,-4.8862,-0.5846,12.705799,-6.882267,-2.1352832000000004,-1
731,732,1583552018501,2.1244,-4.7486997,-0.5631,11.045860000000001,-6.7759933000000006,-2.392861,-1
732,733,1583552018511,1.1817,-4.6486998,-1.2436,10.573274000000001,-6.749244999999999,-3.7599692000000005,-1
733,734,1583552018521,1.5146998999999999,-4.5234,-3.2673,11.342914,-6.614585400000001,-6.009111,-1
734,735,1583552018531,2.6845999,-4.3154,-5.5299997,12.539555,-6.5162125,-8.335787,-1
735,736,1583552018541,3.6316998,-4.2374,-7.4775996,13.20271,-6.5153985,-9.845502999999999,-1
736,737,1583552018552,4.1871,-4.2004,-8.9711,13.608872,-6.5987644,-11.30384,-1
737,738,1583552018562,4.3189,-4.1493,-9.4171,13.377698,-6.5217195,-11.019132,-1
738,739,1583552018572,3.7877998,-4.0425997,-8.4904995,12.680927,-6.364219,-9.961249,-1
739,740,1583552018582,2.6991,-3.781,-6.9606,11.167314,-5.952808999999999,-8.417917,-1
740,741,1583552018592,1.3269,-3.5088,-6.087999999999999,9.844507,-5.744962999999999,-8.57129,-1
741,742,1583552018602,0.1836,-3.3369,-6.8601,9.162591,-5.419151,-10.064065,-1
742,743,1583552018612,-0.1568,-3.0268,-8.601,9.347528,-5.063669,-11.750828,-1
743,744,1583552018622,0.3285,-2.6452,-9.9837,9.942459,-4.71788,-12.502157,-1
744,745,1583552018632,0.9928,-2.2319,-10.6038,10.413293,-4.2512115999999995,-12.959363,-1
745,746,1583552018642,1.0682,-1.9268999,-10.686399,10.114600999999999,-4.0123086,-12.639441,-1
746,747,1583552018652,0.53279996,-1.7664,-10.1468,9.434773,-3.8110902,-12.0163355,-1
747,748,1583552018663,-0.0541,-1.6682,-9.5181,9.112283999999999,-3.6651495,-11.527315,-1
748,749,1583552018672,-0.2994,-1.5555999,-9.158,8.939575,-3.4850190000000003,-11.453756,-1
749,750,1583552018682,-0.5275,-1.3174,-9.2295,8.59753,-3.0003178,-11.553614,-1
750,751,1583552018692,-0.963,-0.9129999999999999,-9.298699000000001,8.020241,-2.6027846,-11.682478999999999,-1
751,752,1583552018702,-1.5668,-0.652,-9.448,7.5887194000000004,-2.3722133999999997,-11.63561,-1
752,753,1583552018712,-1.946,-0.49179998,-9.2168,7.345028,-2.1216552,-11.128221,-1
753,754,1583552018722,-2.0902,-0.2933,-8.6227,7.3174944,-1.8750620999999998,-10.465314999999999,-1
754,755,1583552018733,-2.0876,-0.1352,-8.0483,7.351559,-1.8284040000000001,-9.840513,-1
755,756,1583552018743,-2.0361,-0.2351,-7.442,7.442625,-1.9413241,-9.421978999999999,-1
756,757,1583552018753,-1.8312,-0.38549998,-6.7841,7.650967999999999,-2.1222873,-8.505459,-1
757,758,1583552018763,-1.8649,-0.60289997,-6.3134,7.515016,-2.3562488999999998,-8.137030000000001,-1
758,759,1583552018773,-2.0300999,-0.8373,-6.1516,7.3965607,-2.4720516,-8.140927,-1
759,760,1583552018784,-2.0874,-0.9159,-6.2272997000000005,7.553389999999999,-2.4886193,-7.730542,-1
760,761,1583552018793,-1.9487,-0.9557,-5.7377996,7.612709,-2.5090467999999997,-6.8852644,-1
761,762,1583552018803,-1.9871,-1.046,-4.6647,7.3407273,-2.5992603,-5.7389589999999995,-1
762,763,1583552018813,-2.4573998,-1.1191,-3.8028,6.740348299999999,-2.4691498,-5.203998599999999,-1
763,764,1583552018823,-3.0549,-0.9359999999999999,-3.5231998,6.183036,-2.2112942,-4.903622,-1
764,765,1583552018833,-3.4747999,-0.7838,-3.3479997999999997,6.0440187000000005,-2.2078657,-4.393264299999999,-1
765,766,1583552018844,-3.5384,-0.8437,-2.8566,6.4170065,-2.587385,-3.8446953,-1
766,767,1583552018854,-3.0779998,-1.3104,-2.4343,7.055176299999999,-3.0372746,-3.5987437000000004,-1
767,768,1583552018864,-2.2423,-1.8258,-2.2326999,8.004257,-3.5128492999999996,-3.1593025000000003,-1
768,769,1583552018874,-1.5331999,-2.1251,-1.8828,8.250103,-3.5393673999999997,-2.7510432999999996,-1
769,770,1583552018884,-1.453,-2.102,-1.5922999,7.8708234,-3.4107604,-2.3997083,-1
770,771,1583552018894,-1.8942,-1.9666,-1.273,7.3217463,-3.3188806000000004,-1.5924027,-1
771,772,1583552018904,-2.4536,-1.9208,-0.3795,6.894410000000001,-3.3428133,-0.4740710999999999,-1
772,773,1583552018915,-2.9531,-1.9764999,1.1221,6.4884877,-3.3503022000000002,1.3780164,-1
773,774,1583552018925,-3.2642999,-2.008,2.4789,6.210645700000001,-3.5157032,2.2257745,-1
774,775,1583552018935,-3.5338,-2.2431997999999997,3.1153,6.2343864,-3.8194508999999996,2.6724749,-1
775,776,1583552018945,-3.3990998,-2.5421,3.5563998,6.6414967,-3.9598086,3.1934054,-1
776,777,1583552018955,-2.9585,-2.5932,3.9954998,6.995483999999999,-3.8278209999999997,3.4326053,-1
777,778,1583552018965,-2.6741998,-2.4027,4.1252,6.9924764999999995,-3.638746,3.583871,-1
778,779,1583552018976,-2.7428,-2.1905,4.2482,6.675484,-3.4791677000000005,4.0073767,-1
779,780,1583552018986,-3.0170999,-2.0454,4.5706997000000005,6.467226999999999,-3.2919507000000006,4.507707,-1
780,781,1583552018996,-3.2907,-1.7785,5.1418,6.067682700000001,-3.1609976000000004,5.390028,-1
781,782,1583552019006,-3.6216998,-1.6622,5.8062,5.729038,-2.9321787,6.326027,-1
782,783,1583552019016,-3.9610999,-1.3819,6.671,5.522801,-2.572493,7.0546875,-1
783,784,1583552019026,-4.1610000000000005,-0.9659,7.3153,5.659299,-2.2663991,7.0839550000000004,-1
784,785,1583552019037,-4.0154,-0.6001,7.2597,6.094488,-1.8757517,7.0541325,-1
785,786,1583552019047,-3.5633998,-0.1397,7.1495,6.411289,-1.5275676999999999,7.098109,-1
786,787,1583552019057,-3.2344,0.45859998,7.218,6.362591,-1.3908876000000001,7.339195299999999,-1
787,788,1583552019068,-3.2344,0.45859998,7.218,6.043262,-1.3314921999999998,7.7377634,-1
788,789,1583552019078,-4.1493998,0.4125,8.0091,5.369974,-1.6564044999999998,8.151989,-1
789,790,1583552019088,-4.1493998,0.4125,8.0091,4.9954348,-1.9087724999999998,8.238161,-1
790,791,1583552019098,-4.4592,-0.0804,7.631,5.2928042,-2.2913754,7.570762599999999,-1
791,792,1583552019108,-3.2996,-0.07279999599999999,6.8717,6.547088,-2.2746065,6.8399663,-1
792,793,1583552019118,-3.2996,-0.07279999599999999,6.8717,7.433928999999999,-2.060948,6.4053325999999995,-1
793,794,1583552019129,-1.8283,0.4025,6.256,7.627591000000001,-2.1091096,6.472073,-1
794,795,1583552019139,-2.2653,0.1116,7.0348997,7.0967009999999995,-2.5037985000000003,7.268327,-1
795,796,1583552019149,-2.8395,-0.083799995,7.4186997,6.5182047,-2.7710395,7.469804300000001,-1
796,797,1583552019159,-3.2052999,-0.2844,7.013999999999999,6.181809400000001,-3.0885203,6.960317999999999,-1
797,798,1583552019169,-3.2433,-0.5429999999999999,6.4863,6.190668,-3.4403148,6.4475945999999995,-1
798,799,1583552019179,-2.7956998,-0.7507,5.9581,6.718456,-3.7543094,5.873858,-1
799,800,1583552019189,-1.9411999,-0.6842,5.2318997000000005,7.7358856,-3.6076407,5.233609700000001,-1
800,801,1583552019200,-1.1618998999999999,-0.2521,5.1721997,8.233592999999999,-3.440286,5.6117597,-1
801,802,1583552019210,-1.0587,-0.3047,5.915499700000001,7.988484,-3.8018197999999996,6.3754816,-1
802,803,1583552019220,-1.5745,-0.6393,6.2734,7.483115700000001,-4.179874,6.4971356,-1
803,804,1583552019231,-2.0899,-1.0356,6.1215,6.9070516,-4.854646,6.316134,-1
804,805,1583552019241,-2.3862,-1.6141,6.1477,6.594158,-5.646342,6.5475097,-1
805,806,1583552019251,-2.3862,-1.6141,6.1477,6.486821,-6.75683,7.133792,-1
806,807,1583552019261,-2.45,-3.0771,7.0334997,6.7389116,-7.371632000000001,7.6394953999999995,-1
807,808,1583552019272,-1.9138998999999999,-3.4392998,7.159,7.5889014999999995,-7.560247400000001,7.2047563,-1
808,809,1583552019282,-0.78599995,-3.1920998,6.2467,8.7242985,-7.162647,6.3252606,-1
809,810,1583552019292,0.253,-2.5609,5.3167,9.306108,-6.8092246,5.698468,-1
810,811,1583552019302,0.775,-2.2509,4.5081997000000005,9.34662,-7.145964,5.1452355,-1
811,812,1583552019312,0.6645,-2.6891,3.9366999,8.932756,-7.8365089999999995,4.924154799999999,-1
812,813,1583552019323,0.3496,-3.1696,3.7847998,8.631260000000001,-8.366845,4.830743,-1
813,814,1583552019333,0.1864,-3.61,3.6093998,8.419469,-9.067129,4.7274566,-1
814,815,1583552019343,0.14019999,-4.1924,3.4405,8.646803,-9.630399,4.4605227,-1
815,816,1583552019353,0.68759996,-4.5099998,2.9810000000000003,9.264545,-9.871131,3.8995800000000003,-1
816,817,1583552019363,1.4094,-4.4837,2.2917,9.789594000000001,-9.813824,3.3073885,-1
817,818,1583552019374,1.8707999,-4.2943,1.7425,9.743482,-9.843052,3.298061,-1
818,819,1583552019384,1.7635,-4.2399,1.8152,9.262428,-10.085737,3.5853457000000004,-1
819,820,1583552019394,1.3695998999999999,-4.4783998,1.8794999,9.038275,-10.5890465,2.9014373,-1
820,821,1583552019404,1.3848,-4.8413997,0.8914,9.687792,-10.885095,1.4022264,-1
821,822,1583552019414,2.2896,-5.0120997,-0.7488,11.067829,-11.171391999999999,-0.35678393,-1
822,823,1583552019425,3.8644998,-5.2263,-2.6485,12.596814,-11.455776,-2.3778639999999998,-1
823,824,1583552019435,5.3775997,-5.3715997,-4.5884,13.456945999999999,-11.287664999999999,-3.4035587,-1
824,825,1583552019445,6.0875998,-5.062,-5.3533,13.242636,-10.762272,-3.3538358,-1
825,826,1583552019455,5.6794,-4.477999700000001,-5.1408997,12.028929,-10.222226,-2.7532360000000002,-1
826,827,1583552019465,4.3732,-3.8930000000000002,-4.4974,10.586978,-9.681289999999999,-2.0431638,-1
827,828,1583552019475,2.9452,-3.3478,-3.7726,9.146435,-9.213693,-1.4102518999999998,-1
828,829,1583552019486,1.8175,-2.971,-3.3128,8.773695,-9.03631,-1.6308056,-1
829,830,1583552019496,1.4761,-2.7677,-3.6011,9.429832000000001,-8.920316999999999,-2.5294645,-1
830,831,1583552019506,2.165,-2.6376998,-4.5755,10.470505000000001,-8.8720875,-3.840721,-1
831,832,1583552019519,4.0754,-2.5626,-6.7791,11.334773,-8.918631,-4.6364293,-1
832,833,1583552019529,4.1008,-2.6562,-6.5242,11.160561999999999,-9.001748,-4.181799,-1
833,834,1583552019540,3.3825,-2.6825,-5.4186,10.176525,-9.005072,-2.7579097999999997,-1
834,835,1583552019550,2.3876998,-2.4938,-4.3048997,9.217514,-8.673148,-1.9312015,-1
835,836,1583552019560,1.4689,-2.0866,-3.9197,8.342395,-8.267427,-1.7320421000000001,-1
836,837,1583552019570,0.65419996,-1.7595999,-3.6669998,7.586392,-7.9544864,-1.3058167999999999,-1
837,838,1583552019580,0.0268,-1.5071,-3.1543,7.1028020000000005,-7.7429633,-0.8442337999999999,-1
838,839,1583552019590,-0.1255,-1.3837,-3.1046,7.186186999999999,-7.612709,-0.9929808000000001,-1
839,840,1583552019601,0.32279998,-1.2612,-3.4696998999999997,7.758822400000001,-7.5479984,-1.304227,-1
840,841,1583552019611,0.972,-1.2989,-4.0053,8.347854,-7.6563315,-1.8484386000000002,-1
841,842,1583552019621,1.5961,-1.3636999,-4.3993998,8.930612,-7.6618767000000005,-1.9639636000000003,-1
842,843,1583552019631,1.9217,-1.2746998999999999,-4.161299700000001,8.931924,-7.5864687,-1.5349514,-1
843,844,1583552019641,1.4853,-1.2715,-3.4719,8.268452,-7.6655636,-0.78769237,-1
844,845,1583552019651,0.6839,-1.3838999,-2.7075999,7.408503,-7.6975307,0.042214565,-1
845,846,1583552019661,0.0368,-1.3225,-2.1189,7.0114,-7.589792,0.36957854,-1
846,847,1583552019672,-0.21239999,-1.2105,-1.8263999,6.9136977,-7.463311,0.61938,-1
847,848,1583552019681,-0.2258,-1.0146998999999999,-1.5615,6.970766,-7.2366470000000005,0.71391267,-1
848,849,1583552019691,-0.0801,-0.81219995,-1.6779,7.157800999999999,-7.103855,0.52792144,-1
849,850,1583552019701,0.2101,-0.7226,-2.0097,7.5063777,-7.019608,0.17128119,-1
850,851,1583552019711,0.708,-0.6299,-2.3281,8.045169,-7.0062194,-0.04771165,-1
851,852,1583552019721,1.2396,-0.7532,-2.3752,8.477849,-7.1963477,0.0019153614000000001,d
852,853,1583552019731,1.4846,-0.9303,-2.1138,8.573808999999999,-7.341139999999999,0.25185087,-1
853,854,1583552019742,1.2164999,-1.1446999,-1.7651999,8.1570835,-7.5878572,0.6654923,-1
854,855,1583552019752,0.73929995,-1.2014999,-1.2332,7.626586,-7.4812199999999995,1.2535273999999998,-1
855,856,1583552019762,0.30879998,-1.0138,-0.7651,7.298341000000001,-7.192852,1.6200508999999998,-1
856,857,1583552019772,0.0356,-0.7105,-0.4215,7.1202693,-6.861724400000001,1.7427584999999999,-1
857,858,1583552019782,-0.11109999599999999,-0.3946,-0.3927,7.076178,-6.666913,1.6671208999999998,-1
858,859,1583552019793,-0.0808,-0.28939998,-0.54109997,7.291321000000001,-6.6980762,1.4126556000000001,-1
859,860,1583552019803,0.2915,-0.4439,-0.91899997,7.862903,-6.9229392999999995,1.0347452,-1
860,861,1583552019813,0.9711,-0.6735,-1.2975,8.490538,-7.1916265,0.7192278,-1
861,862,1583552019823,1.5102999,-0.9231,-1.5388,8.826099000000001,-7.4168825,0.67472434,-1
862,863,1583552019833,1.6832999,-1.1402999,-1.4137,8.795511,-7.546638499999999,1.0688673999999998,-1
863,864,1583552019843,1.4382,-1.2296,-0.8908,8.248399000000001,-7.6023474,1.6233166,-1
864,865,1583552019853,0.7721,-1.3076999,-0.2333,7.610075500000001,-7.683089,2.293674,-1
865,866,1583552019864,0.16489999,-1.4086,0.3266,7.204890299999999,-7.7065234,2.4020164,-1
866,867,1583552019874,-0.059699997000000005,-1.4289,0.1739,7.4086084,-7.698805,1.8162318,-1
867,868,1583552019884,0.26839998,-1.443,-0.41889998,8.141167,-7.675428,1.5134324,-1
868,869,1583552019894,1.0188999,-1.4217,-0.59779996,8.685148,-7.8167715,1.8612906999999999,-1
869,870,1583552019904,1.5218999,-1.6312,-0.2969,9.043061999999999,-8.183477,1.8116349999999999,-1
870,871,1583552019914,1.9032999,-1.9964998999999999,-0.5306,9.73377,-8.361625,1.4786781,-1
871,872,1583552019924,2.7124999,-2.1165,-0.9769,10.618533,-8.374247,0.75830114,-1
872,873,1583552019935,3.574,-2.1598,-1.8751999,11.08274,-8.615382,-0.11472057,-1
873,874,1583552019945,3.9915,-2.4436,-2.7749999,11.42014,-9.041981,-0.65057164,-1
874,875,1583552019955,4.3928,-2.9283,-3.3509,12.148811,-9.535684,-0.9452021,-1
875,876,1583552019965,5.2286,-3.4153,-3.6269998999999995,13.251714999999999,-9.826322,-0.7365235,-1
876,877,1583552019975,6.3374,-3.6596,-3.3867998,14.234775,-9.944815,-0.32994014,-1
877,878,1583552019986,7.2314,-3.813,-2.9768,14.639481,-10.158349000000001,0.25457070000000004,-1
878,879,1583552019997,7.464699700000001,-4.0965,-2.3271,14.352464000000001,-10.510679,1.0479325000000002,-1
879,880,1583552020007,7.107199700000001,-4.4430000000000005,-1.6388999,14.252472000000001,-10.689124000000001,1.1329361999999998,-1
880,881,1583552020017,6.942,-4.6836,-1.4855,14.386375,-10.562644,1.1093965000000001,-1
881,882,1583552020027,6.9866,-4.6292,-1.4474,14.493607,-10.314316999999999,1.3125301999999999,-1
882,883,1583552020038,7.0065,-4.466,-1.1731,14.299617999999999,-10.14226,1.8224663,-1
883,884,1583552020047,6.7239,-4.3922,-0.5868,14.091111999999999,-10.027492,2.2129319,-1
884,885,1583552020057,6.3431,-4.3401,0.013599999,13.878373000000002,-9.848289999999999,2.4586057999999995,-1
885,886,1583552020067,6.0811,-4.3089,0.2483,13.854249,-9.788636,2.2268852999999997,-1
886,887,1583552020078,5.9315,-4.3856997,0.13239999,13.765721,-9.635043,2.2960396,-1
887,888,1583552020087,5.718999999999999,-4.3656,0.3306,13.505338,-9.39591,2.4219458,-1
888,889,1583552020097,5.325999700000001,-4.2802,0.5963,13.071355,-8.928064,2.6115856,-1
889,890,1583552020107,4.7616997,-3.9745998,0.93359995,12.434526,-8.572811999999999,2.9793255000000003,-1
890,891,1583552020117,3.1187,-3.7682,2.2523,11.571013,-8.341514,3.727504,-1
891,892,1583552020127,3.1187,-3.7682,2.2523,11.116173,-8.203436,4.292516,-1
892,893,1583552020137,1.8964,-3.7175,3.6116,10.664808,-7.862615600000001,4.607085700000001,-1
893,894,1583552020148,1.8964,-3.7175,3.6116,10.495797,-7.751908,4.458387,-1
894,895,1583552020158,1.5489998999999999,-3.7930998999999996,3.6071,10.52312,-7.2913494000000005,4.030791799999999,-1
895,896,1583552020168,1.143,-3.0879,2.9661999,10.21422,-6.482962000000001,3.5258644,-1
896,897,1583552020178,1.143,-3.0879,2.9661999,9.8905525,-5.938549500000001,3.2935980000000002,-1
897,898,1583552020188,0.195,-1.9820999,2.8992,9.478242,-4.812422,3.3402083,-1
898,899,1583552020199,-0.1258,-1.123,3.02,9.193897,-3.6907097999999996,3.286741,-1
899,900,1583552020209,-0.8221,-0.4992,3.0672,8.532867999999999,-2.9162333,3.2042942,-1
900,901,1583552020219,-1.6064999,-0.71379995,3.3946,7.837084,-3.0307624,3.4043059999999996,-1
901,902,1583552020229,-2.1148999,-1.5474,3.8456998,7.467601299999999,-3.6593456,3.5692952000000004,-1
902,903,1583552020240,-2.2108998,-1.8421999,3.6522,7.361136,-3.269273,3.0322563999999996,-1
903,904,1583552020250,-2.2108998,-1.8421999,3.6522,6.768178,-2.5370204,2.7142777000000002,-1
904,905,1583552020260,-3.5758997999999997,-1.0271,3.5886998,5.9198747,-2.0246901999999998,3.1235042,-1
905,906,1583552020270,-4.895,-0.4407,4.0713,4.302926,-0.8302421,3.409123,-1
906,907,1583552020280,-6.2166,0.4906,3.9261,3.1823057999999995,0.31141862,3.2291844,-1
907,908,1583552020291,-6.9231997000000005,1.1525999,3.9527,2.7669406000000003,1.0463619,3.3401123999999998,-1
908,909,1583552020300,-7.1039996,1.5252999,3.9536998,2.7276947,1.4635946000000002,3.2564877999999995,-1
909,910,1583552020310,-6.7209997,1.3346,4.0829,3.26571,1.1062936,3.4238807999999996,-1
910,911,1583552020320,-5.5209,0.081999995,4.0656,4.743632,-0.35384387,2.9351477999999998,-1
911,912,1583552020330,-4.4962,-0.96,2.8716,5.4559736,-0.93027186,1.4465575000000002,-1
912,913,1583552020340,-4.3152,-0.9887,1.4559,5.342489,-0.6067003000000001,0.17910543,-1
913,914,1583552020351,-4.7822,-0.59419996,0.6235,4.725426000000001,-0.06826348,-0.32005690000000003,-1
914,915,1583552020361,-5.4453998,-0.087,0.5841,4.089421,0.6720812,-0.17866491,-1
915,916,1583552020371,-6.186,0.43539998,0.8788,3.2310996,1.1425896999999998,0.17094600000000001,-1
916,917,1583552020381,-7.053499700000001,0.63049996,1.3923999,2.5532340000000002,1.3725002,0.7726568,-1
917,918,1583552020392,-7.5969,0.85429996,2.4015,2.0677187,1.7061368000000001,2.0283103,-1
918,919,1583552020402,-7.7193,0.8735,3.2077,2.2836852000000003,1.513327,2.6168047999999997,-1
919,920,1583552020412,-7.1376,0.4299,3.388,3.1408384,0.9274946,2.4805748,-1
920,921,1583552020422,-6.058799700000001,-0.3227,3.0296,4.709155,0.14279976,1.6981210999999998,-1
921,922,1583552020432,-4.4042997,-0.8231,1.9957999,5.9953203,0.10528742,0.50750375,-1
922,923,1583552020443,-3.6143,-0.6031,0.7783,6.048644,0.36707902,-0.4032123,-1
923,924,1583552020452,-4.1189,-0.38299999999999995,-0.4868,5.2223096,0.59425044,-1.7103602999999998,-1
924,925,1583552020462,-4.7105,-0.22039999,-1.2666998999999999,4.9794126,0.6555131999999999,-1.8316599999999998,-1
925,926,1583552020472,-4.7216,-0.2043,-1.0217999,5.2355733,0.7888799,-0.9044145,-1
926,927,1583552020482,-4.3876,-0.104499996,-0.0139,5.601244400000001,0.90161806,0.1336635,-1
927,928,1583552020492,-4.0516,-0.027199998,0.7766,5.8361635000000005,1.1205343,0.45304042,-1
928,929,1583552020502,-3.6362,0.4545,0.7989,6.4591637,1.8040022,0.22144450000000002,-1
929,930,1583552020512,-3.0537,0.92179996,0.40649998,7.0362716,2.0761081999999997,-0.36093068,-1
930,931,1583552020523,-2.5105,0.93289995,-0.0866,7.5440817,1.6867436999999998,-0.7082623,-1
931,932,1583552020533,-1.9869999999999999,0.2498,-0.3033,8.04469,0.80877095,-0.8228105,-1
932,933,1583552020543,-1.5416,-0.67109996,-0.37399998,8.319017,-0.037416585,-0.6788998,-1
933,934,1583552020553,-1.4291999,-1.2148,-0.16489999,8.234473,-0.13067552,-0.37566940000000004,-1
934,935,1583552020563,-1.5322,-1.2923,0.3281,8.225988000000001,0.06124368,0.11334151,-1
935,936,1583552020573,-1.4106,-0.99539995,0.7657,8.418683999999999,0.55594325,0.5022269,-1
936,937,1583552020584,-1.2516,-0.48409998,0.9288,8.58035,1.1866524999999999,0.43994892,-1
937,938,1583552020594,-1.1137999,-0.030399999,0.7515,8.708210000000001,1.426676,0.013273453999999999,-1
938,939,1583552020604,-0.92829996,0.1809,0.057499997000000004,9.066056,1.4126651000000001,-1.0043389,-1
939,940,1583552020614,-0.5577,0.0721,-0.8229,9.663314999999999,1.1796902,-1.6713634999999998,-1
940,941,1583552020624,0.067099996,-0.1461,-1.4541998999999999,10.19047,0.9227062,-1.9889495,d
941,942,1583552020634,0.6926,-0.4829,-1.7102,10.814283,0.50187254,-1.6887835999999998,-1
942,943,1583552020645,1.1333,-0.8003,-1.2037,10.798214,0.39521566,-0.6872508,-1
943,944,1583552020655,0.9683,-0.8504,-0.14479999,10.014371,0.47970223,-0.022697033,-1
944,945,1583552020665,0.0894,-0.77959996,0.3304,9.091512,0.7046423,-0.076518685,-1
945,946,1583552020675,-0.74939996,-0.5294,0.2377,8.818113,1.2262813999999997,-0.17529386,-1
946,947,1583552020685,-0.90279996,-0.048,0.14829999,9.027089,1.4964431999999999,-0.11558248,-1
947,948,1583552020695,-0.6265,0.1424,0.2324,9.358054,1.5229613000000002,-0.044024583,-1
948,949,1583552020706,-0.35169998,0.15869999,0.2628,9.648441,1.3529729,-0.48265192,-1
949,950,1583552020716,-0.0679,-0.0131,-0.1767,9.993973,1.1715117,-1.076797,-1
950,951,1583552020726,0.27449998,-0.1818,-0.76159996,10.322341999999999,1.0900226,-1.4909556000000002,-1
951,952,1583552020736,0.5979,-0.2635,-1.153,10.616905000000001,1.0074992,-1.1128728,-1
952,953,1583552020746,0.9026,-0.3419,-0.7609999999999999,10.351303,0.8806065999999999,-0.59423125,-1
953,954,1583552020756,0.6304,-0.49359998,-0.2316,9.663017,1.0796987,-0.12155841,-1
954,955,1583552020767,-0.0433,-0.3083,0.2478,8.981063,1.4917889,-0.0865456,-1
955,956,1583552020777,-0.7252,0.070099995,0.2707,8.600949,1.8964279999999998,-0.28535053,-1
956,957,1583552020787,-1.1033,0.45009997,0.0652,8.480713,2.235514,-0.07094499,-1
957,958,1583552020797,-1.2171999,0.7571,0.2771,8.17595,2.3739946,0.47748999999999997,-1
958,959,1583552020807,-1.8679999,0.77059996,1.5832,7.7530092999999995,2.2493048,1.4579444,-1
959,960,1583552020817,-1.8679999,0.77059996,1.5832,7.6574425999999995,2.1865191000000004,1.8661749,-1
960,961,1583552020828,-2.033,0.6667,2.2316,7.7689642999999995,2.0758495,2.2385786,-1
961,962,1583552020837,-1.9642998999999999,0.5529999999999999,2.5741,7.927422,2.1955404,2.3618607999999996,-1
962,963,1583552020847,-1.7694,0.6914,2.7602,7.7030087,2.3749425,2.6279714,-1
963,964,1583552020857,-1.9873999,0.88089997,3.0200999,7.1629057000000005,2.3722133999999997,3.0610060000000003,-1
964,965,1583552020867,-2.7056,0.8822,3.5540998,6.050713,2.4772232000000005,3.7683489999999997,-1
965,966,1583552020878,-4.5934,1.3251,4.4874,4.9232062999999995,2.8405192,4.2250190000000005,-1
966,967,1583552020888,-4.5934,1.3251,4.4874,4.348023400000001,3.1059978,4.5534077,-1
967,968,1583552020898,-5.7394,1.8618,5.5081997000000005,3.9252743999999997,3.2637758,5.4047766,-1
968,969,1583552020908,-5.7553997,1.8247,6.6046,3.9787226,3.164043,6.6117125,-1
969,970,1583552020918,-5.8898997,1.6703,7.9804997,3.768799,2.9139159,7.961448700000001,-1
970,971,1583552020928,-6.2992,1.2005,8.8357,3.3474864999999996,2.3373346,8.545011,-1
971,972,1583552020938,-6.6496997,0.77809995,8.381599000000001,3.026654,1.927543,7.827507499999999,-1
972,973,1583552020949,-6.9122,0.79829997,7.0959,2.8110611,1.9013887999999999,6.4324346,-1
973,974,1583552020959,-6.7335997,0.7539,5.7967997,3.1449084,1.7072764999999999,5.1457809999999995,-1
974,975,1583552020969,-6.0551996,0.5851,5.0818996,3.8473193999999995,1.4713423,4.625291000000001,-1
975,976,1583552020979,-5.4349,0.6173,5.673899700000001,4.4343395,1.4518343,5.6055345999999995,-1
976,977,1583552020989,-5.4213,0.7438,7.0263,4.257407700000001,1.4225771,6.7590710000000005,-1
977,978,1583552020999,-6.2096995999999995,0.5144,8.6819,3.3921816,0.95083326,8.339531,-1
978,979,1583552021010,-6.2096995999999995,0.5144,8.6819,2.8198717,0.104550004,8.709924,-1
979,980,1583552021020,-6.9943,-1.3713,8.1342,2.9206386,-1.4749719,6.517026400000001,-1
980,981,1583552021030,-5.94,-2.3446,6.0471,4.4669669999999995,-2.657497,4.280794599999999,-1
981,982,1583552021040,-4.2724,-3.2798,3.9334,6.120882,-3.6490507000000005,2.0916226000000004,-1
982,983,1583552021050,-2.7754998,-3.8558998,2.2326,7.45903,-4.410053,0.7770142,-1
983,984,1583552021060,-1.6264,-4.4407,1.9463999,8.482935000000001,-5.0896419999999996,0.8062714,-1
984,985,1583552021070,-0.7791,-4.4582,2.3651,8.999315,-5.00415,1.1719138999999998,-1
985,986,1583552021080,-0.8028,-4.0875998,2.6712,8.703076,-5.0742709999999995,1.0400890999999999,-1
986,987,1583552021090,-1.1161,-4.6963,1.5340999,8.580513,-6.2071977,-1.0076813,-1
987,988,1583552021101,-0.7831,-5.6819997,-0.6382,9.229494,-7.244184,-3.2243671000000003,-1
988,989,1583552021111,0.5543,-6.4556,-2.9104997999999997,10.738062,-8.169025,-5.6322737,-1
989,990,1583552021121,1.9813999,-6.8848,-4.7195,11.718123,-8.572611,-7.3299923,-1
990,991,1583552021131,2.5081,-6.825999700000001,-5.9062,12.124141999999999,-8.591258,-8.10035,-1
991,992,1583552021141,3.1832,-6.3659,-5.8940997,12.958089999999999,-7.788031599999999,-8.133956,-1
992,993,1583552021152,3.7352998,-5.143399700000001,-6.2014,12.992385,-6.8159094,-9.069083000000001,-1
993,994,1583552021162,3.5635,-4.4701,-7.6274996,12.57294,-7.173641,-10.98816,-1
994,995,1583552021172,3.2769999999999997,-4.9024997,-9.4388,12.641797,-7.767758000000001,-12.093094,-1
995,996,1583552021182,3.9901,-5.4929,-10.3799,13.883737,-8.441457000000002,-12.816094,-1
996,997,1583552021192,5.0622,-5.811899700000001,-10.961599,14.386586,-9.019963,-13.574060000000001,-1
997,998,1583552021203,5.2388997,-6.3234997,-11.752999,14.154607,-9.736749,-14.376644,-1
998,999,1583552021213,4.9069,-6.8493,-12.6355,13.846607,-9.991578,-15.218321,-1
999,1000,1583552021223,4.8564997000000005,-6.5593996,-13.193999,14.03459,-9.123795,-15.294255999999999,-1
1000,1001,1583552021233,4.9302,-5.4377,-13.078899,13.435359,-8.171467999999999,-14.790822,-1
1001,1002,1583552021243,3.7979998999999998,-4.6714997,-12.3392,11.713403,-7.7892094,-13.695398,-1
1002,1003,1583552021254,2.053,-4.415499700000001,-11.1966,10.372544,-7.588183,-12.807792,-1
1003,1004,1583552021264,0.9939,-4.255,-10.6923,9.549494000000001,-7.643718700000001,-12.923900999999999,-1
1004,1005,1583552021274,0.4754,-4.3257,-11.0487995,9.568992999999999,-7.6179,-13.717185999999998,-1
1005,1006,1583552021284,0.61399996,-4.2176,-11.906799000000001,9.785378999999999,-7.345391800000001,-14.491748999999999,-1
1006,1007,1583552021294,0.77919996,-3.8713,-12.6958,9.633655000000001,-6.870009,-14.744825,-1
1007,1008,1583552021304,0.5372,-3.3597,-12.8052,9.13614,-6.329369,-13.804622,-1
1008,1009,1583552021315,-0.044099998,-2.8191,-11.6845,8.30401,-5.8498683,-11.86008,-1
1009,1010,1583552021325,-0.9151,-2.3755,-9.7522,7.5771503,-5.5859312999999995,-10.488691000000001,-1
1010,1011,1583552021335,-1.5905,-2.1747,-8.7324,7.2067766,-5.4861407,-10.874751,-1
1011,1012,1583552021346,-1.9296999,-2.195,-9.5029,7.142066499999999,-6.1481376,-12.249559,-1
1012,1013,1583552021356,-1.9612999,-2.8037,-10.6771,7.4235864000000005,-6.793193,-12.969018,-1
1013,1014,1583552021366,-1.5998,-3.5839,-11.535,7.650901299999999,-7.165453,-12.4503565,-1
1014,1015,1583552021376,-1.4776,-3.8521,-10.989699,6.5595284,-7.2666699999999995,-10.579087,-1
1015,1016,1583552021386,-2.5976,-3.9819,-9.182899,5.548878,-7.192297,-8.761935000000001,-1
1016,1017,1583552021396,-3.8595,-3.9088,-6.909,4.527320400000001,-6.8765491999999995,-5.808678,-1
1017,1018,1583552021406,-4.6793,-3.6883998,-4.5485,4.2101846,-6.682466000000001,-4.4483885999999995,-1
1018,1019,1583552021417,-5.0136,-3.5154998,-3.2640998,4.5062513,-6.729698700000001,-4.734946,-1
1019,1020,1583552021427,-4.7327,-3.5799,-3.6132998,5.421239,-6.9643974,-5.110701000000001,-1
1020,1021,1583552021437,-3.8163998,-3.8119998,-4.0422997,6.027450599999999,-7.746314999999999,-5.4146595,-1
1021,1022,1583552021447,-3.2092,-4.5834,-4.394,6.303694,-8.493305,-4.7475867,-1
1022,1023,1583552021458,-2.9343,-5.3164,-3.7626998,6.451942400000001,-8.772633,-2.4434361,-1
1023,1024,1583552021468,-2.7596998,-5.5757,-1.9064,6.1796737,-8.675227,-1.0149404,-1
1024,1025,1583552021478,-3.6220999,-5.0643,0.8778,5.5224752,-8.167052,0.11741165,-1
1025,1026,1583552021488,-3.892,-4.9182,1.8621999,5.3697443,-8.058069,1.2248257,-1
1026,1027,1583552021498,-3.6969998,-4.8787,2.9189,5.647232499999999,-8.050714,2.1929162,-1
1027,1028,1583552021508,-3.2119999999999997,-5.1953998,3.2398,6.1519685,-8.466501,2.3935027,-1
1028,1029,1583552021519,-3.2119999999999997,-5.1953998,3.2398,6.7114644,-8.802158,2.4314457999999997,-1
1029,1030,1583552021529,-1.4533,-5.4698,3.5749998,8.02389,-8.668868,2.9167504,-1
1030,1031,1583552021539,-0.2716,-5.0787997,4.9902,9.0962515,-8.300889,4.6443105000000005,-1
1031,1032,1583552021549,0.123799995,-4.764199700000001,6.74,9.3328085,-8.015452,6.4586945,-1
1032,1033,1583552021559,0.0164,-4.488,8.1796,9.131437,-7.782037,7.846785000000001,-1
1033,1034,1583552021570,-0.2096,-4.2815,9.571,8.957054,-7.713438000000001,9.227771,-1
1034,1035,1583552021580,-0.070599996,-4.4771,10.7837,9.34115,-8.027941,10.413877000000001,-1
1035,1036,1583552021590,0.7003,-4.6271,11.0955,10.295106,-8.123038000000001,10.264699,-1
1036,1037,1583552021600,1.9068999,-4.4902997000000004,10.340899,11.555786999999999,-7.914330499999999,9.592082000000001,-1
1037,1038,1583552021610,3.1634998,-3.9431,9.917399000000001,12.671111,-7.368184599999999,9.525934,-1
1038,1039,1583552021620,3.8574,-3.5389998,10.097999999999999,13.006185,-7.206307400000001,10.047037,-1
1039,1040,1583552021631,3.8574998,-3.5798,11.121099000000001,12.884024,-7.35199,11.348353,-1
1040,1041,1583552021641,3.8019,-3.6596,12.351999000000001,12.975453,-7.298887,12.330848,-1
1041,1042,1583552021651,4.0559998,-3.4168,12.8435,13.246898000000002,-7.014829,12.589277000000001,-1
1042,1043,1583552021661,4.3071,-3.1304,12.8919,13.490789999999999,-6.656579499999999,12.598625,-1
1043,1044,1583552021671,4.3985,-2.6227999,12.826099000000001,13.466579999999999,-6.0468626,12.437649,-1
1044,1045,1583552021682,4.2525,-2.0022,12.1685,13.303304999999998,-5.282902,11.417086,-1
1045,1046,1583552021692,4.2228,-1.3476,10.948299,13.4214735,-4.621595,10.063136,-1
1046,1047,1583552021702,4.3981,-0.85539997,9.5041,13.777406,-4.380403,8.9026375,-1
1047,1048,1583552021712,4.816,-0.7536,8.454599,14.13101,-4.320816000000001,8.10918,-1
1048,1049,1583552021722,5.0234,-0.8402,7.8064,14.231814000000002,-4.600506299999999,7.909053999999999,-1
1049,1050,1583552021732,5.0585,-1.2942,7.8062,14.161396,-5.035408,7.7536416,-1
1050,1051,1583552021743,4.8334,-1.7535,7.4424996,13.863404000000001,-5.2355733,7.1475735,-1
1051,1052,1583552021753,4.4707,-1.9004999,6.7857,13.517835,-5.0386357,6.3951902,-1
1052,1053,1583552021763,4.1095,-1.666,5.9649997,13.198717000000002,-4.679582,5.5397324999999995,-1
1053,1054,1583552021773,3.7800998999999997,-1.4661,5.0989,12.895899,-4.46668,4.7819867,-1
1054,1055,1583552021783,3.432,-1.4153999,4.3805,12.6743765,-4.420932,4.1689754,-1
1055,1056,1583552021793,3.2912998,-1.5605999,3.7379,12.795264,-4.478469400000001,3.311947,-1
1056,1057,1583552021804,3.4364998,-1.6858,2.8934999,13.051474,-4.531668700000001,2.123025,-1
1057,1058,1583552021814,3.6406998999999995,-1.8634,1.6671,13.253946,-4.537271,1.3180081,-1
1058,1059,1583552021824,3.8042,-1.9813999,1.0092,13.323167000000002,-4.602613400000001,1.2896607,-1
1059,1060,1583552021834,3.8082,-2.1722999,1.1687,13.1341505,-4.532329,2.1239633999999996,-1
1060,1061,1583552021844,3.4959998,-2.2137,2.156,12.492398,-4.3146677,2.924613,-1
1061,1062,1583552021855,2.7317998,-2.1239,2.8606,11.510354,-3.9779660000000003,3.1681705,-1
1062,1063,1583552021865,1.6647999,-1.9456999,3.0265,10.5086975,-3.606357,2.6454779999999998,-1
1063,1064,1583552021875,0.70949996,-1.7763,2.3741,10.075299000000001,-3.4422972,1.6994904999999998,-1
1064,1065,1583552021885,0.387,-1.8306999,1.3953999,10.467804,-3.4439727999999996,0.71488947,-1
1065,1066,1583552021895,0.9229999999999999,-1.9861,0.435,11.466914,-3.5233552,-0.30714732,-1
1066,1067,1583552021905,1.7372999,-2.1884,-0.37919998,11.854822,-3.5569315,-0.9354625,-1
1067,1068,1583552021916,2.1118,-2.3643,-0.97209996,11.74965,-3.4386482000000003,-0.88761675,-1
1068,1069,1583552021926,1.9864998999999999,-2.3983,-0.87659997,11.180099,-3.217127,-0.17159723,-1
1069,1070,1583552021936,1.4015,-2.3422,-0.0945,10.571895,-3.1454065,0.42719263,-1
1070,1071,1583552021946,0.6229,-2.4261,0.6453,9.696201,-2.966454,0.56105727,-1
1071,1072,1583552021956,-0.1029,-2.4555,0.7532,9.226238,-2.5491161,0.08775228,-1
1072,1073,1583552021966,-0.5798,-2.2264,0.3427,8.989931,-2.0851104,-0.52464616,-1
1073,1074,1583552021976,-0.81759995,-1.9305999,-0.19409999,8.899017,-1.7550839,-0.8739889000000001,-1
1074,1075,1583552021986,-0.905,-1.7730999,-0.4948,8.871369999999999,-1.5639691,-1.0481049,-1
1075,1076,1583552021996,-0.9497,-1.7066,-0.69549996,8.852273,-1.2559120000000001,-1.6791973000000002,-1
1076,1077,1583552022006,-0.9420000000000001,-1.5853,-1.1603999,8.868248,-1.1725364,-2.1652396,-1
1077,1078,1583552022016,-0.91169995,-1.6564,-1.5722,8.910147,-1.0271412,-2.3637187,-1
1078,1079,1583552022026,-0.8588,-1.6098,-1.7291,8.625562,-0.7079846,-2.686821,-1
1079,1080,1583552022037,-1.1365,-1.4871,-1.9390999,8.087336,-0.45767559999999996,-2.8576232999999998,-1
1080,1081,1583552022048,-1.6469999999999998,-1.3872,-2.0499,7.631010000000001,-0.25252125,-2.5746574,-1
1081,1082,1583552022058,-2.5723,-1.1381999,-1.1481999,7.00236,0.22090821,-1.9841898999999998,-1
1082,1083,1583552022068,-3.0753,-0.8864,-0.8038,6.539082,0.6028983,-1.7705792,-1
1083,1084,1583552022078,-3.3511998999999997,-0.72349995,-0.9378,6.2187376,0.8926542,-2.1038425,-1
1084,1085,1583552022088,-3.5784,-0.6443,-1.4383999,6.0189753,1.0459597,-2.6480064,-1
1085,1086,1583552022098,-3.4538998999999997,-0.71709996,-1.9056,6.1735163,1.0598459999999998,-3.228064,-1
1086,1087,1583552022109,-3.1348,-0.95669997,-2.8235997999999998,6.507038,0.9315743000000001,-4.1775756,-1
1087,1088,1583552022119,-2.9234998,-0.98209995,-3.0386999,6.565715299999999,1.0767013,-4.1500134,-1
1088,1089,1583552022129,-3.4441998,-0.89239997,-2.0123,5.854685,1.2228338,-3.0136583,-1
1089,1090,1583552022139,-4.6162,-1.1001999,-0.7425,4.5875487,1.1408753,-1.8403174999999998,-1
1090,1091,1583552022149,-5.7342997,-1.1651,0.02,3.5488101999999997,1.2477143,-1.2765213,-1
1091,1092,1583552022160,-6.3113,-1.0935999,-0.0095999995,2.9242682,1.5087876,-1.6100624,-1
1092,1093,1583552022170,-6.5769997,-0.9264,-0.40089998,2.7454118999999997,1.8313918999999999,-1.9435363999999997,-1
1093,1094,1583552022180,-6.5344996,-0.5528,-0.43919998,2.799435,2.2642732000000003,-1.9374262999999998,-1
1094,1095,1583552022190,-6.4405,-0.1593,-0.5126,2.813254,2.7798789,-2.210825,-1
1095,1096,1583552022201,-6.5298,0.2402,-0.9553,2.7268232999999995,3.2311954,-2.7348008,-1
1096,1097,1583552022210,-6.4870996,0.5435,-1.3701999,2.8046446,3.4848754,-2.9561303,-1
1097,1098,1583552022220,-6.4849,0.6843,-1.2077999,2.6146693,3.5936775,-2.6198313,-1
1098,1099,1583552022230,-6.950599700000001,0.6166,-0.8285,2.1004426,3.4849137999999997,-2.2659492,-1
1099,1100,1583552022240,-7.3332996,0.4468,-0.43219998,1.7700142,3.4403815000000004,-1.9993595000000002,-1
1100,1101,1583552022251,-7.3332996,0.4468,-0.43219998,1.3870186000000002,3.7644799,-1.9540805,-1
1101,1102,1583552022261,-8.0233,1.0418999,-0.3579,1.0093284,4.3684607,-2.2936454,-1
1102,1103,1583552022271,-8.2583,1.7116,-0.84929997,0.8067310999999999,5.013707599999999,-2.8679757,-1
1103,1104,1583552022281,-8.4599,2.2203,-1.2478,0.63967323,5.3840237,-3.1472645,-1
1104,1105,1583552022291,-8.5309,2.6083998999999998,-1.4271,0.5793585,5.828818,-3.3715242999999995,-1
1105,1106,1583552022302,-8.5596,2.7979998999999998,-1.3866999,0.47254837,5.6965814,-3.2272499,-1
1106,1107,1583552022312,-8.741899499999999,2.4752998,-1.2628,0.38213375,5.2481860000000005,-3.3421428,-1
1107,1108,1583552022322,-8.5384,1.9051,-1.6444,0.9862291,4.492595,-3.9210224,-1
1108,1109,1583552022332,-7.9276,1.3586,-2.0876,1.5683745,3.9134474000000004,-4.2302384,-1
1109,1110,1583552022342,-7.4656,0.82769996,-2.1024,1.8657535,3.3118608,-3.7274849999999997,-1
1110,1111,1583552022353,-7.3069997,0.3628,-1.2087,1.8602564,2.8366597000000002,-2.494222,-1
1111,1112,1583552022362,-7.4026,0.0717,0.092999995,1.7808455,2.7797832000000002,-1.5564992,-1
1112,1113,1583552022372,-7.5442,0.4165,0.9654,1.5884954,3.2032982999999997,-1.0381929,-1
1113,1114,1583552022382,-8.0008,0.9607,1.0433999,1.1355411,3.531735,-1.0612826000000002,-1
1114,1115,1583552022392,-8.6859,1.23,1.1976,0.38196138,3.510982,-0.88394886,-1
1115,1116,1583552022402,-8.958,1.1157,1.0825,0.52377474,2.9554315,-1.3318466,-1
1116,1117,1583552022413,-8.5913,0.46379998,0.57839996,1.3294235,1.8773128000000001,-1.7018465,-1
1117,1118,1583552022423,-7.6984,-0.4472,0.2324,2.2721646,0.8121036,-1.9193165,-1
1118,1119,1583552022433,-6.8921,-1.3072,0.1192,2.8579395,-0.23263979,-1.8386128000000002,-1
1119,1120,1583552022443,-6.5697,-1.9645,0.2355,2.8026812000000003,-0.7541639,-1.5556851999999999,-1
1120,1121,1583552022453,-7.0242,-2.0855,0.59349996,1.6226558999999998,-1.0598843999999998,-0.6218508,-1
1121,1122,1583552022463,-8.1712,-2.2407,1.5943999,0.8263444,-1.6881324,0.7872614,-1
1122,1123,1583552022474,-8.7987995,-2.728,2.8936,1.1745284,-2.472425,1.6617196,-1
1123,1124,1583552022484,-8.2525,-3.2375,3.5356998,2.4444703999999997,-2.9965732000000003,1.5325956,-1
1124,1125,1583552022497,-6.8517,-3.4610999,3.0418,4.684782,-3.3972572999999997,0.024698585,-1
1125,1126,1583552022507,-4.9913,-3.5066998,1.6417999,6.18044,-3.4715637999999998,-0.31849584,-1
1126,1127,1583552022517,-3.2071998,-3.1701999,2.3274999,6.382348,-3.7592604,1.1133899999999999,-1
1127,1128,1583552022528,-3.2071998,-3.1701999,2.3274999,5.680493,-4.619813400000001,2.0185611,-1
1128,1129,1583552022538,-4.8008,-4.7795,3.4979,4.8111386,-5.938875,2.0006237000000002,-1
1129,1130,1583552022548,-4.4091997,-5.4937997,3.1013,5.471210500000001,-6.8591104000000005,1.697355,-1
1130,1131,1583552022558,-2.9529998,-5.7763,2.8292,7.014130000000001,-7.3127637000000005,1.5710752000000001,-1
1131,1132,1583552022569,-1.3491,-5.5758,2.7079,8.437081,-7.367323,1.5489336,-1
1132,1133,1583552022579,-1.3491,-5.5758,2.7079,9.101807,-7.2038465,1.1032959999999998,-1
1133,1134,1583552022589,0.0647,-4.6012,1.943,9.525733,-7.0189756999999995,1.0647396999999998,-1
1134,1135,1583552022599,-0.4407,-4.845,2.2712,8.711025,-7.738376,1.4806413999999999,-1
1135,1136,1583552022609,-1.3580999,-5.6696,2.7765,7.9199333,-8.830841,2.0245178,-1
1136,1137,1583552022619,-0.9414,-6.2695,3.2939999999999996,8.839699000000001,-9.734661000000001,2.4978037,-1
1137,1138,1583552022629,0.73219997,-6.3266,2.6631,10.198953999999999,-9.889738000000001,1.6317827,-1
1138,1139,1583552022640,2.4095,-5.9466,0.5238,11.864974,-9.781732,-0.9565793,-1
1139,1140,1583552022650,3.5205998,-5.5339,-1.429,12.587132,-9.659733000000001,-2.1255531000000003,-1
1140,1141,1583552022660,4.6001,-4.9519,-1.3586,13.516274,-9.307841999999999,-1.2398996,-1
1141,1142,1583552022670,4.7806997,-4.5274,0.0167,12.928498,-9.321107000000001,0.25374708,-1
1142,1143,1583552022680,3.6014,-4.7444,1.7369,11.455355,-10.109124000000001,1.9578058,-1
1143,1144,1583552022690,2.3938,-5.5467,3.0167,10.371576,-11.356905000000001,2.785807,-1
1144,1145,1583552022701,2.4343,-6.819,2.8434,11.202135,-12.917963,2.0906265,-1
1145,1146,1583552022711,4.8473,-7.6977,1.2724,13.93118,-13.749077,0.27679846,-1
1146,1147,1583552022721,7.85,-7.8785,-0.9481,16.486654,-14.061060999999999,-1.7295137999999999,-1
1147,1148,1583552022732,10.0763,-7.6542997,-2.5258,17.964653,-13.928852,-2.683948,-1
1148,1149,1583552022742,10.611199000000001,-7.1717997,-2.5792,17.484434,-13.606172,-2.224539,-1
1149,1150,1583552022752,9.5102,-6.4256,-1.8456999,15.5114,-12.945018,-1.2584307,-1
1150,1151,1583552022762,7.8907,-5.8366,-0.9073,14.171969,-12.670967999999998,-0.4760439,-1
1151,1152,1583552022772,6.6060996,-5.5158,0.1907,12.909957,-12.678188,0.9241427,-1
1152,1153,1583552022782,6.0737,-5.5959,1.2708,12.755818,-13.0963125,1.5480716,-1
1153,1154,1583552022792,6.416,-5.8582,1.3012999,13.087606,-13.224306,1.1583148,-1
1154,1155,1583552022803,7.0692997,-5.5827,0.2395,13.746989000000001,-12.929628,-0.62782675,-1
1155,1156,1583552022813,7.829,-5.1795,-1.7989998999999999,14.426520000000002,-12.52135,-2.3967109,-1
1156,1157,1583552022823,8.5949,-4.4988,-3.1478999,14.628879000000001,-11.792314999999999,-2.599356,-1
1157,1158,1583552022833,8.4426,-3.7614,-2.7921,13.553135999999999,-11.438605,-1.6023817,-1
1158,1159,1583552022843,7.0726,-3.4199,-1.5623,11.573483999999999,-10.994060000000001,-0.07777324,-1
1159,1160,1583552022853,5.522,-2.9587,-0.51129997,10.290681,-10.493115,0.0021930889,-1
1160,1161,1583552022864,5.522,-2.9587,-0.51129997,9.681338,-10.027845,-0.0031507695,-1
1161,1162,1583552022874,4.0383,-1.9203999,-0.4553,9.59371,-9.799036,0.5674545,-1
1162,1163,1583552022884,4.0060997,-1.7134999,0.049,9.378692,-9.602271,0.6855749,-1
1163,1164,1583552022894,3.7979998999999998,-1.4425,0.005,9.031283,-9.411463000000001,0.40843168,-1
1164,1165,1583552022904,3.4094,-1.1955,-0.5198,8.7375345,-9.183143,-0.5292621999999999,-1
1165,1166,1583552022914,3.32,-0.982,-1.429,8.900742999999999,-8.931607000000001,-1.2079034,-1
1166,1167,1583552022925,3.5684,-0.7029,-2.0205,8.91458,-8.77496,-1.1407605,-1
1167,1168,1583552022935,3.5214,-0.5760000000000001,-1.8104999,8.433575999999999,-8.754427,-0.46741520000000003,-1
1168,1169,1583552022945,2.9501998,-0.5347,-1.1065,7.693001,-8.670372,0.28838637,-1
1169,1170,1583552022955,2.2312,-0.4208,-0.3631,7.046470599999999,-8.557796000000002,0.7039911,-1
1170,1171,1583552022965,1.6359999,-0.3292,-0.0639,6.7891509999999995,-8.694927,0.56161267,d
1171,1172,1583552022975,1.5048,-0.4919,-0.21939999,6.948921,-8.716339999999999,0.45190078,-1
1172,1173,1583552022986,1.7219,-0.4172,-0.4183,7.146836,-8.592042999999999,0.10105447,-1
1173,1174,1583552022996,1.8521999,-0.3524,-0.7647,7.135946799999999,-8.5998955,-0.37313157,-1
1174,1175,1583552023006,1.8606,-0.3491,-1.1693,7.235162700000001,-8.592866,-0.6189682,-1
1175,1176,1583552023016,1.9604,-0.34899998,-1.4239998999999999,7.269275,-8.576845,-0.6299431999999999,-1
1176,1177,1583552023026,1.9928999,-0.3427,-1.4261,7.0557027,-8.578032499999999,-0.30565336,-1
1177,1178,1583552023037,1.7513,-0.35079998,-1.0795,6.550545,-8.609483,0.21396501,-1
1178,1179,1583552023047,1.2279999,-0.3825,-0.54899997,6.0550127,-8.710709,0.6288130999999999,-1
1179,1180,1583552023057,0.71349996,-0.5039,-0.1127,5.836681,-8.952169,0.8421078000000002,-1
1180,1181,1583552023067,0.8347,-0.9528,0.0376,6.33093,-9.171613,0.752737,-1
1181,1182,1583552023078,0.8347,-0.9528,0.0376,6.9659777,-9.162246000000001,0.4345859,-1
1182,1183,1583552023088,1.9885,-1.06,-0.98579997,7.4640865000000005,-9.262534,-0.35523248,-1
1183,1184,1583552023098,2.4477,-1.198,-1.6624999,7.920613,-9.364623,-0.8943588,-1
1184,1185,1583552023108,2.4477,-1.198,-1.6624999,8.187269,-9.312344,-0.809585,-1
1185,1186,1583552023118,2.7351,-1.3076,-0.81219995,8.138992,-9.476471,0.22799504,-1
1186,1187,1583552023129,2.3023999,-1.6905999,0.2083,7.710383,-9.84331,1.128167,-1
1187,1188,1583552023139,1.9487,-1.9671999,0.7256,7.5163660000000005,-10.045342,1.5184411,-1
1188,1189,1583552023149,2.3688,-2.0642,0.55869997,8.310122,-10.096991000000001,1.0179763000000002,-1
1189,1190,1583552023159,3.2984998,-2.0787,-0.261,9.138822,-10.092345,0.3420835,-1
1190,1191,1583552023169,4.2893,-2.2105,-1.2274,10.292760000000001,-10.322457,-0.8500278,-1
1191,1192,1583552023180,5.0467,-2.5535997999999998,-2.1585999,11.036513000000001,-10.611524000000001,-1.5014421999999998,-1
1192,1193,1583552023190,5.710099700000001,-2.7883,-2.3233,11.576052,-10.762502,-1.4243393999999998,-1
1193,1194,1583552023200,6.0207996,-3.1527998,-1.8154,11.766036,-11.124572,-0.6852779999999999,-1
1194,1195,1583552023210,5.8322997,-3.3543,-0.84139997,11.738924,-11.157382,0.28785008,-1
1195,1196,1583552023220,5.6404,-3.5386,-0.1541,11.575811,-11.300948,0.77799106,-1
1196,1197,1583552023230,5.3645,-3.6920998,0.1426,11.507061,-11.340529,0.9183966,-1
1197,1198,1583552023241,5.5522,-3.9073,0.121,12.060561,-11.602886,0.7819366999999999,-1
1198,1199,1583552023251,5.5522,-3.9073,0.121,13.144254,-11.642294,0.10977894,-1
1199,1200,1583552023261,7.4456,-4.1770997,-1.1474999,14.094617000000001,-11.510086,-0.42354384,-1
1200,1201,1583552023271,8.1607,-4.1681,-1.5906999,14.775576999999998,-11.494064,-0.8156854,-1
1201,1202,1583552023282,7.9983997,-4.555,-1.5285,14.299857999999999,-11.867933,-0.053917423,-1
1202,1203,1583552023292,7.0365,-4.9385,-0.2683,13.203132,-12.013061,1.6316292,-1
1203,1204,1583552023302,5.6742,-5.2476,1.3776,12.0060215,-11.941052,2.7329907,-1
1204,1205,1583552023312,4.3066998,-5.2106,2.1859,10.963117,-11.418455,3.0639844,-1
1205,1206,1583552023322,3.2475998,-4.6535,2.2568998,10.460545,-10.620727,2.810448,-1
1206,1207,1583552023332,2.5807998,-3.8156,1.5464,9.927108,-9.477276,1.8304055000000001,-1
1207,1208,1583552023343,1.9932,-3.2048,0.7874,9.491928,-8.768352,1.1377151,-1
1208,1209,1583552023352,1.4731,-2.82,0.07,9.341428,-8.4720545,0.6335345,-1
1209,1210,1583552023362,1.3317,-2.9754,-0.1248,9.528511,-8.591459,1.1828983999999998,-1
1210,1211,1583552023372,1.3317,-2.9754,-0.1248,9.476097,-8.594591000000001,2.2027996,-1
1211,1212,1583552023382,0.92749995,-3.5579,1.6603,8.910605,-8.665766,2.3844047,-1
1212,1213,1583552023393,0.085999995,-3.7403,1.8585999,8.119292999999999,-8.334906,2.530068,-1
1213,1214,1583552023403,-0.8806,-3.5662,2.0046,7.4555917,-7.784661,2.2854092,-1
1214,1215,1583552023413,-1.4947,-3.2124999,1.7172999,7.2719564,-7.054161,1.8529205000000002,-1
1215,1216,1583552023423,-1.6144999,-2.6887999,1.4203,7.4218054,-6.275624,1.6491548999999999,-1
1216,1217,1583552023433,-1.6025,-2.197,1.3312,7.441801,-5.540355,1.4206235,-1
1217,1218,1583552023443,-1.7739999,-1.7856,1.0109,7.378891,-4.980792,0.82589424,-1
1218,1219,1583552023453,-1.8450999,-1.6287,0.30159998,7.697636,-4.751226,-0.04114196,-1
1219,1220,1583552023464,-1.3361,-1.6265,-0.4538,8.565985000000001,-4.441301999999999,-0.7189022,-1
1220,1221,1583552023474,-0.74009997,-1.5978999,-0.7863,8.783205,-4.352467,-0.5495651,-1
1221,1222,1583552023484,-0.7272,-1.7781999,-0.0307,8.370264,-4.3841953,0.8757607,-1
1222,1223,1583552023494,-1.2990000000000002,-2.0187,1.127,7.627362,-4.1025887,1.575059,-1
1223,1224,1583552023504,-2.1014,-1.9444,1.7069999,7.1551867,-3.8388917,1.6469234000000001,-1
1224,1225,1583552023515,-2.6713,-1.8798,1.6393,6.807376400000001,-3.4096305,1.0319296999999998,-1
1225,1226,1583552023525,-2.8804998,-1.7107999,1.03,6.9018326,-2.6736912999999998,0.48506528,-1
1226,1227,1583552023536,-2.7881,-1.1006,0.6124,6.935351,-1.4979850000000001,0.42599553,-1
1227,1228,1583552023546,-2.8067,-0.3638,0.5893,6.656417,-0.73398566,0.19485928,-1
1228,1229,1583552023557,-3.1134999,0.1865,0.3683,6.483823999999999,-0.077744514,-0.46004108,-1
1229,1230,1583552023566,-3.2967,0.6422,-0.2601,6.562755999999999,0.41670603,-0.61810625,-1
1230,1231,1583552023576,-3.2099998,1.0149,-0.3159,6.688403,0.65498656,-0.043660662999999995,-1
1231,1232,1583552023586,-3.0300999,0.9328,0.6234,7.127644,0.08053137,1.3357826000000002,-1
1232,1233,1583552023596,-2.6794999,0.2658,1.6525999,7.2119102,-0.12601162,1.9998479,-1
1233,1234,1583552023606,-2.5902998,-0.0718,2.3941998,6.774614,-0.14882357,2.3015845,-1
1234,1235,1583552023617,-3.0284,-0.2399,2.7605999,6.218546400000001,-0.25174552,1.6991554,-1
1235,1236,1583552023627,-3.5828998,-0.4915,2.1905,6.038483,-0.11453861,0.4585088,-1
1236,1237,1583552023638,-3.7542998999999995,-0.4786,0.96199995,6.280853,0.39911345,-0.90408885,-1
1237,1238,1583552023648,-3.1839999999999997,0.3812,-1.2785,6.641688,1.112959,-1.8912278000000002,-1
1238,1239,1583552023658,-3.0891,0.8107,-1.5552,6.698929,1.6050537,-2.0880218,-1
1239,1240,1583552023669,-3.0891,0.8107,-1.5552,6.704914,1.8733766,-1.9168936999999997,-1
1240,1241,1583552023679,-2.7595,0.6335,-0.64809996,7.191922999999999,1.3030586000000002,-0.9053626,-1
1241,1242,1583552023689,-1.8284999,-0.889,0.8287,8.00464,-0.19467732,0.51147807,-1
1242,1243,1583552023699,-2.033,-2.1819,1.4856,7.502834299999999,-1.2582966,0.85476834,-1
1243,1244,1583552023709,-3.1862,-2.4224,0.8113,5.9233413,-0.91896164,-0.05722142,-1
1244,1245,1583552023719,-4.9549,-1.6150999,0.2777,4.345744,-0.05488468,-0.25979003,-1
1245,1246,1583552023729,-6.9568996,-0.608,0.4622,2.417205,1.0738186,0.108428605,-1
1246,1247,1583552023739,-7.7924,-0.0424,1.0941,1.9381446,1.6674944999999999,0.83821005,-1
1247,1248,1583552023749,-7.7924,-0.0424,1.0941,2.9994845000000003,2.0249295,1.179403,-1
1248,1249,1583552023759,-5.3784,0.5236,1.3391,4.5707226,2.3149439999999997,0.9491956,-1
1249,1250,1583552023769,-4.1203,0.55829996,0.79819995,5.7124120000000005,2.292812,0.38381928,-1
1250,1251,1583552023780,-3.4513998,0.052899998,0.3972,6.299327,1.5351526000000002,-0.0024612392,-1
1251,1252,1583552023790,-3.2422,-0.6444,0.2953,6.459365,0.94444555,-0.11044931,-1
1252,1253,1583552023801,-3.1977,-1.0301,0.27109998,6.3894634,0.75812876,-0.112757325,-1
1253,1254,1583552023811,-3.4262998,-1.0158,0.4904,6.0702496,0.90499866,0.36664805,-1
1254,1255,1583552023821,-3.8407,-0.9195,1.3369,5.5604762999999995,1.0409989,1.4242244,-1
1255,1256,1583552023831,-4.393,-0.87009996,2.2933,5.085361,1.000805,2.055422,-1
1256,1257,1583552023841,-4.4863,-1.0048,2.1090999,5.5773983,1.0367372,1.1226891,-1
1257,1258,1583552023851,-3.4945,-0.7479,0.9436,6.756274,1.4418936000000002,0.16589902,-1
1258,1259,1583552023862,-1.9957,-0.121999994,-0.1433,8.203655,2.0422733,-1.1321988,-1
1259,1260,1583552023872,-1.1444,0.1138,-1.1376,8.675035000000001,2.0390265,-1.8722752,-1
1260,1261,1583552023882,-0.91889995,0.0568,-1.6793,8.589342,1.925417,-2.012968,-1
1261,1262,1583552023892,-1.1129999,-0.15789999,-1.4949,8.347978,1.5022657,-1.482164,-1
1262,1263,1583552023902,-1.3048999,-0.65749997,-0.80799997,8.284024,1.2151436000000002,-0.8900396999999999,-1
1263,1264,1583552023913,-1.3672999,-0.86149997,-0.1379,8.154871,1.1242596000000002,-0.18375976,-1
1264,1265,1583552023923,-1.4481,-0.82629997,0.4436,8.038714,1.4617176,0.29426655,-1
1265,1266,1583552023933,-1.7049999,-0.4105,0.6781,7.653898700000001,1.9037542,0.12769714,-1
1266,1267,1583552023943,-2.0224,-0.067099996,0.44,7.5883265,2.1788766,0.02621172,-1
1267,1268,1583552023953,-1.8821,0.1708,0.42299998,7.8471875,2.3894708,0.10660902,-1
1268,1269,1583552023963,-1.5292,0.3827,0.44509998,8.203569,2.5397406000000005,-0.026364949,-1
1269,1270,1583552023973,-1.2964,0.39909998,0.159,8.537015,2.3938951,-0.54890424,-1
1270,1271,1583552023984,-0.99649996,0.2662,-0.3405,8.7611685,2.2029433,-0.99057704,-1
1271,1272,1583552023994,-0.7363,0.0,-0.9111,9.128565,1.8757613000000002,-1.5084236999999998,-1
1272,1273,1583552024004,-0.39699998,-0.2182,-1.2853,9.364460000000001,1.8019816000000002,-1.6507830000000001,-1
1273,1274,1583552024014,0.0029,-0.248,-1.4733,9.7383585,1.9063017,-1.7263057000000002,-1
1274,1275,1583552024025,0.1699,-0.0438,-1.2881,9.534362,2.236625,-0.93774176,-1
1275,1276,1583552024035,-0.1898,0.21609999,-0.4886,8.87771,2.4349797000000004,-0.12740026,-1
1276,1277,1583552024045,-0.84239995,0.3706,0.24669999,8.383786,2.5793787999999997,0.30211952,-1
1277,1278,1583552024056,-1.2502999,0.52709997,0.56479996,8.378413,2.772275,0.3396606,-1
1278,1279,1583552024066,-1.2092999,0.6548,0.5479999999999999,8.687486,2.7053618,-0.026652254,-1
1279,1280,1583552024076,-0.89659995,0.58989996,0.1919,9.16871,2.4348361,-0.55113566,-1
1280,1281,1583552024086,-0.41939998,0.3396,-0.3426,9.77315,2.2630856,-1.0622593999999999,-1
1281,1282,1583552024096,0.18439999,0.18249999,-0.84999996,10.137769,2.1490164000000003,-1.1180538,-1
1282,1283,1583552024107,0.54359996,0.0823,-0.9047,10.128546,2.0219896,-0.58502793,-1
1283,1284,1583552024117,0.5319,-0.0265,-0.3759,9.808297999999999,1.9695373999999999,-0.10055647,-1
1284,1285,1583552024127,0.2183,-0.0874,0.1063,9.457652000000001,2.1002417,0.01187524,-1
1285,1286,1583552024137,-0.2777,0.2156,0.1366,9.305496,2.325469,-0.038431726,-1
1286,1287,1583552024147,-0.28599998,0.33589998,0.2995,9.297107,2.4269736,0.21562181,-1
1287,1288,1583552024157,-0.4034,0.3249,0.63629997,9.163864,2.374531,0.49654785,d
1288,1289,1583552024167,-0.4732,0.1646,0.617,9.136676,2.1994667000000003,0.4041987,-1
1289,1290,1583552024178,-0.21149999,0.0628,0.44509998,9.518235,2.113132,0.16583198,-1
1290,1291,1583552024188,0.2839,-0.0613,0.037299998,10.053962,1.9148058999999997,-0.31935778,-1
1291,1292,1583552024198,0.7694,-0.253,-0.3251,10.450796,1.7456794999999998,-0.58978766,-1
1292,1293,1583552024208,0.97169995,-0.33269998,-0.3876,10.568705,1.6784695,-0.6293781999999999,-1
1293,1294,1583552024218,0.7248,-0.24569999,-0.35439998,10.225387,1.7623048,-0.5693603,-1
1294,1295,1583552024229,0.7248,-0.24569999,-0.35439998,9.792889,1.8325411,-0.3270192,-1
1295,1296,1583552024239,-0.36229998,-0.1135,0.2131,9.173011,1.9074605,0.00071826053,-1
1296,1297,1583552024249,-0.36229998,-0.1135,0.2131,8.937717,2.121799,0.20167798,-1
1297,1298,1583552024259,-0.72429997,0.2463,0.48659998,8.888110000000001,2.2721164000000003,0.24934174,-1
1298,1299,1583552024269,-0.706,0.34149998,0.4522,8.91436,2.344115,0.16917428,-1
1299,1300,1583552024279,-0.6493,0.3918,0.24309999,8.970585,2.3655,-0.08543469,-1
1300,1301,1583552024289,-0.6617,0.35639998,0.0749,8.917836,2.3164957000000004,-0.17953639,-1
1301,1302,1583552024299,-0.8994,0.3691,0.4173,8.647215,2.3352084,0.27955657,-1
1302,1303,1583552024309,-1.4405999,0.281,1.227,8.016974000000001,2.1744142,1.0835104,-1
1303,1304,1583552024319,-2.2754,-0.017099998999999998,1.6265,7.197228999999999,1.8810573,1.3666869,-1
1304,1305,1583552024329,-2.9628,-0.102,1.6551,6.538660500000001,1.8445026000000002,1.4163331000000001,-1
1305,1306,1583552024339,-3.4052,-0.14829999,1.9695,6.138148999999999,1.7655226000000002,1.8129374,-1
1306,1307,1583552024349,-3.4052,-0.14829999,1.9695,5.859186,1.7483131,2.079843,-1
1307,1308,1583552024359,-3.9745998,0.105799995,2.9563,5.621097,2.141125,3.0268838,-1
1308,1309,1583552024370,-4.3069,0.5907,4.7524,4.978225,2.658397,5.29585,-1
1309,1310,1583552024380,-5.374,0.7018,6.3749,3.6887752999999996,2.5455918,6.506521,-1
1310,1311,1583552024390,-5.374,0.7018,6.3749,2.2730742000000004,2.1622226,7.035601,-1
1311,1312,1583552024400,-7.9526,-0.0519,7.4350996,1.4814842,1.7093067,7.0133924,-1
1312,1313,1583552024410,-8.018499,-0.3603,7.0418,1.7094505000000002,1.4979658000000002,6.5096620000000005,-1
1313,1314,1583552024421,-7.3839999999999995,-0.2767,6.4082,2.5140936000000003,1.6063466,5.871789,-1
1314,1315,1583552024431,-6.8027,-0.1113,6.1028,3.0804372000000004,1.5615941,5.477971599999999,-1
1315,1316,1583552024441,-6.3507,-0.098799996,5.5971,3.423632,1.5033671999999998,5.0223645999999995,-1
1316,1317,1583552024451,-6.0948,0.028999999999999998,5.3459,3.7001717000000003,1.4916643,4.90187,-1
1317,1318,1583552024461,-5.8662996,0.0137,5.361399700000001,3.876768,1.2180166000000001,4.978436,-1
1318,1319,1583552024471,-5.929199700000001,-0.4006,5.5832996,3.7008707999999997,0.34296459999999995,4.9477519999999995,-1
1319,1320,1583552024482,-5.9592,-1.1328,5.1748,3.915621,-0.72515583,3.9976273,-1
1320,1321,1583552024492,-5.6419997,-2.1097999,4.4153,4.485546599999999,-1.6533111,3.4030418,-1
