,Seq,Time,ACCx,ACCy,ACCz,ADGx,ADGy,ADGz,Keydown
0,1,1583552564908,0.19919999,-1.2662,-0.294,6.00823,-8.385835,4.28225,-1
1,2,1583552564918,-0.039899997,-1.4504,1.012,9.720728,1.167068,0.32059318,-1
2,3,1583552564928,-0.3365,-0.0411,-0.0084,9.184876,1.1447827,0.18460253,-1
3,4,1583552564938,-0.8046,-0.0844,-0.0852,8.824183999999999,1.1472824,0.18598159,-1
4,5,1583552564948,-1.0181999,-0.1511,0.0268,8.734181,1.075121,0.30556718,-1
5,6,1583552564958,-0.8013,-0.081999995,0.047199998,9.190228999999999,1.3194348999999999,0.24866179,-1
6,7,1583552564968,-0.252,0.2015,-0.1472,9.600806,1.4849603999999998,-0.14756902,-1
7,8,1583552564978,0.0222,0.1943,-0.51199996,9.855780000000001,1.397553,-0.18372147,-1
8,9,1583552564988,0.22809999,0.0177,-0.2173,10.013997999999999,1.1814716,0.12256397,-1
9,10,1583552564998,0.28759998,-0.12539999,0.0233,9.981274,1.1299962,0.33201832,-1
10,11,1583552565009,0.28759998,-0.12539999,0.0233,9.769712,1.1886444999999999,0.46112326,-1
11,12,1583552565019,-0.090399995,-0.021699998999999998,0.16679999,9.580072,1.3171747999999999,0.41714653,-1
12,13,1583552565029,-0.1839,0.14289999,-0.0233,9.564539,1.5450549,0.21953872,-1
13,14,1583552565039,-0.0969,0.38509998,-0.1156,9.586613999999999,1.9391406999999998,0.07990888,-1
14,15,1583552565049,-0.2038,0.5744,-0.2094,9.386027,2.0990827000000003,0.23625983,-1
15,16,1583552565059,-0.3996,0.557,0.052899998,9.184981,1.9661089,0.49802268,-1
16,17,1583552565070,-0.54829997,0.31939998,0.2846,9.170176,1.8124106,0.6531191,-1
17,18,1583552565081,-0.4141,0.1407,0.3725,9.501667,1.6579655,0.6139116,-1
18,19,1583552565091,-0.0945,-0.0011999999,0.3127,9.888053,1.6659238,0.7823389000000001,-1
19,20,1583552565101,0.2547,0.0144,0.51559997,9.974599000000001,1.7658675,1.0558908999999999,-1
20,21,1583552565111,0.2925,0.0708,0.76669997,9.842898,1.8425201,1.4486451999999999,-1
21,22,1583552565122,0.1344,0.1046,1.1348,9.402413000000001,1.9043192999999998,1.8339201,-1
22,23,1583552565132,-0.33589998,0.104499996,1.4047999,8.954927,1.8276953999999999,1.9568671999999998,-1
23,24,1583552565142,-0.7191,0.0023,1.4182,8.877537,1.8225620999999999,1.9149494999999999,-1
24,25,1583552565152,-0.7208,0.0046,1.347,8.96573,1.8953171999999998,2.0371497,-1
25,26,1583552565162,-0.6351,0.022599999,1.4240999,8.950905,1.8667783,2.2909157,-1
26,27,1583552565172,-0.6871,-0.044000000000000004,1.6875,8.738798,1.8088098000000001,2.7482944,-1
27,28,1583552565183,-0.93549997,-0.099199995,2.1106,8.305705999999999,1.7457082,3.1840200000000003,-1
28,29,1583552565193,-1.3805,-0.2111,2.4989,7.917539,1.5466448,3.5402772000000002,-1
29,30,1583552565203,-1.7285,-0.4357,2.7430000000000003,7.756964,1.3292129,3.6359114999999997,-1
30,31,1583552565213,-1.8324,-0.6333,2.7993,7.704005,1.2035076999999998,3.8512266000000004,-1
31,32,1583552565223,-1.8880000000000001,-0.7371,3.0289,7.4177537,1.0797083,4.269149,-1
32,33,1583552565233,-2.1685998,-0.8405,3.3137,6.7872553,1.1453861,4.3875566,-1
33,34,1583552565244,-2.7914,-0.77269995,3.3945,6.03425,1.3257173999999998,4.40559,-1
34,35,1583552565254,-3.7472,-0.5546,3.3983998,4.9498878,1.5865798999999998,4.5007644,-1
35,36,1583552565264,-4.8318996,-0.30159998,3.4729997999999997,3.8556894999999995,1.8098058000000001,4.5532255,-1
36,37,1583552565274,-5.7118998,-0.1391,3.4866998,3.2433099999999997,1.7756165000000002,4.3926706,-1
37,38,1583552565284,-6.3223996,-0.161,3.3381,2.9612060000000002,1.4861958999999998,3.8961227,-1
38,39,1583552565295,-6.6131997,-0.42389998,2.858,2.994179,0.9674203000000001,3.4259877,-1
39,40,1583552565305,-6.5941,-0.90919995,2.4206,3.077727,0.24881501,2.3843951,-1
40,41,1583552565315,-6.5192,-1.5919,1.4314,3.3443167000000003,-0.24872883,1.6171587,-1
41,42,1583552565325,-6.27,-2.017,0.7403,3.5090567999999998,-0.37076607,1.3433386999999999,-1
42,43,1583552565336,-6.1197996,-2.0990999,0.56189996,3.152819,-0.40032009999999996,1.257473,-1
43,44,1583552565346,-7.2479997,-2.1141,0.5588,2.2304096,-0.5309286,1.0575763,-1
44,45,1583552565356,-8.271,-2.3164,0.37579998,1.1934042,-0.75997704,0.7606475,-1
45,46,1583552565366,-9.303599,-2.4498,0.065,0.19289604,-0.9381919,0.28492916,-1
46,47,1583552565376,-9.303599,-2.4498,0.065,-0.26039338,-1.051725,-0.19293436,-1
47,48,1583552565386,-9.8939,-2.7433,-0.78419995,-0.046763547,-1.4537593,-0.7185095,-1
48,49,1583552565397,-8.765699,-2.9512,-1.1958,1.2865483,-1.7341682,-1.2281777,-1
49,50,1583552565407,-7.1579999999999995,-2.737,-1.7205,2.906398,-1.6259311,-1.8086468999999998,-1
50,51,1583552565417,-5.9605,-2.4554,-2.0599,3.9664354,-1.6050057,-2.1885397,-1
51,52,1583552565427,-5.9605,-2.4554,-2.0599,4.1239552,-1.8822352999999998,-2.6968095,-1
52,53,1583552565437,-6.318,-2.9833,-3.148,3.3081644,-2.613932,-3.5535219,-1
53,54,1583552565447,-7.1081,-3.7451,-3.9466998999999996,2.594041,-3.631439,-4.488161,-1
54,55,1583552565458,-7.2179,-4.6709,-4.8644,2.7212017000000004,-4.7014747,-5.448686,-1
55,56,1583552565468,-6.0787997,-5.1828,-5.6953998,4.460072,-5.3630404,-6.5610029999999995,-1
56,57,1583552565478,-4.1015997,-5.0726,-6.5407996,6.493774,-5.285229,-7.2418759999999995,-1
57,58,1583552565488,-2.2656,-4.5044,-6.7752,8.018315,-4.873838,-7.138207,-1
58,59,1583552565498,-1.3551999,-3.8448,-6.1342998,8.397998,-4.621039,-6.282701,-1
59,60,1583552565509,-1.7931,-3.8177998,-5.2911997,7.475761,-5.1918169999999995,-5.6398005,-1
60,61,1583552565519,-2.9615,-4.4195,-5.3129,6.3563375,-6.1293864000000005,-6.065978,-1
61,62,1583552565529,-3.5437,-5.1370000000000005,-6.1699,6.254564299999999,-7.157140299999999,-6.895243600000001,-1
62,63,1583552565539,-2.7711,-5.8827,-7.178,7.5434113,-8.050714,-7.867136,-1
63,64,1583552565549,-0.7093,-6.1754,-8.2249,10.275243,-8.445671,-8.603439,-1
64,65,1583552565560,1.5825,-5.9976997,-8.5715,11.961910000000001,-8.482494,-8.254862,-1
65,66,1583552565570,2.8743,-5.6924996,-7.9003997,12.388767,-8.46673,-6.856064999999999,-1
66,67,1583552565580,2.8760000000000003,-5.4505,-6.3991,11.536969000000001,-8.8021,-5.447699500000001,-1
67,68,1583552565590,1.7531999,-5.7595997,-5.5088,10.359299,-9.618015,-4.9697595,-1
68,69,1583552565600,1.02,-6.4207,-5.5144997,10.252661,-10.536547,-5.6147385000000005,-1
69,70,1583552565610,1.6053,-7.055299799999999,-6.8725996,11.529948,-11.329956,-7.2950177,-1
70,71,1583552565621,3.4143999,-7.3839999999999995,-8.6882,13.603289000000002,-11.641164,-8.684449,-1
71,72,1583552565631,5.7078,-7.3459997,-9.9986,15.559534,-11.818086,-9.305591999999999,-1
72,73,1583552565641,7.5351996,-7.2398996,-10.2535,16.62634,-11.92412,-8.770037,-1
73,74,1583552565651,8.3083,-7.058799700000001,-9.4781,16.655445,-11.970894,-7.7303796,-1
74,75,1583552565661,8.139299000000001,-6.8859997,-8.6181,16.090854999999998,-12.076027,-7.1391644,-1
75,76,1583552565671,7.7335,-6.8669,-8.3702,15.843419,-12.30456,-7.390067599999999,-1
76,77,1583552565681,7.9192995999999996,-6.9241,-9.0265,16.627548,-12.323723,-8.315101,-1
77,78,1583552565692,8.934899,-6.6678996,-9.7284,17.7536,-12.104586,-8.6062355,-1
78,79,1583552565702,10.3951,-6.2556,-9.9692,18.84638,-11.893216,-8.618867,-1
79,80,1583552565712,11.157,-5.9883,-9.8784,18.788162,-11.999728999999999,-8.294127,-1
80,81,1583552565723,11.0385,-6.0473,-9.4445,18.224241,-12.140691,-7.564203,-1
81,82,1583552565734,10.4901,-6.0491,-8.6071,17.72573,-12.181517,-6.580712299999999,-1
82,83,1583552565744,10.104799,-6.0761,-7.4972,17.616459,-12.567347,-5.323335,-1
83,84,1583552565754,10.0828,-6.3596997,-6.3764997,17.700611,-12.958262,-4.4607997,-1
84,85,1583552565764,10.2112,-6.6885,-5.4307,17.788937,-13.203657999999999,-3.5427577000000006,-1
85,86,1583552565774,10.3108,-6.8996997,-4.4379,17.753760999999997,-13.565365,-2.6404693,-1
86,87,1583552565784,10.2758,-7.3543,-3.2201998,17.577003,-13.914708,-1.3321530000000001,-1
87,88,1583552565794,10.0852995,-7.5962996,-2.0716,17.152136,-14.028547,-0.6004275,-1
88,89,1583552565805,9.6389,-7.7464,-1.2587999,16.585535,-13.858425,0.28753406,-1
89,90,1583552565815,9.005199000000001,-7.6484,-0.30879998,15.832291,-13.5216465,1.3387322,-1
90,91,1583552565825,8.186,-7.3794,0.80979997,15.052001,-13.110659,2.4597743,-1
91,92,1583552565835,6.5073,-6.7370996,3.4728,14.215448,-12.553564999999999,4.087065,-1
92,93,1583552565845,5.812599700000001,-6.4252,4.5176997000000005,13.661716,-12.091371,4.8981442,-1
93,94,1583552565856,5.2808,-6.2139997000000005,4.8187,13.288748000000002,-11.756401,4.971866,-1
94,95,1583552565866,5.2808,-6.2139997000000005,4.8187,13.391670000000001,-11.572968,4.7023845,-1
95,96,1583552565876,5.2272,-6.1219,4.6008997,13.787154000000001,-11.516081,4.2964139999999995,-1
96,97,1583552565886,5.8915,-6.280999700000001,4.3145,14.286756500000001,-11.33868,4.3483014,-1
97,98,1583552565896,5.3568,-6.3633,5.2383,13.691434,-11.133747,5.2728459999999995,-1
98,99,1583552565907,3.7542998999999995,-6.0478,6.4024997,12.051712,-10.4751215,6.3115373,-1
99,100,1583552565917,1.5888,-5.4969,7.3011,10.038495,-9.58057,7.0980134,-1
100,101,1583552565927,-0.3459,-4.6949,8.023399000000001,8.309536999999999,-8.456377999999999,7.7086205,-1
101,102,1583552565937,-1.7088,-3.8302,8.2198,7.145322999999999,-7.070412599999999,7.764703,-1
102,103,1583552565947,-2.2301,-3.0844,7.9017,7.0290217,-6.1031938,7.172367599999999,-1
103,104,1583552565957,-2.1639,-2.4989998,7.1028,7.212867699999999,-5.4184523,6.3031383000000005,-1
104,105,1583552565967,-2.0521998,-2.4081,6.2434998,7.464173,-5.439291000000001,5.619115,-1
105,106,1583552565978,-1.7033,-3.0549998,5.9992,7.8717426999999995,-5.937476599999999,5.6677074,-1
106,107,1583552565988,-1.4255999,-3.5877,6.476,8.157294,-6.043195,6.151777,-1
107,108,1583552565998,-1.341,-3.5289998,6.867999999999999,8.067971,-5.533526999999999,6.561166,-1
108,109,1583552566008,-1.9422,-2.947,7.2205,7.191837,-4.5696406,6.690175,-1
109,110,1583552566018,-3.2575,-2.2147,6.8364,5.797224,-3.660428,6.000233000000001,-1
110,111,1583552566028,-4.6651,-1.7099999,5.9796,4.6194973,-3.0480485,5.269963300000001,-1
111,112,1583552566038,-5.5544,-1.5647999,5.5009,4.059387999999999,-2.7183192000000003,5.075583,-1
112,113,1583552566048,-5.6011996,-1.3955,5.5095997,4.3611154999999995,-2.2606053,5.1336379999999995,-1
113,114,1583552566058,-5.0716,-1.0720999,5.3525,4.853612,-1.8456613999999998,4.8546557,-1
114,115,1583552566068,-4.6442,-0.9421,4.9031997,5.334933,-1.6469139,4.407706299999999,-1
115,116,1583552566078,-4.6442,-0.9421,4.9031997,5.536821400000001,-1.4604343000000002,4.3350377,-1
116,117,1583552566089,-4.4751,-0.91929996,4.8152,5.067183999999999,-1.3214556999999998,4.5569415,-1
117,118,1583552566099,-5.2054996,-1.0178,5.0659,4.298223999999999,-1.2914516000000003,4.5646510000000005,-1
118,119,1583552566109,-5.8945,-1.1237999,4.4985,3.717525,-1.1998302,3.7265177000000005,-1
119,120,1583552566119,-6.2481,-1.0218999,3.5451,3.5568642999999995,-0.92035985,2.802346,-1
120,121,1583552566129,-6.1,-0.86319995,2.7484999,3.9923312999999996,-0.57250154,1.9667120999999999,-1
121,122,1583552566139,-5.5779,-0.6572,2.2446,4.5312660000000005,-0.263027,1.6257013,-1
122,123,1583552566149,-5.1138,-0.4163,1.9446,4.7548943,0.12048581,1.2566781999999999,-1
123,124,1583552566159,-5.1003,-0.0655,1.6078999,4.4401236,0.59833014,1.0326383,-1
124,125,1583552566170,-5.6064997000000005,0.3534,1.4750999,3.7845817000000004,1.0800531,0.8735963,-1
125,126,1583552566180,-6.2703,0.7352,1.2336999,3.2403796000000002,1.3523792,0.22807166,-1
126,127,1583552566191,-6.6808,0.9185,0.2394,3.137563,1.558338,-1.172067,-1
127,128,1583552566201,-6.4947996,1.0806,-1.1556,3.7361038,1.7107241000000002,-2.0321696,-1
128,129,1583552566211,-5.7113,1.1771,-1.5712,4.733624,1.6469234000000001,-1.8796781999999999,-1
129,130,1583552566222,-4.927,1.0692999,-1.3596,5.1471314,1.5262175,-1.5851243999999998,-1
130,131,1583552566233,-4.5136,0.9335,-0.87729996,5.328133,1.336386,-1.1804466999999998,-1
131,132,1583552566243,-4.4614,0.7272,-0.6414,5.2935324,1.2102977,-1.1593108,-1
132,133,1583552566253,-4.4965,0.62079996,-0.6063,5.170287999999999,1.26614,-1.3895851000000001,-1
133,134,1583552566263,-4.6184998,0.6744,-0.8559,5.15192,1.598417,-2.1033156,-1
134,135,1583552566273,-4.625099700000001,0.94879997,-1.4336,5.219264,1.7531493999999999,-2.5912732999999997,-1
135,136,1583552566283,-4.553,1.0886999,-1.8901,5.3483114,1.6893200000000002,-2.9138296,-1
136,137,1583552566294,-4.3736997,0.9734,-2.2518,5.6034665,1.433964,-3.23313,-1
137,138,1583552566303,-4.087,0.6737,-2.5207,6.115347,0.95331365,-3.4921919999999997,-1
138,139,1583552566313,-3.4766998,0.1901,-2.7131,6.987114,0.46373770000000003,-3.6337087,-1
139,140,1583552566323,-2.5819,-0.2429,-2.8016,7.8886166,0.045231257000000004,-3.8275433,-1
140,141,1583552566333,-1.7070999,-0.60109997,-2.9903998,8.619251,-0.31004915,-4.086337,-1
141,142,1583552566343,-1.0091,-0.91279995,-3.1875,9.102697000000001,-0.5653381,-4.331158599999999,-1
142,143,1583552566353,-0.5861,-1.1065999,-3.4067,9.383384,-0.49294698,-4.2961173,-1
143,144,1583552566364,-0.3493,-0.9425,-3.2417,9.383949000000001,-0.088259846,-3.4822705000000003,-1
144,145,1583552566374,-0.3665,-0.6074,-2.4766,8.923189,0.07785944,-2.91337,-1
145,146,1583552566384,-0.8239,-0.48049998,-1.8843,8.32575,0.10570879,-2.6658382,-1
146,147,1583552566394,-1.4176999,-0.4757,-1.6116999,8.245621,0.2501366,-2.6862272999999997,-1
147,148,1583552566404,-1.5014,-0.3463,-1.5991,8.700673,0.47896484,-3.0932896,-1
148,149,1583552566414,-1.0368,-0.122999996,-1.9691,9.345239999999999,0.6991739,-3.3349602,-1
149,150,1583552566424,-0.387,0.11449999,-2.1864,9.935946000000001,0.81128,-3.1508653,-1
150,151,1583552566434,0.20289999,0.24309999,-1.986,10.177512,0.73179257,-3.0158513,-1
151,152,1583552566445,0.4976,0.1396,-1.7840999,10.283805000000001,0.45938984,-2.8447904999999998,-1
152,153,1583552566455,0.546,-0.0734,-1.6618998999999999,10.176536,0.35042492,-2.7261722,-1
153,154,1583552566465,0.44619998,-0.1538,-1.5404999,10.022597,0.36334404,-2.7757607,-1
154,155,1583552566475,0.2872,-0.1302,-1.6018,10.022971,0.40751228,-2.7456607999999996,-1
155,156,1583552566485,0.28509998,-0.0698,-1.5854,10.113443,0.5260060999999999,-2.569285,-1
156,157,1583552566495,0.5272,0.2478,-1.2679,10.303628999999999,0.7571806999999999,-2.3664099999999997,-1
157,158,1583552566506,0.5272,0.2478,-1.2679,10.381076,0.84080535,-2.31798,-1
158,159,1583552566516,0.6046,0.424,-1.0995,10.343306,0.8528146000000001,-2.2352555,-1
159,160,1583552566526,0.5261,0.3703,-1.0945,10.257660000000001,0.74542034,-2.253059,-1
160,161,1583552566536,0.5065,0.2092,-1.0891,10.270321000000001,0.5674258000000001,-2.2132382,-1
161,162,1583552566546,0.6635,0.028299998,-0.9166,10.444859,0.3694349,-2.0584772,-1
162,163,1583552566556,0.8594,-0.1249,-0.8064,10.628197,0.21863851,-1.9418987,-1
163,164,1583552566567,0.9763,-0.155,-0.6235,10.74263,0.21341914,-1.7484281000000004,d
164,165,1583552566577,0.9163,-0.0832,-0.3876,10.610968,0.29338548,-1.4867035,-1
165,166,1583552566587,0.9163,-0.0832,-0.3876,10.381689,0.28434497,-1.3147902,-1
166,167,1583552566597,0.3545,-0.1196,-0.0508,10.030825,0.22056343,-1.1906173,-1
167,168,1583552566607,0.1183,-0.1822,-0.0698,9.855367999999999,0.1860199,-1.1572517,-1
168,169,1583552566617,0.12789999,-0.21169999,0.1344,9.890362,0.13826036,-0.9544629000000001,-1
169,170,1583552566628,0.33409998,-0.28489998,0.1874,10.126161999999999,0.07276458,-0.951293,-1
170,171,1583552566638,0.61869997,-0.3532,0.0942,10.486057,-0.05770984,-1.1114267,-1
171,172,1583552566648,0.9126,-0.47779998,-0.12969999,10.763632000000001,-0.23765804,-1.339326,-1
172,173,1583552566658,1.1765,-0.57379997,-0.3008,10.979866000000001,-0.25209028,-1.4502925,-1
173,174,1583552566668,1.2044,-0.4976,-0.3509,10.935947,-0.17275602,-1.461507,-1
174,175,1583552566678,1.0260999,-0.3983,-0.3373,10.665938,-0.08422801,-1.4071871999999999,-1
175,176,1583552566688,0.7499,-0.3733,-0.255,10.45341,-0.076327145,-1.3029628999999998,-1
176,177,1583552566698,0.50369996,-0.3902,-0.0903,10.215341,-0.098775186,-1.1010646000000002,-1
177,178,1583552566708,0.44439998,-0.4357,0.021,10.167428,-0.11725842,-1.0792774,-1
178,179,1583552566718,0.48369998,-0.4486,-0.047799997000000004,10.291744,-0.11858959999999999,-1.1129687,-1
179,180,1583552566729,0.8075,-0.3795,-0.0947,10.707129,0.00476925,-1.1765491000000001,-1
180,181,1583552566739,1.1212,-0.2592,-0.1046,10.929953,0.12472833,-1.177497,-1
181,182,1583552566749,1.1794,-0.218,-0.1891,10.88743,0.12020808,-1.253786,-1
182,183,1583552566759,1.1794,-0.218,-0.1891,10.738453999999999,0.10156204,-1.1936818,-1
183,184,1583552566769,0.91179997,-0.23169999,-0.2067,10.651641,0.13034992,-1.3468917999999999,-1
184,185,1583552566779,0.8709,-0.1894,-0.5094,10.609043,0.18488984,-1.6268791,-1
185,186,1583552566790,0.8695,-0.1408,-0.6544,10.646307,0.25930163,-1.6372606,-1
186,187,1583552566800,0.8689,-0.0871,-0.62689996,10.63038,0.24983974,-1.5306227,-1
187,188,1583552566810,0.8789,-0.19579999,-0.38689998,10.633291,0.12112745,-1.0676608,-1
188,189,1583552566820,0.87039995,-0.3005,0.145,10.61793,0.13976392,-0.44775403,-1
189,190,1583552566830,0.7941,-0.28329998,0.7503,10.362306,0.25552836,-0.12292789999999999,-1
190,191,1583552566840,0.47289997,-0.1125,0.8071,10.0333805,0.5392029,-0.44503420000000005,-1
191,192,1583552566851,0.16129999,0.1085,0.33159998,9.812119000000001,0.6956305,-0.86743844,-1
192,193,1583552566861,-0.013499998999999999,0.2262,-0.1095,9.704483999999999,0.8228870999999999,-1.2462777,-1
193,194,1583552566871,-0.0422,0.29099998,-0.3012,9.7306,0.9240086,-1.3752103,-1
194,195,1583552566881,-0.0029,0.3419,-0.4287,9.802025,0.8530445,-1.4338108,-1
195,196,1583552566891,0.0947,0.1715,-0.44039997,9.925978,0.6226457,-1.3368361,-1
196,197,1583552566901,0.2322,-0.0769,-0.2703,10.162256,0.40448603,-0.9194405000000001,-1
197,198,1583552566911,0.44919997,-0.25,0.1346,10.197977,0.33861673,-0.60671943,-1
198,199,1583552566922,0.4416,-0.3391,0.506,10.135374,0.26449224,-0.26421452,-1
199,200,1583552566932,0.3265,-0.44169998,0.8095,9.871389,0.22768858,-0.23423912,-1
200,201,1583552566942,-0.0046,-0.46719998,0.6569,9.467908999999999,0.34911293,-0.49229574,-1
201,202,1583552566952,-0.3366,-0.33449998,0.4382,9.117963,0.49394298,-0.98199624,-1
202,203,1583552566962,-0.6793,-0.2373,-0.1304,8.971935,0.57255894,-1.5194178999999999,-1
203,204,1583552566972,-0.75799996,-0.17379999,-0.62549996,9.105226,0.65085894,-1.6866575000000001,-1
204,205,1583552566983,-0.5823,-0.1241,-0.71999997,9.310475,0.6198205,-1.5642374,-1
205,206,1583552566993,-0.2988,-0.19919999,-0.48909998,9.716408,0.51438946,-1.132898,-1
206,207,1583552567003,0.0245,-0.3053,-0.1259,9.877153999999999,0.38022795,-0.61233145,-1
207,208,1583552567013,0.1428,-0.4468,0.4188,9.782785,0.21269129,-0.16365805,-1
208,209,1583552567024,-0.0023,-0.6257,0.7819,9.435156,0.0997616,-0.23505315,-1
209,210,1583552567034,-0.3726,-0.7712,0.6547,9.164036999999999,0.14056838,-0.3643975,-1
210,211,1583552567044,-0.60569996,-0.7140000000000001,0.5419,9.100954,0.3890099,-0.38499722,-1
211,212,1583552567054,-0.63339996,-0.51949996,0.50949997,9.124456,0.7501896,-0.5025238000000001,-1
212,213,1583552567064,-0.61259997,-0.18689999,0.3836,9.074341,1.0616752,-0.663213,-1
213,214,1583552567074,-0.66029996,0.0876,0.2003,9.022176,1.2299875,-0.73992324,-1
214,215,1583552567085,-0.70739996,0.23519999,0.1105,8.969867,1.2426482,-0.71944803,-1
215,216,1583552567094,-0.754,0.2082,0.12529999,9.065050999999999,1.1375427,-0.69679886,-1
216,217,1583552567104,-0.6631,0.0858,0.15619999,9.291830000000001,1.0438623,-0.64752626,-1
217,218,1583552567114,-0.4247,-0.0345,0.21169999,9.495385,0.97512966,-0.6116706999999999,-1
218,219,1583552567124,-0.22569999,-0.1248,0.25669998,9.539822000000001,1.0643951,-0.54033303,-1
219,220,1583552567134,-0.1742,-0.0497,0.3243,9.330683,1.2334256000000001,-0.54134816,-1
220,221,1583552567144,-0.37829998,0.09219999599999999,0.3121,9.028516,1.3686885,-0.43096587,-1
221,222,1583552567155,-0.6911,0.19479999,0.39749998,8.81908,1.5222622,-0.47674300000000003,-1
222,223,1583552567165,-0.89659995,0.3292,0.3312,8.7646265,1.6959853999999999,-0.6234789000000001,-1
223,224,1583552567175,-0.94549996,0.48799998,0.1486,8.918775,1.8276762,-0.7725993,-1
224,225,1583552567185,-0.47419998,0.6376,-0.15609999,9.328088000000001,1.8232898999999998,-0.94123733,-1
225,226,1583552567196,-0.1398,0.5259,-0.1584,9.645567999999999,1.7243041000000001,-0.89689666,-1
226,227,1583552567206,-0.1398,0.5259,-0.1584,9.677861,1.6688735000000001,-0.8813535,-1
227,228,1583552567216,-0.0106,0.36339998,-0.0874,9.780169500000001,1.4416541999999999,-0.6440498,-1
228,229,1583552567226,0.1405,0.19409999,0.14389999,9.850961999999999,1.4868375,-0.65946853,-1
229,230,1583552567236,0.0638,0.3554,0.0828,9.738961,1.6508498999999999,-0.7118439999999999,-1
230,231,1583552567246,-0.1501,0.38779998,0.0184,9.509012,1.6852499,-0.764143,-1
231,232,1583552567257,-0.1501,0.38779998,0.0184,9.29928,1.6449986,-0.64608973,-1
232,233,1583552567267,-0.5194,0.30069998,0.1995,9.1644,1.6110392,-0.5576383,-1
233,234,1583552567277,-0.479,0.2364,0.22399999,9.258924,1.5270793,-0.5924020999999999,-1
234,235,1583552567287,-0.2038,0.19849999,0.0578,9.549839,1.5187763,-0.77568305,-1
235,236,1583552567298,0.100499995,0.1656,-0.10300000000000001,9.842372,1.4574368,-0.9323117,-1
236,237,1583552567308,0.2483,0.0352,-0.1528,9.926945,1.2374383,-0.99197525,-1
237,238,1583552567318,0.2197,-0.24489999,-0.0777,9.901786,0.950364,-0.8467238000000001,d
238,239,1583552567329,0.1812,-0.46989998,0.108399995,9.865575999999999,0.83308643,-0.6702041,-1
239,240,1583552567339,0.07369999599999999,-0.44329998,0.1577,9.689428999999999,0.92964935,-0.7541831,-1
240,241,1583552567349,-0.0927,-0.3108,-0.052899998,9.594361,1.0135039000000001,-0.9687515,-1
241,242,1583552567359,-0.1902,-0.23809999,-0.4093,9.484419,1.1061404,-1.3884168,-1
242,243,1583552567369,-0.2874,-0.16659999,-0.547,9.313914,1.1734556999999999,-1.308278,-1
243,244,1583552567379,-0.5898,-0.117199995,-0.2689,8.844430000000001,1.2433376,-0.88202393,-1
244,245,1583552567390,-1.0682,-0.059899997,0.1205,8.37556,1.2902162,-0.6214677,-1
245,246,1583552567400,-1.5956,-0.078999996,0.3751,7.965509399999999,1.2637075,-0.46636176,-1
246,247,1583552567410,-1.8199999,-0.1599,0.33589998,7.9379663,1.0815375,-0.66858566,-1
247,248,1583552567420,-1.5749999,-0.3304,0.0977,8.396705,0.9891788,-0.9472610999999999,-1
248,249,1583552567430,-1.1348,-0.3595,-0.1633,8.663668,0.9800138,-1.1726034,-1
249,250,1583552567441,-1.0666,-0.34489998,-0.31829998,8.368779,1.0454808,-1.1389216999999998,-1
250,251,1583552567451,-1.6534,-0.2753,-0.1871,7.304221000000001,1.0832422,-1.0146244,-1
251,252,1583552567461,-2.9339999999999997,-0.2798,0.0067999995999999995,5.9191655999999995,1.0853875,-0.69400245,-1
252,253,1583552567471,-4.2618,-0.30269998,0.3344,4.8217115,1.1985565,-0.37407008,-1
253,254,1583552567481,-5.1288,-0.0771,0.7532,4.320069,1.6535889,0.25343105,-1
254,255,1583552567492,-5.5077,0.47509998,1.4314,3.9606513999999997,2.280391,0.8384398999999999,-1
255,256,1583552567502,-5.8020997,1.0644,1.9406999,3.7815266000000003,2.8458247,1.1975605,-1
256,257,1583552567512,-5.9042997,1.4666,2.0653,3.910804,2.9418612,0.71646965,-1
257,258,1583552567522,-5.6762,1.5444,1.4488,4.342967,2.7849257,-0.08796297,-1
258,259,1583552567532,-5.2833,1.393,0.6771,4.5286517,2.3843281000000003,-0.49624140000000005,-1
259,260,1583552567542,-5.1552997000000005,0.9773,0.3956,4.4539337,1.5469704,-0.39127,-1
260,261,1583552567553,-5.2808,0.1516,0.5495,4.1921225,0.8214697,-0.24503218,-1
261,262,1583552567563,-5.5902,-0.42209998,0.6913,3.7916877,0.47845727,-0.21271046,-1
262,263,1583552567573,-6.0052,-0.6362,0.71989995,3.3747709,0.43762177,-0.50760907,-1
263,264,1583552567583,-6.4382,-0.5683,0.44399998,3.0024247,0.59914416,-0.7222062,-1
264,265,1583552567593,-6.7527,-0.3048,0.34579998,2.8973767999999995,1.0804553,-0.63001025,-1
265,266,1583552567603,-6.8234997,0.1783,0.4579,2.8807228,1.5538561000000002,-0.59254575,-1
266,267,1583552567614,-6.8486,0.7276,0.50229996,2.8943887000000004,1.8735491000000002,-0.44545559999999995,-1
267,268,1583552567624,-6.826699700000001,1.1484,0.6669,3.1070035,1.6300204,-0.26923275,-1
268,269,1583552567634,-6.6285,0.972,0.7924,3.2700677000000002,1.0907886999999998,-0.010151415,-1
269,270,1583552567644,-6.4772,0.37379998,1.091,2.9537744999999997,0.21997924,0.14172716,-1
270,271,1583552567654,-6.7939,-0.24509999,1.2132,2.455704,-0.44854888,0.10853395,-1
271,272,1583552567665,-7.2853,-0.76519996,1.2159,2.5213337000000005,-1.1893532,0.24921724,-1
272,273,1583552567675,-7.2275996,-1.3864,1.3845999,3.0349762000000005,-1.4433684,0.4759673,-1
273,274,1583552567685,-6.7209,-1.4799,1.5891998999999999,3.3166589999999996,-1.3139091999999999,0.40442857,-1
274,275,1583552567695,-6.4416,-1.1886,1.4801999,3.4596407,-1.0215292,0.045585602999999995,-1
275,276,1583552567705,-6.0745997,-0.2496,1.2301999,3.7564928999999996,-0.7225222,0.35971445,-1
276,277,1583552567715,-5.8623,-0.5434,1.4959999,3.9129492999999993,-1.376168,0.66786736,-1
277,278,1583552567726,-5.7883997,-1.6428,1.4906,3.9727660000000005,-2.8234917999999998,0.5131253,-1
278,279,1583552567736,-5.5002,-3.1048,1.0424,4.297649400000001,-4.3914349999999995,0.026728868,-1
279,280,1583552567746,-5.5002,-3.1048,1.0424,4.7239037,-5.093195,-0.023731327000000003,-1
280,281,1583552567756,-4.9609,-3.8607998,1.0009999,5.423681,-5.4543843,-0.12652877,-1
281,282,1583552567766,-3.7765,-3.3978998999999996,0.73499995,5.9162445,-4.922086,-0.28151023,-1
282,283,1583552567776,-3.447,-2.7347999,1.0648999,6.178611,-4.647586,0.24068432,-1
283,284,1583552567786,-3.1589,-2.9404,1.6815,6.418826,-5.229588,0.97899866,-1
284,285,1583552567797,-2.839,-3.7275998999999995,2.2949,6.747999999999999,-6.4387455000000005,1.6263524999999999,-1
285,286,1583552567807,-1.944,-5.2300997,2.3853,8.022731,-8.662308,1.3659208,-1
286,287,1583552567818,-0.34649998,-6.6180997,1.2595999,9.721492999999999,-10.011662,-0.10769119,-1
287,288,1583552567828,1.7239,-7.0027,-0.6846,11.369278,-10.301619,-1.760648,-1
288,289,1583552567838,3.8799,-6.4851,-2.3009,13.716045999999999,-9.757280999999999,-2.9684079,-1
289,290,1583552567848,5.3402,-5.3626,-1.7093999,14.468361999999999,-8.852905,-1.5966548,-1
290,291,1583552567858,5.1986,-4.4245,-0.0363,13.554648,-8.567200999999999,-0.03977248,-1
291,292,1583552567868,3.6037998,-4.6126,0.9571,11.717922,-9.203723,0.7858919,-1
292,293,1583552567878,2.2819,-5.18,1.2437999,10.764072,-10.069265,0.95789135,-1
293,294,1583552567889,2.4315999,-5.8229999999999995,1.2789,11.192519,-10.778926,1.1843636,-1
294,295,1583552567899,3.8139,-6.4314,1.6069,12.507653999999999,-11.691366,1.6126575,-1
295,296,1583552567909,5.5122,-6.8839999999999995,1.1819998999999999,14.458939,-12.252863,1.1633809,-1
296,297,1583552567919,7.5274997,-6.4122,0.5467,16.250595,-11.840505,0.77271426,-1
297,298,1583552567929,9.1133995,-5.7633,0.14469999,17.385075,-11.515728,0.56391114,-1
298,299,1583552567939,9.942699000000001,-5.3494997,-0.086799994,17.472929999999998,-11.572307,0.5032229,-1
299,300,1583552567949,9.4583,-5.6647997000000005,0.17889999,16.515837,-12.252049000000001,1.1533923000000001,-1
300,301,1583552567959,8.456799499999999,-6.0955,0.9399,15.266063,-12.797946000000001,1.8767763,-1
301,302,1583552567969,7.7911,-6.2974,1.2616999,14.853004,-12.93366,1.945423,-1
302,303,1583552567979,7.665,-5.9883,0.9709,14.766479,-12.541911,1.4521695,-1
303,304,1583552567989,7.9329996,-5.3135,0.18779999,15.002278,-11.958071,0.7957273,-1
304,305,1583552567999,8.3638,-4.5899997,-0.40039998,15.281682,-11.384889,0.25289473,-1
305,306,1583552568009,8.655499,-3.8802,-1.1343,15.269711,-10.799095,-0.42320868,-1
306,307,1583552568019,8.488,-3.2647998,-1.6089,14.679731,-10.210293,-0.62279886,-1
307,308,1583552568030,7.8389997000000005,-2.7347999,-1.4627,13.910732999999999,-9.890984,-0.28058130000000003,-1
308,309,1583552568039,6.8187,-2.3279998,-0.77879995,12.756077000000001,-9.588385,0.41983765,-1
309,310,1583552568049,5.7077,-2.0709,-0.32549998,11.632373,-9.426977,0.65785,-1
310,311,1583552568059,4.7585998,-1.8316,-0.2595,10.826024,-9.154,0.659095,-1
311,312,1583552568069,4.3684,-1.3515999,-0.42069998,10.52109,-8.472256,0.4020439,-1
312,313,1583552568079,4.2053,-0.72749996,-0.6673,10.306004,-8.139922,0.3947177,-1
313,314,1583552568089,3.9317,-0.4811,-0.4856,9.885659,-7.9837527,0.7929022,-1
314,315,1583552568100,3.4552998999999995,-0.2607,-0.2348,9.305467,-7.7287893,0.9323021,-1
315,316,1583552568110,3.0993998,-0.0751,-0.3879,9.097641000000001,-7.626212599999999,0.81799334,-1
316,317,1583552568120,3.0291,0.1157,-0.46399999999999997,9.057552000000001,-7.396186999999999,0.86445045,-1
317,318,1583552568130,2.9291,0.2826,-0.39909998,8.705949,-7.3923372999999994,1.0670574,-1
318,319,1583552568140,2.4450998,0.18879999,-0.0799,8.082203,-7.538009599999999,1.4211407,-1
319,320,1583552568150,1.7471,0.070599996,0.1699,7.435567,-7.6169806,1.5009633,-1
320,321,1583552568161,1.2225,-0.0014,0.1626,7.084596,-7.601628999999999,1.3784473,-1
321,322,1583552568171,0.97429997,0.0637,-0.0106,6.9900727,-7.487052,1.1406839,-1
322,323,1583552568181,0.9659,0.1989,-0.27399999999999997,7.059925999999999,-7.406731,0.9732716999999999,-1
323,324,1583552568191,1.0784,0.20789999,-0.5155,7.169829400000001,-7.4787482999999995,0.6006094,-1
324,325,1583552568201,1.1618,0.14819999,-0.97349995,7.2373075,-7.4293613,0.25647646,-1
325,326,1583552568211,1.2124,0.2051,-1.1180999,7.180200999999999,-7.477015,0.44445959999999995,-1
326,327,1583552568222,1.032,0.084199995,-0.8057,6.702328,-7.64732,1.0625659,-1
327,328,1583552568232,0.5624,-0.0286,-0.168,6.2718415,-7.620773,1.7404889,-1
328,329,1583552568242,0.0132,-0.0145,0.6394,5.785493,-7.731940299999999,2.2435777000000003,d
329,330,1583552568252,-0.37399998,-0.16499999,0.84739995,5.6394462999999995,-7.764798,1.9859616000000002,-1
330,331,1583552568262,-0.3971,-0.1449,0.5089,5.738729,-7.695663499999999,1.5688151000000001,-1
331,332,1583552568272,-0.21769999,0.035099998,-0.2023,6.0143876,-7.708667999999999,0.7556484,-1
332,333,1583552568283,0.1002,-0.10439999400000001,-0.8109999999999999,6.5626125,-7.7755529999999995,0.48541963,-1
333,334,1583552568293,0.6949,-0.1349,-1.1442,7.0797215,-7.7656507,0.082389265,-1
334,335,1583552568304,1.2847998999999999,-0.117699996,-1.5903,7.541303999999999,-7.720217999999999,-0.04046201,-1
335,336,1583552568314,1.6452999,-0.055999997999999995,-1.6046,7.562862,-7.662202400000001,0.27714320000000003,-1
336,337,1583552568324,1.5486,-0.0393,-1.234,7.2342243,-7.8174324,0.8712979,-1
337,338,1583552568334,1.2534,-0.18509999,-0.6967,6.8874187000000004,-8.126178999999999,1.3890296,-1
338,339,1583552568344,0.8856,-0.51019996,-0.1273,6.593239,-8.411731,1.6133758999999999,-1
339,340,1583552568354,0.56079996,-0.8059,0.12419999400000001,6.6646532999999994,-8.67176,1.6326827,-1
340,341,1583552568365,0.6177,-1.0694,0.1481,7.1050334,-8.707185,1.6154636,-1
341,342,1583552568375,1.0573,-1.1130999,0.112399995,7.650144999999999,-8.658315,1.3715712,-1
342,343,1583552568385,1.6105,-1.0672,-0.1645,8.063097,-8.670966,0.9995984,-1
343,344,1583552568395,2.0254,-1.0825,-0.5760000000000001,8.403858,-8.663582,0.86507297,-1
344,345,1583552568405,2.5383,-1.1561999,-0.6004,8.609702,-8.740282,1.0755328000000002,-1
345,346,1583552568416,2.6713998,-1.2644,-0.2021,8.786156,-8.80958,1.5537603000000002,-1
346,347,1583552568426,2.6713998,-1.2644,-0.2021,8.781376,-8.88969,1.9523948,-1
347,348,1583552568436,2.5024,-1.6991999,0.9111,8.638213,-9.24409,2.5673504,-1
348,349,1583552568446,2.5537999,-1.9830999,1.1534,8.786251,-9.517297,2.764738,-1
349,350,1583552568456,3.0423,-2.3829,1.0303,9.439283999999999,-9.890303999999999,2.5397787,-1
350,351,1583552568466,4.1442,-2.6146998,0.33429998,10.639975999999999,-10.045103,1.7410443,-1
351,352,1583552568476,5.5582,-2.7215,-0.6397,12.15971,-10.072426,0.8940619000000001,-1
352,353,1583552568487,7.0776997,-2.5908,-0.95229995,13.619982,-9.9087,0.71308905,-1
353,354,1583552568497,7.8496,-2.5326,-0.7007,14.268877,-9.836425,1.0531615,-1
354,355,1583552568507,7.6331,-2.7196,-0.1489,13.972254999999999,-9.994392999999999,1.5343193000000002,-1
355,356,1583552568517,6.915,-3.0911999,0.0955,13.400548,-10.291542999999999,1.6467606,-1
356,357,1583552568527,6.6853,-3.4062997999999998,0.19399999,13.570584,-10.48532,1.6729724,-1
357,358,1583552568537,7.1684,-3.5906,0.1785,14.165582,-10.542369,1.5256332000000001,-1
358,359,1583552568548,7.9635997000000005,-3.6941998,0.0202,15.051542000000001,-10.479718,1.3126163,-1
359,360,1583552568558,8.3512,-3.6729998999999998,0.009699999,15.449325,-10.365973,1.3010954,-1
360,361,1583552568568,8.1315,-3.7284,0.1841,15.178377,-10.209479,1.5708262,-1
361,362,1583552568578,7.461199799999999,-3.6655998,0.58489996,14.555453,-9.937142999999999,1.8735107,-1
362,363,1583552568588,6.5978,-3.5809,0.8427,13.862667000000002,-9.70031,2.047234,-1
363,364,1583552568598,5.867999999999999,-3.5205,0.9923,13.423704999999998,-9.408781,2.1948605,-1
364,365,1583552568609,5.3921,-3.4029998999999997,1.1577,13.0896845,-9.091971000000001,2.1833299999999998,-1
365,366,1583552568619,4.7804,-3.3436,0.92819995,12.566227,-8.803653,1.8293808,-1
366,367,1583552568629,4.1026,-3.3418,0.6663,12.062227,-8.650394,1.6279614,-1
367,368,1583552568640,3.4285997999999998,-3.4264,0.79399997,11.521607000000001,-8.434264,1.8353758999999998,-1
368,369,1583552568650,2.6016998,-3.2739,1.1065,10.551735,-7.870871000000001,2.123542,-1
369,370,1583552568660,1.6127,-3.0017998,1.4588,9.861813,-7.303043,2.3972185,-1
370,371,1583552568670,0.9438,-2.745,1.7465,9.432801,-6.7838173,2.4473627000000002,-1
371,372,1583552568680,0.3821,-2.4009,1.8777,9.083611,-6.210626599999999,2.5535982,-1
372,373,1583552568690,-0.0514,-2.1043,2.1088,8.781894,-5.725877,2.6441371,-1
373,374,1583552568701,-0.46409997,-1.9509,2.3697,8.410092,-5.373709,2.9301007,-1
374,375,1583552568711,-0.9927,-1.8406999,2.8439999,7.957148599999999,-5.0076165,3.2408872000000004,-1
375,376,1583552568721,-1.5292,-1.7526,3.2175,7.341723399999999,-4.92087,3.3016617,-1
376,377,1583552568731,-2.3286998,-2.0172,3.2879998999999995,6.67287,-4.949313,3.2556833999999997,-1
377,378,1583552568741,-2.9313998,-2.1320999,3.3523,6.300878,-4.702959,3.1109204,-1
378,379,1583552568751,-3.2407,-2.1253998,3.1155999,6.307994,-4.619899299999999,2.5664787000000002,-1
379,380,1583552568762,-3.0409,-2.2616,2.3151999,6.9535856,-4.2046776,1.2760233,-1
380,381,1583552568772,-2.2812,-1.7436999,0.8893,7.691325,-3.311928,-0.1520797,-1
381,382,1583552568782,-1.7906,-0.9878,-0.273,7.776223700000001,-2.3917787,-0.84670466,-1
382,383,1583552568792,-1.9454999,-0.5191,-0.456,7.1032133,-2.0421294999999997,0.29307902,-1
383,384,1583552568802,-2.7949,-0.48209998,0.9503,5.8226027,-1.9988423999999998,1.7568748,-1
384,385,1583552568812,-4.1502,-0.6362,2.3836,4.6999325999999995,-1.6354026000000002,2.6412067,-1
385,386,1583552568822,-5.2243,-0.43559998,3.2231,4.088405600000001,-1.0682067,2.829094,-1
386,387,1583552568832,-5.9674,0.1175,3.2235,3.3006272000000005,-0.19817287,2.1485856,-1
387,388,1583552568842,-6.5471,0.5776,2.6476,2.9436996,-0.06744945,2.0451462,-1
388,389,1583552568852,-6.8675,0.4513,2.7779999,3.0528082999999997,-0.42495167,2.8185978,-1
389,390,1583552568862,-6.6162,-0.0945,3.6388998,3.8380587,-1.3287053,3.4730864,-1
390,391,1583552568872,-5.7362,-1.1352999,4.1886,4.5880279999999996,-1.9680146,3.6262195,-1
391,392,1583552568882,-4.9447,-1.7573999,4.200599700000001,5.11525,-2.1120977,3.0736666,-1
392,393,1583552568892,-4.6637,-1.7315999,3.4635,5.1064973,-1.6383426,1.612945,-1
393,394,1583552568903,-4.745899700000001,-1.2386999,1.7967,4.7815657,-0.99473333,-0.24207295,-1
394,395,1583552568913,-5.1122,-0.6407,-0.0196,4.263125,-0.27972895,-1.5539998,-1
395,396,1583552568923,-5.6742,0.0242,-1.1572,3.5994716,0.22392489,-1.5091611,-1
396,397,1583552568933,-6.3528,0.39339998,-0.8878,2.8958251,0.3559412,-0.63769084,-1
397,398,1583552568943,-7.0195,0.3635,0.0356,2.6221106,-0.29595205,0.05453991,-1
398,399,1583552568953,-7.0657997,-0.47039998,0.6616,3.7620187000000005,-1.1711093000000001,0.3510283,-1
399,400,1583552568963,-5.6877,-1.2512,1.0041,5.7023660000000005,-1.1083717,0.2937015,-1
400,401,1583552568974,-4.0827,-1.1219,1.0012,6.4914665000000005,-0.5760258,0.20568107,-1
401,402,1583552568984,-3.2879998999999995,-0.6308,1.0378,5.999266,-0.14583562,0.216953,-1
402,403,1583552568994,-3.7739999999999996,-0.2288,1.0946,5.0822873,0.13346238,0.12771629,-1
403,404,1583552569004,-4.854,0.0064,1.0662999,4.357006500000001,0.27401158,0.11293928,-1
404,405,1583552569014,-5.403,0.0327,1.1492,4.0519376000000005,0.34629732,0.04910987,-1
405,406,1583552569024,-5.6858997,0.0504,1.1766,4.0924377,0.3253337,-0.33194172,-1
406,407,1583552569035,-5.6450996,-0.018000000000000002,0.89699996,4.736593,-0.01364695,-1.118686,-1
407,408,1583552569045,-4.9881997,-0.3448,0.18349999,6.051986,-0.13731226,-1.8535143,-1
408,409,1583552569055,-3.6669,-0.4604,-0.49589998,7.322081599999999,0.005592855,-2.2897092999999997,-1
409,410,1583552569065,-1.1544,-0.0064,-0.93329996,8.603477499999999,0.31057584,-2.3482428,-1
410,411,1583552569076,-1.2926999,-0.0755,-0.67969996,8.270280999999999,0.18261056,-2.1198072,-1
411,412,1583552569086,-1.2926999,-0.0755,-0.67969996,7.7416606,-0.057087347000000004,-1.8341405,-1
412,413,1583552569096,-2.4166,-0.52099997,-0.2487,7.195495599999999,-0.17908628,-1.9518490000000002,-1
413,414,1583552569106,-2.4166,-0.52099997,-0.2487,7.055262,-0.04433104,-2.2781692000000002,-1
414,415,1583552569116,-2.4837,-0.15529999,-0.81009996,7.254326,0.25648606,-2.57754,-1
415,416,1583552569126,-1.9564999,0.0585,-0.75839996,7.8033834,0.47251007,-2.5363022999999996,-1
416,417,1583552569136,-1.9564999,0.0585,-0.75839996,8.166478,0.5635951,-2.444183,-1
417,418,1583552569146,-1.2899,0.1943,-0.6404,8.383258999999999,0.46051990000000004,-2.5497673,-1
418,419,1583552569157,-1.0703,-0.0975,-0.9194,8.631260000000001,0.10846691,-2.8789507999999997,-1
419,420,1583552569166,-0.6157,-0.3272,-1.3382,9.122301,-0.13396996,-3.3256612000000003,-1
420,421,1583552569176,-0.0738,-0.3703,-1.6351999,9.65818,-0.16713443,-3.5952672999999997,-1
421,422,1583552569186,0.2707,-0.2418,-1.7527,9.9092655,-0.05661808,-3.666289,-1
422,423,1583552569196,0.262,-0.16059999,-1.5295999,9.858308000000001,-0.018013973,-3.4103296000000003,-1
423,424,1583552569206,0.0678,-0.097399995,-1.2735,9.641364,0.047251966,-3.1861846000000003,-1
424,425,1583552569217,0.0678,-0.097399995,-1.2735,9.413387,0.16926049,-2.9875903,-1
425,426,1583552569227,-0.3268,0.0679,-0.8735,9.271144,0.18275422,-2.8627853,-1
426,427,1583552569237,-0.32,0.0005999999700000001,-0.78169996,9.307029,0.09838254,-2.7702253,-1
427,428,1583552569247,-0.1854,-0.0622,-0.6392,9.451217,0.042645518,-2.6794182999999996,-1
428,429,1583552569257,-0.1854,-0.0622,-0.6392,9.620486,-0.03465846,-2.6877307999999998,-1
429,430,1583552569267,0.21899999999999997,-0.1267,-0.65999997,9.836942,-0.09667786,-2.7824167999999996,-1
430,431,1583552569278,0.3403,-0.023,-0.6624,9.934652999999999,0.035012808,-2.7751767999999997,-1
431,432,1583552569288,0.34289998,0.050499998,-0.445,9.897783,0.045566447,-2.430402,-1
432,433,1583552569298,0.2373,0.0243,-0.0916,9.786406,-0.01712333,-2.1091385,-1
433,434,1583552569308,0.20109999,-0.042099997,0.147,9.813737,-0.17045759,-2.0529609,-1
434,435,1583552569318,0.33299999999999996,-0.1475,-0.0791,9.949948,-0.25147736,-2.3608363,-1
435,436,1583552569328,0.6236,-0.1749,-0.52349997,10.333001,-0.26544037,-2.8885662999999995,-1
436,437,1583552569338,0.9557,-0.1476,-0.8409,10.599246,-0.2530288,-3.195292,d
437,438,1583552569348,1.0838,-0.1179,-1.0031999,10.580189,-0.22688413,-3.3001196000000004,-1
438,439,1583552569358,0.86939996,-0.0783,-0.82979995,10.346916,-0.19522321,-3.0728815,-1
439,440,1583552569368,0.5665,0.0316,-0.3048,10.020338,-0.07227616,-2.5790722,-1
440,441,1583552569378,0.21339999,0.080699995,0.16579999,9.658094,-0.061186217,-2.1300159,-1
441,442,1583552569388,0.1424,-0.091,0.39139998,9.707885000000001,-0.26911786,-2.1283495,-1
442,443,1583552569398,0.3344,-0.2545,0.0898,10.023574,-0.4100214,-2.6649284,-1
443,444,1583552569411,0.3344,-0.2545,0.0898,10.354358,-0.50466895,-3.1989887,-1
444,445,1583552569421,1.3062999,-0.39159998,-1.5172,10.967713999999999,-0.5223382000000001,-4.387297599999999,-1
445,446,1583552569431,1.5382999,-0.40019998,-1.9539,11.021507000000001,-0.5880447,-4.544511,-1
446,447,1583552569441,1.4763,-0.52959996,-2.0268,10.669357000000002,-0.75988126,-4.783107299999999,-1
447,448,1583552569451,1.1094998999999999,-0.6803,-2.2688,10.309347,-0.8144021,-5.091825,-1
448,449,1583552569462,0.713,-0.76,-2.6887999,9.988236,-0.92563665,-5.768714,-1
449,450,1583552569472,0.5221,-0.92139995,-3.2480998,9.960349,-1.1071841999999998,-6.221592,-1
450,451,1583552569482,0.508,-1.1622,-3.6794,10.111576,-1.3234956,-6.579295,-1
451,452,1583552569492,0.7211,-1.4052,-3.9387999,10.3551235,-1.4582317,-6.7662725,-1
452,453,1583552569502,0.96489996,-1.555,-4.067,10.520524,-1.4141976,-6.7528553,-1
453,454,1583552569512,1.0818,-1.4669999999999999,-4.0081,10.230175,-1.0970520000000001,-6.8334923,-1
454,455,1583552569523,0.70809996,-1.2297,-4.1189,9.717347,-0.9031216000000001,-7.2632704,-1
455,456,1583552569533,0.2235,-1.1223,-4.6242,9.461789,-0.80722904,-7.8006825,-1
456,457,1583552569543,-0.0207,-1.0984,-5.2641,9.40519,-0.8943300999999999,-8.437368,-1
457,458,1583552569553,0.0039999996999999995,-1.3023,-5.7957,9.542015,-1.1731302,-8.972175,-1
458,459,1583552569564,0.1523,-1.6172999,-6.3707,9.812981,-1.3821248,-9.594802,-1
459,460,1583552569574,0.37739998,-1.8118,-6.9226,10.127723,-1.5831803,-9.752819,-1
460,461,1583552569584,0.68149996,-2.0607,-7.1316,10.273672999999999,-1.6456976000000003,-9.122876,-1
461,462,1583552569594,0.8124,-2.1667,-6.5284996,9.949823,-1.625845,-8.267897,-1
462,463,1583552569604,0.4869,-2.2326,-5.6991,9.242517999999999,-1.4747708000000002,-7.6345825,-1
463,464,1583552569614,-0.20789999,-2.1664,-5.0901,8.43189,-1.1892191,-7.341149000000001,-1
464,465,1583552569625,-1.0205,-1.9873999,-4.8191,7.5901937,-1.126989,-7.552385000000001,-1
465,466,1583552569635,-1.8669,-2.008,-5.067,7.0017757,-1.3755358,-7.6811929999999995,-1
466,467,1583552569645,-2.4635,-2.3309,-5.2651997,6.9527807,-1.3737354,-7.004610499999999,-1
467,468,1583552569655,-2.7547998,-2.3665,-4.2606997,6.6684837,-1.2638704,-6.464632,-1
468,469,1583552569665,-2.7547998,-2.3665,-4.2606997,6.363759,-1.1748252000000001,-6.046374299999999,-1
469,470,1583552569676,-3.6123,-2.2577999,-3.5648,5.834449299999999,-1.028051,-5.554251,-1
470,471,1583552569686,-3.8079998,-2.1611,-2.7816,5.708122,-0.8820334999999999,-4.4718227,-1
471,472,1583552569696,-3.9447,-2.0946,-0.91529995,5.5009274,-0.75160694,-2.4002447,-1
472,473,1583552569706,-4.5631,-2.0856,0.7436,4.816741,-0.6866283000000001,-0.8972127000000001,-1
473,474,1583552569716,-4.5631,-2.0856,0.7436,4.0123370000000005,-0.5685654,-0.5035102,-1
474,475,1583552569727,-6.335,-1.8036,1.2075,3.1469004000000003,-0.2671929,-0.3694445,-1
475,476,1583552569737,-6.518399700000001,-1.5159999,1.2056,3.11455,0.006483498000000001,-0.25224352,-1
476,477,1583552569747,-6.1354,-1.4017,1.3579999,3.590498,0.11970051,0.08669883,-1
477,478,1583552569757,-6.1354,-1.4017,1.3579999,4.4026213,0.10367851,0.72112393,-1
478,479,1583552569767,-5.027199700000001,-1.4499999,1.9283999,4.7701597,-0.17130034,0.9429994,-1
479,480,1583552569778,-4.7806,-1.7628,2.3082,4.85524,-0.48548663,1.6318687,-1
480,481,1583552569788,-4.9726,-1.9619,3.0177,4.528881500000001,-0.76309913,2.607209,-1
481,482,1583552569798,-5.4472,-2.3214,4.3763,4.047417,-1.1391516000000002,4.2566705,-1
482,483,1583552569808,-5.9502997,-2.5412,5.8915997,3.6146412000000003,-1.257224,5.786747,-1
483,484,1583552569818,-6.1896,-2.3760998,7.0811,3.5519803,-1.0153713,6.788711,-1
484,485,1583552569828,-6.0481997000000005,-1.8771,7.3606,3.8202074,-0.4218679,6.929403999999999,-1
485,486,1583552569839,-5.7113,-1.1112,7.3603997,4.2006364000000005,0.13017754,7.22164,-1
486,487,1583552569849,-5.3241,-0.7195,7.6552,4.516863,0.2667045,7.561377499999999,-1
487,488,1583552569859,-4.9934,-0.7765,7.7718997000000005,4.906667700000001,-0.13283029999999998,7.9089484,-1
488,489,1583552569869,-4.6112,-1.2875,8.263599000000001,5.395956,-0.8814876,8.681366,-1
489,490,1583552569879,-4.021,-1.9253999,9.2123995,6.039335299999999,-1.579292,9.846689999999999,-1
490,491,1583552569889,-3.4389,-2.371,10.5187,6.6360087,-2.0897357,11.488318,-1
491,492,1583552569899,-3.0412998,-2.4987,11.6545,6.8351874000000015,-2.1762815,11.993953999999999,-1
492,493,1583552569910,-2.7889,-2.3646998,11.9944,7.228401,-1.9412474999999998,12.228203,-1
493,494,1583552569920,-2.4464,-1.8663,11.8299,7.459183,-1.4789748999999999,11.903684,-1
494,495,1583552569930,-2.4061,-1.3924999,11.348499,7.240497,-1.4073788,11.409453,-1
495,496,1583552569940,-2.6585999,-1.3757,10.8411,7.104870299999999,-1.7493759999999998,11.024198,-1
496,497,1583552569950,-2.636,-1.7462,10.4532995,7.3444343,-2.2162936,10.770777,-1
497,498,1583552569961,-2.0437999,-2.0326,10.425799000000001,8.221333999999999,-2.5266870999999997,11.156482,-1
498,499,1583552569970,-1.2832999,-2.0223,10.9501,8.908729,-2.5408993,11.522814,-1
499,500,1583552569980,-0.6484,-1.8579999,11.2934,9.337032,-2.5059822,11.83634,-1
500,501,1583552569990,-0.23699999,-1.7558999,11.7631,9.593949,-2.6207697,12.221873,-1
501,502,1583552570000,-0.2453,-1.7235999,11.764299000000001,9.339589,-2.7555346000000003,11.839969,-1
502,503,1583552570010,-0.5556,-1.8456999,11.2084,9.042947,-3.2092167999999996,11.038122,-1
503,504,1583552570020,-0.7658,-2.2568,10.2119,8.963316,-3.8111382000000007,9.598105,-1
504,505,1583552570031,-0.6695,-2.7405999,8.6067,9.115109,-4.249909400000001,8.559731,-1
505,506,1583552570042,-0.089899994,-3.5533,6.9091997,10.242376,-5.5333166,6.1726730000000005,-1
506,507,1583552570052,1.1389999,-4.052,5.2581997000000005,12.113722000000001,-5.5922327,4.591734,-1
507,508,1583552570062,2.8009,-3.7710000000000004,4.308,13.420361999999999,-5.408501599999999,4.54001,-1
508,509,1583552570072,4.2468,-3.3941,4.5917,14.097883,-5.2219644,5.3154054,-1
509,510,1583552570082,4.3577,-3.2110999,5.4421,13.077656,-5.4535704,6.3474693,-1
510,511,1583552570092,3.1727,-3.5044,6.5234,11.327304,-6.616969999999999,6.7735705,-1
511,512,1583552570102,1.4489,-4.6829,6.7419996,10.121678999999999,-7.7366614,6.077441,-1
512,513,1583552570113,0.48459998,-5.5241,5.8226,10.212161,-8.158797999999999,4.447603,-1
513,514,1583552570123,0.9007,-5.784,3.8416,11.681626,-8.679068,1.4414243999999998,-1
514,515,1583552570133,2.6487,-6.1538997,0.6035,14.089407999999999,-8.79261,-1.2035365,-1
515,516,1583552570143,5.1951,-5.981,-1.7921,16.397429000000002,-8.593441,-1.8856541,-1
516,517,1583552570153,7.3355,-5.6580997,-2.0788999,17.148623,-8.350123,-0.95062256,-1
517,518,1583552570163,7.6987996,-5.2851,-0.945,15.972563000000001,-8.202065,0.2626152,-1
518,519,1583552570173,6.1748,-5.1433,0.32459998,13.392752999999999,-8.247508,1.654537,-1
519,520,1583552570184,3.5533,-5.1496,1.7472,10.624892,-8.052064999999999,2.741945,-1
520,521,1583552570194,1.3134999,-4.9549,2.5827,9.338957,-8.091923,2.0394864,-1
521,522,1583552570204,-0.1349,-5.0484,1.3319,9.522813000000001,-8.627104,-2.399105,-1
522,523,1583552570215,0.24149999,-5.4296,-2.7177,11.873986,-8.495489,-6.4499889999999995,-1
523,524,1583552570225,2.6195,-5.2236,-6.851999799999999,14.627241,-7.9593419999999995,-8.239655,-1
524,525,1583552570235,5.4221,-4.5833,-8.655399000000001,15.632097,-8.163480999999999,-7.390441,-1
525,526,1583552570245,6.450999700000001,-4.7063,-7.7503,14.750245999999999,-8.69009,-6.1099644,-1
526,527,1583552570255,5.1593,-5.3212,-6.0587,11.230443,-9.238344,-3.7781365,-1
527,528,1583552570266,2.6083998999999998,-5.7093997000000005,-4.2724,8.854466,-9.049335000000001,-2.8693645,-1
528,529,1583552570276,-1.4911,-5.420099700000001,-4.079,7.5666065,-8.887774,-4.5025644,-1
529,530,1583552570286,-1.2298,-5.1994,-7.2668,8.256587,-8.61155,-7.8225174,-1
530,531,1583552570296,-1.2298,-5.1994,-7.2668,10.028842,-8.199719,-10.326986,-1
531,532,1583552570306,3.0929,-4.1826,-11.991099,12.500011,-7.7491593,-11.879627000000001,-1
532,533,1583552570317,3.7127998,-4.0614,-11.8998995,12.738551,-7.717239999999999,-11.66276,-1
533,534,1583552570328,2.6608999,-4.203,-10.8983,11.150171,-7.777181,-10.295441,-1
534,535,1583552570338,0.9686,-3.9485997999999998,-9.2939,9.343574,-7.2843203999999995,-8.877394,-1
535,536,1583552570348,-0.9754,-3.3127,-8.1644,7.5077186000000005,-6.4878273,-8.212007,-1
536,537,1583552570359,-2.5369,-2.472,-7.922999999999999,6.2100134,-5.5867260000000005,-8.31353,-1
537,538,1583552570368,-3.3569998999999995,-1.7714,-8.5145,5.8148550000000006,-5.0291643,-9.255342,-1
538,539,1583552570378,-3.0598998,-1.5159,-9.6296,6.3497105000000005,-4.8945336,-10.120626,-1
539,540,1583552570388,-1.9298999,-1.4212999,-10.3972,7.6931256999999995,-4.812317,-10.821427,-1
540,541,1583552570398,-1.0207,-1.4416,-10.504000000000001,8.362439,-4.919931,-10.633426,-1
541,542,1583552570409,-0.848,-1.6027,-10.1157,8.198072,-5.1152787,-10.250860000000001,-1
542,543,1583552570419,-1.3564,-1.7754999,-9.668099,7.556972,-5.2753744000000005,-9.768056,-1
543,544,1583552570429,-2.0454,-1.8902999,-9.2241,6.9502429999999995,-5.381342,-9.318482000000001,-1
544,545,1583552570439,-2.3927,-2.0286,-8.6473,6.786546700000001,-5.4753385,-8.692848,-1
545,546,1583552570449,-2.4257998,-1.9892,-8.0147,6.718953599999999,-5.3506765,-8.034424000000001,-1
546,547,1583552570459,-2.6634998,-1.9164,-7.396,6.4073150000000005,-5.363213,-7.448745,-1
547,548,1583552570469,-3.0065,-2.0318,-6.9842997,6.115355999999999,-5.5116724999999995,-7.2425275,-1
548,549,1583552570480,-3.0602999,-2.1432,-7.0983,6.2435613,-5.6202927,-7.4022684000000005,-1
549,550,1583552570490,-2.6866,-2.2488,-7.1864996,6.739151,-5.939133,-7.039786299999999,-1
550,551,1583552570500,-2.3184,-2.7068,-6.6008,6.987382000000001,-6.661942999999999,-6.312303,-1
551,552,1583552570510,-2.1057,-3.3878998999999994,-6.0112,7.1118803,-7.298513400000001,-5.7979902999999995,-1
552,553,1583552570520,-1.9919,-3.8765998,-5.5916,7.146615,-7.594168700000001,-5.410436,-1
553,554,1583552570530,-1.9985,-3.9708,-5.315,7.033035000000001,-7.525435400000001,-5.150761,-1
554,555,1583552570541,-2.2038999,-3.8077998,-5.0161,6.660324,-7.444531,-4.679601,-1
555,556,1583552570551,-2.6067998,-3.8351,-4.500499700000001,6.313529,-7.736403500000001,-4.0220675,-1
556,557,1583552570561,-2.8713999,-4.1545,-3.8525998999999995,6.2170334,-8.007379,-3.2461832000000004,-1
557,558,1583552570571,-2.8488,-4.311,-3.2672,6.3760943,-8.069082,-2.7359310000000003,-1
558,559,1583552570581,-2.6371,-4.3141,-2.8558998,6.5516086,-8.062867,-2.5504856,-1
559,560,1583552570591,-2.4526,-4.3321,-2.7493,6.6479893,-8.303503,-2.491071,-1
560,561,1583552570601,-2.326,-4.6514997000000005,-2.6985,6.8133615999999995,-8.804753,-2.4068718,-1
561,562,1583552570611,-2.0718,-5.1372,-2.6415,7.1333613,-9.335807,-2.441109,-1
562,563,1583552570622,-1.7204,-5.5952,-2.6775,7.601648,-9.912474000000001,-2.2579813,-1
563,564,1583552570632,-1.2936,-6.0204997,-2.3367999,8.113021,-10.039061,-1.3768096,-1
564,565,1583552570642,-0.78419995,-6.0171,-1.2439,8.241647,-9.763850999999999,0.29265764,-1
565,566,1583552570652,-0.78249997,-5.6973,0.58309996,7.740761,-9.203321,2.1045415000000003,-1
566,567,1583552570662,-1.425,-5.0699997,2.2714999,6.7607756,-8.465351,2.4912817000000005,-1
567,568,1583552570673,-2.3927,-4.3592997,2.4019999999999997,6.3390226,-7.8859925,1.6624379,-1
568,569,1583552570683,-2.6193,-3.823,1.5501,6.789697,-7.652893499999999,1.0322744000000001,-1
569,570,1583552570694,-2.0217,-3.7045,1.0387,7.957263,-7.9587092,1.121607,-1
570,571,1583552570704,-1.0030999,-3.9376,1.1976,8.844937,-8.043704,2.2227674,-1
571,572,1583552570714,-0.0885,-3.9666,2.2705998,9.0896635,-7.856209,3.4459169999999997,-1
572,573,1583552570724,0.17629999,-3.737,3.4621,8.858393,-7.681748,4.306853,-1
573,574,1583552570734,-0.1134,-3.471,4.5179996,8.2753,-7.312553,5.457793,-1
574,575,1583552570745,-0.6143,-3.1476998,5.4641,7.8634295,-7.265885400000001,6.3888893,-1
575,576,1583552570755,-1.0198,-3.085,6.4191,7.7487955,-7.130881,7.062933,-1
576,577,1583552570765,-1.1172,-2.9257,7.1053,8.107629,-7.045274000000001,7.188753599999999,-1
577,578,1583552570775,-0.75729996,-2.8230999,7.2342,8.552883999999999,-6.921474000000001,6.5362860000000005,-1
578,579,1583552570785,0.424,-2.1831,5.6636,9.346858000000001,-6.388506,5.6382875,-1
579,580,1583552570796,0.68649995,-1.8140999,5.9908,9.499619000000001,-6.134404,6.108317400000001,-1
580,581,1583552570805,0.68649995,-1.8140999,5.9908,9.322179,-6.253721700000001,6.757979,-1
581,582,1583552570815,0.5236,-1.9043,6.7819,8.992699,-6.4195538,7.562833,-1
582,583,1583552570825,0.1995,-2.0526,7.6201,8.799256,-6.3440404,7.725505,-1
583,584,1583552570835,-0.0296,-1.9035,7.7433996,8.692447,-5.8327637,6.7298713,-1
584,585,1583552570846,0.1971,-1.068,5.8367996,9.046078999999999,-5.4264774000000005,5.6032553,-1
585,586,1583552570856,0.5477,-0.8865,5.6742,9.374908,-5.2580595,5.5838339999999995,-1
586,587,1583552570866,0.78069997,-0.77349997,5.8335,9.559367,-5.1742816,5.75455,-1
587,588,1583552570876,0.8064,-0.5555,5.8574,9.549369,-4.9468517,5.7028737000000005,-1
588,589,1583552570886,0.71239996,-0.26299998,5.375099700000001,9.447348,-4.6593943,5.1194067,-1
589,590,1583552570896,0.6552,-0.014599998999999999,4.6993,9.41653,-4.449671700000001,4.521258400000001,-1
590,591,1583552570906,0.6552,-0.014599998999999999,4.6993,9.425407,-4.4605417,4.1925826,-1
591,592,1583552570917,0.73039997,-0.0799,4.0481,9.529507,-4.565388,3.9188006,-1
592,593,1583552570927,0.8731,-0.12789999,4.0485,9.6505575,-4.5926633,3.9676422999999996,-1
593,594,1583552570938,0.86679995,-0.14989999,4.1496997,9.5121155,-4.5310555,4.083444999999999,-1
594,595,1583552570948,0.44759998,-0.075899996,4.1576,9.118413,-4.4650326,4.050175,-1
595,596,1583552570958,-0.098299995,-0.0098,3.9577,8.520427999999999,-4.398503,3.8510062999999994,-1
596,597,1583552570968,-0.4155,0.022599999,3.6571998999999997,8.334475,-4.354239,3.431485,-1
597,598,1583552570978,-0.3662,0.0809,2.6676,8.5769205,-4.286694000000001,2.243233,-1
598,599,1583552570988,0.17539999,0.1129,1.3709999,9.255256,-4.2717540000000005,1.1956165,-1
599,600,1583552570999,0.92149997,0.1718,0.7238,9.931149000000001,-4.1834172999999995,0.9330108,-1
600,601,1583552571009,1.2698,0.23099999,0.93359995,9.951691,-4.163105000000001,1.3904854,-1
601,602,1583552571019,0.84669995,0.2392,1.7689999,9.339752,-4.1241274,2.3821828,-1
602,603,1583552571029,0.0083,0.2207,2.7862,8.449396,-4.1640625,3.184499,-1
603,604,1583552571039,-0.87729996,0.07719999599999999,3.1444,7.6713095000000004,-4.278898000000001,3.206085,-1
604,605,1583552571050,-1.3350999,-0.074599996,2.7278,7.5692687,-4.407754,2.554814,-1
605,606,1583552571060,-0.8735,-0.1046,1.6251,8.556253,-4.322204599999999,0.8986492,-1
606,607,1583552571070,0.1917,0.051799998,-0.0703,9.7432995,-4.2437224,-0.9230414,d
607,608,1583552571080,1.4340000000000002,0.0437,-1.9209,10.918336,-4.372636,-2.434434,-1
608,609,1583552571090,2.4659,-0.088999994,-3.0095,11.491488,-4.492796,-2.8296878,-1
609,610,1583552571101,2.6857,-0.33409998,-2.7402,11.042786999999999,-4.8682837,-1.5886774,-1
610,611,1583552571111,1.6401,-0.69729996,-0.83709997,9.313167,-5.097054,1.1063128,-1
611,612,1583552571121,-0.442,-0.90019995,2.227,7.172625999999999,-5.0575886,4.2994785,-1
612,613,1583552571131,-2.4259,-0.71279997,5.1193,5.7026916,-4.58413,6.092123,-1
613,614,1583552571141,-3.4104,-0.2653,5.763099700000001,5.910968,-4.1068316,4.717429599999999,-1
614,615,1583552571152,-2.7115,0.1327,3.8142,7.307247,-3.7569334999999997,2.4889544999999997,-1
615,616,1583552571162,-0.71129996,0.59889996,0.90129995,9.641259,-3.3760543,0.0031890766999999997,-1
616,617,1583552571172,1.0814999,0.84459996,-0.79899997,10.4645,-3.5114512,-0.06716215,-1
617,618,1583552571182,1.7469999999999999,0.5607,-0.3813,10.1173315,-4.050855,1.8777342000000001,-1
618,619,1583552571193,1.0835999,0.1433,1.4574,8.920537,-4.317177,3.6237296999999997,-1
619,620,1583552571203,-0.1251,-0.1007,3.1334999,8.208559,-4.2984157,4.440191,-1
620,621,1583552571213,-0.6649,-0.0613,3.7877,8.496362,-4.2133927,4.1921515,-1
621,622,1583552571223,-0.20089999,0.005,3.4132,9.611475,-4.1928697,3.0459704,-1
622,623,1583552571233,1.0070000000000001,-0.0116,2.2835999,11.092682,-4.421046700000001,1.8585421000000002,-1
623,624,1583552571243,2.2230000000000003,-0.2305,1.3995,11.644162,-4.7101607,1.4370573999999998,-1
624,625,1583552571253,2.8641999,-0.5822,0.94009995,11.799373,-5.0311947,1.1008348,-1
625,626,1583552571263,2.9166,-0.87829995,0.6239,11.684605,-5.2501974,0.96000785,-1
626,627,1583552571274,2.8184,-1.0464,0.54609996,11.672097,-5.236502,1.1857045,-1
627,628,1583552571284,2.8251998,-1.0353,0.7804,11.8918085,-5.1379470000000005,1.8305011999999998,-1
628,629,1583552571294,3.0163999,-0.9501,1.3548,12.081305,-5.111927,2.762928,-1
629,630,1583552571304,3.2061,-0.9374,2.2609,12.203706,-5.1137943,3.7372723,-1
630,631,1583552571314,3.3551,-0.958,3.4457998,12.239696,-5.1680474,4.769719,-1
631,632,1583552571324,3.3565998,-1.0407,4.1956997000000005,12.134245,-5.331082299999999,5.040197,-1
632,633,1583552571334,3.2414,-1.2228,4.397,12.2525,-5.266430000000001,5.1090345,-1
633,634,1583552571345,3.3535,-1.1884999,4.3907,12.638558999999999,-5.0276513,4.9040813,-1
634,635,1583552571355,3.7319,-0.96709996,4.1138997,13.137607999999998,-4.788317,4.3524959999999995,-1
635,636,1583552571365,4.2177997000000005,-0.7578,3.4752998,13.735229,-4.700268299999999,3.9415553,-1
636,637,1583552571375,5.2068,-0.98859996,2.2921,14.198334,-5.013841,3.1389422000000002,-1
637,638,1583552571386,5.2068,-0.98859996,2.2921,14.203458,-5.2359656999999995,2.7343986,-1
638,639,1583552571396,4.8668,-1.5794,1.6208999,13.761919,-5.410685,2.7452204,-1
639,640,1583552571406,4.8668,-1.5794,1.6208999,13.378454000000001,-5.426228500000001,3.3936372,-1
640,641,1583552571416,3.7091,-1.5601,3.6439998,12.671581,-5.1006074,4.911647299999999,-1
641,642,1583552571426,3.0702999,-1.3364999,4.5976,12.08683,-4.710343,5.7070684,-1
642,643,1583552571437,2.559,-0.98249996,4.566,11.682383,-4.217262,5.4628406,-1
643,644,1583552571447,2.3648999,-0.6665,3.4994998,11.5941515,-3.6787004,3.9386055,-1
644,645,1583552571458,2.3818,-0.3617,1.8734,11.6657095,-3.370538,2.5756917,-1
645,646,1583552571468,2.4522998,-0.281,0.2654,11.790303999999999,-3.2347102000000003,1.0500681,-1
646,647,1583552571478,2.5939999,-0.6125,-0.91349995,11.950553,-3.5545084000000005,-0.039207447,-1
647,648,1583552571488,2.648,-1.1065,-1.1711999,12.059928999999999,-3.9639745000000004,0.009950303,-1
648,649,1583552571498,2.613,-1.4061999,-0.44259998,11.877031,-4.0341053,0.9005550999999999,-1
649,650,1583552571508,2.0776,-1.4959999,0.52419996,11.380023,-4.0773544,1.5655589,-1
650,651,1583552571519,1.7987,-1.6680000000000001,0.9833,11.260371000000001,-4.076215,1.91788,-1
651,652,1583552571529,1.6008999,-1.7516999,1.4979999,11.042394,-4.069185299999999,2.3568041,-1
652,653,1583552571539,1.3765999,-1.9131,1.5775,10.873631,-4.2009525000000005,2.4092374,-1
653,654,1583552571549,1.2132,-2.2617,1.6366999,10.697455999999999,-4.3604927,2.2594082,-1
654,655,1583552571559,0.9331,-2.2512,1.0253999,10.226325,-3.9716167,0.9935745,-1
655,656,1583552571569,0.4271,-1.9347999,-0.3664,9.820958000000001,-3.4067097,-0.32823548,-1
656,657,1583552571579,0.077599995,-1.4106,-1.3567,9.602607,-2.8039742000000003,-0.8514643,-1
657,658,1583552571590,-0.15429999,-0.7744,-1.6833999,9.481910000000001,-2.0518022,-1.0316998,-1
658,659,1583552571600,-0.25849998,-0.2979,-1.6358,9.422897,-1.6010792999999999,-0.925177,-1
659,660,1583552571610,-0.29299998,-0.33269998,-1.3300999,9.406436,-1.7841017,-0.53405064,-1
660,661,1583552571620,-0.3455,-0.8006,-0.7402,9.3597,-2.0981443,-0.042090065999999995,-1
661,662,1583552571630,-0.6403,-1.3373,-0.070999995,8.758957,-2.5296847999999996,0.5971234999999999,-1
662,663,1583552571641,-1.3041999,-1.8149998999999999,0.5527,8.055291,-2.8759822999999995,1.1642141000000001,-1
663,664,1583552571651,-2.0528998,-2.2626,1.2136999,7.5079,-3.0126624,1.4625986999999998,-1
664,665,1583552571661,-2.6608999,-2.3625998,1.3894,6.889124000000001,-2.6712587,1.1986618999999998,-1
665,666,1583552571672,-2.9814,-1.9801999,0.8886,6.832716499999999,-1.7691810000000001,0.23580971,-1
666,667,1583552571684,-2.9366999,-1.2882,0.0722,7.1092086,-1.0466683,-0.539768,-1
667,668,1583552571694,-2.6252,-0.7175,-0.5383,7.420244,-0.719879,-0.65230507,-1
668,669,1583552571704,-2.4002,-0.5761,-0.4798,7.359134,-0.8057542,-0.14180377,-1
669,670,1583552571715,-2.4478,-0.80039996,0.2662,7.341311999999999,-1.474876,0.5874509,-1
670,671,1583552571725,-2.464,-1.4814999,0.95589995,7.1722813,-2.023043,0.63730776,-1
671,672,1583552571735,-2.6355,-2.1042,1.1099,6.691352999999999,-2.0157647,0.10191637,-1
672,673,1583552571745,-3.1104998999999998,-2.1726,0.655,5.963018,-1.6595648999999997,-0.71299326,-1
673,674,1583552571755,-3.8305998,-1.8939999,-0.076,5.453369,-1.0374459,-1.3148382,-1
674,675,1583552571765,-4.332,-1.3966999,-0.6045,5.1203356,-0.44434470000000004,-1.2803615,-1
675,676,1583552571776,-4.8496,-0.8271,-0.25579998,4.893355400000001,-0.34466928,-0.9472898999999999,-1
676,677,1583552571786,-5.1345,-0.94579995,0.36929998,4.5345507000000005,-0.36469436,-0.37104380000000003,-1
677,678,1583552571796,-5.5162997,-0.88629997,0.67149997,4.173333,-0.2562562,-0.3013438,-1
678,679,1583552571806,-5.6923,-0.91069996,0.2559,4.048355600000001,-0.2645114,-0.8897045,-1
679,680,1583552571816,-5.6923,-0.91069996,0.2559,4.214953400000001,-0.29674694,-1.4722712,-1
680,681,1583552571826,-5.1459,-0.96449995,-0.92319995,4.655362,-0.2244612,-2.07471,-1
681,682,1583552571837,-4.8064,-0.7966,-0.5146,4.9581523,-0.060295574000000005,-1.5392417999999999,-1
682,683,1583552571847,-4.8415,-0.723,0.1344,4.679371400000001,-0.04087381,-0.90228844,-1
683,684,1583552571857,-5.3201,-0.81909996,0.5920000000000001,4.30103,-0.15410997,-0.57685894,-1
684,685,1583552571868,-5.3201,-0.81909996,0.5920000000000001,4.260807499999999,-0.20420626,-0.6184797,-1
685,686,1583552571878,-4.6774,-0.73139995,-0.2539,5.549329,-0.029850906,-2.1386638,-1
686,687,1583552571888,-3.2791,-0.5991,-2.0479998999999998,7.0753354999999996,-0.058475982,-4.0524735,-1
687,688,1583552571898,-1.7214999,-0.8034,-3.8332998999999996,8.581461000000001,-0.47127464,-5.6703696,-1
688,689,1583552571908,-0.40489998,-1.1508,-4.9006,9.70279,-0.7903164,-6.111909,-1
689,690,1583552571918,0.3373,-1.3172,-4.0383,10.092258000000001,-0.92486095,-4.704003,-1
690,691,1583552571929,0.1136,-1.4856,-2.3062,9.510794,-1.0692218999999998,-3.1208322,-1
691,692,1583552571939,-0.7144,-1.6083,-0.77169997,8.599867,-1.0263752,-1.8037053,-1
692,693,1583552571949,-1.6001999,-1.4011999,0.27809998,7.722765400000001,-0.5889449000000001,-1.1580945,-1
693,694,1583552571959,-2.4189,-1.04,0.3047,6.942064299999999,-0.23251529,-1.8870715,-1
694,695,1583552571969,-2.7312,-0.8032,-0.5765,7.1343190000000005,0.043976694000000004,-2.8714044,-1
695,696,1583552571980,-2.1936,-0.58489996,-1.505,8.119006,0.1262319,-3.7302334000000004,-1
696,697,1583552571990,-0.98179996,-0.6224,-2.2410997999999998,9.427217,-0.05254794,-4.285698,-1
697,698,1583552572000,0.21859999,-0.7619,-2.5874999,10.311855,-0.26368782,-4.5280485,-1
698,699,1583552572010,0.9382,-0.9224,-2.6928,10.785936,-0.3459813,-4.482463,-1
699,700,1583552572020,0.9382,-0.9224,-2.6928,10.672374000000001,-0.17398185,-4.3013654,-1
700,701,1583552572031,0.8366,-0.63729995,-2.197,10.056528,-0.005832275400000001,-3.6609738,-1
701,702,1583552572041,0.1515,-0.5377,-1.4571999,9.338104,0.15904203,-2.9915166,-1
702,703,1583552572051,-0.52309996,-0.37899998,-0.93289995,8.79646,0.30311552,-2.76152,-1
703,704,1583552572061,-0.9522,-0.315,-0.9055,8.637877,0.2544366,-3.1255347999999996,-1
704,705,1583552572072,-0.9295,-0.3778,-1.3228999,8.993463499999999,0.23278345,-3.6134536,-1
705,706,1583552572082,-0.5045,-0.37989998,-1.7451999,9.443325,0.27655903,-3.7785866,-1
706,707,1583552572092,0.0479,-0.2667,-1.8223,9.922214,0.3855814,-3.6529483999999997,-1
707,708,1583552572102,0.3548,-0.19209999,-1.6072999,9.967492,0.349745,-3.2534422999999997,-1
708,709,1583552572112,0.3376,-0.24059999,-1.1705999,9.812778999999999,0.2533161,-2.9007764,-1
709,710,1583552572122,0.1928,-0.31579998,-0.84489995,9.659005,0.30495426,-2.7011862,-1
710,711,1583552572133,0.0382,-0.2489,-0.6679999999999999,9.633377000000001,0.35161245,-2.6315246,-1
711,712,1583552572143,0.0894,-0.2233,-0.5701,9.852599,0.4009522,-2.5648892000000005,-1
712,713,1583552572153,0.27809998,-0.15879999,-0.5505,9.795866,0.5316852,-2.765686,-1
713,714,1583552572163,0.17199999,-0.0455,-0.7396,9.608496,0.6123985,-2.8812685,-1
714,715,1583552572173,-0.0033,0.037699997,-0.84319997,9.425943,0.6928533,-2.9547033,-1
715,716,1583552572184,-0.1592,0.1026,-0.8987,9.432925,0.7073813,-2.9062257000000002,-1
716,717,1583552572194,-0.1282,0.1094,-0.8037,9.685016000000001,0.75118554,-2.4924982000000004,-1
717,718,1583552572204,0.108799994,0.1564,-0.4236,9.89807,0.83467615,-2.2016697,d
718,719,1583552572214,0.3179,0.2302,-0.11599999999999999,9.951882000000001,0.9274946,-2.1062176,-1
719,720,1583552572224,0.3701,0.3313,0.0045,9.75867,0.95350516,-2.1673080000000002,-1
720,721,1583552572234,0.1865,0.3333,-0.0641,9.519126,0.8773025,-2.5939834,-1
721,722,1583552572245,-0.057,0.2487,-0.48029998,9.480023,0.83210003,-2.901102,-1
722,723,1583552572255,-0.09559999400000001,0.1977,-0.7818,9.733875999999999,0.8287959999999999,-2.9477314999999997,-1
723,724,1583552572265,0.1696,0.1996,-0.8282,10.055648,0.8243715,-2.8294005,-1
724,725,1583552572275,0.5821,0.2016,-0.67759997,10.392339,0.78027993,-2.5800972,-1
725,726,1583552572285,0.8290000000000001,0.16149999,-0.4542,10.411883999999999,0.66524327,-2.4949209999999997,-1
726,727,1583552572295,0.8508,0.036199998,-0.3581,10.155858,0.6025823,-2.8784912,-1
727,728,1583552572306,0.41509998,-0.093399994,-1.6468999,9.979578,0.55641246,-3.9853404,-1
728,729,1583552572316,0.41509998,-0.093399994,-1.6468999,10.015549,0.44959277,-4.744168,-1
729,730,1583552572326,0.52959996,-0.4143,-3.3255,10.079925,0.24457249,-5.636123,-1
730,731,1583552572336,0.52959996,-0.4143,-3.3255,10.124667,0.13233232,-5.924289,-1
731,732,1583552572348,0.59959996,-0.6203,-3.7865998999999997,10.230557000000001,-0.0010630256,-5.8025875,-1
732,733,1583552572358,0.7029,-0.75479996,-3.2738,10.242069,0.078702204,-5.3557809999999995,-1
733,734,1583552572368,0.6116,-0.6045,-3.2870998,10.100975,0.21923226,-5.4805098,-1
734,735,1583552572378,0.3347,-0.6401,-3.6411998,9.784384,0.111531496,-5.9596849999999995,-1
735,736,1583552572388,0.1171,-0.86939996,-4.2571,9.610297000000001,-0.15340129,-6.574008999999999,-1
736,737,1583552572399,0.1171,-0.86939996,-4.2571,9.579842999999999,-0.3877266,-7.1260443,-1
737,738,1583552572409,0.0149,-1.3665,-5.2525,9.594764,-0.63991266,-7.3801174,-1
738,739,1583552572420,0.0896,-1.6674,-5.66,9.761294,-0.8511196,-8.089797,-1
739,740,1583552572430,0.2418,-1.7174,-6.4077997,9.878199,-0.7455735,-8.618733,-1
740,741,1583552572440,0.2665,-1.5819999999999999,-6.6124997,9.69983,-0.588648,-8.168298,-1
741,742,1583552572450,-0.0602,-1.5604999,-5.9754996,9.145275999999999,-0.5963765000000001,-7.360475,-1
742,743,1583552572460,-0.7783,-1.6415,-5.147599700000001,8.284618,-0.6168613000000001,-6.4937263,-1
743,744,1583552572470,-1.6528,-1.7197,-4.3731,7.4218910000000005,-0.6714395000000001,-5.9340196,-1
744,745,1583552572481,-2.4294999,-1.8743999,-4.1717,6.954629400000001,-0.7347901,-6.0085845,-1
745,746,1583552572491,-2.6292,-1.9210999,-4.369,7.108165,-0.58926094,-6.053595,-1
746,747,1583552572501,-2.3511999,-1.7591,-4.3416,7.410399000000001,-0.38036203,-5.6621337,-1
747,748,1583552572511,-2.1051,-1.6367999,-3.8358,7.5694604000000005,-0.29426655,-4.896267,-1
748,749,1583552572521,-2.0862,-1.6460999,-3.1160997999999998,7.437530000000001,-0.37811148,-4.098471,-1
749,750,1583552572531,-2.2644,-1.7892,-2.5152,7.1402660000000004,-0.5374313000000001,-3.6913133,-1
750,751,1583552572542,-2.6489999999999996,-1.9684999,-2.4335,6.7607465,-0.6373555999999999,-3.6603513,-1
751,752,1583552572552,-3.0532,-2.0763,-2.6455998,6.4052463,-0.8181562,-3.9695387,-1
752,753,1583552572562,-3.2705998,-2.2709,-3.0142,6.490997,-0.96662545,-3.616882,-1
753,754,1583552572572,-3.1334,-2.4174,-2.5928,6.6934886,-0.93717676,-2.1393726,-1
754,755,1583552572583,-2.9636998,-2.3624,-1.0106,6.696103599999999,-0.7542406,0.11574528,-1
755,756,1583552572593,-3.0647,-2.217,1.1359999,6.043597,-0.6037698,2.2549741,-1
756,757,1583552572603,-3.8293998,-2.0866,3.073,4.905231,-0.38267964,3.7407584000000003,-1
757,758,1583552572613,-5.0148,-1.903,4.2673,3.9401087999999995,-0.18718827,4.09194,-1
758,759,1583552572623,-5.8492,-1.7113,4.3298,3.914328,0.17833929,3.6683574,-1
759,760,1583552572633,-5.7759,-1.4017,3.8313,4.44224,0.5432922,3.3650026,-1
760,761,1583552572643,-5.0885,-0.91349995,3.4104997999999997,5.363462,0.7100915,3.9111392,-1
761,762,1583552572653,-4.196000000000001,-0.79649997,3.978,6.2661524,0.6663638000000001,5.2256613,-1
762,763,1583552572663,-3.3116999,-0.7114,5.303999999999999,6.7596169999999995,0.6482062,6.664299000000001,-1
763,764,1583552572673,-2.9445999,-0.7191,6.5223,6.531727,0.29686186,7.8583446,-1
764,765,1583552572683,-3.3105998,-1.063,7.62,6.090217,-0.15578592,9.382311999999999,-1
765,766,1583552572694,-3.6557,-1.3993,9.1845,6.072261,-0.17482461,10.901202,-1
766,767,1583552572704,-3.6469998,-1.2572,10.4793,6.1644177,0.27366683,11.7867985,-1
767,768,1583552572714,-3.5691,-0.84419996,11.0688,6.3471055,0.6917806,11.5603075,-1
768,769,1583552572724,-3.3829,-0.3622,10.7582,6.656072,0.99066323,10.663229,-1
769,770,1583552572734,-3.0697,0.0042999996999999995,9.7753,6.989928999999999,1.0222954,10.102852,-1
770,771,1583552572745,-2.7484,0.11669999,9.1559,7.34656,0.79270107,9.741164,-1
771,772,1583552572755,-2.2924,-0.0984,8.7148,8.242566,0.43514135,10.133306,-1
772,773,1583552572765,-1.5077,-0.257,9.1659,8.865317,0.41187929999999995,10.968499000000001,-1
773,774,1583552572776,-0.75699997,-0.2445,10.2546,9.264372999999999,0.2045606,12.232465,-1
774,775,1583552572786,-0.66139996,-0.39409998,11.443999,8.9698,0.10693462,12.216022,-1
775,776,1583552572796,-1.2257,-0.303,10.764899,8.395565,0.13974477,11.454435,-1
776,777,1583552572806,-1.8592999,-0.35729998,9.7843,7.810815,-0.086650945,10.447827,-1
777,778,1583552572817,-2.1016,-0.6361,8.8963995,7.692963000000001,-0.44609722,9.534189999999999,-1
778,779,1583552572827,-1.8537999,-0.99939996,8.333099,8.028879,-0.9125261,9.011994999999999,-1
779,780,1583552572837,-1.3503,-1.4027,8.0904,8.567314999999999,-1.4175973,8.660364,-1
780,781,1583552572847,-0.7084,-1.7041,7.6373,9.221239,-1.7582251,8.141224000000001,-1
781,782,1583552572857,-0.0655,-1.5559,7.4990997,9.833178,-1.5858905,7.9937130000000005,-1
782,783,1583552572867,0.1273,-1.0317,7.4659,9.805501,-1.1076629999999998,7.7319016000000005,-1
783,784,1583552572877,-0.43359998,-0.7213,7.2925,9.180442999999999,-1.034956,7.545499,-1
784,785,1583552572887,-1.5222,-1.0212,7.1984997,8.098071000000001,-1.5681829999999999,7.212360400000001,-1
785,786,1583552572897,-2.0195,-1.9113,6.2521,7.8421884,-2.5516732,5.962884,-1
786,787,1583552572907,-1.4344,-2.6069999,4.9347,8.525551,-3.3397007000000003,4.473078,-1
787,788,1583552572917,-0.57049996,-3.3627,3.4101998999999994,9.418358999999999,-4.247285400000001,2.8926075,-1
788,789,1583552572927,0.50339997,-4.0776997,2.7115998,10.539391,-5.0181317000000005,2.2974662999999995,-1
789,790,1583552572937,1.7077,-4.2511,2.9068,11.63583,-5.240840400000001,2.4819732000000005,-1
790,791,1583552572947,2.1677,-4.0413,3.3465998,11.873660000000001,-5.142726000000001,2.8408446,-1
791,792,1583552572958,1.6369,-3.9856,3.5189,11.154481,-5.24311,2.7651594,-1
792,793,1583552572968,0.645,-4.0611,2.4524,10.217734,-5.43434,1.3746452,-1
793,794,1583552572978,0.6755,-4.2829,0.5718,10.551381,-5.7952322999999994,-0.67216736,-1
794,795,1583552572988,2.2015,-4.5436,-1.5282999,12.584872,-6.202716000000001,-3.2504642,-1
795,796,1583552572998,3.7918,-4.6523,-3.2838,13.742660500000001,-6.314515599999999,-4.9082665,-1
796,797,1583552573008,4.3451,-4.5555997,-4.3210998,13.901836,-6.253626000000001,-5.590461,-1
797,798,1583552573019,4.0141,-4.2915998,-3.9338,13.2088,-6.049381299999999,-4.6868124,-1
798,799,1583552573029,2.9438,-4.0962,-2.4455,11.954775999999999,-6.0605483,-3.5369157999999996,-1
799,800,1583552573039,1.9088,-4.2135997000000005,-2.5314999,11.263023,-6.2500443,-4.923475,-1
800,801,1583552573049,1.9318999,-4.2851,-5.4144,11.799268,-6.2978234,-8.3888235,-1
801,802,1583552573059,3.116,-4.0603,-8.8351,13.3671055,-6.136032599999999,-12.112574,-1
802,803,1583552573069,4.3826,-3.9624998999999996,-11.1908,14.248335,-6.2481480000000005,-13.447397,-1
803,804,1583552573080,4.9435,-4.0382,-11.8333,14.185453,-6.3497867999999995,-13.468389499999999,-1
804,805,1583552573090,4.4988,-4.0924997,-11.4557,13.186123,-6.3961864,-13.089129,-1
805,806,1583552573100,3.3483998999999995,-4.0178,-11.0377,12.057545,-6.1301045,-12.890276,-1
806,807,1583552573110,2.3848999,-3.6567,-10.860999999999999,11.353879,-5.618205000000001,-12.811986,-1
807,808,1583552573120,1.8079,-3.1446,-10.804,10.928075,-5.1329193,-12.976794,-1
808,809,1583552573130,1.3939999,-2.7489,-11.2269,10.452711,-4.888931299999999,-13.703635,-1
809,810,1583552573141,0.99619997,-2.6624,-11.9653,10.314547,-4.8941026,-14.212039,-1
810,811,1583552573151,0.94799995,-2.6315,-12.351399,10.392109,-4.807672,-14.387246,-1
811,812,1583552573161,1.0138,-2.516,-12.4478,10.248878,-4.5802135,-14.283023000000002,-1
812,813,1583552573171,0.7133,-2.2663,-12.2834,9.694103,-4.2573023,-13.8579645,-1
813,814,1583552573181,-0.0312,-1.9755,-11.7905,8.835438,-3.8822362,-12.928105,-1
814,815,1583552573191,-0.7281,-1.7287999,-10.9369,8.338708,-3.5728767,-12.004336,-1
815,816,1583552573202,-1.3313999,-1.3952999,-9.7325,7.5280119999999995,-3.2349975,-10.546574,-1
816,817,1583552573212,-2.113,-1.2521,-8.6258,6.950013,-3.1468813,-9.721465,-1
817,818,1583552573222,-2.7219,-1.2817999,-7.7517996,6.555333999999999,-3.2647047000000002,-9.207889,-1
818,819,1583552573232,-2.9468,-1.4248999,-7.6339999999999995,6.7670674,-3.3578296,-9.525753,-1
819,820,1583552573242,-2.6799998,-1.5242,-8.0877,7.1100993,-3.3283904000000004,-9.872845,-1
820,821,1583552573253,-2.2451,-1.518,-8.5169,7.5120473,-3.4655974,-9.902130999999999,-1
821,822,1583552573263,-2.0184,-1.7339,-8.4576,7.636267999999999,-3.8107073,-9.341659,-1
822,823,1583552573273,-1.9125999,-2.1426,-7.8511,7.749217,-4.1004915,-8.216345,-1
823,824,1583552573283,-1.839,-2.4219999999999997,-6.6558,7.479686999999999,-4.2428126,-6.625197,-1
824,825,1583552573293,-2.2364,-2.6041,-5.0604997,6.8545322,-4.2905435999999995,-5.0404553,-1
825,826,1583552573303,-2.8892,-2.6922,-3.6243,6.309756,-4.1281114,-4.1144066,-1
826,827,1583552573313,-3.3258997999999997,-2.5865,-2.9837,6.293552,-3.8879156000000004,-3.6571624,-1
827,828,1583552573324,-3.3488998,-2.3762,-2.6014,6.4473553,-3.9264523999999996,-3.583507,-1
828,829,1583552573334,-3.1636,-2.4812999,-2.6313,6.621481,-4.153059,-3.772879,-1
829,830,1583552573344,-2.9861,-2.7093,-2.9255998,7.101758,-4.3413962999999995,-4.001458,-1
830,831,1583552573354,-2.5711,-2.8495,-3.2019,7.692034,-4.5982080000000005,-3.565292,-1
831,832,1583552573364,-1.9782,-3.0965,-2.8544998,7.971131,-4.727859,-2.3906965000000002,-1
832,833,1583552573374,-1.7083,-3.2228,-1.7487999,7.4114428,-4.765572,-1.0450211999999999,-1
833,834,1583552573385,-2.2826,-3.2731,-0.4651,6.459125,-4.729132,0.21685721,-1
834,835,1583552573395,-3.2301998,-3.2536,0.7234,5.739169599999999,-4.4804997,1.2287427,-1
835,836,1583552573405,-3.9615,-3.0247998,1.6812999,5.466039,-4.2852764,1.7622378,-1
836,837,1583552573415,-4.2394,-2.83,2.1390998,5.517744,-4.193205,1.8668932,-1
837,838,1583552573425,-4.1807,-2.7133,2.1531,5.7271314,-4.2722135,1.8463892,-1
838,839,1583552573435,-3.9715,-2.7647998,2.0409,6.112856400000001,-4.3958883,2.1512667999999997,-1
839,840,1583552573445,-3.5732,-2.8436,2.2503,6.407899,-4.238119999999999,2.6228290000000003,-1
840,841,1583552573455,-3.2712998,-2.6258,2.6343,6.3827596,-3.9698644,3.090809,-1
841,842,1583552573466,-3.2928998,-2.3153,3.0316,6.027757,-3.4975648,3.8765285000000005,-1
842,843,1583552573475,-3.6390998,-1.8073,3.7580998,5.4732027,-3.072412,5.112415299999999,-1
843,844,1583552573485,-4.1921,-1.3448,4.9514,4.777457,-2.911062,6.2792535,-1
844,845,1583552573495,-4.8823,-1.1471,6.0917,4.1092260000000005,-2.9777452999999996,7.3338037,-1
845,846,1583552573505,-5.542000000000001,-1.1775,7.1376995999999995,3.7438227999999993,-3.045434,7.691229300000001,-1
846,847,1583552573515,-5.7532,-1.1408,7.2661,4.0950427000000005,-3.0529330000000003,7.4201483999999995,-1
847,848,1583552573525,-4.8715997,-0.86399996,7.121299700000001,4.975304,-2.747902,7.330365700000001,-1
848,849,1583552573536,-4.1927,-0.3412,7.1197,5.470425,-2.3421519,7.380299000000001,-1
849,850,1583552573546,-4.13,0.0361,7.330899700000001,5.3920293,-2.1337411,7.6653147,-1
850,851,1583552573556,-4.13,0.0361,7.330899700000001,5.1291459999999995,-2.0577587999999998,8.165215,-1
851,852,1583552573566,-4.6871,0.1469,8.632299,4.7853580000000004,-2.3702693,9.024512,-1
852,853,1583552573576,-4.7167997,-0.2889,9.3701,4.7708874,-2.9424259999999998,9.746105,-1
853,854,1583552573586,-4.5957,-0.72609997,9.882999,4.897378,-3.4820025,10.151291,-1
854,855,1583552573596,-4.206,-1.0971,10.0735,5.2993164,-3.9424937000000004,10.30856,-1
855,856,1583552573607,-3.803,-1.0713999,10.1692,5.6474720000000005,-3.9677572,10.329908,-1
856,857,1583552573617,-3.4652,-0.7284,9.9307995,5.9337029999999995,-3.7246788,9.970059,-1
857,858,1583552573627,-3.1037998,-0.34129998,9.0752,6.262542,-3.5130217000000004,9.095774,-1
858,859,1583552573637,-2.6195998,-0.1139,8.5588,6.6629963000000005,-3.4607803999999995,8.707156,-1
859,860,1583552573647,-2.5032,-0.1945,8.4581995,6.6189814,-4.0047045,8.675362,-1
860,861,1583552573658,-2.6076,-0.86869997,8.6285,6.479026,-4.741103599999999,8.8531065,-1
861,862,1583552573668,-2.5393,-1.7814,8.8601,6.530721700000001,-5.833884200000001,9.088649,-1
862,863,1583552573678,-2.1016,-2.7465,9.0467,7.0987315,-7.1018057,9.178738000000001,-1
863,864,1583552573688,-1.3935,-3.2477,8.7901,7.636766000000001,-7.488766,8.881914,-1
864,865,1583552573698,-0.5543,-3.2308,8.2878,8.544839,-7.536784,8.248283,-1
865,866,1583552573708,0.18779999,-2.8869998,7.5951996,9.009831,-7.250514,7.536362599999999,-1
866,867,1583552573718,0.3899,-2.3854,6.9356,8.915585499999999,-7.079396000000001,6.954208,-1
867,868,1583552573729,0.11109999599999999,-2.5577,6.3729997,8.492003,-7.749772500000001,6.583193,-1
868,869,1583552573739,-0.13509999,-3.3778,6.3359,8.31715,-8.592225,6.607413,-1
869,870,1583552573749,0.2039,-4.4181,6.1902,8.853097,-10.009458,6.278018,-1
870,871,1583552573759,0.2039,-4.4181,6.1902,9.760002,-10.94358,5.534398599999999,-1
871,872,1583552573769,2.195,-5.8538,4.6932,10.837766,-11.43014,4.681153,-1
872,873,1583552573779,3.5047,-5.6945996,3.8089999999999997,11.988391,-11.072311000000001,3.8443985,-1
873,874,1583552573790,4.4153,-4.9723997,2.9542,12.43127,-10.611237,3.237047,-1
874,875,1583552573801,4.3733997,-4.5144,2.5978,11.749353,-10.271987,3.098461,-1
875,876,1583552573811,3.5260000000000002,-4.3388,2.6536,10.755578,-10.422744999999999,3.237861,-1
876,877,1583552573822,2.7217999,-4.546,2.7761,10.033141,-10.871628999999999,3.0621264,-1
877,878,1583552573832,2.3199,-4.7953997,2.4129999,9.884653,-10.958471000000001,2.0210128000000003,-1
878,879,1583552573842,2.3329,-4.7511,1.0677999,10.249741,-10.965797,0.084754735,-1
879,880,1583552573852,2.8576999,-4.6596,-0.9106,10.834452,-10.752446,-1.2214546999999998,-1
880,881,1583552573862,3.4571998,-4.3298,-2.0718,10.96463,-10.425331,-1.6369444,-1
881,882,1583552573873,3.5461,-3.9436,-2.4305,10.539295,-10.078066999999999,-1.5906885,-1
882,883,1583552573883,3.053,-3.5425,-2.3607,9.741318,-9.836818,-1.2638607,-1
883,884,1583552573893,2.343,-3.3102998999999995,-2.0669,8.814981,-9.620410000000001,-0.90377283,-1
884,885,1583552573903,1.3228999,-3.0268998,-1.6962999,7.756543,-9.369947999999999,-0.52456,-1
885,886,1583552573913,0.33159998,-2.7459,-1.4145,7.0557504,-9.335931,-0.9033610000000001,-1
886,887,1583552573924,-0.1655,-2.7475998,-1.8705,7.351559,-9.352192,-2.0782819,-1
887,888,1583552573934,0.17549999,-2.7365,-3.1108,7.834058,-8.977682000000001,-3.4019690000000002,-1
888,889,1583552573944,0.6939,-2.3327,-4.4948,8.101682,-8.732736000000001,-4.2909937000000005,-1
889,890,1583552573954,0.9923,-2.0499,-5.435,8.032585000000001,-8.543181,-4.396923,-1
890,891,1583552573964,0.9104,-1.7918999,-5.532,7.586785000000001,-8.271114,-3.8912385,-1
891,892,1583552573974,0.5265,-1.5489998999999999,-5.0717,7.1066899999999995,-8.275022,-3.4311113,-1
892,893,1583552573985,0.0596,-1.5445,-4.6108,6.7214149999999995,-8.515246000000001,-2.7194203999999997,-1
893,894,1583552573995,-0.3197,-1.7760999,-3.8941,6.4406037000000005,-8.748432000000001,-1.9773711999999999,-1
894,895,1583552574005,-0.5782,-1.9864998999999999,-3.1676,6.6944084,-9.112025,-2.1610544,-1
895,896,1583552574015,-0.3014,-2.3312,-3.3688998,7.340603,-9.066612,-3.3721947999999995,-1
896,897,1583552574025,1.2269,-2.1943,-5.9634,8.355947,-9.012312,-4.8702083,-1
897,898,1583552574035,1.2269,-2.1943,-5.9634,8.933667,-8.879164999999999,-5.133675599999999,-1
898,899,1583552574045,1.9957999,-2.0526,-6.4041996,8.973276,-8.51563,-4.914999,-1
899,900,1583552574056,1.2186999,-1.3284,-5.6087,7.956708,-8.081685,-4.2707,-1
900,901,1583552574066,0.3488,-0.9377,-4.9196,7.207178999999999,-7.6815953,-3.6188165999999997,-1
901,902,1583552574076,-0.1037,-0.7204,-4.2924,6.823264,-7.546800999999999,-2.998613,-1
902,903,1583552574086,-0.1037,-0.7204,-4.2924,6.709367299999999,-7.7104883,-2.482002,-1
903,904,1583552574096,-0.13419999,-1.3206999,-3.1717,6.902024000000001,-8.230566,-1.9041852,-1
904,905,1583552574106,0.2656,-1.6797999,-2.7551,7.2624854999999995,-8.559846,-1.5410518999999998,-1
905,906,1583552574117,0.4719,-1.8420999,-2.779,7.448783000000001,-8.707961,-1.588141,-1
906,907,1583552574127,0.6346,-1.7342,-3.0270998,7.546207400000001,-8.513963,-1.8315546999999999,-1
907,908,1583552574137,0.6346,-1.7342,-3.0270998,7.448332300000001,-8.190372,-1.9669994999999998,-1
908,909,1583552574147,0.20289999,-1.0583,-2.9908,7.0399394,-7.8615627,-1.6273102,-1
909,910,1583552574157,-0.2845,-0.8028,-2.3014997999999998,6.555066,-7.594302000000001,-0.8929798000000001,-1
910,911,1583552574167,-0.8454,-0.579,-1.3306,5.9966516,-7.352507000000001,-0.03733997,-1
911,912,1583552574178,-1.4520998999999999,-0.3044,-0.983,5.3071117,-7.0632496,0.02003468,-1
912,913,1583552574188,-1.8314999,-0.2383,-1.2602,5.14059,-7.0712075,-0.23751439,-1
913,914,1583552574198,-1.6152999,-0.2678,-1.5103999,5.5958815,-7.162379,-0.541195,-1
914,915,1583552574208,-0.86399996,-0.48139998,-1.8704,6.468108,-7.4154935,-0.8550269,-1
915,916,1583552574218,0.0903,-0.7086,-2.0478,7.1729136,-7.6492830000000005,-0.9227349,-1
916,917,1583552574229,0.7948,-0.95809996,-2.1032,7.804236,-7.907694,-0.9477591000000001,-1
917,918,1583552574238,0.9068,-0.9526,-1.9677999,7.748412599999999,-7.842792,-0.7822719,-1
918,919,1583552574248,0.5915,-0.8017,-1.5922999,7.2438107,-7.700634,-0.29409415,-1
919,920,1583552574258,0.008599999,-0.7094,-1.0206,6.766924,-7.5883746,0.21863851,-1
920,921,1583552574268,-0.5123,-0.5682,-0.2902,6.274216,-7.475952,0.9348879000000001,d
921,922,1583552574278,-0.7266,-0.523,0.1911,6.2292914,-7.4400296,1.2076832,-1
922,923,1583552574289,-0.489,-0.539,0.0431,6.62082,-7.467668499999999,0.91087884,-1
923,924,1583552574299,0.0821,-0.6069,-0.3399,7.1702699999999995,-7.5768633,0.5690443000000001,-1
924,925,1583552574309,0.5099,-0.7506,-0.5836,7.4944644,-7.8031726,0.44941083,-1
925,926,1583552574319,0.7973,-1.0443,-0.5305,7.7595215,-8.087403,0.59913456,-1
926,927,1583552574329,1.0372,-1.1875,-0.45619997,7.9781889999999995,-8.008307,0.35057816,-1
927,928,1583552574339,1.1294,-0.9661,-0.9262,7.9742045,-7.818734599999999,-0.1531523,-1
928,929,1583552574350,1.0451,-0.83089995,-1.1762999,7.8543034,-7.7231393,-0.14529932,-1
929,930,1583552574360,0.7392,-0.83779997,-0.96699995,7.425521000000001,-7.899046,0.27896279999999996,-1
930,931,1583552574370,0.4243,-1.1292,-0.4976,7.337021400000001,-8.196061,0.6916465,-1
931,932,1583552574380,0.4885,-1.3967999,-0.17199999,7.671434,-8.354097,0.6982736999999999,-1
932,933,1583552574390,0.9736,-1.4725,-0.4885,8.382991,-8.314210000000001,-0.08836519999999999,-1
933,934,1583552574400,1.7882999,-1.3682,-1.5593,9.236169,-8.170079,-1.3440473,-1
934,935,1583552574410,2.6123998,-1.2549,-2.8271,9.972223,-8.108414,-2.417732,-1
935,936,1583552574420,3.2819998,-1.2444,-3.7428,10.51114,-8.204297,-2.9875326,-1
936,937,1583552574431,3.6553,-1.4574,-4.0108,10.684499,-8.602999,-2.8305783,-1
937,938,1583552574441,3.7036,-2.0018,-3.6448998,10.757569,-9.1749735,-2.5127816000000003,-1
938,939,1583552574451,3.784,-2.6116,-3.3676,10.963768,-9.691096,-2.3532705000000003,-1
939,940,1583552574461,3.9986,-3.1081998,-3.2119,11.3076515,-10.027961,-2.2969491,-1
940,941,1583552574471,4.3399,-3.3529,-3.1855998,11.656630499999999,-10.129513000000001,-2.6989837000000003,-1
941,942,1583552574481,4.661299700000001,-3.4531998999999995,-3.7222,12.089167,-10.089166,-3.2416150000000004,-1
942,943,1583552574492,5.0804996,-3.4675,-4.2805,12.614234,-10.130835000000001,-3.8608417999999998,-1
943,944,1583552574502,5.6155996,-3.622,-4.91,13.412797,-10.333672,-4.580021400000001,-1
944,945,1583552574513,6.2426996,-3.8219998,-5.4231,13.84066,-10.516924000000001,-4.66401,-1
945,946,1583552574523,6.5334,-4.1033,-5.2948,14.061913500000001,-10.621685000000001,-3.9768553,-1
946,947,1583552574533,6.638499700000001,-4.218,-4.4741,13.782326999999999,-10.545769,-3.4466257000000007,-1
947,948,1583552574543,6.1053,-4.2886,-3.8934998999999997,13.055667999999999,-10.576309,-2.7136936,-1
948,949,1583552574553,5.2632,-4.4400997,-2.9153,12.48196,-10.565957000000001,-1.8640201,-1
949,950,1583552574564,4.6618,-4.5857,-1.9977,12.320141,-10.468676,-1.3276807,-1
950,951,1583552574574,4.4268,-4.6286,-1.4561,12.425447,-10.127578,-1.0330405,-1
951,952,1583552574584,4.4522,-4.3398,-1.0113,12.511907,-9.541008999999999,-0.997616,-1
952,953,1583552574594,4.4031997,-4.0045,-0.9259999999999999,12.232196,-9.213444,-1.0128238999999999,-1
953,954,1583552574604,4.0227,-3.8411998999999994,-0.8481,11.994855000000001,-9.127941,-0.8924435,-1
954,955,1583552574615,3.6729998999999998,-3.9197998,-0.639,11.928708,-8.97908,-0.84966385,-1
955,956,1583552574625,3.4714,-3.9087,-0.4777,11.803519,-8.827863,-0.60186404,-1
956,957,1583552574635,3.2805998,-3.9763,-0.1295,11.774723,-8.742848,-0.13403699,-1
957,958,1583552574645,2.7031999,-4.0436997,1.3163999,11.339207,-8.394895,0.78739554,-1
958,959,1583552574655,2.1106,-3.7617998,2.1174,10.816792999999999,-7.850769500000001,1.4351611000000002,-1
959,960,1583552574666,2.1106,-3.7617998,2.1174,10.247375,-7.3810368,1.8199381000000001,-1
960,961,1583552574677,0.5261,-3.0368,3.0052,9.4395895,-6.644110700000001,2.0329165000000002,-1
961,962,1583552574687,-0.0178,-2.7247,3.2568998,9.003894,-6.1406293,2.149543,-1
962,963,1583552574697,-0.473,-2.7545,3.2714999,8.687916,-6.0219917,2.0828693,-1
963,964,1583552574707,-0.3797,-2.9285,3.4685,8.952437,-5.933483,2.273419,-1
964,965,1583552574717,0.0252,-2.8185,3.7861998,9.382694,-5.5744967,2.493427,-1
965,966,1583552574727,0.1016,-2.4608998,4.0381,9.349549,-4.88103,2.6603987,-1
966,967,1583552574737,-0.3285,-2.0091,4.0898,8.9654045,-4.2857647000000005,2.6489352999999998,-1
967,968,1583552574748,-0.9503,-1.3851,4.0864,8.3708,-3.477262,2.6170635,-1
968,969,1583552574758,-0.9503,-1.3851,4.0864,7.787486,-2.973024,2.714134,-1
969,970,1583552574768,-2.0702,-1.077,4.1489,7.2266297,-2.9387102,2.4165349999999997,-1
970,971,1583552574778,-2.6279,-1.4224,3.7898998,6.701256,-3.0420344,1.9279548,-1
971,972,1583552574788,-3.0361998,-1.4336,3.2925,6.53573,-2.6275215,1.4984639,-1
972,973,1583552574798,-2.9041997999999998,-0.85639995,3.1348,6.8135433,-1.6980061999999998,1.5070447,-1
973,974,1583552574809,-2.7422,-0.0274,3.3000998,6.7724020000000005,-0.7449031999999999,1.7192953999999998,-1
974,975,1583552574819,-3.1487,0.60109997,3.4059,6.234846,-0.09494446,1.9032658,-1
975,976,1583552574829,-3.8574,0.90309995,3.7259,5.4021235,0.26250985,2.3926790000000002,-1
976,977,1583552574839,-5.0144,0.8476,4.1177,4.185132,0.021720197000000004,2.6763057999999997,-1
977,978,1583552574849,-5.8152,-0.0349,3.9654,4.2373347,-1.0170857,2.1507688,-1
978,979,1583552574860,-4.966,-0.7521,3.1824,5.6840262,-1.0120003,1.2671934,-1
979,980,1583552574870,-3.3490998999999997,-0.42859998,2.0128,7.1613064,-0.44096407,-0.24228363,-1
980,981,1583552574880,-2.2601,-0.0464,0.4477,7.629171400000001,-0.21078552,-1.1432984,-1
981,982,1583552574890,-2.2486,-0.0011999999,0.1445,6.848144500000001,-0.27381048,-0.37360079999999996,-1
982,983,1583552574900,-3.5491998,-0.3407,1.4287,5.135438,-0.6047179,1.3434823,-1
983,984,1583552574910,-5.2303,-0.76769996,3.1545,3.8344386,-0.6424218,2.9199302000000005,-1
984,985,1583552574920,-6.2528996,-0.7665,4.3649,3.2878807,-0.32974863,3.5504860000000003,-1
985,986,1583552574931,-6.4705,-0.504,4.5922,3.4484932,-0.0026048915,3.5203957999999997,-1
986,987,1583552574941,-5.8343,-0.15799999,4.277199700000001,4.613004,0.3762919,2.861253,-1
987,988,1583552574951,-4.5997,-0.1498,3.4633,6.055396,0.15037501,1.9234058999999997,-1
988,989,1583552574961,-3.1592,-0.4818,2.4038,7.221381,-0.18443015,0.6722248000000001,-1
989,990,1583552574971,-2.3167999,-0.72209996,1.0525,7.5364203,-0.20643765,-0.6521996999999999,-1
990,991,1583552574981,-2.3167999,-0.72209996,1.0525,7.1917605,-0.014250289,-1.9988136000000003,-1
991,992,1583552574992,-2.7391999,-0.5085,-1.4094,6.876435000000001,0.29443893,-2.3250382000000003,-1
992,993,1583552575002,-2.9736,-0.1364,-1.1582999,6.5423574,0.802613,-1.1678628999999998,-1
993,994,1583552575012,-3.3925,0.22129999,0.19929999,5.902272,1.0492158,0.3952348,-1
994,995,1583552575022,-4.2116,0.30949998,1.8133,4.903574,1.0673926,1.9545592,-1
995,996,1583552575032,-4.9223,0.2103,2.9234,4.923072299999999,1.0525485,2.3084605,-1
996,997,1583552575042,-4.6934,0.1643,3.0133,5.844792,1.108841,1.6775596999999998,-1
997,998,1583552575053,-3.6529,0.1653,2.2979998999999998,6.926866,0.9153991,0.71627814,-1
998,999,1583552575062,-2.6337,-0.0437,1.2373999,7.4904227,0.7872135,-0.22047725,-1
999,1000,1583552575072,-2.1145,-0.1547,0.098,7.7615419999999995,0.7940225999999999,-1.5311686000000002,-1
1000,1001,1583552575082,-1.9573,-0.107999995,-0.9521,7.899286,0.93365246,-2.254476,-1
1001,1002,1583552575092,-1.8086,0.0058999998,-1.5487,8.050493,1.1140698999999998,-2.213995,-1
1002,1003,1583552575102,-1.7069999,0.129,-1.3503,7.861687,1.0156969999999998,-1.4313973999999998,-1
1003,1004,1583552575113,-1.9466,-0.0711,-0.4437,7.5742197,0.71176744,-0.38823417,-1
1004,1005,1583552575123,-2.1750998,-0.4033,0.5692,7.567755,0.63749933,0.16022955,-1
1005,1006,1583552575133,-2.1292999,-0.45589998,1.0119,7.759386999999999,0.884964,0.14287637,-1
1006,1007,1583552575143,-1.9088,-0.214,0.8761,7.9822874000000015,1.1386441,-0.37214515,-1
1007,1008,1583552575153,-1.6904,0.0095,0.3087,8.288553,1.3267325,-1.1414118,-1
1008,1009,1583552575163,-1.3459999999999999,0.13509999,-0.4596,8.771483,1.1810502,-1.7750994999999998,-1
1009,1010,1583552575173,-0.83559996,-0.057099998,-1.0318999,9.243084,0.9860376000000001,-1.9805698,-1
1010,1011,1583552575184,-0.38349998,-0.2417,-1.1588,9.493326,0.92353934,-1.870178,-1
1011,1012,1583552575194,-0.2146,-0.2963,-1.048,9.317256,0.9647388000000001,-1.6648034,-1
1012,1013,1583552575204,-0.4468,-0.2419,-0.7614,8.929041,1.349305,-1.1139741,-1
1013,1014,1583552575214,-0.76659995,0.070999995,-0.29189998,8.609789,1.6452858,-0.79117835,-1
1014,1015,1583552575224,-1.0868,0.3349,0.0246,8.504357,1.9254456999999998,-0.7107427,-1
1015,1016,1583552575234,-1.1824,0.6048,0.0933,8.722142999999999,2.1249113,-0.96323526,-1
1016,1017,1583552575245,-0.9754,0.7772,-0.1619,9.120788000000001,2.194487,-1.322241,-1
1017,1018,1583552575256,-0.5735,0.85249996,-0.53209996,9.726847,1.8761634999999999,-1.4841273000000001,-1
1018,1019,1583552575266,0.27789998,0.21499999,-0.63379997,10.008673,1.4680575,-1.3938468000000002,-1
1019,1020,1583552575276,0.4247,-0.1158,-0.5751,10.1374235,1.1832719999999999,-1.3720306999999998,-1
1020,1021,1583552575287,0.4446,-0.1204,-0.6475,10.110877,1.2372372999999999,-1.4296353000000002,-1
1021,1022,1583552575296,0.2886,0.0731,-0.57989997,9.940256,1.4705092,-1.3403795,-1
1022,1023,1583552575306,0.0348,0.2315,-0.45899999999999996,9.662749,1.6416466,-1.1415841999999998,-1
1023,1024,1583552575316,-0.2087,0.41779998,-0.0827,9.444503,1.8446175,-0.7419248,-1
1024,1025,1583552575328,-0.31509998,0.5489,0.2496,9.376863,1.9579877,-0.4401405,-1
1025,1026,1583552575338,-0.4516,0.53139997,0.30429998,9.158864999999999,1.9040128,-0.5103097,-1
1026,1027,1583552575349,-0.6285,0.3965,0.058599997,9.115444,1.7418584,-0.7530818,-1
1027,1028,1583552575359,-0.3265,0.2435,-0.098699994,9.620582,1.5811596,-0.86756295,-1
1028,1029,1583552575369,0.3172,0.0998,-0.1707,10.233402,1.4021499,-0.86974645,-1
1029,1030,1583552575379,0.7744,-0.0733,-0.118499994,10.547761,1.218955,-0.8482848,-1
1030,1031,1583552575389,0.88909996,-0.1853,-0.15879999,10.533951,1.164827,-0.7930362,-1
1031,1032,1583552575400,0.7111,-0.11199999599999999,-0.10349999,10.138515,1.2549639,-0.85726786,d
1032,1033,1583552575409,0.2303,-0.0477,-0.21329999,9.778083,1.3056636000000001,-0.9223709999999999,-1
1033,1034,1583552575419,-0.0925,-0.0072999996999999995,-0.22999999,9.539667999999999,1.3529251,-0.86276495,-1
1034,1035,1583552575429,-0.22899999,0.0042999996999999995,-0.12629999,9.4792385,1.3385311000000002,-0.71098214,-1
1035,1036,1583552575439,-0.1696,-0.030399999,0.11669999,9.640521000000001,1.3639575000000002,-0.3770772,-1
1036,1037,1583552575449,-0.0122,-0.0131,0.4219,9.754571,1.3382726,-0.115946405,-1
1037,1038,1583552575460,0.0762,-0.0335,0.76699996,9.754265,1.312827,0.22271821,-1
1038,1039,1583552575469,-0.0609,-0.0932,1.1883999,9.567708999999999,1.2433856,0.59672123,-1
1039,1040,1583552575479,-0.218,-0.1041,1.1733,9.441927,1.2843934,0.41942585,-1
1040,1041,1583552575489,-0.2678,0.023,0.8287,9.430674,1.4575135000000001,0.012076353,-1
1041,1042,1583552575499,-0.318,0.1695,0.3787,9.275549,1.5640553,-0.37765178,-1
1042,1043,1583552575510,-0.60359997,0.2462,0.16849999,9.019657,1.6627444,-0.43047747,-1
1043,1044,1583552575520,-0.76159996,0.3414,0.16399999,8.829203,1.7665952,-0.45555909999999994,-1
1044,1045,1583552575530,-0.94869995,0.42729998,0.1147,8.732841,1.872869,-0.21564096,-1
1045,1046,1583552575540,-0.92929995,0.6105,0.7995,8.787784,2.1878598,1.3713222,-1
1046,1047,1583552575550,-1.0067999,0.93799996,2.7438,8.446763,2.4254987,3.3462703,-1
1047,1048,1583552575560,-1.5342,1.0755,4.5029,7.534859,2.4747427,4.503033599999999,-1
1048,1049,1583552575571,-2.6402,1.0468,5.2239,6.4272633,2.3185257999999997,4.575826999999999,-1
1049,1050,1583552575581,-3.6109998,0.8118,4.9419,5.825581,2.0942945,4.0105944,-1
1050,1051,1583552575591,-3.8990998,0.7224,4.3244,5.894764,2.1784267,3.2761967,-1
1051,1052,1583552575601,-3.8569998999999995,0.8732,3.6171,5.734793,2.3533185000000003,3.3681629,-1
1052,1053,1583552575611,-4.0116997,1.2150999,4.362,5.6415052,2.7462451,4.6476336,-1
1053,1054,1583552575621,-4.3322,1.7506,6.3666,4.504862999999999,3.1399095,7.677486999999999,-1
1054,1055,1583552575632,-5.5139,1.9061999,8.4263,3.0465164000000002,3.0025396,9.093666,-1
1055,1056,1583552575642,-6.9196,1.7253,9.5882,2.239843,2.7502196,9.138304,-1
1056,1057,1583552575652,-7.7563996,1.4467,9.210199000000001,1.8317462,2.3290987000000003,7.977077499999999,-1
1057,1058,1583552575662,-7.848799700000001,1.1184,8.249599,2.2026656000000004,1.9444748,7.357755,-1
1058,1059,1583552575673,-7.2752,0.6242,7.6184997999999995,3.1551366,0.9894181999999999,6.5712504,-1
1059,1060,1583552575683,-6.4174,-0.1375,7.0143,4.1341734,0.28583896,5.7340746,-1
1060,1061,1583552575693,-5.4409,-0.6731,6.1815996,4.833539,-0.015514426999999999,4.6456423,-1
1061,1062,1583552575703,-4.8448997,-0.7725,5.2490997,4.906964299999999,-0.31710723,4.1898913,-1
1062,1063,1583552575714,-4.843899700000001,-0.951,5.0464,4.5918493,-0.76038885,4.453253299999999,-1
1063,1064,1583552575724,-5.1625,-1.2878,5.4396,4.539177,-1.3116012,4.288216,-1
1064,1065,1583552575734,-5.1735997000000005,-1.8742,5.2936997,5.218546,-2.1112838,3.3321733,-1
1065,1066,1583552575745,-4.5155997,-2.3964,4.5578,6.451971,-2.9497044,1.7030723,-1
1066,1067,1583552575756,-3.2682998,-3.0942,3.0424,7.899352599999999,-3.4465682999999996,0.095011495,-1
1067,1068,1583552575766,-0.4165,-3.3572,0.22199999,9.529814,-3.5411775000000003,-1.6049674999999999,-1
1068,1069,1583552575776,0.1397,-3.2842998999999997,-0.35979998,9.832479,-3.6843602999999994,-2.0493026000000003,-1
1069,1070,1583552575786,0.119799994,-3.4476,-0.81839997,9.746978,-4.073571,-2.7113376000000002,-1
1070,1071,1583552575796,0.151,-3.9243998999999996,-1.9173,9.871093,-4.7204175,-3.8881261,-1
1071,1072,1583552575806,0.151,-3.9243998999999996,-1.9173,10.594027,-5.1641684,-4.8001156,-1
1072,1073,1583552575816,2.6039,-4.5199,-3.6966998999999996,12.515794999999999,-5.5144114,-5.6334800000000005,-1
1073,1074,1583552575827,3.9824,-4.1972,-3.9146,13.695964000000002,-5.2348742,-5.922278400000001,-1
1074,1075,1583552575837,4.2293997,-3.569,-4.1770997,13.655961999999999,-4.729046299999999,-6.170758,-1
1075,1076,1583552575847,3.3351,-3.02,-4.1369,12.614752000000001,-4.357131,-6.019607499999999,-1
1076,1077,1583552575857,3.3351,-3.02,-4.1369,11.708585000000001,-4.401625,-5.632618,-1
1077,1078,1583552575867,1.611,-3.1898,-3.8256,11.102143,-4.936739,-5.9441996,-1
1078,1079,1583552575877,2.1390000000000002,-3.6838998999999997,-5.285599700000001,11.870614999999999,-5.618712400000001,-7.520331,-1
1079,1080,1583552575888,3.8486,-4.2434,-7.0018,13.6781225,-6.279905,-9.119705999999999,-1
1080,1081,1583552575898,5.522599700000001,-4.3844,-8.3082,15.369348,-6.489819000000001,-10.470131,-1
1081,1082,1583552575908,6.2047,-4.2359,-8.7719,15.434307999999998,-6.4123906999999996,-10.309911,-1
1082,1083,1583552575918,5.3311,-4.0964,-7.8557997,14.0217,-6.4242754,-9.055292,-1
1083,1084,1583552575928,3.5088,-4.0007,-6.3882,12.165780999999999,-6.285766000000001,-7.608476,-1
1084,1085,1583552575938,1.8876,-3.7054,-5.3381,10.767864,-5.9861364,-7.032287599999999,-1
1085,1086,1583552575949,0.8725,-3.3674,-5.687599700000001,10.093801,-5.747109,-7.8725179999999995,-1
1086,1087,1583552575959,0.96669996,-3.0832999,-7.1431,10.704342,-5.489368,-9.431393,-1
1087,1088,1583552575969,2.0955,-2.8234,-8.7261,11.872636,-5.4207697,-10.806967,-1
1088,1089,1583552575979,2.9427998,-2.9357,-9.698999,12.295739,-5.747712,-11.403995,-1
1089,1090,1583552575989,2.7196,-3.2907998999999997,-9.910399,11.88001,-6.0723275999999995,-11.40071,-1
1090,1091,1583552575999,1.8246,-3.4548,-9.5215,10.746738,-6.1676455,-10.732746,-1
1091,1092,1583552576010,0.866,-3.3072,-8.6031,9.637438000000001,-5.906802,-9.523311,-1
1092,1093,1583552576020,0.0316,-3.0361998,-7.7098,9.007589999999999,-5.5709343,-8.875172000000001,-1
1093,1094,1583552576030,-0.4323,-2.7287998,-7.2165,8.838837,-5.320931,-8.686997,-1
1094,1095,1583552576040,-0.426,-2.4554,-7.256,9.029779,-5.007866,-8.889134,-1
1095,1096,1583552576050,-0.1937,-2.1559,-7.5302997000000005,9.243342,-4.8877625,-9.137031,-1
1096,1097,1583552576061,-0.0396,-2.2172,-7.8373,9.298505,-5.1553483,-9.515438,-1
1097,1098,1583552576072,-0.0131,-2.5068998,-8.228499000000001,9.336917,-5.385392700000001,-9.616647,-1
1098,1099,1583552576082,0.0422,-2.6947,-8.130899000000001,9.267649,-5.6656675000000005,-9.262516,-1
1099,1100,1583552576092,-0.1094,-2.9693,-7.8187,8.79734,-5.8929540000000005,-8.774041,-1
1100,1101,1583552576102,-0.67539996,-3.1839999999999997,-7.2609,8.154986,-6.030668299999999,-7.807501299999999,-1
1101,1102,1583552576113,-1.3126,-3.3553998,-6.2388997,7.7026353,-6.095082,-6.553313,-1
1102,1103,1583552576123,-1.6761,-3.3978998999999996,-5.0016,7.647970699999999,-5.9324775,-5.7397537000000005,-1
1103,1104,1583552576133,-1.7156999,-3.2470999,-4.4049,7.615247200000001,-5.8930597,-5.748401599999999,-1
1104,1105,1583552576143,-1.7838999,-3.2438998,-4.5994997,7.702242999999999,-5.974692,-6.314458,-1
1105,1106,1583552576155,-1.6150999,-3.3211,-5.3399,8.166641,-6.0949097000000005,-6.984394,-1
1106,1107,1583552576165,-1.1205,-3.4729,-5.8898,8.54388,-6.454136,-6.417763,-1
1107,1108,1583552576175,-0.84129995,-3.7856998,-5.3788,8.14494,-6.864099499999999,-4.6276183,-1
1108,1109,1583552576185,-1.1625,-4.1689997000000005,-3.9785,7.67356,-6.8436145999999995,-3.4282572,-1
1109,1110,1583552576196,-2.1636,-3.9742,-1.5281,7.195160400000001,-6.5477777,-2.3090924999999998,-1
1110,1111,1583552576206,-2.3688,-3.7898,-1.199,7.0407634,-6.3697643,-2.0195665000000003,-1
1111,1112,1583552576216,-2.4045,-3.534,-1.2563,7.0218679999999996,-6.125833,-2.057328,-1
1112,1113,1583552576226,-2.4045,-3.534,-1.2563,7.004410000000001,-6.3124657,-2.0735319,-1
1113,1114,1583552576236,-2.1619,-3.9002,-0.91099995,7.388622,-6.5598636,-1.3428311000000002,-1
1114,1115,1583552576247,-1.6086999,-3.7612997999999997,-0.30359998,7.921550999999999,-6.375931700000001,-0.73298,-1
1115,1116,1583552576256,-1.6086999,-3.7612997999999997,-0.30359998,8.207668,-6.165682299999999,-0.3897569,-1
1116,1117,1583552576266,-1.2247,-3.4078,0.5305,8.183361999999999,-6.126139599999999,0.30809546,-1
1117,1118,1583552576276,-1.3076999,-3.3746998,1.5422,8.100561,-6.0938945,1.4708825,-1
1118,1119,1583552576287,-1.2432,-3.116,2.9111,8.151845,-5.841048000000001,2.8534381,-1
1119,1120,1583552576297,-1.3737,-2.8439,3.9717998999999997,7.997093,-5.5935926,3.865908,-1
1120,1121,1583552576308,-1.5415,-2.5844998,4.3854,7.8387985,-5.3898077,4.1920366,-1
1121,1122,1583552576318,-1.6472,-2.4822,4.2806,7.7602687,-5.4268794,3.9985180000000002,-1
1122,1123,1583552576328,-1.2979,-2.6046,4.1180997,8.424458,-5.605765,4.077105,-1
1123,1124,1583552576338,-0.2102,-2.6518,4.383,9.402116,-5.6519156,4.4305468,-1
1124,1125,1583552576348,1.1316,-2.6938,5.3954,10.858116,-5.8600197,6.109208,-1
1125,1126,1583552576358,1.8118,-2.9879,7.321099799999999,11.145439,-6.1525908,7.570983,-1
1126,1127,1583552576368,1.6804,-3.3358998,8.8779,10.775611999999999,-6.5091543,9.157974000000001,-1
1127,1128,1583552576379,1.1218,-3.3897998,9.9409,10.253245,-6.3731833,9.909294000000001,-1
1128,1129,1583552576389,0.75699997,-2.9514,10.328,10.031695,-5.8929730000000005,9.995897,-1
1129,1130,1583552576399,0.65779996,-2.1843998,10.2078,10.039893,-4.8799285999999995,9.832813999999999,-1
1130,1131,1583552576409,0.88479996,-1.2571,10.1101,10.303475,-4.0586123,9.59368,-1
1131,1132,1583552576419,1.1642,-0.62939996,9.3951,10.599936,-3.602469,8.626145,-1
1132,1133,1583552576429,1.5446999,-0.38369998,8.1649,11.250421000000001,-3.6243519999999996,7.3054276,-1
1133,1134,1583552576440,2.2702,-0.6056,7.0922,12.102642,-4.048911,6.625388,-1
1134,1135,1583552576450,3.2001,-1.0501,6.7316,12.888898,-4.4597754,6.900137400000001,-1
1135,1136,1583552576460,3.6829998,-1.3169999,7.2243,12.7385025,-4.552517,7.503763,-1
1136,1137,1583552576470,3.1078,-1.3453,7.8015,11.987786999999999,-4.4810934,7.92497,-1
1137,1138,1583552576480,2.1238,-1.1488999,8.3059,11.030776,-4.0192803999999995,8.436342999999999,-1
1138,1139,1583552576490,1.5207,-0.7122,8.4564,10.689603,-3.4923549,8.12752,-1
1139,1140,1583552576500,1.3812,-0.27699998,7.8953,10.857369,-3.231636,7.471882300000001,-1
1140,1141,1583552576510,1.7071999,-0.162,7.0845,11.277705000000001,-3.1738782000000003,6.7011027,-1
1141,1142,1583552576520,2.3309,-0.0967,5.9859,11.980911,-3.1116194999999998,5.4586744000000005,-1
1142,1143,1583552576530,2.7779999,-0.1113,4.9509,12.267515,-3.1633532000000004,4.684888,-1
1143,1144,1583552576540,2.9861999,-0.2154,4.4179997,12.395989,-3.2711883,4.691917,-1
1144,1145,1583552576550,2.9731998,-0.3649,4.5666,12.138066,-3.4081364,4.9244900000000005,-1
1145,1146,1583552576560,2.5625,-0.53099996,4.8807,11.64804,-3.407169,5.324675599999999,-1
1146,1147,1583552576570,2.08,-0.58059996,5.2962,11.309625,-3.406815,5.4774737,-1
1147,1148,1583552576580,1.8133999,-0.6518,5.2664,11.233911,-3.3868282,5.194958,-1
1148,1149,1583552576590,1.8041999,-0.65889996,4.9163,11.288279,-3.3128184999999997,4.675052,-1
1149,1150,1583552576600,1.9056,-0.6584,4.3094,11.518360000000001,-3.257005,3.9841335,-1
1150,1151,1583552576610,2.1662,-0.6714,3.4025,11.898005,-3.185629,2.649443,-1
1151,1152,1583552576620,2.6578999,-0.5943,1.8899,12.595722,-2.9898407000000002,1.5270218999999998,-1
1152,1153,1583552576630,3.3653,-0.4897,1.2701,13.138651000000001,-3.0458939999999997,1.696991,-1
1153,1154,1583552576641,3.7106998,-0.782,1.8652999,13.211004,-3.4670818,2.606031,-1
1154,1155,1583552576651,3.6113,-1.3644999,2.9127,12.996253999999999,-4.035331200000001,3.4888787000000003,-1
1155,1156,1583552576661,3.3337,-1.9781,3.62,12.732547,-4.330833,3.795327,-1
1156,1157,1583552576671,3.0268,-2.1948,3.7903,12.477928,-4.190983,3.7486782,-1
1157,1158,1583552576681,2.819,-2.0388,3.6216998,12.379144,-3.8512266000000004,3.299976,-1
1158,1159,1583552576691,2.7405999,-1.8892,3.2271,12.298565,-3.9012367999999995,2.9789999,-1
1159,1160,1583552576702,2.6248,-2.1172,2.8528,12.244158,-4.1616974,2.3907157999999997,-1
1160,1161,1583552576712,2.609,-2.4483,2.1423,12.510058,-4.323459,1.1755434,-1
1161,1162,1583552576722,2.9376,-2.6195998,0.8096,12.942556,-4.2286005,0.11085154,-1
1162,1163,1583552576732,3.4626,-2.5684,-0.38959998,13.418294,-4.0581527,-0.8032068,-1
1163,1164,1583552576742,3.7410997999999998,-2.569,-0.87109995,13.304119,-3.9880888,-0.48515147,-1
1164,1165,1583552576752,3.4882,-2.609,-0.3644,12.67569,-3.9533346,0.3371132,-1
1165,1166,1583552576762,2.7568,-2.7379,0.6351,11.7422285,-3.6565876000000004,1.522492,-1
1166,1167,1583552576772,1.7658,-2.4901,1.8633,10.585838,-3.2620616,1.9610906000000004,-1
1167,1168,1583552576782,0.564,-2.2935998,2.0588999,9.571702,-2.842693,1.0361912,-1
1168,1169,1583552576792,-0.3202,-2.0022,1.0935,9.429008,-2.4676845000000003,-0.19962855,-1
1169,1170,1583552576802,-0.28869998,-1.7907,-0.0738,9.822633999999999,-2.1663215,-1.181663,-1
1170,1171,1583552576813,0.1768,-1.5608,-1.2544,10.147,-1.9026912,-2.5932077999999996,-1
1171,1172,1583552576823,0.3502,-1.5086,-2.2814,10.010588,-1.8637903000000002,-2.9475017000000006,-1
1172,1173,1583552576833,0.1628,-1.6442,-2.4738,9.8759,-2.1120977,-2.7447223999999997,-1
1173,1174,1583552576846,0.0223,-2.2782,-1.633,9.774289999999999,-2.243252,-2.2859933,-1
1174,1175,1583552576856,-0.42,-2.1541,-1.5807999,9.245334,-1.9047598999999997,-2.3751917000000002,-1
1175,1176,1583552576867,-0.93719995,-1.7076,-1.4613999,8.736232000000001,-1.2446209,-2.295982,-1
1176,1177,1583552576877,-1.5004,-1.1665,-1.1155,7.9934254000000005,-0.47070962,-1.9784629,-1
1177,1178,1583552576887,-2.405,-0.71849996,-0.6656,7.0711116999999994,0.046380475,-1.6128396,-1
1178,1179,1583552576898,-3.1611998,-0.5617,-0.3513,6.4066825,0.33250675,-1.4598501,-1
1179,1180,1583552576909,-3.3288998999999997,-0.5317,-0.406,6.4305769999999995,0.4254209,-1.7622856,-1
1180,1181,1583552576919,-3.1348,-0.58709997,-1.0446,6.672515400000001,0.5062587000000001,-2.6480732000000002,-1
1181,1182,1583552576929,-2.8049,-0.5554,-1.8469,7.002733,0.59977627,-3.314035,-1
1182,1183,1583552576939,-2.447,-0.65929997,-2.1763,7.313950999999999,0.46933058,-3.5995097,-1
1183,1184,1583552576949,-2.2178,-0.8879,-2.2919,7.4860463,0.40340385,-3.6733375,-1
1184,1185,1583552576960,-2.1255,-0.72179997,-2.1615,7.377311,1.0476835,-3.2903513999999996,-1
1185,1186,1583552576970,-2.4313998,-0.1691,-1.7903999,6.693029400000001,1.4852383,-3.1539490000000003,-1
1186,1187,1583552576980,-3.2616,-0.0037,-1.6811,5.776088,1.5613451,-3.0054798,-1
1187,1188,1583552576990,-4.0871997,-0.0989,-1.3515999,5.1087956,1.5195903,-2.6039529999999997,-1
1188,1189,1583552577000,-4.6171,-0.3144,-0.90819997,4.7012067,1.3545723,-2.3174052000000005,-1
1189,1190,1583552577010,-4.875,-0.622,-0.6581,4.617582,1.0660998,-2.3080773,-1
1190,1191,1583552577020,-4.785,-0.9795,-0.7952,4.879699,0.91129065,-2.7938228,-1
1191,1192,1583552577030,-4.4262,-1.0669,-1.4021,5.266411,1.1391611000000001,-3.4930347999999998,-1
1192,1193,1583552577040,-4.1198997,-0.7463,-1.9555999,5.253166,1.4953802,-3.6874535,-1
1193,1194,1583552577051,-4.4024997,-0.4781,-1.9882,4.587807700000001,1.7759039,-3.5280669000000002,-1
1194,1195,1583552577061,-5.1928997,-0.32529998,-1.716,3.7555256,1.9490718,-3.1280148,-1
1195,1196,1583552577071,-5.9516,-0.2147,-1.2321,3.1122131,2.1617727,-2.6014056,-1
1196,1197,1583552577081,-6.4842,-0.011899999,-0.7028,2.6532447,2.4164965,-2.1054802,-1
1197,1198,1583552577091,-6.9103,0.10229999599999999,-0.1996,2.1959426,2.44312,-1.5953428,-1
1198,1199,1583552577101,-7.3497,0.0341,0.18339999,1.8647096,2.3431478,-1.5952853,-1
1199,1200,1583552577112,-7.5302,-0.1336,-0.15689999,2.211323,2.4218214,-2.1386924,-1
1200,1201,1583552577122,-7.0116,0.0889,-0.46109998,2.6976812000000003,2.8124688,-2.3497367000000002,-1
1201,1202,1583552577132,-6.6440997,0.47959998,-0.7528,2.5894247999999997,3.187123,-2.7616446,-1
1202,1203,1583552577142,-6.8451,0.87079996,-1.1202999,2.2741566000000004,3.6215748999999997,-2.6052362999999996,-1
1203,1204,1583552577152,-7.1713,1.3070998999999999,-0.83379996,1.9582080000000002,3.9263184,-2.1654402999999998,-1
1204,1205,1583552577163,-7.6618,1.6728,-0.2817,1.1911728000000001,4.1758614000000005,-1.6414647,-1
1205,1206,1583552577173,-8.357699,1.7975999,0.0539,0.47622585,4.026367,-1.5077533,-1
1206,1207,1583552577183,-9.0071,1.5920999,0.2074,0.17176960000000002,3.679208,-1.4171854,-1
1207,1208,1583552577193,-9.210899000000001,1.2899,0.30969998,0.33259293,3.224281,-1.397802,-1
1208,1209,1583552577203,-9.0096,0.87579995,0.3188,0.67195666,2.7124581,-1.5969325,-1
1209,1210,1583552577213,-8.677199,0.4377,0.0682,1.0749488,2.2150867,-1.9619142,-1
1210,1211,1583552577224,-8.2911,0.061899997000000005,-0.3259,1.4555213,1.6504573,-2.2973418,-1
1211,1212,1583552577234,-7.9579997,-0.3726,-0.61039996,1.753839,1.1696633,-2.3305254,-1
1212,1213,1583552577244,-7.7156,-0.65599996,-0.6307,1.8235389,0.9677363000000001,-2.177737,-1
1213,1214,1583552577254,-7.7198997,-0.6358,-0.5182,1.6337267,1.0794306999999999,-1.9619620999999998,-1
1214,1215,1583552577265,-7.9473,-0.3302,-0.36159998,1.0610911,1.1626244,-1.3812723999999998,-1
1215,1216,1583552577275,-8.553599,-0.1043,0.1638,0.46009853,0.9588299000000001,-0.810897,-1
1216,1217,1583552577285,-9.1868,-0.12789999,0.6502,0.69225943,0.74689513,-0.25853547,-1
1217,1218,1583552577295,-8.9858,-0.1445,1.112,1.4578389999999999,0.8119983000000001,0.15053783,-1
1218,1219,1583552577305,-8.252,0.1417,1.3924999,2.4000819,0.5999678,-0.0757717,-1
1219,1220,1583552577315,-7.0369,0.1239,1.0723,2.7042124,0.24655488,-0.021997925,-1
1220,1221,1583552577325,-7.0369,0.1239,1.0723,2.3848643,-0.6257484999999999,-0.33910516,-1
1221,1222,1583552577336,-6.9939,-1.4519,0.3656,2.9693847,-1.9748526000000002,-0.77581716,-1
1222,1223,1583552577346,-6.9939,-1.4519,0.3656,4.2188324999999995,-2.8334897,-1.0524241,-1
1223,1224,1583552577356,-3.9719,-2.8106,-0.4515,6.0299025,-3.6171982000000003,-1.6137111000000002,-1
1224,1225,1583552577366,-3.9719,-2.8106,-0.4515,6.562986,-3.5283637000000003,-2.2268757999999997,-1
1225,1226,1583552577377,-3.6265,-2.0209,-1.4678,5.8203044,-3.2057116000000003,-2.422482,-1
1226,1227,1583552577387,-5.0407,-2.2075,-0.7894,4.358098,-3.7895807999999995,-1.44854,-1
1227,1228,1583552577398,-5.85,-3.0867,1.105,3.8953947999999996,-5.2678185,1.0283767,-1
1228,1229,1583552577408,-5.1394,-4.3033,3.1832,4.970085,-6.7603729999999995,2.863063,-1
1229,1230,1583552577418,-3.6525998,-5.411299700000001,3.9677,6.2355165,-7.781107400000001,3.0048093999999996,-1
1230,1231,1583552577428,-1.6516998999999999,-5.8712,3.0091999,8.605614,-8.55974,1.6326733,-1
1231,1232,1583552577438,0.1692,-6.0305,1.0928999,10.027549,-9.071611,-0.32902077,-1
1232,1233,1583552577449,1.1801,-6.2532,-0.80619997,10.5892,-9.56746,-1.5500253000000002,-1
1233,1234,1583552577459,1.2876999,-6.2412,-0.88479996,10.245861,-9.857982000000002,-0.84687704,-1
1234,1235,1583552577469,0.81189996,-6.3209995999999995,0.1175,9.710892,-10.1725025,0.315958,-1
1235,1236,1583552577479,0.7327,-6.1342998,1.3432,9.693336500000001,-10.125558,1.5096495,-1
1236,1237,1583552577489,1.063,-5.5923,2.6367,10.195785,-10.0289755,3.1188214,-1
1237,1238,1583552577500,1.7586,-5.6766996,3.2177,10.662703,-10.5931835,3.4904397000000005,-1
1238,1239,1583552577510,2.5412998,-6.4677997000000005,3.5161,11.646345,-12.225483,4.0295467,-1
1239,1240,1583552577520,3.7577,-7.7475996,3.7881,12.8388,-13.795113,4.5106955,-1
1240,1241,1583552577530,5.1103,-8.8476,4.1556997,13.624913000000001,-14.628132,4.764308,-1
1241,1242,1583552577540,6.0698,-9.204599,3.8525,14.312959,-14.991696,3.9441697999999996,-1
1242,1243,1583552577550,6.7138995999999995,-8.870299000000001,2.6811,14.554332999999998,-14.569723000000002,3.0953772,-1
1243,1244,1583552577561,7.0347,-7.791,1.8953999,14.500836999999999,-13.426617000000002,2.9632842999999998,-1
1244,1245,1583552577571,7.026799700000001,-6.75,2.1083,14.426205,-12.907841000000001,3.2260911,-1
1245,1246,1583552577581,7.376,-6.1145,2.211,14.839023000000001,-12.358572,3.3687854,-1
1246,1247,1583552577591,8.0647,-5.132000000000001,2.2502,15.199216,-11.622575,2.9856942,-1
1247,1248,1583552577601,8.1826,-4.7606,1.6516,15.039513000000001,-11.694488,2.5950656000000003,-1
1248,1249,1583552577611,7.9098997,-5.0365,1.3737,14.639757999999999,-12.412184,2.2480404,-1
1249,1250,1583552577622,8.0476,-5.4652,1.2215999,15.102912,-13.042969,1.7734618000000002,-1
1250,1251,1583552577632,8.6563,-5.8122,0.7708,15.35121,-12.943352,1.2683045,-1
1251,1252,1583552577642,8.8963995,-5.4754,0.3743,14.994943,-12.48513,1.3501670000000001,-1
1252,1253,1583552577652,8.5639,-4.901,0.5175,14.290885000000001,-11.804333999999999,1.2351782,-1
1253,1254,1583552577662,7.920099700000001,-4.0895,0.278,13.836522,-11.348037,0.89690626,-1
1254,1255,1583552577672,7.1513995999999995,-3.3133,-0.384,12.6439705,-10.361933,0.081412435,-1
1255,1256,1583552577682,6.4168997,-2.5688999,-0.8527,12.035269,-9.76705,-0.25277025,-1
1256,1257,1583552577693,5.9154,-1.9512,-1.1532999,11.531874,-9.0845585,-0.3434243,-1
1257,1258,1583552577703,5.3936996,-1.2135,-1.1195998999999999,10.749008,-8.4375305,-0.18722658,-1
1258,1259,1583552577713,4.5885997000000005,-0.5801,-0.94049996,9.823428999999999,-7.966658,-0.084409975,-1
1259,1260,1583552577723,3.6804997999999998,-0.1078,-0.7902,9.039700999999999,-7.763696700000001,0.09641929,-1
1260,1261,1583552577733,3.0281,0.0506,-0.58629996,8.709166999999999,-7.758085,0.3846333,-1
1261,1262,1583552577744,2.8111,0.053799997999999995,-0.3238,8.682285,-8.138886999999999,0.4511059,-1
1262,1263,1583552577755,2.812,-0.2956,-0.2613,8.638634,-8.241655999999999,0.21659863,-1
1263,1264,1583552577765,2.8109,-0.3665,-0.5094,8.475397000000001,-8.075633,-0.21664654,-1
1264,1265,1583552577775,2.6567,-0.2013,-0.9321,8.242164,-7.8174615,-0.70222896,-1
1265,1266,1583552577785,2.4343,0.0712,-1.4409,7.955261699999999,-7.623952,-1.0124408,-1
1266,1267,1583552577795,2.1567,0.2613,-1.7572,7.616262400000001,-7.4516077,-0.80449003,-1
1267,1268,1583552577806,1.5410999,0.6073,-1.1466,7.272301,-7.278938,-0.31984618,-1
1268,1269,1583552577816,1.2868,0.46289998,-0.7509,7.034911599999999,-7.500689,0.050795384000000006,-1
1269,1270,1583552577826,1.2868,0.46289998,-0.7509,6.972088,-7.765142999999999,0.4321917,-1
1270,1271,1583552577836,1.1467,-0.33139998,-0.0116,6.928532000000001,-8.341322,0.6811887,-1
1271,1272,1583552577847,1.1616,-0.6405,0.16669999,6.9297104,-8.5602865,0.87046474,-1
1272,1273,1583552577857,1.0382999,-0.6479,0.11,6.7726603,-8.538202,0.7192086,-1
1273,1274,1583552577867,0.8246,-0.57,-0.35619998,6.5860753,-8.451791,0.23981282,-1
1274,1275,1583552577877,0.77529997,-0.41599998,-0.7485,6.556799400000001,-8.306061,-0.092741795,-1
1275,1276,1583552577887,0.82089996,-0.3909,-0.8865,6.632216499999999,-8.303867,-0.07242939,-1
1276,1277,1583552577897,0.8814,-0.3971,-0.55509996,6.6581984,-8.307258000000001,0.29972532,-1
1277,1278,1583552577907,0.69159997,-0.3857,0.039499998,6.4187015999999995,-8.268874,0.8692389000000001,-1
1278,1279,1583552577918,0.312,-0.39589998,0.4953,6.066849700000001,-8.268299,1.2681702,-1
1279,1280,1583552577928,0.1299,-0.376,0.7421,5.9647512,-8.258521,1.4764754999999998,-1
1280,1281,1583552577938,0.1592,-0.3532,0.79969996,6.060462,-8.203702999999999,1.4059039,-1
1281,1282,1583552577948,0.3116,-0.3376,0.4779,6.2548423,-8.197028,0.9051806,d
1282,1283,1583552577958,0.6145,-0.34039998,-0.26049998,6.5395129999999995,-8.206892999999999,0.28645188,-1
1283,1284,1583552577968,1.0445,-0.39299998,-1.0717,7.063211,-8.296944,-0.56838346,-1
1284,1285,1583552577979,1.4587,-0.45929998,-1.4741,7.4324827,-8.288745,-0.65544623,-1
1285,1286,1583552577989,1.6029999,-0.4195,-1.1484,7.421958,-8.274284,-0.24258052,-1
1286,1287,1583552577999,1.3309,-0.51629996,-0.5796,7.050445,-8.3726,0.44981304,-1
1287,1288,1583552578009,0.9341,-0.5689,0.1435,6.767661,-8.315503,1.1221145000000001,-1
1288,1289,1583552578019,0.7148,-0.45499998,0.8016,6.699733,-8.265733,1.7289008999999997,-1
1289,1290,1583552578029,0.7475,-0.5534,1.1373999,6.860547,-8.353580000000001,1.8260577,-1
1290,1291,1583552578040,1.0345,-0.65669996,0.9596,7.311891999999999,-8.454961,1.371552,-1
1291,1292,1583552578050,1.8105999,-0.7847,-0.042,8.455947,-8.548871,-0.04144842,-1
1292,1293,1583552578060,2.8736,-0.833,-1.2542,9.289186500000001,-8.594322,-0.8727823,-1
1293,1294,1583552578070,3.7626998,-1.0328,-2.0895,10.076352,-8.954659,-1.4411658,-1
1294,1295,1583552578080,4.1361,-1.4188,-2.2136,10.232828,-9.310561,-1.0826293,-1
1295,1296,1583552578090,4.1096,-1.7871,-1.5295999,10.1477375,-9.599609,-0.12603077,-1
1296,1297,1583552578100,3.9225998,-2.0574,-0.5482,10.071842,-9.670641,0.6776835999999999,-1
1297,1298,1583552578110,3.8960000000000004,-2.1281,0.15619999,10.226564,-9.640272,1.03939,-1
1298,1299,1583552578121,4.1151,-2.0535,0.2095,10.699544,-9.412871,0.6662296999999999,-1
1299,1300,1583552578131,4.5727,-1.8513,-0.3304,11.292702,-9.114449,-0.003926491,-1
1300,1301,1583552578141,5.1101,-1.6299,-0.97609997,11.7380905,-8.963958,-0.43772712,-1
1301,1302,1583552578151,5.5178,-1.6171,-1.3155999,12.219843,-9.02772,-0.6372310999999999,-1
1302,1303,1583552578161,5.7921,-1.8844,-1.4611,12.557196000000001,-9.460142,-0.98198664,-1
1303,1304,1583552578171,6.0685997,-2.4826999,-1.9331,13.01625,-10.010732,-1.392889,-1
1304,1305,1583552578182,6.6098,-3.0221999,-2.0999,13.807993,-10.269076,-1.2381950000000002,-1
1305,1306,1583552578192,7.049299700000001,-3.2417,-1.831,13.879245000000001,-10.321624,-0.5599845999999999,-1
1306,1307,1583552578202,6.8654,-3.4196,-1.0115,13.307307999999999,-10.357412,0.46748224,-1
1307,1308,1583552578212,6.1013,-3.5639,0.0872,12.605989,-10.308733,1.5311111000000002,-1
1308,1309,1583552578222,5.2844996,-3.61,1.1593,12.117897,-10.093667,2.0046077,-1
1309,1310,1583552578232,4.746,-3.5021,1.4369999,11.989702000000001,-9.718639,1.6089227,-1
1310,1311,1583552578243,4.5778,-3.2559,0.94449997,12.144962,-9.419259,0.6866762,-1
1311,1312,1583552578253,4.6417,-3.1455,-0.0729,12.365898,-9.444168,-0.23781127,-1
1312,1313,1583552578263,4.7346997,-3.4280998999999994,-0.9123,12.71074,-9.821619,-0.69120604,-1
1313,1314,1583552578273,5.0059,-3.8976998,-1.2671,12.963030999999999,-9.957197,-0.54679734,-1
1314,1315,1583552578283,5.0689,-4.127,-0.91609997,12.405316000000001,-9.934797999999999,0.6331706,-1
1315,1316,1583552578293,4.375499700000001,-4.2991,0.1743,11.3335285,-9.745875999999999,2.4327579,-1
1316,1317,1583552578303,3.1636,-4.3166,2.0516999,10.317917999999999,-9.406091,3.5100815,-1
1317,1318,1583552578313,1.7449,-4.0843,3.3226,9.180719,-8.740167,3.7176877999999998,-1
1318,1319,1583552578323,0.56909996,-3.5999,3.3167,8.70887,-8.039116,2.8325322,-1
1319,1320,1583552578333,0.122499995,-3.1169,2.3507,8.746162,-7.4249177,1.8316888999999998,-1
1320,1321,1583552578344,0.101799995,-2.7384999,1.4209,9.084214,-6.8131704,1.2052603000000002,-1
1321,1322,1583552578354,0.2976,-2.4285997999999998,1.0042,9.420082,-6.496446,1.5317911,-1
1322,1323,1583552578365,0.53929996,-2.3014997999999998,1.3880999,9.635512,-6.556493,2.018159,-1
1323,1324,1583552578375,0.67649996,-2.5407999,1.9626,9.489993,-7.089212,2.5296654999999997,-1
1324,1325,1583552578385,0.4321,-3.2821998999999997,2.5735,9.099729,-7.0030399999999995,2.5456494999999997,-1
1325,1326,1583552578395,-0.038399998,-3.4143,2.6941,8.748481,-6.5535717,2.2130947,-1
