,Seq,Time,ACCx,ACCy,ACCz,ADGx,ADGy,ADGz,Keydown
0,1,1583933711748,2.1711,-1.1847,-0.76119995,8.489897000000001,-7.8853029999999995,2.5934663,-1
1,2,1583933711758,2.1711,-1.1847,-0.76119995,10.322562,1.4169556,-1.8238645,-1
2,3,1583933711768,0.62799996,0.0814,-0.0742,10.283681,1.3138614,-0.77547234,-1
3,4,1583933711778,0.54899997,-0.0407,0.86609995,10.08659,1.1363456,-0.072285734,-1
4,5,1583933711789,0.1743,-0.2889,1.2056999,9.774826,0.9716437,0.18443015,-1
5,6,1583933711799,-0.1565,-0.46789998,1.4110999,9.440806,0.7528519,0.47693458,-1
6,7,1583933711809,-0.3251,-0.60859996,1.3438,9.35971,0.59288096,0.49724695,-1
7,8,1583933711819,-0.3469,-0.5008,0.7356,9.468838,0.59406847,0.35883337,-1
8,9,1583933711830,-0.1978,-0.3709,0.42729998,9.731136,0.8150054,0.09003156400000001,-1
9,10,1583933711840,0.0994,-0.049,0.072399996,10.106318,1.2202481,-0.16945203,-1
10,11,1583933711850,0.4516,0.38869998,-0.26999998,10.307566,1.5200883,-0.49262136,-1
11,12,1583933711860,0.48259997,0.5202,-0.51339996,10.169744999999999,1.4892796,-0.5058661,-1
12,13,1583933711871,0.24039999,0.3933,-0.3085,9.797830000000001,1.3525803,-0.08354806,-1
13,14,1583933711881,-0.097899996,0.21100000000000002,0.118099995,9.524919500000001,1.2007496000000002,0.41245392,-1
14,15,1583933711891,-0.30609998,0.017199999,0.64599997,9.4211645,1.1218176000000002,0.9882690000000001,-1
15,16,1583933711901,-0.32389998,-0.1325,1.0464,9.420743,1.1138784,1.3609505,-1
16,17,1583933711912,-0.3071,-0.1707,1.2149,9.395517,1.1085058,1.5271081,-1
17,18,1583933711922,-0.38099998,-0.18100000000000002,1.2728,9.216125,1.2187540000000001,1.6518363999999999,-1
18,19,1583933711932,-0.5527,-0.0853,1.2846,9.022339,1.2963357,1.6525642,-1
19,20,1583933711943,-0.80219996,-0.0033,1.2451,8.745636,1.4221365,1.7391193999999999,-1
20,21,1583933711953,-1.1099,0.10300000000000001,1.3596,8.293955,1.6722254,2.0229952,-1
21,22,1583933711963,-1.4954,0.3118,1.5905,7.8735332,1.9245550999999999,2.2629322999999997,-1
22,23,1583933711973,-1.8704,0.4953,1.7722,7.401502000000001,2.0514765,2.4183545,-1
23,24,1583933711983,-2.4215999,0.5566,1.9351,6.665132000000001,2.062375,2.7109356,-1
24,25,1583933711993,-3.1883,0.4868,2.2754,5.7435555,1.8502773000000001,3.1526177000000004,-1
25,26,1583933712003,-4.0731997,0.1724,2.718,5.232221,1.5465298,3.4350089999999995,-1
26,27,1583933712014,-4.4497,-0.1251,2.9561,5.3238330000000005,1.5746665000000002,3.4773959999999997,-1
27,28,1583933712025,-4.2692,-0.038399998,3.0110997999999998,5.7231765,2.0667036,3.5768032,-1
28,29,1583933712036,-3.9333,0.36159998,3.1365,5.693297,2.3578959999999998,3.6044227999999996,-1
29,30,1583933712046,-3.9606998,0.6468,3.1964998,5.1680474,2.4596496,3.6237199999999996,-1
30,31,1583933712056,-4.488,0.72349995,3.2561,4.3860145,2.5288994,3.9397832999999998,-1
31,32,1583933712066,-6.0824,0.74619997,3.9343,3.4304314,2.5108182,4.157407,-1
32,33,1583933712076,-6.0824,0.74619997,3.9343,2.998862,2.3863008,3.8252351000000004,-1
33,34,1583933712087,-6.9444,0.4131,3.2996,2.6372037,2.1885877000000002,3.2141583,-1
34,35,1583933712097,-7.3964996,0.19699999999999998,2.9043,2.1491599999999997,1.8944265,2.6963402999999997,-1
35,36,1583933712107,-8.0359,-0.3875,2.549,1.4785727,1.217576,2.2299404,-1
36,37,1583933712117,-8.6083,-1.1898999,2.2374,0.9700348,0.40149805,1.7903456999999998,-1
37,38,1583933712129,-8.889299000000001,-1.6858,1.8533,0.73174465,-0.22905806,1.2250652,-1
38,39,1583933712139,-8.8499,-1.923,1.5419999,1.0029694,-0.36983714,0.868511,-1
39,40,1583933712150,-8.3523,-1.7954999,1.2326,1.4992874,-0.36699283,0.32377267,-1
40,41,1583933712160,-8.0627,-1.8256999,0.59349996,1.6650715,-0.6654061,-0.39032194,-1
41,42,1583933712170,-8.1159,-2.1455998,0.035299998,1.4441155,-1.3736972,-0.9769013000000001,-1
42,43,1583933712180,-8.4122,-2.7273998,-0.21679999,1.1516589,-2.2500708,-1.1396304,-1
43,44,1583933712190,-8.6276,-3.4729997999999997,-0.345,1.1721437,-3.0749402000000003,-1.6242265,-1
44,45,1583933712201,-8.458799,-4.0374,-1.0088999,1.5912438999999998,-3.8389491999999996,-2.936977,-1
45,46,1583933712212,-8.0531,-4.4385,-2.1685,1.9600755,-4.178179,-3.7619421,-1
46,47,1583933712222,-7.2922997,-4.6969,-3.5103,3.2908970999999996,-4.56422,-5.554298999999999,-1
47,48,1583933712232,-6.2935996,-4.6003,-4.626,3.7760966000000002,-4.4922695,-6.0408387,-1
48,49,1583933712243,-5.89,-4.2223,-5.0463,3.8285394,-4.3775105000000005,-6.1518345000000005,-1
49,50,1583933712253,-5.9533,-4.0089999999999995,-5.0699997,3.7352898000000003,-4.7358365,-6.452326,-1
50,51,1583933712263,-5.9926,-4.1816998,-5.5098,4.0324965,-5.405734,-7.259947299999999,-1
51,52,1583933712273,-5.5551,-4.6863,-6.4698997,5.089134,-6.3240733,-8.584238000000001,-1
52,53,1583933712283,-4.3052998,-5.3374,-7.85,6.7786365,-7.07954,-9.385347,-1
53,54,1583933712293,-2.5095,-5.6601996,-8.512199,8.598583999999999,-7.379944999999999,-9.354652999999999,-1
54,55,1583933712304,-0.6893,-5.6361,-8.4909,9.953272,-7.581824,-9.178709,-1
55,56,1583933712314,0.5581,-5.6259,-8.3925,10.527008,-8.345249,-9.396983,-1
56,57,1583933712326,1.2774,-6.5077,-9.9531,10.80123,-9.261903,-10.69849,-1
57,58,1583933712336,1.2774,-6.5077,-9.9531,11.402452,-9.860107000000001,-11.742123,-1
58,59,1583933712345,1.8694998999999999,-6.8722997,-11.1869,12.062994,-10.228766,-12.175119,-1
59,60,1583933712355,2.7672,-7.0685,-11.9843,13.083652,-10.890582,-11.726628,-1
60,61,1583933712365,3.8827,-7.4614,-11.7078,13.785354000000002,-11.485139,-10.234838499999999,-1
61,62,1583933712375,4.6938,-7.7839,-10.3838,14.031851999999999,-12.196418,-8.56789,-1
62,63,1583933712386,5.3069,-8.7056,-8.613299000000001,14.267968,-13.000295,-8.116421,-1
63,64,1583933712396,5.3069,-8.7056,-8.613299000000001,15.26566,-13.216041,-8.659616999999999,-1
64,65,1583933712406,6.2770996,-8.7807,-9.2957,16.56868,-13.240901999999998,-8.992372999999999,-1
65,66,1583933712416,9.5246,-8.2123995,-10.2848,18.203049,-13.014775,-9.235977,-1
66,67,1583933712426,10.2037,-7.882000000000001,-10.3192,18.56916,-12.900179,-9.067551,-1
67,68,1583933712437,10.177899,-7.7177,-9.5907,18.372778,-12.924878,-8.146549,-1
68,69,1583933712447,9.9758,-7.7956,-8.4166,18.071991,-13.175972,-6.964235,-1
69,70,1583933712457,9.9758,-7.7956,-8.4166,17.886084,-13.387571,-6.126044,-1
70,71,1583933712467,10.0406,-7.9863,-6.7014,18.186567,-13.5303135,-5.5631094,-1
71,72,1583933712477,10.7169,-8.236899000000001,-6.812,18.930904,-13.867876999999998,-5.7986317000000005,-1
72,73,1583933712487,11.810699000000001,-8.357699,-6.0197,20.1216,-13.9608965,-4.4323378,-1
73,74,1583933712498,12.394299499999999,-8.1797,-3.9957998,20.362953,-13.69921,-2.3218392999999997,-1
74,75,1583933712508,12.0721,-7.7893,-1.3783,19.668272,-13.2962475,0.07777324,-1
75,76,1583933712518,10.877999,-7.441,0.91419995,18.410020000000003,-12.929302,1.8631965,-1
76,77,1583933712529,9.743899,-7.0959997,2.1548,17.567225,-12.474787,2.160001,-1
77,78,1583933712539,9.247499000000001,-6.7704997,1.7915,17.352273999999998,-12.241553,1.4157393999999999,-1
78,79,1583933712549,9.234,-6.8687,1.4042,17.531408,-12.357595,1.0990056000000001,-1
79,80,1583933712559,9.573299,-7.039,1.5961,17.944292,-12.406551,1.4459255,-1
80,81,1583933712570,9.7998,-7.1981997,2.1975,18.066673,-12.641271000000001,1.9865841,-1
81,82,1583933712580,9.644,-7.6977,2.8888,17.905987,-13.058417,2.7755117,-1
82,83,1583933712591,9.4865,-8.0233,3.6678,17.824305,-13.038266,3.6908343,-1
83,84,1583933712602,9.286699,-8.0046,4.7636,17.500706,-12.618735000000001,4.8943900000000005,-1
84,85,1583933712612,8.7991,-7.7651,5.7893996,16.56031,-11.9610195,5.6083407,-1
85,86,1583933712622,7.6133,-7.2970996,6.5649,15.001560000000001,-11.240471000000001,5.960796,-1
86,87,1583933712633,5.8704,-6.8329,6.9891,13.296926500000001,-10.479994999999999,6.237354799999999,-1
87,88,1583933712643,4.0673,-6.3325,7.3044996,11.836195,-9.751977,6.3063845999999995,-1
88,89,1583933712653,2.5821,-5.8903,7.4591,10.87342,-8.930572999999999,6.432750700000001,-1
89,90,1583933712663,1.6042999,-5.3114,7.6377997,10.43645,-7.931856,6.5302715,-1
90,91,1583933712673,1.1757,-4.5799,7.7594,10.20856,-7.025383000000001,6.562506699999999,-1
91,92,1583933712684,0.84459996,-4.0085998,7.7871,9.935514999999999,-6.472082599999999,6.451971,-1
92,93,1583933712694,0.4928,-3.8058,7.6685,9.706725,-6.3015485,6.0705366,-1
93,94,1583933712704,0.25779998,-3.9612,7.321099799999999,9.674854,-6.1959257,5.693086,-1
94,95,1583933712714,0.1387,-4.0546,6.8423,9.373021000000001,-5.6966195,4.9839139999999995,-1
95,96,1583933712724,-0.18969999,-3.8737,6.2290998,8.640511,-5.1147046,4.3910904,-1
96,97,1583933712735,-0.9729,-3.5584,5.6292,7.8073864,-4.54521,4.364228,-1
97,98,1583933712744,-1.8477999,-3.2452998,5.5822997,7.148588,-3.9741256000000003,4.766635400000001,-1
98,99,1583933712754,-2.7152998,-2.7812,6.0716,6.3612986,-3.336119,5.0423613,-1
99,100,1583933712764,-3.4873,-2.4819,6.2091,5.7725925,-3.1652877,4.879594,-1
100,101,1583933712774,-3.9694,-2.6167,6.007000000000001,5.175689,-2.817123,4.9604697,-1
101,102,1583933712784,-4.5751,-2.4887,6.0073,4.5917535,-2.4223478,4.975544,-1
102,103,1583933712795,-5.2956,-2.1754,5.8834995999999995,3.9590712,-1.6655408,4.5725136,-1
103,104,1583933712806,-5.817,-1.6952,5.4158,3.800441,-0.78364134,4.1794142999999995,-1
104,105,1583933712816,-6.0443,-0.17899999,3.9134998,3.7158010000000004,0.34804029999999997,3.0633907000000002,-1
105,106,1583933712826,-6.3687997,0.56619996,2.4664,3.3101752,1.1972923,1.6293021,-1
106,107,1583933712837,-6.3687997,0.56619996,2.4664,2.6561177000000002,1.9938241,0.61006176,-1
107,108,1583933712847,-7.5793,1.8298,0.9281,2.1312704,2.5520945,0.59736294,-1
108,109,1583933712858,-7.7897997000000005,1.8204999,1.5983,1.988691,2.4276536,1.630595,-1
109,110,1583933712868,-7.6956,1.2868,2.9478,2.2055674,1.8186643,3.1710339,-1
110,111,1583933712878,-7.3264,0.5392,4.4723,2.488179,1.2797008,4.1676445,-1
111,112,1583933712888,-7.2618,0.094299994,4.7051,2.3895953,1.0325426,3.9082565000000002,-1
112,113,1583933712899,-7.6892,0.2933,3.7677998999999995,1.8756464,1.4102423000000002,2.6972597,-1
113,114,1583933712909,-8.1086,0.7565,2.2905,1.4944799,1.9583803,1.0885477,-1
114,115,1583933712919,-8.4809,1.3032,0.5105,1.1725937,2.4591706,-0.73588187,-1
115,116,1583933712929,-8.59,1.6729,-1.2853,1.383839,2.7720833,-2.786305,-1
116,117,1583933712940,-8.102099,1.8471999,-2.8012,2.293176,2.730252,-3.789188,-1
117,118,1583933712950,-6.9481997,1.7675999,-3.3279998,3.6303473,2.5388113999999997,-3.6746016000000004,-1
118,119,1583933712960,-5.608,1.5345,-2.8221998,4.4029370000000005,2.2350545,-3.258298,-1
119,120,1583933712970,-4.5811,0.83489996,-2.2809,5.566174500000001,1.218687,-3.1334352,-1
120,121,1583933712980,-3.9850998,0.33519998,-2.7665,6.061841,0.83018464,-3.9180155,-1
121,122,1583933712991,-3.5563998,0.1325,-3.6172998,6.4270716,0.7002465,-4.9030952,-1
122,123,1583933713002,-3.214,0.106599994,-4.5599,6.6473765,0.73892725,-5.55947,-1
123,124,1583933713011,-3.1162999,0.15529999,-4.9038997,6.661664999999999,0.70540845,-5.524859999999999,-1
124,125,1583933713021,-3.1153,0.105799995,-4.6493998,6.7204,0.5730761,-5.168938,-1
125,126,1583933713031,-2.9659,-0.0477,-4.1486998,6.977460400000001,0.39275444,-4.5086074,-1
126,127,1583933713041,-2.6489999999999996,-0.2214,-3.4048,7.344778999999999,0.20769222,-3.8204756,-1
127,128,1583933713051,-2.2431997999999997,-0.4032,-2.7156,7.801467999999999,0.013627796000000001,-3.3413480000000004,-1
128,129,1583933713062,-1.7786,-0.5414,-2.2726998,8.387272,-0.24207295,-3.0639076000000003,-1
129,130,1583933713072,-1.2549,-0.7409,-2.0765,9.051356,-0.48889598,-3.1694345,-1
130,131,1583933713082,-0.5575,-0.9384,-2.2033,9.7580385,-0.4658446,-3.2972848,-1
131,132,1583933713092,0.23629999,-0.7808,-2.3151,10.279975,-0.34392226,-3.4196574999999996,-1
132,133,1583933713102,0.64739996,-0.68219995,-2.5212,10.3724575,-0.28150067,-3.7732620000000003,-1
133,134,1583933713112,0.5658,-0.6256,-2.8264,10.061862,-0.29439107,-4.1143208,-1
134,135,1583933713123,0.21669999,-0.6048,-3.2287998,9.847303,-0.22206700000000001,-4.315491000000001,-1
135,136,1583933713133,0.0887,-0.48189998,-3.3693,10.041263,0.013752295,-4.0923133,-1
136,137,1583933713143,0.3419,-0.2444,-3.0609999,10.352078,0.16375381,-3.5181262,-1
137,138,1583933713153,0.6354,-0.11639999599999999,-2.4761,10.512317999999999,0.18187314,-2.820245,-1
138,139,1583933713163,0.73399997,-0.09999999400000001,-1.7134,10.342865,0.19877620000000001,-2.064664,d
139,140,1583933713174,0.51949996,-0.0778,-1.0134,10.007408999999999,0.16949032,-1.6288329,-1
140,141,1583933713184,0.23619999,-0.115899995,-0.67789996,9.864954,0.0817572,-1.5974976,-1
141,142,1583933713194,0.079399996,-0.21149999,-0.6369,9.8522835,0.22358012,-1.6511851999999998,-1
142,143,1583933713205,0.0783,-0.049599998,-0.6964,9.875728,0.4549079000000001,-1.821748,-1
143,144,1583933713215,0.1056,0.1839,-0.89229995,9.851719000000001,0.6357564,-1.9796216,-1
144,145,1583933713225,0.074099995,0.37989998,-1.069,9.664128,0.6168421,-2.132276,-1
145,146,1583933713236,-0.1041,0.37109998,-1.2322,9.510964999999999,0.47429135,-2.1285794,-1
146,147,1583933713246,-0.22309999,0.103099994,-1.0055,9.583855999999999,0.3021291,-1.8176013,-1
147,148,1583933713256,-0.017099998999999998,0.0202,-0.5888,9.793971,0.21859062,-1.3957238,-1
148,149,1583933713266,0.15959999,0.074099995,-0.259,9.93792,0.28655723,-1.1508927,-1
149,150,1583933713276,0.0517,0.16579999,-0.3549,9.808183,0.32574552,-1.2742228999999998,-1
150,151,1583933713286,-0.1051,0.14829999,-0.3041,9.627238,0.28832892,-1.1622413,-1
151,152,1583933713297,-0.28149998,0.0324,-0.153,9.478951,0.15252979999999997,-1.0619530000000001,-1
152,153,1583933713307,-0.30089998,-0.1311,-0.17809999,9.507893,9.576806999999999e-05,-1.0897353,-1
153,154,1583933713318,-0.114199996,-0.1166,-0.2217,9.698758,0.0075944075,-1.1354933,-1
154,155,1583933713328,0.141,-0.0915,-0.27449998,10.018460000000001,0.031383193999999996,-1.282162,-1
155,156,1583933713338,0.3376,-0.0865,-0.5331,10.142327,-0.037167586,-1.5346258999999998,-1
156,157,1583933713349,0.3773,-0.1723,-0.5859,10.1271,-0.121855296,-1.4259865,-1
157,158,1583933713359,0.2995,-0.1926,-0.3132,9.99584,-0.16271953,-1.1491976000000002,-1
158,159,1583933713369,0.114,-0.22479999,-0.0691,9.811831,-0.18424818,-0.9723811,-1
159,160,1583933713379,-0.0126,-0.2386,0.0179,9.793013,-0.17959386,-0.93503153,-1
160,161,1583933713389,0.105799995,-0.1435,0.0365,9.934692,-0.08383536,-0.88921607,-1
161,162,1583933713400,0.1653,-0.0862,0.20009999,9.940773,-0.069326505,-0.6037794,-1
162,163,1583933713410,0.1364,-0.1171,0.6662,9.799199,-0.14928326,-0.05291186,-1
163,164,1583933713420,-0.0301,-0.1766,0.98179996,9.688778999999998,-0.17221014,-0.107988074,-1
164,165,1583933713430,-0.0695,-0.1934,0.6764,9.724558,-0.19929335,-0.6608859,-1
165,166,1583933713440,-0.0111,-0.1858,0.08339999599999999,9.840714,-0.17492038,-1.1696153999999999,-1
166,167,1583933713451,0.1551,-0.1261,-0.31379998,10.019456,-0.1430296,-1.3702017,-1
167,168,1583933713462,0.3707,-0.0749,-0.43359998,10.21082,-0.19079871,-1.4232284,-1
168,169,1583933713472,0.43969998,-0.113699995,-0.4412,10.203082,-0.26771963,-1.3190327,-1
169,170,1583933713482,0.45029998,-0.16579999,-0.3173,10.203255,-0.26779625,-1.1740495000000002,-1
170,171,1583933713492,0.43179998,-0.15339999,-0.1112,10.131879,-0.25015578,-0.9353093000000001,-1
171,172,1583933713502,0.3545,-0.1442,0.115499996,10.041272,-0.3583737,-0.7066439,-1
172,173,1583933713512,0.2575,-0.2652,0.34059998,9.965941,-0.38785112,-0.47829446,-1
173,174,1583933713522,0.18949999,-0.2306,0.5822,9.83358,-0.27953740000000005,-0.45787669999999997,-1
174,175,1583933713533,0.0328,-0.115899995,0.5045,9.675238,-0.22621375,-0.664209,-1
175,176,1583933713543,-0.13419999,-0.067099996,0.2349,9.544888,-0.19393991,-0.94944465,-1
176,177,1583933713553,-0.20349999,-0.013499998999999999,0.0198,9.700481,-0.12609781,-0.96821517,-1
177,178,1583933713565,-0.018099999,0.0647,0.0376,9.941358000000001,-0.1191259,-0.9436985000000001,-1
178,179,1583933713575,0.2262,0.07719999599999999,-0.11199999599999999,10.232895,-0.25284684,-1.1529709,-1
179,180,1583933713585,0.461,-0.028299998,-0.19029999,10.352988,-0.31489497,-0.51079816,-1
180,181,1583933713595,0.5588,-0.1444,-0.3093,10.327092,-0.39954436,-1.2736483,-1
181,182,1583933713605,0.5588,-0.1444,-0.3093,10.26876,-0.42775765,-1.6802603999999999,-1
182,183,1583933713616,0.5002,-0.1576,-0.7202,10.12166,-0.41209957,-1.7664325,-1
183,184,1583933713626,0.0495,-0.099599995,0.6767,9.761917,-0.36308548,-0.9927318000000002,-1
184,185,1583933713636,-0.3231,-0.0332,-0.23529999,9.390528999999999,-0.25313416,0.9102946,-1
185,186,1583933713646,-0.6274,0.0667,1.4181,9.068814,-0.18799272,0.08938991,-1
186,187,1583933713657,-0.68659997,0.126,2.0793,9.118528,-0.17100346,-0.86123264,-1
187,188,1583933713667,-0.33359998,0.0391,-0.2418,9.596602,-0.26061365,0.42537302,-1
188,189,1583933713677,0.3527,0.038399998,-0.2615,10.25403,-0.28202736,-0.316456,-1
189,190,1583933713687,1.0684,0.060399997999999996,0.7941,10.911546000000001,-0.31925243,-2.623049,-1
190,191,1583933713697,1.5094999,0.0189,-1.0433999,11.357298,-0.37405095,-1.4583082,-1
191,192,1583933713707,1.6363,0.0063,-1.6563,11.406302,-0.34687194,-0.3230257,d
192,193,1583933713718,1.5962,0.0309,0.53819996,11.273137,-0.36428255,-2.1660726,-1
193,194,1583933713729,1.3598,0.0938,0.3726,11.063165,-0.25521234,0.25176468,-1
194,195,1583933713739,1.1822,0.1309,-1.0074999,10.9423065,-0.23339637,-1.6783834,-1
195,196,1583933713749,1.2495999,0.0799,0.60179996,11.018661999999999,-0.31161013,-0.47188756,-1
196,197,1583933713759,1.4444,-0.1235,0.9231,11.368235,-0.6082996,-0.11932701,-1
197,198,1583933713769,1.9138,-0.4095,0.0053999997,12.068337,-0.947807,-1.0849563999999998,-1
198,199,1583933713780,2.5595,-0.7115,-0.3766,12.568151,-1.1882806000000001,-1.2401966,-1
199,200,1583933713790,3.1657999,-0.99469995,-0.50589997,13.284170999999999,-1.5285541,-1.2337129999999998,-1
200,201,1583933713800,3.7131,-1.2456,-0.2826,13.63292,-1.6836218999999997,-0.78315294,-1
201,202,1583933713811,3.8284,-1.3902999,0.067099996,13.4796715,-1.8250137999999998,-0.6656072,-1
202,203,1583933713821,3.6097,-1.5777,0.0109,13.297185999999998,-1.9384702,-0.6901718000000001,-1
203,204,1583933713831,3.4691,-1.7169999999999999,0.0307,13.224622,-1.9654384999999999,-0.65161556,-1
204,205,1583933713842,3.3486,-1.7662,0.0063,13.028939,-2.0971003,-0.7246099,-1
205,206,1583933713852,3.2189,-1.9801999,-0.0883,12.959976,-2.2769241,-0.6541342,-1
206,207,1583933713862,3.1588,-2.2405,0.0324,12.965368,-2.402658,-0.47193545,-1
207,208,1583933713872,3.1778998,-2.3876,0.2271,13.090442,-2.4327676,-0.061789557,-1
208,209,1583933713882,3.3349,-2.4508,0.6674,13.262288,-2.3161794999999996,0.5082028000000001,-1
209,210,1583933713893,3.4726998999999994,-2.4304,1.2049,13.059987,-2.3197900000000002,0.68872565,-1
210,211,1583933713903,3.1798,-2.516,1.2412,12.4374,-2.3069665,0.15171577,-1
211,212,1583933713913,2.5054998,-2.5916,0.63989997,11.957783000000001,-2.2298446,-0.39579985,-1
212,213,1583933713923,2.1167,-2.5964,0.18439999,11.904258,-1.9767966000000001,-0.51087475,-1
213,214,1583933713933,2.1313,-2.4301,0.1206,11.897142,-1.7375776,-0.40883390000000003,-1
214,215,1583933713944,2.0788999,-2.3193,0.282,11.339964,-1.5482632,0.16981593,-1
215,216,1583933713954,1.5777,-2.2963,0.7611,10.338776,-1.5092952,0.57284623,-1
216,217,1583933713964,0.5789,-2.3908,1.1636,9.214152,-1.384586,0.7758458,-1
217,218,1583933713974,-0.5252,-2.4013999,1.3816998999999999,8.475521,-1.0651325,0.6854408000000001,-1
218,219,1583933713984,-1.2452999,-2.2231,1.2857,8.172358500000001,-0.6830849,0.49200845,-1
219,220,1583933713994,-1.5327,-1.9695,1.0929999,8.173803999999999,-0.32383972,0.18725531,-1
220,221,1583933714004,-1.5148,-1.7305,0.7992,8.125873,-0.06909666,0.18874928,-1
221,222,1583933714014,-1.5926,-1.5404999,0.8289,7.714482,0.18426733,0.3572532,-1
222,223,1583933714024,-2.0496,-1.444,1.0753,6.987286,0.53955734,0.7028419,-1
223,224,1583933714034,-2.6402,-1.2754999,1.4073,6.33228,0.85726786,0.78794134,-1
224,225,1583933714045,-3.4434998,-0.99359995,1.4958,5.4828660000000005,1.2894691,0.48952806,-1
225,226,1583933714055,-4.5190997,-0.5952,1.031,4.1940669999999995,2.1784267,-0.24858518,-1
226,227,1583933714065,-5.3384,-0.056399997,0.5823,3.7818330000000002,2.812076,-0.5618042,-1
227,228,1583933714075,-5.7163997,0.4524,0.3024,3.5669677,3.378343,-0.37950972,-1
228,229,1583933714086,-6.4255,1.3159,0.3366,2.8500384999999997,4.0147314,-0.96674037,-1
229,230,1583933714096,-6.4255,1.3159,0.3366,2.211687,4.3721285000000005,-1.7242273999999997,-1
230,231,1583933714106,-7.7198997,1.9775,-0.1514,1.5657026,4.8228703,-1.6831334,-1
231,232,1583933714116,-7.8918996,2.2512999,-0.022000000000000002,1.4220026000000001,5.155472799999999,-2.5609915,-1
232,233,1583933714127,-7.9402,2.5286,-1.8470999,1.4193211000000001,5.494549299999999,-1.3777768999999997,-1
233,234,1583933714137,-8.0395,2.9019999999999997,-1.4264,1.1484315,5.945684,-1.9181482,-1
234,235,1583933714147,-8.746699000000001,3.2682998,-0.4613,0.30645782,6.3083673,-3.8454803999999996,-1
235,236,1583933714157,-9.767799,3.5098,-2.1894,-0.69792897,6.5797740000000005,-2.736036,-1
236,237,1583933714167,-10.6734,3.6618,-2.641,-1.613577,6.7731770000000004,-1.8609651000000003,-1
237,238,1583933714177,-11.5945,3.6143,-0.5466,-2.6174946,6.6349936000000005,-3.7111275000000004,-1
238,239,1583933714187,-12.4465,3.2661,-1.1927,-3.2692058,6.232241,-3.1958189999999997,-1
239,240,1583933714198,-12.2817,2.8502998,-1.3601999,-2.8676789,5.874499299999999,0.25823858,-1
240,241,1583933714208,-11.4835,3.0953,0.026999999,-1.8209914,6.2872505,-1.2750082,-1
241,242,1583933714218,-10.567599000000001,3.7712,1.5983,-1.0984597,6.862079,-0.8915337,-1
242,243,1583933714228,-10.549000000000001,4.2589999999999995,-0.9562,-1.3519003,7.013555,-4.025563,-1
243,244,1583933714238,-11.6105995,4.1382,-4.7718997000000005,-2.7546823,6.443084,-5.9669924000000005,-1
244,245,1583933714248,-12.701699000000001,3.2308,-3.4305,-3.416382,5.183198,-4.505246,-1
245,246,1583933714258,-12.7841,1.995,-0.6188,-3.1445637000000004,3.8702843000000002,-0.84897435,-1
246,247,1583933714268,-12.300699,0.9568,0.1157,-2.6412547,2.8654094,-0.15427278,-1
247,248,1583933714278,-11.7104,-0.1698,0.8057,-1.9513893,1.486445,-0.24963863,-1
248,249,1583933714288,-11.355,-0.6224,-0.17009999,-1.6361113,1.1041292,-1.4256897,-1
249,250,1583933714298,-11.1651,-0.498,-0.85459995,-1.50715,1.0642705,-1.3714561,-1
250,251,1583933714309,-11.216599,-0.3743,-0.1907,-1.5271271,0.81694955,-0.32831209999999994,-1
251,252,1583933714319,-11.1746,-0.59999996,1.058,-1.3679991000000002,0.17721881,1.1497532,-1
252,253,1583933714329,-10.9297,-1.2186999,2.5096,-0.9731376,-1.0917082,2.258575,-1
253,254,1583933714339,-10.1073,-2.6676,2.7496,0.31684867,-2.9764907000000003,1.9461220000000001,-1
254,255,1583933714349,-8.3911,-4.0842,1.6682,2.1054513,-4.614441,0.43214384,-1
255,256,1583933714360,-6.6903,-5.1113,-0.46179998,4.1784754,-6.1589975,-2.3726826,-1
256,257,1583933714370,-4.8269997,-5.8851,-2.4043999,5.752893,-6.9561906,-2.9743264,-1
257,258,1583933714381,-2.8585,-6.1956,-1.8761,7.715553999999999,-7.6808095000000005,-1.300492,-1
258,259,1583933714391,-1.6538999,-6.3322997,-0.34329998,8.097526,-8.531575,0.33871248,-1
259,260,1583933714401,-1.8018999,-7.0351,1.4356999,7.064101700000001,-9.735753,2.3527436,-1
260,261,1583933714411,-3.0484998,-7.8721,2.9020998,5.7719892999999995,-11.039664,2.9847553,-1
261,262,1583933714422,-3.7668,-8.7611,3.0349998,6.1551766,-12.058732000000001,3.2731323,-1
262,263,1583933714432,-2.452,-9.1334,3.1936998,8.159794,-12.567145,3.2964232000000004,-1
263,264,1583933714442,-0.032199997,-9.2493,2.859,10.597484,-13.292195999999999,3.0950515,-1
264,265,1583933714452,2.5576,-9.6102,2.7164,12.874293,-13.961642999999999,3.6759136,-1
265,266,1583933714462,4.2609997,-9.6325,3.2610997999999998,13.0248785,-14.2207155,3.989736,-1
266,267,1583933714472,4.1619,-9.6264,3.3941,11.766983999999999,-15.040614000000001,4.391847,-1
267,268,1583933714482,3.1912,-10.0369,3.7947,10.861133,-15.339611999999999,4.7402225,-1
268,269,1583933714493,2.5602999,-9.9501,3.9884998999999994,10.435300999999999,-15.561334,4.6521063,-1
269,270,1583933714503,2.5158,-9.998199000000001,3.5291997999999998,11.129542,-16.009346,3.6677256000000003,-1
270,271,1583933714513,3.705,-10.0309,2.5937,12.559225999999999,-16.116512,3.1604900000000002,-1
271,272,1583933714524,5.3629999999999995,-9.8003,2.0733,13.592066,-15.888631,2.9201502999999995,-1
272,273,1583933714534,6.4937,-9.2431,1.8215,13.947748,-15.401717999999999,2.952587,-1
273,274,1583933714544,6.9347997,-8.4818,1.9260999,13.440838000000001,-14.993392000000002,4.1333404,-1
274,275,1583933714555,6.6849,-7.9679,2.9466999,12.816736,-15.325515,5.484608000000001,-1
275,276,1583933714565,6.2830997,-8.1027,4.2293997,12.713039,-16.139429999999997,5.057885,-1
276,277,1583933714576,6.3996997,-8.7366,3.7119999999999997,13.264154999999999,-16.802277,3.9087737000000002,-1
277,278,1583933714588,9.2246,-9.0161,0.87079996,15.540467000000001,-16.500282000000002,2.152301,-1
278,279,1583933714598,10.5167,-8.029699,0.0775,16.32499,-15.539615,1.9036394,-1
279,280,1583933714609,10.592899000000001,-7.2064,0.80619997,15.943928,-15.039187,2.8175445,-1
280,281,1583933714619,9.3328,-6.6429996,1.9928,13.972187,-14.466772,4.0884730000000005,-1
281,282,1583933714629,7.580899700000001,-6.1289,2.6139,12.363667,-13.979733999999999,4.4955354000000005,-1
282,283,1583933714640,6.56,-5.4887,2.7804,11.591997000000001,-13.293834,4.522101,-1
283,284,1583933714650,6.2123,-4.686899700000001,2.4071,11.336555,-12.537764,3.8304352999999995,-1
284,285,1583933714660,6.2363,-3.9868998999999996,1.2684,11.415341999999999,-11.695273,2.455905,-1
285,286,1583933714670,6.3746,-3.1722999,0.3141,11.281162,-11.021641,2.0090897,-1
286,287,1583933714680,6.0537,-2.6364,0.063099995,10.717203,-10.686472,1.7529386999999998,-1
287,288,1583933714690,5.536299700000001,-2.3413,-0.3394,10.339408,-10.461205999999999,1.3927263,-1
288,289,1583933714701,5.1563,-2.0414,-0.72779995,9.818736,-10.189300999999999,1.2287427,-1
289,290,1583933714711,4.696000000000001,-1.8447,-0.56839997,9.274218,-9.950072,1.5413008999999998,-1
290,291,1583933714721,4.0544,-1.527,-0.2619,8.421059,-9.566474000000001,1.8563491,-1
291,292,1583933714731,3.0951998,-1.1568999,-0.017099998999999998,7.486372,-9.280194,1.8086661,-1
292,293,1583933714741,2.2738,-0.9088,-0.2181,6.9286,-8.968489,1.5258439,-1
293,294,1583933714751,1.8823999,-0.58239996,-0.3761,6.868208,-8.685042999999999,1.6218226,-1
294,295,1583933714762,1.9544,-0.3223,-0.14819999,7.023123,-8.426651,1.6369253000000001,-1
295,296,1583933714772,2.0194,-0.1495,-0.27539998,6.9632005999999995,-8.422725,1.4267048999999998,-1
296,297,1583933714782,1.9290999,-0.2225,-0.40969998,6.994708,-8.677535,1.441319,d
297,298,1583933714792,1.9856999,-0.5126,-0.4222,7.1411757,-8.921724000000001,1.2876973999999999,-1
298,299,1583933714803,2.149,-0.6679999999999999,-0.5018,7.1354203,-8.781051,1.7275889,-1
299,300,1583933714813,2.0228999,-0.5527,0.0034999999,6.68305,-8.951901,2.0604405,-1
300,301,1583933714823,1.5069,-0.8056,0.20179999,6.320233,-9.118863000000001,1.5960226999999998,-1
301,302,1583933714833,1.2118,-0.9447,-0.41779998,6.67582,-9.208347999999999,0.84906054,-1
302,303,1583933714843,1.7003,-1.0544,-1.0835,7.4605527,-9.184292,0.9515610999999999,-1
303,304,1583933714854,2.4092,-1.036,-0.701,7.8283787,-9.371327,2.6802992999999997,-1
304,305,1583933714864,2.5771,-1.3916998999999999,1.4441,7.240583,-10.616062,6.2671676,-1
305,306,1583933714874,1.9696,-2.5269,4.5032997,6.981472999999999,-12.158149,8.390479,-1
306,307,1583933714884,1.6401,-4.0979,6.6531,8.069973,-13.255181,7.936788000000001,-1
307,308,1583933714896,2.7048,-5.2276998,6.1507998,9.381095,-13.394264999999999,6.314774,-1
308,309,1583933714906,5.0674996,-5.3086,3.0507998,13.245059,-12.715988000000001,1.7785662,-1
309,310,1583933714916,9.7247,-4.3269997,-1.1496,15.352895000000002,-12.213159,1.1096358,-1
310,311,1583933714926,9.8699,-4.5608,0.30859998,15.183597,-12.518879,2.914749,-1
311,312,1583933714936,8.4372,-5.2874,2.2587,13.764207999999998,-13.141754,4.70566,-1
312,313,1583933714946,7.054199700000001,-5.7795997,3.2043,12.548366,-13.481941,5.4194192999999995,-1
313,314,1583933714958,7.054199700000001,-5.7795997,3.2043,12.275963,-13.441211,5.08335,-1
314,315,1583933714968,6.6203,-5.495,1.6752,13.069975999999999,-12.615671,3.4184410000000005,-1
315,316,1583933714978,7.2516,-5.0741,1.0368998999999999,13.794193,-12.227725,3.1746060000000003,-1
316,317,1583933714988,7.5783997,-5.0364,1.1811,14.054557999999998,-12.117266,3.3336193999999995,-1
317,318,1583933714998,7.3027,-5.0238,1.2949,13.817043,-11.890813,3.3045058,-1
318,319,1583933715008,6.7496,-4.9708,1.0976,13.499668,-11.652331,3.07631,-1
319,320,1583933715019,6.0599,-4.7107997,0.97789997,12.852591499999999,-11.098044,2.8843713,-1
320,321,1583933715029,5.2774,-4.575,0.9162,12.344111,-10.833524,2.8656964,-1
321,322,1583933715039,4.6412,-4.6197,1.2082,12.036551,-10.697877,3.133627,-1
322,323,1583933715049,4.0657997,-4.6761,1.8065,11.590579,-10.399446000000001,3.7427025,-1
323,324,1583933715059,3.4452998999999997,-4.4799,2.3341,11.120406,-9.842295,4.0796623,-1
324,325,1583933715069,2.6159,-4.0603,2.616,10.222992,-8.977308,4.1808124,-1
325,326,1583933715079,1.6193,-3.6704998,2.6866,9.594782,-8.499167,4.137468,-1
326,327,1583933715089,0.6732,-3.2680000000000002,2.8304,9.00738,-7.8856387,4.2442207000000005,-1
327,328,1583933715099,-0.093399994,-2.8681,2.9050999,8.369938000000001,-7.208232400000001,4.0950809999999995,-1
328,329,1583933715109,-0.5342,-2.8609998,2.7821999,8.223633,-6.9774027,4.033962,-1
329,330,1583933715119,-0.8170000000000001,-2.8927999,3.1968,7.990744,-6.696295,4.500046,-1
330,331,1583933715129,-1.3347,-2.8873,3.8822,7.5158777,-6.408732,5.0279574,-1
331,332,1583933715140,-2.0370998,-2.8058,4.4442,6.812557000000001,-5.760372599999999,5.70046,-1
332,333,1583933715150,-2.7352998,-2.5061998,5.3238,6.3543453,-5.4086647,6.299767,-1
333,334,1583933715160,-3.3690998999999997,-2.4132,5.7468,5.7388725,-4.9562945,5.8857713,-1
334,335,1583933715170,-3.9491,-2.2889,4.7748,5.305723,-4.612659,4.538717,-1
335,336,1583933715180,-4.5448,-2.0614998,2.8752,4.8062544,-4.1440470000000005,2.5437531000000004,-1
336,337,1583933715191,-5.0408,-1.8470999,1.188,4.475088599999999,-3.5593063999999996,1.3262728000000001,-1
337,338,1583933715201,-5.1640997,-1.5155,1.1594,4.591428,-2.9919095,1.6679733,-1
338,339,1583933715211,-4.8283,-1.1947,1.4476,5.4385347,-2.5369728,1.8113762999999998,-1
339,340,1583933715221,-3.9368,-0.97679996,1.5425999,6.0659304,-2.0672305,1.9326187,-1
340,341,1583933715231,-3.7275,-0.5412,2.1657,5.6274752999999995,-1.3303142,2.9379249,-1
341,342,1583933715242,-4.5546,-0.056599997,3.3286998,4.323861,-0.85861814,3.6758752,-1
342,343,1583933715252,-6.1917,0.154,3.7361998999999995,2.7749467,-0.46078804,3.6243712999999995,-1
343,344,1583933715262,-8.167399000000001,0.63229996,3.5813,0.40557775,0.6120825,3.0632854,-1
344,345,1583933715272,-9.628099,1.2277,3.0658998,-0.18374062,1.1126909,2.5082326,-1
345,346,1583933715282,-10.3096,1.7899,1.8865,-0.5215529000000001,1.4558566000000002,0.6519411,-1
346,347,1583933715292,-10.2134,1.5406,0.6896,0.2982026,0.7814866,-0.14489707,-1
347,348,1583933715303,-9.2522,0.75879997,0.0122,1.7608875,0.15196477,-0.5730761,-1
348,349,1583933715313,-7.7602,0.1855,-0.2625,2.7592695,0.012334928,-0.9107543,-1
349,350,1583933715323,-6.9244,0.066599995,-0.6374,3.0437868,0.20547996,-1.7028041,-1
350,351,1583933715333,-6.7841997,0.26999998,-1.3539,2.664124,0.52364063,-2.2603755000000003,-1
351,352,1583933715343,-7.2509,0.5186,-1.703,2.1459994,0.81630784,-2.0172968,-1
352,353,1583933715353,-7.7356,0.7118,-1.2978,1.7074776999999999,1.1160043,-1.6483023999999997,-1
353,354,1583933715363,-8.1791,0.95809996,-0.8321,1.2116385,1.2924476,-1.1733791999999998,-1
354,355,1583933715373,-8.6504,1.0313,-0.26139998,0.9187796999999999,1.0989673,-1.0564176,-1
355,356,1583933715383,-8.8368,0.7069,-0.18169999,1.4929858,0.5743307,-1.5139495,-1
356,357,1583933715394,-8.0037,0.19829999,-0.6076,3.1520815,0.20457974,-2.1252275000000003,-1
357,358,1583933715404,-6.2300997,-0.104499996,-1.1401,4.892685,-0.012258313,-2.7389952999999996,-1
358,359,1583933715414,-4.5657,-0.20529999,-1.6784999,6.073917400000001,-0.009481039,-3.5789773,-1
359,360,1583933715424,-3.5102,-0.1598,-2.5630999,6.586017999999999,0.016002843,-4.713139,-1
360,361,1583933715435,-3.1016998,-0.1255,-3.6079998,6.7797856,0.0024612392,-5.3508015,-1
361,362,1583933715445,-2.9169998,-0.1077,-3.9875998,6.8000115999999995,-0.003428497,-5.010326999999999,-1
362,363,1583933715455,-2.9053,-0.1059,-3.5718,6.6168556,-0.29450595,-4.291549,-1
363,364,1583933715466,-3.0860999,-0.3998,-2.7561998,6.7281857,-0.69295853,-3.346682,-1
364,365,1583933715476,-2.4104,-0.90419996,-0.8854,7.3761716,-0.7353550999999999,-2.5794556,-1
365,366,1583933715487,-2.4104,-0.90419996,-0.8854,7.829594999999999,-0.54883724,-2.5270224,-1
366,367,1583933715497,-1.6467999,-0.4852,-0.7277,7.951038400000001,-0.34289756,-2.7506697,-1
367,368,1583933715507,-1.6911999,-0.49699998,-1.1082,7.920517,-0.38074509999999995,-3.2515557,-1
368,369,1583933715518,-1.5331999,-0.57839996,-1.3994,8.109956,-0.5246367,-3.4980721,-1
369,370,1583933715528,-1.1127,-0.8563,-1.4664999,8.596468,-0.8408532,-3.6246967000000003,-1
370,371,1583933715538,-0.3886,-1.0891,-1.6836,9.353093,-1.0751976,-3.9076915,-1
371,372,1583933715548,0.3452,-1.0855,-1.9505999,10.172895,-1.0250822,-4.2509146,-1
372,373,1583933715558,0.83419997,-0.98929995,-2.0609999,10.456781,-1.0398401,-4.2309660000000004,-1
373,374,1583933715568,0.98929995,-1.0988,-1.8015,10.556763,-1.1206875,-4.0078073,-1
374,375,1583933715578,1.0264,-0.97419995,-1.5142,10.486699,-0.93505067,-3.7930763,-1
375,376,1583933715589,0.7694,-0.82979995,-1.4625,10.1586075,-0.81714106,-3.7735972,-1
376,377,1583933715599,0.3949,-0.7140000000000001,-1.3515999,9.777125,-0.60956377,-3.6318029999999997,-1
377,378,1583933715609,0.020299999,-0.37759998,-1.0354999,9.429217999999999,-0.25003126,-3.2729504,-1
378,379,1583933715619,-0.22739999,-0.1388,-0.72279996,9.201827,-0.07635588,-3.1262814999999997,-1
379,380,1583933715629,-0.3787,-0.0313,-0.6813,9.1052065,0.041812338,-3.1512387000000004,-1
380,381,1583933715640,-0.4041,0.0064,-0.6559,9.1609535,0.05572744,-3.0423408,-1
381,382,1583933715650,-0.1551,-0.0645,-0.4055,9.500383,-0.15897499,-2.6987634,-1
382,383,1583933715660,0.2511,-0.3243,0.1105,9.949152999999999,-0.39723635,-2.1173267000000005,-1
383,384,1583933715671,0.53029996,-0.39499998,0.4517,10.021611,-0.34472674,-2.141671,-1
384,385,1583933715681,0.4858,-0.2898,0.26299998,9.906460000000001,-0.26565102,-2.4450164,-1
385,386,1583933715691,0.40179998,-0.2059,0.0532,9.825459,-0.19521362,-2.596282,-1
386,387,1583933715701,0.2886,-0.085,-0.156,9.718793,-0.05941451,-2.9182637000000002,-1
387,388,1583933715711,0.19479999,0.0632,-0.45409998,9.569308,0.05001966,-3.1933384,-1
388,389,1583933715722,0.0326,0.101799995,-0.6828,9.406473,-0.005430049300000001,-3.2586236,-1
389,390,1583933715732,-0.0605,0.0802,-0.6162,9.349234,0.017736247,-2.9474251000000002,-1
390,391,1583933715742,-0.1335,0.0879,-0.2341,9.2519045,-0.057815183,-2.6155887000000004,-1
391,392,1583933715753,-0.2056,0.026999999,0.0924,9.286075,-0.10318052,-2.3642647,-1
392,393,1583933715763,-0.1286,0.0067999995999999995,0.3473,9.477122,-0.14291468,-2.3080583,d
393,394,1583933715773,0.0775,-0.011899999,0.3331,9.729107,-0.14420755,-2.7899537,-1
394,395,1583933715783,0.3732,-0.0104,-0.1184,9.987298,-0.22222023,-3.084402,-1
395,396,1583933715794,0.6012,-0.0699,-0.3716,10.003128,-0.13500424,-3.6632915,-1
396,397,1583933715804,0.5647,0.023,-0.977,9.799438,-0.19004215,-4.3223195,-1
397,398,1583933715814,0.38059998,-0.055299997000000004,-1.5353999,9.676950999999999,-0.24301147,-4.516805000000001,-1
398,399,1583933715824,0.2936,-0.0887,-1.6072999,9.731109,-0.2780243,-4.6610317000000006,-1
399,400,1583933715835,0.37199998,-0.14389999,-1.7129999,9.788588,-0.32262346,-4.560590299999999,-1
400,401,1583933715845,0.44959998,-0.2209,-1.5666,9.940955,-0.3775752,-4.601693599999999,-1
401,402,1583933715856,0.5958,-0.2606,-1.5970999,10.273452,-0.49224785,-4.9417089999999995,-1
402,403,1583933715866,0.92819995,-0.3804,-1.9124999,10.745072,-0.5326524,-5.541571,-1
403,404,1583933715876,1.6692,-0.542,-3.2673,10.988964999999999,-0.61070335,-6.4823203000000005,-1
404,405,1583933715886,1.486,-0.5329999999999999,-3.7769999999999997,10.729509,-0.5585673000000001,-6.9396130000000005,-1
405,406,1583933715897,0.8986,-0.5154,-4.2053,10.092077,-0.5357074000000001,-7.3888607,-1
406,407,1583933715907,0.3505,-0.7804,-4.7517,9.598297,-0.8294568000000001,-7.969531,-1
407,408,1583933715917,0.3505,-0.7804,-4.7517,9.434754,-1.1952621,-8.411375999999999,-1
408,409,1583933715927,0.22659999,-1.8705,-5.3724,9.580072,-1.8245924,-8.454051,-1
409,410,1583933715938,0.4164,-2.5156,-5.0913,9.800386,-2.5201368,-8.1489525,-1
410,411,1583933715948,0.66749996,-3.0627,-4.8143997,10.006192,-2.868589,-7.996384599999999,-1
411,412,1583933715958,0.83889997,-3.3939,-4.8466997,10.083161,-3.1439412,-8.215368,-1
412,413,1583933715968,0.65309995,-3.6193,-5.2065,9.683464,-3.2400154999999997,-8.608841,-1
413,414,1583933715979,0.029199999,-3.6732,-5.468899700000001,8.95825,-3.1561706000000003,-8.781587,-1
414,415,1583933715989,-0.6999,-3.4778,-5.5186996,8.333172,-2.8196703999999997,-8.626441999999999,-1
415,416,1583933715999,-1.1697,-3.2461998,-5.0864,8.000436,-2.6328080000000003,-8.161029,-1
416,417,1583933716009,-1.681,-3.1539,-4.6533,7.380452,-2.405263,-7.8498116,-1
417,418,1583933716020,-2.2597,-3.0245,-5.0628,6.883723,-2.2503867000000004,-8.337674,-1
418,419,1583933716031,-2.8356,-2.8588,-5.9577,6.22593,-1.804711,-9.531231,-1
419,420,1583933716041,-3.2616,-2.5504,-6.7892,5.781451000000001,-1.5008963,-9.953586999999999,-1
420,421,1583933716051,-3.6364,-2.4563,-6.7465997,5.502775700000001,-1.358221,-8.987124,-1
421,422,1583933716061,-3.9020998,-2.3522,-5.3051,5.24493,-1.1235222,-7.211968,-1
422,423,1583933716071,-4.2177997000000005,-2.2344,-3.4023,4.7376847,-0.8776473,-4.9621363,-1
423,424,1583933716082,-4.8022,-2.0651,-1.2901,4.059254,-0.49120402,-3.1404839,-1
424,425,1583933716092,-5.5814,-1.7816,0.1187,3.2090156000000003,-0.29920816,-1.9744982,-1
425,426,1583933716102,-6.2353997,-1.7261,0.71959996,3.02697,0.025665842,-2.0293446,-1
426,427,1583933716112,-6.303,-1.4212999,0.2978,3.2927744,0.23979367,-2.9081123,-1
427,428,1583933716122,-5.9577,-1.222,-1.2393,4.0214925,0.27970022,-4.6631293,-1
428,429,1583933716133,-5.2994,-1.2001,-2.7449,4.861896,0.25254038,-5.176312,-1
429,430,1583933716143,-4.4681,-1.2038,-3.237,5.801648999999999,0.10436804,-4.5734806,-1
430,431,1583933716153,-3.5784,-1.3936,-2.5180000000000002,6.4332294,-0.027878082999999998,-2.7508707,-1
431,432,1583933716163,-3.0809,-1.4344,-0.6247,6.249843,0.24997382,0.012105083,-1
432,433,1583933716173,-3.5269999999999997,-1.1205,2.0537999,4.820553,0.6427378,2.2830245,-1
433,434,1583933716183,-5.1566,-0.80429995,4.0113,3.6847627,0.72335535,3.0576062000000004,-1
434,435,1583933716193,-6.9558,-0.7112,4.7963,1.7367826000000002,0.9758479,4.226608799999999,-1
435,436,1583933716203,-8.0562,-0.48909998,5.5685,1.1952428999999998,1.0500106000000002,5.305398,-1
436,437,1583933716214,-8.478,-0.3822,6.5158997,1.3895756000000001,1.0482103,6.713562,-1
437,438,1583933716224,-8.1784,-0.2716,7.7275996,2.3182864,1.1978958,8.025527,-1
438,439,1583933716234,-7.1626997,0.046099997999999996,8.7434,3.788508,1.2600589,8.963028999999999,-1
439,440,1583933716244,-5.6716,0.2191,9.318999,5.406261,0.86486226,9.214525,-1
440,441,1583933716255,-4.3786,0.0343,9.256499,6.2861199999999995,0.32441434,8.63893,-1
441,442,1583933716266,-2.8771,-0.1708,8.1093,7.0025897,0.37814024,8.603286,-1
442,443,1583933716276,-2.7797,0.2931,9.51,6.9636602,0.6490872,10.38915,-1
443,444,1583933716286,-3.3852,0.5032,11.582299,6.2304889999999995,0.7016352,12.589171,-1
444,445,1583933716296,-3.3852,0.5032,11.582299,5.547356,0.77237904,14.309444000000001,-1
445,446,1583933716306,-4.9073,0.7823,15.2231,4.8831754,0.73418677,15.927839,-1
446,447,1583933716316,-5.1788,0.47200000000000003,15.919,4.6322823,0.16097654,16.638437,-1
447,448,1583933716327,-4.6849,0.0907,15.424399,5.304085700000001,-0.32643503,15.966434,-1
448,449,1583933716337,-3.5024,-0.1241,14.288,6.534207299999999,-0.7638748000000001,14.684185000000001,-1
449,450,1583933716347,-3.5024,-0.1241,14.288,7.531803999999999,-1.4561534,13.314032000000001,-1
450,451,1583933716358,-1.1273,-1.4677,10.8547,9.017158,-2.4506952999999996,11.003224000000001,-1
451,452,1583933716368,-0.2785,-1.3395,10.172299,9.550691,-2.344067,10.872204,-1
452,453,1583933716378,-0.15439999,-1.1840000000000002,11.084000000000001,9.482983,-2.4501588,11.887336,-1
453,454,1583933716388,-0.8641,-1.3887999,12.3663,8.436181,-2.9793637000000004,13.327669,-1
454,455,1583933716398,-1.7693,-1.8987,13.306398999999999,7.800175,-3.5810074999999997,13.75195,-1
455,456,1583933716408,-1.9954,-2.5764,12.9403,7.7643002999999995,-4.3880930000000005,12.834597,-1
456,457,1583933716418,-1.6775999,-2.8327,11.6044,8.206882,-4.855556,11.1528425,-1
457,458,1583933716430,-0.8831,-3.3098998,9.684999000000001,9.305582000000001,-5.5709624,8.790417,-1
458,459,1583933716440,0.25059998,-3.6285,7.7208996,10.675937,-5.897024,6.670782000000001,-1
459,460,1583933716450,1.6049,-3.6474,5.7307,11.693702,-5.990063,5.028092,-1
460,461,1583933716460,2.3725998,-3.5848,4.5288997,11.86529,-6.2415595,4.5061655,-1
461,462,1583933716471,2.2354998999999998,-3.8219998,4.5418997,11.217371,-6.876866000000001,4.9693955999999995,-1
462,463,1583933716481,1.4034,-4.428999999999999,5.1865,10.3838825,-7.702894000000001,5.530510400000001,-1
463,464,1583933716491,0.84099996,-5.1695,5.5399,10.299089,-8.589773,5.168516599999999,-1
464,465,1583933716501,1.1874,-5.7332,4.6994,11.062045,-8.78288,3.7939382000000004,-1
465,466,1583933716512,2.2034,-5.567,3.1362997999999997,12.070300999999999,-8.513513,2.3593995999999997,-1
466,467,1583933716522,3.1053,-5.0346,2.0,12.490789999999999,-7.985965299999999,1.9772561999999998,-1
467,468,1583933716532,3.2131998999999998,-4.5471997,1.9547,12.078144,-8.077816,2.2574353,-1
468,469,1583933716542,2.5837998,-4.7276,2.1383997999999997,11.106003,-8.761543,1.9847357,-1
469,470,1583933716552,1.9135,-5.2018,1.7055,10.819647,-9.416406,0.9051806,-1
470,471,1583933716562,1.7828,-5.8183,0.315,11.059095,-10.173931,-0.75559086,-1
471,472,1583933716573,2.3497999,-6.6036997,-1.9748,12.074294,-10.844594,-3.440286,-1
472,473,1583933716582,3.3,-6.9412,-4.1566997,12.781263000000001,-11.069514,-4.706818599999999,-1
473,474,1583933716592,4.1394,-7.0037,-5.4509,13.278960999999999,-10.885304,-5.025678,-1
474,475,1583933716602,4.3536997,-6.5137997,-5.2503,12.528953999999999,-10.338181500000001,-4.1264544,-1
475,476,1583933716613,3.3915,-6.0737,-4.3705,11.257057000000001,-10.222207000000001,-3.0876486,-1
476,477,1583933716623,1.7248,-5.9660997,-3.0628998,9.308838,-10.383681,-2.2923427000000003,-1
477,478,1583933716633,0.2217,-6.2207,-3.0177,8.487944,-11.136092999999999,-4.068169999999999,-1
478,479,1583933716644,-0.2688,-6.9638,-5.1373997000000005,9.270435,-11.705233999999999,-6.535931,-1
479,480,1583933716654,0.8064,-7.3996997,-7.6531997,11.2268715,-11.845877999999999,-9.153406,-1
480,481,1583933716664,2.4845998,-7.4322996,-9.837,12.292003999999999,-11.80237,-10.240824,-1
481,482,1583933716674,3.7394,-7.2985997000000005,-11.113999,12.583674,-11.629873,-10.64034,-1
482,483,1583933716684,3.7891,-7.061899700000001,-11.263599000000001,11.451783,-11.267899,-9.708766,-1
483,484,1583933716695,2.7573,-6.7398,-10.3793,10.113567,-10.720267,-8.5642605,-1
484,485,1583933716705,1.4309,-6.192,-9.2177,9.042401,-10.164373,-8.286629,-1
485,486,1583933716715,0.3451,-5.6545997,-8.921599,8.444061999999999,-9.838473,-9.139846,-1
486,487,1583933716725,-0.25959998,-5.3352,-9.7829,8.5397625,-9.540731,-10.167351,-1
487,488,1583933716735,-0.16499999,-5.0499,-10.827399,9.042,-9.077616,-10.947583,-1
488,489,1583933716746,0.3342,-4.5817,-11.617599499999999,9.245459,-8.637417999999998,-11.312986,-1
489,490,1583933716756,0.5387,-4.1415,-11.9689,8.891299,-8.159938,-11.0834875,-1
490,491,1583933716766,-0.3858,-3.3307998,-11.1026,8.2282295,-7.777247999999999,-10.398468,-1
491,492,1583933716776,-0.3858,-3.3307998,-11.1026,7.7876296,-7.5991482999999995,-9.849277,-1
492,493,1583933716786,-1.3143,-3.0465999,-9.4781,7.3743234,-7.5369945000000005,-8.858585,-1
493,494,1583933716797,-1.6340000000000001,-3.1633,-8.7647,7.013986,-7.587809599999999,-8.259124,-1
494,495,1583933716807,-2.0305,-2.9856,-8.6594,6.587646,-7.306328,-8.273911,-1
495,496,1583933716817,-2.4831998,-2.6785,-8.8595,6.128256299999999,-7.0981190000000005,-8.36355,-1
496,497,1583933716827,-2.4831998,-2.6785,-8.8595,5.760765,-7.21282,-7.977001700000001,-1
497,498,1583933716837,-3.2818,-2.9647,-7.8870997,5.4045653,-7.4525274999999995,-7.089413,-1
498,499,1583933716848,-3.4715,-3.2147,-6.9709997,5.2209783,-7.695874000000001,-6.185333999999999,-1
499,500,1583933716858,-3.5609998999999997,-3.4710998999999996,-6.3294997,5.184088,-7.990696400000001,-5.3990874,-1
500,501,1583933716868,-3.4724998,-3.5583,-5.855,5.245714700000001,-7.9933205,-5.0331964000000005,-1
501,502,1583933716878,-3.5398998,-3.5454998,-5.3359,5.1420174,-8.035027000000001,-4.4081182,-1
502,503,1583933716888,-3.6955998,-3.7665,-4.6681,4.968408999999999,-8.3314295,-3.5228477,-1
503,504,1583933716898,-3.7723,-3.8474,-3.9211998,4.869346599999999,-8.313042,-2.780923,-1
504,505,1583933716909,-3.9059,-3.7672,-3.2484999,4.685865,-8.297258,-2.072076,-1
505,506,1583933716919,-4.1445,-3.7703998,-2.5776,4.390295500000001,-8.3366585,-1.487077,-1
506,507,1583933716930,-4.3684998,-3.7768998,-2.3093998,4.237171599999999,-8.314986,-1.3645513,-1
507,508,1583933716940,-4.2422,-3.6164,-2.5434,4.6673717,-8.20919,-1.8042034,-1
508,509,1583933716950,-3.6276,-3.4538998999999997,-2.9698,5.4656462999999995,-8.009266,-1.8321292000000002,-1
509,510,1583933716960,-2.7224998,-3.2712,-2.6962,6.200111,-8.185757,-1.0746038999999998,-1
510,511,1583933716971,-2.0893,-3.5052,-1.8258,6.5609649999999995,-8.505449,-0.09075939999999999,-1
511,512,1583933716981,-1.8872999,-3.6910000000000003,-0.9343,6.331811,-8.715258,0.67743456,-1
512,513,1583933716993,-2.2635,-3.9283997999999998,-0.3627,5.829776,-9.178191,1.1331086000000001,-1
513,514,1583933717003,-2.6281998,-4.3826,0.0241,5.768503,-9.572497,1.8721028999999998,-1
514,515,1583933717013,-2.4693,-4.4708,0.68149996,6.2260349999999995,-9.3796015,2.6045275,-1
515,516,1583933717023,-1.8945999,-4.1912,1.2626,6.884575,-9.188305,2.7353659,-1
516,517,1583933717033,-1.1617,-3.9099,1.2522,7.596361,-8.955492,2.808437,-1
517,518,1583933717044,-0.4005,-3.5990998999999997,1.403,8.036694,-8.694199000000001,3.4957452000000004,-1
518,519,1583933717054,0.0029,-3.2910000000000004,2.1739,8.090525,-8.7611885,4.677619,-1
519,520,1583933717064,0.057,-3.3121,3.1687,7.9013919999999995,-8.858384,5.346243,-1
520,521,1583933717074,-0.1785,-3.3702998,3.9227,7.376641,-8.921705000000001,5.4869832999999995,-1
521,522,1583933717084,-0.70159996,-3.3781998,3.9977998999999995,6.6721520000000005,-8.836031,5.863917,-1
522,523,1583933717094,-1.2554,-3.2354,4.343499700000001,6.2691407,-8.586354,6.2597365,-1
523,524,1583933717105,-1.6238999,-2.9487,4.7148,6.212675599999999,-8.221105,6.505812000000001,-1
524,525,1583933717115,-1.6502,-2.5353,4.9530997,6.509442,-7.9536242,6.90189,-1
525,526,1583933717125,-1.3153,-2.2285,5.3438,6.919933,-7.811399000000001,7.6436133,-1
526,527,1583933717135,-0.8753,-2.0383,6.1075,7.115864299999999,-7.564222,8.313636,-1
527,528,1583933717146,-0.65529996,-1.7524998999999999,6.8065996,6.965393499999999,-7.4354043,8.8616495,-1
528,529,1583933717157,-0.9888,-1.3635,7.5262,6.6986985,-7.209123,8.961152,-1
529,530,1583933717167,-1.1453999,-1.1314,7.409,6.5792375,-6.97836,8.844354,-1
530,531,1583933717177,-1.1453999,-1.1314,7.409,6.568875299999999,-6.783338499999999,8.736863,-1
531,532,1583933717187,-1.2185999,-0.7694,6.791,6.441255,-6.708601,8.116458999999999,-1
532,533,1583933717197,-1.2928,-0.7453,6.2648,6.3051305,-6.7530660000000005,7.749772500000001,-1
533,534,1583933717208,-1.2928,-0.7453,6.2648,6.2486176,-6.865632000000001,7.890791,-1
534,535,1583933717218,-1.1402,-0.97749996,6.7170000000000005,6.622457499999999,-7.02725,8.379524,-1
535,536,1583933717228,-0.6579999999999999,-0.94949996,7.085099700000001,7.0982330000000005,-6.9798446,8.742666999999999,-1
536,537,1583933717238,-0.2464,-0.84569997,7.2274,7.4233465,-6.842225999999999,8.631164,-1
537,538,1583933717248,0.0052,-0.5417,6.822,7.624708999999999,-6.463051999999999,8.123018,-1
538,539,1583933717258,0.1375,-0.16499999,6.0801,7.674460400000001,-6.1818285,7.2323375,-1
539,540,1583933717269,0.032899998,0.069299996,5.0611,7.467094,-5.954082499999999,6.36647,-1
540,541,1583933717279,-0.2112,0.2611,4.393399700000001,7.160942599999999,-5.847033000000001,5.7429237,-1
541,542,1583933717289,-0.5159,0.2651,3.7682998,6.907760000000001,-5.930524,5.2140923,-1
542,543,1583933717300,-0.5664,0.0444,3.3853998,7.053758599999999,-6.2015095,4.9837418,-1
543,544,1583933717309,-0.10669999599999999,-0.3014,3.1569998,7.645404300000001,-6.565715299999999,4.6052566,-1
544,545,1583933717319,0.667,-0.42139998,2.5858,8.44683,-6.4747453,4.066139700000001,-1
545,546,1583933717329,1.2815,-0.0646,2.1295,8.776435000000001,-6.081148000000001,3.7409976,-1
546,547,1583933717339,1.0867,0.21589999,2.0509,8.277004,-5.8651524,3.875772,-1
547,548,1583933717349,0.3062,0.38939998,2.4226,7.4476337,-5.6687226,4.3995275000000005,-1
548,549,1583933717360,-0.5265,0.58779997,2.9887998,6.816867,-5.4857388,4.8605456,-1
549,550,1583933717370,-1.1516,0.75729996,3.4025,6.161938,-5.2774816,5.3040376,-1
550,551,1583933717380,-1.3389,0.82369995,3.4052,6.342298,-5.3004947,4.881423000000001,d
551,552,1583933717390,-0.8909999999999999,0.7402,2.6454,6.932296000000001,-5.398494,4.108048,-1
552,553,1583933717400,0.121,0.6139,1.5235,8.0435505,-5.5513015,3.035254,-1
553,554,1583933717410,1.1820998999999999,0.4416,0.70669997,9.042182,-5.663733000000001,2.6421740000000002,-1
554,555,1583933717420,1.7166,0.4039,0.8397,9.118471000000001,-5.765439,3.1477816,-1
555,556,1583933717431,1.4963,0.3006,1.439,8.520782,-5.828214599999999,3.8037927000000002,-1
556,557,1583933717441,0.7086,0.23789999,2.0832999,7.902168,-5.861274,4.201038400000001,-1
557,558,1583933717451,0.134,0.141,2.5075998,7.396934,-5.945942400000001,4.639235,-1
558,559,1583933717461,-0.2511,0.1134,2.7359998,7.1331024,-5.85231,4.668818,-1
559,560,1583933717471,-0.3575,0.1548,2.6062999,7.3305383,-5.863649,4.4784594,-1
560,561,1583933717481,0.0931,0.1187,2.4993,8.182702,-6.061975,4.528058000000001,-1
561,562,1583933717491,1.1567,-0.2057,2.47,9.284647,-6.495631700000001,4.295580999999999,-1
562,563,1583933717501,2.0265,-0.6142,2.121,9.559847,-6.7904729999999995,4.0098953,-1
563,564,1583933717511,1.913,-0.8409,2.0435998,9.055848,-6.9176245,4.4348279999999995,-1
564,565,1583933717521,1.3745999,-0.93619996,2.804,8.702032,-6.973553,5.596896599999999,-1
565,566,1583933717531,1.2794,-0.95369995,3.8894,9.129273,-6.770065,6.3368487,-1
566,567,1583933717542,2.0225,-0.5765,4.2595,10.094002,-6.253205,6.2955055,-1
567,568,1583933717552,2.8855999,-0.108399995,3.9527997999999998,10.794239,-6.005941,5.689399,-1
568,569,1583933717562,3.5489,-0.15969999,3.1313,11.221489,-6.648994999999999,4.8897260000000005,-1
569,570,1583933717572,3.8997,-1.1039,2.5721998,11.643185,-7.825975,4.904819,-1
570,571,1583933717583,4.4677997000000005,-2.2919,2.9377,12.801921,-9.031494,5.800116,-1
571,572,1583933717593,5.568,-3.2057998,3.8771,14.002832999999999,-9.75526,6.7274384000000005,-1
572,573,1583933717603,6.6573997,-3.9032,4.8314,14.58044,-10.233460000000001,7.063364,-1
573,574,1583933717613,7.044699700000001,-4.3566,5.0206,14.644173,-10.382177,6.4629273000000005,-1
574,575,1583933717624,7.0063,-4.473,4.3958,14.572643,-10.148561500000001,6.060653,-1
575,576,1583933717634,6.8896,-4.2886,4.1568,14.517663,-9.844748,5.9697504,-1
576,577,1583933717644,6.7288,-4.0726,4.0278997,14.251160999999998,-9.499445,5.8498297,-1
577,578,1583933717654,6.4182,-3.9013998999999995,3.9129,13.864113,-9.070146000000001,5.9236765,-1
578,579,1583933717664,5.9473,-3.6065998,3.9492998,13.408276999999998,-8.822239999999999,6.316814,-1
579,580,1583933717676,5.4133997,-3.5003,4.2964997,13.194942999999999,-8.743807,6.923437599999999,-1
580,581,1583933717686,5.099,-3.5709,4.871299700000001,13.268187,-8.901411999999999,7.2825294000000005,-1
581,582,1583933717696,5.1759,-4.1289997000000005,5.0291,13.531376999999999,-8.960482,6.9257936,-1
582,583,1583933717706,5.4182,-4.1110997000000005,3.9582,13.871717000000002,-8.738635,5.703678,-1
583,584,1583933717716,5.3704,-4.0573,2.7384,13.8293495,-8.496457000000001,4.498839,-1
584,585,1583933717727,4.7496,-4.0569997,2.1025999,13.239572,-8.296876,3.9267876000000004,-1
585,586,1583933717737,4.7496,-4.0569997,2.1025999,12.597667,-7.976857000000001,3.894399,-1
586,587,1583933717747,2.9478,-3.6046998999999995,2.6341,11.651977,-7.353407400000001,4.44564,-1
587,588,1583933717758,1.9404999,-3.4603998999999996,3.0446,10.730476,-7.003605,4.6639237,-1
588,589,1583933717768,0.91179997,-3.5454998,2.9784,9.716072,-6.848451,4.549079,-1
589,590,1583933717778,0.1768,-3.6603,3.014,9.141206,-6.713589999999999,4.375576000000001,-1
590,591,1583933717789,-0.4596,-3.7322,2.659,8.612671,-6.5266514,3.7512448,-1
591,592,1583933717799,-0.9302,-3.7703998,1.7422999,8.393047,-6.2358709999999995,2.6465982999999995,-1
592,593,1583933717809,-0.9614,-3.4297,0.86899996,8.465294,-5.469793,2.0101526,-1
593,594,1583933717819,-1.1334,-2.6518998,0.9687,8.145629,-4.4454769999999995,2.3881588,-1
594,595,1583933717829,-2.0168,-2.0993,1.4376999,6.9824595,-3.9037652,2.5107036,-1
595,596,1583933717840,-3.5226998,-2.0093,1.23,5.8005476,-3.6854427000000003,2.0985847,-1
596,597,1583933717850,-4.7377996,-1.8658999,0.6401,4.610064,-3.120277,1.0891415,-1
597,598,1583933717860,-5.1705,-1.6007999,0.0127,4.512161,-2.6187012000000003,0.3091489,-1
598,599,1583933717870,-5.1638,-1.3172,-0.54109997,4.7549806,-2.1882334,-0.14599842,-1
599,600,1583933717881,-4.836,-1.046,-0.6972,5.124501,-1.6464063999999998,-0.20623654,-1
600,601,1583933717891,-4.5706997000000005,-0.5954,-0.48999998,5.1362042,-1.015132,-0.08395986,-1
601,602,1583933717901,-4.8203,-0.1767,-0.36789998,4.5847809999999996,-0.70197034,-0.19472522,-1
602,603,1583933717911,-5.5365996,-0.16569999,-0.4612,3.8432589,-0.6511558000000001,-0.47967353,-1
603,604,1583933717921,-6.1615,-0.30589998,-0.68329996,3.4982637999999997,-0.6932555,-0.72456205,-1
604,605,1583933717932,-6.3129,-0.5133,-0.8461,3.6305866,-0.80540943,-1.0024905000000002,-1
605,606,1583933717942,-6.0892,-0.7076,-1.1068,3.9228132000000007,-0.8618167999999999,-1.4529549,-1
606,607,1583933717952,-5.726,-0.8235,-1.5019999999999998,4.4555902000000005,-0.5576479,-2.1011705000000003,-1
607,608,1583933717962,-5.2918997,-0.5487,-1.9179,4.5808263,-0.09863153,-2.3020153,-1
608,609,1583933717973,-5.2776,-0.1899,-1.9239,4.246605000000001,0.20520224,-1.9262598000000002,-1
609,610,1583933717984,-5.6344,-0.0345,-1.2987,3.8104966,0.3537002,-1.0145956,-1
610,611,1583933717994,-6.0780997,0.0075,-0.31489998,3.4048230000000004,0.30692708,-0.6496523,-1
611,612,1583933718004,-6.4624,-0.2047,-0.055299997000000004,3.1491507999999997,0.009241618,-1.0172101,-1
612,613,1583933718014,-6.7096,-0.6666,-0.6595,3.3920763,-0.43083182,-2.0128150000000002,-1
613,614,1583933718024,-6.3791,-0.9544,-1.2555,3.8610237,-0.35255098,-2.4326336,-1
614,615,1583933718035,-5.8046,-0.9023,-1.7214999,4.2558656,-0.27338909999999994,-2.9494267000000005,-1
615,616,1583933718046,-5.476,-0.8391,-2.2131,4.473058,-0.01097502,-3.5195148,-1
616,617,1583933718056,-5.2749,-0.5943,-2.6062999,4.70339,0.35310644,-3.3251822,-1
617,618,1583933718066,-4.8299,-0.18949999,-1.9649999,4.973609400000001,0.37128323,-2.9343432999999997,-1
618,619,1583933718077,-4.8299,-0.18949999,-1.9649999,5.1822686,0.013235146000000001,-2.858696,-1
619,620,1583933718087,-4.2084,-1.3245,-2.2257,5.5811234,-0.8643356,-3.6900394,-1
620,621,1583933718097,-3.8988,-1.8932999,-3.4731998,5.8877153,-1.3722511999999998,-5.142208999999999,-1
621,622,1583933718107,-3.5483,-1.9587,-4.5161,6.199766,-1.2806393,-6.0890203000000005,-1
622,623,1583933718117,-3.2545,-1.3658,-4.223799700000001,6.462065,-0.6294930999999999,-5.6023364,-1
623,624,1583933718128,-3.0956,-0.9177,-2.7124999,6.5243053,-0.1999733,-3.7803104,-1
624,625,1583933718138,-3.0832999,-0.74719995,-1.0418,6.5504785000000005,-0.060094465,-2.5753662999999998,-1
625,626,1583933718148,-3.0927,-0.7179,0.30949998,6.489646400000001,-0.08023449,-1.3115915,-1
626,627,1583933718158,-3.1062999,-0.8724,0.78669995,6.4742084,-0.32032505,-1.4341171999999998,-1
627,628,1583933718168,-2.9875998,-1.2565,-0.09999999400000001,6.7255325,-0.72685087,-2.7749946,-1
628,629,1583933718178,-2.5888,-1.5153999,-1.6990999,7.232558,-0.87441033,-4.4282484,-1
629,630,1583933718189,-1.7906,-1.4578999,-3.1604,8.222138000000001,-0.78865004,-5.757594999999999,-1
630,631,1583933718199,-0.6313,-1.2585,-4.0899,9.331985000000001,-0.5926511,-6.358789,-1
631,632,1583933718209,0.2136,-0.9766,-4.0926,9.92117,-0.33750582,-5.9718575,-1
632,633,1583933718219,0.3434,-0.8183,-3.2925,9.768678,-0.33177890000000004,-5.101708400000001,-1
633,634,1583933718230,-0.123399995,-0.9428,-2.4023,9.07005,-0.5357649,-4.159418,-1
634,635,1583933718240,-0.64779997,-1.0806,-1.6172999,8.83336,-0.5836393,-3.3823172999999995,-1
635,636,1583933718250,-0.7108,-1.112,-0.44849998,8.871657,-0.5594483,-2.2912605,-1
636,637,1583933718260,-0.5183,-1.0532,0.3603,9.136657000000001,-0.48303497,-1.852528,-1
637,638,1583933718270,-0.3372,-0.9773,0.2609,9.2969055,-0.3540258,-2.4373548,-1
638,639,1583933718281,-0.2083,-0.82519996,-0.50659996,9.278575,-0.15433024,-3.3170803,-1
639,640,1583933718291,-0.2688,-0.57879996,-1.3442,9.229705000000001,0.09730035,-3.8972528,-1
640,641,1583933718301,-0.2719,-0.3381,-1.7754999,9.377216,0.3613138,-4.1125684,-1
641,642,1583933718311,-0.098699994,-0.066,-1.8151,9.577717,0.5534245,-3.7128322,-1
642,643,1583933718321,0.0557,0.0683,-1.3507999,9.737123,0.56599885,-3.1880136,-1
643,644,1583933718332,0.23179999,0.0817,-0.82979995,9.8430805,0.5985983,-2.731516,-1
644,645,1583933718343,0.31239998,0.16929999,-0.2794,9.851671000000001,0.6549099,-2.322318,-1
645,646,1583933718353,0.3166,0.1751,-0.0546,9.882489,0.6411958999999999,-2.4591804,-1
646,647,1583933718363,0.3511,0.1889,-0.18959999,9.822892,0.7264295000000001,-2.650123,-1
647,648,1583933718374,0.2777,0.2908,-0.4032,9.724491,0.7980162,-2.982208,-1
648,649,1583933718384,0.16409999,0.3435,-0.6994,9.574479,0.82607615,-3.159877,-1
649,650,1583933718394,0.010199999,0.3382,-0.8533,9.625878,0.76030266,-3.1192713,d
650,651,1583933718404,0.17899999,0.31489998,-0.7359,10.029272,0.7676864000000001,-2.8479412,-1
651,652,1583933718415,0.5629,0.32299998,-0.45389998,10.11534,0.49263096,-3.0393814999999997,-1
652,653,1583933718425,0.6031,0.055999997999999995,-0.6642,10.110714,0.30082667,-3.7204553999999996,-1
653,654,1583933718435,0.59499997,-0.124699995,-1.3331,10.131668,0.22462401,-4.661961,-1
654,655,1583933718446,0.618,-0.2014,-2.2607,10.160188,0.2188875,-5.7270355,-1
655,656,1583933718456,0.65239996,-0.2155,-3.3105998,10.181018,0.06270893,-6.9945455,-1
656,657,1583933718466,1.0965999,-0.6744,-5.5821,10.654198,-0.31606334,-8.159889,-1
657,658,1583933718476,1.0965999,-0.6744,-5.5821,10.695981,-0.80062103,-8.332157,-1
658,659,1583933718487,1.0237,-1.9078,-5.1528997,10.462987,-1.4216865,-7.393878999999999,-1
659,660,1583933718497,0.70199996,-2.1996,-3.8444,10.062714999999999,-1.565942,-6.1245117,-1
660,661,1583933718508,0.70199996,-2.1996,-3.8444,9.588538,-1.672235,-5.381304,-1
661,662,1583933718518,-0.44689998,-3.0068,-2.4954,8.903184,-2.2740414,-5.132527,-1
662,663,1583933718529,-0.5773,-3.6592,-3.5358998999999995,9.016055999999999,-2.8745935,-6.9937315,-1
663,664,1583933718539,0.0072,-4.0232,-5.8915997,9.769761,-2.9997625,-9.516109,-1
664,665,1583933718552,0.89239997,-3.9101,-8.0831995,10.611139999999999,-2.4279215,-11.557501,-1
665,666,1583933718562,1.2248,-3.5135998999999996,-8.980599,10.20608,-2.0412197,-11.209202000000001,-1
666,667,1583933718572,0.6629,-3.2689,-8.3108,9.02931,-1.7792366000000002,-9.024962,-1
667,668,1583933718582,-0.6543,-3.1378,-5.9056,7.295275999999999,-1.5465010000000001,-6.5240846,-1
668,669,1583933718592,-2.4427,-3.0672,-3.7419,5.5237680000000005,-1.1375043,-5.717373,-1
669,670,1583933718602,-4.1591997,-2.7347999,-3.3270998,4.2628956,-0.62481004,-5.9146166,-1
670,671,1583933718613,-5.2363,-2.3253999,-3.7077,4.0884156,-0.1946869,-6.39746,-1
671,672,1583933718623,-5.2418,-1.9999,-4.3666,4.608781,0.13577996,-6.833061,-1
672,673,1583933718633,-4.6548,-1.7326,-4.8479,5.3214293,0.4037869,-6.667353599999999,-1
673,674,1583933718643,-3.9905998999999994,-1.536,-4.73,5.812403,0.67983836,-6.467036,-1
674,675,1583933718654,-3.569,-1.2551,-4.6324997,6.1162753,0.97400916,-5.6946087,-1
675,676,1583933718663,-3.3191,-1.0171,-3.7965998999999995,6.0812626,1.1125951,-4.195876999999999,-1
676,677,1583933718673,-3.4666,-0.94259995,-2.2243,5.4433994000000006,1.0374459,-1.9340456999999998,-1
677,678,1583933718683,-4.2286997,-1.0787,-0.0872,4.3329496,0.9664626000000001,-0.2712343,-1
678,679,1583933718693,-5.402199700000001,-1.1719998999999999,1.2277,3.2769535000000003,1.0513417999999999,-0.029008147999999997,-1
679,680,1583933718703,-6.3426,-1.0439,1.1503999,2.9915264,1.3732566000000002,-0.4336474,-1
680,681,1583933718714,-6.4929,-0.6857,0.6532,3.3240523,1.6528706999999998,-0.63866764,-1
681,682,1583933718724,-6.0790997,-0.4461,0.3779,4.2797217000000005,1.4553778,-0.76777256,-1
682,683,1583933718735,-5.2776,-0.60209996,0.19129999,5.1856303,1.0653143999999999,-0.81347317,-1
683,684,1583933718745,-4.1555,-1.0243,0.088199995,6.6485449999999995,0.5480136,0.2856091,-1
684,685,1583933718755,-2.9552999,-1.3426,1.0325,7.201510000000001,0.68881184,2.6427102000000002,-1
685,686,1583933718765,-2.4292998,-1.1284,3.2703,6.451080999999999,0.8744199,5.151594,-1
686,687,1583933718775,-3.1941998,-0.8778,5.653,5.054064,0.8814972,7.217167999999999,-1
687,688,1583933718785,-4.6134,-0.8096,7.5799,3.9556332000000003,0.9107255999999999,8.242278,-1
688,689,1583933718795,-5.9244,-0.7022,8.5959,3.3727312000000005,0.89439714,8.637350999999999,-1
689,690,1583933718805,-6.3241,-0.6387,8.6557,4.0979633,0.68610156,8.574048,-1
690,691,1583933718815,-5.6257,-0.72169995,8.4239,5.2597547,0.12173079,9.042067,-1
691,692,1583933718825,-4.4649997,-1.1427,8.7143,6.452795,-0.74583215,10.530781,-1
692,693,1583933718835,-3.2919,-1.8267,10.0629,7.4215655,-1.305472,12.531663,-1
693,694,1583933718845,-2.3408,-2.2308,11.9484,7.752511,-1.0979139,14.703367000000002,-1
694,695,1583933718856,-2.0037,-1.8872,14.0285,7.058298,-0.6112972,16.872198,-1
695,696,1583933718866,-3.6348,-1.0354,16.863699,5.883128599999999,-0.47030740000000004,17.813387,-1
696,697,1583933718876,-4.6064,-1.1006,17.187399,5.084920400000001,-0.6574286,18.127163,-1
697,698,1583933718886,-4.6089,-1.1496998999999999,17.2543,5.2569776,-0.7564816,18.096294,-1
698,699,1583933718896,-3.8195,-0.8831,16.7662,5.9520717,-0.6041241,17.662418,-1
699,700,1583933718906,-3.0318,-0.373,15.839398999999998,6.8635535,-0.12624148,16.500282000000002,-1
700,701,1583933718917,-2.5976,-0.024699999,15.0849,7.2282386,0.0071155676,15.704028,-1
701,702,1583933718927,-2.4575,-0.3217,14.399099,7.350610700000001,-0.5592185000000001,14.942604999999999,-1
702,703,1583933718937,-2.2969,-1.1528,13.8805,7.558053999999999,-1.6286606000000001,14.276472,-1
703,704,1583933718947,-1.9862,-2.3272998,12.9499,7.9008946,-2.9581223,13.066088,-1
704,705,1583933718957,-1.4159,-3.5015,11.327399,8.555613000000001,-4.243014,11.178144,-1
705,706,1583933718967,-0.3301,-4.2223,9.4107,9.737438000000001,-4.999725,9.110053,-1
706,707,1583933718979,1.0749999,-4.5401,7.35,11.135164,-5.473164,6.869443400000001,-1
707,708,1583933718990,2.5142999,-4.7079,5.1489,13.123970000000002,-5.766080400000001,3.718607,-1
708,709,1583933719000,3.8392,-4.4989,3.1359,14.060208,-5.4417615,1.9896102999999998,-1
709,710,1583933719011,4.4304,-3.9687,1.8694998999999999,13.847344,-5.204391,1.3106626000000001,-1
710,711,1583933719021,3.7468998,-3.7417998,1.7087,12.72229,-5.4121504,1.5501307,-1
711,712,1583933719031,2.6071,-3.9261,2.1023,11.89402,-5.938520400000001,1.4821162,-1
712,713,1583933719041,2.2051,-4.4066997,1.6752,12.140748,-6.634285,0.171444,-1
713,714,1583933719051,2.8502998,-5.127000000000001,-0.17639999,13.21946,-7.453676700000001,-2.3055396,-1
714,715,1583933719061,2.8502998,-5.127000000000001,-0.17639999,14.848282999999999,-8.057245,-4.8174405,-1
715,716,1583933719072,5.957000000000001,-6.058399700000001,-4.8402,16.306955,-8.403006,-6.098118299999999,-1
716,717,1583933719082,7.1298,-6.1949997,-5.6092,16.760407999999998,-8.535328999999999,-6.377330000000001,-1
717,718,1583933719092,7.0813,-6.0655,-5.5411,15.910571,-8.306961,-5.89372,-1
718,719,1583933719102,5.7883997,-5.6573,-4.8289,13.715089,-7.8641863,-5.1710449999999994,-1
719,720,1583933719112,3.8795998,-5.3066,-4.4041,12.38194,-7.8314147,-5.466001,-1
720,721,1583933719122,2.5656,-5.2718,-5.0547,11.862005,-7.812922,-6.8380985,-1
721,722,1583933719132,2.5088,-5.183,-6.3366,12.534067,-7.6601334,-8.183947,-1
722,723,1583933719142,3.2803,-4.9565,-7.5922,13.257288,-7.592741,-9.119342,-1
723,724,1583933719152,3.9366,-4.9247,-8.3967,13.326864000000002,-7.778541000000001,-9.779739,-1
724,725,1583933719162,3.8758998,-5.0710998,-8.9192,12.727576,-7.735752000000001,-9.901834,-1
725,726,1583933719172,3.1643999,-4.9428997,-8.838699,11.668573,-7.586957000000001,-9.7130375,-1
726,727,1583933719182,2.0949,-4.816,-8.626699,10.740504,-7.5468497,-9.912004,-1
727,728,1583933719193,1.2379999,-4.7989999999999995,-8.8005,10.171086,-7.5981145,-10.311760000000001,-1
728,729,1583933719203,0.7525,-4.8637,-9.1881,9.997631,-7.677840700000001,-10.83089,-1
729,730,1583933719213,0.6591,-4.9571,-9.6221,10.011412,-7.5016947,-11.418283,-1
730,731,1583933719223,0.66359997,-4.7278,-10.1859,9.849037,-7.1225586,-12.133777,-1
731,732,1583933719234,0.4707,-4.3466997,-10.8202,9.560469,-6.6249766,-12.56955,-1
732,733,1583933719244,0.14829999,-3.8753998,-11.122499000000001,9.241925,-6.229636,-12.823144000000001,-1
733,734,1583933719254,-0.2641,-3.4605,-11.3581,8.75663,-5.809482599999999,-12.884922999999999,-1
734,735,1583933719264,-0.5803,-3.2275999,-11.2743,8.684756,-5.543391000000001,-12.372306,-1
735,736,1583933719275,-0.6631,-2.931,-10.5302,8.4027,-5.1588626,-11.308945,-1
736,737,1583933719285,-0.9447,-2.6778,-9.6102,7.8064860000000005,-5.0894694000000005,-10.758547,-1
737,738,1583933719295,-1.5529,-2.6634,-9.0384,7.1501784,-4.9699599999999995,-10.239982000000001,-1
738,739,1583933719305,-2.2228,-2.5899,-8.513599000000001,6.787064,-4.872449400000001,-9.903845,-1
739,740,1583933719315,-2.6002998,-2.5505,-8.1935,6.703295,-4.7247367,-9.837507,-1
740,741,1583933719326,-2.7041,-2.4443,-8.1556,6.703822,-4.641275,-9.649571,-1
741,742,1583933719336,-2.8346,-2.5384998,-7.627000000000001,6.5744586,-4.786469,-9.091808,-1
742,743,1583933719346,-2.812,-2.5681998999999998,-7.1074996,6.656991499999999,-4.7259817,-8.561167,-1
743,744,1583933719357,-2.7105,-2.4795,-6.7766,6.7872744,-4.621585,-8.121736,-1
744,745,1583933719367,-2.5788999,-2.5582,-6.1584997,6.921561,-4.726441400000001,-7.397011,-1
745,746,1583933719378,-2.5788999,-2.5582,-6.1584997,6.958823700000001,-4.9185233,-6.79281,-1
746,747,1583933719390,-2.4415998,-3.0814,-5.073,7.186273,-5.1386847,-6.278085,-1
747,748,1583933719400,-2.2503998,-3.0542998,-5.0060997,7.3304234,-5.0408573,-6.1866937,-1
748,749,1583933719410,-2.2061,-3.0184999,-4.9691997,7.243772,-5.003814,-6.065144999999999,-1
749,750,1583933719420,-2.4462,-3.0435998,-4.9126997,6.8790207,-5.0353317,-5.9510856,-1
750,751,1583933719431,-2.8134,-3.1288,-4.7581,6.641257,-5.1567845000000005,-5.2679043,-1
751,752,1583933719441,-2.9735,-3.3393998,-3.7089,6.531507,-5.342268499999999,-3.6307974,-1
752,753,1583933719451,-3.0828998,-3.5539,-1.9336,6.540691000000001,-5.596523,-1.6706547999999999,-1
753,754,1583933719461,-3.0634,-3.8772998,-0.00049999997,6.497854,-5.8773823,0.30522242,-1
754,755,1583933719471,-3.1425,-4.0352,1.8019999,6.4017024000000005,-5.8554416,2.0442364,-1
755,756,1583933719482,-3.2661,-3.9852998,3.1018999,6.344759,-5.7681875,2.6676004,-1
756,757,1583933719492,-3.2528,-3.8771,3.1871998,6.5169597,-5.477263,2.5885534,-1
757,758,1583933719503,-3.0507998,-3.4094,2.8341,6.636038,-4.897579,1.9201881,-1
758,759,1583933719514,-3.0031,-2.9394999,2.0634,6.564882000000001,-4.5999317,2.3075602,-1
759,760,1583933719524,-3.0713,-2.6987,2.391,6.268547,-4.461202,3.818129,-1
760,761,1583933719534,-3.472,-2.5226,4.2636,5.372675,-4.353827,6.937803,-1
761,762,1583933719545,-4.2549,-2.4392,6.8202996,4.5018363,-4.219292,9.505986,-1
762,763,1583933719555,-5.1252,-2.2947,9.313399,4.10642,-3.8899744,11.590349,-1
763,764,1583933719565,-5.522599700000001,-1.9531,11.3519,4.381753,-3.4060104,12.627575,-1
764,765,1583933719576,-5.2297997,-1.4276999,12.3412,4.672179,-2.873023,11.936686,-1
765,766,1583933719586,-4.9964,-0.094299994,10.2471,4.5440892999999996,-2.0291721999999996,10.40521,-1
766,767,1583933719596,-5.2441998,0.66459996,8.8652,4.2840023,-1.3530973999999998,9.135958,-1
767,768,1583933719606,-5.3535,1.4087,8.0254,4.199861,-0.6583097,8.52942,-1
768,769,1583933719616,-5.2858,2.2272,8.2548,4.255980999999999,0.035769373,8.993387,-1
769,770,1583933719626,-5.3554997,2.5711,9.4143,4.1110644,0.23140439999999998,10.273223,-1
770,771,1583933719637,-5.3554997,2.5711,9.4143,3.7913141,0.055784900000000005,11.482985000000001,-1
771,772,1583933719647,-6.2271,2.156,12.2865,3.1479156,-0.5042189,12.888993,-1
772,773,1583933719657,-6.611799700000001,1.6502999,12.7887,2.7962265,-1.1475313,13.071049,-1
773,774,1583933719667,-6.526,1.1478,12.2245,2.98533,-1.7609161,12.266865,-1
774,775,1583933719677,-5.7521996,0.9456,11.1081,3.8230324,-2.0235314,11.135529,-1
775,776,1583933719688,-4.604,1.0408,10.3302,5.0759087,-2.1881855,10.30653,-1
776,777,1583933719699,-3.6910000000000003,0.90559995,9.6715,5.8136005,-2.6203293999999997,9.600816,-1
777,778,1583933719709,-3.0249999,0.6203,8.7984,6.292900599999999,-3.0443807,8.755221,-1
778,779,1583933719719,-2.5291,0.5724,8.2259,6.6471944,-3.3129047999999996,8.576012,-1
779,780,1583933719729,-2.4009,0.2589,8.591000000000001,6.430136,-4.1100683,9.356665,-1
780,781,1583933719739,-2.7398999,-0.773,9.7438,6.0251904000000005,-5.5522594000000005,10.522066,-1
781,782,1583933719749,-2.8481,-2.0797,10.6233,6.0060945,-7.0024076,11.054153,-1
782,783,1583933719759,-2.3207,-3.2947998,10.5629,6.571872999999999,-8.159880000000001,10.766438,-1
783,784,1583933719769,-0.8909999999999999,-4.3283997,9.5106,8.345833,-9.382235000000001,9.300277000000001,-1
784,785,1583933719779,0.90129995,-4.5843,7.9578,9.787199000000001,-9.620611,7.8726425,-1
785,786,1583933719789,2.1596,-4.4625,6.4709,10.725861,-9.689267,6.3751370000000005,-1
786,787,1583933719799,2.6318998,-4.3065,5.3311,10.532725,-9.743385,5.777007599999999,-1
787,788,1583933719810,2.1575,-4.2371,5.369,9.652339,-9.989481,6.44907,-1
788,789,1583933719820,1.276,-4.4093,6.0903997,8.559721000000001,-10.342032000000001,6.896747,-1
789,790,1583933719830,0.4236,-4.6597,6.0232,8.160885,-11.02619,5.9141855,-1
790,791,1583933719841,0.6658,-5.3828998,4.1217,9.103339,-11.800925,3.231071,-1
791,792,1583933719851,2.241,-5.6615,1.1697999,10.959842,-11.7746935,0.562647,-1
792,793,1583933719861,4.2611,-5.3711,-1.2669,12.248448,-11.710586,-0.8944353999999999,-1
793,794,1583933719871,5.4289,-5.3075,-2.2414,12.8581085,-11.930451,-1.0513898000000002,-1
794,795,1583933719881,5.5371,-5.422000000000001,-1.7531999,12.18777,-12.207249000000001,-0.23821348,-1
795,796,1583933719891,4.5629,-5.5822,-0.83669996,10.738416,-12.376711,0.80517966,-1
796,797,1583933719901,3.0605,-5.6176,0.2586,9.210168,-12.339802,1.8148049,-1
797,798,1583933719912,1.7050999,-5.383899700000001,1.1524999,7.9668016,-11.916373,2.4980335,-1
798,799,1583933719923,0.593,-4.8149,1.6182,6.901851700000001,-11.458132,2.6556964,-1
799,800,1583933719932,-0.311,-4.5148997,1.2363,6.224465,-11.644535000000001,0.55561763,-1
800,801,1583933719942,-0.5237,-4.7349997,-1.2249,6.854494,-11.768756,-1.9556893,-1
801,802,1583933719952,0.7902,-4.6549997,-4.3831,8.660086,-11.481481,-4.3734884,-1
802,803,1583933719962,2.6639999999999997,-4.2464,-6.214299700000001,10.182147,-11.176574,-5.0475902999999995,-1
803,804,1583933719972,3.6523,-4.0192,-6.2753997,10.059813499999999,-11.120569,-4.137899,-1
804,805,1583933719982,3.2939,-3.9629998,-5.2072,8.945628,-11.247816,-3.028282,-1
805,806,1583933719992,2.1178,-4.0713,-4.1050997,8.016237,-11.118233,-2.3404662999999997,-1
806,807,1583933720002,1.044,-3.7319,-3.2505999,6.856562599999999,-10.446582000000001,-1.6479291,-1
807,808,1583933720012,0.0906,-3.1260000000000003,-2.7161,6.17366,-10.023268,-1.4018531,-1
808,809,1583933720022,-0.7644,-2.6504998,-2.474,5.3865323,-9.608007,-1.3978882,-1
809,810,1583933720032,-1.4281,-2.2623,-2.5586998,5.044717299999999,-9.18297,-1.8399918999999998,-1
810,811,1583933720042,-1.5429,-1.9474,-3.0791,5.306499,-8.976666999999999,-2.4135467999999998,-1
811,812,1583933720053,-1.0397,-1.724,-3.9392,6.153242,-8.827825,-3.7778205999999996,-1
812,813,1583933720063,-0.265,-1.6035999,-5.2177,6.914521700000001,-8.840523,-4.7781462999999995,-1
813,814,1583933720073,0.4906,-1.6486,-6.0688996,7.310235499999999,-8.975221000000001,-4.884621599999999,-1
814,815,1583933720083,0.7894,-1.7746998999999999,-6.0214996,7.1901517,-9.040869,-4.430920599999999,-1
815,816,1583933720093,0.6087,-1.7986,-5.5183,6.786173299999999,-9.039892,-3.6512055,-1
816,817,1583933720103,0.1352,-1.7988,-4.6124997,6.124502,-9.063873,-2.4192355,-1
817,818,1583933720114,-0.55009997,-1.8425,-3.3853,5.4860163,-9.210207,-1.3323541,-1
818,819,1583933720124,-1.0699999,-1.9856999,-2.4833998999999998,5.2615742999999995,-9.31581,-0.9068853000000001,-1
819,820,1583933720134,-1.2918,-2.0974998,-2.0426,5.4804044,-9.327503,-1.0437570999999999,-1
820,821,1583933720144,-0.968,-2.0881,-2.3207,6.088378400000001,-9.136877,-1.9061868000000002,-1
821,822,1583933720154,-0.3538,-1.8596,-3.2684,6.621749,-8.957542,-2.7759907000000004,-1
822,823,1583933720164,0.16399999,-1.7087,-4.1032,7.034461500000001,-8.884146000000001,-3.3992205,-1
823,824,1583933720174,0.49199998,-1.6581999,-4.589299700000001,7.1643424,-8.8172035,-3.3212655,-1
824,825,1583933720185,0.627,-1.5924,-4.515,6.944171400000001,-8.683214,-2.7415621,-1
825,826,1583933720195,0.4008,-1.4631,-3.9375,6.4325013,-8.652252,-1.6742845000000002,-1
826,827,1583933720205,-0.1366,-1.4469,-2.8408,6.050339,-8.605556,-0.8768140999999999,-1
827,828,1583933720215,-0.6186,-1.3945999,-1.8718,5.678625,-8.357574000000001,-0.07637503,-1
828,829,1583933720226,-0.93179995,-1.1853,-1.217,5.6289690000000006,-8.2272625,0.23215137,-1
829,830,1583933720236,-0.9945,-1.0713999,-0.9386,5.725887,-8.186427,0.37114915,-1
830,831,1583933720246,-0.90419996,-1.0324,-0.81869996,5.9024730000000005,-8.211403,0.17419253,-1
831,832,1583933720256,-0.4658,-1.0639,-1.3143,6.255982,-8.179914,-0.13312720000000003,-1
832,833,1583933720266,-0.0831,-1.0192,-1.6049999,6.6199965,-8.141138,-0.42987412,-1
833,834,1583933720277,0.228,-0.9468,-1.9291999,6.906601400000001,-8.057742999999999,-0.6617860999999999,-1
834,835,1583933720287,0.2976,-0.8002,-1.7246,6.911045,-7.885753599999999,-0.33877954,-1
835,836,1583933720297,0.027199998,-0.69729996,-1.1284,6.6169224,-7.8165702999999995,0.30761662,-1
836,837,1583933720308,-0.2865,-0.7154,-0.5383,6.3495374,-7.7911152999999995,0.8825601999999999,-1
837,838,1583933720318,-0.5025,-0.675,0.042,6.1577044,-7.7315190000000005,1.4569867,-1
838,839,1583933720328,-0.6473,-0.71129996,0.57019997,6.0565739999999995,-7.793969000000001,1.9780512,d
839,840,1583933720339,-0.593,-0.84499997,0.6953,6.1925836,-7.901669999999999,1.9674592,-1
840,841,1583933720349,-0.264,-0.941,0.23539999,6.678290400000001,-7.9907823,1.2452434,-1
841,842,1583933720359,0.30449998,-0.9579,-0.6048,7.314937599999999,-7.965624000000001,0.48723918,-1
842,843,1583933720369,0.9529,-0.99429995,-1.2145,7.7856380000000005,-8.024023,0.13374011,-1
843,844,1583933720379,1.4022,-1.1115,-1.3600999,8.247182,-8.126581,0.17311037,-1
844,845,1583933720390,1.5105,-1.156,-1.1043,8.197613,-8.174225999999999,0.5310148,-1
845,846,1583933720400,1.2578,-1.3238,-0.7309,7.891107000000001,-8.424822,0.8824069999999999,-1
846,847,1583933720410,0.99039996,-1.7113,-0.4016,7.7546277,-8.861046,1.3841263000000001,-1
847,848,1583933720421,0.9977,-2.1283,0.0262,7.953567,-9.3287,1.6284882,-1
848,849,1583933720431,1.3025,-2.6511,0.0367,8.5044155,-9.746718,1.2722691000000002,-1
849,850,1583933720441,2.0233,-2.9661,-0.61829996,9.545883,-9.908116,0.40414125,-1
850,851,1583933720451,3.1980999,-3.0835998,-1.6316998999999999,10.800541,-9.981119999999999,-0.78387123,-1
851,852,1583933720462,4.3206997000000005,-3.1841,-2.7998,11.592246000000001,-10.151902999999999,-1.6061838,-1
852,853,1583933720472,4.808799700000001,-3.4757998,-3.3488998,11.739412,-10.545835499999999,-1.5189773000000002,-1
853,854,1583933720482,4.7945,-3.8428,-3.0008,11.6304865,-10.853203,-0.6884958000000001,-1
854,855,1583933720492,4.5209,-4.3174,-1.6487,11.211539,-11.296322,1.1769223999999998,-1
855,856,1583933720502,4.0994997,-4.7132998,-0.1574,11.051319,-11.519117,1.7764881000000001,-1
856,857,1583933720512,3.9097,-4.9691997,0.1999,11.116135,-11.606132,1.3089674999999998,-1
857,858,1583933720522,3.9664998,-5.0924,-0.39399999999999996,11.436345,-11.557865,0.48050672,-1
858,859,1583933720533,4.2523,-5.14,-1.2442,11.875182,-11.641738,-0.540266,-1
859,860,1583933720543,4.6379,-5.3283997,-2.3264,12.283672,-11.77657,-1.9007089,-1
860,861,1583933720553,4.9233,-5.5424,-3.8169,12.699085,-11.586921,-3.684054,-1
861,862,1583933720564,5.3684998,-5.3229,-5.523,13.503364999999999,-10.849373,-3.7427788,-1
862,863,1583933720574,5.9378,-4.7883,-5.3069997,13.577748000000001,-10.703144,-1.8685212,-1
863,864,1583933720584,5.8185,-4.7778997,-2.7595,12.942144,-10.811103999999998,1.0122589,-1
864,865,1583933720595,4.9409,-5.0348,0.1318,11.874244000000001,-10.952448,3.236884,-1
865,866,1583933720606,3.9122,-5.3146,2.0549,11.668304,-10.410171,3.9115605,-1
866,867,1583933720616,3.5674,-4.9549,2.9143,11.709763,-9.341505,3.4080790999999997,-1
867,868,1583933720626,3.4610999,-4.0797,2.5711,11.597838000000001,-8.267217,2.2893164,-1
868,869,1583933720636,3.2126,-3.2077,1.6003,11.271461,-7.6009107,1.1808873,-1
869,870,1583933720646,2.0367,-2.2968,-0.30359998,10.634546,-6.8070507,0.23371239,-1
870,871,1583933720656,1.8471999,-1.9937999,0.32889998,10.625323,-6.282001999999999,0.9570199,-1
871,872,1583933720667,1.8471999,-1.9937999,0.32889998,10.62496,-5.927957,1.9100271,-1
872,873,1583933720677,1.5712999,-1.5626999,3.2512999,10.530092,-5.42641,3.8593763999999995,-1
873,874,1583933720687,1.2185999,-1.3684,4.6162,10.187414,-5.0115620000000005,4.995808,-1
874,875,1583933720698,0.4994,-1.412,5.1278,9.463187,-4.906955,5.3938303,-1
875,876,1583933720708,-0.0655,-1.6711999,5.3403997,9.091426,-4.914712000000001,5.453685299999999,-1
876,877,1583933720718,-0.2688,-1.8065,5.2,9.0822315,-4.813332,5.218038,-1
877,878,1583933720728,-0.1787,-1.8734,4.4830000000000005,9.342051,-4.5695252,4.000577,-1
878,879,1583933720738,0.1143,-1.6215,3.1499999,9.667039,-3.9196910000000003,2.7585417999999997,-1
879,880,1583933720749,0.1568,-0.9798,2.3472,9.6618,-3.0001357000000004,2.3147428,-1
880,881,1583933720759,-0.023599999,-0.33929998,2.2958998999999998,9.370714,-2.289125,2.3071099999999998,-1
881,882,1583933720769,-0.6034,-0.0654,2.444,8.690215,-1.8706186000000002,2.5626387999999998,-1
882,883,1583933720779,-1.5608,-0.0844,2.9162,7.742149400000001,-1.792491,3.039391,-1
883,884,1583933720789,-2.4134,-0.3685,3.3283,7.0980134,-1.7778479999999999,3.1791837000000003,-1
884,885,1583933720799,-2.7972999,-0.4109,3.1599,6.892514,-1.4009911,2.6445967999999995,-1
885,886,1583933720810,-2.8990998,0.0079,2.3906999,6.9318075,-0.6384281999999999,1.8318613000000001,-1
886,887,1583933720820,-2.6411998,0.6349,1.9389,7.4562144,0.23744734,1.3939713,-1
887,888,1583933720830,-2.1232,0.96059996,1.7148999,7.8414416,0.6125709,1.2634873,-1
888,889,1583933720840,-1.8271998999999999,1.1898999,1.6665,7.915844,0.9637811,1.2512769,-1
889,890,1583933720850,-2.2052999,1.1718,1.6962,7.440805,0.9821207000000001,1.2900629,-1
890,891,1583933720860,-3.12,0.7567,1.6279,6.223488,0.58398414,1.0687621,-1
891,892,1583933720871,-3.7475,0.3014,1.3435999,6.0325074,0.46364194,0.91425943,-1
892,893,1583933720881,-3.6373,0.2077,1.1586,6.6012545,0.7433805,0.7414746999999999,-1
893,894,1583933720891,-2.8786,0.3999,0.903,7.219016000000001,0.9764511999999999,0.5728367,-1
894,895,1583933720901,-2.4624,0.39519998,0.6841,7.3448553,0.8617019,0.43763134,-1
895,896,1583933720911,-2.5454,0.069299996,0.4385,6.8977046,0.5787551999999999,0.10509588,-1
896,897,1583933720921,-3.1959999,-0.3098,-0.1236,6.2239379999999995,0.3206315,-0.50689083,-1
897,898,1583933720932,-3.6885,-0.5760000000000001,-0.5934,5.944267,0.32040164,-0.3987974,-1
898,899,1583933720942,-3.9350998,-0.57159996,-0.4086,5.6317277,0.4482233,-0.01925896,-1
899,900,1583933720952,-4.1714,-0.5809,-0.14,5.39156,0.475929,0.3155462,-1
900,901,1583933720962,-4.5445,-0.6052,0.13499999,4.988462999999999,0.58024913,0.5006659000000001,-1
901,902,1583933720972,-4.7802,-0.5668,0.23169999,5.035561599999999,0.8685014999999999,0.7617105,-1
902,903,1583933720982,-4.6923,-0.2694,0.4633,4.9917474,1.289517,1.0205716,-1
903,904,1583933720992,-4.888499700000001,0.1563,0.8675,4.4622269999999995,1.4561726000000002,1.8830779999999998,-1
904,905,1583933721002,-5.6432,-0.076699995,1.8784,3.2632967999999996,0.8787965,2.7357776,-1
905,906,1583933721013,-6.6035,-0.64309996,2.2863,2.7519913,0.61141205,2.4182968,-1
906,907,1583933721022,-6.9469,-0.87619996,1.8589,2.952386,0.8508993,1.9095196,-1
907,908,1583933721032,-6.6447997,-0.61289996,1.3073,3.4752123,1.1742123,1.3959153999999998,-1
908,909,1583933721042,-6.1089997,-0.3252,0.7479,3.8493974000000004,1.2544659,0.6218891,-1
909,910,1583933721052,-5.7506,-0.3114,-0.174,4.3054833,1.3232561,-0.39035064,-1
910,911,1583933721062,-5.2457,-0.22129999,-1.1327,4.9237905,1.541933,-0.49468037,-1
911,912,1583933721073,-4.6142,-0.0084999995,-1.0257,5.5461397,1.5844156999999999,0.39596266,-1
912,913,1583933721083,-3.9936,-0.020299999,-0.117699996,6.045733,1.4784483,1.258268,-1
913,914,1583933721093,-3.5695,-0.124299996,0.5991,6.0967965,1.4601375,1.4233049999999998,-1
914,915,1583933721103,-3.5762,-0.1264,0.6324,5.9206786,1.6030712999999999,1.1994376,-1
915,916,1583933721117,-3.7584,0.015099999499999999,0.37739998,5.8633904,1.8149773,0.91185564,-1
916,917,1583933721127,-3.7508,0.2659,-0.0884,5.9338274,1.9119328000000002,0.6783061,-1
917,918,1583933721138,-3.3859,0.2628,-0.2528,6.5021825,1.9062058999999998,0.6323278,-1
918,919,1583933721148,-2.7292,0.24769999,-0.091299996,7.025114500000001,1.8560331,0.7801458,-1
919,920,1583933721158,-2.0451999,0.112399995,0.0321,7.879538,1.6990021,0.95844686,-1
920,921,1583933721168,-1.4211999,0.0788,0.2502,8.380175,1.6914077,1.0718553,-1
921,922,1583933721179,-1.1406,0.005699999599999999,0.0497,8.560525,1.5548999,0.6458885999999999,-1
922,923,1583933721189,-1.0554,-0.080299996,-0.4865,8.626031,1.5404198,0.13963942,-1
923,924,1583933721199,-0.9988,0.0169,-0.78069997,8.787533999999999,1.5845018999999998,-0.027408822000000003,-1
924,925,1583933721209,-0.6382,0.0251,-0.78,9.228077,1.6083577,-0.028155811,-1
925,926,1583933721219,-0.1891,0.070999995,-0.7978,9.660097,1.6956502,-0.020906169,-1
926,927,1583933721230,0.17189999,0.2026,-0.8323,9.900216,1.761395,-0.18113573,-1
927,928,1583933721241,0.22929999,0.2324,-1.0392,9.816083,1.7808073,-0.39650854,-1
928,929,1583933721251,0.081199996,0.2087,-1.0864999,9.685417,1.7610407,-0.20480002,-1
929,930,1583933721261,-0.0075,0.2015,-0.6505,9.649438,1.8580729,0.48582184,-1
930,931,1583933721271,-0.0471,0.3399,0.0319,9.539648,2.0257053,0.97068596,-1
931,932,1583933721282,-0.204,0.46809998,0.40829998,9.352336,2.088874,0.9890064000000001,-1
932,933,1583933721292,-0.35099998,0.4701,0.309,9.268519,2.0157838,0.8222838,-1
933,934,1583933721302,-0.3904,0.38709998,0.1762,9.341409,1.9402707,0.6583671999999999,-1
934,935,1583933721312,-0.273,0.3074,-0.0315,9.520916999999999,1.9299947,0.47413809999999995,d
935,936,1583933721322,-0.047799997000000004,0.3972,-0.1274,9.716217,2.0884428,0.44956407,-1
936,937,1583933721332,0.049599998,0.489,-0.15799999,9.715823,2.1007683,0.39443037,-1
937,938,1583933721343,0.0492,0.5121,-0.21939999,9.743117,2.079326,0.4092936,-1
938,939,1583933721353,0.0881,0.45659998,-0.18419999,9.740216,1.885003,0.57422537,-1
939,940,1583933721363,0.0685,0.2534,-0.0148,9.674012,1.776172,0.71747524,-1
940,941,1583933721374,-0.058399998,0.1944,0.2032,9.510239,1.8007078999999997,0.9380961,-1
941,942,1583933721384,-0.3714,0.23969999,0.5143,9.034041,1.8612811999999999,1.4314643999999999,-1
942,943,1583933721395,-0.7043,0.2545,0.9001,8.670228,1.8049886000000002,2.0686095,-1
943,944,1583933721405,-0.9977,0.19569999,1.4627,8.303436,1.6261992,2.8485348,-1
944,945,1583933721415,-1.3601999,0.014599998999999999,2.2542999,8.100848,1.5683937,3.6635501000000006,-1
945,946,1583933721425,-1.5654999,-0.0514,3.0781999,7.9930806,1.7225324,3.7772362,-1
946,947,1583933721436,-1.6728,0.090799995,3.1894999,7.549032700000001,2.082036,3.0731304,-1
947,948,1583933721446,-2.3586,0.71559995,2.0379,7.236656699999999,2.404851,2.5715928,-1
948,949,1583933721456,-2.3586,0.71559995,2.0379,6.9986057,2.6354225,2.7020576000000003,-1
949,950,1583933721466,-3.0181,1.1508,2.6482,6.557028999999999,2.7847437999999998,3.3563259,-1
950,951,1583933721476,-3.6971,1.3070998999999999,3.645,5.759128,2.9832425,4.4176564,-1
951,952,1583933721486,-5.1310997,1.6941998999999999,5.2072997,4.182430999999999,3.4405828,5.980122,-1
952,953,1583933721497,-7.093899700000001,2.2154,6.7096,2.1431265,3.977468,7.315301400000001,-1
953,954,1583933721507,-9.3511,2.8086998,7.7018,-0.075225815,4.561385,8.108405,-1
954,955,1583933721517,-10.8454,3.4759998,8.3829,-1.3735535,5.2092276,8.704235,-1
955,956,1583933721528,-11.3636,3.7519,8.5026,-1.6658853999999998,5.3089695,8.586211,-1
956,957,1583933721538,-10.9745,3.5619,7.8788996,-0.9532849,4.929661299999999,7.601284,-1
957,958,1583933721548,-10.0492,3.3565,7.0965,-0.0028060044,4.654903,6.619259,-1
958,959,1583933721558,-9.2416,3.1564999,6.1084,0.815513,4.213297,5.414353,-1
959,960,1583933721569,-8.4203,2.7910000000000004,5.1871,1.6678201000000001,3.6837378,4.5476327,-1
960,961,1583933721579,-7.6614,2.2124999,4.9205,2.2190897,2.9844682000000002,4.2920947,-1
961,962,1583933721589,-7.0235,1.0961,4.9849997,3.0501267999999997,1.2694153000000001,4.2338486,-1
962,963,1583933721599,-6.1247,-0.5627,5.303999999999999,4.052933,-0.62420666,4.350217,-1
963,964,1583933721609,-4.9462,-2.0523,5.4091997,5.244796,-2.0678241,4.019606,-1
964,965,1583933721620,-3.9017,-3.0061,4.865999700000001,6.1316557000000005,-3.03285,3.0276308,-1
965,966,1583933721630,-3.2293,-3.5726,3.4715998,6.671433400000001,-3.7167394,1.1186094,-1
966,967,1583933721640,-2.6871,-3.9599998,1.3082,7.194624,-4.2010098,-0.9842371999999999,-1
967,968,1583933721650,-2.0001,-4.0629,-0.84389997,8.465083,-4.496397,-3.7902991999999998,-1
968,969,1583933721660,-0.498,-3.9510998999999996,-2.9245,9.999794999999999,-4.5001316,-5.127566000000001,-1
969,970,1583933721670,1.7242,-3.7003998999999994,-3.9928,12.575362,-4.382193599999999,-5.697731,-1
970,971,1583933721680,3.5795,-3.3154,-3.8465998,13.738284,-4.3183737,-4.8803887,-1
971,972,1583933721691,4.2328,-3.2695,-2.6959999,13.754220000000002,-4.8814993,-3.5432940000000004,-1
972,973,1583933721701,4.0936,-3.8985,-1.6631999,13.540398999999999,-5.8950324,-3.794599,-1
973,974,1583933721711,3.8857,-4.8599,-2.8084998,13.370907999999998,-7.0788402999999995,-6.105492,-1
974,975,1583933721722,3.9496998999999997,-5.8683,-5.4551,14.095039000000002,-7.9569472999999995,-8.903146000000001,-1
975,976,1583933721732,4.8043,-6.1994,-7.5172,15.095738,-7.9426494000000005,-9.88676,-1
976,977,1583933721742,6.1735997000000005,-5.9214997,-8.4642,16.393291,-7.52217,-10.346705,-1
977,978,1583933721752,7.2616,-5.1815,-8.7206,16.818185999999997,-6.725264500000001,-9.198177000000001,-1
978,979,1583933721762,7.236399700000001,-4.4614,-7.3834995999999995,15.9160595,-6.4914565,-7.1615458,-1
979,980,1583933721772,6.1586,-4.2702,-5.5343,14.267767000000001,-6.745261,-5.737254599999999,-1
980,981,1583933721783,4.4407997,-4.4961,-4.4325,13.269585000000001,-6.9173565,-5.3786697,-1
981,982,1583933721795,2.9973998,-4.7334,-4.4614997,12.001003,-7.3043647,-6.1458874,-1
982,983,1583933721805,2.5182,-4.9349,-5.394,12.529269000000001,-7.379447,-6.5350019999999995,-1
983,984,1583933721816,3.0637,-4.8963,-5.7576,13.223176,-7.1953235,-6.342307,-1
984,985,1583933721826,3.7598998999999997,-4.6436,-5.702999999999999,13.138957999999999,-6.8935770000000005,-6.497844000000001,-1
985,986,1583933721836,3.6827,-4.2661,-6.0137,12.586642999999999,-6.703477400000001,-7.287069,-1
986,987,1583933721846,3.0497,-3.7526998999999996,-7.4946,12.520660000000001,-6.4951053,-7.7326107,-1
987,988,1583933721856,3.3867998,-3.7896998,-7.8257,12.883438,-6.663016000000001,-7.923381,-1
988,989,1583933721866,3.8214,-4.0891,-7.6814,13.263926000000001,-6.993913,-7.5736547000000005,-1
989,990,1583933721876,3.8214,-4.0891,-7.6814,13.203496,-7.3383335999999995,-7.327531,-1
990,991,1583933721887,3.2703,-4.8176,-7.3989,12.52881,-7.753574400000001,-7.286867599999999,-1
991,992,1583933721897,2.7452,-4.8736,-7.2253,12.050227,-7.766483999999999,-7.0369034,-1
992,993,1583933721907,2.3560998,-4.7289,-7.1657996,11.65599,-7.621146,-7.0005784,-1
993,994,1583933721917,2.0349,-4.5488,-7.1534996,11.345058,-7.422293700000001,-6.8471966,-1
994,995,1583933721927,1.7521,-4.275,-6.8610997000000005,11.072417,-7.169935000000001,-6.5059843,-1
995,996,1583933721937,1.5074999,-4.1629,-6.8254,10.821035,-7.1044583,-6.5161934,-1
996,997,1583933721948,1.2811999,-4.4087,-7.3753,10.634038,-7.382999999999999,-7.040514,-1
997,998,1583933721958,1.2597,-4.6191,-7.4954,10.631625,-7.5165771999999995,-6.9322004,-1
998,999,1583933721968,1.1982,-4.6061,-6.9220996,10.392732,-7.452077,-6.1603384000000005,-1
999,1000,1583933721978,0.57699996,-4.5291,-6.3749,9.6143675,-7.242412,-5.487625,-1
1000,1001,1583933721988,-0.2311,-4.0475,-5.5211997,8.864714,-6.5563583,-4.5103599999999995,-1
1001,1002,1583933721998,-0.96059996,-3.2186,-4.6668997,8.099163,-5.712345,-3.4717648000000003,-1
1002,1003,1583933722009,-1.6991999,-2.7347999,-3.6199,7.619317,-5.4650526,-2.6194097999999997,-1
1003,1004,1583933722019,-1.6991999,-2.7347999,-3.6199,7.717977499999999,-5.5938419999999995,-2.1953394,-1
1004,1005,1583933722030,-1.3798,-3.0699,-3.2484,8.2274065,-5.899849,-2.4183736000000002,-1
1005,1006,1583933722041,-0.8109,-3.4501998,-3.6894,8.848127,-6.293465599999999,-2.886622,-1
1006,1007,1583933722051,-0.1818,-3.8641,-4.184,9.427131,-6.63553,-3.1889427,-1
1007,1008,1583933722061,0.0854,-3.9921,-4.2608,9.437647,-6.605640400000001,-2.9142509999999997,-1
1008,1009,1583933722071,0.018199998999999998,-3.8497999,-3.6994,9.289282,-6.2644577,-1.7768712,-1
1009,1010,1583933722081,-0.23799999,-3.5465,-2.2930999,8.802216,-6.0361557,0.018904617,-1
1010,1011,1583933722092,-0.8415,-3.4071998999999997,-0.428,8.261873,-5.9913940000000006,1.4351037,-1
1011,1012,1583933722102,-1.4944998999999999,-3.4887,0.88229996,7.617852,-6.2028017,2.5090754,-1
1012,1013,1583933722112,-1.8414999,-3.6838,1.3333,7.591534599999999,-6.2872887,2.6657903,-1
1013,1014,1583933722122,-1.7807,-3.7293,1.4031999,7.819913000000001,-6.320894,2.4588354,-1
1014,1015,1583933722132,-1.5065998999999999,-3.8004,1.0748,8.226878999999998,-6.440182,2.0368528,-1
1015,1016,1583933722142,-1.0598999,-3.8995998,0.5915,8.700299000000001,-6.451962,2.0883377,-1
1016,1017,1583933722152,-0.5909,-3.8358,0.7822,9.04448,-6.2657986,3.0891425999999997,-1
1017,1018,1583933722163,-0.2606,-3.5856998,1.7705,9.16126,-6.031119,3.9927718999999997,-1
1018,1019,1583933722173,-0.19909999,-3.3314998,2.5995,8.888665,-5.6666346,4.8223724,-1
1019,1020,1583933722183,-0.5155,-2.9294,3.3769998999999995,8.421864,-5.3499393,5.457966000000001,-1
1020,1021,1583933722194,-0.9835,-2.6627998,3.9524998999999994,8.019139,-5.245734,5.9733032999999995,-1
1021,1022,1583933722204,-1.3655,-2.5663,4.5158,7.6739335,-5.075267299999999,7.110674,-1
1022,1023,1583933722214,-1.6401,-2.4208998999999998,5.5037,7.330356,-4.8385572,8.352671,-1
1023,1024,1583933722224,-1.9827,-2.1952999,6.7458,6.945924000000001,-4.686276400000001,9.178326,-1
1024,1025,1583933722234,-2.363,-2.0354,7.5614996,6.955682799999999,-4.568874,9.351963,-1
1025,1026,1583933722245,-2.3574998,-1.9083999,7.7216997,7.4485529999999995,-4.263939,8.9671755,-1
1026,1027,1583933722255,-1.8569,-1.5848,7.312999700000001,8.178842,-4.2141495,8.793549,-1
1027,1028,1583933722267,-0.1713,-1.3531,7.9614997,9.292251,-3.9916801,9.958817,-1
1028,1029,1583933722278,0.4973,-0.7471,9.0745,9.701277000000001,-3.2914239999999997,11.211577,-1
1029,1030,1583933722288,0.0037999998,-0.2793,10.1043,9.01685,-2.941612,12.166719,-1
1030,1031,1583933722298,-1.546,0.1767,11.5113,6.968621300000001,-2.4224918,13.827319000000001,-1
1031,1032,1583933722308,-3.1968,0.4181,12.293099,5.8076534,-2.2461731,14.195184,-1
1032,1033,1583933722318,-4.0784,0.44219998,12.2132,5.1575894,-2.2433,13.93457,-1
1033,1034,1583933722328,-3.6761,0.3899,11.3862,6.1191583,-2.2753057,12.773899,-1
1034,1035,1583933722338,-2.0196,0.4007,9.669,7.6167507,-2.298204,11.288708999999999,-1
1035,1036,1583933722348,0.081599995,0.3965,7.6629996,10.020041,-2.2950625,9.053042,-1
1036,1037,1583933722358,1.7857,0.5973,6.2285,11.395624,-2.0408942999999997,8.118049000000001,-1
1037,1038,1583933722369,2.4582,0.8416,6.0915,11.524155,-1.9271121,8.544896000000001,-1
1038,1039,1583933722379,1.8814,0.7787,7.1509,10.778141,-2.046037,9.529977,-1
1039,1040,1583933722390,1.0004,0.55799997,7.9051,9.809083,-2.2824788,9.917492,-1
1040,1041,1583933722400,0.4987,0.3762,7.710099700000001,9.764445,-2.4286304,9.101318,-1
1041,1042,1583933722410,0.6274,0.1551,6.6608996,10.177176,-2.6371653,7.879002000000001,-1
1042,1043,1583933722420,1.212,-0.121199995,5.5362,11.007821,-2.9053063,7.0814743,-1
1043,1044,1583933722430,2.1141999,-0.37489998,5.045,11.84039,-3.1505012999999997,6.77584,-1
1044,1045,1583933722441,2.1141999,-0.37489998,5.045,12.290155,-3.4809299,6.1528206,-1
1045,1046,1583933722451,3.0862,-1.0547,3.8253,12.510709,-3.7464757000000004,4.9822474,-1
1046,1047,1583933722461,3.2805,-1.2906,2.5805,12.656115,-3.8308187000000005,3.9323902000000004,-1
1047,1048,1583933722472,3.3553,-1.3514,1.8226,12.629271000000001,-3.7355769999999997,3.7637424,-1
1048,1049,1583933722482,3.2401998,-1.3141999,2.0131,12.384784,-3.6870800999999997,4.226589700000001,-1
1049,1050,1583933722492,2.8960000000000004,-1.4432,2.3988,12.138296,-3.7248607000000002,4.441981299999999,-1
1050,1051,1583933722504,2.717,-1.5002999,2.5918,11.916229,-3.7452881000000002,4.3778167,-1
1051,1052,1583933722512,2.4682999,-1.6599,2.4162998,11.761057000000001,-4.1101356,4.088108999999999,-1
1052,1053,1583933722522,2.3541,-2.1876,2.2052999,11.990258,-4.4425273,4.380115,-1
1053,1054,1583933722533,2.6188998,-2.5528,2.6608999,12.390558,-4.3777595,4.9431167,-1
1054,1055,1583933722543,2.9601998,-2.5124,3.2154,12.368455,-4.0183325,4.94033,-1
1055,1056,1583933722556,2.7524,-2.2391999,3.1292999,11.558353,-3.4737375,3.9339128,-1
1056,1057,1583933722566,1.1216999,-1.6536,0.8716,10.528281,-3.0103257,2.3130862999999997,-1
1057,1058,1583933722576,1.1216999,-1.6536,0.8716,10.056969,-2.7365918,1.590018,-1
1058,1059,1583933722587,0.47509998,-1.4445,-0.0894,10.0094,-2.564506,1.4354101000000001,-1
1059,1060,1583933722598,0.8006,-1.5863999,0.106199995,10.649543,-2.7091734,1.8908831000000001,-1
1060,1061,1583933722608,1.3276,-1.8337,0.41700000000000004,11.048235,-2.7967627,1.9881258999999998,-1
1061,1062,1583933722618,1.4611,-2.0249,0.2061,11.094952000000001,-2.8488700000000002,1.5808243999999998,-1
1062,1063,1583933722628,1.2227,-2.0094,-0.3136,10.812445,-2.5444138,0.8582158999999999,-1
1063,1064,1583933722638,0.92719996,-1.64,-0.6755,10.570477499999999,-2.0935667000000002,0.60086805,-1
1064,1065,1583933722648,0.53569996,-1.3840000000000001,-0.515,10.059219,-1.7607151,0.8403360999999999,-1
1065,1066,1583933722658,0.0287,-1.3665,0.0323,9.583377,-1.6180493999999999,1.409409,-1
1066,1067,1583933722668,-0.47559997,-1.3878,0.63199997,9.19948,-1.5320305,1.7107241000000002,-1
1067,1068,1583933722678,-1.0062,-1.5024998999999999,0.7488,8.539907000000001,-1.4944607,1.5066712,-1
1068,1069,1583933722688,-1.5236,-1.5116,0.24069999,8.104804,-1.3510096999999999,0.72144,-1
1069,1070,1583933722698,-1.7830000000000001,-1.4422,-0.5424,7.992995,-1.1790103,0.07871178,-1
1070,1071,1583933722708,-1.6872,-1.3325,-1.0187,8.170357000000001,-0.9526433000000001,-0.52554643,-1
1071,1072,1583933722719,-1.4724,-1.4099,-1.2507,8.436036999999999,-1.0245748,-0.64331245,-1
1072,1073,1583933722728,-1.1681,-1.5916,-0.94089997,8.78536,-1.1247288999999998,-0.24871926,-1
1073,1074,1583933722738,-0.7448,-1.7246,-0.4517,9.134903999999999,-1.0912676000000001,0.047031697000000004,-1
1074,1075,1583933722748,-0.41799998,-1.6443,-0.37379998,9.376824000000001,-0.8239789000000001,-0.13464032,-1
1075,1076,1583933722758,-0.4912,-1.4801999,-0.6196,9.160857,-0.5667363000000001,-0.4794340999999999,-1
1076,1077,1583933722768,-0.8859999999999999,-1.2629,-0.9916,8.719156,-0.18828002,-0.92825115,-1
1077,1078,1583933722779,-1.3179,-1.0092,-1.3001,8.220913000000001,0.17142484,-1.4201063,-1
1078,1079,1583933722789,-1.8362,-0.7348,-1.9117998999999999,7.818668,0.49043787,-2.032275,-1
1079,1080,1583933722799,-2.1768,-0.4353,-2.7889,7.552394400000001,0.97096366,-3.2424388,-1
1080,1081,1583933722809,-1.9675,-0.10789999,-3.58,7.986147,1.3893073999999999,-3.8206095999999996,-1
1081,1082,1583933722820,-1.3068,0.070599996,-3.4838,8.750826,1.483093,-3.3031366,-1
1082,1083,1583933722830,-0.802,-0.1025,-2.6787999,8.882517,1.38789,-2.6028993,-1
1083,1084,1583933722840,-1.0302,-0.2157,-1.7106999,8.050073,1.5087492,-1.622924,-1
1084,1085,1583933722850,-2.1181,-0.1241,-1.0385,6.763869000000001,1.6675519,-1.2866918999999999,-1
1085,1086,1583933722860,-3.3018,-0.0953,-0.8287,5.90911,1.8821968999999998,-1.399545,-1
1086,1087,1583933722870,-3.8778,0.1282,-0.99939996,5.5506697,2.2884834,-1.7227814,-1
1087,1088,1583933722881,-4.1231,0.4269,-1.3955,5.481247,2.5857282,-2.4244359,-1
1088,1089,1583933722891,-4.0576,0.5754,-2.1629,5.4892726,2.7069228,-3.3586245000000003,-1
1089,1090,1583933722901,-4.0924,0.6177,-3.1706,5.520378,2.7946463,-4.2210730000000005,-1
1090,1091,1583933722911,-4.0003,0.6346,-3.582,5.577791,2.8283567,-3.9631412000000004,-1
1091,1092,1583933722921,-4.0248,0.61869997,-2.8857,5.3134995,2.92695,-2.8327525000000002,-1
1092,1093,1583933722931,-4.4293,0.65419996,-1.5698,4.543505000000001,2.9536119,-1.6152817,-1
1093,1094,1583933722942,-5.4694,0.5367,-0.5295,2.9980192000000003,2.8845916000000003,-0.84090114,-1
1094,1095,1583933722952,-6.7251997,0.4491,-0.0052,2.1319027000000004,2.9912007000000003,-0.80561054,-1
1095,1096,1583933722962,-7.6505,0.6085,-0.1436,1.5454860000000001,3.2504258,-1.2408668,-1
1096,1097,1583933722972,-7.9925,0.82519996,-0.5639,1.3582498,3.4872410000000005,-1.4507713,-1
1097,1098,1583933722982,-8.1046,0.94439995,-0.6735,1.368315,3.5837654999999997,-1.9029976999999998,-1
1098,1099,1583933722992,-8.0547,1.0705999,-1.2256,1.5044302,3.8610332,-2.4777880000000003,-1
1099,1100,1583933723003,-7.929199700000001,1.3852,-1.7163999,1.5689298999999999,4.032103500000001,-2.6928735,-1
1100,1101,1583933723013,-7.8729997,1.5589,-1.8822999,1.4437037,4.2488364999999995,-2.5949602,-1
1101,1102,1583933723023,-8.0709,1.8018,-1.6156,0.80101365,4.4574385,-1.95409,-1
1102,1103,1583933723034,-8.856,1.9943,-0.86139995,-0.39534974,4.5162783,-1.1138496,-1
1103,1104,1583933723044,-10.1024,2.0516,0.0004,-2.0988626,4.5025167,-0.50649816,-1
1104,1105,1583933723054,-11.538799000000001,2.0623999,0.49319997,-3.0881658,4.198003,-0.32035375,-1
1105,1106,1583933723064,-12.5412,1.8138,0.6899,-3.1760714,3.7972517,-0.75393414,-1
1106,1107,1583933723074,-12.6514,1.5022,0.2617,-2.70653,3.6454593999999996,-1.8172374,-1
1107,1108,1583933723084,-12.2118,1.4815999,-0.8125,-2.2309842,3.6418777,-2.2731220000000003,-1
1108,1109,1583933723095,-11.63,1.6057999,-1.357,-1.1636298999999999,3.4169855000000005,-2.2583257999999997,-1
1109,1110,1583933723105,-10.7436,1.5684999,-1.2945,-0.44179723,3.2093794,-1.6603693,-1
1110,1111,1583933723116,-10.0483,1.545,-0.6856,-0.8890819999999999,2.8312776,-0.63125527,-1
1111,1112,1583933723126,-11.4536,0.6101,1.3062999,-2.0973015,1.6430353,0.4373919,-1
1112,1113,1583933723137,-12.2764,-0.036599997,1.6164,-2.7734911,0.8959581,0.46138182,-1
1113,1114,1583933723147,-12.5822,-0.5639,1.1211,-2.8588588,0.19243635,-0.21693382,-1
1114,1115,1583933723157,-12.017099,-1.1022,-0.1655,-2.0791247,-0.58296895,-1.4985882,-1
1115,1116,1583933723167,-10.7239,-1.3682,-0.7831,-0.6839851,-1.1010263999999998,-1.7905755,-1
1116,1117,1583933723178,-9.3537,-1.5597999,-0.10229999599999999,0.8614912,-1.7390044999999998,-0.5761407,-1
1117,1118,1583933723188,-8.392999999999999,-1.8468,1.1594,1.4897106000000002,-2.3161794999999996,0.4138713,-1
1118,1119,1583933723198,-7.8012996,-2.6083998999999998,1.6933,2.3016992000000003,-3.7053049,0.76837593,-1
1119,1120,1583933723208,-6.882899799999999,-3.4422998,1.7328999,3.1547245999999998,-4.791487,1.0200735,-1
1120,1121,1583933723218,-6.1678,-3.9589,2.2205,3.6014635999999998,-5.5287004,1.5053782,-1
1121,1122,1583933723228,-6.1176,-4.1703997,2.4108999,3.4396348,-5.921895,1.5708836000000002,-1
1122,1123,1583933723238,-6.3792,-4.1912,2.5772,3.174041,-6.2429575999999996,1.8977017,-1
1123,1124,1583933723248,-6.2918997,-4.0913,3.1639999999999997,3.2297685,-6.644082000000001,2.5274055,-1
1124,1125,1583933723258,-5.5566,-5.4216,2.997,4.5800505,-9.278097,2.0951755000000003,-1
1125,1126,1583933723268,-2.9805999,-7.6098,1.9661,7.00462,-11.179216,1.1852638999999998,-1
1126,1127,1583933723278,0.743,-8.9542,0.4563,10.987921,-13.096819,-0.46376646,-1
1127,1128,1583933723289,3.0965,-9.8133,-0.3655,12.328444000000001,-14.256676,-0.40215886,-1
1128,1129,1583933723299,3.4601998,-10.3674,0.862,12.064603,-14.937616,0.98168015,-1
1129,1130,1583933723309,2.7294,-10.3278,2.441,10.857063,-15.199895999999999,2.5552259999999998,-1
1130,1131,1583933723319,1.9847,-10.537399,3.0297,10.254586,-16.169346,3.2407532000000003,-1
1131,1132,1583933723329,2.4387999,-11.623,3.3873,11.275225,-17.581917,3.2964040999999997,-1
1132,1133,1583933723339,4.8160996,-12.24,2.1827,13.932472,-18.18694,1.6581474999999999,-1
1133,1134,1583933723349,7.9505,-12.3403,0.49809998,16.175407,-18.553175,0.8881339,-1
1134,1135,1583933723360,10.4962,-12.6734,1.3385,18.408383999999998,-19.286856,2.802059,-1
1135,1136,1583933723370,11.513599000000001,-12.5594,3.4578,18.286032000000002,-18.846610000000002,4.840252400000001,-1
1136,1137,1583933723380,10.814,-11.6249,4.1732,16.82079,-18.202023,4.824939,-1
1137,1138,1583933723390,9.5728,-10.8874,3.6527,15.7752905,-17.57798,3.9351387000000004,-1
1138,1139,1583933723400,9.0904,-9.963699,2.3546999,15.616047,-16.799088,2.8621533,-1
1139,1140,1583933723410,9.4508,-8.6869,0.89559996,16.110909,-15.497371,1.7544231,-1
1140,1141,1583933723421,10.0427,-7.7201996,0.4466,16.102213,-15.0771885,2.1740117000000003,-1
1141,1142,1583933723431,9.749,-7.4481997,1.2434,15.054223,-15.103381,3.4127237999999998,-1
1142,1143,1583933723441,8.6053,-7.4311,2.4417,13.736436,-15.187035,4.571508000000001,-1
1143,1144,1583933723451,7.4508996,-7.3915997,3.4619999999999997,12.680515,-14.928653,5.4635777,-1
1144,1145,1583933723462,6.6850996,-6.8265996,4.0902,12.024055,-13.934607999999999,5.2772326,-1
1145,1146,1583933723471,6.3434,-5.8412,3.4519,11.966315,-13.039177,4.242583,-1
1146,1147,1583933723481,6.4848,-4.6798997,2.0212,12.126862,-12.145172,3.2865782,-1
1147,1148,1583933723491,6.6528997,-3.5482,0.8576,11.999184,-10.839738,2.0127096,-1
1148,1149,1583933723501,6.3711,-2.6125998,-0.1399,11.3104,-10.049662,1.282478,-1
1149,1150,1583933723511,6.3711,-2.6125998,-0.1399,10.90625,-9.786549,1.1961911,-1
1150,1151,1583933723522,4.5162,-1.1815,-0.2809,9.160694,-8.702558999999999,2.3511732000000003,-1
1151,1152,1583933723532,3.5061998,-0.6493,0.6616,8.31874,-8.420292,2.983319,-1
1152,1153,1583933723542,2.4791,-0.43039998,1.2364,7.392519,-8.539897999999999,2.9410182999999996,-1
1153,1154,1583933723552,1.9236,-0.6217,0.9242,7.422935000000001,-8.744879,2.0470424,-1
1154,1155,1583933723562,2.1167998,-0.76199996,-0.0739,7.991701600000001,-8.520581,1.1892383,-1
1155,1156,1583933723572,2.7598,-0.47,-0.94299996,8.423836,-8.279217,0.5205474,-1
1156,1157,1583933723582,3.1450999,-0.29799998,-1.6933999,8.594083,-8.250821,-0.034993652,-1
1157,1158,1583933723593,3.3507,-0.1595,-2.2579,8.653267999999999,-7.754666,-0.0021452047,-1
1158,1159,1583933723602,3.3112998,0.3383,-2.0500998,8.391494999999999,-7.413444500000001,0.37449145,-1
1159,1160,1583933723612,2.8016999,0.6369,-1.4827,7.6083326,-7.277003999999999,1.1387973,-1
1160,1161,1583933723622,1.8090998999999999,0.6971,-0.46249998,6.475722,-7.281486,2.2392874,-1
1161,1162,1583933723632,0.6669,0.599,0.62909997,5.5644026,-7.599158,3.0822377,-1
1162,1163,1583933723642,0.0928,0.2573,1.2227,5.625301400000001,-8.056489,3.478593,-1
1163,1164,1583933723652,0.2795,-0.14989999,1.5512999,6.0927739999999995,-8.057944,3.2744443,-1
1164,1165,1583933723663,0.7635,-0.076,1.1603999,6.523041200000001,-7.8839625999999985,2.537442,-1
1165,1166,1583933723673,1.3237,0.1525,-0.0436,7.093042999999999,-7.592703299999999,0.81377,-1
1166,1167,1583933723683,1.7277,0.39729998,-1.5353,7.2519507,-7.42373,0.06767929,-1
1167,1168,1583933723693,1.8601999,0.5026,-2.0551,7.087948,-7.480463,0.5925266,-1
1168,1169,1583933723703,1.6171,0.4105,-1.3798,6.6848600000000005,-7.4655137,1.6393194,-1
1169,1170,1583933723714,1.1563,0.41509998,-0.3558,6.018927,-7.607624,2.4812548,-1
1170,1171,1583933723724,0.41459998,0.2021,0.41239998,5.236626599999999,-7.8271914,2.9854162,-1
1171,1172,1583933723734,-0.3559,-0.021699998999999998,0.86219996,4.8107557,-8.053912,3.37321,-1
1172,1173,1583933723744,-0.7161,-0.2926,1.23,4.8398595,-8.387022,3.6837760999999998,-1
1173,1174,1583933723754,-0.65139997,-0.5597,1.4422,5.2150115999999995,-8.695013000000001,3.5186144999999995,d
1174,1175,1583933723765,-0.2698,-0.87259996,1.2228,5.8473489999999995,-8.968717999999999,2.8885278999999997,-1
1175,1176,1583933723775,0.376,-1.1644,0.5177,6.507929,-9.056461,1.6327688999999999,-1
1176,1177,1583933723785,1.0641999,-1.2508,-0.8021,6.932047,-9.085287,0.8599684999999999,-1
1177,1178,1583933723796,1.5013,-1.2890999,-1.6487,6.9870753,-9.145574,1.3429938999999997,-1
1178,1179,1583933723806,1.5503,-1.3569,-1.1861,6.53461,-9.339158,2.9834054,-1
1179,1180,1583933723816,0.5564,-1.6926999,1.6351999,5.943979,-9.472975,4.3439817000000005,-1
1180,1181,1583933723827,0.10529999400000001,-1.7874999,2.4756,5.581976,-9.55998,4.9954543,-1
1181,1182,1583933723837,0.0023,-1.8168999,2.6288,5.60836,-9.504233000000001,4.9977903,-1
1182,1183,1583933723847,0.0023,-1.8168999,2.6288,5.980275,-9.318605999999999,4.2879385999999995,-1
1183,1184,1583933723857,1.2257,-1.4403,0.27719998,7.032335300000001,-9.10083,2.4815612000000002,-1
1184,1185,1583933723868,2.1936,-1.3549,-0.7241,8.208588,-9.000762,1.4905629999999999,-1
1185,1186,1583933723878,3.0269999999999997,-1.3388,-1.3094,8.838453999999999,-8.922644,1.2095506,-1
1186,1187,1583933723889,3.4041997999999998,-1.3264999,-0.9697,9.053981,-9.001805000000001,1.9439673,-1
1187,1188,1583933723899,3.1281998,-1.5943999,0.036399997999999996,8.682706,-9.272006,3.0084197999999995,-1
1188,1189,1583933723909,2.7439999999999998,-1.9670999,1.1844,8.507776,-9.644975,4.1248074,-1
1189,1190,1583933723919,2.8295,-2.2958,1.9398999,8.930047,-9.83426,4.339117,-1
1190,1191,1583933723930,3.5965998,-2.4909,1.2330999,9.689679,-9.971582000000001,3.4242256,-1
1191,1192,1583933723940,4.5516,-2.6511998,-0.5862,10.955838,-10.039845,1.2980021000000002,-1
1192,1193,1583933723950,5.5846,-2.7171,-1.8305999,11.959602,-10.071832,0.6567295999999999,-1
1193,1194,1583933723960,6.2815,-2.9343998,-1.4518,12.566811,-10.380492,1.5351428999999999,-1
1194,1195,1583933723970,6.404,-3.4638998999999995,-0.0278,12.539028,-10.940075,3.428832,-1
1195,1196,1583933723980,6.114,-3.9183,1.7156,12.338854,-11.079417,4.608168,-1
1196,1197,1583933723990,5.7653,-3.9954998,2.4945,12.176766,-10.812914,4.555783,-1
1197,1198,1583933724001,5.5053997,-3.7133,2.1977,12.109193,-10.340757,4.0479345,-1
1198,1199,1583933724011,5.2977,-3.3437997999999998,1.7961999,12.034914,-10.000245,3.7327232000000006,-1
1199,1200,1583933724021,5.0525,-3.2085,1.3485,11.850886000000001,-9.784192,3.0600195,-1
1200,1201,1583933724032,4.7388,-3.1887999,0.8246,11.593749,-9.57581,2.6341772,-1
1201,1202,1583933724042,4.246,-3.1373,0.49229997,11.219238,-9.424306,2.30146,-1
1202,1203,1583933724052,3.8665998,-3.1413,0.3234,11.168157,-9.195296,2.2966812,-1
1203,1204,1583933724062,3.7003,-2.9529998,0.5003,11.2407675,-8.809656,2.54948,-1
1204,1205,1583933724072,3.6123,-2.8667998,0.7712,11.186333,-8.588825,2.644616,-1
1205,1206,1583933724082,3.3490998999999997,-2.7674,0.9378,10.811181,-8.261766999999999,2.6766982000000006,-1
1206,1207,1583933724093,2.7842999,-2.6167998,1.0332999,10.377352,-8.069561,2.555255,-1
1207,1208,1583933724103,2.1058,-2.5809999,0.85569996,9.820144,-7.8293175999999995,2.0387584999999997,-1
1208,1209,1583933724113,1.5799999,-2.569,0.48529997,9.652789,-7.7275352,1.7790546000000003,-1
1209,1210,1583933724123,1.3448,-2.7145,0.3813,9.843061,-7.7850437,2.1349576,-1
1210,1211,1583933724134,1.4878,-2.9389,0.96849996,10.290134,-7.7184944,2.8740764,-1
1211,1212,1583933724144,1.8101,-3.0108,1.7020998999999999,10.504817999999998,-7.341858,2.725923,-1
1212,1213,1583933724154,1.8184999,-2.79,1.3833,10.254519,-6.665371400000001,1.3382056,-1
1213,1214,1583933724165,1.453,-2.4187,0.2757,9.751593,-6.100004,0.40032968,-1
1214,1215,1583933724175,0.84239995,-2.0916,-0.5451,9.249462,-5.643871,0.5554069,-1
1215,1216,1583933724185,0.2149,-1.8830999,-0.26839998,8.627161,-5.2906303,1.5225686,-1
1216,1217,1583933724196,-0.52419996,-1.7795999,0.84779996,8.100216,-5.1998425,2.7540598,-1
1217,1218,1583933724206,-1.1463,-1.9332999,2.2347,7.8206697,-5.2449684,3.7963898,-1
1218,1219,1583933724216,-1.61,-2.1787999,3.6818,7.811294,-4.896448599999999,3.7976542,-1
1219,1220,1583933724226,-1.6678,-2.0791,2.8816,7.836299,-4.5432754,2.8134744,-1
1220,1221,1583933724236,-1.4512999,-1.8143,2.0618,8.241417,-3.8692598,1.7500179,-1
1221,1222,1583933724247,-0.96199995,-1.0229,0.8181,8.769041,-2.7908347,0.30264625,-1
1222,1223,1583933724257,-0.5354,-0.132,-0.5039,9.187911999999999,-1.6635872,-0.8279724,-1
1223,1224,1583933724268,-0.6035,0.7083,-0.7543,8.958174,-0.8141435,-0.925991,-1
1224,1225,1583933724278,-1.2544999,0.9375,-0.1792,8.31398,-0.49250644,-0.30453286,-1
1225,1226,1583933724288,-2.0656,0.65779996,0.5955,7.5290174,-0.5726643,0.32637757,-1
1226,1227,1583933724298,-2.5361,0.39769998,1.2768999,7.206739,-0.656222,0.9314210999999999,-1
1227,1228,1583933724310,-2.1561,-0.3383,2.3927,8.013785,-1.3985011999999999,2.3186693,-1
1228,1229,1583933724320,-1.1816,-0.97389996,3.5019998999999995,9.00736,-1.6630029999999998,2.7347338,-1
1229,1230,1583933724331,-0.6149,-1.1844,3.1121,9.163222,-1.4122821,1.2511907,-1
1230,1231,1583933724341,-0.7227,-0.9499,1.2962999,8.681078,-0.8019139,-0.6702233,-1
1231,1232,1583933724351,-1.4363999,-0.47849998,-0.34489998,7.704530999999999,-0.22635740000000001,-1.8941966000000001,-1
1232,1233,1583933724361,-2.52,-0.1996,-1.0796,6.568435000000001,0.027935546000000002,-1.8742481,-1
1233,1234,1583933724371,-3.5214,-0.3048,-0.47669998,5.7913822999999995,0.1894484,-0.6324428000000001,-1
1234,1235,1583933724382,-4.2048,-0.2368,1.0301,4.9996485999999996,0.5719173000000001,0.8601218,-1
1235,1236,1583933724392,-4.8557,-0.1166,2.0657,4.455686,0.8029960999999999,1.1047517,-1
1236,1237,1583933724402,-5.357599700000001,-0.0661,2.1492,4.113794,0.87863374,0.76440156,-1
1237,1238,1583933724412,-5.6161,-0.26319999,1.8242999,4.0983367,0.6753276999999999,0.35376725,-1
1238,1239,1583933724422,-5.4981,-0.5191,1.4778999,4.36304,0.5147342,0.19464861,-1
1239,1240,1583933724432,-5.2885,-0.7818,1.2939,4.1403985,0.60612565,-0.11895351,-1
1240,1241,1583933724442,-5.5920000000000005,-0.6698,1.0590000000000002,3.725081,0.9481901,-0.17770723,-1
1241,1242,1583933724452,-6.2016,-0.3739,0.87909997,2.9727175,1.1284543,-0.7407852,-1
1242,1243,1583933724462,-6.7437997,-0.35529998,0.2604,2.6206646,1.1498106000000001,-1.2847191,-1
1243,1244,1583933724472,-7.0607996,-0.436,-0.23099999,2.5540195,1.0786933,-1.1659858,-1
1244,1245,1583933724482,-7.0477,-0.5615,0.008599999,2.8799565,0.8949526,-0.5910039,-1
1245,1246,1583933724492,-6.6326,-0.7916,0.5636,3.5057147000000004,0.81349224,-0.17148229999999998,-1
1246,1247,1583933724502,-5.992999999999999,-0.8531,0.862,4.1550894,0.6769940999999999,-0.31416714,-1
1247,1248,1583933724513,-5.3444,-1.0637,0.616,4.676163,0.56021446,-0.93220633,-1
1248,1249,1583933724523,-4.8816,-1.1281999,-0.068799995,4.8107653,0.75131965,-1.7834696,-1
1249,1250,1583933724533,-4.8294997,-0.90559995,-0.9888,4.589254,0.87015826,-2.7611467999999997,-1
1250,1251,1583933724543,-5.0506,-0.88689995,-1.9496,4.7017045,0.71437234,-3.5836699999999997,-1
1251,1252,1583933724553,-4.7897,-1.1286,-2.7210999,5.535403700000001,0.43125317,-3.8791142,-1
1252,1253,1583933724563,-3.8416997999999998,-1.4404,-2.8134,6.6496944000000004,0.41797975,-2.9831178,-1
1253,1254,1583933724575,-2.7265,-1.383,-1.7415999,7.676452,0.83908147,-1.1025299,-1
1254,1255,1583933724584,-1.9034,-1.0795,-0.139,7.7484025999999995,1.2628647,0.24942793,-1
1255,1256,1583933724594,-1.8813,-0.58239996,1.4864998999999999,7.1474009999999994,2.154992,1.2815874,-1
1256,1257,1583933724604,-2.4061,0.1122,2.2201,6.4872904,2.5605507000000003,0.7008786,-1
1257,1258,1583933724614,-3.0493,0.4463,1.6425999,6.102044599999999,2.6790736,-0.23409545,-1
1258,1259,1583933724624,-3.4204998,0.5067,0.7055,6.234453,2.5676377,-1.2037375,-1
1259,1260,1583933724635,-3.2949998,0.35959998,-0.2782,7.1037307,2.3473232000000004,-2.1997447,-1
1260,1261,1583933724645,-2.4187999,0.1241,-1.281,8.552299,2.2392106,-2.8917935000000003,-1
1261,1262,1583933724655,-0.95729995,0.0,-1.9798,9.725717,2.3032413,-3.0020034,-1
1262,1263,1583933724665,0.2095,0.0634,-2.1118,10.209595,2.4842715,-2.5840237,-1
1263,1264,1583933724675,0.70159996,0.22479999,-1.7089,9.980689,2.6186821,-1.8395034,-1
1264,1265,1583933724685,0.47129998,0.33269998,-0.99549997,9.445557,2.7362373,-1.2516408,-1
1265,1266,1583933724695,-0.19749999,0.44889998,-0.2843,8.618542,2.9645099999999998,-0.43931687,-1
1266,1267,1583933724705,-0.8846,0.59099996,0.3725,8.22415,3.0387017999999997,0.09916783,-1
1267,1268,1583933724715,-1.268,0.6311,0.87289995,8.093187,2.8856737999999997,0.32259473,-1
1268,1269,1583933724725,-1.3792,0.4495,1.1014,8.277733,2.5687008,-0.05809291,-1
1269,1270,1583933724736,-1.1998,0.12889999,0.75119996,9.034184,2.3248942,-0.67335486,-1
1270,1271,1583933724745,-0.4464,-0.1052,0.1471,10.043101,2.328093,-1.3034417999999999,-1
1271,1272,1583933724755,0.55869997,-0.0736,-0.4734,10.537332000000001,2.3091597999999998,-1.6883336,-1
1272,1273,1583933724765,1.0526999,-0.0716,-0.86319995,10.562941,2.2344797,-1.6365901000000003,-1
1273,1274,1583933724775,1.0674,-0.1365,-0.8329,10.397817,2.1657947999999996,-1.2705837,-1
1274,1275,1583933724785,0.7198,-0.301,-0.036399997999999996,10.179072999999999,2.0740395,-0.7296951999999999,-1
1275,1276,1583933724795,0.7198,-0.301,-0.036399997999999996,10.101664,2.1974270000000002,-0.6342814999999999,-1
1276,1277,1583933724805,0.6023,-0.1802,0.10229999599999999,10.019619,2.3637667,-0.65424913,-1
1277,1278,1583933724815,0.49589998,0.0266,0.0817,9.695215,2.5734506,-0.6051009,-1
1278,1279,1583933724825,0.20369999,0.1735,0.1144,9.360946,2.7420695,-0.63861984,-1
1279,1280,1583933724835,-0.1275,0.3408,0.081999995,9.168107000000001,2.776709,-0.68297,-1
1280,1281,1583933724846,-0.32259998,0.3654,0.030299998999999998,9.359605,2.736668,-0.36028907,-1
1281,1282,1583933724855,-0.1759,0.3567,0.2941,9.489687,2.6314096,-0.18726487,-1
1282,1283,1583933724865,0.0484,0.1859,0.5816,9.765661,2.4230855,-0.05850471,-1
1283,1284,1583933724875,0.2728,0.0356,0.66719997,9.886175999999999,2.3816752,-0.32818758,-1
1284,1285,1583933724885,0.3901,-0.0084,0.4041,9.888005,2.3632782000000003,-0.6478326999999999,-1
1285,1286,1583933724896,0.391,-0.0266,0.1063,9.8842125,2.3629813,-1.09981,-1
1286,1287,1583933724906,0.37289998,-0.0378,-0.2906,9.914619,2.425719,-1.1439879,d
1287,1288,1583933724916,0.377,0.1673,-0.31239998,9.833236,2.5700798,-1.0454329,-1
1288,1289,1583933724926,0.377,0.1673,-0.31239998,9.426145,2.5610392,-0.57457966,-1
1289,1290,1583933724937,0.0363,0.1382,0.1015,8.802723,2.560886,-0.085836925,-1
1290,1291,1583933724947,-1.1941998999999999,0.1663,0.8534,8.169188499999999,2.6060119,0.08536765,-1
1291,1292,1583933724957,-1.6449,0.2233,0.6861,7.813725999999999,2.6575735000000003,-0.15527835,-1
1292,1293,1583933724967,-1.5,0.2617,0.4026,8.093703999999999,2.7185874,-0.45139322,-1
1293,1294,1583933724977,-0.9654,0.37899998,0.0316,8.6121645,2.7791607000000003,-0.80879,-1
1294,1295,1583933724988,-0.5098,0.4008,-0.0345,9.0681925,2.7907295,-0.74623436,-1
1295,1296,1583933724999,-0.5427,0.35689998,0.3796,8.6433935,2.6845512,-0.16179058,-1
1296,1297,1583933725009,-1.5337,0.2803,0.99689996,7.419975999999999,2.5907466,0.39658514,-1
1297,1298,1583933725019,-2.866,0.14559999,1.1387,6.2099366,2.5624947999999996,0.26789203,-1
1298,1299,1583933725029,-3.7094,0.39519998,1.0527999,5.706963,2.9880595000000003,0.44761038,-1
1299,1300,1583933725039,-3.7705,0.9183,1.4082999,5.7920427000000005,3.4258822999999996,0.758598,-1
1300,1301,1583933725049,-3.5881,1.1261,1.5902,6.0827184,3.5820705999999998,1.207894,-1
1301,1302,1583933725059,-3.2777,1.413,2.3806998999999998,6.3280473,4.0101347,2.2702205,-1
1302,1303,1583933725070,-3.2977998,1.9583,3.8844,5.92585,4.3806996,3.6627934,-1
1303,1304,1583933725080,-4.2363,1.9933,5.104,4.4824532999999995,4.342191000000001,4.930504,-1
1304,1305,1583933725090,-5.5453997,2.0432,6.0011997,3.4173492999999997,4.470118,5.3969135,-1
1305,1306,1583933725101,-6.7783,2.1722999,6.224,2.1753237000000003,4.5670547,5.123266,-1
1306,1307,1583933725111,-7.5467997,2.2756,5.6452,1.8018379,4.768473999999999,4.1504254000000005,-1
1307,1308,1583933725121,-7.7356,2.6255999,4.4418,1.9123734000000001,5.0072145,2.5285451,-1
1308,1309,1583933725131,-7.501,2.8572,2.6413,2.2107674999999998,4.966408,0.7991941,-1
1309,1310,1583933725141,-7.212000000000001,2.7364,1.2128999,2.5975652,4.256718,0.5116122000000001,-1
1310,1311,1583933725152,-6.9235,2.0911,1.5659999999999998,2.8339877,3.333811,1.7161639,-1
1311,1312,1583933725162,-6.6414,0.96599996,3.3929,3.3751252,1.9284241000000002,4.1673284,-1
1312,1313,1583933725172,-6.1191998,0.0563,5.4989,3.7221982000000002,1.4305068,5.079031,-1
1313,1314,1583933725182,-5.6510997000000005,-0.4526,6.5755,4.033416000000001,0.9520781999999999,5.453197,-1
1314,1315,1583933725192,-5.6502,-0.4253,6.5305,3.6558695,1.085962,4.4268790000000005,-1
1315,1316,1583933725202,-6.1189,-0.1252,5.4031997,3.0719047,1.0147297,2.3292615000000003,-1
1316,1317,1583933725213,-6.6679997,-0.126,3.2746,2.9652857999999997,0.31605378,0.4144746,-1
1317,1318,1583933725223,-6.6303997,-0.7345,1.5912,3.830761,-0.57319105,-0.63231826,-1
1318,1319,1583933725233,-5.5608,-1.3639,0.7712,5.531631,-1.5433791000000001,-0.7113461,-1
1319,1320,1583933725243,-3.8265998,-2.1032,0.9902,6.9440756,-2.4780178,-0.12833878,-1
1320,1321,1583933725253,-2.4831998,-2.7835999,1.6863999,7.939153699999999,-3.2772023999999997,0.6161525999999999,-1
1321,1322,1583933725263,-1.078,-3.4724998,2.7368,9.988446000000001,-4.5072665,0.96119535,-1
1322,1323,1583933725274,0.759,-4.2609,2.6502,12.360832,-5.9334736,-1.5778651000000001,-1
1323,1324,1583933725284,2.7791997999999998,-5.1576,0.4437,14.104816,-6.8425136,-4.437700700000001,-1
1324,1325,1583933725294,5.02,-5.9742,-3.0554,16.507542,-7.834230000000001,-8.293343,-1
1325,1326,1583933725304,7.0176997000000005,-6.4711,-6.1503997,17.908333,-7.8844414,-9.874665,-1
