,Seq,Time,ACCx,ACCy,ACCz,ADGx,ADGy,ADGz,Keydown
0,1,1583551898387,-0.2644,-0.4403,-0.28239998,6.126542,-7.567286,1.4121959,-1
1,2,1583551898397,-0.1013,-0.2777,-0.5636,10.209278,1.1853501,0.1879161,-1
2,3,1583551898408,0.13409999,0.0155,-0.0002,9.819435,1.121942,-0.12249693,-1
3,4,1583551898418,-0.1679,-0.067499995,-0.47579998,9.563667,1.0981053,-0.5684600999999999,-1
4,5,1583551898429,-0.2443,-0.0053999997,-0.29709998,9.492435,1.1688205,-0.32518047,-1
5,6,1583551898439,-0.3999,-0.14459999,-0.2541,9.341821000000001,1.0146148000000001,-0.34470758,-1
6,7,1583551898449,-0.252,-0.1317,-0.0438,9.53759,1.0995516,-0.058973975,-1
7,8,1583551898459,-0.0654,0.0616,-0.1148,9.757397000000001,1.3416628000000002,-0.13760912,-1
8,9,1583551898470,0.1506,0.1672,0.20729999,9.870028999999999,1.3204597,0.15650418,-1
9,10,1583551898480,0.121599995,0.0072,0.3238,9.887421,1.155729,0.299687,-1
10,11,1583551898490,0.2687,-0.1295,0.4364,10.0772915,1.056207,0.27855098,-1
11,12,1583551898500,0.47419998,-0.1451,0.1528,10.302882,1.0331267,-0.073559456,-1
12,13,1583551898510,0.6509,-0.1256,-0.12709999,10.4828205,1.151477,-0.17047673,-1
13,14,1583551898521,0.8190000000000001,0.1371,0.37399998,10.451505000000001,1.4042663999999998,0.50426674,-1
14,15,1583551898530,0.40989998,0.21139999,0.6576,10.027481,1.4463371999999999,0.63188726,-1
15,16,1583551898540,-0.1352,0.20789999,0.8856,9.396102,1.4852573999999998,0.897433,-1
16,17,1583551898550,-0.4834,0.1902,0.71999997,9.238593,1.4923729,0.6116419,-1
17,18,1583551898560,-0.33089998,0.1639,0.2566,9.607549,1.5648790000000001,0.38259345,-1
18,19,1583551898570,0.2135,0.2794,0.6037,10.036263,1.6637881999999997,0.83572,-1
19,20,1583551898581,0.4148,0.24939999,0.90709996,10.177924,1.64225,1.3917207,-1
20,21,1583551898591,0.43039998,0.1786,1.5231,10.032117,1.5978136,2.028655,-1
21,22,1583551898601,0.1336,0.1427,1.9713999,9.666196000000001,1.6137878,2.5125422000000004,-1
22,23,1583551898611,-0.3082,0.093399994,2.3681,9.242021000000001,1.6015389,2.9679767999999997,-1
23,24,1583551898621,-0.63,0.0336,2.5791,8.937287,1.5667943000000002,2.9833765,-1
24,25,1583551898631,-0.7527,0.014599998999999999,2.1764997999999998,8.964494,1.611566,2.5867145000000002,-1
25,26,1583551898642,-0.57949996,0.0198,1.6330999,9.218328,1.6429013,2.390323,-1
26,27,1583551898652,-0.1918,-0.0164,1.505,9.574307000000001,1.6077256000000002,2.4916650000000002,-1
27,28,1583551898662,-0.021,-0.07809999599999999,1.6894,9.507528,1.5624944,2.965104,-1
28,29,1583551898672,-0.4648,-0.183,2.4112,8.556225999999999,1.4325563000000001,4.2440767,-1
29,30,1583551898683,-1.4448,-0.3628,3.3685,7.4955273,1.2786761999999998,5.3191690000000005,-1
30,31,1583551898693,-2.4364998,-0.4966,4.1085,6.723531200000001,1.27474,5.8292589999999995,-1
31,32,1583551898703,-3.2347999,-0.494,4.1131997,6.1055779999999995,1.430909,5.2155676,-1
32,33,1583551898713,-3.3722,-0.26729998,3.1457999,6.2433309999999995,1.7645457999999998,4.012251,-1
33,34,1583551898723,-3.1525,0.0195,1.9654,6.569488000000001,1.9990914,3.2163513,-1
34,35,1583551898734,-2.8200998,0.15869999,1.4409,6.8139935,1.9899455000000001,2.8923967,-1
35,36,1583551898744,-2.5793,0.066599995,1.2261,6.907722,1.8246881000000001,2.7867646,-1
36,37,1583551898754,-2.7238998,-0.076299995,1.3175,6.193072,1.7380372,3.1496298,-1
37,38,1583551898764,-3.5676,-0.13759999,1.7658999,4.805249,1.6917143,3.7460253,-1
38,39,1583551898774,-5.0074,-0.2305,2.3246,3.4495275000000003,1.6415893,3.7176015,-1
39,40,1583551898784,-6.2973,-0.29029998,2.1578,2.5285835,1.5614887,3.2068415,-1
40,41,1583551898794,-7.088299799999999,-0.4046,1.6310999,2.2105186000000003,1.4842997,2.8735494999999998,-1
41,42,1583551898804,-7.4529,-0.5531,1.3248,1.7471638999999999,1.0841328000000001,2.6575735000000003,-1
42,43,1583551898814,-7.8731,-0.9569,1.242,1.3466618000000001,0.75074506,2.5054746,-1
43,44,1583551898824,-8.367499,-1.3725,1.0381,0.7616147,0.21871512,1.9059952000000002,-1
44,45,1583551898834,-8.8855,-1.7717999,0.5,0.2652967,-0.21512379999999998,1.0321499,-1
45,46,1583551898845,-9.3969,-2.1257,-0.3836,-0.18735108,-0.85378194,-0.21541111,-1
46,47,1583551898855,-9.8424,-2.7573,-1.5263,-0.43837833,-1.7068743000000002,-0.9395901,-1
47,48,1583551898865,-10.0247,-3.5088,-1.9824,-0.06588843,-2.2690327,-0.8481315999999999,-1
48,49,1583551898875,-9.579599,-3.8388998999999995,-1.6867,0.55752337,-2.3025324,-0.34716883,-1
49,50,1583551898885,-8.8384,-3.5999,-0.9914,1.3774705,-1.6658664,0.08683291,-1
50,51,1583551898896,-8.3209,-2.9145,-0.80719995,1.5287553,-1.3596671,-0.119441934,-1
51,52,1583551898905,-8.2041,-2.4564,-1.0734,1.274242,-1.6259694,-0.76407593,-1
52,53,1583551898915,-8.5095,-2.7266,-1.7455,1.1875241,-2.8141925,-2.0401759999999998,-1
53,54,1583551898925,-8.5113,-3.8583,-3.1411998,1.7571908,-4.015852,-3.6726959000000003,-1
54,55,1583551898935,-7.8262,-4.835099700000001,-4.7005,2.8752925,-4.946124,-5.69866,-1
55,56,1583551898945,-6.6572,-5.4184,-6.5799,4.304487,-5.2821646,-7.162666000000001,-1
56,57,1583551898956,-5.187599700000001,-5.4465,-7.7682,5.684467,-5.1670894999999994,-7.904236999999999,-1
57,58,1583551898966,-3.8962998,-4.9848,-8.235499,6.6767106,-4.5167475,-7.4105043,-1
58,59,1583551898976,-3.1266,-4.1767,-7.7391,7.0769825,-4.2676263,-7.0229025,-1
59,60,1583551898986,-2.6337,-3.6827998,-7.292000000000001,7.404883,-4.707393,-6.8771625,-1
60,61,1583551898997,-2.3686,-3.8918998,-7.3300996,8.021447,-5.9478292,-8.416088,-1
61,62,1583551899006,-1.7236999,-4.8849998,-8.9199,9.416041,-6.810891000000001,-9.835955,-1
62,63,1583551899016,-0.29600000000000004,-5.4786997,-10.3811,10.664914,-7.076925,-10.957533,-1
63,64,1583551899026,0.9941,-5.4537,-11.5469,11.191360000000001,-7.101661999999999,-11.408696,-1
64,65,1583551899036,1.6272,-5.167000000000001,-11.9959,11.111614,-6.948663000000001,-10.281708,-1
65,66,1583551899047,1.5644,-4.7924,-11.0405,10.850617999999999,-7.509519,-9.811841000000001,-1
66,67,1583551899057,1.3859,-5.0924997,-10.7389,11.461542,-8.326047,-9.3941965,-1
67,68,1583551899067,2.0734,-5.6436,-10.4873,12.643645,-9.004545,-8.826454,-1
68,69,1583551899077,3.3709,-6.0474997,-10.0675,13.761574,-9.934204,-8.001346,-1
69,70,1583551899087,4.5878997,-6.7044,-9.363,14.134103,-10.775507000000001,-7.0424104000000005,-1
70,71,1583551899097,4.5501,-7.8595996,-8.814899,13.37517,-11.776330999999999,-7.409585000000001,-1
71,72,1583551899108,4.5501,-7.8595996,-8.814899,13.3839035,-12.143352499999999,-8.058174000000001,-1
72,73,1583551899118,5.6309,-8.0792,-10.6486,14.637958,-12.267239,-8.965721,-1
73,74,1583551899128,7.3444,-7.757999999999999,-10.5919,16.198776000000002,-12.107477000000001,-8.599197,-1
74,75,1583551899138,8.3959,-7.3423996,-9.5886,16.913607,-11.933142,-7.4338045,-1
75,76,1583551899148,8.3375,-7.1447997,-8.401899,16.520117000000003,-11.920452000000001,-6.2445188,-1
76,77,1583551899158,7.3838,-6.9206996,-7.5888,15.402216000000001,-11.822118,-5.498724500000001,-1
77,78,1583551899169,6.6478,-6.5943,-6.785,14.781533,-11.640953,-4.5919256,-1
78,79,1583551899179,6.9013995999999995,-6.3314,-5.6134,15.1199875,-11.51543,-3.4491062000000006,-1
79,80,1583551899189,7.8549,-6.0968,-5.117,16.088585000000002,-11.456036,-3.1387793999999998,-1
80,81,1583551899199,9.2508,-6.0895,-4.9005,17.409725,-11.610106,-2.8387860000000003,-1
81,82,1583551899209,10.5111,-6.1408,-4.1457,18.498148,-11.801969,-1.9652374,-1
82,83,1583551899219,11.1458,-6.5146,-2.8442,18.9258,-12.416914,-0.6793595,-1
83,84,1583551899230,11.1915,-7.4023,-1.8264999,18.925226000000002,-13.512788,0.27393496,-1
84,85,1583551899240,11.415,-7.949,-1.216,19.27949,-13.81146,0.84247166,-1
85,86,1583551899250,11.415,-7.949,-1.216,19.83397,-13.475841,1.7175619999999998,-1
86,87,1583551899260,12.1923,-7.2532,0.82839996,19.658072,-13.044588000000001,2.8685312,-1
87,88,1583551899270,11.3614,-7.0260997000000005,1.9399998999999999,18.55695,-12.898886,3.8390355000000005,-1
88,89,1583551899281,10.1292,-7.040899799999999,3.0435,17.530432,-13.022016,4.8836255,-1
89,90,1583551899291,9.4549,-7.3873997000000005,4.2402997000000004,17.202166000000002,-13.37155,5.9852266,-1
90,91,1583551899301,9.4613,-7.8651995999999995,5.3155,17.416763,-13.728372,6.7350330000000005,-1
91,92,1583551899311,9.704599,-8.106,5.8707,17.68163,-13.718276999999999,7.1042190000000005,-1
92,93,1583551899321,9.5494995,-7.915,5.8989,17.343664,-13.268513,6.917998,-1
93,94,1583551899332,8.705999,-7.4378,5.9311,16.383043,-12.571417,7.2658944000000005,-1
94,95,1583551899342,7.3413,-6.9112,6.7348,14.637498,-11.590484,8.224198,-1
95,96,1583551899352,5.5202,-6.212999999999999,7.4888997,12.832510000000001,-10.680831,8.587102,-1
96,97,1583551899362,3.5669999999999997,-5.5875,7.6849,11.206301,-9.869493499999999,8.574086,-1
97,98,1583551899372,2.119,-5.0315,7.8258996,10.513534,-9.142087,8.752282000000001,-1
98,99,1583551899383,1.3968999,-4.3286,7.928,10.055867,-8.048722,8.573436000000001,-1
99,100,1583551899393,1.0971,-3.8095,7.684,10.044767,-7.655133999999999,8.193102,-1
100,101,1583551899403,0.9529,-3.9176,7.4721,9.927423,-7.789353,8.21919,-1
101,102,1583551899413,0.6493,-4.4118,7.797000000000001,9.541038,-7.859551400000001,8.679364,-1
102,103,1583551899423,0.0094,-4.5315,8.2588,8.766025,-7.444186,8.550547,-1
103,104,1583551899434,-0.946,-4.2478,7.819,7.901134,-6.7060823,7.811801400000001,-1
104,105,1583551899443,-1.7551,-3.655,7.0245,7.496322,-5.6420894,7.0887136,-1
105,106,1583551899453,-2.1422,-2.8262,6.4758997,7.1333137,-4.646044,6.8240113,-1
106,107,1583551899463,-2.638,-2.2609,6.319,6.543085,-4.0577216,6.8814144,-1
107,108,1583551899473,-3.4106,-2.1462998,6.5132,5.7363925,-3.8715962999999998,7.172435000000001,-1
108,109,1583551899483,-4.2925,-2.2999,6.8687,4.8804364,-3.8092610000000002,7.68646,-1
109,110,1583551899495,-4.93,-2.5170999,7.3791,4.6743627,-3.8103626000000004,7.8022914000000005,-1
110,111,1583551899505,-5.1858997,-2.7854997999999997,7.2358,4.5240545,-3.9516492,6.866617999999999,-1
111,112,1583551899515,-5.2276998,-3.1545,6.3473,4.8083043,-4.0261087,5.8359239999999994,-1
112,113,1583551899525,-4.8898997,-3.3915,5.3136,5.1934547,-3.8641074,4.227384,-1
113,114,1583551899535,-4.6054997,-3.4438,3.9092,5.1914434,-3.4762468,3.2969019999999998,-1
114,115,1583551899546,-4.6693,-3.1246,2.8193998,4.323181,-2.6338613,3.2723758,-1
115,116,1583551899556,-5.4841,-2.6269,2.8789999999999996,3.3658069999999998,-2.3496982999999996,3.851744,-1
116,117,1583551899566,-7.1675997,-2.4218,3.9276,1.3887136,-1.9894474999999998,5.192027599999999,-1
117,118,1583551899576,-8.6416,-2.3546999,4.9075,0.5966255,-1.4690151000000002,5.145551,-1
118,119,1583551899586,-9.1909,-2.0958,4.7757998,0.8559462999999999,-0.800487,4.2533183,-1
119,120,1583551899600,-8.2073,-0.7413,2.0888999,1.753839,0.45748407,1.7583305,-1
120,121,1583551899611,-7.7545,-0.3649,0.87439996,2.1274781000000003,0.87560743,0.61868083,-1
121,122,1583551899621,-7.4880996,-0.0309,-0.1442,2.3339060000000003,1.390763,-0.45399812,-1
122,123,1583551899631,-7.2805995999999995,0.4447,-1.1517,2.6586175,2.0208595000000003,-1.9161370999999998,-1
123,124,1583551899642,-6.8385,0.8269,-2.4943,3.3818576,2.4341657000000003,-3.3366074999999995,-1
124,125,1583551899652,-6.0049996,1.1915,-3.6618998,4.022182,2.8685985,-3.8746612000000002,-1
125,126,1583551899662,-5.4168,1.6877999,-3.7656,4.3417892,3.3731525,-3.7210586,-1
126,127,1583551899672,-5.3472,1.8671,-3.4422998,4.2255650000000005,3.494098,-3.2942587999999997,-1
127,128,1583551899683,-5.5312,1.8860999,-2.9573,4.053652,3.6400387000000003,-2.8558037,-1
128,129,1583551899693,-5.6755,1.9973999,-2.5575,3.8827822,3.6616826000000002,-2.9560251,-1
129,130,1583551899703,-5.732599700000001,1.8163999,-2.8288,4.165997,3.4663446,-3.510187,-1
130,131,1583551899714,-5.1937,1.6321,-3.4053,4.986068700000001,3.3677607000000003,-4.180372,-1
131,132,1583551899723,-4.226,1.5236,-4.0151997,6.009934400000001,3.3161513999999994,-4.856226400000001,-1
132,133,1583551899733,-3.2798998,1.4943999,-4.506,6.755671,3.3742251000000003,-5.1778345,-1
133,134,1583551899743,-2.6678,1.5852,-4.6923,7.135917999999999,3.4357178,-5.4000544999999995,-1
134,135,1583551899753,-2.4764,1.5554999,-4.8954997,7.116113,3.2826421000000003,-5.648228,-1
135,136,1583551899764,-2.5314,1.3409,-4.9979,7.1902857000000004,2.9592237,-5.4179153,-1
136,137,1583551899774,-2.3209999,0.912,-4.4235,7.5984683,2.4109995,-4.384511,-1
137,138,1583551899784,-1.9159,0.48079997,-3.4703,8.098933,2.1240306,-3.6915622000000003,-1
138,139,1583551899794,-1.4057,0.2316,-2.8113,8.525972,1.9723433000000001,-3.254065,-1
139,140,1583551899805,-1.0241,0.11409999400000001,-2.3957999,8.902647,1.6685671000000002,-3.0937972,-1
140,141,1583551899815,-0.6461,-0.1934,-2.3323998,9.204298,1.4204607,-3.4459169999999997,-1
141,142,1583551899825,-0.3672,-0.3897,-2.7549,9.422247,1.2656516000000002,-4.029145,-1
142,143,1583551899835,-0.1568,-0.49719998,-3.3321998,9.730045,1.1992364,-4.338810400000001,-1
143,144,1583551899845,0.1626,-0.5204,-3.5228998999999996,10.144491,1.2316061000000003,-3.7075648,-1
144,145,1583551899855,0.513,-0.4614,-2.8948,10.23323,1.1978861,-2.6856047999999997,d
145,146,1583551899866,0.5901,-0.4784,-1.8647,10.034597,0.9804543,-1.9058421000000003,-1
146,147,1583551899876,0.3931,-0.6965,-1.0854,9.71841,1.0914878000000001,-1.6582720000000002,-1
147,148,1583551899886,0.0784,-0.5815,-0.8265,9.39819,1.1566101,-2.047301,-1
148,149,1583551899896,-0.29639998,-0.5002,-1.2978,9.347174,1.0319583,-2.1984804000000002,-1
149,150,1583551899906,-0.2906,-0.6074,-1.3725,9.712109,0.9229169,-1.7432661,-1
150,151,1583551899916,0.0665,-0.68729997,-0.93289995,10.156195,0.97819424,-1.3317412,-1
151,152,1583551899926,0.50119996,-0.59639996,-0.5378,10.457844999999999,1.1295077,-1.0681587,-1
152,153,1583551899937,0.7888,-0.41849998,-0.29389998,10.584574,1.2789251,-1.2276221999999999,-1
153,154,1583551899947,0.9202,-0.2453,-0.4827,10.525466,1.3199139,-1.7315058999999997,-1
154,155,1583551899957,0.85679996,-0.1866,-0.99329996,10.391534,1.3715328000000002,-1.8700726000000003,-1
155,156,1583551899967,0.71669996,-0.116299994,-1.1546,10.223069,1.36277,-1.4315794,-1
156,157,1583551899977,0.53889996,-0.1213,-0.72069997,10.150142,1.3366253000000001,-0.7673225,-1
157,158,1583551899987,0.46989998,-0.14989999,-0.0677,10.265072,1.480019,-0.5103479999999999,-1
158,159,1583551899998,0.6354,0.2082,0.1227,10.322495,1.7197071,-0.55579,-1
159,160,1583551900008,0.6339,0.2461,0.29709998,10.327964,1.6778758000000003,-0.35981979999999997,-1
160,161,1583551900018,0.6339,0.2461,0.29709998,10.335864,1.5591999,-0.31794998,-1
161,162,1583551900028,0.69659996,-0.1193,-0.13159999,10.446314,1.2718287,-0.96661586,-1
162,163,1583551900038,0.69659996,-0.1193,-0.13159999,10.74805,1.0686567,-1.6612886999999998,-1
163,164,1583551900048,1.5992998999999999,-0.2503,-1.6229,11.411398,1.1728332000000001,-2.384098,-1
164,165,1583551900058,2.0368,-0.023699999,-1.8719999999999999,11.810913000000001,1.4025905,-2.5170242999999997,-1
165,166,1583551900069,2.0644,0.1784,-1.6306,11.70505,1.5460606000000001,-2.110805,-1
166,167,1583551900079,1.6733999,0.19559999,-0.9421,11.243392,1.54449,-1.3938754999999998,-1
167,168,1583551900089,0.8926,0.0902,-0.0889,10.414404,1.4561822,-0.58317006,-1
168,169,1583551900099,0.0446,-0.049999997000000004,0.6141,9.599227,1.3326988000000002,0.084409975,-1
169,170,1583551900109,-0.4017,-0.16569999,0.9966,9.243975,1.3281211000000002,0.37878186,-1
170,171,1583551900119,-0.37939999,-0.0815,0.8591,9.417631,1.3571676000000001,0.055507172,-1
171,172,1583551900130,0.0224,-0.1678,0.46899998,9.934558,1.2548777,-0.4197706,-1
172,173,1583551900140,0.6084,-0.2617,-0.14379999,10.510957000000001,1.138328,-0.99873644,-1
173,174,1583551900150,1.1248,-0.34219998,-0.49839997,10.928161,1.0473101,-1.1967847,-1
174,175,1583551900160,1.2694,-0.44849998,-0.6195,10.926093,0.94287497,-1.3237733,-1
175,176,1583551900170,1.092,-0.4971,-0.7881,10.684604,0.9082165000000001,-1.403912,-1
176,177,1583551900181,0.84779996,-0.5369,-0.602,10.470092999999999,0.9137040000000001,-0.92915136,-1
177,178,1583551900191,0.6538,-0.45679998,0.076799996,10.256692999999999,1.0428184,-0.39179677,-1
178,179,1583551900201,0.41149998,-0.3315,0.1778,9.958653,1.1963059999999999,-0.54920113,-1
179,180,1583551900211,0.060999997,-0.24489999,-0.13769999,9.621952,1.2794806,-0.79137945,-1
180,181,1583551900221,-0.2705,-0.2042,-0.33969998,9.3345995,1.3023499,-0.9877326999999999,-1
181,182,1583551900231,-0.3676,-0.2465,-0.59349996,9.372955000000001,1.269377,-1.2840871,-1
182,183,1583551900242,-0.14209999,-0.2829,-0.9084,9.761447,1.2082962,-1.4001483000000001,-1
183,184,1583551900252,-0.14209999,-0.2829,-0.9084,10.064218499999999,1.1113883999999998,-1.0506715,-1
184,185,1583551900262,0.4657,-0.49199998,-0.1663,10.090305,1.0559195,-0.24966736,-1
185,186,1583551900272,0.2911,-0.4815,0.4588,9.755222,1.1484315,0.2965075,-1
186,187,1583551900282,-0.07809999599999999,-0.37109998,0.8013,9.393400999999999,1.2292311000000002,0.39145195,-1
187,188,1583551900292,-0.368,-0.3823,0.82129997,9.170223,1.2844604,0.32808223,-1
188,189,1583551900302,-0.59929997,-0.3041,0.5556,9.008759,1.4005313999999998,-0.090472095,-1
189,190,1583551900314,-0.6644,-0.23199999999999998,0.102,9.015194000000001,1.5843773,-0.4943356,-1
190,191,1583551900323,-0.6518,0.031,-0.1881,9.040122,1.8867744999999998,-0.5835435999999999,-1
191,192,1583551900333,-0.64,0.2395,-0.23429999,9.010981,1.9359226999999999,-0.5160175,-1
192,193,1583551900343,-0.6579,0.1374,-0.1502,9.006221,1.7698896000000002,-0.40531918,-1
193,194,1583551900353,-0.6272,-0.0398,-0.090399995,9.112743,1.5562407,-0.31964508,-1
194,195,1583551900364,-0.50839996,-0.23449999,-0.0075,9.219851,1.4531751,-0.13147998,-1
195,196,1583551900374,-0.40919998,-0.33139998,0.2031,9.290049,1.3977828,-0.04969405,-1
196,197,1583551900384,-0.3586,-0.3524,0.2332,9.241388,1.5170237,0.15411955,-1
197,198,1583551900394,-0.42499998,-0.2199,0.4094,9.152391,1.6887358000000001,0.35379595,-1
198,199,1583551900404,-0.5203,-0.0901,0.5493,8.998339,1.7484281000000004,0.3511815,-1
199,200,1583551900414,-0.6741,-0.0589,0.5354,8.797216,1.7447887999999998,0.38931635,-1
200,201,1583551900425,-0.88629997,-0.1087,0.5499,8.670783,1.6359963,0.33659604,-1
201,202,1583551900435,-0.9831,-0.23369999,0.4822,8.704714,1.5581559999999999,0.29050288,-1
202,203,1583551900445,-0.904,-0.2879,0.4262,8.850883999999999,1.6085683000000002,0.21249977,-1
203,204,1583551900455,-0.76699996,-0.2191,0.2676,9.070079,1.7035128000000002,-0.16315049,-1
204,205,1583551900465,-0.5129,-0.118099995,-0.14829999,9.390002,1.8543953999999998,-0.5761885999999999,-1
205,206,1583551900475,-0.19,0.0415,-0.5336,9.655346,1.9364400000000002,-0.5882361999999999,-1
206,207,1583551900486,0.045599997,0.098299995,-0.4637,9.667010000000001,1.8430566000000002,-0.030310594,-1
207,208,1583551900497,0.027999998999999998,-0.010799999,0.025799999,9.450594,1.7009558999999999,0.49645209999999995,d
208,209,1583551900507,-0.1935,-0.1785,0.5248,9.052927,1.5687863000000002,0.649116,-1
209,210,1583551900517,-0.84889996,-0.2365,0.6617,8.756524,1.7603607,0.55615395,-1
210,211,1583551900527,-0.92179996,0.1086,0.2908,8.690042,2.1603742,0.15895584,-1
211,212,1583551900537,-0.92179996,0.1086,0.2908,8.605201,2.4913967,-0.14861289,-1
212,213,1583551900547,-1.0153999,0.5083,-0.085599996,8.504539999999999,2.7735198,-0.3915573,-1
213,214,1583551900557,-1.1004,0.77669996,-0.33899999999999997,8.604167,2.8576137999999998,-0.61451495,-1
214,215,1583551900567,-1.0102,0.8555,-0.5743,8.772547,2.803457,-0.5026579000000001,-1
215,216,1583551900577,-0.83269995,0.79209995,-0.46359998,8.828667,2.3981282999999998,-0.06868486,-1
216,217,1583551900587,-0.6538,-0.0725,0.6236,8.949364,1.8457188999999998,0.73142856,-1
217,218,1583551900598,-0.7392,-0.5273,0.90639997,8.815135,1.4682681999999998,0.8689324,-1
218,219,1583551900608,-1.1272,-0.4985,0.44039997,8.354596,1.6328839,0.26371652,-1
219,220,1583551900618,-1.6805999,-0.0927,-0.6976,7.824787599999999,2.0796514,-0.91427857,-1
220,221,1583551900628,-1.6805999,-0.0927,-0.6976,7.386303999999999,2.5437722000000003,-1.3612665000000002,-1
221,222,1583551900638,-2.7754,0.48529997,-1.0373,6.635156599999999,2.6437063,-0.81710273,-1
222,223,1583551900648,-3.5721998,0.5123,-0.3426,5.875428,2.710083,-0.12579136,-1
223,224,1583551900658,-4.1633,0.6584,0.1845,5.2927184,2.8945708,0.42967302,-1
224,225,1583551900669,-4.7847,0.8282,0.89089996,4.602728,3.0795467,1.160393,-1
225,226,1583551900680,-4.7847,0.8282,0.89089996,3.8226016000000005,2.9965444,1.5276443000000002,-1
226,227,1583551900690,-6.7271,0.65349996,1.4229,2.5184991,2.9286451000000002,1.5733162,-1
227,228,1583551900700,-7.3342,0.69,1.3671,2.1062748,2.980982,1.4817426,-1
228,229,1583551900710,-7.5239997,0.6281,0.99469995,2.0718080000000003,2.8413522,0.95776683,-1
229,230,1583551900720,-7.3749,0.5654,0.3335,2.2786767000000006,2.788297,0.3535757,-1
230,231,1583551900730,-7.257899799999999,0.7222,0.0132,2.2570713,2.9756384,0.24317427,-1
231,232,1583551900741,-7.5635996,0.9338,-0.06359999599999999,1.7698512999999998,3.0406265,0.29433358,-1
232,233,1583551900751,-8.3618,0.9229999999999999,0.2767,0.8346571,2.9061298,0.9399253000000001,-1
233,234,1583551900761,-9.3805,0.7906,1.3350999,-0.19020496,2.668491,2.1925237,-1
234,235,1583551900771,-10.353499000000001,0.5186,2.4852,-1.1961815,2.2073102000000002,3.1732366,-1
235,236,1583551900781,-11.025,0.18100000000000002,2.8328,-1.5727416,1.714823,2.9043581,-1
236,237,1583551900791,-11.1998,-0.32369998,2.3504999,-1.4532709,1.1391325,2.523996,-1
237,238,1583551900802,-10.7893,-1.0324,1.9882,-0.9408158999999999,0.3765792,2.2030103,-1
238,239,1583551900812,-10.2431,-1.4789,1.4684,-0.34322318,-0.0775434,1.3499658,-1
239,240,1583551900822,-9.7848,-1.64,0.5214,0.12861651,-0.57847744,0.35461003,-1
240,241,1583551900832,-9.4819,-2.0709,-0.0093,0.41957906,-1.1629307,0.4060949,-1
241,242,1583551900842,-9.2553,-2.3724,0.5546,0.45068455,-1.4947671999999999,1.2559503,-1
242,243,1583551900852,-9.428699499999999,-2.5521,1.4750999,0.167642,-1.8502869999999998,2.045443,-1
243,244,1583551900862,-9.7571,-2.7415,2.1248,-0.080244064,-2.049925,2.339681,-1
244,245,1583551900873,-10.064099,-2.6167,2.4027998,-0.45221683,-2.1616,2.5078017999999997,-1
245,246,1583551900883,-10.241099,-2.7271,2.4641,-0.22707567,-2.8261251,2.2110833999999997,-1
246,247,1583551900893,-9.698,-3.2839,1.7605,0.83852607,-3.7053912,1.0020883,-1
247,248,1583551900903,-8.4223995,-3.9132998,0.5413,2.3001287,-4.798784700000001,0.05038358,-1
248,249,1583551900913,-6.7746,-4.740999700000001,-0.28149998,3.8325709999999997,-5.557277,-0.5160175,-1
249,250,1583551900923,-4.7922,-4.9186997,-0.41329998,5.9085545999999995,-5.709443599999999,0.5624170999999999,-1
250,251,1583551900934,-3.7598,-4.6031,0.7899,5.875754,-6.0155754,1.5117564,-1
251,252,1583551900944,-4.1484,-4.8389997000000005,1.6403999,4.936691000000001,-6.72991,1.8404803,-1
252,253,1583551900954,-5.1032,-5.2359,1.7318,4.1540356,-7.850117999999999,2.0142898999999996,-1
253,254,1583551900964,-5.3747997000000005,-5.9957,1.905,5.3953432999999995,-9.292807,2.2593315,-1
254,255,1583551900974,-3.5656998,-7.0618,1.9054999,8.55342,-10.56408,1.5041716,-1
255,256,1583551900985,-0.0845,-7.8571,0.90599996,12.227916,-11.637217999999999,0.18715952,-1
256,257,1583551900996,3.6924,-8.5359,-0.39519998,15.204684,-12.599841,-0.5412906999999999,-1
257,258,1583551901007,6.5203,-9.0451,-0.98459995,16.343807,-13.531684,-0.4592366,-1
258,259,1583551901017,7.4202,-9.4495,-0.8012,15.598951999999999,-14.241104,0.42545924,-1
259,260,1583551901027,6.8216,-9.8463,0.0734,14.646434,-14.431214,1.2359156999999998,-1
260,261,1583551901037,6.0439,-9.7121,0.8649,14.326242,-14.137896,1.8183004,-1
261,262,1583551901047,5.8894,-9.1221,1.3483,15.2871685,-14.477403,0.7317351,-1
262,263,1583551901058,7.0636997,-9.144999499999999,0.1055,19.04324,-14.550367999999999,-1.4320389999999998,-1
263,264,1583551901068,13.9428,-8.478499000000001,-3.1559,22.15438,-14.438396,-2.306871,-1
264,265,1583551901078,15.3588,-8.2228,-3.2498999,22.763084,-14.469166,-2.1190505,-1
265,266,1583551901089,13.9932995,-8.0686,-2.4205,20.799923,-14.517941,-1.2036802,-1
266,267,1583551901099,11.5435,-7.8743,-1.8893,18.275076000000002,-14.448135,-0.84285474,-1
267,268,1583551901109,10.0653,-7.1211,-2.0351999,16.92736,-13.693904000000002,-0.9694889000000001,-1
268,269,1583551901119,9.7794,-5.812,-1.6795,16.640995,-12.498307,-0.40961918,-1
269,270,1583551901130,9.5411,-4.8252,-0.85469997,15.934438,-11.70937,0.6568253000000001,-1
270,271,1583551901140,8.6502,-4.5065,-0.2024,14.824657,-11.647829,1.1692995000000002,-1
271,272,1583551901150,7.7517996,-4.4047,0.0492,13.948379500000001,-11.70825,1.3970071000000002,-1
272,273,1583551901160,7.2091,-4.527199700000001,0.2006,13.536491,-11.924771,1.5691885,-1
273,274,1583551901170,7.1674,-4.4432,0.36069998,13.408133,-11.715854,1.687443,-1
274,275,1583551901180,7.0937996,-3.9397998,0.18069999,13.119516,-11.169459,1.4528208,-1
275,276,1583551901190,6.5912,-3.2463,-0.1857,12.381977000000001,-10.535789999999999,1.1114553999999999,-1
276,277,1583551901200,5.7945,-2.5785,-0.3803,11.522689999999999,-9.880009,1.1424938,-1
277,278,1583551901210,5.0200996,-1.8736,-0.1223,10.705884,-9.326986,1.5608758999999999,-1
278,279,1583551901220,4.2328997,-1.5891,0.4887,9.962330999999999,-9.213712,2.1765401,-1
279,280,1583551901230,3.6251,-1.4957,0.7502,9.430857000000001,-9.083227,2.0820456000000003,-1
280,281,1583551901243,3.3594,-1.2278,0.2716,9.333708999999999,-8.743567,1.5902385,-1
281,282,1583551901253,3.4645998,-0.73939997,-0.2543,9.405180999999999,-8.193695,0.8942631,-1
282,283,1583551901263,3.4650998,-0.3796,-0.7507,9.306961,-7.921494,0.63069016,-1
283,284,1583551901273,3.261,-0.107,-0.9129999999999999,8.895436,-7.695825999999999,0.61459154,-1
284,285,1583551901283,2.7947,-0.0052,-0.8136,8.342002,-7.819482000000001,0.85654,-1
285,286,1583551901294,2.2631,-0.2017,-0.5225,7.9711213,-7.946422599999999,1.3977733,d
286,287,1583551901304,2.0212,-0.2342,0.0264,7.6949644,-7.961697,1.8214511999999998,-1
287,288,1583551901314,1.7078999,-0.2789,0.3585,7.3674755,-8.063757,1.8985254,-1
288,289,1583551901324,1.3945,-0.40379998,0.4473,7.246865299999999,-8.234061,1.9506998,-1
289,290,1583551901334,1.3492,-0.5963,0.3999,7.5412083,-8.303752000000001,1.4271071000000002,-1
290,291,1583551901344,1.6904,-0.6109,-0.254,7.886184700000001,-8.244433,0.7516261,-1
291,292,1583551901354,2.1604,-0.5660000000000001,-1.0565,8.412785000000001,-8.220289999999999,0.17311037,-1
292,293,1583551901365,2.5182,-0.5617,-1.3687999,8.450201,-8.363703,0.36637032,-1
293,294,1583551901375,2.4554,-0.7477,-1.0388,8.135104,-8.65659,1.1565048,-1
294,295,1583551901385,2.0887,-1.1154,-0.13759999,7.827172,-9.1076,2.1882523999999997,-1
295,296,1583551901395,1.7660999,-1.5263,0.8420000000000001,7.7327447,-9.165367999999999,2.5392234,-1
296,297,1583551901405,1.719,-1.5472,0.9831,7.9557886,-8.994384,2.021568,-1
297,298,1583551901415,1.9896,-1.383,0.35869998,8.701381,-8.877469999999999,1.0263368,-1
298,299,1583551901426,2.6169,-1.3168,-0.5054,9.5178995,-8.786978999999999,0.23761015,-1
299,300,1583551901436,3.4106,-1.2514,-1.3318,10.016947,-8.850195,0.19190006,-1
300,301,1583551901446,3.9821,-1.395,-1.3419999999999999,10.301732000000001,-9.429008,0.84616834,-1
301,302,1583551901456,4.1310997,-1.9459,-0.74619997,10.403496,-10.059133000000001,1.569744,-1
302,303,1583551901466,4.2332,-2.7761,0.1724,10.885669,-11.100534,2.6187873,-1
303,304,1583551901477,4.6284,-3.6968,1.0382999,11.724903,-11.652666,3.0865762,-1
304,305,1583551901487,5.4276,-4.2861,1.4972999,12.96194,-11.59327,2.6933427000000005,-1
305,306,1583551901497,6.617799799999999,-4.272599700000001,1.0759999999999998,14.3350725,-11.038036,1.7190655,-1
306,307,1583551901507,7.9251,-3.7805,0.0587,14.947135999999999,-10.384879,1.0345632,-1
307,308,1583551901517,8.0113,-3.3232,-0.5482,14.484824,-10.50163,1.2052411,-1
308,309,1583551901528,8.0113,-3.3232,-0.5482,14.010916,-10.991761,1.7771298,-1
309,310,1583551901538,7.1867,-4.3585997,0.63049996,14.086966,-11.260726,2.3563063,-1
310,311,1583551901548,7.6064,-4.6331,0.5385,14.700839000000002,-11.358571000000001,2.0756867,-1
311,312,1583551901559,8.1212,-4.6609,-0.044000000000000004,15.418639,-11.196772,1.3922473999999998,-1
312,313,1583551901569,8.5991,-4.5243,-0.33429998,15.916825,-10.908357,1.3245969,-1
313,314,1583551901579,8.506599000000001,-4.5125,-0.0731,15.804278,-10.764206,1.5896542,-1
314,315,1583551901590,7.5779,-4.4532,0.42389998,14.912353,-10.491794,2.0420529999999997,-1
315,316,1583551901600,6.2276998,-4.3368998,0.6836,13.500003,-10.078775,2.1799781000000005,-1
316,317,1583551901610,5.0603,-4.1394,0.7629,12.661946,-9.5909605,2.241126,-1
317,318,1583551901620,4.1589,-3.8456998,0.8706,11.93975,-9.071611,2.2366056,-1
318,319,1583551901630,3.2719998,-3.5505,1.0539,11.180719999999999,-8.512891,2.3675973,-1
319,320,1583551901641,2.2552,-3.2997,1.2339,10.340988000000001,-8.061679,2.4933407,-1
320,321,1583551901651,1.3179,-3.1171,1.4174,9.684325,-7.614317999999999,2.523613,-1
321,322,1583551901661,0.8458,-2.9174,1.3491,9.590243,-7.255284,2.2782457000000003,-1
322,323,1583551901671,0.9852,-3.0414,1.3197,10.026284,-7.3266115,2.345925,-1
323,324,1583551901681,1.3887,-3.3967998,1.8174,10.438355,-7.3970394,2.9192405,-1
324,325,1583551901691,1.3359999999999999,-3.6418998,2.3363,10.240269,-7.3537526,3.1236189999999997,-1
325,326,1583551901701,0.7367,-3.7180998,2.5317,9.578598,-7.066026700000001,2.9245749,-1
326,327,1583551901711,-0.2314,-3.4594,2.0261,8.670516000000001,-6.388821599999999,2.1219237,-1
327,328,1583551901721,-1.2516,-2.9194,1.3564999,7.7056518,-5.476296,1.5156158000000002,-1
328,329,1583551901731,-2.3601,-2.2271,1.2081,6.493295,-4.329703299999999,1.5327966,-1
329,330,1583551901741,-3.3679,-1.5976,1.5274999,5.8181496,-3.4447867999999997,1.8362856,-1
330,331,1583551901752,-3.8934,-1.0639,2.0032,5.6498566,-2.677474,2.4148683999999996,-1
331,332,1583551901762,-3.9617,-0.6288,2.8076,5.722439,-2.4219074000000003,3.1681898,-1
332,333,1583551901772,-3.9108,-0.95849997,3.9259,5.768063,-2.8467919999999998,3.9960184,-1
333,334,1583551901782,-3.8899,-1.8519999999999999,4.0365,5.9977717,-3.78485,3.0077013999999997,-1
334,335,1583551901792,-3.5777997999999998,-2.7542,2.5728998,6.390852,-4.316851,1.1351103,-1
335,336,1583551901802,-3.1243,-3.2417,0.7432,7.1642942,-4.26279,-0.5178467000000001,-1
336,337,1583551901813,-2.1986,-3.0546,-0.5317,8.058337,-3.5574007000000005,-1.377911,-1
337,338,1583551901823,-1.5275999,-2.3467999,-1.0505999,8.227483,-2.368785,-1.0491966000000001,-1
338,339,1583551901833,-1.9245,-1.239,-0.062099997000000004,6.767239599999999,-1.2993046,0.58946204,-1
339,340,1583551901843,-4.0734,-0.7154,1.7662,3.8782046,-0.82121116,2.4228267999999997,-1
340,341,1583551901853,-7.196799799999999,-0.5744,3.3871998999999997,0.88400626,-0.46067312,3.4177324999999996,-1
341,342,1583551901863,-9.7937,-0.43989998,4.0188,-0.8107629,0.06131072,3.5783453,-1
342,343,1583551901874,-10.7388,-0.0014,4.0183,-0.73068166,0.82462054,3.2988269999999997,-1
343,344,1583551901884,-10.1543,0.6044,3.4761998999999997,0.6421631999999999,1.09981,1.8549892,-1
344,345,1583551901894,-8.8572,0.43609998,2.0535,2.5003604999999998,0.4617266,0.49919105,-1
345,346,1583551901904,-6.8768,-0.2208,0.72679996,4.3117847000000005,0.039743747999999995,-0.45038763,-1
346,347,1583551901915,-5.2019,-0.5261,-0.10229999599999999,5.410982,0.07387549,-0.653301,-1
347,348,1583551901925,-4.2523,-0.43039998,-0.23169999,5.7440443,0.5481573000000001,-0.5843576,-1
348,349,1583551901935,-4.0653,0.0061,-0.2148,5.3553023,1.040003,-0.7546524,-1
349,350,1583551901946,-4.6102,0.48279998,-0.4488,4.0696735,1.6167563999999999,-0.5465770999999999,-1
350,351,1583551901956,-5.710099700000001,0.8497,-0.1639,3.0322373,1.8812966,0.4773847,-1
351,352,1583551901966,-7.0123997000000005,1.0152999,1.175,1.6519705000000002,1.9309715,2.0416793999999996,-1
352,353,1583551901977,-8.1066,0.9292,2.5221,1.1299195,1.8660504,2.4895294,-1
353,354,1583551901987,-8.6129,0.76919997,3.0235,1.5235454,1.4089493999999998,2.1702769,-1
354,355,1583551901997,-6.5288,-0.37,1.6978999,3.6125534,0.69790024,0.76250535,-1
355,356,1583551902008,-4.5083,-0.4763,0.2561,5.5322914,0.70673007,-0.8314775,-1
356,357,1583551902018,-3.1866,-0.1996,-1.4714999,6.75683,0.9526815999999999,-2.4858518,-1
357,358,1583551902028,-2.3163,0.1766,-2.314,7.503313,1.3403698,-3.083866,-1
358,359,1583551902038,-2.2187997999999998,0.6222,-2.0111,7.4431899999999995,1.7292074,-2.6092107,-1
359,360,1583551902048,-2.5976999,0.4368,-1.1189,7.062617299999999,1.3990566,-1.6660962,-1
360,361,1583551902058,-2.7359998,-0.384,-0.1674,6.981281299999999,0.5663628,-0.92395115,-1
361,362,1583551902069,-2.516,-1.2121998999999999,-0.0381,7.249528,-0.20665792,-1.0274572,-1
362,363,1583551902078,-2.0177999,-1.7743,-0.3947,7.7849865000000005,-0.5921914,-1.5429576999999999,-1
363,364,1583551902088,-2.0177999,-1.7743,-0.3947,8.165051,-0.41117063,-1.8373104,-1
364,365,1583551902098,-1.3375,-1.0548999,-0.4603,8.314737,0.3843843,-1.6473162000000001,-1
365,366,1583551902108,-1.5035,-0.4218,-0.1301,8.076121,0.9967924000000001,-1.3949863999999998,-1
366,367,1583551902118,-1.7709999,-0.0679,-0.12629999,7.839181,1.30348,-1.4929284999999999,-1
367,368,1583551902128,-1.7067,-0.117599994,-0.4405,7.996968700000001,1.226042,-1.8351269000000001,-1
368,369,1583551902139,-1.1223,-0.35459998,-0.80329996,8.651371000000001,0.9680907,-2.2629417999999997,-1
369,370,1583551902149,-0.41959998,-0.69449997,-1.2549,9.307468,0.6447585,-2.735404,-1
370,371,1583551902159,0.048699997,-0.79069996,-1.4470999,9.726636,0.6230766,-2.9147778,-1
371,372,1583551902169,0.23359999,-0.69799995,-1.4550999,9.834997,0.75544727,-2.9031324,-1
372,373,1583551902179,0.1343,-0.4858,-1.0105,9.682017,1.0141072,-2.420605,-1
373,374,1583551902189,-0.1415,-0.1423,-0.5437,9.308628,1.4770117,-1.9979613,-1
374,375,1583551902199,-0.5355,0.19039999,-0.3552,8.960385,1.7523642,-1.9283953999999999,-1
375,376,1583551902210,-0.88079995,0.4594,-0.4795,8.636719,2.020237,-2.1880705000000003,-1
376,377,1583551902220,-0.8943,0.4939,-0.6525,8.733281,2.0464868999999997,-2.2515742999999997,-1
377,378,1583551902230,-0.71419996,0.434,-0.505,8.878264,1.9136375,-2.1080563,-1
378,379,1583551902240,-0.41939998,0.032899998,-0.5207,9.324189,1.4255269,-2.2464507,-1
379,380,1583551902250,-0.41939998,0.032899998,-0.5207,9.7954645,1.484472,-2.5695148,-1
380,381,1583551902261,0.37849998,0.2008,-1.0491999,9.951106,1.8119414,-2.717151,-1
381,382,1583551902271,0.31579998,0.4964,-1.0321,9.788224000000001,2.0317197,-2.5766494,-1
382,383,1583551902281,0.0471,0.6204,-0.7553,9.49255,2.1056142,-2.2236197,-1
383,384,1583551902291,-0.2786,0.60179996,-0.4637,9.210274,2.0481915,-1.967804,-1
384,385,1583551902301,-0.3866,0.5814,-0.1611,9.222494000000001,2.0462093,-1.6417807,-1
385,386,1583551902311,-0.30629998,0.5915,0.046299997999999995,9.292997999999999,2.1060833999999997,-1.4994598999999997,-1
386,387,1583551902322,-0.2348,0.6920000000000001,0.27109998,9.359194,2.1686582999999997,-1.2418053999999998,-1
387,388,1583551902332,-0.2611,0.70669997,0.59779996,9.213128,2.1288667,-1.0151032,-1
388,389,1583551902342,-0.5527,0.6369,0.5421,8.895551,1.9902616000000002,-1.4732769,-1
389,390,1583551902352,-0.66899997,0.4863,0.0045,9.033007000000001,1.8301661,-1.9111186999999998,d
390,391,1583551902363,-0.3854,0.3645,-0.1654,9.437339999999999,1.7888038,-1.6590573,-1
391,392,1583551902373,-0.0156,0.42409998,0.2258,9.642705,1.7570758999999998,-1.1403583000000002,-1
392,393,1583551902384,0.069699995,0.3056,0.7227,9.490501,1.4169843,-1.4782663999999999,-1
393,394,1583551902394,-0.1264,0.0139,0.0134,9.499148,1.0797945,-3.0928392000000002,-1
394,395,1583551902404,0.006,-0.2829,-1.6721,10.128096000000001,0.9644610999999998,-4.788432,-1
395,396,1583551902414,0.7725,-0.3312,-3.1643,11.115578999999999,1.1181591999999998,-5.349528,-1
396,397,1583551902424,1.7308999,-0.1191,-3.2965998999999995,11.448813000000001,1.5162385,-4.228122,-1
397,398,1583551902434,1.841,0.2532,-1.9165,10.721752,1.7193241000000001,-3.2759097,-1
398,399,1583551902445,0.631,0.40289998,-0.87409997,8.886644,1.9522991000000003,-2.868455,-1
399,400,1583551902455,-0.8713,0.5135,-0.8059999999999999,7.670438000000001,1.9218256,-4.0450610000000005,-1
400,401,1583551902465,-1.925,0.3421,-2.1178,7.3028708,1.5763806999999999,-5.5756364000000005,-1
401,402,1583551902475,-2.0433,-0.047399998,-3.4887998,8.103769,1.1324766000000002,-6.4079657,-1
402,403,1583551902485,-1.0401,-0.47779998,-4.1232,9.485377,0.9063585999999999,-6.777497,-1
403,404,1583551902495,0.35029998,-0.6349,-4.482199700000001,10.480684,0.82109624,-7.442117,-1
404,405,1583551902505,1.1782,-0.6902,-5.138499700000001,10.633071000000001,0.6617286,-8.025335,-1
405,406,1583551902515,1.2213,-0.85319996,-5.6057,10.346542999999999,0.5808142,-8.167187,-1
406,407,1583551902525,0.86399996,-0.8939,-5.702999999999999,9.868153,0.5298273,-8.400622,-1
407,408,1583551902536,0.3909,-1.0051,-5.9575996,9.463523,0.32707670000000005,-8.666081,-1
408,409,1583551902546,-0.1299,-1.3098999,-6.31,8.838502,-0.050163314,-9.486833,-1
409,410,1583551902556,-0.5238,-1.5669999,-6.9400997,8.8548975,-0.20415837,-9.799161,-1
410,411,1583551902566,-0.5,-1.7427,-7.2598,8.966869,-0.28033227,-9.651285000000001,-1
411,412,1583551902576,-0.3834,-1.8375,-7.1165,8.961986,-0.33155861,-9.531106,-1
412,413,1583551902586,-0.39819998,-1.9032999,-7.028,9.02774,-0.32934640000000004,-9.766274000000001,-1
413,414,1583551902597,-0.34739998,-1.9224,-7.3062,8.9731045,-0.17585889999999998,-9.352212,-1
414,415,1583551902607,-0.40559998,-1.7893,-6.9456997000000005,8.385893,-0.3359448,-8.302201,-1
415,416,1583551902617,-1.0031999,-1.9873999,-5.9445996,7.471288700000001,-0.6075143,-7.248206,-1
416,417,1583551902627,-2.7883,-2.5789999999999997,-4.7757998,6.4963217,-0.89082503,-6.985189,-1
417,418,1583551902637,-2.7883,-2.5789999999999997,-4.7757998,6.296903599999999,-0.82075155,-6.923628999999999,-1
418,419,1583551902647,-3.1246998,-2.5677,-4.7851,6.4970684,-0.5345295,-6.7492065000000006,-1
419,420,1583551902657,-2.9347,-2.2935,-4.6974,6.523185,-0.24041615,-6.256949400000001,-1
420,421,1583551902667,-2.925,-2.0226,-4.312599700000001,6.3093057,-0.07382761,-5.44135,-1
421,422,1583551902677,-3.4190998,-1.8129,-2.3762999,6.022135700000001,-0.025445575,-3.7033224000000002,-1
422,423,1583551902687,-3.8211,-1.8973,-0.9404,5.4606476,-0.14572069,-2.1016877,-1
423,424,1583551902697,-3.8211,-1.8973,-0.9404,4.884708,-0.4075027,-1.4624646000000001,-1
424,425,1583551902708,-4.6408997,-2.248,-0.021599998999999998,4.3182397,-0.75221986,-0.69012386,-1
425,426,1583551902718,-5.6358,-2.7921999,1.5508,3.9079692,-0.98516613,0.5174923,-1
426,427,1583551902728,-5.5417,-2.906,2.1975,4.088731299999999,-1.0443509,1.1755052,-1
427,428,1583551902738,-5.147,-2.5705,2.7865,4.520866000000001,-0.6539427,1.9351375,-1
428,429,1583551902748,-4.9213,-1.9937999,3.4592,4.6725817,-0.15433982,2.5954487,-1
429,430,1583551902759,-4.9213,-1.7203,3.7022,4.4087596,-0.0054587796,3.0263093,-1
430,431,1583551902769,-5.7253,-1.5868,4.7736998,3.767468,0.060228538,4.2575226,-1
431,432,1583551902779,-6.598099700000001,-1.7102,5.809,2.9123740000000002,-0.20593007,5.448427,-1
432,433,1583551902789,-7.2458,-1.91,7.3187,2.3671377000000002,-0.46485820000000005,7.1174254,-1
433,434,1583551902799,-7.2458,-1.91,7.3187,2.241327,-0.636465,8.340755999999999,-1
434,435,1583551902810,-7.2778997,-2.2654,9.6942,2.614248,-1.1764723999999998,9.6945915,-1
435,436,1583551902819,-7.2778997,-2.2654,9.6942,3.1116479999999997,-1.2723841999999999,10.292079,-1
436,437,1583551902829,-6.1204996,-2.0537,11.1777,3.7468873999999994,-1.0661668,11.311406,-1
437,438,1583551902839,-5.7532,-1.7308999,11.9768,4.0623949999999995,-0.9131964,12.209577000000001,-1
438,439,1583551902849,-5.8922,-1.6926999,12.6641,3.8210216,-1.1597416,12.891454,-1
439,440,1583551902859,-6.2342,-2.2735999,13.1456995,3.6032352,-2.2614862999999996,13.543989000000002,-1
440,441,1583551902870,-5.8676996,-3.0586,13.633698999999998,4.2846345999999995,-2.8710883,13.958895000000002,-1
441,442,1583551902880,-4.9789,-2.9054,13.915,5.0163025999999995,-2.6990887999999997,14.184889000000002,-1
442,443,1583551902890,-4.1067,-2.4808,14.1626,5.974357,-2.4973919999999996,14.282869,-1
443,444,1583551902900,-3.6432,-2.2584,13.743098999999999,6.2485504,-2.536829,13.636396,-1
444,445,1583551902910,-3.4803998,-2.2275,12.9381,6.35356,-2.936249,12.712024000000001,-1
445,446,1583551902920,-3.2157998,-2.8766,11.967199,6.910240700000001,-3.9317486000000006,11.802878,-1
446,447,1583551902931,-2.1719999999999997,-3.7343,11.316899000000001,7.8869505,-4.750221,11.331067,-1
447,448,1583551902941,-0.6626,-4.2065,11.1338,9.698221,-5.4106083,11.03704,-1
448,449,1583551902951,0.7333,-4.3496,10.7328,10.891117999999999,-5.6228112999999995,10.494322,-1
449,450,1583551902961,1.5928999,-4.1695,10.197000000000001,11.426250999999999,-5.511451999999999,9.843607,-1
450,451,1583551902972,1.6896,-3.7951998999999996,9.4767,11.231238000000001,-5.402641,9.031935,-1
451,452,1583551902982,1.2978,-3.8418,8.7093,10.668238,-5.9553275,8.017166,-1
452,453,1583551902992,0.8986,-4.2637997,7.903,10.354194999999999,-6.6153803,7.315148,-1
453,454,1583551903002,0.76809996,-4.7595997,7.4083996,10.466512,-7.192182000000001,7.243447,-1
454,455,1583551903013,1.0539,-5.0912,7.5116,11.006289500000001,-7.60929,7.346761,-1
455,456,1583551903024,1.9131,-5.2106,7.5088,12.301667,-7.7165313,7.152467,-1
456,457,1583551903034,3.0316,-5.0727997,7.1801,13.051052,-7.6991973,6.697138000000001,-1
457,458,1583551903044,3.7113,-4.8817,6.6197996,13.10022,-7.9419594,6.132489,-1
458,459,1583551903054,3.6759998999999994,-5.004699700000001,6.0656,12.501123,-8.323155,5.970191000000001,-1
459,460,1583551903064,2.9936,-5.2465997,5.9616,11.307105,-8.875937,6.2575525999999995,-1
460,461,1583551903074,1.8018999,-5.7113,6.1927,9.963728999999999,-9.734259,6.27504,-1
461,462,1583551903085,0.55439997,-6.4219,6.0176997000000005,9.380971,-10.768439,4.84891,-1
462,463,1583551903095,0.35209998,-7.3824997,4.057699700000001,10.711974,-11.604399,1.6573527,-1
463,464,1583551903105,2.1176999,-7.875099700000001,0.6914,13.302903,-11.805033,-1.4738036,-1
464,465,1583551903115,4.8574,-7.8757,-2.266,15.771420499999998,-11.983908999999999,-3.3319720999999998,-1
465,466,1583551903125,7.2483997,-7.8918,-3.7749,16.90318,-11.893293,-3.750862,-1
466,467,1583551903135,7.9782,-7.6173997,-3.935,15.085692000000002,-11.803884,-3.7809234,-1
467,468,1583551903146,6.2685,-7.5013,-3.925,12.387417999999998,-11.790687,-3.4892422999999995,-1
468,469,1583551903156,3.5851,-7.4434,-3.6195,10.6520815,-11.955119999999999,-3.2639,-1
469,470,1583551903166,1.5679,-7.6738,-3.5956,10.152363000000001,-13.005600999999999,-5.3187,-1
470,471,1583551903176,1.6492,-8.8108,-6.2875,13.086753999999999,-13.7220125,-9.855089999999999,-1
471,472,1583551903186,4.3801,-9.183599000000001,-10.2101,16.367022,-12.839653,-12.036006,-1
472,473,1583551903197,7.7099,-8.2209,-12.4394,17.332639999999998,-12.159567,-12.136438,-1
473,474,1583551903207,8.697599,-7.4944,-12.5462,15.431128,-11.799458999999999,-11.195938,-1
474,475,1583551903217,6.8022,-7.143399700000001,-11.5694,12.482717,-11.191543,-9.735446000000001,-1
475,476,1583551903227,3.8235,-6.572499799999999,-10.0665,10.233929,-10.350202000000001,-8.883676,-1
476,477,1583551903237,0.5482,-5.0759,-10.2656,9.246636,-9.4131,-10.336018,-1
477,478,1583551903248,0.5482,-5.0759,-10.2656,9.884127000000001,-8.667776,-12.41588,-1
478,479,1583551903258,2.0588,-3.9364,-14.0036,11.032069,-8.295919,-13.726916000000001,-1
479,480,1583551903268,2.6859,-3.7779,-14.430099499999999,11.479728,-8.100878,-13.855417999999998,-1
480,481,1583551903278,2.279,-3.6869998,-13.9373,10.907589999999999,-7.9995356,-13.215207999999999,-1
481,482,1583551903288,1.2861999,-3.5321998999999997,-13.1001,9.892985000000001,-7.746075599999999,-12.298727,-1
482,483,1583551903299,0.30719998,-3.1826,-12.111199000000001,8.969771000000001,-7.3281244999999995,-11.314327,-1
483,484,1583551903309,-0.5861,-2.9566,-11.262199,8.130881,-7.0170417,-10.4272375,-1
484,485,1583551903319,-1.3819,-2.5565999,-10.5507,7.378642599999999,-6.557478999999999,-9.7652025,-1
485,486,1583551903329,-2.0974,-2.1747,-10.177899,6.715381,-6.102246,-9.415907,-1
486,487,1583551903339,-2.5937,-1.8658999,-9.8391,6.280556,-5.779124299999999,-9.053961,-1
487,488,1583551903349,-2.8398,-1.8319,-9.6406,6.119665599999999,-5.7476449999999994,-8.765823,-1
488,489,1583551903359,-2.8158,-2.0516,-9.1088,6.207696,-5.9671745000000005,-8.147383,-1
489,490,1583551903369,-2.7094,-2.399,-8.5128,6.318518599999999,-6.2713046,-7.565467,-1
490,491,1583551903380,-2.6011,-2.7208997999999998,-8.3109,6.4523067,-6.583958999999999,-7.412468,-1
491,492,1583551903390,-2.3845,-3.0407999,-8.123,6.6723623,-6.8342967,-7.0738125,-1
492,493,1583551903400,-2.4533,-3.0288,-7.665499700000001,6.4289775,-6.686967,-6.5877895,-1
493,494,1583551903410,-2.9645998,-2.843,-7.2552,5.939306,-6.4946165,-6.24676,-1
494,495,1583551903420,-3.7305998999999996,-2.6471999,-6.8556,5.0717907,-6.2758155,-5.736804,-1
495,496,1583551903431,-4.2381,-2.5711,-6.4477,4.683307599999999,-6.216286,-5.272530000000001,-1
496,497,1583551903441,-4.4156,-2.6561,-5.8752,4.7918987,-6.4078126,-4.6357875,-1
497,498,1583551903451,-3.9577,-2.9187999,-5.1287,5.322108999999999,-6.715965700000001,-3.8663485,-1
498,499,1583551903461,-3.4248,-3.2349,-4.442,5.8256288,-7.03902,-3.1257452999999997,-1
499,500,1583551903471,-2.9866998,-3.3948,-3.721,6.152323,-7.0936937,-2.5688922,-1
500,501,1583551903481,-2.833,-3.3070998,-3.5960998999999996,6.116256,-7.106843,-2.648255,-1
501,502,1583551903491,-2.9259,-3.3363,-3.6123998,6.0547733,-7.1733923,-2.3937707,-1
502,503,1583551903502,-2.883,-3.4124,-2.8097,6.1684885000000005,-7.3507643,-1.2104893,-1
503,504,1583551903512,-2.883,-3.4124,-2.8097,6.334617,-7.605612799999999,-0.05167645,-1
504,505,1583551903522,-2.6071,-3.7494998,-0.4886,6.3560214,-7.852253999999999,0.74364865,-1
505,506,1583551903532,-2.5723,-3.9389999999999996,0.0393,6.502173,-7.950205,0.72651577,-1
506,507,1583551903542,-2.2435,-3.8832,-0.1774,6.8898425,-7.939307,0.3143204,-1
507,508,1583551903552,-1.5854,-3.8381998999999998,-0.6202,7.680378999999999,-8.078669,-0.00842759,-1
508,509,1583551903563,-0.9539,-3.9854,-0.5132,8.150658,-8.462525999999999,0.70709395,-1
509,510,1583551903573,-0.5789,-4.3331,0.7302,8.266394,-8.676942,2.2789927000000003,-1
510,511,1583551903583,-0.6202,-4.3276997,2.3388,7.7928869999999995,-8.586889999999999,3.587079,-1
511,512,1583551903594,-1.0582,-4.1365,3.2668,7.3582149999999995,-8.419889999999999,3.8637626000000003,-1
512,513,1583551903604,-1.4193,-3.9503998999999994,3.4794998,7.3524785,-8.291829,3.6701194999999998,-1
513,514,1583551903614,-1.3468,-3.7624,3.3839,7.5867366999999994,-8.264631,3.6258364000000003,-1
514,515,1583551903624,-1.0157,-3.7264998,3.3897,8.032671,-8.437617,3.5154924,-1
515,516,1583551903634,-0.53499997,-3.8349998,3.3367,8.486813,-8.390854,3.5827506000000002,-1
516,517,1583551903644,-0.0639,-3.6897,3.5447998,8.770430000000001,-8.276689,4.097657,-1
517,518,1583551903654,0.1695,-3.5303998,4.146,8.682477,-8.279111,4.695125599999999,-1
518,519,1583551903665,0.065799996,-3.4968998,4.8075,8.560103999999999,-8.134607,5.287221,-1
519,520,1583551903675,-0.011899999,-3.2747,5.4617,8.487695,-7.868199300000001,5.9659867,-1
520,521,1583551903685,-0.0823,-2.9889,6.1631,8.221525,-7.6652190000000004,6.1643414000000005,-1
521,522,1583551903695,-0.3796,-2.7844,6.3222,8.004151,-7.546322999999999,6.221793,-1
522,523,1583551903705,-0.5884,-2.5595999,6.3905997,7.982709,-7.2844067,5.9383097000000005,-1
523,524,1583551903715,-0.4524,-2.3121,5.986000000000001,8.448391,-7.0767045,5.4939747,-1
524,525,1583551903726,-0.021599998999999998,-2.1125,5.6415,9.03115,-6.913487400000001,5.797473,-1
525,526,1583551903736,0.57409996,-1.9260999,5.944,9.243802,-6.7440929999999994,6.1206236,-1
526,527,1583551903746,0.80219996,-1.7391,6.2925997,9.086435,-6.634160499999999,6.444376999999999,-1
527,528,1583551903756,0.6429,-1.6101999,6.6405997,8.717087,-6.493525,6.806275,-1
528,529,1583551903766,0.2816,-1.4811,7.0281997,8.237414,-6.2219844,6.7797856,-1
529,530,1583551903777,-0.1979,-1.196,7.016,7.8886266,-5.9470243,5.995742,-1
530,531,1583551903787,-0.5481,-0.91639996,6.2353,8.179407000000001,-5.5870996,5.4282203,-1
531,532,1583551903797,-0.24689999,-0.5503,5.6277,8.739927,-5.290793,4.9981737,-1
532,533,1583551903807,0.5793,-0.4127,4.65,9.106403,-5.6092889999999995,4.3199153,-1
533,534,1583551903817,1.0594,-0.6712,4.1644,9.624748,-5.800767400000001,4.027986,-1
534,535,1583551903828,1.4958999,-0.69229996,4.2095,9.917157000000001,-5.8148746,4.1723466,-1
535,536,1583551903838,1.328,-0.7043,4.6309,9.590588,-5.799752,4.5960436,-1
536,537,1583551903848,0.5954,-0.6863,4.8258,8.849447999999999,-5.7590895,4.655449,-1
537,538,1583551903858,0.5954,-0.6863,4.8258,8.285872,-5.571221400000001,3.9681404000000002,-1
538,539,1583551903868,-0.24139999,-0.24669999,3.4336998,8.169122,-5.2590938,3.213756,-1
539,540,1583551903878,-0.104899995,-0.0414,2.8293998,8.359691,-5.0864910000000005,2.6984951,-1
540,541,1583551903888,0.1331,-0.0561,2.4961998,8.572947000000001,-5.1594377,2.4592762,-1
541,542,1583551903898,0.29479998,-0.3227,2.3112,8.742092999999999,-5.467916000000001,2.3025997000000005,-1
542,543,1583551903908,0.29479998,-0.3227,2.3112,8.973678999999999,-5.6456040000000005,2.231348,-1
543,544,1583551903918,0.726,-0.47439998,2.2570999,9.09245,-5.534092,2.3886185,d
544,545,1583551903928,0.47259998,-0.3942,2.3156,8.784239999999999,-5.484139,2.4256136,-1
545,546,1583551903939,0.1286,-0.3182,2.0963,8.457125,-5.36714,2.1977142999999995,-1
546,547,1583551903949,-0.0197,-0.0473,1.6854999,8.392788000000001,-5.083589599999999,1.8111081999999998,-1
547,548,1583551903959,0.14559999,0.20439999,1.1982,8.585081,-4.832523999999999,1.3612665000000002,-1
548,549,1583551903969,0.4093,0.34899998,0.9898,8.854515,-4.725206,1.2552033999999999,-1
549,550,1583551903979,0.5943,0.2977,0.9774,8.997755,-4.810229,1.2352933000000001,-1
550,551,1583551903989,0.5943,0.2977,0.9774,9.030268,-4.900519,1.1182071000000002,-1
551,552,1583551904000,0.7887,0.1373,0.8091,9.300478,-4.9911447,1.115765,-1
552,553,1583551904010,1.0443,0.0394,0.94,9.507911,-5.041901599999999,1.3393068000000001,-1
553,554,1583551904020,1.1235,0.039499998,1.1054,9.582084,-5.059369599999999,1.4731715,-1
554,555,1583551904030,1.3001,0.0284,1.2873,9.777412,-5.0534124,1.7398664000000001,-1
555,556,1583551904040,1.4656,0.054199997,1.4789,9.928917,-5.0008935999999995,1.8202828000000002,-1
556,557,1583551904050,1.6587,0.0967,1.2326,10.147403,-4.94462,1.4501966,-1
557,558,1583551904061,1.8987,0.0968,0.9027,10.407575999999999,-5.0258985,1.3083068000000002,-1
558,559,1583551904071,2.1764997999999998,-0.14039999,1.0892,10.677192,-5.2958307,1.7502285,-1
559,560,1583551904081,2.4535,-0.43789998,1.9533,10.937241,-5.6520495,2.8043478,-1
560,561,1583551904091,2.6906998,-0.80539995,3.1251,11.252642999999999,-5.942476,4.001257,-1
561,562,1583551904101,3.0948,-1.0759999999999998,4.0958,11.879932,-6.1680956,4.964856,-1
562,563,1583551904112,3.6759,-1.1523,4.6804,12.521388,-6.0381193,5.3747053,-1
563,564,1583551904122,4.2760997000000005,-1.0655,4.7155,12.961883,-6.052235,5.056065599999999,-1
564,565,1583551904132,4.7967997,-1.1998,3.9775998999999995,13.591605,-6.2595160000000005,4.41055,-1
565,566,1583551904142,5.3634996,-1.4297999,3.5702998999999997,14.252702,-6.4245529999999995,4.4347897000000005,-1
566,567,1583551904152,6.0325,-1.6306,3.8316,14.831887,-6.5450006,5.302333,-1
567,568,1583551904162,6.4177,-1.8055999,4.8223,14.945718,-6.7273526,6.274417400000001,-1
568,569,1583551904173,6.3208,-2.0575,5.5408,14.743723999999998,-6.814328999999999,6.586736,-1
569,570,1583551904183,6.0857,-2.1708,5.6377,14.663642999999999,-6.7783679999999995,6.567754700000001,-1
570,571,1583551904194,6.0108,-2.2189999,5.5453997,14.648376999999998,-6.7420526,6.379350700000001,-1
571,572,1583551904204,5.9235,-2.3260999,5.2806997,14.619953,-6.7727942,6.1657395,-1
572,573,1583551904214,5.7767,-2.5105,5.0712,14.350874,-6.7755527,6.0756120000000005,-1
573,574,1583551904224,5.4435,-2.6257,5.0218,13.961616000000001,-6.724259399999999,6.098808,-1
574,575,1583551904234,4.9728,-2.7012,4.9522,13.465067000000001,-6.562928,5.771051,-1
575,576,1583551904244,4.4126997,-2.6782,4.4329,13.008339999999999,-6.337777,4.914740599999999,-1
576,577,1583551904255,3.9143,-2.6408,3.4729,12.787977,-6.0712647,4.148376,-1
577,578,1583551904265,3.6984,-2.5167,2.7921999,12.776399000000001,-5.908171,3.5892339,-1
578,579,1583551904275,3.6274998,-2.5551999,2.3664,12.897086,-5.6509385000000005,3.2949004,-1
579,580,1583551904286,3.6704,-2.4257,2.0681,12.725996,-5.45448,2.879899,-1
580,581,1583551904296,3.3295,-2.4826,1.7580999,11.947967,-5.4301260000000005,2.6088467,-1
581,582,1583551904306,2.5683,-2.6685,1.6741999,11.064209,-5.383324,2.8346197999999996,-1
582,583,1583551904316,1.6149,-2.8351,2.0086,10.288996000000001,-5.283333,3.1309549999999997,-1
583,584,1583551904326,0.77529997,-2.9589,2.4025,9.671502,-5.1219254,3.1241362,-1
584,585,1583551904336,0.0993,-3.0163,2.4917,9.368942,-4.944524299999999,3.0654402000000003,-1
585,586,1583551904346,-0.3048,-2.9736998,2.5475,9.181111999999999,-4.277471,3.3759584000000005,-1
586,587,1583551904357,-0.4863,-2.6115,2.9133,9.028343,-3.8630157,3.1000507,-1
587,588,1583551904367,-0.6806,-2.4087,2.7312,8.591306,-3.6873195,1.9672772,-1
588,589,1583551904377,-1.1425999,-2.4321,1.6884999,8.469508,-3.5723786,0.8067885,-1
589,590,1583551904387,-1.2846,-2.5144,0.60899997,8.556014999999999,-3.4839754000000003,0.31082484,-1
590,591,1583551904398,-1.3094,-2.7141,0.1264,8.435213000000001,-3.3880732000000005,0.15670529,-1
591,592,1583551904408,-1.6537,-2.7633,0.2445,8.088264,-3.2575220000000003,0.17411593,-1
592,593,1583551904418,-1.9829999,-2.7380998,0.34849998,7.738318400000001,-2.9851002999999996,0.09007944,-1
593,594,1583551904428,-2.5126998,-2.4285997999999998,0.31759998,7.183409700000001,-2.4374409,-0.08726386,-1
594,595,1583551904438,-3.1158,-1.9275,0.3726,6.536803,-1.7114136999999998,-0.1367951,-1
595,596,1583551904448,-4.0294,-1.4137,0.1995,5.5408916,-1.0973871000000002,-0.5249239,-1
596,597,1583551904458,-5.0787997,-1.3183,-0.55759996,4.5344553,-0.92503333,-1.4532709,-1
597,598,1583551904469,-5.0787997,-1.3183,-0.55759996,4.248396,-0.8141818000000001,-2.5876912999999995,-1
598,599,1583551904481,-4.8870997,-1.2002,-3.4164,5.3185080000000005,-0.70553297,-4.5870223,-1
599,600,1583551904491,-3.7461,-1.4439,-3.9615,6.4720059999999995,-1.017009,-4.4255767,-1
600,601,1583551904502,-2.6450999,-1.9796,-2.8788,7.4800415,-1.5786791999999998,-3.14465,-1
601,602,1583551904513,-1.9742998999999999,-2.4552,-1.6431999,7.714950999999999,-1.7103411,-2.0273526,-1
602,603,1583551904523,-2.3597,-2.2854,-1.1087999,6.339846,-1.3766180000000001,-2.0330793999999996,-1
603,604,1583551904533,-3.6927998,-2.1573,-1.1776,5.15826,-1.3243191,-2.2750661,-1
604,605,1583551904544,-5.1215,-2.1283,-1.4462999,4.0043693,-1.0807618,-2.4717834,-1
605,606,1583551904554,-5.9419,-1.8949,-1.4598,3.6887467000000003,-0.6825581999999999,-2.4718986000000003,-1
606,607,1583551904564,-5.9995,-1.6294999,-1.4506999,4.0977144,-0.24840320000000002,-2.7293324,-1
607,608,1583551904574,-5.5394998,-1.2753999,-1.6623,4.7195177,-0.02393244,-3.0286555,-1
608,609,1583551904584,-4.8694,-1.0869,-2.0140000000000002,5.130554,-0.12141476,-3.5292160000000004,-1
609,610,1583551904594,-4.3767,-1.3097999,-2.6381,5.699895,-0.586838,-4.0717324999999995,-1
610,611,1583551904605,-3.8836,-1.7456,-2.9232,6.3932176,-0.92494714,-3.8280797,-1
611,612,1583551904615,-3.1538,-2.0091999,-2.5056998999999998,6.924864299999999,-0.92436296,-3.2187457000000004,-1
612,613,1583551904625,-2.7272,-1.9473,-1.9131999,6.7790479999999995,-0.64148325,-3.0359626,-1
613,614,1583551904635,-3.0263999,-1.6692,-1.7624999,6.189653,-0.36755782,-2.9771996,-1
614,615,1583551904645,-3.8163998,-1.2998999,-1.7782999,5.228218,0.017046716,-3.2652793,-1
615,616,1583551904655,-4.5383,-1.1064,-2.0147998,4.916206,0.058064178,-3.3228742999999996,-1
616,617,1583551904665,-4.7311997,-1.1007999,-2.0126998,5.5951443,0.14005123,-3.3570347000000003,-1
617,618,1583551904676,-4.0613,-1.0234,-2.0395,6.840033,0.23879768,-3.696475,-1
618,619,1583551904686,-2.8128998,-0.9149,-2.3427,7.946949000000001,0.078127585,-4.292689,-1
619,620,1583551904696,-1.7105,-1.0622,-2.9138,8.525808999999999,-0.0625174,-4.511538,-1
620,621,1583551904706,-1.1149,-1.1858,-3.0842,8.532456,-0.06642473,-4.0560074,-1
621,622,1583551904716,-1.1724,-1.1861,-2.3765,7.8640046,0.20299958,-2.671211,-1
622,623,1583551904726,-1.7565998999999999,-1.0210999,-1.1399,7.228746000000001,0.47770070000000003,-1.9079201000000001,-1
623,624,1583551904736,-2.5068,-0.72779995,-0.1749,6.669929499999999,0.96607953,-1.3061998,-1
624,625,1583551904746,-3.0144,-0.28079998,0.3161,6.261173,1.5130972,-1.7090003,-1
625,626,1583551904756,-3.3295,0.1305,-0.08800000000000001,6.3385153,1.647115,-2.7540119,-1
626,627,1583551904766,-3.2498999,0.2529,-1.1352,6.871732000000001,1.6071893,-3.5360062000000005,-1
627,628,1583551904776,-2.5267,0.2338,-2.1037,8.335538,1.4061816999999999,-4.457294999999999,-1
628,629,1583551904786,-1.2556,0.0756,-2.8300998,9.668782,1.1353592,-4.5466084,-1
629,630,1583551904796,0.0751,-0.1472,-2.8923,10.544783,0.85467255,-4.065325700000001,-1
630,631,1583551904806,0.958,-0.4017,-2.3973,10.494131,0.65685403,-3.4187477,-1
631,632,1583551904817,0.9033,-0.5925,-1.7121998999999999,9.829797,0.6257773,-2.6925192000000004,-1
632,633,1583551904827,0.24419999,-0.6428,-0.968,9.0153,0.82230294,-2.7477965,-1
633,634,1583551904837,-0.97239995,-0.0984,-0.9856,8.549953,1.3693589,-2.6857677000000004,-1
634,635,1583551904847,-0.97239995,-0.0984,-0.9856,8.377618,1.7454497,-2.2503772,-1
635,636,1583551904858,-1.4664999,0.4491,-0.0011999999,7.9854865,1.8585421000000002,-1.7562426,-1
636,637,1583551904868,-1.8241999,0.20889999,0.1046,7.6911144,1.6036172,-1.7091249,-1
637,638,1583551904878,-1.5378,-0.0914,-0.0761,8.142191,1.3234763999999999,-1.9546837,-1
638,639,1583551904888,-0.7646,-0.20799999,-0.4676,8.939174000000001,1.2499936000000003,-2.368938,-1
639,640,1583551904898,-0.042799998,-0.17899999,-0.9242,9.624786,1.2543128000000001,-2.8350222,-1
640,641,1583551904909,0.3354,-0.1256,-1.3962,9.9215145,1.3170886,-3.2380714,-1
641,642,1583551904919,0.33359998,0.0392,-1.4069999999999998,9.879529,1.5144091999999998,-3.1063522999999997,d
642,643,1583551904929,0.2296,0.3208,-0.8063,9.710125999999999,1.8138568,-2.4347212000000003,-1
643,644,1583551904939,-0.2599,0.41619998,-0.0583,9.019523,1.8685212,-1.6231251,-1
644,645,1583551904949,-1.1359,0.1871,0.67069995,8.144289,1.6568738,-1.0774004,-1
645,646,1583551904960,-1.6959,0.0313,0.7941,7.730781599999999,1.608463,-1.2556821000000002,-1
646,647,1583551904969,-1.6990999,0.0692,0.3296,7.850194999999999,1.7373573,-1.7980933999999997,-1
647,648,1583551904979,-1.2758,0.23619999,-0.67219996,8.311088,1.8839303,-2.9162717000000002,-1
648,649,1583551904989,-0.71,0.34019998,-1.7437999,8.889432000000001,1.9647202000000001,-3.9808967000000006,-1
649,650,1583551904999,-0.71,0.34019998,-1.7437999,9.313339,1.8756941999999999,-4.713388,-1
650,651,1583551905009,0.3387,0.0656,-2.9510999,9.898138000000001,1.6103593,-5.052283,-1
651,652,1583551905020,0.7687,-0.2217,-3.0632,10.221239,1.3251906999999998,-5.2639685,-1
652,653,1583551905030,0.65169996,-0.5108,-3.3904998,10.010857000000001,1.0559100000000001,-5.6395230000000005,-1
653,654,1583551905040,0.319,-0.7779,-3.8711998,9.631567,0.8301655000000001,-6.397087,-1
654,655,1583551905050,0.14999999,-0.8387,-4.7671,9.545653,0.8555919,-7.3575063,-1
655,656,1583551905060,0.1827,-0.71919996,-5.5806,9.659808,1.0274286,-7.973094000000001,-1
656,657,1583551905070,0.3603,-0.5298,-5.8434,9.811783,1.1868633,-8.115684,-1
657,658,1583551905081,0.37129998,-0.5787,-5.9709997,9.732631,1.0429046,-8.102879,-1
658,659,1583551905091,0.22739999,-0.9264,-5.6919,9.614626,0.71696764,-7.8244143,-1
659,660,1583551905101,0.0841,-1.4618,-5.4308,9.424019,0.11724885,-7.6561303,-1
660,661,1583551905111,-0.0911,-1.867,-5.6601,9.243265,-0.25400564,-8.179522,-1
661,662,1583551905121,-0.1626,-2.0914,-6.3447,9.3028145,-0.30087453,-8.93019,-1
662,663,1583551905131,-0.0718,-2.0971,-7.0966,9.329974,-0.29578924,-9.43847,-1
663,664,1583551905142,-0.1804,-2.1536999,-7.6893997,9.208089999999999,-0.31248164,-9.761687,-1
664,665,1583551905152,-0.2509,-2.0417,-7.5915,9.021984,0.01802355,-9.132271000000001,-1
665,666,1583551905162,-0.65419996,-1.724,-6.9161,8.427925,0.32707670000000005,-8.303533,-1
666,667,1583551905172,-1.3011,-1.5731,-6.2482,7.821282400000001,0.4204218,-7.5336240000000005,-1
667,668,1583551905183,-1.8482,-1.5047,-5.4746,7.3357673,0.5045253,-6.5151973,-1
668,669,1583551905193,-2.2861,-1.5819,-4.532,6.9394307,0.33987132,-5.5585127,-1
669,670,1583551905203,-2.7226999,-1.8700999,-3.7779998999999997,6.4392629999999995,0.04354574,-4.8576144999999995,-1
670,671,1583551905213,-3.3455,-2.1516,-3.2760000000000002,5.6617794,-0.1533151,-4.4858623,-1
671,672,1583551905223,-4.0789,-2.316,-3.069,5.29539,-0.13845189,-4.383477,-1
672,673,1583551905233,-4.15,-2.2017999,-3.2154999,5.740836,0.3820763,-4.3850284,-1
673,674,1583551905243,-3.6962,-1.6508,-3.3279998,6.1048026,0.77680355,-4.493696,-1
674,675,1583551905254,-3.2608,-1.2128,-3.7594998,6.642684,1.1984223999999999,-4.2700973,-1
675,676,1583551905264,-2.878,-0.8921,-3.3493,6.61878,1.3298641000000002,-3.2369127,-1
676,677,1583551905274,-3.1339,-0.861,-1.9259,5.772851,0.9217294,-0.7126485,-1
677,678,1583551905284,-4.0013,-1.3618,0.1589,4.7334228,0.33424973,1.3753444,-1
678,679,1583551905296,-5.0218997000000005,-1.916,2.0547,4.0269129999999995,-0.086842485,2.8923678,-1
679,680,1583551905306,-5.6116,-2.3042,3.2682,4.0799017,-0.27079380000000003,3.445122,-1
680,681,1583551905316,-5.4891,-2.408,3.5597,4.727658,0.11845552,4.076444,-1
681,682,1583551905326,-4.8603,-2.0003,4.0744,5.598726,0.4141873,5.0011425,-1
682,683,1583551905337,-3.9970999,-1.6575999,4.8536997,6.2306037000000005,0.58591866,6.4302225,-1
683,684,1583551905347,-3.3767998,-1.4294,6.1254,6.356692,0.5656062,7.998060700000001,-1
684,685,1583551905357,-3.2819,-1.4513999,7.9424,6.083801,-0.0044149079999999995,10.747103,-1
685,686,1583551905367,-3.5165,-1.9231999,10.125999,5.6911510000000005,-0.5473145,13.714284,-1
686,687,1583551905377,-3.9062,-2.4313,12.972000000000001,4.9137254,-1.3909067,16.041946,-1
687,688,1583551905388,-4.7174997,-3.4503,15.5323,5.0082107,-1.5984552,16.543379,-1
688,689,1583551905398,-3.8465,-2.7969999999999997,15.967099,5.988693,-0.8518474,17.119768,-1
689,690,1583551905408,-2.8592,-1.8661,16.6391,6.8620405,-0.04303817,17.892854999999997,-1
690,691,1583551905418,-2.55,-1.3148999,16.9662,7.0813975000000005,0.38889495,18.11812,-1
691,692,1583551905428,-2.55,-1.3148999,16.9662,7.1775484,0.60794526,17.841286,-1
692,693,1583551905439,-2.2591,-0.9842,15.500998999999998,7.4378557,0.43602243,16.303959,-1
693,694,1583551905449,-1.8179,-1.3585,13.8742,7.981426,-0.05518156,14.7347975,-1
694,695,1583551905459,-1.0942,-1.9162999,13.058499000000001,8.84963,-0.84498084,13.905888000000001,-1
695,696,1583551905469,-1.0942,-1.9162999,13.058499000000001,9.241914999999999,-1.1798051999999999,13.765595999999999,-1
696,697,1583551905480,-0.3198,-2.4958,12.887099000000001,9.425685000000001,-1.3469013,13.644957999999999,-1
697,698,1583551905490,-0.3453,-2.5015,12.7168,9.254719999999999,-1.3902172,13.116260999999998,-1
698,699,1583551905500,-0.7224,-2.2512999,11.948,8.931981,-1.1785027,11.994519,-1
699,700,1583551905510,-0.8346,-2.1597,10.3771,8.969437,-1.341318,9.9927,-1
700,701,1583551905521,-0.6332,-2.4357998,8.2169,9.316471,-1.8172085999999998,7.599387599999999,-1
701,702,1583551905531,-0.15619999,-2.9903,5.9261,9.889939,-2.6596515,5.304603,-1
702,703,1583551905541,0.5585,-3.9536998,4.0406,10.824771,-3.805938,3.4411383,-1
703,704,1583551905551,1.8557999,-4.7738,2.6554,12.230981,-4.4581566,2.1140034,-1
704,705,1583551905561,3.1773,-4.8412,1.8520999,13.347914000000001,-4.377951,1.3432621,-1
705,706,1583551905571,3.7974,-4.364,1.5824,13.586549,-3.9130354,1.2123471000000001,-1
706,707,1583551905581,3.4506997999999998,-3.6831,2.1035,13.045785,-3.4686427,1.616881,-1
707,708,1583551905592,2.1754,-3.5191998,2.1276999,11.12845,-3.705458,0.44994712,-1
708,709,1583551905604,0.9808,-3.8765,0.40719998,10.708,-4.2818190000000005,-2.9155345,-1
709,710,1583551905615,1.1032,-4.296,-2.5858,12.071527,-4.8016195,-6.3253565,-1
710,711,1583551905625,2.73,-4.6236997,-5.772,14.647773999999998,-4.8305316,-9.343334,-1
711,712,1583551905635,4.9312,-4.4888,-8.0048,16.058802,-4.7254167,-10.452270500000001,-1
712,713,1583551905646,6.3624,-4.2676997000000005,-8.9463,16.045471,-4.668722,-10.150447999999999,-1
713,714,1583551905656,6.1967998,-4.1001997,-8.2546,14.04863,-4.376629400000001,-8.931157,-1
714,715,1583551905666,4.411299700000001,-3.8061,-7.1166,11.928037,-4.2959255999999995,-9.833399,-1
715,716,1583551905676,2.3181,-3.701,-7.8855996,11.071335000000001,-4.268517,-12.449839,-1
716,717,1583551905687,1.4871,-3.6502,-10.403299,11.638626,-4.0772586,-14.792518,-1
717,718,1583551905697,2.0774,-3.4224,-12.6602,12.778093,-3.9498870000000004,-16.279518,-1
718,719,1583551905707,3.2351,-3.2412,-14.0785,13.255929,-3.8703132000000005,-16.65697,-1
719,720,1583551905717,3.1629,-2.9738,-14.276198999999998,12.467164,-3.7186550000000005,-16.50691,-1
720,721,1583551905727,3.1629,-2.9738,-14.276198999999998,11.378166,-3.4719083,-16.27315,-1
721,722,1583551905738,0.69699997,-2.2877998,-13.6557,10.020481,-2.9734643,-15.970397,-1
722,723,1583551905748,0.69699997,-2.2877998,-13.6557,9.304271,-2.6158376,-15.956426,-1
723,724,1583551905758,-0.7247,-1.7024,-13.176398999999998,8.604186,-2.2941717999999995,-15.449764000000002,-1
724,725,1583551905768,-1.6592,-1.5241,-12.7125,7.6583429999999995,-2.1150474999999997,-15.134056,-1
725,726,1583551905778,-1.6592,-1.5241,-12.7125,6.980774,-2.068437,-15.273025,-1
726,727,1583551905788,-2.6966999,-1.3112,-13.0057,6.79122,-1.7030723,-15.487756,-1
727,728,1583551905798,-2.5512,-0.6701,-12.8469,6.986003,-0.9735303,-15.147070000000001,-1
728,729,1583551905809,-2.6257,0.0673,-12.1181,6.8020997,-0.25684994,-14.298728,-1
729,730,1583551905819,-3.3971998999999995,0.4337,-11.353399000000001,5.9574055999999995,0.12807064,-13.503910000000001,-1
730,731,1583551905829,-4.2358,0.4613,-10.4765,5.198262000000001,0.11606132,-12.502741,-1
731,732,1583551905839,-4.6201,0.2276,-9.3239,4.9329944,-0.13900736,-11.300467999999999,-1
732,733,1583551905849,-4.6288,-0.2792,-8.2886,4.9706497,-0.65202737,-10.266853999999999,-1
733,734,1583551905859,-4.4123,-0.8109,-7.2774,5.214935,-1.1077204999999999,-9.199844,-1
734,735,1583551905869,-4.2774997,-1.0746,-6.3911,5.317023799999999,-1.3419023,-8.325204,-1
735,736,1583551905880,-4.303999999999999,-1.3564,-5.9603,5.308510299999999,-1.7245626,-7.8036704,-1
736,737,1583551905890,-4.2853,-1.7457,-5.513999999999999,5.437107599999999,-2.1332335,-7.0263405,-1
737,738,1583551905900,-4.0222,-2.0398,-4.5790997,5.661617,-2.388015,-6.1269919999999995,-1
738,739,1583551905910,-3.9141,-2.5851998,-3.5932,5.785378,-2.9963912999999995,-5.043069999999999,-1
739,740,1583551905920,-3.8616998,-3.2075999,-2.5181,5.8341236,-3.7065308,-3.618807,-1
740,741,1583551905930,-3.8844998,-3.6618,-1.5472,5.7638300000000005,-4.179328,-2.7077656,-1
741,742,1583551905941,-4.052,-4.0842,-0.8702,5.621365,-4.529705,-1.8990711999999998,-1
742,743,1583551905951,-4.1394997,-4.2384,0.2137,5.5597,-4.6950293,-0.51973325,-1
743,744,1583551905961,-4.1672,-4.3577,1.6410999,5.5987735,-4.768167500000001,0.9480943000000002,-1
744,745,1583551905971,-4.1254,-4.2134,2.6546,5.554203,-4.619746,1.5962238000000002,-1
745,746,1583551905981,-4.2202997,-4.0091,2.7003,5.5693154,-4.549721,1.801292,-1
746,747,1583551905992,-4.1180997,-3.9317,3.0437,5.6430087,-4.4905553,2.3204124,-1
747,748,1583551906002,-4.1417,-3.7380998,3.5514,5.503628,-4.386551,3.0323045,-1
748,749,1583551906012,-4.3399997,-3.6668,4.148,5.3070545,-4.522867,3.653207,-1
749,750,1583551906022,-4.5848,-3.8672,4.979,5.1559706,-4.845194,5.0237722,-1
750,751,1583551906032,-4.5134,-3.9578,6.205899700000001,5.441063,-4.688345,6.2613645,-1
751,752,1583551906042,-4.1456,-3.4201998999999996,7.2216,5.726643,-3.9327349999999996,7.027011,-1
752,753,1583551906052,-4.0312,-2.5188,7.8619,5.4472494000000005,-3.3357550000000002,7.678406,-1
753,754,1583551906062,-4.4449,-2.0952,8.482699,5.1376123,-3.2466237999999996,8.364345,-1
754,755,1583551906072,-5.0133,-1.9963,9.8799,4.2324696,-3.4442985,10.006748,-1
755,756,1583551906082,-5.7644,-2.2135,10.657499000000001,3.5938980000000003,-3.9450792999999997,10.536508,-1
756,757,1583551906092,-6.2265997,-2.5465,11.100599,3.4505906000000004,-4.216448000000001,11.026515,-1
757,758,1583551906103,-6.0653996,-2.4968998,11.4376,4.017758000000001,-4.1898723,11.143381,-1
758,759,1583551906113,-5.2218,-2.2867,11.303599,5.1418066,-3.9802454,10.914247,-1
759,760,1583551906123,-4.0401998,-1.7387999,10.9937,5.959944,-3.4737663,10.649774,-1
760,761,1583551906133,-3.4634,-1.0868,10.717,6.125,-3.2748369999999998,10.460995,-1
761,762,1583551906143,-3.4339999999999997,-0.9332,10.6068,5.7060246,-3.5254524,10.611112,-1
762,763,1583551906153,-3.9124,-1.0494,10.8568,5.027459599999999,-3.8476737,10.937135000000001,-1
763,764,1583551906164,-4.7592,-1.3677,11.2255,4.247103,-4.452334,10.943953500000001,-1
764,765,1583551906174,-5.3241997,-1.8384,11.073199,4.163124,-5.1966434,10.735610000000001,-1
765,766,1583551906184,-5.0155,-2.2366,10.9374,5.39881,-5.706647,10.552549,-1
766,767,1583551906194,-3.4778,-2.4926999,10.6995,7.2738338,-6.111123,9.707971,-1
767,768,1583551906204,-1.5065,-2.6351,9.5701,9.090506,-6.42892,7.853603999999999,-1
768,769,1583551906214,0.36389998,-2.6806,7.6857996,10.419738,-6.690050599999999,6.677936,-1
769,770,1583551906226,1.5965999,-2.7547,6.7661,10.631099,-7.154430400000001,6.7328304999999995,-1
770,771,1583551906236,1.6451,-3.0958,7.1152997000000004,9.746815,-7.865392999999999,7.54683,-1
771,772,1583551906246,0.70339996,-3.6646998,7.9893,8.357459,-8.601266,7.864196000000001,-1
772,773,1583551906256,-0.34149998,-4.0597997,8.2781,7.808018700000001,-8.906047000000001,7.545068,-1
773,774,1583551906266,-0.88479996,-4.3494,7.8406997,8.428403999999999,-9.344847,6.552336,-1
774,775,1583551906276,-0.13499999,-4.5691,6.9786997,10.071266,-9.332848,5.350724700000001,-1
775,776,1583551906287,1.5971999,-4.3896,5.7289,11.638263,-9.123747,4.058057,-1
776,777,1583551906297,3.2703,-3.9954998,4.3886,12.253821,-9.327082,3.0465736,-1
777,778,1583551906307,3.9924,-4.032,3.3295,11.917637,-9.832861999999999,2.9327726000000003,-1
778,779,1583551906317,3.7459998,-4.3821,3.1787999,10.832613,-10.669779,3.2197225,-1
779,780,1583551906327,2.0623,-5.4772,3.1762,9.920863,-11.281115,2.8616552000000004,-1
780,781,1583551906338,2.0623,-5.4772,3.1762,9.731328,-11.738866999999999,2.3666205000000002,-1
781,782,1583551906348,2.4881,-6.1671,1.3227,10.555135,-12.074074000000001,0.9018096,-1
782,783,1583551906358,3.847,-5.830899700000001,0.0042,11.846635000000001,-11.794805,-0.3525893,-1
783,784,1583551906368,4.7142,-5.4705997,-1.2502999,12.433702,-11.568734,-1.5445282,-1
784,785,1583551906378,4.6025,-5.2802,-2.1818,12.0537815,-11.509177000000001,-2.338053,-1
785,786,1583551906388,4.6025,-5.2802,-2.1818,11.223317999999999,-11.554427,-2.321504,-1
786,787,1583551906398,2.6357,-5.3496,-1.8172,9.889939,-11.756249,-1.7956896,-1
787,788,1583551906409,1.8761,-5.4632,-2.1361,9.257516,-11.906365,-2.322998,-1
788,789,1583551906419,2.0284,-5.2748,-3.8902997999999998,9.465792,-11.670594,-4.209974,-1
789,790,1583551906429,2.6011,-4.7464,-5.888499700000001,10.062936,-11.209336,-5.939756,-1
790,791,1583551906439,2.6011,-4.7464,-5.888499700000001,10.516617,-10.877969,-6.3827887,-1
791,792,1583551906449,3.3481998,-3.7001,-6.2858996,10.331995,-10.146119,-5.7234063,-1
792,793,1583551906459,2.4666997999999998,-3.2667,-5.6113,9.409241999999999,-9.846594999999999,-5.179769,-1
793,794,1583551906469,1.1653,-2.8722,-4.9206,8.142546000000001,-9.453764,-4.3871927,-1
794,795,1583551906480,0.2974,-2.4088,-4.0112,7.344500999999999,-9.019378999999999,-3.4583573,-1
795,796,1583551906490,-0.24759999,-2.1448998,-3.5870998,6.830858,-8.82858,-3.0919487,-1
796,797,1583551906500,-0.3412,-2.1094,-4.1703997,6.956812400000001,-8.859063,-4.043079,-1
797,798,1583551906510,0.3863,-2.0595,-5.6601,7.9569182000000005,-8.704168,-5.4576400000000005,-1
798,799,1583551906520,1.6710999,-1.7156,-6.9198,9.182644999999999,-8.395614,-6.344816000000001,-1
799,800,1583551906530,2.6288,-1.5654999,-7.3272,9.784183,-8.437588,-6.2904587,-1
800,801,1583551906541,2.6441,-1.6462,-6.7629,9.388325,-8.422266,-5.5417824,-1
801,802,1583551906551,1.7186999,-1.4980999,-5.7032,8.2864,-8.200686,-4.4885535,-1
802,803,1583551906561,0.52919996,-1.2817999,-4.8731,7.179052400000001,-7.971322,-3.9430968999999996,-1
803,804,1583551906571,-0.36229998,-0.99649996,-4.581,6.485901999999999,-7.6165495,-3.7562919000000003,-1
804,805,1583551906581,-0.7211,-0.64269996,-4.4603,6.3817925,-7.2834296,-3.5042112000000003,-1
805,806,1583551906591,-0.48499998,-0.3539,-4.1308,6.8442183000000005,-7.031646,-3.072565,-1
806,807,1583551906601,-0.048699997,-0.2589,-3.9227998,7.1723289999999995,-7.100062400000001,-2.998278,-1
807,808,1583551906611,0.5125,-0.3926,-4.157099700000001,7.885887599999999,-7.2866955,-3.466057,-1
808,809,1583551906622,1.1429,-0.4759,-4.6447997,8.4335375,-7.2894826,-3.576286,-1
809,810,1583551906632,1.6092,-0.46469998,-4.4969,8.646066000000001,-7.3569894,-3.0468322999999997,-1
810,811,1583551906642,1.6407,-0.53069997,-3.8365998,8.307908,-7.400085000000001,-2.3430424,-1
811,812,1583551906652,1.1398,-0.5374,-3.1157,7.708458,-7.4467235,-1.7087991999999999,-1
812,813,1583551906662,0.5333,-0.58019996,-2.5061,7.2002554000000005,-7.389263000000001,-1.2523876,-1
813,814,1583551906673,0.113299996,-0.4872,-2.2096999,7.0011344,-7.241110000000001,-1.2408763999999999,-1
814,815,1583551906683,0.1117,-0.33139998,-2.2452,7.3522487000000005,-7.135018,-1.1998302,-1
815,816,1583551906693,0.6289,-0.2669,-2.1389,7.860203,-7.182921,-1.1306953000000002,d
816,817,1583551906703,1.054,-0.4035,-2.2075,8.146147000000001,-7.401942699999999,-1.1991311000000002,-1
817,818,1583551906713,1.3323,-0.56949997,-2.1296,8.452164,-7.4956326,-0.6998635,-1
818,819,1583551906724,1.5665,-0.5915,-1.6872,8.486832000000001,-7.404720299999999,-0.3624151,-1
819,820,1583551906733,1.5374,-0.4725,-1.3672,8.229839,-7.306433,-0.23165338,-1
820,821,1583551906743,1.1165999,-0.4098,-1.2286999,7.8112745,-7.232806699999999,-0.09862196,-1
821,822,1583551906754,0.73539996,-0.3153,-0.99829996,7.4742765,-7.08972,0.2362215,-1
822,823,1583551906764,0.408,-0.1787,-0.56409997,7.163958999999999,-6.930007499999999,0.7526795999999999,-1
823,824,1583551906774,0.1383,-0.0637,-0.1637,6.9047246,-6.857769500000001,0.9093466,-1
824,825,1583551906784,-0.0968,-0.034399997,-0.0565,6.876778999999999,-6.9892497,0.7210378000000001,-1
825,826,1583551906794,-0.060399997999999996,-0.1674,-0.3107,7.1766005,-7.001890700000001,0.6311786,-1
826,827,1583551906804,0.276,-0.1489,-0.38939998,7.486238,-6.980811999999999,0.604105,-1
827,828,1583551906815,0.5559,-0.14819999,-0.4793,7.6806083,-7.008786,0.44852018,-1
828,829,1583551906825,0.7263,-0.17809999,-0.6637,7.6587353,-7.061209700000001,0.27265170000000005,-1
829,830,1583551906835,0.68659997,-0.24049999,-0.8497,7.6202364000000005,-7.1333137,0.09386228,-1
830,831,1583551906845,0.64239997,-0.32569999,-1.0074999,7.5942063,-7.216315299999999,0.260221,-1
831,832,1583551906855,0.5947,-0.4333,-0.77709997,7.5296783,-7.356319,0.70270777,-1
832,833,1583551906866,0.5062,-0.5916,-0.3319,7.483585000000001,-7.53213,0.8855003,-1
833,834,1583551906876,0.4768,-0.74149996,-0.2489,7.554377000000001,-7.541572599999999,0.7705499,-1
834,835,1583551906886,0.53749996,-0.7639,-0.3827,7.7579025999999995,-7.6259440000000005,0.64619505,-1
835,836,1583551906896,0.8063,-0.8831,-0.5805,8.3756075,-7.844152,-0.016749837,-1
836,837,1583551906906,1.3524,-1.0879999,-1.2100999,9.429793,-8.000474,-0.9425493,-1
837,838,1583551906916,2.4008,-1.2506,-2.1684,10.543529,-8.349788,-1.7209425999999999,-1
838,839,1583551906927,3.517,-1.5984,-2.9575999,11.513964999999999,-8.841652,-2.2846525,-1
839,840,1583551906937,4.4807,-2.1065,-3.5288,12.062352,-9.459644,-2.1981359,-1
840,841,1583551906947,5.013999999999999,-2.7299,-3.4345,12.476396000000001,-9.992498,-1.6929783,-1
841,842,1583551906957,5.4016,-3.2939,-2.9196,12.8016815,-10.252402,-0.93615204,-1
842,843,1583551906968,5.6938996,-3.5832998999999996,-2.1705,12.898771,-10.256742,0.11577402,-1
843,844,1583551906978,5.7688,-3.8039,-0.8171,12.976850500000001,-10.412498,0.5127997000000001,-1
844,845,1583551906988,6.257999999999999,-3.9733,-1.2665,13.632862,-10.470303999999999,0.007900866,-1
845,846,1583551906998,7.2865,-3.9345999,-2.3244,14.729033,-10.402911999999999,-0.97499555,-1
846,847,1583551907008,7.2865,-3.9345999,-2.3244,15.63204,-10.459788,-1.2835603,-1
847,848,1583551907018,8.3905,-4.0418997,-2.9371998,16.6271,-10.613592,-0.54154927,-1
848,849,1583551907029,9.7141,-4.4182,-1.3211,16.974478,-10.717089,0.8396561,-1
849,850,1583551907039,9.169,-4.4484,-0.4073,16.28717,-10.677038,1.7235858,-1
850,851,1583551907049,8.0132,-4.4995,0.31579998,15.173789999999999,-10.623916,2.5437243,-1
851,852,1583551907059,6.8399997,-4.5189,1.06,14.144991000000001,-10.493030000000001,3.2789645,-1
852,853,1583551907070,5.9094996,-4.3764997,1.9552,13.058608,-10.127799000000001,4.4178004,-1
853,854,1583551907080,4.7567,-4.218,2.7039999999999997,12.0193615,-9.828916,5.222262000000001,-1
854,855,1583551907090,3.5918998999999996,-3.9833,3.5818,10.94201,-9.405027,6.0469203,-1
855,856,1583551907100,2.5347,-3.7587998,3.7659998,10.267189,-9.08135,5.798067,-1
856,857,1583551907110,1.7613,-3.3864,2.5765,9.562441999999999,-8.342586,4.542624,-1
857,858,1583551907120,1.1906999,-2.8836,2.3343,9.0796175,-7.744735,4.933406,-1
858,859,1583551907131,0.3805,-2.7096999,3.0576,8.26647,-7.4315543,5.4807587,-1
859,860,1583551907141,-0.5888,-2.3867,3.3825,7.438181,-6.7111964,5.897254,-1
860,861,1583551907151,-1.4797,-1.7077999,3.8934,6.8124523,-6.007186,6.166381400000001,-1
861,862,1583551907161,-2.2904,-1.0639,3.6567,6.053682,-4.982458,5.573137,-1
862,863,1583551907171,-2.8632,-0.4906,2.9817,5.7117605000000005,-4.286933,4.968495,-1
863,864,1583551907181,-3.1866,-0.1778,2.3637,5.5669017,-3.851581,3.9693758000000003,-1
864,865,1583551907191,-3.2582,-0.0736,1.5421,5.6812396,-3.599481,3.2333214,-1
865,866,1583551907201,-3.3416997999999998,-0.003,0.8109,5.585557499999999,-3.3065839999999995,2.625587,-1
866,867,1583551907211,-3.5946998999999997,0.16669999,0.4583,5.4184136,-2.8820634,2.1833202999999997,-1
867,868,1583551907221,-3.7538998,0.55,0.1599,5.3726172,-2.0982592,2.0582185,-1
868,869,1583551907231,-3.8997998,1.0291,0.43649998,5.236607599999999,-1.6242934,2.446443,-1
869,870,1583551907241,-4.2692,1.1554999,1.055,4.8552594000000004,-1.5748771000000001,2.9141169,-1
870,871,1583551907252,-4.5944,0.62839997,1.4143,4.992466,-1.9944466,3.0523965,-1
871,872,1583551907262,-4.2616,0.2321,1.5699999,5.522025,-1.9185599999999998,2.8400402000000002,-1
872,873,1583551907272,-3.7737,0.377,1.3053,5.885226,-1.3416531999999999,2.4521606,-1
873,874,1583551907282,-3.6522,0.8569,1.2056,5.8776884,-0.7574488,2.333523,-1
874,875,1583551907292,-3.8578,1.4254999,1.0402,5.609346400000001,0.0383168,1.7472214,-1
875,876,1583551907302,-4.1243,1.7354,0.4667,5.456319000000001,0.23306118,0.92147076,-1
876,877,1583551907313,-4.1775,1.5784999,-0.1853,5.7031417,0.09904333,0.381042,-1
877,878,1583551907323,-3.7932,1.2635,-0.4933,6.3293214,-0.17620367,0.26784414,-1
878,879,1583551907333,-3.1004,0.807,-0.2633,6.912903,-0.5214954,0.57048076,-1
879,880,1583551907343,-2.4631,0.2593,0.47079998,7.583241,-0.8671607,1.4288213,-1
880,881,1583551907353,-2.0778,0.101399995,1.2656,7.712231599999999,-0.5554931,1.9431915000000002,-1
881,882,1583551907363,-2.1703,0.48729998,1.7486,7.391082300000001,0.005391742,2.1994287999999997,-1
882,883,1583551907373,-2.5639999999999996,0.7942,1.9691999,6.8703437,0.33962232,1.9034574,-1
883,884,1583551907384,-3.0235999,0.9023,1.5516,6.529237,0.43381977,1.0990632,-1
884,885,1583551907394,-3.3827,0.8868,0.5215,6.5356819999999995,0.51397765,0.010505757,-1
885,886,1583551907404,-3.1905,0.8603,-0.094299994,7.1485405,0.3682282,-0.20830514,-1
886,887,1583551907414,-2.526,0.5672,-0.2427,7.8326497,-0.12595417,-0.40738779999999997,-1
887,888,1583551907424,-1.8405999,-0.036399997999999996,-0.3279,8.423021,-0.8093071999999999,-0.29640216,-1
888,889,1583551907434,-1.2916,-0.7155,-0.0925,8.808881,-1.1098179,-0.081345394,-1
889,890,1583551907445,-0.9384,-0.9903,0.1629,8.911439999999999,-0.9052476999999999,-0.11417469400000001,-1
890,891,1583551907455,-0.94769996,-0.7773,0.1388,8.609597,-0.5612295999999999,0.08471643,-1
891,892,1583551907465,-1.2803,-0.5275,0.48639998,8.189117,-0.49788862,0.60353994,-1
892,893,1583551907475,-1.9152,-0.66789997,1.1532,7.257179700000001,-0.68352544,1.003611,-1
893,894,1583551907485,-2.7075999,-0.9593,1.2907,6.774767,-0.92049396,0.8121898,-1
894,895,1583551907496,-3.0476,-1.2398,1.1804999,6.855183599999999,-0.9809905999999999,0.8444540999999999,-1
895,896,1583551907506,-2.8481,-1.3181,1.2236999,7.4801564,-0.8177827,0.79366827,-1
896,897,1583551907516,-2.1687,-1.1838,1.1779,8.242346000000001,-0.44999498,0.53816867,-1
897,898,1583551907526,-1.5587,-0.9005,0.9472,8.566272,-0.33532232,0.12049539,-1
898,899,1583551907536,-1.2233,-0.8401,0.52779996,8.50722,-0.24606647,-0.25855464,-1
899,900,1583551907546,-1.2796999,-0.78389996,0.1788,8.125729,-0.20590135,-0.46686932,-1
900,901,1583551907557,-1.6592,-0.7928,-0.0232,7.747128999999999,-0.23021686,-0.48285303,-1
901,902,1583551907567,-2.0381,-0.87619996,-0.0411,7.483144800000001,-0.14938861,-0.6629161,-1
902,903,1583551907577,-2.299,-0.8451,-0.2288,7.430586999999999,0.11354262,-1.0842094,-1
903,904,1583551907587,-2.3537,-0.667,-0.65459996,7.593795,0.46132436,-0.9728120000000001,-1
904,905,1583551907597,-2.1822999,-0.3717,-0.5381,7.627496000000001,0.71017766,-0.23645136,-1
905,906,1583551907607,-2.1376,-0.1767,0.2042,7.416739,0.82780963,0.6828072,-1
906,907,1583551907618,-2.3467,-0.1318,1.1223,7.1682973,0.8716905999999999,1.2332438000000001,-1
907,908,1583551907628,-2.7933,-0.0169,1.7896999,6.919501299999999,1.083788,1.2746346000000002,-1
908,909,1583551907638,-2.7777,0.0255,1.4203,7.0400352,1.173245,0.8045763000000001,-1
909,910,1583551907648,-2.7777,0.0255,1.4203,7.510878999999999,1.330841,0.112565786,-1
910,911,1583551907658,-1.7027999,0.3937,-0.1353,8.081858,1.6150229999999999,-0.71103,-1
911,912,1583551907668,-1.5446999,0.35709998,-0.41759998,8.186321000000001,1.5056943999999999,-0.9428366,-1
912,913,1583551907678,-1.5826,0.1423,-0.6429,8.134846000000001,1.3444017,-1.1636203999999999,-1
913,914,1583551907689,-1.5806999,0.141,-0.8739,8.207908,1.3972752,-1.2986246000000001,-1
914,915,1583551907699,-1.186,0.2662,-0.59749997,8.632495,1.5481003999999998,-0.95051724,-1
915,916,1583551907709,-0.82019997,0.38959998,-0.1383,8.928697,1.6748494999999999,-0.49024629999999997,-1
916,917,1583551907719,-0.87509996,0.3716,0.3082,8.785801,1.6548817999999998,-0.031344887,-1
917,918,1583551907729,-1.2624999,0.14479999,0.764,8.372255000000001,1.4145901,0.37641640000000004,-1
918,919,1583551907739,-1.6306,-0.2348,0.86219996,8.044766000000001,1.0719798999999999,0.36514450000000004,-1
919,920,1583551907749,-1.6306,-0.2348,0.86219996,8.260388,0.95698154,0.08045476,-1
920,921,1583551907760,-0.9009,-0.33409998,0.2953,8.964677,1.0940448,-0.2628163,-1
921,922,1583551907770,-0.2652,-0.122099996,-0.0749,9.540712,1.2800074,-0.66942835,-1
922,923,1583551907780,0.0852,0.0523,-0.78279996,9.827919999999999,1.4632403999999999,-1.4144177,-1
923,924,1583551907790,0.17119999,0.2528,-1.5060999,9.915577,1.6654737000000002,-1.9552200000000002,-1
924,925,1583551907800,0.2191,0.3105,-1.4803,9.957953999999999,1.6265249,-1.7031776,-1
925,926,1583551907810,0.2783,0.0576,-1.0295,10.025413499999999,1.263947,-1.1692036,-1
926,927,1583551907821,0.359,-0.32099998,-0.5467,10.101453,0.93721503,-0.84090114,-1
927,928,1583551907831,0.4321,-0.6791,-0.4734,10.212745,0.6202611,-0.8567028,d
928,929,1583551907841,0.6738,-0.9288,-0.226,10.469939,0.49500600000000006,-0.48537174,-1
929,930,1583551907851,0.7599,-0.9440000000000001,-0.016999999,10.350163,0.64200044,-0.42088149999999996,-1
930,931,1583551907861,0.44509998,-0.63549995,0.0185,9.927251,1.1396879,-0.46691722,-1
931,932,1583551907872,-0.0652,-0.13679999,0.027999998999999998,9.2680025,1.7739406999999998,-0.30540437,-1
932,933,1583551907882,-0.5762,0.2751,0.22909999,8.970499,2.0584197,-0.073683955,-1
933,934,1583551907892,-0.77459997,0.45999998,0.2847,8.990314,2.222681,-0.31026940000000003,-1
934,935,1583551907902,-0.48459998,0.4718,-0.1551,9.577219,2.203422,-0.7637311999999999,-1
935,936,1583551907913,0.2156,0.34849998,-0.5438,10.179858,1.9291903000000001,-0.8909781999999999,-1
936,937,1583551907923,0.7,0.0328,-0.58489996,10.531682,1.7477002000000001,-0.68919486,-1
937,938,1583551907933,0.9113,-0.1312,-0.2427,10.407471000000001,1.5969229999999999,-0.38131016,-1
938,939,1583551907943,0.5951,-0.3841,0.1002,9.897926,1.4005889,-0.07885543,-1
939,940,1583551907953,0.0164,-0.4912,0.3909,9.044097,1.6481876,0.31502905,-1
940,941,1583551907963,-0.7082,-0.24149999,0.703,8.330548,2.067489,0.39486134,-1
941,942,1583551907974,-1.4036,0.1363,0.71099997,7.8820567,2.4476883,0.37817854,-1
942,943,1583551907984,-1.9042,0.5796,0.72169995,7.416911,3.0078642,0.41497263,-1
943,944,1583551907995,-2.2208,0.9756,0.67179996,7.3076495999999995,3.2668402000000003,0.08427589999999999,-1
944,945,1583551908005,-2.2559,1.1895,0.28,7.6112247,3.453502,-0.31319988,-1
945,946,1583551908015,-1.9700999,1.3181,-0.0411,7.847388700000001,3.376466,-0.051954176,-1
946,947,1583551908026,-1.6952,1.1975,0.3092,7.8712444,2.9649985,1.0430962,-1
947,948,1583551908036,-1.7133,0.81759995,1.2738,7.403264,2.6029953999999997,2.4340412999999996,-1
948,949,1583551908046,-2.1699998,0.4358,2.674,6.3732690000000005,2.5900952999999998,3.6622187999999993,-1
949,950,1583551908056,-3.1927998,0.39479998,3.8930000000000002,4.9855227,2.8544054,4.716558,-1
950,951,1583551908066,-4.5776997,0.6337,4.9198,3.6367254,3.0849290000000003,5.749005,-1
951,952,1583551908077,-5.915499700000001,0.83129996,5.9056,2.733326,3.2313104,6.416068,-1
952,953,1583551908087,-6.8164997000000005,0.9695,6.5088,2.2904465,3.2996314,6.9962789999999995,-1
953,954,1583551908097,-7.2622,1.0446,7.0129,2.4130392000000005,3.1259367,7.512200999999999,-1
954,955,1583551908107,-7.154,0.91859996,7.462999999999999,2.868541,2.876815,8.317121499999999,-1
955,956,1583551908117,-6.7156997,0.72169995,8.2135,3.2017086,2.3408493999999997,9.093810000000001,-1
956,957,1583551908127,-6.4553,0.3464,8.8594,3.3533190000000004,2.1310599999999997,9.587571,-1
957,958,1583551908138,-6.5203,0.18329999,9.345799000000001,2.9655445,2.141077,9.389464,-1
958,959,1583551908148,-7.3163,0.033,8.9,2.1702673,1.8397621,8.839757,-1
959,960,1583551908158,-7.8876,-0.3748,8.6135,1.6985999,1.3506745,8.590415,-1
960,961,1583551908168,-7.9806,-1.0769,8.6694,1.7674571,0.46572012,8.451819,-1
961,962,1583551908178,-7.1542997,-2.0955,7.9268,2.7885842,-0.6583001,7.4713270000000005,-1
962,963,1583551908188,-5.6626,-2.6959,6.865,4.3519597,-1.2398708999999999,6.243053400000001,-1
963,964,1583551908199,-4.0037,-2.4947999,5.4021,6.0252194,-1.0913153999999998,4.5562043,-1
964,965,1583551908209,-2.6260998,-2.085,3.4462,7.3380656,-0.8283459000000001,2.530173,-1
965,966,1583551908219,-1.5764999,-1.7527,2.3471,8.284435,-0.6960327,1.6153582,-1
966,967,1583551908229,-1.0881,-1.9131,2.5362,8.701514999999999,-1.1740111,1.7485908,-1
967,968,1583551908239,-1.0719,-3.1983,2.2314,8.632447,-2.8031313,0.8799074,-1
968,969,1583551908249,-1.0719,-3.1983,2.2314,8.971179,-4.6025944,-1.9414295,-1
969,970,1583551908260,-0.3288,-5.6411,-2.0279999,9.538307000000001,-5.298808999999999,-3.9686766,-1
970,971,1583551908270,0.93109995,-5.8761,-3.8592,11.48715,-5.3366370000000005,-5.923159,-1
971,972,1583551908281,3.3927998999999995,-4.8125,-4.455899700000001,13.84655,-4.0729203,-6.062971,-1
972,973,1583551908291,4.6394,-3.2247999,-4.275,14.219307999999998,-2.8567615,-5.9142337,-1
973,974,1583551908301,4.0614,-2.4879,-4.2841997,13.124410999999998,-3.0971490000000004,-6.644378999999999,-1
974,975,1583551908311,3.1748,-3.0598,-5.5421,12.586269999999999,-3.9424362,-8.149374,-1
975,976,1583551908321,3.1920998,-4.1900997,-7.6393,13.344017000000001,-5.0735717000000005,-10.335041,-1
976,977,1583551908331,4.7216997,-4.5945,-9.6586,15.263782999999998,-5.1599164,-12.404387,-1
977,978,1583551908342,6.0520997,-4.31,-10.717999,15.776085,-5.1173954,-12.905907000000001,-1
978,979,1583551908352,6.1064997000000005,-4.155999700000001,-10.907499000000001,15.172448999999999,-4.791343,-12.776399000000001,-1
979,980,1583551908362,5.1507,-3.4891998999999996,-10.2476,14.029409,-4.1933675,-12.026994,-1
980,981,1583551908372,3.6023,-2.8481,-9.439799,12.470094,-3.936891,-11.929024,-1
981,982,1583551908382,2.7340999,-2.8845,-10.289499000000001,12.2456045,-4.2138047,-13.650914000000002,-1
982,983,1583551908393,3.0561,-3.11,-12.189099,12.998083,-4.448771499999999,-14.863041,-1
983,984,1583551908403,4.2172,-3.3339999,-13.0089,14.16608,-4.846381,-15.141784,-1
984,985,1583551908413,4.7212,-3.5816998,-12.8034,13.724176000000002,-5.1053,-14.729185999999999,-1
985,986,1583551908423,3.7386,-3.7259,-12.2175,12.237761,-5.182153700000001,-13.939098999999999,-1
986,987,1583551908433,2.1286,-3.6857,-11.375299,10.697131,-4.858745,-13.097596000000001,-1
987,988,1583551908444,0.71669996,-3.1950998,-10.766399,9.423472,-4.188378,-12.885325,-1
988,989,1583551908454,-0.2086,-2.6375,-10.822499,8.744438,-3.8548082999999997,-12.887652000000001,-1
989,990,1583551908464,-0.8698,-2.3646,-10.874,8.230891,-3.808926,-12.898963,-1
990,991,1583551908474,-1.3434,-2.3688,-10.9295,7.9804683,-4.009742,-12.574183999999999,-1
991,992,1583551908484,-1.5537,-2.603,-10.5794,7.8857436000000005,-4.3970666,-11.934827,-1
992,993,1583551908495,-1.6588999,-3.0376,-9.976,8.009361,-4.7936225,-11.148073,-1
993,994,1583551908505,-1.4451,-3.3713,-9.1475,8.36604,-4.7465150000000005,-9.991223,-1
994,995,1583551908515,-1.2045,-3.2521,-8.0346,7.9566984,-4.453512,-8.991234,-1
995,996,1583551908525,-1.7907,-3.0240998,-7.1889997,7.154976,-4.458406,-8.131197,-1
996,997,1583551908535,-2.575,-3.1134,-6.3771996,6.7579503,-4.5313907,-7.268279,-1
997,998,1583551908545,-2.8595,-3.158,-5.7455997000000005,6.828233999999999,-4.377156299999999,-7.091022,-1
998,999,1583551908556,-2.7593,-3.0135,-5.7469,7.0343275,-4.3397107,-7.1409845,-1
999,1000,1583551908566,-2.5676,-3.0437999,-5.9119997,7.462784299999999,-4.6000559999999995,-7.1343955999999995,-1
1000,1001,1583551908576,-2.1961,-3.2533998,-5.9891,8.128964999999999,-4.6133013,-6.719930000000001,-1
1001,1002,1583551908586,-1.5371,-3.2540998,-5.6576,8.521203,-4.6894364,-6.1659217,-1
1002,1003,1583551908596,-1.1499,-3.3244998,-5.1577997,8.578097999999999,-4.783816000000001,-5.215864,-1
1003,1004,1583551908606,-1.0953,-3.4197998,-4.2622,8.36808,-4.8607945,-4.2288685,-1
1004,1005,1583551908617,-1.3939999,-3.5184,-3.0628,7.798442,-5.0018797,-2.5820220000000003,-1
1005,1006,1583551908627,-1.8891,-3.6329,-1.7289,7.6057369999999995,-5.052177400000001,-1.1782920000000001,-1
1006,1007,1583551908637,-2.0797,-3.6671,-0.4129,7.704292,-5.137439700000001,0.23780170000000003,-1
1007,1008,1583551908647,-1.984,-3.7236998,0.89659995,7.854466,-5.1913,0.94937754,-1
1008,1009,1583551908657,-1.8362999,-3.7335,1.5083,8.310533,-5.0326023,1.0072024,-1
1009,1010,1583551908667,-0.6569,-3.3351,1.4189999,9.181745,-4.976291000000001,1.1746528,-1
1010,1011,1583551908677,0.1295,-3.5124998,2.2431997999999997,9.926964,-5.288255,2.2728732000000003,-1
1011,1012,1583551908688,0.5949,-3.9036,3.5095,10.348411,-5.881232,3.8979517999999995,-1
1012,1013,1583551908698,0.875,-4.4941998,5.6456,10.5619545,-6.505314,6.370415,-1
1013,1014,1583551908708,1.0275999,-4.6498,8.3202,10.652426,-6.594722999999999,8.746842,-1
1014,1015,1583551908718,0.8955,-4.2718997000000005,10.274799,10.426039999999999,-6.201547,10.553163,-1
1015,1016,1583551908728,0.5283,-3.7498998999999995,10.995999000000001,10.078612,-5.770025700000001,11.052402,-1
1016,1017,1583551908739,0.5283,-3.7498998999999995,10.995999000000001,10.356637,-5.269829799999999,10.404558,-1
1017,1018,1583551908749,0.6728,-3.2150998,10.4472,10.660183,-5.0770197,10.062303,-1
1018,1019,1583551908759,1.4221,-2.6678,9.5568,11.9358425,-4.958507,9.438564999999999,-1
1019,1020,1583551908769,3.4584,-2.8312,9.6342,13.156397,-5.241626,10.161242,-1
1020,1021,1583551908779,4.1896,-2.7710000000000004,11.1747,13.783667999999999,-5.218401999999999,12.095497,-1
1021,1022,1583551908789,4.1896,-2.7710000000000004,11.1747,13.561572,-5.3069015,13.025233,-1
1022,1023,1583551908800,3.6961,-2.7845,13.1114,13.038545,-5.2259965,13.203132,-1
1023,1024,1583551908810,3.5214999,-2.5319998,12.4565,13.131756,-4.979930400000001,12.250402000000001,-1
1024,1025,1583551908820,4.0236998,-2.2998,11.2171,13.867435999999998,-4.7702265,10.980623,-1
1025,1026,1583551908830,4.9976,-2.1055,9.882999,14.869247,-4.616605,9.497836999999999,-1
1026,1027,1583551908840,5.9999,-1.9556999,8.183599000000001,15.670079000000001,-4.461748,8.251683,-1
1027,1028,1583551908850,6.7921996,-1.6744,7.25,16.358843,-4.095119,7.5724382,-1
1028,1029,1583551908861,6.7731,-1.4482,7.3532996,16.015954999999998,-3.9138782,7.9037957,-1
1029,1030,1583551908871,5.9807997,-1.5461,7.6629996,15.066453,-4.0201616,8.08677,-1
1030,1031,1583551908881,5.016,-1.6674,7.6728997,14.311589999999999,-3.9587455,7.939163000000001,-1
1031,1032,1583551908891,4.5399,-1.5640999,7.2805995999999995,14.053619,-3.7381723,7.377311,-1
1032,1033,1583551908901,4.4274,-1.5041,6.5042995999999995,14.009460999999998,-3.4827017999999996,6.3833345999999995,-1
1033,1034,1583551908912,4.4437,-1.3377999,5.678499700000001,14.099722,-3.2226627,5.659663,-1
1034,1035,1583551908922,4.5109997,-1.2493,4.8986998,14.205363,-3.122939,4.7255797,-1
1035,1036,1583551908932,4.5797,-1.2889,3.8471,14.218914999999999,-3.061734,3.5085587999999994,-1
1036,1037,1583551908942,4.5998,-1.3615999,2.5105999,14.386059,-3.04802,2.451088,-1
1037,1038,1583551908952,4.7859,-1.5475999,1.8332,14.604257,-3.3423727,2.4923735000000002,-1
1038,1039,1583551908963,4.9607,-2.0484,2.2763999,14.545417,-3.7330297999999997,2.983472,-1
1039,1040,1583551908973,4.6042,-2.5472,2.6392999,13.939617000000002,-4.0270660000000005,2.8878574,-1
1040,1041,1583551908983,3.9634998,-2.9066,2.417,13.46657,-3.9443803,2.4004362,-1
1041,1042,1583551908993,3.6192,-2.7870998,1.9877,13.240597,-3.3697142999999996,2.0479715,-1
1042,1043,1583551909003,3.2784,-2.3195999,1.7958,12.647102,-2.814863,1.8997224999999998,-1
1043,1044,1583551909013,2.5391,-2.0994,1.7123,11.81755,-2.676641,1.5335053,-1
1044,1045,1583551909024,1.6761,-2.2802,1.0569,11.083037,-2.6817547999999998,0.118886486,-1
1045,1046,1583551909034,1.2189,-2.4162998,-0.1616,10.936063,-2.645746,-1.1666753,-1
1046,1047,1583551909044,1.1281999,-2.5853,-1.2574999,10.907428,-2.8047497000000003,-1.7930272,-1
1047,1048,1583551909054,1.0608,-2.9408,-1.6685,10.66431,-2.971865,-1.6108955,-1
1048,1049,1583551909064,0.76229995,-3.2565,-1.1924,10.04565,-2.8447522999999997,-0.7762385,-1
1049,1050,1583551909075,0.0867,-3.2147,-0.2395,9.299338,-2.2663035,-0.23878809999999998,-1
1050,1051,1583551909085,-0.6322,-2.7621999,0.2662,8.372045,-1.5460893,-0.69260424,-1
1051,1052,1583551909095,-1.6114998999999999,-2.3002,-0.3497,7.3194574999999995,-0.98416054,-1.7904607,-1
1052,1053,1583551909105,-2.5778,-1.9573,-1.3065,6.624593300000001,-0.7431985,-2.3593519,-1
1053,1054,1583551909115,-3.1791,-2.0046,-1.6782999,6.256547,-0.9456043,-2.24986,-1
1054,1055,1583551909125,-3.4448,-2.4147,-1.4258,6.1776724000000005,-1.1488242,-1.9548560000000001,-1
1055,1056,1583551909136,-3.511,-2.7340999,-1.0819,5.9248257,-0.96740115,-1.8135983,-1
1056,1057,1583551909146,-3.7688,-2.6548998,-0.95159996,5.1984725,-0.29273427,-2.0703716,-1
1057,1058,1583551909156,-4.375099700000001,-2.2479,-1.1286,4.2832365,0.5389921999999999,-2.366017,-1
1058,1059,1583551909166,-5.2419,-1.619,-1.3794999,3.2730556,1.4635946000000002,-2.4394426,-1
1059,1060,1583551909176,-6.2030997,-0.8814,-1.3972,2.1991892,2.1037369999999997,-2.2891538,-1
1060,1061,1583551909186,-7.2317995999999996,-0.4195,-1.2054,1.4230559999999999,2.3793194,-2.1696353,-1
1061,1062,1583551909197,-8.095799000000001,-0.2548,-1.0123,0.93166053,2.5077062000000003,-2.0762806,-1
1062,1063,1583551909207,-8.4067,-0.311,-0.92069995,1.0754658000000001,2.6641624,-1.8043470000000001,-1
1063,1064,1583551909217,-8.2252,-0.2529,-0.6468,1.3490176999999999,2.742491,-1.8376073,-1
1064,1065,1583551909227,-7.9316998,-0.2641,-0.6744,1.3319039,2.7305872000000004,-2.3321726000000003,-1
1065,1066,1583551909237,-7.915899799999999,-0.29299998,-1.3419,1.1042155,2.920428,-2.490391,-1
1066,1067,1583551909247,-8.0672,-0.29299998,-1.3419,0.88420737,3.1106138,-2.4661715,-1
1067,1068,1583551909257,-8.304299,-0.16749999,-1.3202,0.53566915,3.49654,-2.1835792,-1
1068,1069,1583551909268,-8.6399,0.17629999,-1.0451,0.024842238,3.9009879,-1.565511,-1
1069,1070,1583551909278,-9.873,0.6768,0.23600000000000002,-0.94217587,4.195130000000001,-0.84117883,-1
1070,1071,1583551909288,-10.552899,0.7813,0.59639996,-1.6006675,4.3690352,-0.56423676,-1
1071,1072,1583551909298,-10.9375,1.0649998999999999,0.5416,-1.9328008,4.746208,-0.6908420999999999,-1
1072,1073,1583551909308,-11.0879,1.5223999,0.1981,-2.055422,5.1912518,-1.1322083,-1
1073,1074,1583551909318,-11.073199,1.7529999,-0.5306,-1.9824947,5.336398,-1.911454,-1
1074,1075,1583551909329,-10.814099,1.6953,-1.2437,-1.6652533999999999,5.2000813,-2.5733837999999998,-1
1075,1076,1583551909339,-10.3564,1.5376999,-1.6685,-1.1961911,4.9819407,-2.9040133999999997,-1
1076,1077,1583551909349,-10.1081,1.3694998999999999,-1.479,-0.9960167,4.7156863,-2.5599186,-1
1077,1078,1583551909359,-10.3313,1.0186,-0.7116,-1.290197,4.2584040000000005,-1.7308929,-1
1078,1079,1583551909369,-10.3313,1.0186,-0.7116,-1.8160307,3.8915641000000005,-1.0455478,-1
1079,1080,1583551909379,-11.6542,0.3354,0.9087,-2.5744371,3.4628873,-0.15732779,-1
1080,1081,1583551909389,-12.1423,0.0412,1.2969998999999999,-2.9840755,3.0373897999999997,0.121462636,-1
1081,1082,1583551909399,-12.295799,-0.2527,1.1703,-2.9885862000000003,2.60153,-0.024698585,-1
1082,1083,1583551909410,-11.997399,-0.58239996,0.9345,-2.5320792,2.0648649,-0.27845523,-1
1083,1084,1583551909420,-11.293099,-1.1466,0.60969996,-1.7690566000000003,1.2608728,-0.58737427,-1
1084,1085,1583551909430,-10.7963,-1.7472999,0.406,-1.2575591999999998,0.41161114,-0.6820027,-1
1085,1086,1583551909440,-10.5126,-2.3260999,0.56159997,-0.93143064,-0.46331635,-0.45397896,-1
1086,1087,1583551909451,-10.3913,-2.6801999,0.38099998,-0.88741565,-0.9325799000000001,-0.7617105,-1
1087,1088,1583551909461,-10.785999,-2.5901,0.044299997,-1.3580774,-1.0149213,-0.8269669,-1
1088,1089,1583551909471,-11.236199000000001,-2.4919999,0.4563,-1.572981,-1.5051006000000002,0.12402923,-1
1089,1090,1583551909482,-11.2015,-2.8216,1.3966999,-1.2240883,-2.332872,1.5070063999999999,-1
1090,1091,1583551909492,-10.6692,-3.2498999,2.7416,-0.494259,-2.9072982999999994,2.5270127999999996,-1
1091,1092,1583551909502,-9.5294,-3.5802998999999995,3.2826,0.54485327,-3.343924,2.729907,-1
1092,1093,1583551909512,-8.168799,-3.6913998,2.8234,2.3273842,-4.1356964,1.9753505,-1
1093,1094,1583551909522,-7.0947,-4.0511,2.1106,3.192122,-5.0358872,1.685499,-1
1094,1095,1583551909533,-6.3553,-4.6003,2.0556,3.6175718,-6.0356097,2.0750067,-1
1095,1096,1583551909543,-6.0979,-5.2247,2.5391,3.4868099999999997,-7.256653,2.7251475,-1
1096,1097,1583551909553,-6.3220997,-6.2549,3.1304998,3.2941248,-8.63579,3.0052881,-1
1097,1098,1583551909563,-5.9765,-7.6638,2.9768999,4.636726,-10.558832,2.2706703999999998,-1
1098,1099,1583551909573,-3.8794,-8.4524,1.9569999,7.298226,-11.456762,1.108027,-1
1099,1100,1583551909584,-0.9582,-8.7586,0.511,9.7912035,-12.276078,-0.440083,-1
1100,1101,1583551909594,1.3333,-9.3075,-0.8986,11.374814,-13.989493,-0.7880946,-1
1101,1102,1583551909604,2.44,-10.4204,-0.62619996,11.358571000000001,-15.942020999999999,0.83509755,-1
1102,1103,1583551909614,2.5061998,-11.992499,1.2202,11.467326,-17.695793,3.5329892999999997,-1
1103,1104,1583551909624,3.0147998,-13.1458,3.9420998,12.234075,-18.572435000000002,5.7913632,-1
1104,1105,1583551909634,4.1273,-13.5411,5.7444,13.823757,-19.252779999999998,5.021895400000001,-1
1105,1106,1583551909645,6.2556,-13.683499,3.9111,16.569283,-19.037256,1.0812215,-1
1106,1107,1583551909655,9.3835,-12.925099000000001,-0.27269998,18.992914000000003,-18.839129999999997,-1.951466,-1
1107,1108,1583551909665,11.9168,-12.5608,-3.0086,20.612907,-19.191824,-2.717869,-1
1108,1109,1583551909675,13.615298999999998,-12.5667,-3.3169,20.834764,-19.0464,-1.1201799,-1
1109,1110,1583551909685,13.679998999999999,-12.0178995,-1.8143,19.34245,-18.415989,0.11060254,-1
1110,1111,1583551909696,12.2446995,-11.1772995,-0.266,17.453654999999998,-17.548828,1.2762053,-1
1111,1112,1583551909706,10.890599,-10.2758,0.657,16.364416000000002,-16.516304,1.3487208000000002,-1
1112,1113,1583551909716,9.9601,-9.0889,0.71849996,15.780901,-15.586866,1.330027,-1
1113,1114,1583551909726,9.5535,-8.0176,0.64019996,15.882273000000001,-15.214108,1.5184697,-1
1114,1115,1583551909736,9.8404,-7.5101,0.7409,16.331501,-14.9194975,1.076299,-1
1115,1116,1583551909747,10.4723,-7.0888995999999995,0.18969999,16.68366,-14.362548,-0.01112825,-1
1116,1117,1583551909757,11.0309,-6.3949,-1.0047,16.550148,-13.8059435,-0.5923255000000001,-1
1117,1118,1583551909767,11.0116,-5.7714996,-1.6472,15.853311999999999,-13.200861999999999,-0.41296148,-1
1118,1119,1583551909777,10.1816,-4.9269,-1.4161999,14.109194,-12.255325,0.48784253,-1
1119,1120,1583551909788,8.7544,-4.1053,-0.6532,12.442703999999999,-11.539487,1.1577785,-1
1120,1121,1583551909798,5.6003,-2.4738998,0.33249998,10.618208000000001,-10.500969,1.5011933000000002,-1
1121,1122,1583551909808,4.516,-1.7293999,0.5083,9.466002,-9.693347,1.6407465,-1
1122,1123,1583551909819,3.5117,-0.99549997,0.34809998,8.536402,-9.031494,1.3438271000000002,-1
1123,1124,1583551909829,3.0163,-0.4342,-0.127,8.247736999999999,-8.557375,0.87445825,-1
1124,1125,1583551909839,3.1290998,-0.1219,-0.70229995,8.387424000000001,-8.339637,0.39625952,-1
1125,1126,1583551909849,3.3723,-0.2086,-1.0423,8.57649,-8.515505000000001,0.13756125,-1
1126,1127,1583551909859,3.4025998,-0.3764,-1.0932,8.420167999999999,-8.739717,0.09139147,-1
1127,1128,1583551909869,3.0665998,-0.5015,-1.0031999,8.096088,-8.818889,0.24178565,-1
1128,1129,1583551909880,2.5972,-0.4874,-0.6055,7.610784,-8.742227,0.6404201999999999,-1
1129,1130,1583551909890,1.9871,-0.29369998,-0.21759999,6.828081,-8.527965,1.0479421999999998,-1
1130,1131,1583551909900,1.1832,-0.2226,0.22989999,6.195859,-8.498707000000001,1.4193977,-1
1131,1132,1583551909910,0.5548,-0.153,0.5629,5.592204,-8.336514,1.5976124,-1
1132,1133,1583551909920,0.2375,0.065799996,0.2039,5.378143,-8.176993,0.9737314,-1
1133,1134,1583551909930,0.25439999,0.1521,-0.43559998,5.537999,-8.0683155,0.45386400000000005,d
1134,1135,1583551909940,0.5746,0.1749,-0.8247,5.971781,-8.195305000000001,0.09175538,-1
1135,1136,1583551909950,1.1732,-0.1619,-1.1388999,6.593611999999999,-8.580523,-0.20779754,-1
1136,1137,1583551909960,1.6682,-0.4516,-1.3419999999999999,6.9096850000000005,-8.802848,-0.29402712,-1
1137,1138,1583551909970,1.6703999,-0.56119996,-1.1509,6.70522,-8.852550500000001,-0.0039456445000000005,-1
1138,1139,1583551909981,1.1675999,-0.55189997,-0.76769996,6.111267,-8.809523,0.43892420000000004,-1
1139,1140,1583551909991,0.54899997,-0.54829997,-0.2026,5.620302,-8.809331,0.97420067,-1
1140,1141,1583551910001,0.0977,-0.6245,0.3003,5.189327,-8.886395,1.3862427,-1
1141,1142,1583551910012,-0.21,-0.7676,0.47079998,5.053757,-9.055858,1.441817,-1
1142,1143,1583551910022,-0.0656,-0.92579997,0.3761,5.5725713,-9.226794,1.0667796,-1
1143,1144,1583551910032,0.6375,-1.1089,-0.1822,6.31555,-9.36627,0.70280355,-1
1144,1145,1583551910042,1.5785999,-1.2803,-0.51199996,7.3995485,-9.719606,0.43137768,-1
1145,1146,1583551910052,2.4246,-1.7874999,-0.67789996,8.122923,-10.388834,0.5445755999999999,-1
1146,1147,1583551910062,2.9823,-2.4484,-0.2667,8.407775,-10.794239,1.1610346,-1
1147,1148,1583551910072,3.0024998,-2.8845,0.6723,8.118432,-11.217773,2.1914797000000004,-1
1148,1149,1583551910083,2.5003998,-3.1741,1.3226,7.6873507,-11.3948765,2.4096203,-1
1149,1150,1583551910093,2.1339,-3.3423998,1.0569,7.7883954,-11.383347,1.5856607,-1
1150,1151,1583551910103,2.6094,-3.2951998999999996,-0.078899994,8.893023,-11.155849,0.3629035,-1
1151,1152,1583551910113,3.9264997999999998,-2.9909,-1.3857,10.304874,-10.723399,-0.6514335,-1
1152,1153,1583551910123,5.3475,-2.5697,-2.3100998,12.150210000000001,-10.252633,-0.8882680000000001,-1
1153,1154,1583551910133,6.7121997,-2.3213,-2.1548,12.65167,-10.482735,-0.35761714,-1
1154,1155,1583551910143,6.9156,-2.918,-1.3349999,12.506295,-11.247337,0.9677171999999998,-1
1155,1156,1583551910154,6.5105996,-3.7735999,0.11639999599999999,12.248046,-12.078536999999999,1.8427596000000002,-1
1156,1157,1583551910164,6.355,-4.4426,0.4709,12.8698015,-12.138613000000001,1.5904681999999999,-1
1157,1158,1583551910175,7.0580997000000005,-4.4488,0.065799996,14.107566,-11.7891445,0.70487213,-1
1158,1159,1583551910185,8.2174,-4.1930000000000005,-1.0102,15.053973999999998,-11.553546,-0.5658935,-1
1159,1160,1583551910195,9.000199,-4.0906997,-2.3236,15.925072,-11.428683,-1.4520928999999998,-1
1160,1161,1583551910205,9.717199,-4.0979,-2.9912999,16.414234,-11.508467999999999,-1.0984213,-1
1161,1162,1583551910215,9.946199,-4.3382998,-2.3741,16.101974,-11.734519,0.3520051,-1
1162,1163,1583551910225,9.2328,-4.7303,-0.8084,14.444151000000002,-11.948063000000001,1.8527865000000001,-1
1163,1164,1583551910236,7.5855,-5.0506997,0.4793,13.180741000000001,-11.832413,2.494308,-1
1164,1165,1583551910246,6.1179,-5.1363,1.188,12.638100999999999,-11.441067,2.5018737,-1
1165,1166,1583551910256,5.3059,-5.0302,1.2665,12.421415,-10.911421,2.2213116000000004,-1
1166,1167,1583551910266,4.92,-4.4797,0.9309,11.974542,-10.171038000000001,1.9102186,-1
1167,1168,1583551910276,4.3473997,-4.1075,0.71529996,11.327658999999999,-9.572114,1.7125724999999998,-1
1168,1169,1583551910286,3.523,-3.7238998,0.5345,10.701239999999999,-9.03883,1.0903003,-1
1169,1170,1583551910297,2.7226,-3.4148998,-0.044999998,10.31287,-8.556733,0.86176896,-1
1170,1171,1583551910307,2.1629999,-3.1766999,-0.21589999,10.168021000000001,-8.252804,1.5949023,-1
1171,1172,1583551910317,1.8636999,-3.0960999,0.63339996,10.0424595,-8.259938,3.2789645,-1
1172,1173,1583551910327,1.5798,-3.3416,2.4515998,9.553756,-8.461425,4.4890419999999995,-1
1173,1174,1583551910337,0.22809999,-4.0537,4.1240997,8.881692999999999,-8.482273,4.6285763,-1
1174,1175,1583551910348,-0.306,-4.2632,3.9038,8.502958999999999,-8.370005,4.1319036,-1
1175,1176,1583551910358,-0.79249996,-4.0102997,3.0173,8.148551,-7.7391133000000005,3.08241,-1
1176,1177,1583551910368,-1.1234,-3.431,2.1584,7.990925999999999,-6.895866000000001,2.2208900000000003,-1
1177,1178,1583551910378,-1.3282,-2.8573,1.7781,7.874462599999999,-6.041002,1.8874642,-1
1178,1179,1583551910389,-1.6022999,-2.394,1.7242998999999999,7.668149499999999,-5.3258443,1.8567991999999998,-1
1179,1180,1583551910399,-2.0528998,-1.9887999,1.9217,7.2336016,-4.613674,1.9732915000000002,-1
1180,1181,1583551910409,-2.9243999,-1.5202999,1.7491,6.404739,-3.866061,1.6589615000000002,-1
1181,1182,1583551910419,-3.3818,-1.1376,1.5612999,6.234061,-3.3300089999999996,1.4846733,-1
1182,1183,1583551910429,-2.9733999,-1.4314,1.6982,6.816733,-3.4468653,1.5192647,-1
1183,1184,1583551910439,-1.9959999,-1.6122999,1.8579999,8.020011,-3.408491,1.65379,-1
1184,1185,1583551910450,-1.2279999,-2.0479,2.129,8.590797,-3.5965602,1.9745172999999998,-1
1185,1186,1583551910460,-1.3982999,-2.2378,2.6898,8.120089,-3.4592288,2.3161316000000003,-1
1186,1187,1583551910470,-2.9287,-2.0718,2.5901,6.032306,-2.7981130000000003,1.9323123,-1
1187,1188,1583551910480,-4.8157997,-1.5581,2.1303,4.3965106,-1.8487835,1.4941351,-1
1188,1189,1583551910490,-6.1054997,-0.81049997,1.8642999,3.316707,-0.89572835,1.1253706,-1
1189,1190,1583551910501,-6.7783,-0.2315,1.1214,3.024595,-0.10771993,0.12978488,-1
1190,1191,1583551910511,-6.5516996,0.22929999,0.1029,3.4102050999999998,0.47716440000000004,-0.9098924,-1
1191,1192,1583551910521,-6.1243,0.4168,-0.61,3.8620004999999997,0.7214975,-1.3220399999999999,-1
1192,1193,1583551910531,-5.6356,0.40199998,-0.4252,4.3605785,0.78007877,-0.83758754,-1
1193,1194,1583551910541,-5.1849,0.065799996,0.6396,4.7101803,0.33424014,0.3520147,-1
1194,1195,1583551910551,-4.9305,-0.573,1.9246999,4.798650299999999,-0.15520173,1.7277995,-1
1195,1196,1583551910562,-5.0593,-0.8859999999999999,2.6669,4.357370400000001,-0.17123331,1.6875673999999998,-1
1196,1197,1583551910572,-5.6986,-0.8876,2.1608999,3.511863,0.12615527,0.7641334,-1
1197,1198,1583551910582,-6.5922,-0.6466,1.0751,2.6316395,0.49230534,-0.44966936,-1
1198,1199,1583551910592,-7.3873,-0.4008,-0.1413,2.10593,0.8497213,-1.5380926000000001,-1
1199,1200,1583551910602,-7.701699700000001,-0.19139999,-1.0299,2.1048672,0.9927031,-2.0823712,-1
1200,1201,1583551910612,-7.3985996,-0.1898,-1.4073,2.8001720000000003,1.0677756,-2.2338572,-1
1201,1202,1583551910622,-6.489,-0.17019999,-1.3886,3.8384511,1.2080950000000001,-1.7633869999999998,-1
1202,1203,1583551910633,-5.5122,-0.0207,-0.5965,4.5873194,1.3977541999999998,-0.8025843,-1
1203,1204,1583551910643,-4.987,0.0438,0.2899,4.7461314,1.3187358,-0.19736841,-1
1204,1205,1583551910653,-4.9718,-0.33449998,0.9535,4.8635817,0.69393545,0.7259219,-1
1205,1206,1583551910663,-4.77,-0.8035,1.5058999,5.0845566,0.7042688,0.7506493000000001,-1
1206,1207,1583551910673,-4.5969999999999995,-0.73579997,1.3795998999999999,5.003824,0.8268806999999999,0.5881596,-1
1207,1208,1583551910684,-4.7574,-0.7175,1.1915,4.606339,0.85148346,0.38763082,-1
1208,1209,1583551910694,-5.1527,-0.74729997,1.0064,4.3825955,0.8047103,-0.015868768000000002,-1
1209,1210,1583551910704,-5.2244997,-0.8296,0.4881,4.9584394,0.9404041,-0.90016234,-1
1210,1211,1583551910714,-4.4841,-0.6525,-0.3947,6.120987400000001,1.3997556,-1.4980904,-1
1211,1212,1583551910724,-3.2751,-0.1955,-0.90849996,7.061487,1.73594,-1.7299064,-1
1212,1213,1583551910734,-2.2439,0.1311,-1.0996,7.799283999999999,1.8308171999999998,-1.6358624,-1
1213,1214,1583551910744,-1.8111,0.0929,-0.89589995,7.8809457,1.6355941,-1.0921582,-1
1214,1215,1583551910755,-1.7791,-0.1417,-0.2902,7.6988716,1.4111617,-0.48601335,-1
1215,1216,1583551910765,-2.0117,-0.34759998,0.24769999,7.3886023000000005,1.2958665,-0.101169385,-1
1216,1217,1583551910775,-2.2914999,-0.51489997,0.5979,7.2658086,1.1667712,0.1862689,-1
1217,1218,1583551910785,-2.3844,-0.6342,0.8443,7.214764,1.2741079,0.25735754,-1
1218,1219,1583551910795,-2.399,-0.5244,0.81229997,7.4564824000000005,1.5583955,-0.2970534,-1
1219,1220,1583551910806,-2.1698,-0.289,0.3208,7.9212737,2.0148165000000002,-0.6665266,-1
1220,1221,1583551910816,-1.6972,0.1616,-0.0423,8.39023,2.4429667,-1.0339408,-1
1221,1222,1583551910826,-1.2262,0.5911,-0.4067,8.660048,2.5245897999999998,-1.2984712999999999,-1
1222,1223,1583551910836,-0.91279995,0.6522,-0.7398,9.002103,2.3150876,-1.6157126,-1
1223,1224,1583551910846,-0.6289,0.4597,-0.9914,9.312783999999999,1.9753696,-1.591397,-1
1224,1225,1583551910857,-0.30539998,0.1294,-0.96559995,9.5454235,1.7617397000000001,-1.2086888999999998,-1
1225,1226,1583551910866,-0.0401,-0.1363,-0.47039998,9.603824000000001,1.5538847,-0.8861898000000001,-1
1226,1227,1583551910876,-0.048699997,-0.3299,-0.23689999,9.413397999999999,1.6521907,-0.8379610000000001,-1
1227,1228,1583551910886,-0.2138,-0.22369999,-0.2083,9.249825999999999,1.9164339,-0.93422705,-1
1228,1229,1583551910896,-0.3694,0.0387,-0.322,9.106241,2.1502135,-1.1291053999999998,-1
1229,1230,1583551910906,-0.5155,0.2547,-0.5324,9.087508999999999,2.2618406,-1.2257163999999998,-1
1230,1231,1583551910917,-0.505,0.3769,-0.6556,9.317343,2.3424487000000003,-1.3832452,d
1231,1232,1583551910927,-0.2988,0.44489998,-0.7906,9.702053,2.447736,-1.3604524,-1
1232,1233,1583551910937,0.27899998,0.511,-0.8074,9.934338,2.345456,-1.3886658,-1
1233,1234,1583551910947,0.3181,0.28759998,-0.6753,9.901786,2.0801303,-1.2309932,-1
1234,1235,1583551910957,0.3181,0.28759998,-0.6753,9.706553,1.8361611,-1.0980767,-1
1235,1236,1583551910968,-0.20019999,-0.2491,-0.51989996,9.369584,1.6415031000000002,-1.1968806,-1
1236,1237,1583551910978,-0.3366,-0.1679,-0.8815,9.271192,1.7746589,-1.552841,-1
1237,1238,1583551910988,-0.4926,0.078,-1.1704,9.081187,2.035962,-1.8197081999999998,-1
1238,1239,1583551910998,-0.67759997,0.2719,-1.5995,8.90735,2.2448611,-2.2082682,-1
1239,1240,1583551911008,-0.66569996,0.5412,-1.4496,8.967817,2.559689,-1.8206276000000001,-1
1240,1241,1583551911018,-0.6035,0.8451,-0.3728,8.972109,2.8484201000000002,-0.65157723,-1
1241,1242,1583551911029,-1.04,0.83919996,0.895,8.392634,2.7802045,0.66448677,-1
1242,1243,1583551911039,-1.04,0.83919996,0.895,7.549914,2.472559,1.7788248,-1
1243,1244,1583551911049,-3.1973,-0.1741,3.2510998,6.214179,1.7356429,2.87264,-1
1244,1245,1583551911059,-3.7754998,-0.5922,3.4087,5.8046846,1.4476396999999999,2.8318903,-1
1245,1246,1583551911069,-3.5941,-0.33179998,2.3627,6.0704794,1.8065497,1.6096793,-1
1246,1247,1583551911080,-3.162,0.3576,0.88729995,6.5341883,2.4825096,0.31752859999999994,-1
1247,1248,1583551911090,-2.7895,0.9338,0.6088,6.8734850000000005,3.0046659,0.44623134,-1
1248,1249,1583551911100,-2.7870998,1.4424,2.0031,6.642377400000001,3.500141,2.7098055,-1
1249,1250,1583551911110,-3.4573,1.6603,4.6156,5.6688849999999995,3.50695,5.483028400000001,-1
1250,1251,1583551911120,-4.8592997,1.3139,7.1959,4.1232940000000005,3.0302165,7.724690400000001,-1
1251,1252,1583551911130,-6.4754,0.875,8.7441,2.5943282,2.6815825,8.7925625,-1
1252,1253,1583551911141,-7.750099700000001,0.50659996,9.281799000000001,1.5452178,2.251737,9.050935,-1
1253,1254,1583551911151,-8.313499,0.0859,9.4379,1.3097625,1.8217577,9.161241,-1
1254,1255,1583551911161,-8.059,-0.1937,9.528999,1.8585613,1.5323657,9.004362,-1
1255,1256,1583551911171,-7.280999700000001,-0.31829998,9.0015,2.7387368999999997,1.3332448000000001,8.169916,-1
1256,1257,1583551911181,-6.4968996,-0.4314,7.9863,3.3778832000000003,0.9995888,7.0600122999999995,-1
1257,1258,1583551911191,-5.9975,-0.7884,7.0508,4.002866,0.43992978,6.2324705,-1
1258,1259,1583551911201,-5.1721,-1.1042,6.4466,4.985379,0.020379445,5.4731736,-1
1259,1260,1583551911211,-4.0582,-1.2576,5.8181996,6.059916,-0.30075002,4.895778,-1
1260,1261,1583551911222,-3.2329,-1.5092,5.414,6.715458,-1.0118280000000002,4.099333000000001,-1
1261,1262,1583551911232,-2.9306997999999997,-2.039,4.6653,6.9034604999999996,-1.5663251,2.9445232999999997,-1
1262,1263,1583551911242,-2.7993,-2.2951,3.5728,6.942313700000001,-1.9652853,1.7249936999999997,-1
1263,1264,1583551911252,-2.6980999,-2.5242999,2.553,7.3747735,-2.4319727,0.48809153,-1
1264,1265,1583551911262,-1.9555,-2.8063998,1.3331,8.481133,-2.7680993,-1.2581626000000001,-1
1265,1266,1583551911272,-0.7073,-2.9115999,-0.71999997,9.889892,-3.0834732000000002,-3.7340832,-1
1266,1267,1583551911282,0.917,-3.0419998,-3.0598998,11.70732,-3.3226252,-5.872431,-1
1267,1268,1583551911292,2.7839,-2.9519,-4.8327,13.464951999999998,-3.4594395,-7.347440700000001,-1
1268,1269,1583551911302,4.3652997000000004,-2.9868999,-5.9614,14.580238,-3.9127386,-8.319573,-1
1269,1270,1583551911312,5.2089,-3.3105,-6.6421,15.083854,-4.5801077,-9.268079,-1
1270,1271,1583551911323,5.686,-3.9594,-7.6393,15.362414000000001,-5.199344,-10.193582000000001,-1
1271,1272,1583551911333,6.0899,-4.4718,-8.5539,15.88706,-5.797052,-11.524174,-1
1272,1273,1583551911343,6.6144,-4.7155,-9.5708,16.1833,-5.8239913,-12.676359,-1
1273,1274,1583551911353,6.785,-4.4795,-10.4794,15.980022,-5.55405,-13.5996685,-1
1274,1275,1583551911363,6.4291,-4.1165,-11.1395,15.331529999999999,-5.224818,-14.180991,-1
1275,1276,1583551911373,5.6794996,-3.7233998999999995,-11.413799000000001,14.409867000000002,-4.878923400000001,-14.240117999999999,-1
1276,1277,1583551911384,4.7627997,-3.4227,-11.3165,13.431605,-4.796007,-14.219384,-1
1277,1278,1583551911394,4.0555,-3.4226,-11.316299,13.073011,-4.855862,-14.585342,-1
1278,1279,1583551911404,3.7479,-3.4706,-11.8645,12.793896,-5.0075593000000005,-15.258325,-1
1279,1280,1583551911414,3.3865,-3.6734998,-12.536699,12.221364999999999,-5.3048519999999995,-15.662513,-1
1280,1281,1583551911424,2.8901,-3.9092998999999997,-12.5836,11.723496,-5.513301,-15.375229000000001,-1
1281,1282,1583551911434,2.3839,-4.0371,-12.3322,11.151646000000001,-5.286311,-14.800131,-1
1282,1283,1583551911445,1.7487999,-3.7403,-11.666699000000001,10.311691999999999,-4.6604,-13.777922,-1
1283,1284,1583551911455,0.82049996,-3.0823998,-10.6963,9.042200999999999,-4.0443907,-12.777175,-1
1284,1285,1583551911465,-0.5539,-2.5816,-9.7739,7.5984490000000005,-3.6871183,-11.7919035,-1
1285,1286,1583551911475,-2.0172,-2.3267999,-8.891,6.3857193,-3.4890127,-11.291449,-1
1286,1287,1583551911485,-3.1859999,-2.2082999,-8.7078,5.547212,-3.3932447,-11.816516,-1
1287,1288,1583551911495,-3.9634,-2.1594,-9.359799,5.2054160000000005,-3.2619944,-11.704457000000001,-1
1288,1289,1583551911506,-4.2706,-2.0554,-9.099999,4.8769599999999995,-3.1090431,-10.675669000000001,-1
1289,1290,1583551911516,-4.6749997,-1.9643999,-8.0467,4.3267155,-3.0647602000000003,-9.083055499999999,-1
1290,1291,1583551911526,-5.3037,-1.9606999,-6.4212,3.4441645,-2.7243814,-6.3775597,-1
1291,1292,1583551911536,-6.0877,-1.7179999,-4.2334,2.460435,-2.4992592,-4.647940599999999,-1
1292,1293,1583551911546,-7.0973997,-1.5421,-2.6129,1.6606853,-2.4071877,-3.6070754999999997,-1
1293,1294,1583551911556,-7.9296,-1.5094999,-1.6882,1.3498126,-2.3689861,-3.4188435,-1
1294,1295,1583551911567,-8.2788,-1.4976,-1.6651,1.6498157,-2.3079913,-3.4792635,-1
1295,1296,1583551911577,-7.9884,-1.4218,-1.8145,2.2107005,-2.5628972,-3.3446135999999997,-1
1296,1297,1583551911587,-7.4484997,-1.6393,-1.8138,2.849598,-3.004522,-2.6981025,-1
1297,1298,1583551911597,-6.4807997,-2.3913,0.0613,3.2222986000000002,-3.5018742,-0.88880426,-1
1298,1299,1583551911607,-6.4807997,-2.3913,0.0613,2.9712331,-3.783921,0.46467623,-1
1299,1300,1583551911618,-6.7123,-2.6971,1.6430999,2.1062272,-4.034258400000001,2.1186674,-1
1300,1301,1583551911628,-8.594399000000001,-2.7415,4.1712,0.92099196,-3.8837589999999995,3.3224050000000003,-1
1301,1302,1583551911638,-9.2335,-2.2163,4.6383,0.421255,-3.3835337,3.9321794999999997,-1
1302,1303,1583551911648,-9.2983,-1.5847,5.3073997,0.41186014,-2.9517154999999997,4.805814,-1
1303,1304,1583551911658,-9.1196995,-1.4036,6.0239997,0.6226361,-3.0034494,5.6301190000000005,-1
1304,1305,1583551911669,-9.1196995,-1.4036,6.0239997,0.97657573,-3.2016222,6.3364177,-1
1305,1306,1583551911679,-8.3309,-1.7709999,7.9172997,1.3042844999999998,-3.8613492999999997,7.846373599999999,-1
1306,1307,1583551911689,-8.359,-2.4796999,9.066199000000001,1.1880030000000001,-4.8691554,9.284753,-1
1307,1308,1583551911699,-8.2908,-2.9622,11.0776,1.3666198,-5.3255854000000005,11.567289,-1
1308,1309,1583551911709,-7.6453,-2.4517,13.571098999999998,1.9227546000000002,-4.892541400000001,13.811470000000002,-1
1309,1310,1583551911719,-7.4027,-1.6544,15.5104,1.8529397,-4.2272315,15.972954999999999,-1
1310,1311,1583551911730,-7.7286997,-0.88549995,16.6497,1.5505136999999998,-3.841918,16.67212,-1
1311,1312,1583551911740,-7.8652997000000004,-0.5737,16.7101,1.4091505,-4.1015644,16.655216,-1
1312,1313,1583551911751,-7.4433,-1.1668999,16.4882,2.0771040000000003,-5.53368,16.548828,-1
1313,1314,1583551911761,-6.0097,-3.0733,16.6717,3.8270931000000004,-7.951326,16.924871,-1
1314,1315,1583551911771,-3.6323998,-5.0829997,16.8401,6.2807474,-10.014754,16.603798,-1
1315,1316,1583551911781,-0.9661,-6.2388997,16.1164,8.54705,-11.090939,15.769639999999999,-1
1316,1317,1583551911792,0.7477,-6.6702,15.6354,9.669424000000001,-11.826773,15.25319,-1
1317,1318,1583551911802,1.3277,-6.9715,15.1397,9.663342,-12.420850999999999,14.6471615,-1
1318,1319,1583551911812,1.4117,-7.2369,14.5897,9.696631,-12.867101,14.40187,-1
1319,1320,1583551911822,1.8485999,-7.4479,14.3067,10.216239999999999,-13.394007,14.073482,-1
