,Seq,Time,ACCx,ACCy,ACCz,ADGx,ADGy,ADGz,Keydown
0,1,1583551936224,1.1423,-1.2588999,-0.0832,6.109179,-9.10196,2.1953871,-1
1,2,1583551936235,1.7066,-0.92569995,-1.0073,10.366021,0.8381525,-0.18907489,-1
2,3,1583551936245,0.4741,0.0385,-0.0049,9.82589,0.86193174,0.10171527,-1
3,4,1583551936256,-0.07369999599999999,0.0176,0.1638,9.211355000000001,0.8262582,0.11118673,-1
4,5,1583551936266,-0.5729,-0.0144,0.1248,9.096463,0.9130431999999998,0.12732364,-1
5,6,1583551936276,-0.68939996,0.059699997000000005,0.1162,9.363856,0.9623733,0.17560992,-1
6,7,1583551936286,-0.4141,0.1017,0.1382,9.656122,1.0473866,0.18389384,-1
7,8,1583551936296,-0.1195,0.1859,0.12079999599999999,9.95849,1.0465918,0.0761835,-1
8,9,1583551936306,0.1753,0.1797,-0.0221,10.152708,1.03894,-0.35212,-1
9,10,1583551936316,0.3827,0.1558,-0.43989998,10.1758175,1.0906354999999999,-0.71835625,-1
10,11,1583551936326,0.40469998,0.1768,-0.7971,10.214286999999999,1.0348601,-0.6784114,-1
11,12,1583551936337,0.4446,0.1192,-0.7338,10.279467,0.9949056999999999,-0.20713675,-1
12,13,1583551936346,0.5046,0.057999999999999996,-0.2597,10.19882,1.037647,0.14358507,-1
13,14,1583551936356,0.3789,0.107499994,0.1387,9.914514,1.1356082,0.4249325,-1
14,15,1583551936366,0.077599995,0.1589,0.38529998,9.70982,1.1375523,0.7673225,-1
15,16,1583551936377,-0.066,0.1369,0.7295,9.676051,1.1915463,0.9544821,-1
16,17,1583551936387,-0.0819,0.1537,0.8153,9.65342,1.2621465,0.8660976,-1
17,18,1583551936397,-0.0975,0.18100000000000002,0.6849,9.534601,1.30031,0.7315531,-1
18,19,1583551936407,-0.1574,0.11669999,0.4745,9.676568,1.2712348999999998,0.8198513000000001,-1
19,20,1583551936418,0.1986,0.0941,0.5506,10.061547000000001,1.2140231000000001,0.9134071,-1
20,21,1583551936428,0.1986,0.0941,0.5506,10.358245,1.2398421999999998,0.96679777,-1
21,22,1583551936438,0.6543,0.0317,0.7854,10.361311,1.1365947,1.2972743999999998,-1
22,23,1583551936448,0.3047,-0.2254,1.2982,9.915701,0.8902694999999999,1.8861426,-1
23,24,1583551936458,-0.3276,-0.4757,1.8133999,9.299778,0.6558771999999999,2.470165,-1
24,25,1583551936468,-0.7326,-0.61439997,2.4050999,8.934835000000001,0.5538938,3.1688218,-1
25,26,1583551936479,-0.7326,-0.61439997,2.4050999,8.664702,0.5643611999999999,3.6767852,-1
26,27,1583551936489,-1.6807,-0.54829997,3.0512998,7.8135924,0.60669076,4.4015865,-1
27,28,1583551936499,-2.7231998,-0.64519995,3.5544998999999997,6.7130350000000005,0.49913362,4.9290959999999995,-1
28,29,1583551936509,-3.6785997999999998,-0.6986,4.2697,5.9828806,0.49383762,5.560131500000001,-1
29,30,1583551936519,-4.263,-0.5679,5.246299700000001,5.2977360000000004,0.6870784000000001,6.740894,-1
30,31,1583551936529,-4.740999700000001,-0.32349998,5.8661,4.681325,0.95812124,7.231552000000001,-1
31,32,1583551936539,-5.4851,-0.047599997000000005,5.699,3.9895157999999995,1.1827644,6.9401399999999995,-1
32,33,1583551936549,-6.4367,0.13,4.9354,3.03534,1.3288681999999998,6.0574546,-1
33,34,1583551936560,-7.2921996,0.1634,3.6841,2.2327943,1.3763595,4.758993,-1
34,35,1583551936571,-7.9249997,0.3685,2.7531,1.4714763000000002,1.5931113000000001,3.8959887,-1
35,36,1583551936581,-8.687799,0.4603,2.6719999999999997,0.6255283,1.5795124,4.0678635000000005,-1
36,37,1583551936591,-9.6395,0.2539,3.0886998,-0.38928762,1.2553756999999999,4.3483777,-1
37,38,1583551936602,-10.6916,-0.12789999,3.284,-1.3725863,0.7926149,4.3718605,-1
38,39,1583551936612,-10.6916,-0.12789999,3.284,-1.6543071,0.5565274,4.3277397,-1
39,40,1583551936622,-11.7324,-1.3282,3.0084,-1.8734053,-0.70567656,3.5131172999999993,-1
40,41,1583551936632,-11.4157,-1.7478,2.1545,-1.3742622,-0.9806459000000001,2.131165,-1
41,42,1583551936643,-10.8144,-1.7324,0.8437,-0.6240918000000001,-1.0410085,1.0541575,-1
42,43,1583551936653,-10.133599,-1.7116,-0.044299997,-0.21778616,-1.2188018999999999,-0.07722737,-1
43,44,1583551936663,-10.0103,-1.7041,-0.87109995,-0.44387543,-1.3495923,-0.72146875,-1
44,45,1583551936674,-10.3656,-1.7132,-1.4548,-0.807095,-1.4668889999999999,-1.0400795,-1
45,46,1583551936684,-10.7771,-1.7339,-1.4307,-1.2926582,-1.7504008999999998,-1.0055551999999999,-1
46,47,1583551936694,-11.331699,-1.8849,-1.2666998999999999,-1.9380680000000001,-2.1222682,-1.0253984,-1
47,48,1583551936704,-11.939899,-2.1557999,-1.3922,-2.1704204,-2.8374546,-1.6644107,-1
48,49,1583551936714,-11.8351,-2.5388,-2.0283,-0.88424575,-3.6653602,-2.8297548,-1
49,50,1583551936725,-10.250199,-3.0974,-3.3134,1.3004346000000002,-4.359113,-4.617371,-1
50,51,1583551936735,-8.0264,-3.4775998999999995,-5.1517,3.3404955999999997,-5.242909,-6.4040585,-1
51,52,1583551936745,-6.0462,-4.138,-6.9110000000000005,4.721356,-6.380912,-7.8338470000000004,-1
52,53,1583551936756,-4.7504,-4.852999700000001,-8.190599,5.5457754,-7.322216,-8.6195,-1
53,54,1583551936765,-3.9171,-5.2983,-8.8007,5.8978095,-8.163471000000001,-8.458331,-1
54,55,1583551936775,-3.5979,-6.0123,-8.565,6.3535314000000005,-9.121027,-8.386065499999999,-1
55,56,1583551936785,-2.9236,-6.6756997,-8.716000000000001,7.542712,-9.770439999999999,-9.480751,-1
56,57,1583551936795,-1.4340998999999999,-6.9581,-10.2885,9.964266,-10.176611,-11.676062,-1
57,58,1583551936805,1.2493,-6.9775996,-12.447599,12.211194,-10.630409,-11.955513999999999,-1
58,59,1583551936816,3.3472998,-7.2443,-12.4133,12.80942,-11.616877,-10.91779,-1
59,60,1583551936825,3.7357,-7.9879999999999995,-11.519999499999999,12.336153,-12.586117,-10.635724,-1
60,61,1583551936835,3.1604997999999997,-8.779099,-11.625,11.676186999999999,-13.329498000000001,-11.076573,-1
61,62,1583551936846,3.0491998,-9.021,-12.1964,13.319576000000001,-13.804872,-11.518658,-1
62,63,1583551936856,4.7908998,-9.096,-12.7394,16.122679,-13.673964999999999,-11.640284,-1
63,64,1583551936867,7.7868,-8.6803,-13.063499,17.920906,-13.742325,-11.109478999999999,-1
64,65,1583551936876,9.788099,-8.482699,-12.7039995,18.068485,-14.274220000000001,-10.066957,-1
65,66,1583551936886,10.1159,-8.7775,-11.7949,17.551165,-14.9251375,-8.672813,-1
66,67,1583551936896,9.788799000000001,-9.1993,-10.4886,17.451002,-15.735307,-7.3388605,-1
67,68,1583551936906,9.871099000000001,-9.7993,-9.2381,18.441195,-16.485773000000002,-7.178496400000001,-1
68,69,1583551936917,11.033899,-10.3377,-9.130799,20.508627,-17.061455,-7.329207000000001,-1
69,70,1583551936927,13.284598999999998,-10.7176,-9.331099499999999,22.72653,-17.2284,-6.770247,-1
70,71,1583551936937,15.675699,-10.6949,-8.7731,23.734861,-16.991266,-5.5603419999999995,-1
71,72,1583551936947,16.1239,-10.021,-5.848099700000001,22.704683,-16.796626999999997,-3.6166139999999998,-1
72,73,1583551936957,14.9444,-9.8417,-4.2076,21.544788,-16.63496,-2.1221533,-1
73,74,1583551936968,14.9444,-9.8417,-4.2076,21.064531,-16.452091,-1.0177943999999999,-1
74,75,1583551936978,14.3236,-9.5659,-2.9176998,21.402458,-16.125196,-0.40369114,-1
75,76,1583551936988,14.845999999999998,-8.726399,-1.4627,21.586535,-15.5646,0.2284643,-1
76,77,1583551936998,14.6033,-8.220799000000001,-0.7527,21.31031,-15.085788,0.8641249,-1
77,78,1583551937008,13.9565,-8.0480995,0.42589998,20.631977,-14.980884,1.995797,-1
78,79,1583551937018,12.9379,-8.2291,1.5749999,19.686935000000002,-15.086344,2.9412097999999998,-1
79,80,1583551937028,12.004499000000001,-8.3508,2.3135,18.89228,-15.090606,3.4902290000000002,-1
80,81,1583551937039,11.1026,-8.3039,2.9106998,18.099226,-14.918710999999998,4.0548773,-1
81,82,1583551937049,10.0977,-8.2539,3.9234,17.196182,-14.687967,5.0940757,-1
82,83,1583551937059,8.7439995,-7.9866996,5.3490996,15.944703,-14.162757000000001,6.4951534,-1
83,84,1583551937069,7.0427,-7.4635997000000005,6.6653,14.004634,-13.237148000000001,7.885322,-1
84,85,1583551937079,5.2437,-6.7892,7.5958996,12.769388000000001,-12.49735,8.540136,-1
85,86,1583551937090,3.7947,-6.2023,8.4147,11.596919,-11.689604,9.268931,-1
86,87,1583551937100,2.7996,-5.8431,8.6886,10.7845,-11.1061945,9.251434,-1
87,88,1583551937110,2.1060998,-5.9318,8.453199,10.251397,-11.098158999999999,9.016295,-1
88,89,1583551937121,1.4604,-6.3608,8.540999000000001,9.804485000000001,-11.250517,9.131505,-1
89,90,1583551937131,0.86249995,-6.5334,8.6248,9.396695,-10.945917,9.079875999999999,-1
90,91,1583551937141,0.33139998,-6.2655,8.5401,8.965606,-10.212678,8.988992,-1
91,92,1583551937151,-0.33949998,-5.7163,8.4669,8.398582000000001,-9.30562,8.829605,-1
92,93,1583551937161,-1.0225999,-5.2089,8.2519,7.509883,-8.306721000000001,8.518502999999999,-1
93,94,1583551937172,-1.9899999,-4.7483,8.092299,6.867939999999999,-7.768897,8.583615,-1
94,95,1583551937182,-3.073,-4.3385997000000005,8.3633995,5.61107,-6.954035799999999,8.916007,-1
95,96,1583551937193,-4.3092,-3.9842,8.6212,4.3819930000000005,-6.225815,8.990936,-1
96,97,1583551937204,-5.5801,-3.6100998,8.635799,3.3729897000000006,-5.584887,8.891807,-1
97,98,1583551937214,-6.5025,-3.1594,8.536799,2.6217082,-4.51082,8.459806,-1
98,99,1583551937224,-7.1454,-2.5757,7.9476,2.1570034,-4.0031724,6.808487400000001,-1
99,100,1583551937234,-7.5691,-2.3463,6.0518,2.2774603,-3.4996047,4.482367,-1
100,101,1583551937244,-7.3257,-1.9956,3.7259,2.8325322,-2.6927204,3.0267307999999997,-1
101,102,1583551937255,-6.8595,-1.4817,2.5332,2.9609187,-2.1087074,2.953497,-1
102,103,1583551937265,-6.9407,-0.9395,2.7282999,2.1392577,-1.4988852,3.403626,-1
103,104,1583551937275,-7.8728,-0.6895,3.1058,0.96339804,-0.9530934000000001,3.4525537,-1
104,105,1583551937285,-9.0559,-0.34600000000000003,3.1011,-0.0625174,-0.30527028,2.6969917000000003,-1
105,106,1583551937295,-10.0275,0.1122,2.3040000000000003,-0.77168953,0.42275855,1.7581486000000002,-1
106,107,1583551937306,-10.6889,0.6288,1.5746,-1.531226,1.2568313999999998,1.5020839,-1
107,108,1583551937316,-11.325999000000001,1.1344,1.5144,-1.8468585,1.9027392,1.467071,-1
108,109,1583551937327,-11.637199,1.6463,1.5216999,-1.6476511999999999,2.4742349999999997,0.40186197,-1
109,110,1583551937337,-11.4383,2.1220999,0.45029998,-0.7202525,2.6895695,-2.049379,-1
110,111,1583551937348,-8.6118,2.3930000000000002,-4.7729,1.6641903999999998,2.816721,-5.209898,-1
111,112,1583551937358,-6.0818996,2.3508,-6.112,4.2119083,2.7061182999999995,-6.164111599999999,-1
112,113,1583551937368,-4.2578998,1.9015,-5.8585997,5.7170762999999996,2.1274397,-5.759836,-1
113,114,1583551937378,-4.0116,0.802,-4.9879,5.6965145999999995,0.9930095,-4.862643,-1
114,115,1583551937388,-4.7637,-0.19759999,-3.6699,4.857213,0.16080417,-3.5543742,-1
115,116,1583551937398,-5.5239997,-0.56479996,-2.4027998,4.1553187000000005,-0.04658159,-2.5057619,-1
116,117,1583551937408,-5.9702997,-0.557,-2.1715999,3.7910172999999996,0.08456319999999999,-2.5197825000000003,-1
117,118,1583551937418,-5.9174,-0.32639998,-2.6067998,3.956725,0.37840834,-3.0638504,-1
118,119,1583551937428,-5.2681,-0.0234,-3.3005,4.701273400000001,0.6753851,-3.7867267,-1
119,120,1583551937439,-4.2183,0.0567,-3.8725,5.8113402999999995,0.7029664000000001,-4.3070059999999994,-1
120,121,1583551937449,-3.0514997999999998,-0.0354,-4.0562,6.976062,0.5683547,-4.4450845999999995,-1
121,122,1583551937459,-1.9531,-0.26139998,-4.0141,8.035324000000001,0.30983844,-4.391052200000001,-1
122,123,1583551937470,-1.0989,-0.43379998,-3.7454,8.801765,0.15518257,-4.168583,-1
123,124,1583551937480,-0.7633,-0.48909998,-3.5207998999999996,9.037258999999999,0.12740983,-3.8859427,-1
124,125,1583551937491,-0.8390000000000001,-0.38939998,-2.9492,8.880037,0.32659784,-3.1553566,-1
125,126,1583551937501,-1.0814999,-0.1793,-2.0648,8.515217999999999,0.54106086,-2.4048605,-1
126,127,1583551937511,-1.5601,-0.0368,-1.5777999,8.08657,0.61868083,-2.0503752,-1
127,128,1583551937521,-1.7458999,-0.0122,-1.3679,8.066707000000001,0.68464595,-2.0839229,-1
128,129,1583551937531,-1.6292,0.0775,-1.6171,8.284627,0.7236427,-2.3792331,-1
129,130,1583551937542,-1.0133,0.0766,-2.2775,9.16964,0.6819835999999999,-3.1489689999999997,-1
130,131,1583551937552,0.0629,0.13669999,-2.7184,10.319066000000001,0.71391267,-3.2795105,-1
131,132,1583551937562,1.12,0.1779,-2.4297,11.348832000000002,0.65946853,-2.6321567999999997,-1
132,133,1583551937572,1.6976999,0.1196,-1.7041,11.444361,0.5454949,-1.8156188999999998,d
133,134,1583551937582,1.4525,0.0241,-0.86969995,10.713794,0.42558372,-1.0940831,-1
134,135,1583551937593,0.5509,-0.10529999400000001,-0.2935,9.827557,0.3564583,-0.7316968,-1
135,136,1583551937603,-0.2234,-0.1304,0.0011,9.407689999999999,0.36945403,-0.5731335999999999,-1
136,137,1583551937613,-0.32209998,-0.098299995,0.091299996,9.805607,0.43852198,-0.66964865,-1
137,138,1583551937623,0.2942,0.0058,-0.2618,10.494984,0.56391114,-1.2637267,-1
138,139,1583551937633,0.9396,0.1391,-0.9396,11.177475,0.58966315,-1.8184249,-1
139,140,1583551937643,1.4774,0.1652,-1.2405,11.5095215,0.5329109999999999,-1.6943861,-1
140,141,1583551937654,1.7513,0.0872,-1.0042,11.528253999999999,0.4043328,-1.1877826,-1
141,142,1583551937664,1.6535,-0.0602,-0.26729998,11.159537,0.20131406,-0.3234758,-1
142,143,1583551937674,1.2821,-0.21769999,0.4001,10.839383999999999,0.051848833,0.003926491,-1
143,144,1583551937684,1.0483999,-0.36069998,0.6679999999999999,10.952113,0.06131072,0.07474698,-1
144,145,1583551937694,1.2068,-0.3269,0.6867,11.152431,0.21671356,-0.036209907,-1
145,146,1583551937704,1.4037,-0.1551,0.6268,11.113636,0.33426887,-0.22019953,-1
146,147,1583551937714,1.2570000000000001,-0.0828,0.3933,10.889863,0.35293406,-0.4026377,-1
147,148,1583551937725,1.0905,-0.0497,0.2756,10.919504,0.48138776,-0.5210262,-1
148,149,1583551937735,1.1886,0.0651,0.1065,11.220858,0.5540662,-0.65626025,-1
149,150,1583551937745,1.5019999999999998,0.126,0.0242,11.492389,0.5694561,-0.53057426,-1
150,151,1583551937755,1.7271999,0.1592,0.1681,11.442492999999999,0.5587396,-0.49283206,-1
151,152,1583551937765,1.6193999,0.11109999599999999,0.1792,11.1517315,0.36358348,-0.46864104,-1
152,153,1583551937776,1.3646,-0.0568,0.2105,11.080278999999999,0.10291237,-0.46292368,-1
153,154,1583551937786,1.2865,-0.32369998,0.2144,11.176661,-0.07795521,-0.54341674,-1
154,155,1583551937796,1.3946999,-0.48299998,0.1388,11.372448,-0.080157876,-0.60984147,-1
155,156,1583551937806,1.5911,-0.48729998,0.072299995,11.376988,0.031737536000000004,-1.2072235,-1
156,157,1583551937817,1.5914999,-0.40809998,-0.5352,11.233307,0.25692657,-1.5494987,-1
157,158,1583551937827,1.4451,-0.20189999,-0.87109995,10.990803,0.5508771,-1.1551545,-1
158,159,1583551937837,1.2107999,0.0729,-0.47649997,10.498986,0.727416,-0.81582904,-1
159,160,1583551937848,0.0976,0.17899999,-0.37399998,9.802464500000001,0.70131916,-1.1547809,-1
160,161,1583551937858,-0.1061,0.1462,-0.6956,9.702100999999999,0.702545,-1.4470364,-1
161,162,1583551937869,0.17899999,0.0268,-0.85029995,10.049230999999999,0.5481764,-1.5915313,-1
162,163,1583551937879,0.6784,-0.24049999,-0.93189996,10.546344,0.31492370000000003,-1.6409858,-1
163,164,1583551937889,1.0399,-0.2434,-0.84499997,10.857054,0.34766679999999994,-1.4767628000000002,-1
164,165,1583551937899,1.0589,-0.1962,-0.5796,10.761985000000001,0.41359356,-1.2142433000000001,-1
165,166,1583551937909,0.5595,-0.122899994,-0.5819,10.106691,0.5264945,-1.2893063999999999,-1
166,167,1583551937919,-0.20349999,-0.1382,-0.6757,9.385366000000001,0.4910795,-1.2758318000000002,-1
167,168,1583551937930,-0.7209,-0.2635,-0.5219,8.969646000000001,0.42605299999999996,-1.0933458,-1
168,169,1583551937940,-0.8167,-0.2674,-0.435,9.0076,0.4918648,-1.1408083,-1
169,170,1583551937950,-0.62869996,-0.20619999,-0.5668,9.169592,0.5471708000000001,-1.2032491,-1
170,171,1583551937960,-0.5194,-0.15089999,-0.6407,9.246551,0.6172731,-1.3260716000000001,-1
171,172,1583551937970,-0.5767,-0.2419,-0.655,9.171832,0.54605037,-1.2462299,-1
172,173,1583551937981,-0.70269996,-0.2357,-0.3168,9.031446,0.6213911,-0.7985908,-1
173,174,1583551937990,-0.76989996,-0.18959999,-0.11889999,8.994547,0.61830735,-0.7696400999999999,-1
174,175,1583551938000,-0.7396,-0.23089999,-0.2224,9.061929,0.6919338,-0.8324256,-1
175,176,1583551938010,-0.6701,-0.057099998,-0.19219999,9.066248,0.9074694999999999,-0.7582437,-1
176,177,1583551938020,-0.79649997,0.046499997,-0.2899,8.860241,0.9452787,-0.95671344,-1
177,178,1583551938030,-1.0503,0.012,-0.4267,8.642934,0.94183105,-0.92977387,-1
178,179,1583551938041,-1.1762999,0.0072,-0.24679999,8.542273,0.9720075999999999,-0.6380739000000001,-1
179,180,1583551938051,-1.1944,0.0242,0.1026,8.586,1.0317669,-0.28249663,-1
180,181,1583551938061,-1.1049,0.0742,0.30699998,8.670295,1.0819302,-0.21932803,-1
181,182,1583551938071,-1.0744,0.0691,0.1512,8.7220955,1.058534,-0.47359225,-1
182,183,1583551938081,-0.9263,-0.0506,-0.2164,8.952131,0.9053913,-0.86844397,-1
183,184,1583551938092,-0.5724,-0.2865,-0.5342,9.391198,0.6586161,-0.91190356,-1
184,185,1583551938102,-0.2771,-0.4364,-0.275,9.446197999999999,0.6167942,-0.50461155,-1
185,186,1583551938112,-0.3735,-0.4359,0.078999996,9.240757,0.70629907,-0.30127677,-1
186,187,1583551938122,-0.6264,-0.2837,0.13509999,9.005579,0.91639507,-0.40227377,-1
187,188,1583551938132,-0.8498,-0.015199998999999999,-0.0572,8.854132,1.2282063,-0.6006286,-1
188,189,1583551938142,-0.8674,0.24509999,-0.30769998,8.938331,1.5315325,-0.83424526,-1
189,190,1583551938153,-0.74759996,0.43949997,-0.41579998,9.064601,1.6306238000000002,-0.75003636,-1
190,191,1583551938163,-0.65709996,0.40089998,-0.24069999,9.075787,1.4570537000000001,-0.4773847,-1
191,192,1583551938173,-0.67429996,0.1573,0.0117999995,9.079713,1.1851969,-0.40078938,-1
192,193,1583551938184,-0.6423,-0.0558,0.021699998999999998,9.18094,1.1163971000000001,-0.32544863,-1
193,194,1583551938194,-0.5226,-0.1002,0.134,9.343966,1.2252566999999999,-0.14723383,-1
194,195,1583551938204,-0.3545,0.0145,0.33499998,9.466061,1.4438186000000002,-0.020743364,-1
195,196,1583551938214,-0.2753,0.2193,0.3689,9.408571,1.5724638000000002,-0.29768544,-1
196,197,1583551938224,-0.32389998,0.3369,0.0234,9.322705000000001,1.7191709,-0.7332960999999999,-1
197,198,1583551938235,-0.4021,0.47489998,-0.4305,9.398219000000001,1.8110220000000001,-0.8910453000000002,-1
198,199,1583551938244,-0.27429998,0.5556,-0.5273,9.500738,1.8421276000000002,-0.86292773,-1
199,200,1583551938254,-0.0185,0.5563,-0.3814,9.820575,1.7224366999999998,-0.68472254,-1
200,201,1583551938264,0.1096,0.3944,-0.3392,9.913661,1.6022379999999998,-0.6220806,-1
201,202,1583551938275,0.2584,0.2672,-0.22039999,10.063385,1.5515959,-0.36561373,-1
202,203,1583551938285,0.3484,0.2464,0.0909,9.917817,1.498368,0.06703765,-1
203,204,1583551938295,0.13419999,0.1556,0.45209998,9.584363,1.416563,0.16495092,-1
204,205,1583551938305,-0.17819999,0.074599996,0.49989998,9.461061500000001,1.4487313999999998,-0.0019440917999999998,d
205,206,1583551938315,-0.2462,0.1052,0.2593,9.597311,1.4483962,-0.45555909999999994,-1
206,207,1583551938325,-0.0598,0.101399995,-0.20709999,10.007103,1.4913483,-0.6747914,-1
207,208,1583551938335,0.3813,0.1586,-0.37359998,10.3214035,1.5283052,-0.6536266,-1
208,209,1583551938345,0.617,0.16579999,-0.3364,10.320982,1.4393846000000001,-0.5724536,-1
209,210,1583551938355,0.5689,0.060999997,-0.226,10.153196000000001,1.3844518999999997,-0.39230433,-1
210,211,1583551938365,0.39409998,-0.0084999995,-0.0449,9.93111,1.241997,-0.24970566,-1
211,212,1583551938375,0.1999,-0.17799999,0.1266,9.918498,1.0902716000000001,-0.028174965,-1
212,213,1583551938385,0.20199999,-0.3294,0.3179,9.858239999999999,1.0184455,0.15956876,-1
213,214,1583551938396,0.1064,-0.3945,0.49719998,9.532188,1.0034386999999998,0.18159541,-1
214,215,1583551938406,-0.28300000000000003,-0.43379998,0.49539998,9.109841000000001,1.1086016,0.19546263,-1
215,216,1583551938416,-0.65279996,-0.28800000000000003,0.5082,8.833082000000001,1.3514885,0.22749704,-1
216,217,1583551938426,-0.86609995,-0.12,0.51629996,8.786692,1.5099943,0.02678633,-1
217,218,1583551938436,-0.9134,0.022599999,0.29799998,8.7532015,1.6779906000000002,-0.16070838,-1
218,219,1583551938447,-0.94119996,0.17729999,0.1329,8.60251,1.7575165000000001,0.071193986,-1
219,220,1583551938457,-1.1452,0.2235,0.44579998,8.13702,1.6285744,0.6294930999999999,-1
220,221,1583551938467,-1.5545,0.1103,0.90389997,7.7404733,1.6418861,0.9110225000000001,-1
221,222,1583551938477,-1.9439,0.0941,1.2002,7.281265299999999,1.6660389,0.9390345999999999,-1
222,223,1583551938487,-2.3234,0.0977,1.2619,6.9776897,1.7216226000000003,0.65077275,-1
223,224,1583551938497,-3.2394998,0.33179998,0.4015,6.3347607,1.9500293999999998,-0.013091493999999999,-1
224,225,1583551938508,-3.2394998,0.33179998,0.4015,5.8448305,2.1333582000000004,-0.28642312,-1
225,226,1583551938518,-4.6952,0.7929999999999999,-0.19759999,4.7581024,2.4634612000000002,-0.5650316,-1
226,227,1583551938528,-5.8802,1.0304999,-0.030499997999999997,3.5725129,2.696551,-0.32150298,-1
227,228,1583551938538,-6.7244,1.0675,0.3737,2.8734345,2.6623812,0.06460514,-1
228,229,1583551938549,-6.8959,0.8436,0.5495,2.8157153,2.366151,0.18579963,-1
229,230,1583551938558,-6.5611997,0.5941,0.4447,3.222404,2.0942081999999997,0.065534085,-1
230,231,1583551938568,-6.3174996,0.46799999999999997,0.3737,3.3420660000000004,1.863072,-0.0114921685,-1
231,232,1583551938578,-6.6924,0.22839999,0.3231,2.8954515,1.5802018999999998,0.00017238251,-1
232,233,1583551938588,-7.3413997,0.3595,0.6375,2.2674527,1.7256066000000003,0.46566266,-1
233,234,1583551938598,-7.9111996,0.7054,1.239,1.7080523,2.0178906999999997,1.1611687,-1
234,235,1583551938609,-8.4314995,1.1135,1.8159,1.2147318,2.3284854999999998,1.7471063999999998,-1
235,236,1583551938619,-8.8925,1.3036,2.1103,0.80432725,2.378716,2.0156113999999996,-1
236,237,1583551938629,-9.2162,1.2009,2.1733,0.49293742,2.0577207,1.9687712,-1
237,238,1583551938639,-9.4513,0.44529998,1.9081,0.29087633,1.1494944999999999,1.6611929,-1
238,239,1583551938649,-9.4009,-0.2087,1.7493,0.4876223,0.39392278,1.4188231000000002,-1
239,240,1583551938660,-9.084499000000001,-0.4658,1.6193999,0.75906724,0.05114015,1.2081621,-1
240,241,1583551938670,-9.1097,-0.65029997,1.5323,0.5959264,-0.41874588,1.1021469,-1
241,242,1583551938680,-9.3689995,-1.0952,1.4641,0.3651828,-0.92118347,0.96259356,-1
242,243,1583551938690,-9.7546,-1.4828,1.3656,-0.12053369,-1.512561,0.9501915999999999,-1
243,244,1583551938700,-10.0499,-1.6148,1.5225999,-0.24179521,-1.7920983,1.1110148000000002,-1
244,245,1583551938711,-9.8605995,-1.5687,1.6342,0.050364427,-1.9333848999999999,1.2212919,-1
245,246,1583551938721,-9.4941,-1.5051,1.5943999,0.5140064000000001,-2.3577142,1.084334,-1
246,247,1583551938731,-8.823999,-1.9784,1.2281,1.2676531999999998,-3.0170197,0.65578145,-1
247,248,1583551938741,-8.1298,-2.2419,0.9823,1.8178598999999998,-3.6133006,0.60623103,-1
248,249,1583551938751,-7.5452,-2.7937999,1.2242,2.4425453999999998,-4.578786,0.86395246,-1
249,250,1583551938761,-6.7233,-3.2682998,1.4764999,3.4738622,-5.0383195999999995,0.89719355,-1
250,251,1583551938771,-5.8237,-3.0958997999999998,1.1484,4.0363846,-5.0912223,0.43031466,-1
251,252,1583551938781,-5.3933,-2.9699,0.6092,4.071139,-5.4306817,0.08140285,-1
252,253,1583551938791,-5.7634,-3.1929,0.5811,3.3765044,-6.1689,0.41123766,-1
253,254,1583551938801,-6.5189,-4.0552998,1.4303,2.5357566000000005,-8.102774,2.0178714,-1
254,255,1583551938811,-6.6352,-5.5636997,2.8507,2.9869773,-9.655978,3.0112164,-1
255,256,1583551938822,-4.9217997,-6.9235,3.1101,6.058153599999999,-11.160858000000001,2.1818743,-1
256,257,1583551938832,-1.3873999,-7.2595997,1.4731,9.79985,-11.613017999999999,0.15783536,-1
257,258,1583551938842,2.4619,-7.3055,-0.64129996,12.888475999999999,-11.98502,-1.4755559999999999,-1
258,259,1583551938852,5.1126,-7.29,-1.8694998999999999,14.059126000000001,-12.429086,-2.1080945,-1
259,260,1583551938863,5.1126,-7.29,-1.8694998999999999,13.147376000000001,-13.567251999999998,-1.7693055,-1
260,261,1583551938873,4.3649,-8.7044,-1.2743,11.590943,-15.200528,-0.26284504,-1
261,262,1583551938883,3.158,-10.0535,0.4631,10.790064,-16.821297,1.3643789,-1
262,263,1583551938894,3.2342,-11.4478,1.8669,11.816295,-18.206028,2.0284538,-1
263,264,1583551938904,5.1976,-11.9797,1.8908,14.793657000000001,-17.899742,0.819315,-1
264,265,1583551938914,8.1128,-11.1093,0.31599998,17.30239,-17.126337,-1.6438302,-1
265,266,1583551938925,10.750199,-10.040999000000001,-2.3181,18.962603,-16.23554,-3.3576093,-1
266,267,1583551938935,12.4339,-8.9077,-3.7814998999999996,19.263756,-15.670136,-3.0421683999999996,-1
267,268,1583551938945,12.6275,-8.2755995,-3.1366,17.877216,-15.615013000000001,-1.4783237,-1
268,269,1583551938955,11.145999999999999,-8.0567,-1.5538,15.26249,-15.299906,-0.08992621,-1
269,270,1583551938966,9.1045,-7.6533,-0.41979998,13.698042000000001,-15.160047,0.5580693,-1
270,271,1583551938976,7.6864996,-7.3940997,0.2225,13.077703999999999,-14.838370999999999,0.25104642,-1
271,272,1583551938986,7.1390996,-6.8574,-0.2728,13.034061999999999,-13.973672,-0.9033610000000001,-1
272,273,1583551938996,7.3092,-6.0111,-1.2795,13.240108,-13.475363,-1.5648693999999999,-1
273,274,1583551939006,7.6919,-5.2795,-2.1316,13.381758999999999,-13.070607,-1.8977879,-1
274,275,1583551939017,8.0236,-4.6078997,-2.6499,13.505787,-12.389305,-2.3245782999999998,-1
275,276,1583551939027,8.1409,-4.1755,-2.8327,12.996578999999999,-11.884665,-1.9992925,-1
276,277,1583551939038,7.0752997,-3.2452,-2.3539,11.967925,-11.374297,-1.7774361,-1
277,278,1583551939048,5.9662,-2.6262,-2.1275,10.77432,-10.824521,-1.5645247,-1
278,279,1583551939058,4.9379,-2.189,-1.8477999,9.909381,-10.480925,-1.2947365,-1
279,280,1583551939068,4.3993,-1.8411,-1.3887,9.401733,-10.180519,-0.82130694,-1
280,281,1583551939078,4.0085998,-1.5523,-1.0842,8.961966,-9.88338,-0.5538651,-1
281,282,1583551939088,3.5475998,-1.2163,-1.0236,8.453457,-9.626319,-0.493512,-1
282,283,1583551939099,3.2695,-1.1869999,-0.95,8.235938,-9.62608,-0.40717709999999996,-1
283,284,1583551939109,3.3102998999999995,-0.9942,-1.2034999,8.254738,-9.416481,-0.74255687,-1
284,285,1583551939119,3.3528,-0.7277,-1.7386999,8.248485,-9.158684,-1.2220197,-1
285,286,1583551939129,3.1671,-0.47739998,-1.9081,8.001555999999999,-8.932642,-1.2881955,-1
286,287,1583551939139,2.6745,-0.36069998,-1.4725,7.4414754,-8.816667,-0.7138169,-1
287,288,1583551939149,1.8980000000000001,-0.1995,-0.6507,6.620800999999999,-8.658976,0.14476302,-1
288,289,1583551939159,0.9921,-0.0884,-0.2113,5.775993,-8.524115,0.41469488,-1
289,290,1583551939170,0.41619998,0.074599996,-0.1151,5.302601,-8.409499,0.43297702,-1
290,291,1583551939180,0.4799,-0.0894,-0.1978,5.516145,-8.613811,0.37232709999999997,-1
291,292,1583551939190,1.1033,-0.3366,-0.39049998,6.274483999999999,-8.9231415,0.062306705999999996,-1
292,293,1583551939200,1.6899998999999999,-0.62229997,-0.78999996,6.735866000000001,-9.175346000000001,-0.3230257,d
293,294,1583551939210,1.9451,-0.6678,-1.0747,6.810527,-9.127032,-0.5501684,-1
294,295,1583551939220,1.824,-0.5832,-1.2831,6.612249,-9.022875,-0.6094105,-1
295,296,1583551939231,1.4533,-0.5155,-1.1039,6.1565557,-8.981531,-0.25320122,-1
296,297,1583551939241,0.84709996,-0.53099996,-0.5475,5.569296400000001,-9.037814,0.39282146,-1
297,298,1583551939251,0.84709996,-0.53099996,-0.5475,5.1645900000000005,-9.065511,0.9777824,-1
298,299,1583551939261,0.0338,-0.6221,0.5172,5.031453,-9.0676365,1.2182752000000001,-1
299,300,1583551939272,0.114599995,-0.71099997,0.51449996,5.349489,-9.180375,1.0073748,-1
300,301,1583551939282,0.50839996,-0.78599995,0.2026,5.8690023,-9.249865,0.6378345,-1
301,302,1583551939292,1.1034,-0.86869997,-0.2183,6.5021825,-9.336639,0.22505496,-1
302,303,1583551939302,1.6768,-0.98219997,-0.7194,6.9148664,-9.38438,-0.2713684,-1
303,304,1583551939313,1.9275999,-1.0123,-1.1259,6.974874499999999,-9.505355,-0.39629784,-1
304,305,1583551939325,1.8431,-1.2150999,-0.9999,6.686967,-9.910635000000001,0.40158424,-1
305,306,1583551939336,1.5826,-1.55,-0.3611,6.5399055,-10.246571000000001,1.0760021,-1
306,307,1583551939346,1.3966999,-1.9067999,0.3198,6.7620974,-10.454894,1.4140347,-1
307,308,1583551939356,1.5849999,-2.146,0.65,7.4101405,-10.554139,1.3902267,-1
308,309,1583551939366,2.1886,-2.2763,0.6164,8.315752,-10.586423,0.97060937,-1
309,310,1583551939377,3.0679,-2.3285,0.1725,9.3124485,-10.687525,0.33867420000000004,-1
310,311,1583551939387,4.0331,-2.4415998,-0.48029998,10.335807,-10.72588,-0.030023288,-1
311,312,1583551939397,5.0109997,-2.5102,-0.8558,11.080519,-10.831493,-0.272939,-1
312,313,1583551939407,5.7033,-2.6643999,-1.1198,11.299704,-11.154509,-0.11330319999999999,-1
313,314,1583551939417,5.8526998,-3.0238,-0.96819997,11.344254,-11.771216,0.35364273,-1
314,315,1583551939427,5.8243,-3.7052,-0.5398,11.846644,-12.220024,0.72296274,-1
315,316,1583551939437,6.2497997000000005,-4.2163997,-0.1821,12.676015,-12.358725999999999,0.8065204,-1
316,317,1583551939447,6.9732,-4.4101,-0.11229999,13.404341,-12.380321499999999,0.54085976,-1
317,318,1583551939457,7.6085997,-4.5049,-0.4076,13.755541000000001,-12.3276205,0.5030409,-1
318,319,1583551939468,7.6589,-4.4772,-0.28149998,13.648023,-12.130175,0.715512,-1
319,320,1583551939478,7.2604,-4.3863,-0.2817,13.398613000000001,-11.899805,0.64628124,-1
320,321,1583551939488,6.9396,-4.2198,-0.38279998,13.256245000000002,-11.585073,0.5832084,-1
321,322,1583551939499,6.7469997,-3.9376998,-0.1768,13.234428,-11.155304,0.85554403,-1
322,323,1583551939509,6.7469997,-3.9376998,-0.1768,13.044807,-10.999172999999999,1.0818248,-1
323,324,1583551939519,5.3162,-3.8449,0.3058,11.991302000000001,-10.793875,1.1122503000000001,-1
324,325,1583551939529,4.3198,-3.8365998,0.031,11.2198715,-10.596832000000001,0.778355,-1
325,326,1583551939539,3.5612,-3.6592,-0.22379999,10.702119999999999,-10.176009,0.5121485,-1
326,327,1583551939550,3.0526,-3.3102998999999995,-0.123399995,10.332761999999999,-9.549542,0.70964134,-1
327,328,1583551939560,2.6073,-3.0058,0.4035,10.024168,-9.099403,1.325727,-1
328,329,1583551939570,2.0582,-2.9326,1.0963,9.617681,-8.883992,1.9058421000000003,-1
329,330,1583551939580,1.5325999,-3.0029,1.4959999,9.391256,-8.820411,1.8150635,-1
330,331,1583551939590,1.4149,-3.1854,0.84639996,9.596516000000001,-8.732775,0.8060415,-1
331,332,1583551939600,1.7457,-3.2821,-0.2214,10.163836,-8.644581,-0.2942857,-1
332,333,1583551939610,2.0119,-3.4555,-0.8919,10.34795,-8.663439,-0.72257006,-1
333,334,1583551939620,1.5712999,-3.7745,-0.4508,9.772931,-8.731472,0.08866208,-1
334,335,1583551939630,0.6472,-4.030999700000001,0.9079,8.982366,-8.597397,1.4270782,-1
335,336,1583551939640,-0.2762,-3.8997,2.2326,8.363474,-8.148561,2.1724412,-1
336,337,1583551939650,-1.1927999,-3.6258,2.5463,7.4752529999999995,-7.540489999999999,2.2247977000000003,-1
337,338,1583551939660,-1.8618,-3.5893998,2.3518,7.10464,-7.159238,1.6074382,-1
338,339,1583551939671,-2.1625,-3.3388998999999995,1.5099,6.976560000000001,-6.560026,0.60423905,-1
339,340,1583551939681,-2.3116,-3.0379,0.5196,6.9386168,-5.9635253,-0.33108935,-1
340,341,1583551939691,-2.5472,-2.6897,0.1387,6.755776400000001,-5.4469237,-0.40067443,-1
341,342,1583551939701,-3.0186,-2.2698,0.60929996,6.27414,-4.5815253,0.23306118,-1
342,343,1583551939711,-3.4522998,-1.7519,1.2097,5.8099995,-3.5841582,0.94965535,-1
343,344,1583551939722,-3.9654998999999997,-1.1448,1.9081999,5.1475816,-2.726019,1.7152157,-1
344,345,1583551939733,-4.8908,-0.66999996,2.6115,4.0976477,-2.2616107000000003,2.1748738,-1
345,346,1583551939742,-5.9239999999999995,-0.6537,3.0384,3.3274329,-2.0910192,2.6603026,-1
346,347,1583551939752,-6.6109,-0.74399996,3.5003998,2.8595387999999997,-1.7508223000000003,2.6405075,-1
347,348,1583551939762,-6.954799700000001,-0.4935,3.1599998,2.6849917999999997,-1.3203161,2.1604989,-1
348,349,1583551939773,-7.111799700000001,-0.2714,2.7881,2.635815,-1.0642322,2.0443034,-1
349,350,1583551939783,-6.9989,-0.2329,2.6211998,3.0874286,-0.77651626,1.6114606000000002,-1
350,351,1583551939793,-6.4502997,-0.0277,2.0927,3.6259801,-0.3039583,1.2140806,-1
351,352,1583551939803,-6.0165,0.3669,1.8395,3.8811543,0.26094884,1.1297375,-1
352,353,1583551939814,-5.9235,0.7464,1.8281,3.6455553,0.8187978,1.2244713,-1
353,354,1583551939824,-6.2204,1.0496,1.9720999,3.2445072999999995,0.9966103999999999,1.747681,-1
354,355,1583551939834,-6.6222997,0.9948,2.5433,2.9624702999999997,0.7645548000000001,1.9298894,-1
355,356,1583551939844,-6.8451,0.6679999999999999,2.6485999,2.9116652000000003,0.6294739,1.600294,-1
356,357,1583551939854,-6.8501997,0.45819998,2.322,3.04508,0.5882841,1.3542945,-1
357,358,1583551939864,-6.6393,0.3879,2.0716,3.3515281999999997,0.78917676,0.9097200000000001,-1
358,359,1583551939874,-6.3508,0.56549996,1.6632999,3.7785387000000004,1.0961325000000002,0.25820988,-1
359,360,1583551939885,-5.8968997000000005,0.82379997,1.0088,4.2717730000000005,1.0414681000000001,-0.7140371,-1
360,361,1583551939895,-5.3657,0.6688,-0.0064999997,5.0839915,0.6356510000000001,-1.6322997,-1
361,362,1583551939905,-4.5018997,0.25959998,-0.7718,5.9224505,0.39118382,-1.7557734,-1
362,363,1583551939915,-3.7261,0.0447,-0.7398,6.271621,0.17330189,-1.1795178999999998,-1
363,364,1583551939925,-3.5179,-0.2016,-0.0539,5.946718,-0.06034346,-0.40812522,-1
364,365,1583551939936,-3.9167,-0.4023,0.7263,5.428469000000001,-0.030023288,0.12190317,-1
365,366,1583551939946,-4.4126997,-0.3637,1.1583999,5.2391744000000005,0.37381148,0.06839755,-1
366,367,1583551939956,-4.5063,-0.0166,1.1028,5.3099656,0.7358148,-0.12171164,-1
367,368,1583551939966,-4.433399700000001,0.3216,0.96959996,5.5972610000000005,0.7929022,-0.11749784,-1
368,369,1583551939977,-4.1451,0.37989998,1.0042,5.982804,0.5384846999999999,-0.4020152,-1
369,370,1583551939987,-3.7589998,0.14,0.75699997,6.596025999999999,0.15558481,-1.3179313999999998,-1
370,371,1583551939997,-2.1332,-0.5133,-1.0540999,7.837428599999999,-0.24150792,-2.4575715,-1
371,372,1583551940007,-1.0401,-0.5427,-1.6387,8.851488,-0.23007321,-2.9577394,-1
372,373,1583551940018,-0.5941,-0.354,-1.2284,9.099269,-0.060783993,-2.298223,-1
373,374,1583551940028,-1.2366999,-0.3159,0.1564,8.219046,-0.046686932,-0.9315264000000001,-1
374,375,1583551940038,-1.2366999,-0.3159,0.1564,7.132633,-0.12904747,-0.10292194,-1
375,376,1583551940048,-3.2865,-0.36589998,1.5071,6.395497,-0.0025761612,0.04499183599999999,-1
376,377,1583551940059,-3.2865,-0.36589998,1.5071,6.6280600000000005,0.10562260400000001,-0.27132052,-1
377,378,1583551940069,-1.7788999,-0.0689,0.4044,8.133898,0.26825592,-1.2104701,-1
378,379,1583551940079,-0.8638,-0.0787,-0.4107,8.972328,0.18358739,-2.0689733,-1
379,380,1583551940089,-0.31149998,-0.2329,-1.1673,9.481183,-0.021547815,-2.8013307999999997,-1
380,381,1583551940099,0.12329999,-0.3436,-1.5229,9.950724000000001,-0.1624418,-3.0454627999999997,-1
381,382,1583551940109,0.3328,-0.2906,-1.2722,10.000974000000001,-0.09971371,-2.7423759999999997,-1
382,383,1583551940120,0.1312,-0.20369999,-0.7737,9.738894,-0.05356308,-2.2659492,-1
383,384,1583551940130,-0.2165,-0.27519998,-0.2522,9.311769,-0.11027693,-1.7363994999999999,-1
384,385,1583551940140,-0.61289996,-0.2529,0.0945,8.911697,-0.06665457,-1.5621495,-1
385,386,1583551940150,-0.872,-0.1873,-0.0005999999700000001,8.786107000000001,0.07015968,-1.7780011999999998,-1
386,387,1583551940160,-0.73899996,0.0446,-0.24329999,9.027452,0.28334898,-2.0826588,-1
387,388,1583551940170,-0.3022,0.1417,-0.6529,9.594178999999999,0.30843064,-2.6148992,-1
388,389,1583551940181,0.3111,0.2193,-1.1413,10.198561999999999,0.3405704,-3.1574254,-1
389,390,1583551940191,0.85609996,0.163,-1.6870999,10.686853999999999,0.18407579999999998,-3.7129662000000003,-1
390,391,1583551940202,1.2845,-0.0346,-2.0428,11.03182,-0.05308424,-3.9242114999999997,-1
391,392,1583551940212,1.4986999,-0.3597,-1.9605999,11.116585,-0.6426229,-3.6707517999999997,-1
392,393,1583551940222,1.4494,-0.90449995,-1.5692999,10.919369999999999,-1.084535,-3.3536062000000006,d
393,394,1583551940232,1.1353999,-1.1875,-1.3461,10.492272,-1.0568485,-3.353884,-1
394,395,1583551940243,0.76049995,-0.96809995,-1.2713,10.226536,-0.568642,-3.3177602,-1
395,396,1583551940254,0.5311,-0.3838,-1.3421,9.912215,0.12260228,-3.6381523999999996,-1
396,397,1583551940264,0.1882,0.2276,-1.7429999,9.63103,0.61890113,-4.0121074,-1
397,398,1583551940274,0.029199999,0.5305,-2.0274,9.720976,0.67197585,-4.5162497,-1
398,399,1583551940285,0.1831,0.5597,-2.5807998,10.015827,0.59676915,-4.679716,-1
399,400,1583551940295,0.6128,0.3797,-2.5098999,10.429985,0.00028730419999999996,-4.2096195,-1
400,401,1583551940305,0.8484,-0.18339999,-2.1258,10.450766999999999,-0.741015,-3.8627858,-1
401,402,1583551940315,0.8598,-0.9205,-1.7256999,10.464232,-1.3011528,-3.725014,-1
402,403,1583551940325,0.8425,-1.3921,-1.7637,10.365515,-1.3185539,-4.659136,-1
403,404,1583551940336,0.7356,-1.3231,-2.8776999,10.270408,-0.9106586,-6.1664867,-1
404,405,1583551940347,0.6666,-0.98819995,-4.1059,10.037450999999999,-0.49891332,-6.7410190000000005,-1
405,406,1583551940357,0.4411,-0.60569996,-4.6856,9.549437,-0.1730529,-6.30627,-1
406,407,1583551940367,-0.047199998,-0.3222,-4.2478,8.839269,-0.13876793,-5.8159657,-1
407,408,1583551940377,-0.75909996,-0.3272,-3.7426,8.362487,-0.45056003,-6.386648,-1
408,409,1583551940387,-1.2245,-0.67789996,-4.2908998,8.726415,-0.8166813,-7.2479,-1
409,410,1583551940397,0.0881,-1.4411,-5.5597997,9.885667999999999,-1.2374,-7.7020607000000005,-1
410,411,1583551940408,0.0881,-1.4411,-5.5597997,10.5397835,-1.3645418,-7.6857038,-1
411,412,1583551940418,0.8932,-1.6323999,-5.5657997,10.423588,-1.280649,-7.720869500000001,-1
412,413,1583551940428,0.22999999,-1.538,-5.6294,9.695243,-1.2380226,-7.705441499999999,-1
413,414,1583551940438,-0.3047,-1.5588,-5.6403,9.216135000000001,-1.2198648,-7.710459700000001,-1
414,415,1583551940450,-0.5941,-1.615,-5.6528,8.962551,-1.2373521,-7.673905,-1
415,416,1583551940460,-0.77459997,-1.7915,-5.5548,8.740206,-1.4324988,-7.470963,-1
416,417,1583551940470,-0.77459997,-1.7915,-5.5548,8.602912,-1.5127428,-7.449797599999999,-1
417,418,1583551940480,-1.2717999,-2.1318998,-5.7591,8.29181,-1.572052,-7.8604899999999995,-1
418,419,1583551940490,-1.2972,-2.056,-6.1242,8.408608000000001,-1.3896998999999999,-8.030986,-1
419,420,1583551940501,-1.0323,-1.8686,-6.0098,8.630198,-1.212146,-7.758286,-1
420,421,1583551940511,-1.0252,-1.8201,-5.3066,8.505612,-1.1841912,-6.617132700000001,-1
421,422,1583551940521,-1.4501,-1.9465,-4.2418,7.9373436,-1.2389226999999998,-5.5204067000000006,-1
422,423,1583551940532,-2.0697,-1.9932,-3.5821,7.152381,-1.2619166000000002,-5.0019183,-1
423,424,1583551940542,-2.8244,-2.0430999,-3.4868,6.3305182,-1.1436144,-4.8605266,-1
424,425,1583551940552,-3.7438998,-2.0238,-3.4253,5.3035207,-1.276684,-4.8641653,-1
425,426,1583551940563,-4.7503,-2.2944999,-3.4673,4.5802703000000005,-1.4137857,-4.4391084,-1
426,427,1583551940573,-5.3141,-2.4011,-2.9032,4.273832,-1.3901885,-3.7555351000000003,-1
427,428,1583551940583,-5.3178997,-2.3632998,-2.1139997999999998,4.5433617,-1.2359252,-2.5808537,-1
428,429,1583551940593,-4.8889,-2.0465,-0.0501,4.7908935999999995,-0.6379973000000001,0.7276170999999999,-1
429,430,1583551940603,-5.0281,-1.6484,2.2042,4.121551,-0.30611306,2.1074817,-1
430,431,1583551940613,-6.1303997,-1.2911999,3.4735,2.3216,-0.01547612,2.592365,-1
431,432,1583551940624,-7.648699799999999,-1.1316,3.4320998,1.4458393,0.056215855999999995,2.3197036,-1
432,433,1583551940634,-8.328199,-1.0517,3.0607998,1.4591796000000001,0.11440454,2.21569,-1
433,434,1583551940644,-8.069099000000001,-0.9238,2.9586,2.2267513,0.26488490000000003,2.9446383,-1
434,435,1583551940654,-7.4079999999999995,-0.7173,3.7654,2.5473060000000003,0.29312688,4.700594000000001,-1
435,436,1583551940664,-7.2351,-0.6687,5.4866,2.3251432999999997,-0.06669289,6.561434299999999,-1
436,437,1583551940674,-7.5699997,-0.9884,7.1952,1.6845218999999998,-0.6955635,8.092114,-1
437,438,1583551940684,-8.2073,-1.5552,8.5638,1.3401878999999999,-1.307598,9.363752,-1
438,439,1583551940695,-8.4907,-2.0382,9.6818,1.4225963,-1.8368793999999997,10.330847,-1
439,440,1583551940705,-8.2832,-2.4206,10.485999999999999,2.2029145,-2.3064972999999998,10.989078999999998,-1
440,441,1583551940715,-7.4068,-2.7402,10.9836,3.1226327,-2.5401714,11.419604,-1
441,442,1583551940725,-6.5362,-2.7075,11.2416,3.7202542000000003,-2.4901805,11.978066,-1
442,443,1583551940735,-6.0032997,-2.488,11.7132,4.005164,-2.5283917999999996,12.741788,-1
443,444,1583551940745,-5.7201,-2.3332999,12.340899,4.556798000000001,-2.42706,13.515135,-1
444,445,1583551940756,-5.2339997,-2.0204,12.819799,5.167664,-2.4976599999999998,13.801098000000001,-1
445,446,1583551940766,-4.6049,-1.9280000000000002,13.0612,5.5344462,-2.8017043999999998,14.327065,-1
446,447,1583551940776,-4.2281,-2.0534,13.561399,5.5347333,-3.8446089999999997,14.865675,-1
447,448,1583551940786,-4.2125998,-2.9041,14.1103,6.0185156,-5.112223999999999,15.024191,-1
448,449,1583551940796,-3.7029998,-3.9752,14.282399,7.149947999999999,-5.5834894,14.777548999999999,-1
449,450,1583551940807,-2.5498,-4.2517,14.0422,8.102793,-5.6011295,13.686464,-1
450,451,1583551940817,-1.5567,-4.0513997,12.941899000000001,8.960654,-5.316622,12.588223,-1
451,452,1583551940827,-0.6663,-3.5584,11.8215,9.473808,-5.343475,12.066517999999999,-1
452,453,1583551940837,0.19759999,-3.8744998,10.5112,9.828878,-6.221055000000001,11.110934,-1
453,454,1583551940848,0.7461,-4.6095,9.8687,10.402442,-7.127959700000001,10.438758,-1
454,455,1583551940859,1.4322,-5.245199700000001,9.6483,11.021697999999999,-7.940408000000001,10.192883,-1
455,456,1583551940869,1.8748,-5.8705,9.5042,11.318436,-8.679192,9.845963000000001,-1
456,457,1583551940879,1.8397,-6.1902,8.9299,11.201426,-9.156739,9.181341999999999,-1
457,458,1583551940889,1.8776,-6.6884,8.4116,11.309931,-9.833982,8.583175,-1
458,459,1583551940899,2.8439,-6.8777,7.3325996,12.536308,-9.989241999999999,7.0834470000000005,-1
459,460,1583551940910,4.1788,-6.4356,5.2778997,13.787728,-9.677076,4.788145,-1
460,461,1583551940920,4.1788,-6.4356,5.2778997,14.516409,-9.4715,2.7481892000000006,-1
461,462,1583551940930,6.0495,-5.8415,0.49859998,15.216242999999999,-9.529200999999999,0.7777899,-1
462,463,1583551940940,5.9479,-6.0976,0.8321,14.710196,-10.114477,1.7699854,-1
463,464,1583551940951,4.9639,-6.732,2.6044998,13.349858,-10.934261,3.6861894,-1
464,465,1583551940961,3.3558998,-7.7186,4.5592,11.734346,-12.104931,5.1544194,-1
465,466,1583551940971,2.0319,-8.5636,4.7331,10.7332735,-12.709724000000001,3.7588007000000005,-1
466,467,1583551940981,2.0179,-8.6848,2.3421,11.853807000000002,-12.624233,0.38889495,-1
467,468,1583551940991,3.8165,-8.2932,-1.5737,13.647735999999998,-12.200555,-2.887752,-1
468,469,1583551941002,6.0393996,-7.624399700000001,-5.3496,15.920751999999998,-11.486125,-6.1471705000000005,-1
469,470,1583551941012,7.5477,-6.8936996,-6.7857,16.31683,-10.798281,-5.9337606,-1
470,471,1583551941022,6.9196,-6.2453,-5.7325,14.11108,-10.431613,-4.1107297,-1
471,472,1583551941032,4.066,-5.9771,-3.6179,11.608594,-10.224008,-2.3649447,-1
472,473,1583551941042,1.0857999,-5.6885,-1.7665,8.589255999999999,-9.9239,-1.4096389,-1
473,474,1583551941053,-0.6849,-5.5238,-2.4982,8.044633000000001,-9.735244999999999,-4.0753336000000004,-1
474,475,1583551941063,-0.3956,-5.3497996,-6.0606,9.486363,-9.645128,-8.168144,-1
475,476,1583551941073,1.6280999,-5.1773996,-10.0598,11.704543,-9.208847,-11.373472999999999,-1
476,477,1583551941083,3.5133,-4.621,-12.564199,12.713661,-8.820871,-12.804899,-1
477,478,1583551941093,3.8969998,-4.3385,-13.136,11.874407000000001,-8.466386,-12.107497,-1
478,479,1583551941104,2.7653,-3.9878,-12.0708,9.91957,-7.842533,-10.599667,-1
479,480,1583551941113,0.65099996,-3.3493,-10.4837,8.179905,-7.123746000000001,-9.618964,-1
480,481,1583551941123,-1.3978,-2.4847999,-9.3267,6.675542,-6.338879,-8.876657000000002,-1
481,482,1583551941133,-2.4406,-1.9538,-9.175799000000001,6.487013,-6.0122046,-10.056289,-1
482,483,1583551941143,-2.0597,-1.7427,-11.111199000000001,7.677199400000001,-5.78148,-12.445941,-1
483,484,1583551941153,-0.50049996,-1.508,-13.401998999999998,9.603525999999999,-5.720868,-14.332486,-1
484,485,1583551941164,0.94589996,-1.527,-14.558499,10.133716999999999,-5.716377,-14.14073,-1
485,486,1583551941174,1.2004,-1.4978,-14.002899,9.271546,-5.5882583,-12.720949000000001,-1
486,487,1583551941184,0.1099,-1.3647,-12.429199,7.9663997,-5.4388604,-11.47152,-1
487,488,1583551941194,-1.5975,-1.2225,-10.9108,6.4974226999999996,-5.3169665,-10.330559,-1
488,489,1583551941204,-2.7768,-1.222,-9.9887,5.7928667,-5.2163143,-9.922836,-1
489,490,1583551941214,-3.1669,-1.1338,-9.854,5.85796,-5.1430419999999994,-10.447961,-1
490,491,1583551941224,-2.9413998,-1.0969,-10.7554,6.456817,-5.194709,-11.625085,-1
491,492,1583551941234,-2.3846998,-1.1902,-11.5967,7.013249000000001,-5.3623123,-11.585973,-1
492,493,1583551941244,-1.8435999,-1.3821,-11.3277,7.288544,-5.609891999999999,-10.866822,-1
493,494,1583551941255,-1.6435,-1.7758,-10.2281,7.0106344,-6.340459,-9.071994,-1
494,495,1583551941265,-2.0644999,-2.4612,-8.6158,6.288285,-6.982392999999999,-7.578960400000001,-1
495,496,1583551941275,-2.8005998,-3.0324,-7.1668,5.8361160000000005,-7.3002367,-6.5548839999999995,-1
496,497,1583551941285,-3.1634,-3.3074,-6.2111998,5.701887,-7.328144,-6.117674,-1
497,498,1583551941295,-3.2389,-3.2610997999999998,-5.9879,5.7251973,-7.113221,-6.7137437,-1
498,499,1583551941306,-3.1931,-3.0096998,-6.7759,5.9456167,-6.9336842999999995,-7.614385,-1
499,500,1583551941316,-2.9873,-2.8595998,-7.5537996,6.096777400000001,-6.962932,-7.363568300000001,-1
500,501,1583551941326,-2.819,-2.8539999,-7.3599997,6.104476999999999,-7.183716,-6.143464,-1
501,502,1583551941336,-2.7979998999999998,-3.0556,-6.1768,5.802127400000001,-7.526527400000001,-4.722869,-1
502,503,1583551941346,-3.1016998,-3.3674998,-4.7827997,5.3834586,-8.001336,-3.4485507000000006,-1
503,504,1583551941356,-3.503,-3.8253998999999994,-3.5093,5.2493544000000005,-8.126735,-2.5210847999999997,-1
504,505,1583551941367,-3.6165998,-3.9234,-2.5758,5.406797,-8.102544,-2.4051766,-1
505,506,1583551941377,-3.4503,-3.8634998999999994,-2.4742,5.665237,-8.080345,-2.5891566000000004,-1
506,507,1583551941387,-3.1608,-3.7833997999999998,-2.6732,6.0180940000000005,-8.100609,-2.6184714,-1
507,508,1583551941397,-2.7789,-3.7452,-2.7405,6.4124,-7.969627,-2.4287548,-1
508,509,1583551941407,-2.3557,-3.5572,-2.5962,6.4296002,-7.881674,-2.189028,-1
509,510,1583551941417,-2.4535,-3.3158998,-1.3350999,6.1960793,-7.822853,-0.8404893,-1
510,511,1583551941428,-2.8571,-3.2423,0.0345,5.7194223,-7.855921700000001,0.47529694,-1
511,512,1583551941438,-2.8571,-3.2423,0.0345,5.4321660000000005,-8.21602,1.4163618,-1
512,513,1583551941448,-2.7997,-3.9087,1.7279999,5.9912696,-8.70773,1.9523182000000001,-1
513,514,1583551941458,-1.6573,-4.1812997,2.3207,7.1021695000000005,-9.030114999999999,2.5646496,-1
514,515,1583551941468,-0.75699997,-4.4407,3.0374,7.898969,-9.405180999999999,3.2428502999999997,-1
515,516,1583551941478,-0.22029999,-4.7722,3.5437999,8.323768,-9.7971115,3.7013974000000003,-1
516,517,1583551941489,0.147,-4.9726996,4.0025997,8.623924,-10.02572,4.1977253,-1
517,518,1583551941499,0.3825,-4.8385,4.8375998,8.771111,-9.854678,5.1315885,-1
518,519,1583551941509,0.1713,-4.42,5.9103,8.406234,-9.509722,6.157781,-1
519,520,1583551941519,-0.4463,-4.0288997,6.7653,7.787801700000001,-9.128086,6.933819000000001,-1
520,521,1583551941529,-0.6232,-3.4431998999999998,7.1228,7.688585799999999,-8.538844000000001,7.111775,-1
521,522,1583551941539,-0.2972,-2.7949998,6.7527,8.060664,-8.021725,6.588182000000001,-1
522,523,1583551941549,0.18779999,-2.6246,6.0642,8.514097,-7.995953599999999,5.980917,-1
523,524,1583551941560,0.5635,-2.7122998,6.2394,8.778915,-8.167953500000001,6.3625627,-1
524,525,1583551941570,0.44399998,-2.8179,6.5362,8.4980755,-8.271603,6.524439,-1
525,526,1583551941580,0.1516,-2.7175,6.7791996,8.213826,-8.0671,6.892447,-1
526,527,1583551941590,-0.0764,-2.3195999,7.1452,7.966649,-7.620801400000001,7.023199000000001,-1
527,528,1583551941600,-0.2087,-1.8175,6.8459997,7.909944500000001,-7.248302000000001,6.6188183,-1
528,529,1583551941610,-0.1356,-1.3159,5.9990997,8.080469,-6.649808999999999,5.497968,-1
529,530,1583551941620,0.163,-0.7654,4.9972997,8.382703,-6.170164,4.6021730000000005,-1
530,531,1583551941630,0.4511,-0.4518,4.5938,8.575178,-6.0154605000000005,4.610494999999999,-1
531,532,1583551941640,0.4425,-0.48529997,5.0964,8.402642,-6.1542187,5.322415400000001,-1
532,533,1583551941650,0.1567,-0.6601,5.9259,8.041203999999999,-6.3284497,6.138465,-1
533,534,1583551941661,-0.2375,-0.79639995,6.6808,7.7052493,-6.416815,6.627208,-1
534,535,1583551941672,-0.42409998,-0.74289995,6.4115,7.699312,-6.26666,5.4091625,-1
535,536,1583551941682,-0.1459,-0.5459,4.8076,8.364767,-6.1232375999999995,3.7360656000000003,-1
536,537,1583551941692,0.7529,-0.3751,3.1376998,9.34296,-5.911983,2.434702,-1
537,538,1583551941702,1.6391,-0.1507,2.0616,9.949996,-5.7566185,2.047914,-1
538,539,1583551941712,1.9962,-0.018000000000000002,2.1097999,9.793434,-5.715783,2.8118463,-1
539,540,1583551941723,1.4983,-0.0286,3.2507,8.944671000000001,-5.7645864,4.042868,-1
540,541,1583551941733,0.5124,-0.0985,4.2644,7.9335130000000005,-5.694483999999999,4.615705,-1
541,542,1583551941743,-0.39409998,0.028299998,4.5773997,7.347709700000001,-5.5090959999999995,4.5296764000000005,-1
542,543,1583551941753,-0.7845,0.1733,4.1879,7.2852974,-5.455581,3.9178238,-1
543,544,1583551941763,-0.5852,0.1961,3.4613998,7.843375999999999,-5.387873,3.1563911,-1
544,545,1583551941774,0.094399996,0.26049998,2.4127998,8.562144,-5.519171,1.8116828,-1
545,546,1583551941784,0.8461,0.024899999,0.9183,9.392377,-5.783625,0.48444277,-1
546,547,1583551941794,1.4959999,-0.1072,0.0393,9.707166,-5.8558917,0.5756235,-1
547,548,1583551941804,1.6949999,-0.1821,0.34559998,9.277560000000001,-5.9789634000000005,1.4091408,-1
548,549,1583551941814,1.0928999,-0.327,1.2200999,8.305658,-5.9702487,2.0412006000000003,-1
549,550,1583551941824,0.112399995,-0.2809,1.8054,7.487071,-5.870649299999999,2.4296167,d
550,551,1583551941834,-0.66539997,-0.2004,2.1541997999999998,7.1293387,-5.685807700000001,2.5028505,-1
551,552,1583551941844,-0.9205,-0.018299998999999997,2.1274,7.258051400000001,-5.608657,2.0827734,-1
552,553,1583551941854,-0.58809996,0.0284,1.4742998999999999,8.04492,-5.546101,1.3051271,-1
553,554,1583551941864,0.15339999,0.1046,0.8156,8.69508,-5.5370317,0.5674640999999999,-1
554,555,1583551941874,0.7599,0.1055,0.0742,8.9938,-5.61107,0.14236881,-1
555,556,1583551941884,1.0105,0.024799999,-0.24149999,8.987977,-5.724737,0.33502543,-1
556,557,1583551941895,0.9317,-0.0923,0.0866,8.660604,-5.912289599999999,1.021625,-1
557,558,1583551941905,0.54359996,-0.3146,0.8574,8.30221,-6.151413,1.8854338,-1
558,559,1583551941915,0.22129999,-0.56049997,1.7472999,8.259881,-6.454212,2.5703384999999996,-1
559,560,1583551941925,0.23359999,-0.9134,2.3237,8.617297,-6.813007400000001,2.4914734,-1
560,561,1583551941936,0.7008,-1.2322999,2.1753,9.532667,-6.920756,2.1368632,-1
561,562,1583551941946,1.486,-1.3008,1.8342999,10.334073,-6.865747,1.8345619999999998,-1
562,563,1583551941956,2.2916,-1.2415,1.5026,10.972052,-6.7991399999999995,1.5386672,-1
563,564,1583551941966,3.0848,-1.1565,1.1113,11.77615,-6.7789235,1.4937903000000001,-1
564,565,1583551941976,3.7249,-1.1682,1.1079999,11.894375,-6.941030499999999,2.3200867,-1
565,566,1583551941987,3.8174,-1.3580999,1.9274,11.721303,-7.200437,3.6168919,-1
566,567,1583551941997,3.628,-1.6466,3.2131,11.641297999999999,-7.5167399999999995,4.8781669999999995,-1
567,568,1583551942008,3.5238,-1.9993,4.4632,12.010867,-7.699379400000001,5.6543765,-1
568,569,1583551942018,4.6649,-2.2900999,5.0992,13.0314865,-7.742455499999999,5.5294085,-1
569,570,1583551942028,5.6363997,-2.366,4.6461,14.132589999999999,-7.7652864,5.0930800000000005,-1
570,571,1583551942038,6.5557,-2.4199,4.0375,14.969564000000002,-7.795693400000001,4.561385,-1
571,572,1583551942049,7.0639997,-2.5077999,3.7424,15.356113,-7.818706,4.5536375,-1
572,573,1583551942059,7.1275,-2.6545,4.1667,15.388368,-7.881137400000001,5.1202207,-1
573,574,1583551942069,6.803499700000001,-2.7057,4.8813,15.050985999999998,-7.805327,5.8477135,-1
574,575,1583551942079,6.045099700000001,-2.6892998,5.2035,14.289822000000001,-7.6521463,6.078725,-1
575,576,1583551942089,6.045099700000001,-2.6892998,5.2035,13.654160999999998,-7.522342,6.045637,-1
576,577,1583551942099,4.6105,-2.6339998,5.0927997000000005,13.111310000000001,-7.3088655,5.882793,-1
577,578,1583551942109,4.239,-2.6778998,4.5699,12.902946,-7.196884,5.1652026,-1
578,579,1583551942119,4.3036,-2.6797,3.8795,13.082627,-7.077461200000001,4.546474,-1
579,580,1583551942130,4.5097,-2.6985997999999998,3.0109,13.461063000000001,-6.991347,3.5442326,-1
580,581,1583551942140,4.8352,-2.8374,2.2484999,13.739098,-6.9975142,2.9356074,-1
581,582,1583551942150,4.8461,-3.0039999999999996,1.7485,13.608172,-7.0333314,2.5215827999999996,-1
582,583,1583551942160,4.2265997,-3.2127,1.7012,12.930662,-7.163738700000001,2.5140936000000003,-1
583,584,1583551942170,3.3395998,-3.5835,1.6544,12.050564,-7.3026029999999995,2.5039232000000005,-1
584,585,1583551942180,2.4220998,-3.7903,1.8068999,11.273817,-7.32325,2.7249942000000003,-1
585,586,1583551942191,1.6324999,-3.9475,1.9767,10.59892,-7.118517,2.779582,-1
586,587,1583551942201,0.9324,-3.7298,1.8347,9.944930000000001,-6.5806455999999995,2.458941,-1
587,588,1583551942211,0.1471,-3.3397,1.5641999,9.20492,-5.99851,2.298204,-1
588,589,1583551942221,-0.6229,-3.0072,1.6107,8.559586999999999,-5.4875680000000004,2.2616777000000003,-1
589,590,1583551942231,-1.1991,-2.7055,1.2513,8.122243,-4.986816,1.5369338,-1
590,591,1583551942241,-1.6005,-2.3130999,0.15799999,7.786681,-4.130294999999999,0.105938636,-1
591,592,1583551942252,-1.6005,-2.3130999,0.15799999,7.8664083,-3.4861489999999997,-0.5743307,-1
592,593,1583551942262,-1.4936,-1.1646,-1.5203999,8.333861,-2.8570967,-1.2057966,-1
593,594,1583551942272,-1.2324,-0.9181,-1.768,8.347806,-2.5406022,-0.9376843,-1
594,595,1583551942282,-1.4782,-0.7776,-1.0102,7.761188000000001,-2.3433585,0.06776549,-1
595,596,1583551942292,-2.3686,-0.8746,-0.0787,6.648784,-2.5271947,0.7074387,-1
596,597,1583551942302,-3.4027,-1.3234999,0.4192,6.0671563,-2.7054669999999996,0.85114825,-1
597,598,1583551942313,-3.7463998999999997,-1.431,0.28239998,5.925822,-2.4343476,-0.014518439,-1
598,599,1583551942323,-3.7824,-1.252,-1.0027,6.162781,-2.045443,-1.7340244999999999,-1
599,600,1583551942333,-3.4922,-0.88729995,-2.6952,6.372982,-1.4070915000000002,-3.1877935,-1
600,601,1583551942343,-3.3865,-0.3515,-3.7975,6.4147844,-0.93281925,-3.7430660000000002,-1
601,602,1583551942353,-3.3774998,0.1042,-3.9650998,6.297391999999999,-0.21961533,-3.404593,-1
602,603,1583551942363,-3.6613,0.5265,-3.0767999,5.804541,0.09623733,-2.2014299999999998,-1
603,604,1583551942374,-4.2471,0.50339997,-1.7311,5.135285400000001,-0.04021301,-1.14258,-1
604,605,1583551942383,-4.9578,0.0607,-0.95,4.563827,-0.5368854000000001,-1.0524336,-1
605,606,1583551942393,-5.4006,-0.51949996,-0.92359996,4.2005982,-0.9097584000000001,-1.0403381999999999,-1
606,607,1583551942403,-5.7037,-0.9375,-0.6985,4.0308589999999995,-1.1621455,-0.82260936,-1
607,608,1583551942413,-5.7797,-1.2207999,-0.36969998,4.093999,-1.1097028,-0.6822517,-1
608,609,1583551942423,-5.6296,-1.0356,-0.3129,4.245782,-0.6493267,-0.80663526,-1
609,610,1583551942433,-5.5287,-0.5991,-0.4116,4.2149444,-0.30773154,-1.298165,-1
610,611,1583551942444,-5.6537,-0.4926,-0.96349996,3.9489867999999997,-0.42924207,-1.9697194,-1
611,612,1583551942454,-5.9653,-0.74649996,-1.7159,3.8607845000000003,-0.6660189999999999,-2.5713057999999998,-1
612,613,1583551942464,-5.7764997000000005,-0.98579997,-2.2071,4.639282700000001,-0.9409787000000001,-3.2741952000000003,-1
613,614,1583551942474,-4.9697,-1.1906999,-2.7519999,5.6001334,-1.0171335,-3.7171803,-1
614,615,1583551942484,-4.035599700000001,-1.2412,-3.1123,6.0930805,-0.9658114,-3.7793336,-1
615,616,1583551942494,-3.6604997999999997,-1.1592,-3.0074,5.9235706,-0.95083326,-3.266936,-1
616,617,1583551942505,-3.9619,-1.1682,-2.3954,5.361450700000001,-0.98335606,-2.5151472000000004,-1
617,618,1583551942515,-4.5276,-1.2178,-1.5953,5.1693974,-1.0034482,-1.7117201000000002,-1
618,619,1583551942525,-4.5532,-1.2508,-0.7416,5.632915000000001,-0.89911854,-1.0562451000000002,-1
619,620,1583551942535,-4.0288997,-1.1326,-0.1741,6.031818,-0.7411778,-1.3184006000000001,-1
620,621,1583551942545,-3.7099,-1.0285,-0.562,6.1967974,-0.6744275,-2.2413845,-1
621,622,1583551942555,-3.5670998,-0.9787,-1.2815,6.1912139999999996,-0.6859291999999999,-2.731468,-1
622,623,1583551942566,-3.5612,-1.0021,-1.8427,6.345918,-0.70668215,-3.4632509,-1
623,624,1583551942576,-3.3107,-1.0,-2.5565,6.951095,-0.4699435,-4.1206510000000005,-1
624,625,1583551942586,-2.7965999,-0.7671,-3.0075,7.3766603,-0.30232066,-3.8512362999999996,-1
625,626,1583551942596,-2.3035997999999998,-0.5518,-2.5398,7.598037700000001,-0.3339528,-2.6762194999999998,-1
626,627,1583551942606,-2.1445,-0.6139,-1.5195999,7.799256,-0.63147545,-2.1078553,-1
627,628,1583551942616,-1.9459,-0.90239996,-0.9288,8.468033,-0.98338485,-2.1376009999999996,-1
628,629,1583551942627,-0.518,-1.2257999,-1.2287999,9.306683999999999,-0.94683015,-2.535584,-1
629,630,1583551942637,-0.518,-1.2257999,-1.2287999,9.401100999999999,-0.9085038000000001,-2.7584555,-1
630,631,1583551942647,-0.33859998,-1.1413,-1.5870999,9.096435000000001,-0.65951633,-3.2169642000000005,-1
631,632,1583551942657,-0.6401,-0.90849996,-1.9411999,8.766714,-0.18435353,-3.452573,-1
632,633,1583551942667,-0.9614,-0.447,-2.1605,8.693749,0.21378306,-3.4682503,-1
633,634,1583551942677,-1.0376999,-0.076,-2.1661,8.900789999999999,0.5285248,-3.1031918999999997,-1
634,635,1583551942688,-0.2972,0.51309997,-1.1427,9.5213375,0.8651879000000001,-2.354046,-1
635,636,1583551942698,-0.0391,0.7044,-0.4838,9.674576,1.0172006,-1.7163745,-1
636,637,1583551942708,-0.0391,0.7044,-0.4838,9.331965,0.7973075,-1.4248564,-1
637,638,1583551942718,-0.281,0.5348,-0.059499998,8.997228999999999,0.5407927,-1.6577069,-1
638,639,1583551942728,-0.6597,0.104899995,-0.6877,9.130758,0.4342603,-2.2179787,-1
639,640,1583551942738,-0.6597,0.104899995,-0.6877,9.676186,0.5577916,-2.9156492000000003,-1
640,641,1583551942748,-0.14999999,0.2547,-1.3615,10.096665,0.69439507,-3.2308698,-1
641,642,1583551942759,0.55399996,0.4748,-1.6437,10.273203,0.714947,-2.9652187999999997,-1
642,643,1583551942769,0.49469998,0.37449998,-1.155,10.167111,0.5954666999999999,-2.437173,-1
643,644,1583551942779,0.28939998,0.2766,-0.6308,9.922242,0.48961425,-1.9038788,-1
644,645,1583551942789,0.0846,0.24419999,-0.3292,9.763957000000001,0.5592376,-1.654652,d
645,646,1583551942799,0.017099998999999998,0.3886,-0.0273,9.712031,0.65687317,-1.3471693999999999,-1
646,647,1583551942810,-0.099,0.3682,0.4037,9.564884,0.5756140000000001,-0.97738975,-1
647,648,1583551942820,-0.19579999,0.2445,0.41329998,9.559205,0.46679273,-1.0213568000000002,-1
648,649,1583551942830,0.0109,0.177,0.5089,9.901182,0.33938290000000004,-0.88444686,-1
649,650,1583551942840,0.49179998,0.0274,0.5531,10.388910000000001,0.18135598,-1.035655,-1
650,651,1583551942850,0.87469995,-0.0914,0.058799997,10.608124,0.08313626,-1.5453327,-1
651,652,1583551942860,0.9640000000000001,-0.17539999,-0.6484,10.693816,-0.021193475,-2.3881203999999996,-1
652,653,1583551942870,1.0149,-0.20899999,-1.3316,10.762157,-0.08966764,-3.0445627999999996,-1
653,654,1583551942881,1.0768,-0.23169999,-1.7928,10.824444999999999,-0.011750742,-3.3599940000000004,-1
654,655,1583551942891,1.0416,-0.0967,-1.7777,10.632822,0.1915074,-3.2159588,-1
655,656,1583551942901,0.7617,0.1003,-1.4181,10.399004,0.31532592,-2.8669705000000003,-1
656,657,1583551942911,0.41259998,0.0614,-0.8868,9.916707,0.18315643,-2.3101175,-1
657,658,1583551942921,0.0032,-0.2856,-0.589,9.58125,-0.22676921,-2.2490172000000004,-1
658,659,1583551942931,-0.122499995,-0.6519,-1.0989,9.683703,-0.5791957,-3.5328169999999997,-1
659,660,1583551942941,0.13419999,-0.8987,-2.6265,10.010205000000001,-0.7602644000000001,-4.9873233,-1
660,661,1583551942952,0.6667,-1.0225999,-4.5287,10.579402,-0.7581095999999999,-6.938071000000001,-1
661,662,1583551942962,1.2307,-0.8775,-6.371,11.029905,-0.6555228,-8.823256,-1
662,663,1583551942972,1.3650999,-0.9162,-7.3817,10.878658999999999,-0.8266029,-9.016267,-1
663,664,1583551942982,1.0012,-1.1852,-6.9447,10.229389,-1.1569549,-7.983867599999999,-1
664,665,1583551942992,0.2658,-1.62,-5.7023997,9.372103,-1.6313229,-6.972135499999999,-1
665,666,1583551943002,-0.57879996,-2.1878,-4.9809,8.730332,-2.0716932,-6.867308,-1
666,667,1583551943013,-1.0447,-2.5894,-5.27,8.464423,-2.3397958,-7.674336,-1
667,668,1583551943023,-1.1729,-2.8562,-6.3009996,8.673685,-2.3272502,-8.989231,-1
668,669,1583551943033,-0.70879996,-2.6271,-7.9094996,9.250927,-1.9533526,-10.383269,-1
669,670,1583551943043,-0.17099999,-2.1682,-9.4171,9.534391000000001,-1.5685084999999999,-11.638406,-1
670,671,1583551943054,-0.17369999,-1.9671999,-9.9572,9.308694000000001,-1.2973222,-11.076382,-1
671,672,1583551943064,-0.5467,-1.7598,-8.9063,8.683943,-1.200424,-9.186542,-1
672,673,1583551943074,-1.426,-1.8398999,-7.3859,7.348293300000001,-1.3948907,-7.830754,-1
673,674,1583551943084,-2.5279999,-2.1104,-6.182699700000001,6.5635604999999995,-1.4802104,-7.0724716,-1
674,675,1583551943094,-3.2371,-2.2539,-5.6110997000000005,6.021148999999999,-1.3150296000000001,-6.6107835999999995,-1
675,676,1583551943104,-3.7817998,-2.0844998,-5.2078,5.5597577000000005,-0.86147213,-6.1612480000000005,-1
676,677,1583551943114,-4.2316,-1.6781,-4.910599700000001,5.2347684,-0.32666490000000004,-5.6037245,-1
677,678,1583551943125,-4.5467,-1.1795,-4.4351,4.995311,0.14038642,-4.7468305,-1
678,679,1583551943135,-4.7448,-0.8138,-3.6933,5.1762543,0.37989277,-3.9504998,-1
679,680,1583551943145,-4.4708,-0.6705,-3.1001,5.5503817,0.19705239,-3.4121397000000004,-1
680,681,1583551943155,-4.1258,-0.941,-2.7414,5.739868599999999,-0.21381178,-2.7446268,-1
681,682,1583551943165,-4.003,-1.3491,-2.1368,5.827257,-0.5738423,-1.6509648999999997,-1
682,683,1583551943176,-3.9162,-1.6772,-1.1017,5.8035736,-0.46329719999999996,-0.38817670000000004,-1
683,684,1583551943186,-3.9441998,-1.5744,-0.1769,5.2176456,-0.48912582,1.6320313999999998,-1
684,685,1583551943197,-4.5288997,-1.6467999,1.7473999,3.9971197,-0.96260315,4.880408,-1
685,686,1583551943207,-5.7404,-2.1599,4.9126,2.9642324,-1.3758041,7.6278690000000005,-1
686,687,1583551943217,-6.776799700000001,-2.5967,7.575599700000001,2.8462749,-1.5837451999999999,9.276009,-1
687,688,1583551943228,-6.8848996,-2.8041,9.1313,3.6862277999999997,-1.5319346999999999,9.833686,-1
688,689,1583551943238,-6.0551,-2.6973,9.5725,4.890559,-1.3744729,9.853318,-1
689,690,1583551943248,-4.8543,-2.4603999,9.4678,5.8420725,-1.1993035,10.007121000000001,-1
690,691,1583551943258,-2.9596999,-2.0235999,9.9608,6.9527235,-1.142513,10.780947,-1
691,692,1583551943268,-2.3047,-2.1641,11.1635,7.533988000000001,-1.4750389,12.27014,-1
692,693,1583551943278,-2.1299999,-2.6164,13.2307,7.57874,-2.063505,14.503585999999999,-1
693,694,1583551943289,-2.4659998,-3.2559,15.546,7.2138157000000005,-2.7806737,16.776812,-1
694,695,1583551943299,-2.8321,-3.4610999,16.7944,6.841958,-2.9484785,17.666535999999997,-1
695,696,1583551943309,-3.0404,-3.2642,16.2466,6.7858089999999995,-2.7473943,16.915026,-1
696,697,1583551943319,-3.0404,-3.2642,16.2466,7.5625553,-2.1758889999999997,16.273073,-1
697,698,1583551943330,-1.2939999,-1.5254999,14.6271,8.538364999999999,-1.1713871,15.433723,-1
698,699,1583551943340,-1.0669,-1.078,14.0209,8.760738,-0.8280394,14.905639,-1
699,700,1583551943350,-0.8222,-0.7977,13.8068,9.104728,-0.7501800000000001,14.780202,-1
700,701,1583551943360,-0.4834,-0.92999995,13.7702,9.269630000000001,-1.1556525,14.613555999999999,-1
701,702,1583551943371,-0.78599995,-1.4713999,13.434299,8.665727,-1.8879046000000002,14.020953,-1
702,703,1583551943381,-1.6099,-2.2186,12.9052,8.070203,-2.5660956,13.533138000000001,-1
703,704,1583551943391,-1.8144,-2.8701,12.703799,8.051241000000001,-3.3198097,13.172016000000001,-1
704,705,1583551943401,-1.6035,-3.1332998,12.2876,8.334321000000001,-3.4992120000000004,12.128863,-1
705,706,1583551943411,-1.2808,-3.0133997999999997,10.7383995,8.565572999999999,-3.3098116,10.004756,-1
706,707,1583551943422,-1.2784,-2.7143998,9.1489,8.347528,-3.2045814999999997,8.629114,-1
707,708,1583551943432,-1.5674,-2.5621998,8.178599,8.089749000000001,-3.347228,7.8752284,-1
708,709,1583551943442,-1.7751,-2.7928,7.4789996,7.960031,-3.8788366,7.0356297,-1
709,710,1583551943452,-1.734,-3.6996998999999997,6.3429,8.313703,-5.3231053,5.4126863,-1
710,711,1583551943462,-1.1286,-4.8015,4.9525,9.375225,-6.658494999999999,3.2956474,-1
711,712,1583551943472,0.1699,-5.8963,2.6660000000000004,10.600452,-7.549607300000001,0.82918864,-1
712,713,1583551943483,1.3076999,-6.3262997,0.7266,11.456447,-7.6907697,-0.67843056,-1
713,714,1583551943493,1.9585999,-6.0429997,-0.2497,11.683273,-7.1130867,-1.5273665,-1
714,715,1583551943503,1.9634999,-5.3046,-0.821,11.440195,-6.985111999999999,-2.7079475,-1
715,716,1583551943513,1.7637999,-5.5374,-2.6583,11.627632,-7.684918,-6.03629,-1
716,717,1583551943523,2.5393,-6.0845,-6.4823,13.320572,-8.205044000000001,-10.762751,-1
717,718,1583551943533,4.2353997,-6.3427,-10.077,15.478570999999999,-8.535836999999999,-14.001579000000001,-1
718,719,1583551943543,6.4097,-6.5274,-12.7591,16.905687,-8.428251,-15.384862,-1
719,720,1583551943554,7.6131997,-6.2046,-13.5629,16.730135,-7.8977146,-15.115332999999998,-1
720,721,1583551943564,7.1284,-5.5843,-12.9037,15.418285000000001,-7.2848086,-14.133517999999999,-1
721,722,1583551943574,5.1826,-4.686899700000001,-11.3633995,12.613783999999999,-5.933358,-12.362882,-1
722,723,1583551943584,2.8751,-3.5258,-10.0428,10.847496000000001,-5.034393,-12.633302,-1
723,724,1583551943594,1.3034999,-2.7238,-10.8654995,10.369622999999999,-4.5763154,-15.152826000000001,-1
724,725,1583551943604,1.1243,-2.3151,-13.5911,11.270102,-4.5796194,-17.723576,-1
725,726,1583551943614,2.2159998,-2.3899999,-15.9846,12.520535,-4.869548,-18.843258,-1
726,727,1583551943625,3.3602,-2.6341999,-16.7432,12.952862,-4.969682700000001,-18.536043,-1
727,728,1583551943635,3.57,-2.7075999,-16.2902,12.12418,-4.811014,-17.673354999999997,-1
728,729,1583551943645,2.4961998,-2.4854998999999998,-15.305598999999999,10.311147,-4.2545155999999995,-16.324242,-1
729,730,1583551943655,0.569,-1.9656999,-13.898,8.463924,-3.6068552000000005,-15.016653,-1
730,731,1583551943665,-1.1787,-1.3576,-12.6703,7.2686910000000005,-2.8868517999999996,-13.968175,-1
731,732,1583551943675,-2.3013,-0.77889997,-11.653399,6.489723000000001,-2.440381,-12.861968,-1
732,733,1583551943686,-3.0217,-0.4529,-10.6418,5.8739247,-2.3277867000000003,-12.644382,-1
733,734,1583551943697,-3.5546,-0.46949998,-10.6374,5.794073,-2.412436,-12.888505,-1
734,735,1583551943707,-3.5848,-0.6107,-11.007899,6.504462,-2.5920682,-13.001032,-1
735,736,1583551943717,-2.9556,-0.7741,-11.1313,6.995599,-2.7329142,-12.381212,-1
736,737,1583551943727,-2.4919999,-0.9334,-10.579599,6.990341,-2.9787126,-11.5326395,-1
737,738,1583551943739,-2.6128,-1.3876,-9.0183,6.8927727,-3.1247206000000003,-10.531605,-1
738,739,1583551943749,-2.7380998,-1.3780999,-8.2638,6.747444000000001,-3.0747583,-9.701017,-1
739,740,1583551943759,-2.7380998,-1.3780999,-8.2638,6.3046513,-3.1092732000000005,-8.351177,-1
740,741,1583551943769,-3.7141,-1.5796,-5.579799700000001,5.75319,-3.196039,-6.861878,-1
741,742,1583551943779,-4.1310997,-1.6163,-4.5663,5.384253,-3.1814058,-5.9640427,-1
742,743,1583551943789,-4.3124,-1.6072999,-4.2872,5.2682776,-3.1735528,-5.678558,-1
743,744,1583551943799,-4.1977997,-1.6876999,-4.2281,5.4526987,-3.2580104,-5.5460153,-1
744,745,1583551943809,-3.9724998,-1.7823,-3.9954,5.6692495,-3.4086537000000003,-5.1284184,-1
745,746,1583551943819,-3.7635998999999996,-2.0635,-3.3541,5.9089665,-3.7523654000000004,-4.315673,-1
746,747,1583551943829,-3.5424,-2.5179,-2.3107,6.096203,-4.324388,-2.902711,-1
747,748,1583551943839,-3.5253,-2.9545999,-1.0964999,6.046011,-4.7766720000000005,-1.6139026,-1
748,749,1583551943850,-3.7038,-3.2589998,0.12709999,5.854283000000001,-4.946201,-0.5801438,-1
749,750,1583551943860,-4.0789,-3.1755998,1.5087999,5.4767747,-4.802414,0.91298574,-1
750,751,1583551943870,-4.5811,-2.8846998,2.8383,4.817871,-4.504307700000001,2.3278630000000002,-1
751,752,1583551943880,-5.0621,-2.7386,3.5007,4.511126,-4.41236,2.8237598,-1
752,753,1583551943890,-5.0199,-2.5133997999999997,3.5853998999999996,4.7712703,-4.2288017,2.8307027999999996,-1
753,754,1583551943900,-4.6101,-2.3737,3.4394998999999995,5.266305,-4.213297,2.7489746,-1
754,755,1583551943910,-3.9799998,-2.2968,3.3279,5.8498964,-4.2299604,2.827083,-1
755,756,1583551943920,-3.4445,-2.2835999,3.6371,6.36669,-4.3688626,3.4224348,-1
756,757,1583551943930,-3.0154998,-2.3641,4.4944997,6.601992,-4.454853,4.415817700000001,-1
757,758,1583551943940,-3.0476,-2.2296999,5.5058,6.3425082999999995,-4.3145620000000005,5.389635,-1
758,759,1583551943950,-3.5317,-1.8895998999999999,6.4739,5.778185400000001,-4.093472,6.416364700000001,-1
759,760,1583551943960,-4.1331,-1.7468,7.572,5.2563453,-4.0965943,7.242163000000001,-1
760,761,1583551943971,-4.6932,-1.9388,8.5426,4.693363,-4.372013,8.251348,-1
761,762,1583551943981,-4.867,-1.8598,8.9886,4.638478299999999,-4.2969217,8.431095,-1
762,763,1583551943991,-4.6335,-1.6443,8.840899,5.0114183,-4.138895,8.308589,-1
763,764,1583551944001,-4.1105,-1.1592,8.8049,5.4515400000000005,-3.6834602,8.314746000000001,-1
764,765,1583551944011,-3.8286,-0.6378,8.7821,5.554490599999999,-3.4150317,8.345104,-1
765,766,1583551944021,-3.7793,-0.4689,8.9279995,5.5781545999999995,-3.5158565000000004,8.773141,-1
766,767,1583551944031,-3.7572,-0.5276,9.5047,5.5073824,-3.7903373,9.364288,-1
767,768,1583551944042,-3.87,-0.9309999999999999,10.2858,5.299345,-4.3787650000000005,10.027625,-1
768,769,1583551944052,-4.058399700000001,-1.3433,10.9381,5.003364,-4.952607599999999,10.85486,-1
769,770,1583551944062,-4.2525997,-1.5928999,11.6938,4.754262000000001,-5.1364529999999995,11.420169999999999,-1
770,771,1583551944072,-4.6774,-1.4805,12.314099,4.0279474,-5.0003285,11.897613,-1
771,772,1583551944082,-5.2632,-1.1704,12.4084,3.6721593999999995,-4.9005575,11.467833,-1
772,773,1583551944092,-5.1440997,-0.99189997,11.481899,4.482779,-5.014665,9.928974,-1
773,774,1583551944102,-3.7979,-0.9339,9.7038,6.04013,-5.17296,8.237967999999999,-1
774,775,1583551944112,-2.2356,-1.0138,8.1154995,7.154746,-5.781116,7.058126,-1
775,776,1583551944122,-1.3454,-1.5974,7.3343,7.336264999999999,-6.5747175,7.1000533,-1
776,777,1583551944132,-1.4837999,-2.1817,7.9326,6.627590700000001,-7.4019523000000005,8.112915,-1
777,778,1583551944142,-2.279,-2.9025,9.0095,5.887811,-8.138437,8.916668,-1
778,779,1583551944153,-2.9431998999999998,-3.6820998,9.810699000000001,5.405456,-9.261989,9.327245,-1
779,780,1583551944163,-2.7763,-4.2667,9.5146,5.9493423,-9.569192999999999,8.360025,-1
780,781,1583551944173,-1.8141999,-4.1238,8.135099,7.0860520000000005,-9.44004,6.704397,-1
781,782,1583551944183,-0.49789998,-3.7782,6.1629996,8.188179,-9.375013000000001,4.906083,-1
782,783,1583551944193,0.6105,-3.6206,4.5024,8.903002,-9.572764999999999,3.9792110000000003,-1
783,784,1583551944203,1.2602999,-3.7666998,3.8844998,9.095955,-10.344685,3.9873513999999997,-1
784,785,1583551944214,1.4361,-4.3587,3.9387,8.966199000000001,-11.105457000000001,4.019347,-1
785,786,1583551944224,1.3699,-5.1233,3.7673,8.797025,-11.880038,3.5729916,-1
786,787,1583551944234,1.3665999,-5.6951,3.1822999,8.842592,-12.681205,2.8670084,-1
787,788,1583551944244,1.6637,-6.1397,2.467,9.444542,-12.772712,1.7940328,-1
788,789,1583551944254,2.5002,-5.9616,1.2411,10.205764,-12.46521,0.7379217,-1
789,790,1583551944264,3.2898998,-5.5548,0.2262,10.454369,-12.210016,0.41661980000000004,-1
790,791,1583551944275,3.5298998,-5.2334,-0.0656,10.077645,-12.094952000000001,1.0984118999999999,-1
791,792,1583551944284,3.1399,-5.0392,0.65099996,9.125461999999999,-12.206435,1.6234795,-1
792,793,1583551944294,2.2777998,-5.0692,0.7697,8.437081,-12.40728,0.5748766,-1
793,794,1583551944304,1.8693999,-5.1724,-0.7449,8.793989,-12.633397,-1.4774715,-1
794,795,1583551944314,2.5922,-5.3257,-2.9201,10.095822,-12.954633,-2.9828978,-1
795,796,1583551944324,4.0857,-5.5699,-4.2706,11.262286,-13.230846,-3.2725291000000003,-1
796,797,1583551944334,5.1791,-5.7559,-4.4628,11.315783,-13.387649,-3.1493425,-1
797,798,1583551944345,5.0280000000000005,-5.7851996,-4.365999700000001,10.030861999999999,-13.13233,-3.2123961,-1
798,799,1583551944355,3.6034,-5.4347,-4.4382,8.282950999999999,-12.683561,-3.0935192000000002,-1
799,800,1583551944365,1.936,-4.9528,-4.2263,6.970660700000001,-12.242742,-2.6500267999999996,-1
800,801,1583551944375,0.7859,-4.5253997,-3.8871,6.5523653,-11.953560000000001,-2.9217400000000002,-1
801,802,1583551944385,0.5552,-4.0963,-4.5999,6.993118300000001,-11.483731,-4.5295424,-1
802,803,1583551944396,1.2545998999999999,-3.7512999,-6.3417,8.406397,-11.268923,-6.9114759999999995,-1
803,804,1583551944406,2.5052,-3.5507,-8.3475,9.394991000000001,-11.161538,-7.520589999999999,-1
804,805,1583551944417,3.5402,-3.4210000000000003,-8.9798,9.318567999999999,-10.901988000000001,-6.4099483,-1
805,806,1583551944427,3.4768999,-3.1532,-7.8647,8.216345,-10.505201,-4.543687,-1
806,807,1583551944437,2.3523,-2.7517,-5.9679,6.778243499999999,-9.834002,-3.075582,-1
807,808,1583551944447,0.9008,-2.0869999999999997,-4.4907,5.656368700000001,-9.060703,-2.2641294,-1
808,809,1583551944458,-0.9790000000000001,-0.8228,-3.5145998,4.8503175,-8.4361515,-2.037303,-1
809,810,1583551944468,-0.9790000000000001,-0.8228,-3.5145998,4.74593,-8.299691000000001,-2.0695672,-1
810,811,1583551944478,-0.46769997,-0.7594,-4.0306,5.630597,-8.483153999999999,-2.5099375,-1
811,812,1583551944488,-0.46769997,-0.7594,-4.0306,6.61742,-8.47533,-2.8683302000000004,-1
812,813,1583551944498,1.8578999,-0.80579996,-4.6949997,7.780428,-8.536516,-2.966818,-1
813,814,1583551944508,1.9902999,-0.92389995,-4.2873,7.750845,-8.679039,-2.4481287,-1
814,815,1583551944519,1.4747,-0.9923,-3.1841998,7.219859,-8.662125999999999,-1.3434536,-1
815,816,1583551944529,0.7496,-0.63839996,-2.319,6.463502,-8.219217,-0.66806847,-1
816,817,1583551944539,-0.32099998,-0.1339,-2.0813,5.3514047,-7.721712599999999,-0.47886908,-1
817,818,1583551944549,-1.5799999,0.21319999,-1.8443999,4.18042,-7.356874,-0.22815785,-1
818,819,1583551944559,-2.2101,0.47219998,-1.5296999,3.8054782999999994,-7.130364,0.14726256,-1
819,820,1583551944569,-1.6149,0.4057,-1.2088,4.574898,-7.2905164000000005,0.51178455,-1
820,821,1583551944580,-0.41509998,-0.124299996,-1.155,5.7225347,-7.897782,0.5266956,-1
821,822,1583551944590,0.6004,-0.82269996,-1.5534999,6.65907,-8.647741,0.14851712,d
822,823,1583551944600,1.4836999,-1.474,-2.0479,7.554137,-9.324793,-0.44878834,-1
823,824,1583551944610,2.0162,-1.5939,-2.4403,7.834671000000001,-9.179886999999999,-0.5922585,-1
824,825,1583551944620,1.8863,-1.2357,-2.2947,7.3873477,-8.803001,-0.2768942,-1
825,826,1583551944631,1.0363,-0.88079995,-1.6682999,6.390048,-8.460314,0.5165920999999999,-1
826,827,1583551944641,-0.0515,-0.6023,-0.83889997,5.5014925,-8.267399000000001,1.1891234,-1
827,828,1583551944651,-0.83169997,-0.598,-0.2738,4.8019066,-8.322446000000001,1.6713921999999999,-1
828,829,1583551944661,-1.0957999,-0.7628,-0.1205,4.940263,-8.520859,1.6074382,-1
829,830,1583551944671,-0.4163,-0.97499996,-0.4701,5.9181027,-8.715803999999999,1.1626244,-1
830,831,1583551944681,0.79749995,-1.0619,-1.0594,6.9924383,-8.697962,0.538092,-1
831,832,1583551944692,1.5502,-0.9633,-1.7961999,7.472332000000001,-8.721751,-0.23358789,-1
832,833,1583551944702,1.6912999,-1.0775,-2.2942,7.443736,-8.771714,-0.43833044,-1
833,834,1583551944712,1.5778999,-1.0332999,-2.346,7.206336500000001,-8.616761,-0.35223496,-1
834,835,1583551944722,1.2409999,-0.90849996,-2.1498,6.733749400000001,-8.60479,-0.02333868,-1
835,836,1583551944733,0.6592,-0.9553,-1.6783999,6.162388,-8.677679,0.6491446999999999,-1
836,837,1583551944743,0.0982,-1.1198,-0.9356,5.7939587,-8.934175,1.2526462999999999,-1
837,838,1583551944753,-0.092099994,-1.4197999,-0.4933,6.108978,-9.270416,1.3118789,-1
838,839,1583551944763,0.55289996,-1.7777,-0.7417,7.117531,-9.537102,0.6161813,-1
839,840,1583551944773,1.7102,-1.9842,-1.7560999,8.612471000000001,-9.726051,-0.8973372,-1
840,841,1583551944784,3.0067,-2.121,-3.0556997999999997,9.632333000000001,-9.862378,-1.6910439,-1
841,842,1583551944794,4.1472,-2.3392,-3.7703,10.3891115,-10.137233,-1.7910544999999998,-1
842,843,1583551944804,4.5936,-2.7117999,-3.4898,10.408524,-10.800914,-0.8396082,-1
843,844,1583551944814,4.433799700000001,-3.3453998999999994,-2.5888999,10.265034,-11.511647,-0.2823913,-1
844,845,1583551944824,4.3452997,-4.0517,-2.134,10.784375,-11.916613,-0.31401393,-1
845,846,1583551944835,4.948,-4.4477997,-2.2436,11.657177,-12.23395,-0.60882634,-1
846,847,1583551944845,5.7943997000000005,-4.7889,-2.519,12.605539,-12.507788,-0.8611369000000001,-1
847,848,1583551944855,6.7035,-5.116699700000001,-2.8082,13.563019,-12.662367999999999,-1.1745954,-1
848,849,1583551944865,7.5729,-5.2585,-3.1208,14.300624,-12.557147,-1.2461245,-1
849,850,1583551944876,8.1361,-5.2265997,-3.1053998,14.43017,-12.68087,-0.82811606,-1
850,851,1583551944886,8.058499000000001,-5.4553,-2.6878998,14.145423000000001,-12.728993,-0.63967323,-1
851,852,1583551944896,7.6752,-5.5325,-2.6043,14.287753,-12.70077,-1.0590128,-1
852,853,1583551944906,7.7532997,-5.6500998,-3.0583,14.912419,-12.314528,-1.2656516000000002,-1
853,854,1583551944916,8.2613,-5.374,-3.2759,15.1801,-12.214499,-1.1652771,-1
854,855,1583551944926,8.3907995,-5.4112,-3.1543,14.837720999999998,-12.432122,-0.7579180999999999,-1
855,856,1583551944936,7.8925996,-5.7657,-2.6863,14.388385999999999,-12.806163,-0.26066154,-1
856,857,1583551944946,7.1524,-6.3610997000000005,-1.9093,13.501123999999999,-12.873412,0.7362936,-1
857,858,1583551944956,6.1966996,-6.531399700000001,-0.9869,12.856682000000001,-12.553834,1.3034608,-1
858,859,1583551944966,5.2167997,-6.2773,-0.1788,11.952247,-11.64692,2.0342767,-1
859,860,1583551944976,4.2862,-5.6949997,0.5556,10.902389999999999,-10.806813,2.7771208,-1
860,861,1583551944987,3.0542998,-5.0663,1.4053,9.693233,-10.260800999999999,3.2736688,-1
861,862,1583551944996,1.6715,-4.7402,2.0182,8.896232000000001,-9.791576,3.4020745999999997,-1
862,863,1583551945006,0.7012,-4.5039,2.2579,8.600000999999999,-9.4351845,3.3323267,-1
863,864,1583551945016,0.2538,-4.3616,2.2949998,8.855185,-9.3073435,3.337929,-1
864,865,1583551945026,0.3671,-4.4514,2.4249,9.158626,-8.994757,3.7896383,-1
865,866,1583551945036,0.537,-4.3578997,2.9986,9.072138,-8.673322,4.196672,-1
866,867,1583551945046,0.2394,-4.1786,3.6301,8.424755000000001,-7.864905,4.942408,-1
867,868,1583551945057,-0.45859998,-3.7127998,4.3985,7.498112700000001,-6.949946400000001,5.4028897,-1
868,869,1583551945067,-1.5155,-3.0658998,4.9775,6.311336,-5.938482,5.4094787,-1
869,870,1583551945077,-2.8093,-2.3278,5.0944,5.147524,-5.0451,5.036136,-1
870,871,1583551945087,-4.0805,-1.6926,4.8402,4.7588778,-4.6020293,4.421985,-1
871,872,1583551945097,-3.9171,-1.4135,3.8035997999999998,5.690548400000001,-4.2121763,3.6698227,-1
872,873,1583551945107,-2.9078,-1.2997,3.6873,6.6955857000000005,-3.9162245,3.501635,-1
873,874,1583551945117,-2.5688999,-1.1564,3.7061,6.868486,-3.4931211,3.349881,-1
874,875,1583551945128,-3.1390998,-0.68009996,3.5235,6.2578974,-2.7551801,3.0344305,-1
875,876,1583551945138,-4.0685997,-0.013599999,3.0187,5.314975,-1.8343129,2.4059812999999997,-1
876,877,1583551945148,-5.1495,0.5193,2.228,4.296577,-1.1726226,1.5610387,-1
877,878,1583551945158,-5.9487,0.7127,1.4567,3.6373765,-0.78546095,0.76459306,-1
878,879,1583551945168,-5.9487,0.7127,1.4567,3.4911003,-0.40517554,0.33810917,-1
879,880,1583551945178,-6.398,1.1515,1.3036,3.2365009999999996,-0.07142383,0.75354147,-1
880,881,1583551945188,-6.6583,0.826,1.9080000000000001,3.1085167,-0.33506376,1.4700398000000001,-1
881,882,1583551945198,-6.3065,0.0383,2.9921,3.5960145,-1.0804267,2.5351912999999997,-1
882,883,1583551945208,-5.4035,-0.8638,3.9739999999999998,4.548571,-1.8006121,3.4185083,-1
883,884,1583551945218,-5.4035,-0.8638,3.9739999999999998,5.20939,-1.9874747,3.5772152000000004,-1
884,885,1583551945228,-4.6779,-1.0905,3.5110997999999998,4.977306400000001,-1.559784,2.6328267999999997,-1
885,886,1583551945238,-5.6003,-0.54649997,2.2909,3.9612352999999993,-0.8753776,1.488322,-1
886,887,1583551945248,-5.6003,-0.54649997,2.2909,2.9270167000000002,-0.046686932,0.93233085,-1
887,888,1583551945259,-7.3318,0.8021,1.3331,2.432011,0.7657136,0.8448466999999998,-1
888,889,1583551945269,-7.0902,1.1856999,1.0689,2.9186661,1.2007303999999999,0.59957516,-1
889,890,1583551945279,-5.7286,1.4606999,0.90239996,4.359966,1.5428427,0.47757619999999995,-1
890,891,1583551945289,-4.5617,1.7393999,0.66029996,5.3738722999999995,1.8327134999999999,0.25039518,-1
891,892,1583551945299,-4.1685,1.5591999,0.7018,5.6722755,1.54019,0.33639494,-1
892,893,1583551945309,-3.9706,0.5882,0.8972,5.8898225,0.50552136,0.5089498,-1
893,894,1583551945320,-3.6251998,-0.56,1.1152999,6.2273283,-0.54423076,0.7106566,-1
894,895,1583551945330,-3.5647,-1.0682,1.6392,6.085821,-0.87562656,1.4215046,-1
895,896,1583551945340,-4.0733,-1.0791,1.9968,5.4705114,-0.60971695,1.4320104,-1
896,897,1583551945350,-4.6609,-0.5482,1.6524,5.0629992,-0.011137826000000002,1.1428770000000001,-1
897,898,1583551945360,-4.8956,0.33899999999999997,1.2255,4.949303,1.1278988,0.6368289,-1
898,899,1583551945370,-4.6496,1.0618,0.5373,5.3818398,1.7640189999999998,-0.10694419599999999,-1
899,900,1583551945381,-4.0014,1.3988999,-0.0543,6.1053866999999995,1.8808179,-0.56105727,-1
900,901,1583551945390,-3.2059999,1.0968,-0.44299999999999995,6.932038,1.3505023,-0.9178985999999999,-1
901,902,1583551945400,-2.4108,0.3655,-0.55439997,7.706571,0.68901294,-0.81630784,-1
902,903,1583551945410,-1.4,-0.3533,0.0471,8.678819,0.020858286,0.03320279,-1
903,904,1583551945420,-0.9679,-0.5516,0.92789996,8.713314,0.16217364,0.7862175,-1
904,905,1583551945431,-1.6044999,-0.0592,1.222,7.754828999999999,0.7405074,0.8227435,-1
905,906,1583551945441,-2.5839999,0.3455,0.81949997,6.9104033,1.0897449,0.28235298,-1
906,907,1583551945451,-3.2396,0.5963,0.24479999,6.440373999999999,1.3074256000000002,-0.20633231,-1
907,908,1583551945461,-3.2482998,0.5773,0.0536,6.8140893,1.1432313,-0.20682073,-1
908,909,1583551945471,-2.3358,0.2936,0.1192,8.2943,0.7578989,-0.23273556,-1
909,910,1583551945481,-0.9043,-0.091699995,0.030299998999999998,9.45701,0.3707565,-0.43758348,-1
910,911,1583551945491,0.3798,-0.4833,-0.23979999,10.410851,0.09865069,-0.69440466,-1
911,912,1583551945502,0.7227,-0.5033,-0.3802,10.475025,0.15263514,-0.7456596999999999,-1
912,913,1583551945512,0.3013,-0.3843,-0.2597,9.623867,0.33134794,-0.48729667,-1
913,914,1583551945522,-0.47219998,-0.2411,0.0117999995,8.962895,0.5944899,-0.044790725999999996,-1
914,915,1583551945532,-1.0002,0.0523,0.4005,8.654387,0.8675149999999999,0.08989748,-1
915,916,1583551945542,-1.2439,0.2816,0.203,8.516481,1.0432494,-0.48552495,-1
916,917,1583551945552,-1.1745,0.3163,-0.3829,8.855617,1.0369287,-0.99048126,-1
917,918,1583551945563,-0.6841,0.23689999,-0.816,9.566587,0.92035985,-1.2738398000000002,-1
918,919,1583551945574,0.0705,0.19569999,-0.9776,10.289196,0.8561187,-1.3877368,-1
919,920,1583551945584,0.5606,0.10569999,-1.0741,10.507213,0.56805784,-1.4990001,-1
920,921,1583551945594,0.7179,-0.20729999,-1.1403999,10.417449000000001,0.5009627999999999,-1.2360305,-1
921,922,1583551945604,0.59139997,-0.2086,-0.78249997,10.122139,0.6374706,-0.7410725,-1
922,923,1583551945614,0.2791,-0.083299994,-0.2661,9.861564,0.78106517,-0.32547736,-1
923,924,1583551945625,-0.07200000000000001,0.10529999400000001,0.1485,9.422764,1.1318923,-0.22756408,-1
924,925,1583551945635,-0.41349998,0.3838,0.07,9.166,1.298165,-0.4338964,-1
925,926,1583551945645,-0.6477,0.4933,-0.1454,9.150744,1.3388855,-0.53664595,d
926,927,1583551945655,-0.5886,0.5067,-0.21159999,9.467478,1.2922848,-0.5793680999999999,-1
927,928,1583551945665,-0.2067,0.44349998,-0.2943,9.989625,1.1165311000000002,-0.7161536000000001,-1
928,929,1583551945675,0.3313,0.2707,-0.42389998,10.617509,0.83887076,-0.7142191,-1
929,930,1583551945686,0.8401,0.0409,-0.4037,10.836157,0.5756140000000001,-0.59453773,-1
930,931,1583551945696,1.055,-0.2041,-0.2862,10.705366,0.51716673,-0.33643323,-1
931,932,1583551945706,0.9176,-0.2633,-0.0348,10.199356,0.64795715,-0.17404889,-1
932,933,1583551945716,0.4279,-0.14549999,0.12419999400000001,9.752025,0.79325646,-0.21264341,-1
933,934,1583551945726,-0.0224,-0.0126,0.0725,9.527917,1.0242491,-0.25375664,-1
934,935,1583551945737,-0.2571,0.19999999,0.0164,9.346255000000001,1.1185423,-0.15136144,-1
935,936,1583551945747,-0.43339998,0.2899,0.1072,9.364948,1.0425982,0.037043087,-1
936,937,1583551945757,-0.1593,0.07279999599999999,0.4271,9.678072,0.88819134,0.26662788,-1
937,938,1583551945767,-0.1593,0.07279999599999999,0.4271,9.832106,0.78842974,0.44396162,-1
938,939,1583551945777,0.20289999,-0.15869999,1.1504999,9.984808000000001,0.6868773,1.1150275,-1
939,940,1583551945787,-0.0025,-0.058599997,1.6204,9.591019000000001,0.8251568000000001,1.5462426,-1
940,941,1583551945798,-0.7272,0.062699996,1.9435999,8.880583,0.9309900999999999,1.8278868000000001,-1
941,942,1583551945808,-1.5008,0.21959999,2.2172,8.159037,1.1385962,2.1251125,-1
942,943,1583551945818,-1.5008,0.21959999,2.2172,7.767451299999999,1.3480887,2.2799982999999995,-1
943,944,1583551945828,-2.2841,0.65749997,2.4619,7.473951,1.5910429,2.4569874,-1
944,945,1583551945838,-2.3039,0.7948,2.9176,7.455822,1.6916854,3.0354362,-1
945,946,1583551945848,-2.4415998,0.8964,3.6397,7.291675,1.8241613999999997,3.7701495,-1
946,947,1583551945858,-2.7361,1.1256,4.2764997000000005,6.950310000000001,2.0224876,4.409994999999999,-1
947,948,1583551945869,-3.3051,1.1573,4.9807997,6.3198495,2.0243359,5.191577,-1
948,949,1583551945879,-4.1781,1.1294999,6.0017,5.3932457000000005,2.0010833999999997,6.2065177,-1
949,950,1583551945889,-5.2671,1.0277,6.7718997000000005,4.314064,1.8687893,6.908124000000001,-1
950,951,1583551945899,-6.2002,0.96639997,7.3735,3.44404,1.837751,7.5340834,-1
951,952,1583551945909,-6.712999999999999,1.0885,7.9486,2.9235694,1.9509487,8.163480999999999,-1
952,953,1583551945919,-7.0407996,1.2197,8.216599,2.6733081000000003,1.9914874,8.332778999999999,-1
953,954,1583551945930,-7.1538997,1.3483,8.3157,2.6632621,2.0445333,8.405391,-1
954,955,1583551945940,-6.9634,1.2156,8.4211,2.8713086,1.6682990000000002,8.307832000000001,-1
955,956,1583551945950,-6.9876,0.8167,8.055099499999999,2.74274,1.2348622,7.8033733,-1
956,957,1583551945960,-7.4309997999999995,0.1688,7.3599997,2.246757,0.26574683,6.8324294000000005,-1
957,958,1583551945970,-7.518399700000001,-0.47059998,6.772,2.4700406000000004,-0.3504345,6.1236977999999995,-1
958,959,1583551945980,-6.9459,-0.6759999999999999,6.3342,3.0839138,-0.5585385,5.6175440000000005,-1
959,960,1583551945990,-6.4593997000000005,-0.7240000000000001,6.0779,3.3936756,-0.7347997,5.33839,-1
960,961,1583551946001,-6.4603,-0.7924,5.9621997,3.2266654999999997,-1.0232339,4.9596844,-1
961,962,1583551946011,-6.5846,-1.2325,5.2235,3.3510396,-1.8633496999999999,3.7219303,-1
962,963,1583551946021,-5.8011,-2.1444,3.6511,4.520224,-3.0319116000000004,1.8198231,-1
963,964,1583551946032,-4.1082997,-3.182,1.8429999,6.8391905,-4.325786,-0.44312840000000003,-1
964,965,1583551946042,-2.2012,-3.8328,0.1724,8.188399,-4.922526400000001,-2.4191685,-1
965,966,1583551946052,-1.1116999,-4.0428,-1.8650999,8.884107,-5.096642500000001,-4.692874400000001,-1
966,967,1583551946063,-0.5008,-3.8689999999999998,-3.6409,9.295919,-5.0473127,-5.5520773000000005,-1
967,968,1583551946073,0.06,-3.7452998,-4.0523,9.9257765,-5.3200693,-6.144671,-1
968,969,1583551946083,0.6493,-3.9199998,-4.7355,10.433231,-5.745777599999999,-7.207811,-1
969,970,1583551946093,1.1608,-4.1809998,-5.8206997000000005,11.036436,-6.1886095999999995,-8.412861,-1
970,971,1583551946103,1.8429999,-4.5063,-7.0573997,11.719732,-6.741315400000001,-9.893234,-1
971,972,1583551946113,2.4108999,-4.700599700000001,-8.1243,11.944107,-6.898681599999999,-10.332226,-1
972,973,1583551946123,2.7151,-4.8279,-8.733399,12.152346000000001,-7.421000500000001,-11.175549499999999,-1
973,974,1583551946134,2.9693,-5.2346,-9.6452,12.773430000000001,-8.243867999999999,-12.786914,-1
974,975,1583551946144,3.7324998,-5.7155,-11.140599,13.773488,-8.589561999999999,-14.067352,-1
975,976,1583551946154,4.9739,-5.8152,-12.5011,15.096428,-8.476212,-14.811575,-1
976,977,1583551946164,6.0716996,-5.44,-12.799000000000001,15.092032000000001,-7.957436,-14.063885999999998,-1
977,978,1583551946174,5.718899700000001,-4.8473,-11.9344,13.276241,-7.705786,-12.84517,-1
978,979,1583551946184,3.6883,-4.5642,-10.6872,11.201703,-7.613801,-11.642714999999999,-1
979,980,1583551946195,1.7888,-4.4427,-9.615,10.139778999999999,-7.58644,-11.179026,-1
980,981,1583551946205,0.94699997,-4.3231997,-9.4093,10.110033999999999,-7.4816413,-11.901108,-1
981,982,1583551946215,1.1365,-4.1572,-10.3975,10.892823,-7.4109735,-13.110744,-1
982,983,1583551946225,1.9756999,-3.9808998,-11.675799000000001,11.474077000000001,-7.3048720000000005,-13.826084,-1
983,984,1583551946236,2.461,-3.7921,-12.306,11.230818,-6.970565,-13.435829,-1
984,985,1583551946246,2.1857,-3.4305,-11.953199,10.153196000000001,-6.4997787,-11.831799499999999,-1
985,986,1583551946256,1.1179,-2.9297,-10.4465,8.629307,-6.183055,-9.744574,-1
986,987,1583551946266,-0.41509998,-2.6015,-8.3914995,7.538392999999999,-6.012826400000001,-8.371555,-1
987,988,1583551946277,-1.5109,-2.4322999,-7.075,7.470436,-5.712182,-7.672775,-1
988,989,1583551946287,-1.5838,-2.1272,-6.4405,7.603018,-5.463118,-7.6416216,-1
989,990,1583551946297,-1.4563999,-1.8489,-6.4721,7.335221300000001,-5.7122207000000005,-8.007877,-1
990,991,1583551946307,-1.7178999,-2.0716999,-6.9221997,6.849907000000001,-6.13133,-8.122684,-1
991,992,1583551946317,-2.1569998,-2.4763,-6.2893996,6.937189999999999,-6.198301,-6.968152000000001,-1
992,993,1583551946327,-2.1569998,-2.4763,-6.2893996,7.1194177,-6.1980805,-6.1417212,-1
993,994,1583551946338,-1.7379999,-2.5103,-4.5446,7.351473299999999,-6.30626,-5.1791754,-1
994,995,1583551946348,-1.5127,-2.5662,-4.1054997,7.495882000000001,-6.4296002,-4.782935,-1
995,996,1583551946358,-1.6692,-2.8098,-4.0558,7.246846000000001,-6.748133999999999,-4.740155000000001,-1
996,997,1583551946368,-2.05,-3.1109998,-4.1277,6.873867999999999,-7.0627804,-4.7832989999999995,-1
997,998,1583551946378,-2.1832,-3.2991,-4.094599700000001,6.8127584,-7.260349799999999,-4.651168,-1
998,999,1583551946388,-1.9404,-3.3913,-3.8785,7.105119,-7.3507929999999995,-4.365396,-1
999,1000,1583551946398,-1.517,-3.3188998999999995,-3.3860997999999998,7.487358599999999,-7.3944826,-3.82875,-1
1000,1001,1583551946409,-1.071,-3.6934,-3.0295,7.950416000000001,-7.9397187,-3.4909567999999997,-1
1001,1002,1583551946419,-0.5157,-4.3824,-2.701,8.492157,-8.630417,-3.0807822,-1
1002,1003,1583551946429,0.08800000000000001,-4.8317,-1.9897,9.024091,-9.128335,-2.3573596,-1
1003,1004,1583551946439,0.1977,-5.2721995999999995,-1.0777,8.943358,-9.562336,-1.4298267,-1
1004,1005,1583551946449,-0.5327,-5.2952,-0.0116,7.881157000000001,-9.480982000000001,-0.28117505,-1
1005,1006,1583551946459,-1.5328,-5.0709,0.6806,7.1080303,-9.300727,0.16612886,-1
1006,1007,1583551946469,-2.0327,-4.7732,0.9586,6.783262,-8.997803,0.40360495,-1
1007,1008,1583551946480,-1.5653,-4.3427,0.95,7.559481,-8.5276,0.2800737,-1
1008,1009,1583551946490,-0.5803,-3.9261,0.7679,8.393928,-8.292835,0.3165901,-1
1009,1010,1583551946500,0.2622,-3.9046998,1.2944,9.274389999999999,-8.46175,1.2434238000000002,-1
1010,1011,1583551946510,0.83019996,-4.1618,2.4219999999999997,9.603736,-8.756772999999999,2.210557,-1
1011,1012,1583551946520,1.022,-4.5260997000000005,3.5268,9.638366,-9.329342,3.4966644999999996,-1
1012,1013,1583551946530,0.7177,-5.0302,4.8061,9.231793,-9.745598,5.133992,-1
1013,1014,1583551946541,0.43789998,-5.1804,7.1468997000000005,9.065539,-9.734805,7.6147103000000005,-1
1014,1015,1583551946551,0.4701,-4.9582,9.173699000000001,9.173805,-9.475858,9.220291,-1
1015,1016,1583551946561,0.81769997,-4.5239997,10.0734,9.689478,-9.013135,9.760825,-1
1016,1017,1583551946571,1.4725,-4.0633,9.953199,10.342147,-8.707683,9.445260000000001,-1
1017,1018,1583551946581,2.2077,-3.8753998,9.3133,11.110914999999999,-8.566148,8.987622,-1
1018,1019,1583551946592,3.1367998,-3.7435,9.1866,12.154164999999999,-8.540443,9.17436,-1
1019,1020,1583551946602,4.2646,-3.7837,9.5107,13.360612,-8.529497000000001,9.692715,-1
1020,1021,1583551946612,4.9679,-3.6316998,10.0473995,13.560154999999998,-8.266489,10.544428,-1
1021,1022,1583551946622,4.862,-3.3599,11.163899,13.124334,-7.877441,11.7964325,-1
1022,1023,1583551946632,4.2537,-3.0121999,12.2939,12.494678,-7.516491,12.497475,-1
1023,1024,1583551946642,3.6499,-2.7731,12.6465,12.176795,-7.348667,12.357968,-1
1024,1025,1583551946652,3.4875,-2.6813998,11.9565,12.418139,-7.146884,11.090086,-1
1025,1026,1583551946663,3.9557998,-2.5354,10.727099,13.111251999999999,-7.0267906,9.96914,-1
1026,1027,1583551946673,4.71,-2.5641,9.468599000000001,13.905829999999998,-6.990158999999999,8.458675999999999,-1
1027,1028,1583551946683,5.3423,-2.4851,7.826699700000001,14.21655,-6.628644,6.964608,-1
1028,1029,1583551946693,5.3466997,-2.1634998,6.5596,14.027925,-6.318183400000001,6.2410707,-1
1029,1030,1583551946703,4.9276,-1.9575,6.3603997,13.546920000000002,-6.0936933,6.7457685,-1
1030,1031,1583551946713,4.3729997,-2.0198998,7.1631,12.814792,-6.058738,7.21847,-1
1031,1032,1583551946723,3.6975,-2.1759,7.3395,12.417278,-6.020824,6.5495014000000005,-1
1032,1033,1583551946733,3.1694999,-2.2024999,6.2216,11.986053,-5.7595973,4.658379,-1
1033,1034,1583551946743,2.8107998,-2.1426,4.6724,11.910942,-5.4978914,3.6846285000000005,-1
1034,1035,1583551946753,2.6394,-1.9969999999999999,3.7821,11.809927,-5.140130999999999,3.263134,-1
1035,1036,1583551946763,2.5339,-1.7362,3.6118998999999996,11.740246,-4.7885184,3.2249992,-1
1036,1037,1583551946773,2.3799999,-1.6264,3.4729997999999997,11.669311,-4.634054,2.7176392000000003,-1
1037,1038,1583551946784,2.3023999,-1.7328999,2.6389,11.858433999999999,-4.547738,1.1888743999999998,-1
1038,1039,1583551946794,2.4942,-1.7883999,1.3005999,12.130165,-4.576622,0.12546575,-1
1039,1040,1583551946804,2.7236,-2.05,0.38799998,12.238230999999999,-4.7705903,0.019393034,-1
1040,1041,1583551946814,2.7,-2.3773,0.49049997,11.875077000000001,-4.769671400000001,0.33633748,-1
1041,1042,1583551946825,2.2259,-2.5115,0.81409997,11.2180805,-4.512850299999999,0.29912198,-1
1042,1043,1583551946835,1.4779999,-2.3834999,0.77529997,10.562059,-3.9339223,0.43173203,-1
1043,1044,1583551946845,0.8305,-1.9777999,0.9690000000000001,10.144109,-3.3200681000000003,0.4639963,-1
1044,1045,1583551946855,0.4026,-1.5906,0.92539996,9.700846,-2.8235202,-0.09321106,-1
1045,1046,1583551946865,-0.088599995,-1.3251,0.2538,9.121372000000001,-2.6198409,-0.98168975,-1
1046,1047,1583551946876,-0.6037,-1.3758,-0.435,9.004899,-2.578402,-1.1547809,-1
1047,1048,1583551946886,-0.7407,-1.5144999,-0.583,9.535177000000001,-2.4935322,-0.88341254,-1
1048,1049,1583551946896,-0.2258,-1.5942999,-0.2739,10.131026,-2.2762153,-0.80040073,-1
1049,1050,1583551946906,0.3612,-1.5385,-0.162,10.201751,-2.1122222,-1.166752,-1
1050,1051,1583551946916,0.3816,-1.5117999,-0.63769996,9.655289,-1.8438226000000002,-1.7982563000000003,-1
1051,1052,1583551946926,-0.1255,-1.4336,-1.1106,8.785733,-1.3875453000000002,-1.7994436999999999,-1
1052,1053,1583551946937,-1.0027,-1.1464,-1.0947,7.993904,-1.1799487,-1.6429299,-1
1053,1054,1583551946947,-1.7982,-1.1248,-0.91899997,7.341877,-1.1431068000000002,-1.7002853999999998,-1
1054,1055,1583551946957,-2.4433,-1.2531999,-0.956,7.16326,-1.119385,-2.1745577000000003,-1
1055,1056,1583551946967,-2.6146,-1.3614,-1.5659,7.2640557,-0.9300803,-3.2087092,-1
1056,1057,1583551946977,-2.6252,-1.2537999,-2.677,7.091175,-0.6278555,-3.4759212,-1
1057,1058,1583551946988,-2.6252,-1.2537999,-2.677,6.81657,-0.28279352,-3.0045412000000002,-1
1058,1059,1583551946998,-3.4757,-0.7145,-1.2475,6.109495,0.24892993,-2.0343148999999996,-1
1059,1060,1583551947008,-4.2493,-0.59209996,-0.473,5.2796650000000005,0.45030144,-1.3609983,-1
1060,1061,1583551947018,-5.0706997000000005,-0.7747,-0.094299994,4.4647455,0.3641006,-1.2070607,-1
1061,1062,1583551947028,-5.7455997000000005,-0.93399996,-0.7474,3.8144133,0.41528863,-2.0967843999999998,-1
1062,1063,1583551947038,-5.7455997000000005,-0.93399996,-0.7474,3.659068,0.5708255999999999,-3.0297952,-1
1063,1064,1583551947049,-5.8345,-0.7011,-2.6311998,3.8571165,0.88063526,-3.8811733999999998,-1
1064,1065,1583551947058,-5.5408,-0.5548,-2.8513,4.103422,1.1054413,-4.0121646,-1
1065,1066,1583551947068,-5.5892,-0.4587,-2.5342,3.917613,1.3175005,-3.6657622,-1
1066,1067,1583551947078,-6.0972,-0.2593,-2.1828,3.3537595000000002,1.6395683999999997,-3.3621488,-1
1067,1068,1583551947088,-6.6823997,0.074099995,-1.7579999,2.7257027999999996,2.113563,-2.898392,-1
1068,1069,1583551947098,-7.2864,0.3902,-1.2056999,2.1207361000000002,2.48363,-2.3821828,-1
1069,1070,1583551947109,-7.7829,0.5372,-0.87839997,1.6530143,2.7346668,-2.0562744,-1
1070,1071,1583551947119,-8.055099499999999,0.7831,-0.088999994,1.3597533000000002,3.0802553,-1.1797093,-1
1071,1072,1583551947129,-8.3786,0.97489995,0.7224,1.0034386999999998,3.3099456,-0.50768566,-1
1072,1073,1583551947139,-8.6669,0.98789996,0.8843,0.71365404,3.3604248,-0.45622948,-1
1073,1074,1583551947149,-8.814,1.1211,0.6981,0.62600714,3.5600822,-0.6818878,-1
1074,1075,1583551947159,-8.644299499999999,1.3376,0.4183,0.8523358,3.7675734,-1.002797,-1
1075,1076,1583551947170,-8.1964,1.5570998999999999,-0.1387,1.3284276000000002,3.98806,-1.5930443,-1
1076,1077,1583551947180,-7.7429,1.8131,-0.8926,1.9088491,4.2516136,-2.6077166000000003,-1
1077,1078,1583551947190,-7.2124996,1.9995999,-1.77,2.4109323,4.354105000000001,-3.3344622000000004,-1
1078,1079,1583551947200,-6.905999700000001,2.1457999,-2.1578999,2.5239482000000004,4.4616904,-3.5410626000000005,-1
1079,1080,1583551947210,-7.2232,2.2546,-2.0719,1.9154189,4.4564233,-3.2906961000000003,-1
1080,1081,1583551947221,-8.1545,2.1299,-1.4851999,0.87151814,4.246748999999999,-2.5697637,-1
1081,1082,1583551947231,-9.1439,1.8587999,-0.3733,0.055804055,3.9118763999999997,-1.2994290000000002,-1
1082,1083,1583551947241,-9.6458,1.5035,0.9349,-0.38366604,3.4586349999999997,-0.20386147,-1
1083,1084,1583551947251,-9.6458,1.5035,0.9349,-0.7043358000000001,2.9005945,0.24637292,-1
1084,1085,1583551947261,-10.0885,0.5568,1.7531999,-0.40131609999999995,2.4129338,0.10547895,-1
1085,1086,1583551947272,-9.4078,0.40899998,1.5027,0.6949793000000001,2.3059514,-0.28053340000000004,-1
1086,1087,1583551947282,-8.5065,0.6414,1.1039,1.3485198,2.4276152,-0.8736155000000001,-1
1087,1088,1583551947292,-8.174,0.82949996,0.3217,1.2518611000000002,2.327825,-1.7390523999999998,-1
1088,1089,1583551947302,-8.505,0.8743,-0.40649998,0.8859312,2.243319,-2.0959895,-1
1089,1090,1583551947312,-9.165299000000001,0.96159995,-0.6356,0.00911712,2.0055077,-2.1704109000000003,-1
1090,1091,1583551947322,-9.842299,0.7044,-0.4201,-0.38061103,1.0446764000000002,-1.4007325000000002,-1
1091,1092,1583551947333,-9.9394,-0.3705,0.70199996,-0.016136918,-0.3538726,-0.15491442,-1
1092,1093,1583551947343,-9.3873,-1.406,1.7492,0.84509575,-1.2165322,0.5124549,-1
1093,1094,1583551947353,-8.4201,-1.7035999,2.1246998,1.7447505,-1.3357921,0.6914646,-1
1094,1095,1583551947363,-7.2419,-1.3424,2.5145,3.0025777999999996,-1.1724502,1.1894107,-1
1095,1096,1583551947373,-6.4978,-0.9536,2.7066998,3.0193374,-1.2984426000000002,0.8538298000000001,-1
1096,1097,1583551947383,-6.795099700000001,-0.9321,2.2942,2.4178853,-1.9697002000000001,0.709536,-1
1097,1098,1583551947394,-7.5435996,-1.6897,2.1427999,2.039314,-3.5960717000000004,0.14061625,-1
1098,1099,1583551947404,-7.4866,-2.7889999999999997,1.4129,3.2185254,-5.2776346,-0.50955313,-1
1099,1100,1583551947414,-6.0346,-4.1275997,0.90599996,5.1846247000000005,-6.7026057,-0.40348044,-1
1100,1101,1583551947424,-3.9297,-5.0877,0.92759997,7.187575999999999,-7.5873303,-0.40202478,-1
1101,1102,1583551947434,-1.9965998999999999,-5.4301,0.91279995,8.094528,-7.857377499999999,0.14156435,-1
1102,1103,1583551947444,-1.2964,-5.3173,1.5324,7.4766226,-8.128689,1.3237637,-1
1103,1104,1583551947454,-2.0958,-5.2539,2.6782,6.353033,-8.47148,2.0570025000000003,-1
1104,1105,1583551947464,-3.3258,-5.6219,3.2680000000000002,5.6268144,-9.583999,2.1097322,-1
1105,1106,1583551947474,-3.3565,-6.111000000000001,3.0670998,6.687063,-9.929885,1.4994694,-1
1106,1107,1583551947485,-1.9291999,-6.0481,2.1718,8.195295,-10.221221,0.54751563,-1
1107,1108,1583551947495,0.1915,-6.0488,0.8628,10.167016,-10.62176,-0.55163366,-1
1108,1109,1583551947505,1.7298,-6.1053996,-0.0131,10.758230000000001,-11.291217999999999,-0.7730206999999999,-1
1109,1110,1583551947515,2.3277,-6.4445996,-0.2039,10.579709,-11.66502,-0.23214179999999995,-1
1110,1111,1583551947525,2.1771998,-6.4414997000000005,0.43089998,9.727822999999999,-12.159106,1.2528666000000002,-1
1111,1112,1583551947535,1.4531,-6.8096,1.9964,8.98066,-13.377142999999998,2.9183116,-1
1112,1113,1583551947546,1.0412999,-7.8148,3.4266,9.57513,-15.140099,3.5426620000000004,-1
1113,1114,1583551947556,1.8909999,-9.0145,3.7185,11.502291,-15.93415,2.6219667999999996,-1
1114,1115,1583551947566,4.0561,-9.533999,2.641,13.515374,-16.053555,-0.001388637,-1
1115,1116,1583551947576,6.3173,-9.372499000000001,-0.1478,14.983259,-15.58066,-1.9927324,-1
1116,1117,1583551947586,8.3377,-8.4756,-2.6122,15.879983,-14.923748999999999,-2.9028833,-1
1117,1118,1583551947596,9.149099,-7.7065997,-3.2589,14.859592999999998,-15.185089999999999,-1.4455328,-1
1118,1119,1583551947607,8.3768,-7.8141,-1.8600999,13.298870999999998,-16.169135999999998,0.63896453,-1
1119,1120,1583551947617,7.0133,-8.6355,0.2271,12.489488,-16.810677,2.2543992999999998,-1
1120,1121,1583551947628,6.7521,-8.793799,1.9503,12.7390785,-16.493502,2.0652381999999996,-1
1121,1122,1583551947639,7.166599799999999,-7.9673996,0.40699998,12.923967,-15.637326000000002,0.27716234,-1
1122,1123,1583551947648,7.3176,-6.9287,-1.3324,12.829943,-14.765569000000001,-1.2529143999999999,-1
1123,1124,1583551947658,7.2219,-6.1184998,-2.2106,12.522029,-14.077044,-1.6362932,-1
1124,1125,1583551947668,7.2219,-6.1184998,-2.2106,12.10246,-13.613114999999999,-1.0730046,-1
1125,1126,1583551947678,6.1082997,-4.9533997,-0.4813,11.057744999999999,-13.328185000000001,0.33765906,-1
1126,1127,1583551947689,5.5073,-5.1143,0.5668,10.442502000000001,-13.594909,1.2862705,-1
1127,1128,1583551947699,5.5065,-4.9688,0.7538,10.415830999999999,-13.389420000000001,1.2776035,-1
1128,1129,1583551947709,5.7204,-4.4010997000000005,0.0752,10.495700999999999,-12.850619,0.56143075,-1
1129,1130,1583551947719,5.602999700000001,-3.7468998,-0.5586,10.219275999999999,-12.228223,0.030482977999999997,-1
1130,1131,1583551947729,5.1898,-3.0851998,-0.8623,9.579086,-11.424643,-0.14304876,-1
1131,1132,1583551947740,4.6798997,-2.4132,-0.7118,9.061009,-10.857657000000001,0.102366485,-1
1132,1133,1583551947750,4.2029,-1.8716999,-0.475,8.617058,-10.443795,0.30169815,-1
1133,1134,1583551947760,3.6653998,-1.3607999,-0.30449998,7.944699000000001,-9.87455,0.49787903,-1
1134,1135,1583551947770,3.1001,-0.8596,-0.15959999,7.3847135999999995,-9.361825999999999,0.57610244,-1
1135,1136,1583551947780,2.6222,-0.4376,-0.2932,6.9577417,-9.062560000000001,0.38403952,-1
1136,1137,1583551947791,2.4599,-0.34849998,-0.4477,6.927182000000001,-9.158760000000001,0.35537615,-1
1137,1138,1583551947801,2.4599,-0.34849998,-0.4477,7.024884700000001,-9.379553999999999,0.47140875,-1
1138,1139,1583551947811,2.6689999999999996,-0.7955,-0.2911,7.036980000000001,-9.643605,0.59402055,-1
1139,1140,1583551947821,2.5704,-1.0468,-0.1749,6.797119599999999,-9.791634,0.6076388,-1
1140,1141,1583551947832,2.2965,-0.99909997,-0.3096,6.542951,-9.669443,0.46670649999999997,-1
1141,1142,1583551947841,1.8964,-0.7596,-0.4068,6.1091885999999995,-9.416003,0.45424709999999996,-1
1142,1143,1583551947851,1.4224,-0.6012,-0.38529998,5.619843,-9.289617999999999,0.5698295999999999,d
1143,1144,1583551947861,0.95699996,-0.4824,-0.096099995,5.287786,-9.160886,0.9873209000000001,-1
1144,1145,1583551947871,0.77739996,-0.36249998,0.2959,5.198501599999999,-9.012781,1.2330233999999998,-1
1145,1146,1583551947881,0.78749996,-0.2701,0.2972,5.238676,-8.927883,1.1881945,-1
1146,1147,1583551947891,0.7703,-0.20629999,0.1697,5.1799893,-8.984308,0.9642408000000001,-1
1147,1148,1583551947902,0.6551,-0.42700000000000005,-0.17559999,5.0409727,-9.224563,0.49542737,-1
1148,1149,1583551947912,0.5762,-0.56119996,-0.5909,5.0820284000000004,-9.274141,0.17427874,-1
1149,1150,1583551947922,0.6401,-0.5502,-0.9156,5.0716470000000005,-9.145286,-0.15239573,-1
1150,1151,1583551947932,0.51159996,-0.385,-1.1374999,4.9239345000000005,-8.997525,-0.17092685,-1
1151,1152,1583551947942,0.26,-0.271,-0.9504,4.6543856,-8.808613000000001,0.2924182,-1
1152,1153,1583551947952,0.046099997999999996,-0.0396,-0.4538,4.601876,-8.523454,0.7909196999999999,-1
1153,1154,1583551947962,0.0321,0.1741,-0.005,4.425021,-8.529152,1.041449,-1
1154,1155,1583551947973,-0.44579998,-0.098799996,0.0219,3.7708771,-9.200409,0.7242173000000001,-1
1155,1156,1583551947983,-0.9173,-0.9273,-0.40039998,3.9934803999999997,-9.837985,0.1228417,-1
1156,1157,1583551947993,-0.116299994,-1.2708,-1.0447999,5.592702,-9.940486,-0.6579649000000001,-1
1157,1158,1583551948003,1.7969998999999999,-1.3176,-1.9511,7.2578309999999995,-9.896241,-1.6963686000000002,-1
1158,1159,1583551948013,2.8416997999999998,-1.2988,-2.8660997999999998,7.316297500000001,-10.143533,-2.0875331999999998,-1
1159,1160,1583551948023,2.3948998,-1.8445,-2.7983,6.4878464000000005,-11.045688,-1.3596193,-1
1160,1161,1583551948033,1.6996,-2.7849,-1.5217999,6.9030485,-11.445328,1.0308571,-1
1161,1162,1583551948043,2.4522,-2.7043998,0.5469,7.5941496,-10.826255,1.9726689,-1
1162,1163,1583551948053,3.0607998,-1.9097998999999999,1.0611,7.5274944,-10.1023245,1.7748887999999998,-1
1163,1164,1583551948063,2.541,-1.3593,0.6486,6.714117,-9.833464999999999,1.4155478000000001,-1
1164,1165,1583551948073,1.7752,-1.2953,0.299,6.4612417,-10.019006,1.2984234,-1
1165,1166,1583551948083,1.9893999,-1.6901,0.2094,7.1976595,-10.522200999999999,1.2185912,-1
1166,1167,1583551948094,3.2638998,-2.5314,-0.161,9.239972,-11.705405,0.41076840000000003,-1
1167,1168,1583551948104,4.7483,-3.3527,-0.7848,10.7184,-12.22375,-0.37613866,-1
1168,1169,1583551948114,6.0859,-3.8188,-1.5258,11.367411,-12.3646345,-0.8599973,-1
1169,1170,1583551948124,6.5025,-3.9761998999999997,-1.851,11.232617,-12.537074,-0.77601826,-1
1170,1171,1583551948134,6.0401998,-4.1892,-1.5106,10.339111,-12.652466,0.012469003000000001,-1
1171,1172,1583551948144,4.9356,-4.3858,-0.5276,9.252526,-12.839462,1.2551842,-1
1172,1173,1583551948154,3.7603998,-4.6291,0.7344,8.580081,-12.964794,2.3222513,-1
1173,1174,1583551948165,3.1431,-4.8051,1.7126,8.858412,-12.705205,2.7905762000000003,-1
1174,1175,1583551948175,3.4605,-4.5284,1.9643999,9.5063505,-12.159556,2.3048884999999997,-1
1175,1176,1583551948185,3.9503998999999994,-4.057699700000001,1.1543,9.888571,-11.699956,0.7262859,-1
1176,1177,1583551948195,4.2304997,-3.7206,-0.6875,10.39345,-11.385588,-1.0427324,-1
1177,1178,1583551948205,4.7162,-3.5077,-2.3095,11.339072999999999,-11.088745,-1.4208151000000002,-1
1178,1179,1583551948216,5.3715997,-3.3611998999999995,-2.4793,11.467134,-11.124044999999999,-0.83439845,-1
1179,1180,1583551948226,5.2991,-3.5611,-1.65,10.874819,-11.507941,0.21522915,-1
1180,1181,1583551948236,4.579799700000001,-4.023,-0.7168,10.478942,-11.727575,0.5273277,-1
1181,1182,1583551948246,4.0074,-4.392299700000001,-0.30589998,10.377888,-11.398947999999999,0.2881661,-1
1182,1183,1583551948256,3.6334998999999994,-4.1624,-0.4976,10.418073,-10.720478,-0.11279563,-1
1183,1184,1583551948266,3.5737,-3.7036998,-0.75689995,10.552913,-10.158474,-0.05734592,-1
1184,1185,1583551948277,3.5309,-3.3186,-0.6292,10.440031,-9.516502000000001,-0.33810917,-1
1185,1186,1583551948287,3.2452,-2.8527,-0.8509,10.0216875,-8.976686,-0.7240831999999999,-1
1186,1187,1583551948297,2.6503,-2.5093,-1.1491,9.781108999999999,-8.408331,-0.9129283000000001,-1
1187,1188,1583551948307,2.2498999,-2.1174,-1.2327,9.948205,-8.224438000000001,-0.62121874,-1
1188,1189,1583551948317,2.0469,-2.3088,-0.0804,9.836988999999999,-8.295296,0.055746593,-1
1189,1190,1583551948327,2.0469,-2.3088,-0.0804,9.786032,-8.789987,0.11020031599999999,-1
1190,1191,1583551948338,2.1378,-3.875,0.5433,10.317056,-9.498305,0.5724344,-1
1191,1192,1583551948348,2.3481,-4.1583,1.2658,10.570285,-9.520773,1.1337024,-1
1192,1193,1583551948358,2.0342,-3.9375,1.7708,10.234245,-9.00465,1.7021049,-1
1193,1194,1583551948368,0.8325,-3.6373,2.6808,9.065224,-8.513292999999999,2.636447,-1
1194,1195,1583551948378,0.8325,-3.6373,2.6808,8.192882,-7.9528008,3.2416150000000004,-1
1195,1196,1583551948388,-1.525,-2.7231998,3.4736998,6.890167999999999,-6.959417299999999,3.1210717999999997,-1
1196,1197,1583551948398,-2.4136999,-2.059,2.9680998,6.380902,-6.086913,2.5958223,-1
1197,1198,1583551948409,-2.1887999,-1.3297,2.6594,7.0097437000000005,-5.0711875,2.4554932000000003,-1
1198,1199,1583551948419,-1.3220999,-0.5043,2.8012,7.992122999999999,-4.1254106,2.5250783,-1
1199,1200,1583551948429,-1.3220999,-0.5043,2.8012,8.530464,-3.707249,2.4520552,-1
1200,1201,1583551948439,-0.5463,0.0755,2.263,8.506464999999999,-3.4091612999999996,1.7273781000000004,-1
1201,1202,1583551948449,-1.5386,-0.064399995,1.4885,7.1355059999999995,-3.3845199999999998,0.6955922,-1
1202,1203,1583551948459,-3.0995,-0.2699,0.7542,5.896746599999999,-3.3333513999999997,0.114117235,-1
1203,1204,1583551948469,-4.6661997,-0.3186,0.5257,4.4540195,-3.1460385,-0.13581827,-1
1204,1205,1583551948479,-4.6661997,-0.3186,0.5257,3.8744888,-2.9333665,-0.035769373,-1
1205,1206,1583551948489,-5.8931,-0.0289,0.78679997,3.6915142999999997,-2.0436523,0.16610971,-1
1206,1207,1583551948499,-5.6315,0.8921,1.3902,3.9848328,-0.8582158999999999,0.75089824,-1
1207,1208,1583551948510,-5.7173,1.8179,1.8153,3.7302046000000004,-0.068502896,0.9739134,-1
1208,1209,1583551948520,-6.3374996,2.1792,2.0277,3.0627107999999996,0.38184643,1.1119535,-1
1209,1210,1583551948530,-6.686899700000001,1.9709999999999999,1.9411,2.9528646000000003,0.16237475,0.9273700999999999,-1
1210,1211,1583551948540,-6.3048,1.1456,1.5030000000000001,3.6309120000000004,-0.7919253,0.33891362,-1
1211,1212,1583551948550,-5.6439,0.3217,0.9826,4.138646,-1.2925146,-0.31850544,-1
1212,1213,1583551948560,-5.530999700000001,-0.0055,0.2472,4.005011,-1.3574166,-1.1678916000000001,-1
1213,1214,1583551948570,-5.9876,-0.040599998,-0.6518,3.4836497000000004,-1.13534,-1.9087246999999998,-1
1214,1215,1583551948581,-6.4249997,0.31759998,-0.7894,3.22498,-0.41613140000000004,-1.6374904,-1
1215,1216,1583551948591,-6.4702,1.0493,-0.105,3.2453597000000003,0.4521785,-0.8174475,-1
1216,1217,1583551948601,-6.5738997,1.5972998999999999,0.7211,3.0386825,0.8895799999999999,0.07436391,-1
1217,1218,1583551948611,-6.7829,1.4289,1.4619,3.0150947999999995,0.46477202,0.7408235,-1
1218,1219,1583551948621,-6.5169997,0.5287,1.7939,3.6919549,-0.7034548,0.7207505,-1
1219,1220,1583551948631,-5.648,-0.5306,1.4483,4.6008705999999995,-1.4876803,0.43585962,-1
1220,1221,1583551948642,-4.2851,-1.5084,1.3873,6.340315299999999,-2.5945487000000003,0.5106545,-1
1221,1222,1583551948652,-2.8625998,-2.3699,1.3388,7.589677,-2.9291812999999998,-0.044513,-1
1222,1223,1583551948662,-1.8353,-2.2410997999999998,0.5487,8.123842,-2.2976387000000003,-0.88419783,-1
1223,1224,1583551948672,-1.5388,-1.1804999,-0.49499997,8.001882,-0.8877986999999999,-1.9927419999999998,-1
1224,1225,1583551948682,-2.0493999,-0.1715,-1.7183,7.1854687,-0.11276689999999999,-3.3747803999999997,-1
1225,1226,1583551948692,-2.8920999,0.23969999,-2.9661,6.589494,0.029247568999999998,-3.6959388,-1
1226,1227,1583551948703,-3.3279998,-0.0061999997,-2.5712,6.317647,-0.5132019,-2.4865508,-1
1227,1228,1583551948713,-3.5126998,-0.802,-1.1794,6.3382373,-1.0502118,-1.3308886999999998,-1
1228,1229,1583551948723,-3.1339998,-1.4045999,0.5279,7.056248700000001,-1.2567548000000002,0.89200294,-1
1229,1230,1583551948733,-2.4986,-1.2526,2.5231,7.4367733,-0.6681259,2.6063855,-1
1230,1231,1583551948743,-2.2965999,-0.6824,3.9364,7.434494,-0.15456966,3.307379,-1
1231,1232,1583551948753,-2.5784,-0.1981,4.2426,6.765928,0.56926453,2.6515305000000002,-1
1232,1233,1583551948763,-3.0698,0.20179999,3.2754998,6.5966477,0.88809556,1.4080492,-1
1233,1234,1583551948774,-3.1518,0.47329998,1.8679999,6.8773155,1.1932031,-0.40349959999999996,-1
1234,1235,1583551948784,-2.823,0.7292,-0.0064999997,7.476211,1.2508746000000002,-1.9019251,-1
1235,1236,1583551948794,-2.1411,0.7387,-1.4228,8.442406,1.3106723,-2.6071804,-1
1236,1237,1583551948804,-1.1444,0.8544,-2.0004,9.214785000000001,1.5397878,-2.4666312,-1
1237,1238,1583551948814,-0.4409,1.0857999,-1.7521,9.6666565,1.6641521000000001,-1.6191508,-1
1238,1239,1583551948825,-0.0694,1.1399,-0.8153,9.692542999999999,1.525796,-0.54973745,-1
1239,1240,1583551948835,-0.1769,0.96519995,0.1557,9.13048,1.2273731,-0.24072261,-1
1240,1241,1583551948845,-0.7736,0.60469997,0.2549,8.651745,0.79608166,-0.74553525,-1
1241,1242,1583551948855,-1.1931,0.19299999,-0.3141,8.550202,0.73834306,-1.4674158000000002,-1
1242,1243,1583551948865,-1.1812,0.17819999,-0.99789995,8.957015,0.91682607,-1.880157,-1
1243,1244,1583551948875,-0.7087,0.3356,-1.3025,9.508055,1.1827451999999998,-1.7397037,-1
1244,1245,1583551948886,-0.20699999,0.6019,-1.0108,9.545164999999999,1.3621187,-0.97415274,-1
1245,1246,1583551948896,-0.3031,0.7082,-0.1963,8.965997999999999,1.1584872,-0.2903592,-1
1246,1247,1583551948906,-0.8006,0.4786,0.3385,8.574824000000001,0.8194874,-0.22639571,-1
1247,1248,1583551948916,-1.1902,0.1257,0.428,8.86456,0.5341847,-0.42031646,-1
1248,1249,1583551948927,-0.9036,-0.1774,0.26459998,9.407671,0.44475648,-0.3975141,-1
1249,1250,1583551948937,-0.2455,-0.2554,0.3207,9.834978,0.5179520000000001,-0.20728041,-1
1250,1251,1583551948947,0.0585,-0.18429999,0.49089998,9.54958,0.63141805,-0.33265996,-1
1251,1252,1583551948957,-0.2165,-0.0787,0.354,9.187825,0.762084,-0.7487531,-1
1252,1253,1583551948967,-0.6387,0.16319999,-0.5399,9.150352,0.9143456,-1.2690419,-1
1253,1254,1583551948977,-0.4129,0.24839999,-0.83489996,9.431852000000001,0.9727929,-1.5433695,-1
1254,1255,1583551948989,0.0287,0.32569999,-0.87829995,9.870595,1.0491391,-1.521563,-1
1255,1256,1583551948999,0.3629,0.294,-0.635,10.189972000000001,1.0165302,-1.2239636999999999,-1
1256,1257,1583551949009,0.5794,0.2593,-0.2755,10.34345,0.96760225,-0.93362373,-1
1257,1258,1583551949019,0.4624,0.2006,-0.050499998,10.093264999999999,0.95136,-0.5540662,-1
1258,1259,1583551949029,0.0708,0.2356,0.44259998,9.758096,0.9898969999999999,-0.13469778,d
1259,1260,1583551949039,-0.30159998,0.20969999,0.7309,9.39887,0.9712223,0.09303868,-1
1260,1261,1583551949049,-0.6846,0.3028,0.5869,9.016267,1.1228998,-0.11783303,-1
1261,1262,1583551949059,-0.93079996,0.4689,0.23359999,8.817519,1.3094081,-0.4359554,-1
1262,1263,1583551949069,-0.9122,0.6994,-0.13229999,8.855931,1.5340705,-0.77229285,-1
1263,1264,1583551949079,-0.7758,0.8584,-0.2924,9.024522,1.6703292,-0.86207545,-1
1264,1265,1583551949089,-0.6199,0.847,-0.19,9.173019,1.6085109,-0.7153588000000001,-1
1265,1266,1583551949100,-0.5719,0.7302,-0.065799996,9.18591,1.4931008999999997,-0.61105776,-1
1266,1267,1583551949110,-0.6416,0.5931,0.124299996,9.109909,1.3170216000000001,-0.36842933,-1
1267,1268,1583551949120,-0.76049995,0.4132,0.5233,8.898366000000001,1.158334,0.16692373,-1
1268,1269,1583551949130,-1.252,0.4136,0.92509997,8.212974,1.1927722,0.5832467,-1
1269,1270,1583551949140,-1.9979999,0.3876,1.1953,7.429237,1.1052114,0.6921636999999999,-1
1270,1271,1583551949150,-2.7928998,0.3003,0.93469995,6.7516300000000005,1.0539277,0.30969477,-1
1271,1272,1583551949161,-3.2349,0.25579998,0.52669996,6.4899435,1.0429716999999998,0.043019015,-1
1272,1273,1583551949171,-3.3042998,0.31379998,0.52919996,6.431515,1.0953186000000001,0.24009055,-1
1273,1274,1583551949181,-3.5005,0.2756,0.8735,6.1020827,1.004109,0.7366863,-1
1274,1275,1583551949191,-3.9605,0.0703,1.9336,5.6724195,0.79995066,2.2772498,-1
1275,1276,1583551949201,-4.1840997,-0.027199998,4.25,5.466230400000001,0.7255100999999999,4.865305,-1
1276,1277,1583551949212,-4.7016,-0.141,6.888999999999999,4.7164526,0.5456769,7.1663437000000005,-1
1277,1278,1583551949222,-5.6807,-0.3462,8.6767,3.6236242999999995,0.3747979,8.563476,-1
1278,1279,1583551949232,-6.7893996,-0.3111,9.5435,2.6426816000000004,0.6584246,8.995944,-1
1279,1280,1583551949242,-7.1366,0.2206,9.431000000000001,2.7807407000000004,1.4104146999999998,8.333211,-1
1280,1281,1583551949252,-6.8729,1.2112,8.451099000000001,3.087371,2.3247697,7.354518400000001,-1
1281,1282,1583551949262,-6.7019,2.1417,7.3854,2.9585247000000003,3.02335,6.031176,-1
1282,1283,1583551949273,-6.8574,2.8903,6.0072,2.9773812,3.3923156000000003,5.2655970000000005,-1
1283,1284,1583551949283,-6.8234,3.1188998,5.4649997,3.044639,2.9887586,5.162933,-1
1284,1285,1583551949293,-6.6573997,2.5058,5.7843,3.2917016,1.8474138999999998,5.5815163,-1
1285,1286,1583551949303,-6.3974,1.3785,6.267299700000001,3.6470683,0.32891545,5.878655999999999,-1
1286,1287,1583551949313,-6.0427,0.28599998,6.6531997,4.1571,-0.3580864,6.1898828,-1
1287,1288,1583551949324,-5.2894,-0.1874,7.1319,4.955231700000001,-0.52844816,6.114006,-1
1288,1289,1583551949334,-4.5801,0.062099997000000004,6.8524,5.207111,-0.07731356,5.116773,-1
1289,1290,1583551949344,-4.6134,0.6198,6.1745996,4.549567,-0.09185115,4.5352692999999995,-1
1290,1291,1583551949354,-5.2908,0.57769996,5.67,3.9948117999999995,-1.2259461999999999,2.9616659,-1
1291,1292,1583551949364,-5.6194,-0.5701,3.9002,5.0606337,-2.9096062000000003,0.23073400000000002,-1
1292,1293,1583551949374,-4.1830997000000005,-2.0298998,1.1314,7.375396,-4.535441400000001,-2.7890055,-1
1293,1294,1583551949384,-1.635,-3.3332998999999996,-1.5274999,10.090976,-5.9348235,-4.5146604,-1
1294,1295,1583551949395,1.1238999,-4.450999700000001,-2.9385998,11.895955,-6.880466499999999,-5.504087999999999,-1
1295,1296,1583551949405,3.1576,-5.2084,-3.9557998,13.453335000000001,-7.402728,-6.6224675,-1
1296,1297,1583551949415,4.2615,-5.1373,-4.6506,13.729548999999999,-7.2890415,-7.621242,-1
1297,1298,1583551949425,4.4677997000000005,-4.8884,-5.6370997,13.368905999999999,-7.733405599999999,-9.4792385,-1
1298,1299,1583551949435,4.0882998,-5.3097997,-7.6222997,13.106578,-8.702425,-12.120101,-1
1299,1300,1583551949445,4.0801997000000005,-6.1345,-10.1876,13.810139000000001,-9.710471,-14.548903,-1
1300,1301,1583551949455,5.047,-6.9328,-12.4265995,15.444364000000002,-10.261979,-16.158564000000002,-1
1301,1302,1583551949465,6.4969997,-7.169699700000001,-13.544498999999998,16.610712,-10.184188,-16.585017999999998,-1
1302,1303,1583551949475,7.7377996,-6.9649,-13.8799,16.838707,-10.144625,-16.744251000000002,-1
1303,1304,1583551949485,7.9674997,-6.8405,-13.9878,16.399926999999998,-10.237702,-16.625874,-1
1304,1305,1583551949495,7.5157,-6.8215,-13.623899,15.726726000000001,-10.000139,-15.614581,-1
1305,1306,1583551949505,6.8146,-6.4915,-12.5124,14.660338000000001,-9.618561999999999,-15.026527,-1
1306,1307,1583551949515,5.6960998,-6.0957,-12.059299000000001,13.431653,-9.196166999999999,-15.167573999999998,-1
1307,1308,1583551949525,4.444,-5.6127,-12.258699,12.206884,-8.543287,-15.38649,-1
1308,1309,1583551949535,3.3165,-4.975,-12.4737,11.546391499999999,-7.975861999999999,-15.371972,-1
1309,1310,1583551949545,2.7193,-4.4449997,-12.4811,11.159067,-7.545805499999999,-15.036095000000001,-1
1310,1311,1583551949555,2.3237,-4.0171,-12.086599,10.780085,-7.289061,-14.396008499999999,-1
1311,1312,1583551949565,1.6996,-3.7477,-11.2775,9.775936999999999,-6.96977,-13.028356,-1
1312,1313,1583551949575,0.76739997,-3.514,-10.060599,8.568714,-6.542185,-11.174371,-1
1313,1314,1583551949585,-0.2771,-3.188,-8.537499,7.7438345,-6.1551480000000005,-9.818937,-1
1314,1315,1583551949595,-1.3459999999999999,-2.7651,-6.9111,6.661751299999999,-5.6096816,-8.278623,-1
1315,1316,1583551949605,-2.4675999,-2.2689,-5.5199,5.894726,-5.1571584,-7.4424715,-1
1316,1317,1583551949615,-3.4429,-1.7414999,-4.737,4.8756385,-4.5049872,-6.9157186,-1
1317,1318,1583551949625,-4.2787,-1.2951,-4.5582,4.313566000000001,-4.163871299999999,-6.8604894,-1
1318,1319,1583551949636,-4.8052998,-1.0749,-4.6019998,4.2754407,-4.1806784,-6.7006335,-1
1319,1320,1583551949646,-4.756,-1.1597998999999999,-4.4564,4.5745629999999995,-4.227911,-6.252946400000001,-1
1320,1321,1583551949656,-4.533,-1.2208999,-4.1135,4.7374835,-4.230794,-5.828397,-1
