,Seq,Time,ACCx,ACCy,ACCz,ADGx,ADGy,ADGz,Keydown
0,1,1583551771706,1.7623999,-1.1401,0.0134,8.968363,-7.762892699999999,1.7252522000000001,-1
1,2,1583551771716,3.0002,-0.8357,-1.8485999,9.184206,0.9176975,0.8745731,-1
2,3,1583551771726,-0.6343,-0.063,-0.0602,8.86368,0.99576765,0.61749333,-1
3,4,1583551771736,-0.8574,0.0053999997,-0.3302,8.929999,1.1499639,0.14102806,-1
4,5,1583551771746,-0.7869,0.1673,-0.82409996,9.2041445,1.2985193000000002,-0.15569015,-1
5,6,1583551771757,-0.3463,0.22029999,-1.3898,9.411607,1.1542351,-0.5729420000000001,-1
6,7,1583551771767,-0.1335,0.049799997,-1.7581999,9.703623,0.9931436,-0.91587794,-1
7,8,1583551771778,-0.1335,0.049799997,-1.7581999,9.926064,1.0130633,-0.89662856,-1
8,9,1583551771788,0.5796,0.2005,-1.4334999,10.415016,1.1894586,-0.5879201999999999,-1
9,10,1583551771798,1.0993998999999999,0.2031,-0.88379997,10.930306,1.1646833,-0.14492582,-1
10,11,1583551771808,1.2852,0.0585,-0.0797,10.993724,1.015467,0.7653209,-1
11,12,1583551771818,0.9043,-0.1858,0.9851,10.533567999999999,0.7983226,1.7817074000000002,-1
12,13,1583551771828,0.2513,-0.2911,1.4762,9.8330145,0.7694773,2.0991979,-1
13,14,1583551771838,-0.52669996,-0.1409,1.0496,9.103867,0.97158617,1.5918951000000001,-1
14,15,1583551771849,-0.8706,0.0769,0.1195,8.859149,1.2332246,0.76682454,-1
15,16,1583551771859,-0.5455,0.2703,-0.3784,9.32395,1.3890105,0.53148407,-1
16,17,1583551771869,0.265,0.3021,-0.3208,10.263396,1.3914526000000003,0.6714969,-1
17,18,1583551771880,0.9342,0.1862,-0.26729998,10.744823,1.2495052,0.7478623999999999,-1
18,19,1583551771890,1.3366,-0.0069999998,0.010199999,11.099213,1.0057180000000001,1.1876773,-1
19,20,1583551771900,1.3363,-0.31309998,0.369,11.002419,0.73474216,1.3916823999999999,-1
20,21,1583551771913,1.1208999,-0.48029998,0.59279996,10.72794,0.6596025,1.6608098000000002,-1
21,22,1583551771923,0.7895,-0.4299,0.8477,10.182463,0.73447406,1.9544635,-1
22,23,1583551771933,0.2841,-0.3761,1.1068,9.639248,0.8631575999999999,2.3045053,-1
23,24,1583551771943,-0.3173,-0.2855,1.3097999,9.141705,0.9713564,2.3021493,-1
24,25,1583551771954,-0.7405,-0.1046,1.1735,8.860691000000001,1.2051357,2.2185247,-1
25,26,1583551771964,-0.8002,0.0805,1.2148,8.924932499999999,1.4828153,2.7534182,-1
26,27,1583551771974,-0.7611,0.2498,1.6917,8.598421,1.4514321000000001,3.2742142999999997,-1
27,28,1583551771985,-1.1516,0.1545,2.1071,8.053289999999999,1.3302089,3.7519343000000003,-1
28,29,1583551771995,-1.6845,0.0285,2.4761,7.58825,1.2693961,4.1668878,-1
29,30,1583551772005,-2.1081998,-0.0491,2.7122,7.221908,1.3222698,4.5735383,-1
30,31,1583551772015,-2.4085999,0.0231,2.8218,6.8500504,1.5596405,4.8565807,-1
31,32,1583551772025,-2.8105,0.2562,3.0405,6.1975346,1.7612802,4.8743267,-1
32,33,1583551772036,-3.4987,0.4188,2.9771,5.332491,1.869,4.753304,-1
33,34,1583551772046,-4.3736997,0.4928,2.8289999999999997,4.3926324999999995,1.9395810000000002,4.4032917000000005,-1
34,35,1583551772056,-5.1327,0.52099997,2.4908,3.8718742999999995,1.9611768,3.9230049,-1
35,36,1583551772066,-5.6498,0.5262,2.0077999,3.6049974000000002,2.010756,3.6648237999999997,-1
36,37,1583551772076,-5.9175,0.57,1.7716,3.3869910000000005,1.9982487,3.6670551,-1
37,38,1583551772087,-6.1519,0.5639,1.8138,3.0740879,1.8519629000000002,3.5439453000000003,-1
38,39,1583551772097,-6.4796996,0.42679998,1.7615999,2.4667652,1.7017508000000001,3.3462417,-1
39,40,1583551772108,-7.9465,-0.0011999999,1.3241999,1.6428342,1.3933103999999998,2.9488904,-1
40,41,1583551772118,-8.9944,-0.3372,0.94149995,0.36644694,0.9227924000000001,2.3652127,-1
41,42,1583551772128,-10.1024,-0.8149,0.4516,-0.503922,0.5136808,1.8922237000000002,-1
42,43,1583551772138,-10.4775,-1.3482,-0.34739998,-0.77080846,-0.34091517,0.6405352,-1
43,44,1583551772148,-9.8552,-2.0612,-1.3439,0.18186356,-1.2011902,-0.42055592,-1
44,45,1583551772158,-9.8552,-2.0612,-1.3439,1.0487561,-1.8630241,-1.0267487,-1
45,46,1583551772168,-8.1133995,-3.5180000000000002,-2.5609,1.6013665000000001,-2.7178786,-1.6326252,-1
46,47,1583551772178,-8.5485,-3.9422,-2.6989,1.0108607,-3.2418544,-1.8534856,-1
47,48,1583551772189,-9.568399000000001,-4.2393,-2.5175998,-0.009969456,-3.6216322999999995,-1.7517991000000002,-1
48,49,1583551772199,-10.4282,-4.369,-2.3161,-0.80772704,-3.9426372000000005,-1.7172938999999998,-1
49,50,1583551772209,-10.8237,-4.6724,-2.4958,-1.0432112,-4.3803353,-2.0346406000000004,-1
50,51,1583551772219,-10.3523,-4.9277997000000004,-2.8372998,-0.33469984,-4.8268830000000005,-2.4235067000000003,-1
51,52,1583551772229,-8.9046,-4.8775997,-3.2182999,1.2663124,-4.904417,-2.949647,-1
52,53,1583551772240,-7.1762,-4.5889997000000005,-4.2219,2.936316,-4.893154,-4.061342,-1
53,54,1583551772250,-7.1762,-4.5889997000000005,-4.2219,4.2060375,-5.4669967,-5.4079943,-1
54,55,1583551772260,-4.9665,-5.2131,-6.2441998,4.8733497,-6.106105,-5.959196599999999,-1
55,56,1583551772270,-4.986000000000001,-5.7563,-6.1287,4.5900965,-7.200456,-5.9511614,-1
56,57,1583551772280,-5.3231,-6.5418,-6.24,4.3603106,-8.07433,-6.332577,-1
57,58,1583551772290,-5.1717,-6.8188996,-6.8946,4.6648817000000005,-8.350085,-6.945061999999999,-1
58,59,1583551772301,-4.0873,-6.5734997,-7.9543996,6.243101,-8.144364999999999,-8.281323,-1
59,60,1583551772311,-2.2233999,-5.5875,-8.965,8.063748,-7.2558484,-8.808421000000001,-1
60,61,1583551772321,-0.6868,-4.4375,-9.049,9.123038000000001,-6.6058035,-8.363263,-1
61,62,1583551772331,-0.2651,-3.8256997999999998,-8.3755,8.964878,-6.602968700000001,-7.5117984,-1
62,63,1583551772341,-0.8538,-4.1524997,-7.7107997,8.256519,-7.712145,-6.790358500000001,-1
63,64,1583551772351,-1.0316,-5.434,-7.2925997,8.399913,-9.229619,-6.628616,-1
64,65,1583551772362,-0.0285,-6.1671996,-7.9273996,9.764187,-10.050705,-7.6928095999999995,-1
65,66,1583551772372,2.0921,-6.6326,-9.5433,12.020166,-10.75825,-9.058155000000001,-1
66,67,1583551772382,4.3982997,-6.752999999999999,-10.2958,13.936754,-10.982347,-9.135028,-1
67,68,1583551772393,5.4245996,-6.4540997,-10.091499,13.706067000000001,-11.1745825,-8.656983,-1
68,69,1583551772403,4.6937,-6.6383,-9.9861,12.284898,-12.051568,-8.999775,-1
69,70,1583551772413,3.6381997999999998,-7.4679,-11.0011,11.948608,-13.396641,-10.330914,-1
70,71,1583551772424,4.433799700000001,-8.584,-12.3847,14.012410000000001,-14.593952,-10.890774,-1
71,72,1583551772434,7.4719,-9.2532,-12.6426,17.773481,-15.052164000000001,-10.118443,-1
72,73,1583551772445,10.606899,-9.2116995,-11.8947,19.188961,-15.407962,-9.1427,-1
73,74,1583551772455,11.7932,-9.4241,-10.934199000000001,18.748714,-16.046553,-8.409366,-1
74,75,1583551772465,11.3014,-9.8244,-10.2712,17.879074,-16.5123,-8.001163499999999,-1
75,76,1583551772475,10.6186,-10.161699,-9.771,17.790565,-16.989178,-7.573789,-1
76,77,1583551772485,10.8266,-10.3962,-9.1823,18.22608,-16.868866,-6.944238,-1
77,78,1583551772495,11.3657,-10.0601,-8.463799,18.588305,-16.441816,-6.4140086,-1
78,79,1583551772505,11.747,-9.5063,-7.8511,18.636696,-15.978145999999999,-6.1374307,-1
79,80,1583551772516,11.8305,-9.0102,-7.56,18.631582,-15.691148000000002,-5.7957015,-1
80,81,1583551772526,11.850699,-8.6689,-6.9974,18.467445,-15.524185000000001,-4.407457,-1
81,82,1583551772536,11.7367,-8.4913,-5.6531997,18.082582000000002,-15.503298999999998,-2.8961031000000004,-1
82,83,1583551772546,11.367499,-8.430699,-4.0241,17.527452,-15.667608,-1.6186624,-1
83,84,1583551772556,10.810599,-8.576799000000001,-2.6406999,17.240157999999997,-15.879112,-0.84704936,-1
84,85,1583551772566,10.458799,-8.8131,-1.571,17.162777,-15.453958499999999,-0.0018483237,-1
85,86,1583551772577,10.371099000000001,-8.4152,-0.797,17.032639,-15.198201000000001,0.18983147,-1
86,87,1583551772587,9.8213,-7.8845997,-0.3337,15.859691,-14.528151000000001,0.74204934,-1
87,88,1583551772597,8.906899000000001,-7.633599799999999,0.1109,15.028548,-14.312538,1.5694663999999998,-1
88,89,1583551772607,7.2377996,-7.2774997,2.4175,14.332554,-13.858329000000001,3.1448412,-1
89,90,1583551772617,6.5077996,-7.004699700000001,3.9232998,13.692803,-13.445579,4.4528704,-1
90,91,1583551772628,6.5077996,-7.004699700000001,3.9232998,13.087482000000001,-13.156348000000001,5.150407,-1
91,92,1583551772638,5.5909,-6.8022,4.9941998,12.632852,-12.866354,5.9020996,-1
92,93,1583551772648,4.6864,-6.4891996,6.3107,12.4736185,-12.314327,6.175259,-1
93,94,1583551772658,4.2717,-6.0613,6.0783997,12.134801,-11.7017565,5.678855,-1
94,95,1583551772668,3.6792,-5.8845997,5.4781,11.730592999999999,-11.3179,5.0599537,-1
95,96,1583551772678,3.2732,-5.8513,5.249399700000001,11.552291,-11.044232000000001,4.795854,-1
96,97,1583551772689,3.2732,-5.8513,5.249399700000001,11.514559,-10.649658,4.75951,-1
97,98,1583551772699,2.4241,-5.3406997,5.7426996,10.867837,-9.916755,5.340822,-1
98,99,1583551772709,1.2765,-5.0941997,6.589299700000001,9.78788,-9.355917999999999,6.0844325999999995,-1
99,100,1583551772719,-0.24679999,-4.775,7.2433,8.400066,-8.669768,6.615821,-1
100,101,1583551772729,-1.5422,-4.3624,7.620899700000001,7.1379004,-7.781673,6.8562083,-1
101,102,1583551772740,-2.4196,-3.9812999,7.6299996,6.5604863,-7.2076387,6.700297999999999,-1
102,103,1583551772750,-2.9376,-4.0474,7.2363,6.2946916,-7.006037700000001,6.106995599999999,-1
103,104,1583551772760,-3.0391,-3.9768,6.5636997,6.342825,-6.546121,5.4893203,-1
104,105,1583551772772,-3.1188,-3.6548998,6.04,6.308951400000001,-5.9208417,5.068985,-1
105,106,1583551772781,-3.3757,-3.3349,5.7551,6.0166,-5.334291,4.9491787,-1
106,107,1583551772791,-3.8007998,-2.9735,5.7004,5.6319475,-4.687512,5.0125484,-1
107,108,1583551772801,-4.2662997,-2.6311,5.8501,5.1741095,-4.139565,5.2009053,-1
108,109,1583551772811,-4.8598,-2.4543,5.9502,4.570378,-3.7468873999999994,5.2691207,-1
109,110,1583551772822,-5.5522,-2.2937,5.9782996,3.8545114999999996,-3.2937799,5.25307,-1
110,111,1583551772832,-6.4126,-2.2433,5.8585,2.8777156,-3.0963828999999996,5.02224,-1
111,112,1583551772842,-7.1576996,-2.3284,5.5825996,2.3227873,-2.7500472,4.584944200000001,-1
112,113,1583551772852,-7.5239997,-1.984,5.0397997000000005,2.2577322,-2.1283495,4.0489492,-1
113,114,1583551772862,-7.4744,-1.3723999,4.210099700000001,2.3808804,-1.1748538999999998,2.9358182,-1
114,115,1583551772873,-7.3429,-0.7879999999999999,3.2087,2.545295,-0.46957955,2.024221,-1
115,116,1583551772883,-7.2079997,-0.3223,2.2384999,2.5878541,0.023587676000000002,1.2472353999999999,-1
116,117,1583551772893,-7.2461996,-0.0678,1.5979999,2.412886,0.35772246,0.7937831999999999,-1
117,118,1583551772903,-7.5263,0.052199997000000005,1.286,2.1052597,0.49375144,0.6499779,-1
118,119,1583551772913,-7.8725,0.047799997000000004,1.2025,1.9576813000000002,0.62289464,0.54964167,-1
119,120,1583551772924,-7.6677,0.0591,1.0971999,2.4875374,0.6587694000000001,0.047606308,-1
120,121,1583551772934,-6.9522,-0.0316,0.3619,3.4951513,0.825061,-1.4319338,-1
121,122,1583551772944,-6.1285,0.1131,-0.94149995,4.021368,1.2063233999999998,-2.6509272999999998,-1
122,123,1583551772954,-5.6675,0.42639998,-2.0268,4.0883675,1.5568345,-3.1897278,-1
123,124,1583551772964,-5.7352,0.7545,-2.4215,3.6789017,1.8901648999999998,-3.1696167,-1
124,125,1583551772975,-6.1152997000000004,0.9032,-2.2247999,3.3825953,2.018695,-2.8278491000000003,-1
125,126,1583551772985,-6.357199700000001,0.91139996,-1.8153,3.3018245999999998,2.009444,-2.6144203999999998,-1
126,127,1583551772995,-6.344599700000001,0.8558,-1.6076,3.6391769999999997,2.132276,-2.7241418,-1
127,128,1583551773005,-5.9413,0.94729996,-1.7709,4.2568526,2.2232366000000003,-3.2538447,-1
128,129,1583551773015,-5.266,0.96209997,-2.2905,5.1426015,2.0791535,-4.0084586,-1
129,130,1583551773026,-4.3184,0.76879996,-3.0872998,6.5881057,1.6190838,-5.2155575999999995,-1
130,131,1583551773036,-3.0871,0.3789,-4.0385,7.8142147,1.4234487,-5.755431,-1
131,132,1583551773046,-1.8548,0.1721,-4.5165997,8.466519,1.5474492,-5.4821377,-1
132,133,1583551773056,-1.1788,0.2845,-4.1963,8.268816000000001,1.6405166000000002,-5.0172224000000005,-1
133,134,1583551773067,-1.3730999,0.34,-3.6713,7.644303,1.7575357,-4.6414375,-1
134,135,1583551773077,-1.9782,0.41369998,-3.2509,7.4167485,2.104264,-4.3055124000000005,-1
135,136,1583551773087,-2.2014,0.7137,-2.8760000000000003,7.5505557,2.4634802000000002,-4.269369,-1
136,137,1583551773097,-1.5945,1.1815,-2.7745,8.138735,2.6317449,-4.2489996,-1
137,138,1583551773107,-0.9601,1.1238999,-2.5337,8.720095,2.513519,-4.012232,-1
138,139,1583551773118,-0.9601,1.1238999,-2.5337,8.954305,2.1589282,-3.7891116,-1
139,140,1583551773128,-0.39249998,0.21419999,-2.0960999,9.259489,1.5768691000000001,-3.6965036000000002,-1
140,141,1583551773138,0.0409,-0.036199998,-2.1778,9.731415,1.3775469999999999,-3.8196998,-1
141,142,1583551773149,0.5322,-0.1013,-2.3163,10.183152,1.3590639,-3.9709462999999996,-1
142,143,1583551773159,0.7782,0.0332,-2.4607,10.3676405,1.5175887,-4.0623190000000005,-1
143,144,1583551773169,0.64269996,0.2561,-2.2551,10.128555,1.7464074,-3.7794485,-1
144,145,1583551773179,0.126,0.3515,-1.6097,9.557538000000001,1.8361038,-3.0521474,-1
145,146,1583551773189,-0.56619996,0.3143,-0.56189996,8.883915,1.8227153000000003,-1.9577866999999998,-1
146,147,1583551773199,-1.0723,0.2514,0.33069998,8.439801,1.7583497,-1.2144061000000002,-1
147,148,1583551773210,-1.1495,0.18239999,0.3487,8.531431,1.712879,-1.4182197,-1
148,149,1583551773220,-0.7779,0.20899999,-0.1415,9.033074000000001,1.7441375,-2.018293,-1
149,150,1583551773230,-0.0742,0.24949999,-0.76379997,9.759091,1.7054856,-2.6101012000000003,-1
150,151,1583551773240,0.5603,0.011299999,-1.2464,10.374066000000001,1.3422948000000001,-2.9919379,-1
151,152,1583551773250,0.5603,0.011299999,-1.2464,10.803979,1.1964879,-3.012011,-1
152,153,1583551773260,1.3616999,-0.1397,-1.1034,10.890371,1.3621763,-2.6207507000000003,-1
153,154,1583551773271,1.0308,0.0191,-0.7227,10.315197999999999,1.4952938999999998,-2.2562189999999998,d
154,155,1583551773281,0.2996,0.0871,-0.46069998,9.629825,1.6178099,-2.0348895000000002,-1
155,156,1583551773291,-0.2254,0.1915,-0.24949999,9.138993,1.7901733,-1.8206563999999998,-1
156,157,1583551773302,-0.50589997,0.3497,-0.0674,8.981417,1.9159935000000001,-1.7397418000000002,-1
157,158,1583551773311,-0.5615,0.41799998,-0.038399998,9.0472,1.8987073,-1.7629848000000001,-1
158,159,1583551773324,-0.32389998,0.2893,-0.24229999,9.27983,1.7922898999999997,-1.9928664,-1
159,160,1583551773334,0.0504,0.26549998,-0.4727,9.747877,1.7877121999999999,-2.2251234,-1
160,161,1583551773344,0.39499998,0.2453,-0.63299996,10.184196,1.6820511999999999,-2.5001404,-1
161,162,1583551773354,0.6706,0.1559,-0.80619997,10.242165,1.6480726000000003,-2.64973,-1
162,163,1583551773364,0.69089997,0.1413,-0.9062,10.209384,1.6853455000000002,-2.6002370999999997,-1
163,164,1583551773375,0.66179997,0.2003,-0.84529996,10.240787,1.7692959,-2.5730486,-1
164,165,1583551773385,0.7014,0.2848,-0.82729995,10.25563,1.8549796000000003,-2.5501697,-1
165,166,1583551773395,0.6723,0.3568,-0.8211,10.046644,1.8192006,-2.6612127,-1
166,167,1583551773405,0.4376,0.2695,-0.9525,9.783475,1.6992129,-2.7601795,-1
167,168,1583551773415,0.2131,0.16059999,-1.0149,9.782152,1.5887156,-2.5899994,-1
168,169,1583551773426,0.2735,0.031799997999999996,-0.7909999999999999,10.079178,1.5620251,-2.2334263,-1
169,170,1583551773436,0.59959996,0.0202,-0.4052,10.3610325,1.6090089,-1.8659642,-1
170,171,1583551773446,0.85819995,0.055099998,-0.0836,10.40521,1.7427298999999998,-1.8656577,-1
171,172,1583551773456,0.87299997,0.1551,-0.111499995,10.264603999999999,1.8735298999999999,-2.24851,-1
172,173,1583551773466,0.73149997,0.27179998,-0.4822,10.03725,1.9583517,-2.667514,-1
173,174,1583551773477,0.52059996,0.3383,-0.89739996,9.863728,1.9562351999999998,-2.628412,-1
174,175,1583551773486,0.33769998,0.31739998,-0.85889995,9.690541,1.8969164,-2.361382,-1
175,176,1583551773496,0.1724,0.2399,-0.6037,9.625053999999999,1.8849453999999999,-1.9846592,-1
176,177,1583551773506,0.113199994,0.20549999,-0.24749999,9.719559,1.9266619999999999,-1.7541069999999999,-1
177,178,1583551773516,0.19929999,0.2447,-0.0336,9.865883,1.9375892,-1.802087,-1
178,179,1583551773527,0.3723,0.2593,-0.1265,9.978497,1.926595,-1.8553529999999998,-1
179,180,1583551773537,0.4464,0.2376,-0.1832,9.926131,1.8145751,-1.8554009999999999,-1
180,181,1583551773547,0.3927,0.1182,-0.21139999,9.745894,1.6964642,-2.0741642,-1
181,182,1583551773557,0.21159999,-0.0016,-0.4567,9.594600999999999,1.5439537,-2.306823,-1
182,183,1583551773567,0.0501,-0.1521,-0.7231,9.587438,1.4700303,-2.3784094,-1
183,184,1583551773577,0.2374,-0.1902,-0.8366,9.817214,1.5568248,-2.3249998,-1
184,185,1583551773588,0.3418,0.0077,-0.7406,9.901422,1.7802707999999998,-2.1821806,-1
185,186,1583551773598,0.3418,0.0077,-0.7406,9.805577,1.9041182,-1.8878279999999998,-1
186,187,1583551773608,-0.1015,0.1043,-0.0458,9.381373,1.8376168000000002,-1.472051,-1
187,188,1583551773618,-0.3083,-0.0009999999,0.2314,9.230586,1.7549211999999998,-1.0973966999999998,-1
188,189,1583551773628,-0.3083,-0.0009999999,0.2314,9.135441,1.704662,-0.8354423000000001,-1
189,190,1583551773638,-0.5898,-0.2471,0.7249,8.934433,1.4945852,-0.57838166,-1
190,191,1583551773648,-0.5898,-0.2471,0.7249,8.864082000000002,1.4226825,-0.61908305,-1
191,192,1583551773659,-0.7036,-0.36679998,0.6688,9.060042,1.4210161000000001,-1.1180156,-1
192,193,1583551773669,-0.2262,-0.3293,-0.25329998,9.441516,1.4665347,-1.537566,-1
193,194,1583551773679,0.073,-0.26819998,-0.56369996,9.70255,1.5242828000000002,-1.7244095000000002,-1
194,195,1583551773689,0.0806,-0.2447,-0.5024,9.591161999999999,1.5140643999999999,-1.528219,-1
195,196,1583551773700,-0.1539,-0.3487,-0.1977,9.318377,1.4443262,-1.0880785,-1
196,197,1583551773709,-0.47489998,-0.35119998,0.42639998,9.049977,1.4872493999999998,-0.5387816,-1
197,198,1583551773719,-0.7952,-0.2872,1.0818,8.720477,1.5879111000000001,0.11450031,-1
198,199,1583551773729,-1.0670998999999999,-0.1414,1.4520998999999999,8.454118,1.7449611,0.4032602,-1
199,200,1583551773739,-1.2332,-0.1344,1.337,8.353351,1.7483323,0.26221300000000003,-1
200,201,1583551773749,-1.2332,-0.1344,1.337,8.471826,1.7948276,0.114394955,-1
201,202,1583551773760,-0.8842,-0.0686,1.079,8.760575,1.7931901000000001,0.043335054000000005,-1
202,203,1583551773769,-0.5854,-0.1812,0.73319995,9.085075999999999,1.6648896,-0.36343023,-1
203,204,1583551773779,-0.22839999,-0.23099999,0.0843,9.418866,1.6085969999999998,-1.0395145000000001,-1
204,205,1583551773789,0.010799999,-0.2321,-0.6155,9.650079,1.5906502,-1.6599287,-1
205,206,1583551773799,0.1727,-0.22919999,-0.9353,9.801556,1.5772617,-1.8204744,-1
206,207,1583551773810,0.21869999,-0.22549999,-0.6655,9.819473,1.5968271,-1.2890574,-1
207,208,1583551773820,0.2084,-0.1832,0.0802,9.752445,1.613759,-0.49645209999999995,-1
208,209,1583551773830,-0.0545,-0.2574,0.7051,9.34728,1.5472097,-0.04984728,-1
209,210,1583551773840,-0.4926,-0.3065,0.8854,8.99015,1.5477843,0.09306741,-1
210,211,1583551773851,-0.7443,-0.3533,0.89409995,8.801009,1.5053208,-0.014901511000000001,-1
211,212,1583551773861,-0.7518,-0.384,0.7481,8.946777,1.5207298999999999,-0.1969566,-1
212,213,1583551773871,-0.3884,-0.2888,0.5426,9.415677,1.658655,-0.40253234,-1
213,214,1583551773881,0.0909,-0.1481,0.2434,9.807952,1.7689415000000002,-0.7824346999999999,-1
214,215,1583551773891,0.2853,-0.0848,-0.1784,9.905761,1.7718816000000002,-1.1982021,d
215,216,1583551773901,0.29389998,-0.112399995,-0.4242,9.899736,1.7002758999999998,-1.2932999,-1
216,217,1583551773912,0.32259998,-0.21149999,-0.43449998,9.957733000000001,1.6315527,-1.1989875,-1
217,218,1583551773922,0.4012,-0.3042,-0.2762,10.038524,1.5632126,-0.96606994,-1
218,219,1583551773932,0.461,-0.2925,-0.1064,10.109449,1.6919537,-0.9318233,-1
219,220,1583551773942,0.5118,-0.1081,-0.0736,10.081964,1.9920142,-0.81784016,-1
220,221,1583551773952,0.5144,0.2192,0.17459999,10.037202,2.3292994,-0.30207166,-1
221,222,1583551773962,0.30179998,0.48479998,0.67689997,9.711007,2.4478605,0.019220652,-1
222,223,1583551773973,-0.1757,0.4754,0.8129,9.1751175,2.3765897999999996,-0.029132647,-1
223,224,1583551773983,-0.49749997,0.37309998,0.6321,9.069916000000001,2.322299,-0.2686486,-1
224,225,1583551773993,-0.50769997,0.32979998,0.39159998,9.177512,2.2985008,-0.6186713,-1
225,226,1583551774003,-0.3139,0.3067,-0.102199994,9.487789999999999,2.2064006000000003,-1.2420926,-1
226,227,1583551774013,0.1038,0.1837,-0.73319995,9.989443,2.0741258,-1.6455540000000002,-1
227,228,1583551774023,0.6191,0.083299994,-1.0108,10.541143,1.9461700000000002,-1.7461008000000002,-1
228,229,1583551774033,1.0965999,0.0064,-0.95339996,10.829606,1.8597298,-1.3605386,-1
229,230,1583551774044,1.2045,-0.074499995,-0.597,10.603632000000001,1.8154273999999997,-1.0763563999999999,-1
230,231,1583551774054,0.7869,-0.12419999400000001,-0.2636,9.812558000000001,1.8665580000000002,-0.65615493,-1
231,232,1583551774064,0.0884,-0.1104,0.1445,9.120941,1.9696618000000001,-0.23569479999999998,-1
232,233,1583551774074,-0.608,-0.025799999,0.55509996,8.537771000000001,2.1732167999999996,0.13017754,-1
233,234,1583551774084,-1.1279,0.1372,0.8962,8.052093,2.3951882999999996,0.34497574,-1
234,235,1583551774094,-1.6292,0.32549998,1.0501,7.543756,2.4859953,0.17551415,-1
235,236,1583551774104,-2.2113,0.34719998,0.71099997,7.2420100000000005,2.4186897000000003,-0.40170875,-1
236,237,1583551774114,-2.2572,0.2748,0.261,7.469392299999999,2.4019015,-0.639951,-1
237,238,1583551774124,-1.9824,0.2047,-0.0341,7.511425,2.1384149,-1.4072063999999997,-1
238,239,1583551774134,-2.0913,-0.0953,-0.9101,7.3310075,1.6864276999999999,-2.3569193,-1
239,240,1583551774144,-2.2391,-0.536,-1.7499,7.318586,1.3732469999999999,-2.7067982999999995,-1
240,241,1583551774154,-2.2273,-0.8506,-1.9714999,7.1347303,1.3447465,-2.0659566000000003,-1
241,242,1583551774165,-2.5342999,-0.80429995,-1.0761,5.9786377,1.6515968999999997,-0.41781694,-1
242,243,1583551774175,-3.9329,-0.541,0.6739,3.6930466,1.9678327000000002,1.4578485,-1
243,244,1583551774185,-6.3359,-0.27989998,2.4621,1.0322936,2.3420656,2.7256935,-1
244,245,1583551774195,-8.993,-0.0109,3.5003,-1.434663,2.66014,2.8974245,-1
245,246,1583551774205,-11.2829,0.2597,3.5003,-3.2242522,3.3294725,2.3895473,-1
246,247,1583551774216,-12.681,0.8236,3.0070999,-3.451031,3.8826002999999996,1.5058091999999998,-1
247,248,1583551774226,-12.9148,1.4045999,2.0853,-2.8072493,4.002559,0.5890215,-1
248,249,1583551774236,-12.0313,1.5957999,0.898,-1.3187263,3.8028543,-0.47536394,-1
249,250,1583551774247,-10.820499,1.4830999,0.0541,-0.349745,3.3260730000000005,-0.78040445,-1
250,251,1583551774257,-9.8961,1.1541,-0.2795,0.13076171,2.4687765,-0.5156153,-1
251,252,1583551774267,-9.4487,0.35189998,-0.0050999997,-0.40475416,2.2443054,0.32310229999999995,-1
252,253,1583551774277,-11.9135,0.151,1.8835,-2.7895226,2.0436044,1.5682021000000002,-1
253,254,1583551774287,-11.9135,0.151,1.8835,-4.652585,1.8080245,2.1391044,-1
254,255,1583551774298,-15.969999,-0.39859998,2.6568,-6.5007553,1.2444487,2.0783587,-1
255,256,1583551774308,-15.9112,-0.9816,2.3172,-5.9767895,0.46545196,1.7606002,-1
256,257,1583551774318,-13.9272995,-1.6192,1.9059,-3.7147476999999998,-0.476178,1.390878,-1
257,258,1583551774329,-11.2276,-2.2375998,1.4632,-0.9766235999999999,-1.3041121,1.0298227,-1
258,259,1583551774339,-9.1486,-2.6288,1.53,0.8803001,-1.9915066000000003,1.1707455,-1
259,260,1583551774349,-8.5791,-3.1517,1.5913999,1.1080364999999999,-2.840232,1.1583722,-1
260,261,1583551774359,-9.7645,-3.7292,1.4144,-0.30474356,-3.6742472999999998,0.93248415,-1
261,262,1583551774369,-11.1676,-4.6138,1.2945,-1.5499486999999998,-5.001037,0.8515984000000001,-1
262,263,1583551774379,-11.298699000000001,-5.9772997000000005,1.3141999,-1.2397081,-6.618627,0.835902,-1
263,264,1583551774390,-8.8706,-6.8889,1.3211,2.4768782000000003,-7.9957139999999995,0.8680609,-1
264,265,1583551774400,-5.0248,-7.3357,1.1429,6.1029349999999996,-8.636949000000001,0.50857633,-1
265,266,1583551774410,-0.96339995,-7.8184,-0.0547,9.586508,-9.579048,-0.9517909,-1
266,267,1583551774420,1.1642,-8.4831,-1.4807999,11.041033,-10.769119,-2.199266,-1
267,268,1583551774430,1.3925999,-9.091599,-1.5739,10.615239,-11.665308,-1.6393961,-1
268,269,1583551774441,0.5825,-9.5899,-0.24769999,9.820872,-12.498519,-0.22968055,-1
269,270,1583551774451,0.805,-10.0373,0.7809,10.871495,-13.19411,0.29612446,-1
270,271,1583551774461,3.2531,-10.0521,0.5628,13.811938,-13.39145,-0.19913054,-1
271,272,1583551774471,6.8335,-9.713799,-0.26749998,17.12336,-13.497034,-0.98408395,-1
272,273,1583551774481,9.5317,-9.544499,-1.0069,19.064922,-13.927531,-1.4215333,-1
273,274,1583551774491,10.3757,-9.6858,-1.0145998999999999,18.938710999999998,-14.399878,-0.9960741,-1
274,275,1583551774501,9.827,-10.0112,-0.3281,17.961933,-15.059384,-0.38350323,-1
275,276,1583551774512,9.1782,-10.123,-0.1028,17.581303,-15.265651,-0.41210917,-1
276,277,1583551774522,10.002,-9.8425,-0.5369,19.196392000000003,-14.913847,-1.284269,-1
277,278,1583551774532,11.840099,-9.016399,-1.6980000000000002,20.7715,-14.423667000000002,-2.803007,-1
278,279,1583551774542,13.462,-8.4147,-3.3095999,21.94144,-14.158695999999999,-3.9032383000000004,-1
279,280,1583551774552,14.426499,-7.8809,-3.827,21.863360999999998,-13.772022,-3.478076,-1
280,281,1583551774562,13.8699,-7.3055,-2.9945998,20.321026,-13.311475,-2.2689946,-1
281,282,1583551774572,12.0529995,-6.6298,-1.6335,18.239603,-12.7954,-0.9869187,-1
282,283,1583551774582,10.2786,-5.9679,-0.69089997,16.869066,-12.044703,-0.42106348,-1
283,284,1583551774592,9.3608,-4.9543,-0.32619998,16.165947,-11.081351,-0.0007086837400000001,-1
284,285,1583551774602,8.8323,-3.9678,0.0244,15.596691,-10.388919999999999,0.29083803,-1
285,286,1583551774612,8.4081,-3.2930998999999996,0.08249999599999999,15.145337,-9.906775,0.38340747,-1
286,287,1583551774622,8.124499,-2.7947,0.0831,14.890679,-9.565994,0.2031145,-1
287,288,1583551774632,8.0062,-2.3483,-0.2836,14.697985999999998,-9.103779,0.013053186999999999,-1
288,289,1583551774642,7.7648997,-1.8187,-0.32909998,14.146379000000001,-8.786873,0.16135004,-1
289,290,1583551774653,7.0456996,-1.5498999,-0.23339999,13.116739,-8.518512,-0.0061770407,-1
290,291,1583551774662,5.9385,-1.1974,-0.5671,11.901672999999999,-8.117464,-0.45735,-1
291,292,1583551774672,4.8122997000000005,-0.7653,-0.9111,10.9875765,-7.7104306,-0.58309346,-1
292,293,1583551774683,4.0666,-0.3452,-0.8372,10.363694,-7.446341,-0.36875495,-1
293,294,1583551774693,3.5876,-0.2668,-0.69659996,10.14992,-7.5682535,-0.38267004,-1
294,295,1583551774703,3.6107,-0.3827,-0.75909996,10.402261,-7.644887,-0.36613090000000004,-1
295,296,1583551774713,3.8779,-0.32279998,-0.67579997,10.361664,-7.5501533,-0.4493246,-1
296,297,1583551774723,3.6188998,-0.20979999,-0.8236,9.790111999999999,-7.4463696,-0.58764243,-1
297,298,1583551774733,2.9096,-0.0659,-0.80619997,8.97705,-7.2004466,-0.3390477,-1
298,299,1583551774743,2.0863,0.1507,-0.44,8.164285000000001,-7.222071000000001,0.10485646,-1
299,300,1583551774754,1.3498,0.0324,-0.0219,7.669222,-7.261336,0.58247095,-1
300,301,1583551774764,1.0670998999999999,0.053299997,0.36659998,7.4986205,-7.233237700000001,0.82531005,-1
301,302,1583551774774,0.89699996,0.029099998999999998,0.5377,7.345611999999999,-7.368213000000001,0.8929988999999999,-1
302,303,1583551774784,0.7989,-0.110199995,0.5431,7.4173803,-7.3512526,0.8032834,-1
303,304,1583551774794,0.90819997,0.0064999997,0.4281,7.448715700000001,-7.190525,0.5725207,-1
304,305,1583551774804,0.9183,0.1516,0.1389,7.461788,-7.193092,0.32996887,-1
305,306,1583551774815,0.94479996,0.1371,-0.1153,7.476967299999999,-7.2751074000000004,0.2849483,-1
306,307,1583551774825,0.9465,0.059499998,-0.0583,7.176188499999999,-7.2296944000000005,0.7437923000000001,d
307,308,1583551774835,0.5287,0.1129,0.4285,6.4848967,-7.134865,1.1252652,-1
308,309,1583551774845,-0.17989999,0.20979999,0.75329995,5.9050970000000005,-6.998328,1.2606046,-1
309,310,1583551774855,-0.7223,0.3454,0.8519,5.662172,-6.867882300000001,1.0457969,-1
310,311,1583551774865,-0.8876,0.45549998,0.5065,5.8734459999999995,-6.760603,0.41887036,-1
311,312,1583551774875,-0.5851,0.5423,-0.113199994,6.384503,-6.8609295,-0.05717354,-1
312,313,1583551774886,-0.0517,0.37919998,-0.4824,6.9006543,-7.1238036,0.024602817000000003,-1
313,314,1583551774896,0.42369998,0.1389,-0.28489998,7.0903993000000005,-7.3962636,0.7091050999999999,-1
314,315,1583551774906,0.5336,-0.1331,0.50339997,6.9346614,-7.5882309999999995,1.3973520000000001,-1
315,316,1583551774916,0.30609998,-0.3013,1.0861,6.384062,-7.5143266,1.6394726000000002,-1
316,317,1583551774926,-0.16759999,-0.2069,1.2355,5.985849,-7.552739,1.1442656999999998,-1
317,318,1583551774936,-0.5591,-0.2478,0.7035,6.2358418,-7.781088400000001,0.36115098,-1
318,319,1583551774946,-0.30429998,-0.4687,-0.1433,7.0886854999999995,-7.9012394,0.019910181000000002,-1
319,320,1583551774957,0.56479996,-0.5861,-0.54539996,7.9168970000000005,-8.053452499999999,-0.27489266,-1
320,321,1583551774967,1.4029,-0.7236,-0.85969996,8.430367,-8.116153,-0.34665167,-1
321,322,1583551774977,1.9269999,-0.78959996,-0.95309997,8.292365,-8.017645,-0.018195933,-1
322,323,1583551774987,1.7699,-0.6999,-0.6037,7.6130443,-8.096491,0.6201749,-1
323,324,1583551774998,0.45099998,-0.973,0.8092,6.946326299999999,-8.291216,1.5376999,-1
324,325,1583551775008,0.36589998,-1.1852,1.1667,7.0051947,-8.501992,1.7622282999999999,-1
325,326,1583551775018,1.0195,-1.4864,0.8181,7.8261375,-8.78491,1.3694833999999998,-1
326,327,1583551775028,2.3595998,-1.5353,0.1778,9.2195635,-8.779786999999999,0.7307774,-1
327,328,1583551775038,3.8179,-1.4663,-0.7818,10.659915,-8.720889999999999,-0.22036232,-1
328,329,1583551775048,5.0976996,-1.4056,-1.4727,11.863126,-8.651793,-0.74320805,-1
329,330,1583551775059,5.7591996,-1.4478999,-1.4225,12.396199000000001,-8.711102,-0.5383793,-1
330,331,1583551775069,5.625,-1.7421,-0.68939996,12.178758,-9.037738000000001,0.28303295,-1
331,332,1583551775079,5.1835,-2.4213998,0.23339999,11.847171000000001,-9.799199,1.3123003,-1
332,333,1583551775089,5.3401,-2.9765,1.0087,12.269738,-10.108089,1.8334988,-1
333,334,1583551775099,6.5246997,-3.0570998,1.0762,13.964707999999998,-10.041895,1.603847,-1
334,335,1583551775110,8.0387,-3.0181,0.255,15.481129000000001,-10.035833,0.6712001,-1
335,336,1583551775120,9.3624,-3.2101998,-0.6692,16.489279,-10.177655,0.055037912,-1
336,337,1583551775131,10.2597,-3.5044,-1.1661,17.443962,-10.481652,-0.31002995,-1
337,338,1583551775141,10.4678,-3.8395998,-1.1381,17.48245,-10.762262,-0.119786695,-1
338,339,1583551775151,10.1418,-4.3177,-0.5869,17.12744,-11.088285,0.6793308000000001,-1
339,340,1583551775161,9.4718,-4.6928997,0.44149998,16.51799,-11.278376,1.6828365,-1
340,341,1583551775172,8.7002,-4.9224997,1.2457,16.014651999999998,-11.231766,2.1830428,-1
341,342,1583551775182,7.9312,-4.7482,1.6096,15.073281,-10.665824,2.3553102000000004,-1
342,343,1583551775192,7.0217,-4.4711,1.4717,14.284803,-10.127962,2.251239,-1
343,344,1583551775202,6.0913997,-4.0794,1.5259,13.675872,-9.475867,2.3789363,-1
344,345,1583551775212,5.4361997,-3.6301,1.5913999,13.234323499999999,-8.723321,2.4587014,-1
345,346,1583551775223,4.8417997,-3.1022,1.8377,12.802927,-8.028439,2.8308084,-1
346,347,1583551775233,4.308799700000001,-2.682,2.1008,12.412997,-7.451215299999999,2.755573,-1
347,348,1583551775243,3.7101,-2.3885,1.9469999,11.879789,-6.985715400000001,2.6300116,-1
348,349,1583551775253,2.9306,-2.372,1.9981999,11.273117999999998,-6.6727743,2.6223497000000004,-1
349,350,1583551775263,2.1903,-2.3195999,2.0681998999999998,10.513447,-6.7775636,2.5928152,-1
350,351,1583551775273,1.3254,-2.98,2.3249,10.113778,-7.4134636,3.1329757999999996,-1
351,352,1583551775284,1.0097,-3.7333998999999998,3.2480998,9.706994,-7.5120664,3.7930187999999996,-1
352,353,1583551775294,0.35200000000000004,-3.9875998,3.8456998,8.62492,-7.280882400000001,3.708762,-1
353,354,1583551775304,-0.93189996,-4.0171,3.8474998,7.260263,-6.708725500000001,3.2908779999999997,-1
354,355,1583551775314,-2.3899,-3.6471,3.5521998,6.194566,-5.726088,2.8385463,-1
355,356,1583551775324,-3.4313,-2.9338999,3.2312,5.5364575,-4.6827807,2.3437414,-1
356,357,1583551775335,-4.0754,-2.2013,2.7626,5.16889,-3.8096343999999998,1.4955237,-1
357,358,1583551775345,-4.4705,-1.6014,1.9746,5.041557,-3.0120014999999998,0.76440156,-1
358,359,1583551775355,-4.5694,-1.046,1.3786,5.212627400000001,-2.2573397,0.17774554,-1
359,360,1583551775365,-4.3932,-0.4987,0.8674,5.3473444,-1.5217258,-0.5316755999999999,-1
360,361,1583551775375,-4.3259,-0.100499995,0.40359998,5.473576,-1.4757189,-0.71834666,-1
361,362,1583551775386,-4.1726,-0.2679,0.3439,5.5864005,-1.6598808999999997,-0.43181822,-1
362,363,1583551775396,-4.1109,-0.6441,0.78499997,5.385316400000001,-2.0974739,-0.12814724,-1
363,364,1583551775406,-4.3097,-1.1935999,1.1445,4.838787,-2.2322292,-0.22924002,-1
364,365,1583551775416,-4.8496,-1.4969999999999999,1.1457,3.899235,-2.191815,-0.5020354,-1
365,366,1583551775426,-5.7911,-1.6116999,0.94589996,3.2479837000000003,-1.8536484,-0.8163557,-1
366,367,1583551775437,-6.4389,-1.4341999,0.6709999999999999,3.1525314,-1.3782749,-1.1474068000000002,-1
367,368,1583551775447,-6.5277,-0.9575,0.297,3.5004377,-0.5660755000000001,-1.0238756,-1
368,369,1583551775457,-6.1942,-0.41349998,0.5205,3.7293425000000004,-0.0066463040000000004,-0.53232676,-1
369,370,1583551775467,-5.9656,0.0053999997,1.0368,3.586265,-0.10414778,-0.6350380999999999,-1
370,371,1583551775477,-6.0992,-0.14899999,0.9501,3.6848106,-0.6162867,-1.0184742,-1
371,372,1583551775487,-5.9925,-0.7517,0.6148,4.3636527,-1.3541604999999999,-1.5094675,-1
372,373,1583551775497,-4.5306,-2.0103,-0.6393,5.262676,-1.730347,-2.449479,-1
373,374,1583551775508,-3.9259,-1.8506,-0.43109998,5.7789135,-1.3683724,-2.0197198,-1
374,375,1583551775518,-3.9259,-1.8506,-0.43109998,5.574113400000001,-0.63070935,-1.4300950000000001,-1
375,376,1583551775528,-5.1479,-0.77629995,0.501,4.1238684999999995,-0.08712979400000001,-1.1427428999999998,-1
376,377,1583551775539,-6.2746,-0.46499997,0.84419996,3.2141201,0.26603413,-0.76411426,-1
377,378,1583551775549,-6.8206997000000005,-0.38169998,1.0925,2.8154470000000003,0.36294183,-0.6132508000000001,-1
378,379,1583551775559,-6.3648,-0.48459998,0.80149996,3.4956589,0.31060457,-0.99366075,-1
379,380,1583551775569,-5.0066,-0.5361,0.1519,4.9457984,0.26441565,-1.7132716000000001,-1
380,381,1583551775579,-3.4433,-0.715,-0.5324,6.782371,0.04633259,-2.3729412999999995,-1
381,382,1583551775589,-2.1060998,-0.7755,-0.6409999999999999,7.705116,0.076451644,-2.3208146000000003,-1
382,383,1583551775600,-1.495,-0.6734,-0.1899,8.142373,0.21756591,-1.8573738000000002,-1
383,384,1583551775610,-1.8939999,-0.4635,0.0841,7.3088755999999995,0.5095723,-1.6224738,-1
384,385,1583551775620,-2.9982998,-0.3365,0.2861,6.207648000000001,0.57846785,-1.3440857,-1
385,386,1583551775630,-3.9050998999999997,-0.4265,0.5225,5.465186599999999,0.54201853,-1.1933850000000001,-1
386,387,1583551775640,-4.2339997,-0.43359998,0.5173,5.506616,0.6289089,-1.2990268,-1
387,388,1583551775650,-3.7026,-0.3005,0.4213,6.067836,0.7381898,-1.3276423000000002,-1
388,389,1583551775660,-2.8411,-0.15529999,0.38819999,6.909636999999999,0.8941193999999999,-1.4191871,-1
389,390,1583551775671,-2.276,-0.17300000000000001,-0.1788,7.498208999999999,0.72709036,-2.2316162999999998,-1
390,391,1583551775681,-1.7902,-0.3515,-0.89479995,8.140611999999999,0.6177615,-2.7702253,-1
391,392,1583551775691,-1.0389,-0.3155,-1.1365,8.799849499999999,0.64649194,-2.9111004,-1
392,393,1583551775701,-0.5696,-0.2692,-1.3124,9.125059,0.6989633000000001,-3.0927916,-1
393,394,1583551775711,-0.46989998,-0.1498,-1.3318,9.062456,0.8164994000000001,-3.05028,-1
394,395,1583551775721,-0.7597,-0.085099995,-1.1084,8.6334915,0.85409796,-2.6421259999999998,-1
395,396,1583551775731,-1.2831,-0.1396,-0.5194,8.148234,0.7755681,-2.0409803,-1
396,397,1583551775742,-1.6003,-0.23619999,0.1961,7.936999,0.7773111,-1.2381661,-1
397,398,1583551775752,-1.6919,-0.1848,0.6863,7.8800173,0.9024511999999999,-1.1654495,-1
398,399,1583551775762,-1.7088,-0.1064,0.5187,7.9537106,0.9865835,-1.5522183999999999,-1
399,400,1583551775772,-1.5602,0.0,0.1629,8.169974,1.1220953000000002,-1.861329,-1
400,401,1583551775782,-1.3047999,0.1453,-0.134,8.422897,1.1619061000000002,-2.1257062,-1
401,402,1583551775793,-1.0589,0.0897,-0.38779998,8.679221,0.99881303,-2.4392892999999995,-1
402,403,1583551775803,-0.7924,-0.0727,-0.71459997,9.056652,0.8536190999999999,-2.7536192,-1
403,404,1583551775813,-0.3389,-0.1603,-0.9321,9.498947,0.9124207000000001,-2.8000765,-1
404,405,1583551775823,0.0665,0.0011,-0.8244,9.767433,1.0410851,-2.4642751,-1
405,406,1583551775833,0.22729999,0.106199995,-0.2864,9.757914,1.1373607,-1.9177939,-1
406,407,1583551775843,-0.0037,0.2342,0.35779998,9.228411999999999,1.30846,-1.4987416,-1
407,408,1583551775854,-0.58779997,0.331,0.37359998,8.602406,1.4358506000000002,-1.8658589,d
408,409,1583551775864,-1.0157,0.452,0.014699998999999998,8.4833555,1.5080788999999999,-2.1056812000000003,-1
409,410,1583551775874,-1.0722,0.50409997,-0.12879999,8.651371000000001,1.4023701000000002,-2.23176,-1
410,411,1583551775884,-0.8447,0.37939999,-0.27969998,9.136494,1.2080758999999999,-2.6017215,-1
411,412,1583551775894,-0.35279998,0.2234,-0.6448,9.834577000000001,0.93444735,-3.2428024,-1
412,413,1583551775905,0.44299999999999995,-0.115899995,-1.3716999,10.738886,0.675184,-3.8349748,-1
413,414,1583551775916,1.3472998999999999,-0.2455,-1.7756,11.335778999999999,0.8732707000000001,-3.4571123,-1
414,415,1583551775926,1.7713,0.0122,-1.2439,10.5882225,1.2447933,-2.5356127999999996,-1
415,416,1583551775936,1.0372,0.2911,-0.46949998,9.248361000000001,1.3809563999999999,-1.6778468999999998,-1
416,417,1583551775946,-0.3058,0.4118,0.3735,8.437358999999999,1.4977072,-1.2711295,-1
417,418,1583551775956,-1.1107,0.50699997,0.77099997,8.434687,1.5053591999999998,-1.6829034999999999,-1
418,419,1583551775966,-1.1223,0.5128,0.3489,9.235211999999999,1.2452531,-2.4556656,-1
419,420,1583551775976,-0.3189,0.2649,-0.4312,10.316749,0.7852406999999999,-3.8836155,-1
420,421,1583551775987,0.76089996,-0.1646,-1.8326999,11.296802,0.32812053,-5.358329,-1
421,422,1583551775997,1.7444998999999999,-0.5827,-3.2751,11.791596,0.09537542,-6.478729,-1
422,423,1583551776008,2.1984,-0.7912,-5.0545,11.6818075,0.13614389999999998,-7.196472,-1
423,424,1583551776018,1.7457999,-0.5661,-4.343899700000001,11.121652000000001,0.42890686,-6.2532144,-1
424,425,1583551776028,0.775,-0.4129,-3.1174,10.069371,0.57710797,-5.147208,-1
425,426,1583551776039,-0.26389998,-0.6897,-2.7569999999999997,9.09089,0.24529076,-5.0774508,-1
426,427,1583551776049,-0.26389998,-0.6897,-2.7569999999999997,8.844985000000001,-0.19372922,-6.04467,-1
427,428,1583551776060,0.094,-1.5452,-5.2043,9.955617,-0.45355755,-7.958853200000001,-1
428,429,1583551776070,0.89019996,-1.5667,-6.4670000000000005,10.5304365,-0.44675803,-9.159794,-1
429,430,1583551776080,1.0436,-1.6021999,-7.5053,10.489476,-0.49185523,-9.874885,-1
430,431,1583551776090,0.5725,-1.5747,-8.2521,9.830976,-0.407541,-10.598289,-1
431,432,1583551776101,-0.0501,-1.5696,-8.547,9.35587,-0.42684788,-10.576203999999999,-1
432,433,1583551776111,-0.6131,-1.7078999,-8.0963,8.681567,-0.5622735,-9.837276,-1
433,434,1583551776121,-1.2692,-1.8915999,-7.5281,8.0157585,-0.66103905,-9.074781,-1
434,435,1583551776131,-1.9188,-2.0101,-6.5681,7.516261,-0.66893035,-8.227903999999999,-1
435,436,1583551776141,-2.4257,-1.8414999,-5.8644,6.8036985,-0.10744219,-7.5885277,-1
436,437,1583551776151,-2.9603,-1.3094,-5.8808,6.3597755,0.4794916,-7.713897,-1
437,438,1583551776161,-3.4664,-0.6148,-6.1275,5.913774,1.2529143999999999,-8.021878,-1
438,439,1583551776172,-3.8665,-0.0392,-6.5365,5.4021615999999995,1.7289296000000003,-8.4174,-1
439,440,1583551776182,-4.2583,0.0363,-6.8013997,5.07815,1.5465681999999998,-8.055646000000001,-1
440,441,1583551776192,-4.5838,-0.42769998,-6.0334997,4.724124,0.8864675,-7.010758999999999,-1
441,442,1583551776202,-4.8827,-1.1372,-5.138,4.7208676,0.34367329999999996,-6.0416527,-1
442,443,1583551776212,-4.7644,-1.5108,-4.1040998,4.7990527,0.23306118,-4.8998870000000005,-1
443,444,1583551776222,-4.8272,-1.6269999999999998,-3.3574,4.756723,0.035280958,-4.536476,-1
444,445,1583551776233,-4.7746997,-1.7730999,-3.165,4.899724,0.053745043,-3.9342002999999997,-1
445,446,1583551776243,-4.692199700000001,-1.7475,-2.5219998,4.8595114,-0.08855673,-2.9114258,-1
446,447,1583551776253,-4.8577,-1.9727,-1.2386,4.470386,-0.4535767,-0.819564,-1
447,448,1583551776263,-5.4228997,-2.3718,0.97489995,3.8247852,-0.8033983,1.3473992,-1
448,449,1583551776273,-6.0498,-2.6292999,3.0498,3.305607,-0.986526,3.5657802000000003,-1
449,450,1583551776284,-6.4034,-2.6766999,4.8754,3.2257655,-0.89999956,4.912710700000001,-1
450,451,1583551776294,-6.3185,-2.5254,5.8020000000000005,3.6815927000000004,-0.8254824000000001,5.5612803,-1
451,452,1583551776304,-5.9226,-2.4294,6.1145997,3.8414297,-1.0102094000000001,5.8013234,-1
452,453,1583551776314,-5.861799700000001,-2.6476998,6.3027997000000004,3.7555447,-1.8653513,6.590729700000001,-1
453,454,1583551776324,-5.9096,-3.4994,7.2662997,4.0996876,-2.691801,8.700874,-1
454,455,1583551776334,-5.5257998,-4.0951,9.444099000000001,4.5956507,-2.8749766,10.709858,-1
455,456,1583551776345,-5.0432,-4.0531,11.149099,5.055184400000001,-2.8466964,11.467842999999998,-1
456,457,1583551776355,-4.5987,-3.8753,11.6642,5.4509077,-2.6499505,12.06376,-1
457,458,1583551776365,-4.2701,-3.5533,12.272599000000001,5.689935,-2.7776859,12.92029,-1
458,459,1583551776375,-4.0571,-3.6571998999999997,13.055099499999999,5.8186574,-3.4421440000000003,13.840822,-1
459,460,1583551776385,-3.9501,-4.2458,13.9347,5.981118,-4.2150492999999996,14.261656,-1
460,461,1583551776395,-3.7626998,-4.8072,14.1112995,6.570695,-4.5378739999999995,13.566706,-1
461,462,1583551776405,-2.9847,-4.811899700000001,13.256499,8.246042,-3.8296212999999995,12.967369999999999,-1
462,463,1583551776416,-1.5663999,-3.9787998,12.8064995,8.975384,-3.3883126000000003,13.248631,-1
463,464,1583551776426,-0.7726,-3.3364,13.155999999999999,9.105483999999999,-3.3371246,14.257710999999999,-1
464,465,1583551776436,-0.7118,-3.1764997999999998,14.0116,8.871791,-3.4308910000000004,15.055947,-1
465,466,1583551776446,-1.0024998999999999,-3.1832,14.9543,8.584438,-3.6880667000000003,15.509667000000002,-1
466,467,1583551776456,-1.3706,-3.4994,15.114699,8.312324,-4.6723995,14.140548,-1
467,468,1583551776467,-1.4923999,-4.1001,13.939898999999999,8.786375,-5.296769,12.169813000000001,-1
468,469,1583551776477,-1.004,-4.5962996,12.040999000000001,9.836845,-5.524055000000001,10.904852,-1
469,470,1583551776487,0.0563,-4.6644998,10.8489,10.903203999999999,-5.4745145,10.280903,-1
470,471,1583551776497,1.6746999,-3.8913,9.9618,11.413361,-4.9423885,9.877222,-1
471,472,1583551776508,1.4268999,-3.4320998,9.4537,11.062687,-4.717937,9.241838000000001,-1
472,473,1583551776518,1.0722,-3.3334,8.2619,10.743136999999999,-4.765323,7.842629,-1
473,474,1583551776528,1.0629,-3.3923,6.631,10.788474,-5.039028,6.1423726,-1
474,475,1583551776538,1.3125,-4.0833,5.0821,11.060657,-5.9401584000000005,4.484876,-1
475,476,1583551776548,1.8608999,-4.7286997,3.5184,11.626138000000001,-6.62286,2.894542,-1
476,477,1583551776558,2.4522,-4.8785,2.7916,12.155123,-6.838319,2.3412897999999998,-1
477,478,1583551776568,2.8089999999999997,-4.5102997,3.3313,12.378223,-6.483383,3.01747,-1
478,479,1583551776578,2.8089999999999997,-4.5102997,3.3313,11.79444,-6.0820956,4.0129410000000005,-1
479,480,1583551776588,0.8304,-4.1075,4.2648997,10.11305,-6.585041,3.3561058,-1
480,481,1583551776598,0.33359998,-4.4437,2.3226,9.907378999999999,-6.983934,1.3809276000000001,-1
481,482,1583551776609,1.2761999,-4.6871,0.6724,10.946903,-7.4067507,-0.20801783,-1
482,483,1583551776619,2.3027,-5.0993,-0.5243,11.771457,-7.978591000000001,-1.4245596,-1
483,484,1583551776629,2.3016999,-5.4853997,-1.3945,11.541815,-8.501542,-2.2749417000000003,-1
484,485,1583551776640,1.8298,-5.8691998,-1.7028999,11.005168,-9.089212,-2.388877,-1
485,486,1583551776650,1.5728999,-6.0622997000000005,-1.1243,10.623935000000001,-9.318684,-1.7420499,-1
486,487,1583551776660,1.0799999,-6.2093997000000005,-0.7809,10.085948,-9.735274,-1.9930293999999997,-1
487,488,1583551776670,0.7726,-6.7507,-2.2747998,10.022176,-10.428232000000001,-4.1070905,-1
488,489,1583551776681,1.3105999,-7.1443,-4.6821,10.846558,-10.876925,-6.369725700000001,-1
489,490,1583551776691,2.5582,-7.5003996,-6.4971,12.183019999999999,-11.3903675,-7.940121,-1
490,491,1583551776702,3.9327,-7.9179997,-7.786299700000001,13.632269,-11.799526,-9.3643265,-1
491,492,1583551776712,4.9985,-7.7989999999999995,-8.7724,14.145921,-11.470056,-10.084425999999999,-1
492,493,1583551776722,5.1019998,-7.1723,-9.1202,13.292445,-10.677249,-10.075203,-1
493,494,1583551776733,3.61,-6.3071,-8.8059,11.177694,-9.607118,-9.769961,-1
494,495,1583551776743,1.3677,-5.2304997,-8.4291,9.051060000000001,-8.68375,-9.312946,-1
495,496,1583551776753,-0.5101,-4.5113997,-8.1102,7.913305800000001,-8.185038,-9.7261095,-1
496,497,1583551776763,-0.98289996,-4.1123,-9.3076,8.506924,-7.8958759999999995,-11.914256,-1
497,498,1583551776773,0.3375,-3.7777,-11.8473,10.818928,-7.573971,-14.518304999999998,-1
498,499,1583551776784,2.2335,-3.5196998,-13.770598999999999,11.840295,-7.5015125,-15.183079000000001,-1
499,500,1583551776794,2.9394,-3.4406998,-14.188998999999999,11.369384,-7.40607,-14.898869,-1
500,501,1583551776804,2.2712,-3.3002,-13.8523,10.162313000000001,-7.075392699999999,-14.220274,-1
501,502,1583551776814,0.96449995,-2.9366,-13.1222,8.740694,-6.4547105,-13.213944,-1
502,503,1583551776824,-0.4173,-2.3253999,-12.0777,7.5135317,-6.0217237,-11.891684,-1
503,504,1583551776834,-1.6589999,-2.0089,-10.757899,6.565619,-5.6897626,-10.682852,-1
504,505,1583551776845,-2.5664,-1.6973,-9.8508,5.967797,-5.4081472999999995,-10.893915,-1
505,506,1583551776856,-3.0470998,-1.4512,-10.345099000000001,6.3383910000000006,-5.128782299999999,-11.772491,-1
506,507,1583551776867,-2.6674,-1.25,-11.1916,7.139643700000001,-5.079145400000001,-12.503364999999999,-1
507,508,1583551776877,-1.8695998999999999,-1.2059,-11.987499,7.478308,-5.1609793,-12.680286,-1
508,509,1583551776887,-1.7141998999999999,-1.4107,-11.463799,7.184089,-5.276859,-11.707024,-1
509,510,1583551776897,-1.7141998999999999,-1.4107,-11.463799,6.606128999999999,-5.223180999999999,-10.81098,-1
510,511,1583551776907,-2.431,-1.3964,-10.358399,5.9278803,-5.0865293,-9.747129,-1
511,512,1583551776918,-3.84,-1.1758,-8.5639,5.054839599999999,-4.928742,-8.957197,-1
512,513,1583551776928,-4.5656,-1.1887,-8.345099000000001,4.3926992,-4.9466023,-8.773667,-1
513,514,1583551776938,-4.9123,-1.4593999,-8.1301,4.174358,-5.329196499999999,-8.495134,-1
514,515,1583551776948,-4.5147,-1.9825,-7.9476,4.712871,-5.816818,-8.3359785,-1
515,516,1583551776958,-4.5147,-1.9825,-7.9476,5.340889,-6.042342700000001,-8.369507,-1
516,517,1583551776969,-3.2203999,-2.5126,-8.0327,5.8612165,-6.389673999999999,-8.2818985,-1
517,518,1583551776979,-3.1945999,-2.6301,-7.4322996,5.7479515,-6.523931500000001,-7.5187990000000005,-1
518,519,1583551776989,-3.8091998,-2.7168999,-6.2134,5.0125484,-6.636286699999999,-6.2046220000000005,-1
519,520,1583551776999,-4.8178,-2.76,-4.8336,3.9875142999999995,-6.7299857,-4.8272949999999994,-1
520,521,1583551777009,-5.5885,-3.0228999,-3.4297,3.2970072999999998,-7.0578194000000005,-3.4998727,-1
521,522,1583551777019,-5.6752,-3.2976,-2.6627998,3.5362456,-7.428384299999999,-2.919499,-1
522,523,1583551777030,-4.7427,-3.4926998999999994,-2.8906999,4.6436209999999996,-7.6086774,-3.2394602000000003,-1
523,524,1583551777040,-3.6948,-3.5458998999999998,-3.0758997999999997,5.429982,-7.8027515,-3.1794424,-1
524,525,1583551777050,-3.0068998,-3.8804998,-2.5662,5.9940370000000005,-8.316422,-2.2827659,-1
525,526,1583551777060,-2.7022,-4.1907997,-1.4039999,6.1280165,-8.575408,-1.3246639999999998,-1
526,527,1583551777070,-2.7036998,-4.2339997,-0.33229998,6.0211587,-8.574717999999999,-0.18955374,-1
527,528,1583551777080,-2.6966,-3.9101,0.5076,6.079758999999999,-8.180575,0.5098596,-1
528,529,1583551777090,-2.6104,-3.2442,1.1234,6.0628657,-7.682486,0.9152267,-1
529,530,1583551777101,-2.826,-2.8694,1.7057999,5.710363,-7.6034483999999996,1.5492496,-1
530,531,1583551777111,-2.9284,-3.299,2.1982,5.8454239999999995,-8.350651,2.0093098,-1
531,532,1583551777121,-2.2177,-4.1739999999999995,2.7726,6.7879357,-9.3347435,2.5990207,-1
532,533,1583551777131,-1.018,-4.9186,3.5303998,7.911841000000001,-10.0536175,3.5135772000000003,-1
533,534,1583551777141,0.0289,-5.3664,4.6327,8.772001,-10.529096000000001,4.685702,-1
534,535,1583551777151,0.7996,-5.4588,5.8396,9.306252,-10.514567,5.7118473,-1
535,536,1583551777162,0.9568,-5.1914,6.5832996,9.075633999999999,-10.34072,6.182135,-1
536,537,1583551777172,0.6768,-5.0133,6.7625,8.889987,-10.216642,6.186425700000001,-1
537,538,1583551777182,0.79609996,-4.6832,6.672999999999999,9.255265,-9.900216,5.925142,-1
538,539,1583551777192,1.2760999,-4.4047,6.5945,9.707310000000001,-9.725985000000001,6.2327010000000005,-1
539,540,1583551777202,1.7716,-4.074,7.0568,10.05808,-9.208722999999999,6.536755,-1
540,541,1583551777213,1.9956,-3.3918,7.0622997000000005,9.930104,-8.571366000000001,6.210138,-1
541,542,1583551777222,1.7214999,-2.7816,6.697,9.595194000000001,-8.151232,5.9962497,-1
542,543,1583551777232,1.3039,-2.2415,6.6998997000000005,9.046836,-7.628951,6.070125,-1
543,544,1583551777242,0.89269996,-1.8453,6.7616997,8.759732000000001,-7.221381,5.8918815,-1
544,545,1583551777252,0.76119995,-1.3263,6.4925,8.72451,-6.739812,5.460781,-1
545,546,1583551777262,0.74189997,-0.94149995,6.1549997,8.677956,-6.5566072,5.401769,-1
546,547,1583551777273,0.7193,-0.8319,6.266,8.713506,-6.595987299999999,5.561491,-1
547,548,1583551777283,0.88449997,-0.8953,6.3658,9.087633,-6.661186,5.4519324000000005,-1
548,549,1583551777293,1.4152,-0.8756,6.114,9.668543,-6.5851274,5.1100693,-1
549,550,1583551777303,1.9570999,-0.7849,5.7016,10.059573,-6.5976729999999995,4.470549,-1
550,551,1583551777313,2.2228,-0.78499997,5.1219,10.104623,-6.674861999999999,4.0539483999999995,-1
551,552,1583551777324,2.2196,-0.8795,4.6919,10.02593,-6.8126050000000005,3.7430089,-1
552,553,1583551777334,2.1620998,-0.9819,4.3753,9.962714,-6.7415256999999995,3.3206334,-1
553,554,1583551777344,2.0888,-0.8182,4.0034,9.761572,-6.4645553,2.9955964,-1
554,555,1583551777354,1.8526,-0.5354,3.7326,9.39841,-6.2280655,2.9390166,-1
555,556,1583551777364,1.3170998999999999,-0.2698,3.6415,8.750989,-5.978551400000001,2.7382963,-1
556,557,1583551777374,0.80869997,-0.1052,3.4520998,8.474517,-5.7574806,2.3435595,-1
557,558,1583551777385,0.5868,0.1117,3.0326998,8.399234,-5.5844083,1.8945701000000001,-1
558,559,1583551777395,0.5459,0.2572,2.5865998,8.433671,-5.621605000000001,1.5583858,-1
559,560,1583551777405,0.588,0.184,2.2519,8.525369,-5.7961707,1.2688215,-1
560,561,1583551777415,0.7119,0.018000000000000002,1.9813,8.719318,-5.965977,1.1673648,-1
561,562,1583551777425,0.9155,-0.1366,1.8866999,8.943338,-6.026895,1.0744506999999999,-1
562,563,1583551777436,1.1266,-0.14800000000000002,1.7587,8.90915,-5.9262815,0.8812673000000001,-1
563,564,1583551777446,1.0288,-0.0198,1.5601,8.690081,-5.813706,0.7537617,-1
564,565,1583551777456,0.8185,0.1107,1.4489,8.486842,-5.589733,0.3264063,-1
565,566,1583551777466,0.6453,0.2672,1.0691,8.283852,-5.5382867,-0.06826348,-1
566,567,1583551777476,0.42299998,0.3058,0.69839996,8.010702,-5.602968,0.00046926353,-1
567,568,1583551777487,0.1531,0.22929999,0.7653,7.8345556,-5.6174,0.1412579,-1
568,569,1583551777497,-0.0648,0.2166,0.9403,7.754905,-5.752606,0.22611798,-1
569,570,1583551777507,-0.1029,0.092599995,0.96529996,7.9770107,-5.7657547,-0.07929596,-1
570,571,1583551777517,0.11669999,0.081599995,0.65419996,8.143983,-5.6416297,-0.35009933,d
571,572,1583551777527,0.3588,0.2644,0.1924,8.231897,-5.5706654,-0.48735413,-1
572,573,1583551777537,0.3976,0.3933,0.24399999,8.232013,-5.4743900000000005,-0.36193624,-1
573,574,1583551777548,0.21849999,0.29209998,0.4367,8.014925,-5.613608,-0.1870063,-1
574,575,1583551777558,0.21849999,0.29209998,0.4367,7.8839436,-5.723655,-0.09746317,-1
575,576,1583551777568,-0.0431,0.0464,0.6843,7.806113000000001,-5.825284,0.053160854,-1
576,577,1583551777578,-0.0431,0.0464,0.6843,7.872211999999999,-5.9755445,-0.08607634,-1
577,578,1583551777588,0.16319999,-0.3445,0.3057,8.060425,-6.233619999999999,-0.37065116,-1
578,579,1583551777598,0.4005,-0.5071,0.24309999,8.3262005,-6.379484,-0.42810240000000005,-1
579,580,1583551777608,0.7449,-0.52349997,0.0902,8.661436,-6.3692374,-0.57860196,-1
580,581,1583551777619,0.92939997,-0.47559997,-0.030199998999999998,8.802168,-6.3388023,-0.64678884,-1
581,582,1583551777629,0.9823,-0.4637,0.036399997999999996,8.84987,-6.310158299999999,-0.53191495,-1
582,583,1583551777639,1.0123,-0.47739998,0.4206,8.893166,-6.3408422,-0.1013705,-1
583,584,1583551777649,0.9816,-0.6222,0.8340000000000001,8.845589,-6.4658194,0.23582888,-1
584,585,1583551777659,0.93079996,-0.82629997,0.89269996,8.835341,-6.6925025,0.21210712,-1
585,586,1583551777669,1.0871,-1.0667,0.7998,9.071621,-6.882353,0.15954961,-1
586,587,1583551777680,1.5884,-1.1360999,0.8965,9.619452,-6.882496400000001,0.26704925,-1
587,588,1583551777690,2.1097,-1.0173,0.8623,10.197028999999999,-6.7318916,0.1841141,-1
588,589,1583551777700,2.5800998,-0.871,0.6842,10.771916000000001,-6.5141919999999995,0.14999194,-1
589,590,1583551777710,3.2238,-0.6906,0.88409996,11.370878,-6.4594316,0.4137372,-1
590,591,1583551777720,3.6669,-0.8515,1.0476999,11.731359,-6.625024300000001,0.53556377,-1
591,592,1583551777730,4.2513,-1.0023,1.2644,12.461572,-6.682619,0.85565895,-1
592,593,1583551777740,4.7716,-0.9851,1.6855999,12.977359,-6.5799556,1.3325456,-1
593,594,1583551777751,5.132999999999999,-0.84739995,2.2468,13.3349085,-6.3012037,1.9747471999999997,-1
594,595,1583551777761,5.4066,-0.5955,2.9642,13.549362,-6.0544,2.6905751,-1
595,596,1583551777771,5.4347,-0.5419,3.5045,13.588301999999999,-6.047332,3.2300367000000003,-1
596,597,1583551777781,5.5109,-0.74329996,4.0804,13.799709,-6.349174,3.9791440000000002,-1
597,598,1583551777791,5.8815,-1.2301999,4.7532997,14.386164,-6.7904729999999995,4.725656,-1
598,599,1583551777801,6.5441,-1.6355,5.0632,15.02714,-7.0515275,4.8200544999999995,-1
599,600,1583551777812,6.944,-1.9488,4.5677,15.349352,-7.225212599999999,3.958305,-1
600,601,1583551777822,6.9494996,-2.0792,3.6023998,15.139878,-7.188935799999999,3.1940374,-1
601,602,1583551777833,6.5794997,-2.1262999,3.0693,14.876439000000001,-7.0517187,3.1331482000000004,-1
602,603,1583551777843,6.2296996,-2.1155999,3.2226999,14.533369,-6.924587,3.457936,-1
603,604,1583551777853,5.6993,-2.2263,3.5073998,14.116107000000001,-6.9342690000000005,3.5957174,-1
604,605,1583551777864,5.1204,-2.4025,3.4654,13.500971,-7.000215,3.115728,-1
605,606,1583551777874,4.6538997,-2.6664,2.8741,13.285368,-7.247401700000001,2.2938366,-1
606,607,1583551777884,4.3807,-3.0916997999999998,1.9323,13.320132000000001,-7.441926,1.6167278,-1
607,608,1583551777894,4.5358,-3.4424,1.2228,14.084734,-7.382453999999999,1.4411466,-1
608,609,1583551777905,5.1651,-3.4197,1.147,14.537459,-7.067425,1.281166,-1
609,610,1583551777915,5.5197,-3.2466998,0.9479,14.538837,-7.1193789999999995,1.1170004999999998,-1
610,611,1583551777925,5.3111997,-3.6104,0.8139,14.05335,-7.3565392,1.063083,-1
611,612,1583551777935,4.6865997,-4.0043,0.8035,13.248612,-7.460667599999999,1.1857045,-1
612,613,1583551777945,3.7858998999999995,-4.3181,1.0033,12.320878,-7.2954965,1.3041599,-1
613,614,1583551777956,2.9457998,-4.3698997,1.1279,11.402538999999999,-6.61765,1.2049825,-1
614,615,1583551777966,1.9634,-3.9275,1.0698,10.410966,-6.063536,1.0211366,-1
615,616,1583551777976,0.6637,-3.4857,0.8786,9.104163,-5.209907,0.70127124,-1
616,617,1583551777986,-0.4613,-2.9882998,0.6356,8.225337,-4.373746400000001,0.27130136,-1
617,618,1583551777996,-1.3915,-2.3602,0.2349,7.7588897,-3.8342087,-0.28286058,-1
618,619,1583551778006,-1.8815998999999999,-2.0172,-0.2662,7.861820699999999,-4.106688,-1.1136677,-1
619,620,1583551778016,-1.8244,-2.4573,-1.0503,8.371412,-4.603523,-1.5460893,-1
620,621,1583551778027,-1.1825,-3.2149,-1.4784,8.896738000000001,-4.673233,-1.783527,-1
621,622,1583551778036,-0.8314,-3.3425,-1.5898,8.63239,-4.243109,-1.8379807000000001,-1
622,623,1583551778046,-1.1161,-3.0871,-1.5874,7.611521700000001,-3.5759413,-1.5459936,-1
623,624,1583551778056,-2.1547,-2.5997999,-1.2736,6.2975645,-2.8164527,-0.79987407,-1
624,625,1583551778066,-3.4852998,-2.0327,-0.5137,5.3189297,-2.223773,-0.46691722,-1
625,626,1583551778076,-4.7141,-1.4735999,-0.1893,4.018026,-1.6021807,-1.231903,-1
626,627,1583551778087,-5.7818,-1.1754999,-0.9208,3.8197667999999996,-1.1981639,-2.1004523999999996,-1
627,628,1583551778097,-5.9921,-0.9244,-1.7524998999999999,4.2603383,-0.9962943999999999,-2.3866072,-1
628,629,1583551778107,-5.5513,-0.84309995,-1.9892999,5.3553695999999995,-1.3051462999999999,-2.0397353,-1
629,630,1583551778117,-4.4505,-1.25,-1.5567,6.8010554,-1.4918367000000001,-1.4137186000000002,-1
630,631,1583551778128,-2.9943,-1.5317,-0.8404,7.063738000000001,-0.9704656999999999,-0.5917413,-1
631,632,1583551778138,-3.7752,-0.90849996,0.49359998,5.680167,-0.5776441999999999,-0.17252617,-1
632,633,1583551778148,-5.2760997000000005,-0.77379996,0.5901,4.031874,-0.26229915,-0.26106375,-1
633,634,1583551778158,-6.6674,-0.682,0.457,2.8025088,-0.118436374,-0.39812702,-1
634,635,1583551778168,-7.3908,-0.8326,0.2907,2.316122,-0.21716367,-0.7003519,-1
635,636,1583551778178,-7.1338,-0.9309999999999999,-0.2122,2.7941580000000004,-0.14545254,-1.2819418,-1
636,637,1583551778188,-5.8876,-0.6519,-0.5744,4.118266,0.18952501,-1.6440313000000002,-1
637,638,1583551778198,-5.8876,-0.6519,-0.5744,5.150521299999999,0.05743211,-1.7245052,-1
638,639,1583551778208,-3.6266,-1.1771,-0.589,6.175997,-0.38385758,-1.7133961,-1
639,640,1583551778219,-3.7194,-1.0634999,-0.36589998,5.829316,-0.1729667,-1.4800476,-1
640,641,1583551778229,-4.8715997,-1.0021,-0.33139998,4.5746684,-0.15600619,-1.5502264,-1
641,642,1583551778239,-5.8658,-1.3189,-0.4219,3.714403,-0.45546335,-1.6107423,-1
642,643,1583551778249,-5.8658,-1.3189,-0.4219,3.70745,-0.5761119,-1.5003121000000001,-1
643,644,1583551778259,-5.3114,-1.4090999,-0.304,4.585260400000001,-0.37748897,-1.6122937,-1
644,645,1583551778269,-4.2344,-0.97179997,-0.4155,5.8579893,0.15999971,-1.7429789,-1
645,646,1583551778280,-3.3532998999999997,-0.6638,-0.2588,6.497767400000001,0.22944114,-1.6857191000000002,-1
646,647,1583551778290,-3.0609,-0.9084,-0.3937,6.6275144,-0.014355633000000001,-1.9546453999999998,-1
647,648,1583551778300,-3.1227999,-0.927,-0.3691,6.461854499999999,0.08605718,-1.8240944,-1
648,649,1583551778310,-3.412,-0.79539996,-0.4587,6.156153,0.124019645,-2.385592,-1
649,650,1583551778321,-3.4687997999999998,-0.8398,-1.5178,6.3211617,0.22678836,-3.448005,-1
650,651,1583551778331,-2.9887,-0.5367,-2.3545,6.950539999999999,0.5632599,-4.113544999999999,-1
651,652,1583551778341,-2.2152,-0.2518,-2.7642,7.7306094,0.7878264,-4.339078400000001,-1
652,653,1583551778351,-1.5581,-0.0611,-2.6301,8.240698,1.0269688,-3.8496466000000003,-1
653,654,1583551778361,-1.3880999,0.14919999,-1.6969,8.130604,1.1067723999999999,-2.9066758,-1
654,655,1583551778371,-1.7444998999999999,-0.051599998,-0.9174,7.795942,0.8522591999999999,-2.3315215,-1
655,656,1583551778381,-1.9720999,-0.2549,-0.68119997,7.599962,0.7753287,-2.4193119999999997,-1
656,657,1583551778392,-1.9947,-0.24749999,-0.9,7.7475122999999995,0.8942343,-2.677407,-1
657,658,1583551778402,-1.7147,-0.0775,-1.1241,8.188266,1.1788954,-2.9490627999999997,-1
658,659,1583551778412,-1.2106,0.1955,-1.4219998999999999,8.602864,1.4538263,-3.3706910000000003,-1
659,660,1583551778422,-0.91359997,0.3946,-1.9003999,8.776827,1.5281615,-3.7898777000000003,-1
660,661,1583551778432,-0.8326,0.43809998,-2.1838,8.822298,1.5615271000000002,-3.9213383,-1
661,662,1583551778442,-0.71199995,0.4718,-2.2003,8.988379,1.545687,-3.784304,-1
662,663,1583551778453,-0.5711,0.3978,-1.9576,9.056681,1.4431098999999998,-3.5077065999999997,-1
663,664,1583551778464,-0.5175,0.2845,-1.6413,9.142077,1.3744631999999999,-3.1278713,-1
664,665,1583551778474,-0.4238,0.2497,-1.1249,9.05963,1.294267,-2.4539802,-1
665,666,1583551778484,-0.59459996,0.1083,-0.6159,8.831626,1.0494456,-2.4414057999999996,-1
666,667,1583551778494,-0.73649997,-0.1266,-0.6372,9.070366,0.92375964,-2.6195536,-1
667,668,1583551778505,-0.42909998,-0.1856,-0.8390000000000001,9.495892999999999,1.0117226000000001,-2.970898,-1
668,669,1583551778515,-0.0164,-0.0885,-1.1865,9.68627,0.9519059000000001,-3.2740419999999997,-1
669,670,1583551778525,0.11,-0.1548,-1.4729999,9.771044,0.8005156999999999,-3.4688246,-1
670,671,1583551778535,0.23609999,-0.2624,-1.5866,10.044702000000001,0.868693,-3.4597172999999994,-1
671,672,1583551778545,0.5193,-0.1396,-1.5742999,10.168433,0.99225295,-3.2770875,-1
672,673,1583551778555,0.56839997,-0.0246,-1.3155,9.932844000000001,1.0405296,-2.6734326,-1
673,674,1583551778565,0.2667,-0.0069999998,-0.5987,9.476528,0.9334993,-1.9807038000000001,-1
674,675,1583551778575,-0.17979999,-0.1524,-0.0016999998999999999,9.221297,0.7046614,-1.8083405,-1
675,676,1583551778585,-0.3412,-0.3946,0.089899994,9.4146805,0.50251424,-2.120286,-1
676,677,1583551778595,-0.0718,-0.5915,-0.2507,9.848443,0.45988786,-2.4227502,-1
677,678,1583551778605,0.3531,-0.5882,-0.4678,10.070127000000001,0.5976023,-2.49562,-1
678,679,1583551778616,0.5122,-0.44849998,-0.505,9.96054,0.8080718000000001,-2.4966447,-1
679,680,1583551778626,0.4053,-0.2342,-0.5011,9.676549000000001,1.0986129,-2.3286197,-1
680,681,1583551778636,0.121599995,0.044499997,-0.34379998,9.397269999999999,1.256343,-1.9509870999999999,-1
681,682,1583551778646,-0.152,0.1934,0.038799997,9.164899,1.2371702,-1.5423733999999998,-1
682,683,1583551778656,-0.39519998,0.1665,0.4461,9.189952,1.1510843000000002,-1.4634702,-1
683,684,1583551778666,-0.3633,0.08549999400000001,0.54499996,9.377303,0.98338485,-1.7831438999999998,d
684,685,1583551778676,-0.16569999,-0.0853,0.2316,9.67155,0.8637705,-2.0251307,-1
685,686,1583551778686,0.118099995,-0.1899,-0.009000000000000001,9.970261,0.9487838,-2.2474084,-1
686,687,1583551778696,0.4195,-0.085,-0.2289,10.060158,1.0777165000000002,-2.5731921000000004,-1
687,688,1583551778706,0.48389998,0.078499995,-0.6622,10.022282,1.1893915000000002,-3.0166174999999997,-1
688,689,1583551778717,0.45999998,0.1891,-1.0196,9.919839,1.2904076999999998,-3.1241555,-1
689,690,1583551778727,0.3489,0.2844,-1.1496998999999999,9.784653,1.3287437,-2.8530362,-1
690,691,1583551778737,0.22019999,0.3245,-0.8804,9.699936,1.2227284,-2.7570574,-1
691,692,1583551778747,0.133,0.2241,-0.7783,9.639764999999999,1.0787411,-3.1213877,-1
692,693,1583551778757,0.11009999,-0.0616,-1.7773999,9.703786000000001,0.9061575000000001,-3.9479525,-1
693,694,1583551778768,0.11009999,-0.0616,-1.7773999,9.950158,0.85798615,-4.504815,-1
694,695,1583551778778,0.3899,-0.1478,-2.4675999,10.271575,0.7248972,-4.889247,-1
695,696,1583551778788,0.7671,-0.5072,-2.8156998,10.285452000000001,0.4492097,-4.8825626,-1
696,697,1583551778798,0.5106,-0.9238,-2.5891,9.986818,0.0030262708,-4.6936026,-1
697,698,1583551778808,0.3208,-1.3847,-2.4621,9.832583999999999,-0.41026083,-4.612123,-1
698,699,1583551778819,0.2764,-1.5432,-2.6776,9.782009,-0.52025044,-4.9393053,-1
699,700,1583551778829,0.2032,-1.6839,-3.3032,9.693721,-0.6329312,-5.624516000000001,-1
700,701,1583551778839,-0.0712,-1.7895,-4.2153,9.3796015,-0.7120739,-6.642502,-1
701,702,1583551778849,-0.1445,-1.9082999,-5.2646,9.4017515,-0.7861313,-7.678588,-1
702,703,1583551778860,0.2733,-1.9297999,-5.7928,9.818956,-0.7497585999999999,-8.116247999999999,-1
703,704,1583551778870,0.4219,-1.8366,-5.7053,9.727249,-0.55910355,-7.8928595,-1
704,705,1583551778880,0.4219,-1.8366,-5.7053,9.13342,-0.38651034,-7.6989675,-1
705,706,1583551778890,-1.7671,-1.4338,-5.0499997,7.2842345,-0.078223355,-7.262916000000001,-1
706,707,1583551778900,-2.7674,-1.3044,-4.7991,6.429332,0.13726437,-6.9202770000000005,-1
707,708,1583551778911,-3.1506998999999998,-1.1787,-4.3729,6.365081,0.27580246,-6.532589,-1
708,709,1583551778921,-2.6912,-0.9447,-4.4344,7.022327400000001,0.720942,-7.0066123,-1
709,710,1583551778931,-2.1652,-0.4258,-5.6566,7.422973,1.2640427,-8.385432000000002,-1
710,711,1583551778941,-1.9161999,-0.0103,-6.9367,7.575483999999999,1.609574,-9.366241,-1
711,712,1583551778951,-1.8949,0.099,-7.2879,7.524880400000001,1.6308056,-9.219275,-1
712,713,1583551778961,-2.0805,0.0174,-6.7769,7.257467,1.5043248,-8.363024000000001,-1
713,714,1583551778971,-2.5419998,-0.2157,-5.6217,6.4571238,1.3198277,-6.5542803,-1
714,715,1583551778982,-3.4057998999999994,-0.3723,-4.0520997,5.756054,1.2295183,-5.2753744000000005,-1
715,716,1583551778992,-4.1236997,-0.5803,-2.8307,5.276763,0.8357584000000001,-4.149793,-1
716,717,1583551779002,-4.1681,-0.99499995,-2.3395998,5.7454615,0.5947102,-3.8373307999999997,-1
717,718,1583551779012,-3.5193,-1.1129,-2.2814,6.300676999999999,0.55103034,-3.8281848,-1
718,719,1583551779022,-3.0103998,-1.1664,-2.4552,6.8132277000000006,0.38821504,-4.0143580000000005,-1
719,720,1583551779032,-2.6395,-1.2922,-2.7142,7.011477,0.21146546,-3.9525970999999998,-1
720,721,1583551779042,-2.5719,-1.4577999,-2.5979,6.9728155,0.03307829,-3.5235562000000007,-1
721,722,1583551779053,-2.7279,-1.5604999,-2.2508,6.8371889999999995,-0.07291781,-2.8978843999999997,-1
722,723,1583551779063,-2.8023,-1.6807,-1.3829,6.803526400000001,-0.28781176,-1.1459032,-1
723,724,1583551779073,-3.0295,-1.9075999,0.5972,6.068411,-0.5913965999999999,0.98007125,-1
724,725,1583551779083,-4.1164,-2.3157,2.398,4.818475,-1.1072034,2.6112982999999996,-1
725,726,1583551779093,-5.1832,-2.7772,3.8732,4.2522839999999995,-1.4001675,3.699013,-1
726,727,1583551779103,-5.5562,-2.9643998,4.6275,4.332088,-1.4174440000000001,4.1529536,-1
727,728,1583551779113,-5.0211,-2.6857,4.6833,5.227365499999999,-0.89671475,4.4944625,-1
728,729,1583551779124,-4.1053,-1.9958999,5.1298,6.0658054,-0.20734744,5.6238747,-1
729,730,1583551779134,-3.6301,-1.4143,6.0513,5.905921,0.02252465,6.931137,-1
730,731,1583551779144,-3.9757,-1.1955,7.2169,5.150062,-0.09768342,8.348103,-1
731,732,1583551779155,-4.7598,-1.2609,8.6027,4.514880000000001,-0.4666491,10.205045,-1
732,733,1583551779165,-5.2777,-1.5955,10.3786,4.625319999999999,-1.0073652,12.344964,-1
733,734,1583551779175,-5.0408,-2.0643,12.468699,5.156880999999999,-1.6728381999999997,14.031985,-1
734,735,1583551779186,-4.461,-2.6039,13.919498999999998,6.6019826,-2.010239,15.119067000000001,-1
735,736,1583551779196,-3.1841998,-2.6864998,14.7098,8.4395895,-1.2822483,15.453183,-1
736,737,1583551779207,-1.3463,-1.8064,14.967899,9.398649,-0.21339998,14.943956,-1
737,738,1583551779217,-0.3879,-0.60319996,14.3785,9.026216499999999,0.30992463,14.262336,-1
738,739,1583551779227,-1.8109,-0.0682,13.458699,7.9807744000000005,0.08739794,14.121623999999999,-1
739,740,1583551779237,-2.4694,-0.96999997,13.7283,7.323518300000001,-0.9572976000000001,14.388166,-1
740,741,1583551779248,-2.4694,-0.96999997,13.7283,7.9628754,-2.3985784,13.830212,-1
741,742,1583551779259,-0.52889997,-2.5153,11.9667,9.64235,-2.745048,12.213915,-1
742,743,1583551779270,1.0124,-2.0836,10.6272,11.257086,-2.3216476000000004,10.726014,-1
743,744,1583551779281,1.7993,-1.635,9.8321,11.5648365,-2.085273,10.306052000000001,-1
744,745,1583551779291,1.3701999,-1.5867,10.0897,10.694545,-2.3966246,10.565085,-1
745,746,1583551779301,0.17629999,-2.1591,10.0451,9.567757,-3.212741,10.034022,-1
746,747,1583551779311,-0.6038,-2.9675,9.243199,9.096339,-4.1955514,9.00917,-1
747,748,1583551779321,-0.60609996,-3.9903998,7.9676,9.424057000000001,-5.2801247,7.263194,-1
748,749,1583551779331,0.35639998,-4.6061,6.0069,10.821792,-5.6717873,5.240381,-1
749,750,1583551779341,2.2932,-4.3870997,4.2559,12.450874,-5.4481687999999995,3.9326677000000005,-1
750,751,1583551779351,4.0354,-3.6908,3.4712,14.132839,-4.7172475,3.390429,-1
751,752,1583551779361,4.5215,-2.9742,3.8369999999999997,13.894520000000002,-4.231167299999999,3.8895245000000003,-1
752,753,1583551779371,3.1618998,-2.9118,4.075599700000001,11.617969,-4.793881400000001,3.2912323,-1
753,754,1583551779381,1.3111,-3.5760998999999996,3.0535997999999998,10.491794,-5.595719,1.8709537,-1
754,755,1583551779392,0.7477,-4.3473,1.7693,10.489745,-6.1022167000000005,1.0758296999999999,-1
755,756,1583551779402,1.5022,-4.9202,0.9399,11.857936,-6.7838655,0.024095245,-1
756,757,1583551779413,2.5725,-5.1422,0.4114,12.512097,-7.0217146999999995,-0.8982565999999998,-1
757,758,1583551779423,3.0432,-5.1714,-0.68689996,12.798789,-6.7541009999999995,-2.2905613999999996,-1
758,759,1583551779433,3.2566,-4.5834,-1.9693999,12.874360000000001,-5.977555799999999,-3.3364735,-1
759,760,1583551779443,3.2045,-3.7131,-2.7036,12.437303,-5.410465,-3.8005269999999998,-1
760,761,1583551779453,2.5730999,-3.3762999,-3.0976,11.584641,-5.4488297,-4.3423924000000005,-1
761,762,1583551779463,1.726,-3.5212998,-3.4296,10.970222,-5.7210790000000005,-4.751504,-1
762,763,1583551779474,1.262,-3.7861,-4.0045,10.563927,-6.1697144999999995,-6.0538254,-1
763,764,1583551779483,1.0231,-4.3132,-5.6349,10.80552,-6.6367080000000005,-8.128583,-1
764,765,1583551779493,1.6380000000000001,-4.5218997000000005,-7.6864996,11.792917999999998,-6.554855,-9.928937,-1
765,766,1583551779503,2.6562997999999998,-4.3069,-9.0295,12.473321,-6.307237000000001,-10.671636999999999,-1
766,767,1583551779513,3.0070999,-3.9445,-9.279099,11.92457,-5.690030999999999,-10.295200999999999,-1
767,768,1583551779523,2.2556998999999998,-3.3637998,-8.649099,10.597465,-5.138062000000001,-9.59913,-1
768,769,1583551779534,0.8619,-2.8658,-8.043,9.422132000000001,-4.893203,-10.290232000000001,-1
769,770,1583551779544,-0.1235,-2.6624,-9.1076,9.330950999999999,-4.7292953,-12.147432,-1
770,771,1583551779555,0.1963,-2.4749,-11.6361,10.56681,-4.782532700000001,-15.410059,-1
771,772,1583551779565,1.413,-2.5969,-14.2767,11.733504,-5.049505,-17.268774,-1
772,773,1583551779575,2.4543998,-2.8283,-15.7711,11.990698,-5.1444693,-17.414379999999998,-1
773,774,1583551779585,2.4730000000000003,-2.9032,-15.441799,11.270560000000001,-5.117453,-16.044619,-1
774,775,1583551779595,1.652,-2.8399,-13.9431,10.054048,-4.7798896,-14.133423,-1
775,776,1583551779605,0.36319998,-2.4954998,-11.9829,8.660929,-4.35784,-12.697447,-1
776,777,1583551779616,-1.0099,-2.1304998,-10.770999999999999,7.482253999999999,-3.8786160000000005,-12.223214,-1
777,778,1583551779626,-1.9461998999999999,-1.7966,-10.446899,7.3745145999999995,-3.5136538,-12.529529,-1
778,779,1583551779636,-2.0699,-1.4532,-10.801499,7.786681,-3.3897011,-13.393538000000001,-1
779,780,1583551779646,-1.6729,-1.3354,-11.7366,8.228345,-3.4954388,-13.794969,-1
780,781,1583551779656,-1.2452999,-1.443,-12.2192,8.609052,-3.9746525000000004,-13.440292000000001,-1
781,782,1583551779666,-0.88589996,-1.9353,-11.945499,8.763745,-4.288791000000001,-12.440578,-1
782,783,1583551779677,-0.733,-2.2533,-11.0157995,8.527419,-4.315319000000001,-11.253505,-1
783,784,1583551779687,-0.9834,-2.314,-9.8866,7.7776119999999995,-4.2327,-9.775803999999999,-1
784,785,1583551779697,-2.6536999,-2.1562997999999998,-6.973799700000001,6.7201033,-3.9793260000000004,-8.011861,-1
785,786,1583551779708,-3.3946,-1.9081999,-5.9962,6.0768476,-3.688986,-7.1055694,-1
786,787,1583551779718,-3.7609,-1.8828,-5.496299700000001,5.8005285,-3.6971357000000005,-6.6457295,-1
787,788,1583551779728,-3.6639,-2.0558999,-5.2118,6.0169067,-3.8678519999999996,-6.3384285,-1
788,789,1583551779738,-3.6639,-2.0558999,-5.2118,6.433814,-4.060585,-6.3256245,-1
789,790,1583551779748,-3.1625,-2.3111,-5.2096,7.0060277,-4.436877,-6.1483,-1
790,791,1583551779758,-2.6805,-2.597,-5.1644998,7.08202,-4.8567915,-5.6634555,-1
791,792,1583551779769,-2.6524,-3.2996,-3.9378,6.8976855,-5.064780000000001,-4.608934,-1
792,793,1583551779779,-3.0709999,-3.3436,-2.431,6.440441000000001,-5.0720015,-2.9910283,-1
793,794,1583551779789,-3.7052,-3.3513,-0.782,5.760219,-5.065373999999999,-1.3408488,-1
794,795,1583551779799,-4.4656997,-3.2940998,0.63049996,5.0386357,-4.9873709999999996,0.03182373,-1
795,796,1583551779809,-4.8513,-3.2514,1.3787999,4.8060822,-4.922469,0.77479243,-1
796,797,1583551779819,-4.7139997000000005,-3.0700998,1.5676,4.9779860000000005,-4.7748040000000005,0.860208,-1
797,798,1583551779829,-4.4165,-2.9678,1.3273,5.362753400000001,-4.785032299999999,0.5559528,-1
798,799,1583551779840,-3.9297998,-2.9998999,0.93659997,5.9558835,-4.8563313,0.3230544,-1
799,800,1583551779850,-3.353,-2.9499,1.0509,6.4096704,-4.8240485,0.9179274,-1
800,801,1583551779860,-3.2173998,-2.8576,2.1620998,6.204956500000001,-4.7767005,2.3441438999999997,-1
801,802,1583551779870,-3.8669998999999997,-2.7553,3.7689998,5.577408,-4.723166,3.6892160000000005,-1
802,803,1583551779880,-4.6050997,-2.5788,5.6587,4.792962,-4.5788627,6.0212355,-1
803,804,1583551779890,-5.0179996,-2.4345,7.4884,4.4895015,-4.473202,7.644523599999999,-1
804,805,1583551779901,-5.1726,-2.2642,8.5281,4.3954864,-4.3388014,8.4142685,-1
805,806,1583551779911,-5.1363997,-2.0442998,8.8365,4.481965,-4.2618895,8.442942,-1
806,807,1583551779921,-4.8791,-1.9223,8.323999,4.847119,-4.20282,7.872135000000001,-1
807,808,1583551779931,-4.3712,-1.7076,7.6783,5.3286214,-4.081482,7.524228999999999,-1
808,809,1583551779942,-3.9178998,-1.3989999,7.6559,5.690069,-3.8622112,8.080182,-1
809,810,1583551779952,-3.7078998,-1.1222,8.4927,5.7136283,-3.7892072,9.172225,-1
810,811,1583551779962,-3.8706,-1.028,9.9395,5.363902599999999,-3.843862,10.52333,-1
811,812,1583551779972,-4.3275,-0.8699,10.8966,4.873541,-3.69161,11.281038,-1
812,813,1583551779982,-4.6556,-0.5057,11.219999000000001,4.6383730000000005,-3.4477942,11.364958999999999,-1
813,814,1583551779992,-4.6762,-0.2832,11.0949,4.651015,-3.3472185,11.136016999999999,-1
814,815,1583551780003,-4.6338,-0.024699999,10.7156,4.5397897,-3.1625009,10.52945,-1
815,816,1583551780013,-4.7146,0.2889,9.979199000000001,4.5320897,-2.9715106,9.98996,-1
816,817,1583551780023,-4.5552,0.5317,9.592299,4.758342,-3.0647697,9.900752,-1
817,818,1583551780033,-3.9980998,0.42029998,9.6705,5.5656095,-3.4949407999999997,10.252249,-1
818,819,1583551780043,-3.3869,0.2082,9.9971,5.9593787,-4.0491986,10.697379,-1
819,820,1583551780054,-2.9377,-0.2153,10.4108,6.17817,-4.410627,10.751717999999999,-1
820,821,1583551780064,-2.6418,-0.6376,10.149,6.257858799999999,-5.004475,10.2568655,-1
821,822,1583551780074,-2.6262,-0.9511,9.8412,6.061649299999999,-5.7413917,9.990860000000001,-1
822,823,1583551780084,-2.7533,-1.4591999,9.5473995,5.8915267,-6.468415,9.490155999999999,-1
823,824,1583551780094,-2.7865999,-1.9939,9.000299,5.9634395,-7.09922,8.834049,-1
824,825,1583551780104,-2.5679998,-2.4749,8.2893,6.4295235,-7.738357000000001,7.961142,-1
825,826,1583551780115,-1.9110999,-2.9227998,7.3278,7.312256,-8.157486,7.165788,-1
826,827,1583551780125,-0.86719996,-3.0864,6.6615996,8.117167,-8.330328,7.213528599999999,-1
827,828,1583551780135,-0.047399998,-3.1460998,6.8335,8.47216,-8.690521,7.538489,-1
828,829,1583551780145,0.3295,-3.4492,7.1594,8.368961,-9.314948,7.653209700000001,-1
829,830,1583551780155,0.2339,-3.8785,7.1693997000000005,8.090591,-10.125089,7.2338886,-1
830,831,1583551780165,0.079799995,-4.558799700000001,6.6312,8.056968,-10.873764999999999,6.0200667,-1
831,832,1583551780175,0.1926,-5.0176,5.5504,8.228632000000001,-11.286304,4.715169400000001,-1
832,833,1583551780186,0.5237,-5.3629,3.8546998999999995,8.443373,-11.509033,3.4477558,-1
833,834,1583551780196,0.8652,-5.4593,2.3555,8.671512,-11.894364999999999,2.242869,-1
834,835,1583551780206,1.1179,-5.6411,1.5826,9.006077000000001,-12.224947,1.7576218999999997,-1
835,836,1583551780216,1.5554999,-5.8691998,1.0123,9.564461999999999,-12.213407499999999,1.3514407,-1
836,837,1583551780226,2.2166997999999998,-5.7511997,0.5299,9.852924,-12.343699,1.0812886,-1
837,838,1583551780237,2.5983999,-5.77,0.1779,9.701017,-12.489918,0.83831537,-1
838,839,1583551780247,2.5407999,-5.8402,-0.14389999,9.469613,-12.733227000000001,-0.39982212,-1
839,840,1583551780257,2.4177,-5.9740996,-1.4747,9.728896,-12.532726,-2.7490416,-1
840,841,1583551780267,2.7259,-5.7409,-3.8769,10.629489,-12.300537,-4.585595,-1
841,842,1583551780277,3.6931,-5.4498997000000005,-5.7636,11.575209,-12.20451,-5.414985,-1
842,843,1583551780288,5.2159,-5.0432997,-6.8283,12.049441999999999,-11.919284,-5.559604599999999,-1
843,844,1583551780298,4.9941,-4.7271,-6.5778,11.670441,-11.636002000000001,-5.276351,-1
844,845,1583551780308,4.3231,-4.4006,-6.1187,10.943188000000001,-11.321767999999999,-4.756848000000001,-1
845,846,1583551780318,3.5893998,-3.9239998,-5.5285997,10.22305,-10.851039,-4.111112,-1
846,847,1583551780328,3.0133,-3.5098,-4.999,9.62629,-10.442914,-3.6329138,-1
847,848,1583551780339,2.5372999,-2.971,-4.9718,9.168700999999999,-9.861085000000001,-3.5703866,-1
848,849,1583551780349,2.2986,-2.3262,-5.0369,8.948674,-9.246197,-3.566221,-1
849,850,1583551780359,2.1376998,-1.8887,-5.1692,8.724691,-8.795741,-3.7207236000000004,-1
850,851,1583551780370,1.9919,-1.5703,-5.6177998,8.588768,-8.571183999999999,-4.0812902,-1
851,852,1583551780380,1.7602999,-1.42,-5.8058996,8.276478,-8.501647,-3.9797282,-1
852,853,1583551780390,1.5389,-1.5656999,-5.2179,8.058471,-8.663256,-3.1706414,-1
853,854,1583551780400,1.3072,-1.5876,-4.3698997,7.8416424,-8.619941,-2.4820497,-1
854,855,1583551780410,0.9395,-1.4876,-3.8249998,7.4416385,-8.489447,-2.23583,-1
855,856,1583551780420,0.65459996,-1.3242999,-4.3099,7.2828740000000005,-8.211260000000001,-3.1248546000000004,-1
856,857,1583551780431,0.7018,-0.93689996,-5.2662,7.525742,-7.748067999999999,-3.9452133000000003,-1
857,858,1583551780441,1.0251,-0.48839998,-5.7274,7.806132000000001,-7.365493300000001,-4.153624,-1
858,859,1583551780451,1.0745,-0.2635,-5.377000000000001,7.7536607,-7.254028999999999,-3.6857010999999997,-1
859,860,1583551780461,0.7123,-0.2924,-4.2472,7.2443466,-7.33208,-2.289125,-1
860,861,1583551780471,0.1366,-0.4773,-3.2294,6.596955,-7.552471000000001,-1.5713433,-1
861,862,1583551780481,-0.2672,-0.6696,-2.9294999,6.487491599999999,-7.718542599999999,-1.4674445,-1
862,863,1583551780491,-0.0959,-0.8185,-2.7566,6.850395,-7.8030195,-1.2143104,-1
863,864,1583551780502,0.23529999,-0.7988,-2.3437,7.0386086,-7.7699795,-0.88007027,-1
864,865,1583551780512,0.1538,-0.74219996,-2.0165,6.7936144,-7.662814999999999,-0.5617755,-1
865,866,1583551780522,-0.22369999,-0.6403,-1.9538,6.4175906,-7.548745599999999,-0.6080123000000001,-1
866,867,1583551780532,-0.3951,-0.5396,-2.0547,6.4229345,-7.413732,-0.7499023,-1
867,868,1583551780542,-0.3001,-0.4183,-2.2468998,6.550095,-7.2475834,-0.86783105,-1
868,869,1583551780552,-0.25329998,-0.23709999,-2.2805998,6.482646,-7.1316085000000005,-0.75970894,-1
869,870,1583551780562,-0.4428,-0.1633,-1.9937999,6.186368,-7.127040400000001,-0.20542249999999998,-1
870,871,1583551780573,-0.72099996,-0.2157,-1.3551999,5.848853,-7.2211614,0.6643143,-1
871,872,1583551780583,-1.0859,-0.373,-0.4062,5.6241712999999995,-7.4219966,1.5088928999999998,-1
872,873,1583551780593,-1.1223,-0.5748,0.2572,5.8640323,-7.6298704,1.8542613999999997,-1
873,874,1583551780603,-0.7015,-0.69369996,0.3841,6.463291000000001,-7.544072,1.5999875,-1
874,875,1583551780614,-0.0906,-0.4876,-0.1276,6.892485000000001,-7.286983,0.8258464,-1
875,876,1583551780624,0.2149,-0.23519999,-1.0189999,7.087680000000001,-7.039202,-0.05571786,-1
876,877,1583551780635,0.3288,-0.036399997999999996,-1.6025,7.025191,-6.8791733,-0.10801680400000001,-1
877,878,1583551780645,0.2305,0.0805,-1.5166,6.776683,-6.8968906,0.35832579999999997,-1
878,879,1583551780655,-0.0393,0.038599997999999996,-1.0058,6.5142975,-6.938157,0.9778494000000001,-1
879,880,1583551780665,-0.2714,0.0262,-0.3797,6.47147,-6.906736,1.4557416,-1
880,881,1583551780675,-0.2656,0.0455,0.0788,6.6093473,-6.8683996,1.7565683,-1
881,882,1583551780685,-0.1572,0.1074,0.3461,6.668781,-6.9068027,1.8331636000000002,d
882,883,1583551780696,-0.092999995,0.0547,0.3997,6.798163400000001,-7.014925,1.8149006,-1
883,884,1583551780706,0.0354,-0.0341,0.3735,7.0191097000000005,-7.187326400000001,1.8696991000000003,-1
884,885,1583551780716,0.26749998,-0.1986,0.41399997,7.284540700000001,-7.492711999999999,1.5475066000000002,-1
885,886,1583551780726,0.6508,-0.5679,-0.0585,8.034156,-7.837859599999999,0.7699081999999999,-1
886,887,1583551780736,1.3297,-0.82049996,-0.7559999999999999,8.553343,-7.8790593,0.024612395,-1
887,888,1583551780747,1.8769,-0.852,-1.5527999,8.7716465,-7.6981535,-0.20162052,-1
888,889,1583551780757,2.0906,-0.67609996,-1.7939,8.333096000000001,-7.590223,0.42340020000000006,-1
889,890,1583551780767,1.6516998999999999,-0.57589996,-1.1891999,7.255025,-7.818830499999999,1.6181643,-1
890,891,1583551780777,0.0876,-1.002,0.82909995,6.750078,-8.045589999999999,2.6701381,-1
891,892,1583551780788,0.1423,-1.2881,1.4555999,7.082795599999999,-8.369066,3.0329843,-1
892,893,1583551780798,1.0243,-1.6455,1.1932,7.992506,-8.68785,2.618864,-1
893,894,1583551780808,2.21,-2.0291,-0.064899996,9.195382,-9.048903999999999,1.210288,-1
894,895,1583551780818,3.445,-2.2198,-1.7879,10.392425,-9.184455,-0.40571186,-1
895,896,1583551780828,4.1593,-2.2426,-2.9921,11.0239,-9.176036,-1.4499764,-1
896,897,1583551780838,4.9456,-2.2556998999999998,-3.5935,11.781972,-9.235049,-1.8598063000000002,-1
897,898,1583551780849,5.2314,-2.5853999,-3.3025,12.065207000000001,-9.517947,-1.445188,-1
898,899,1583551780859,5.4698,-2.8771,-2.5321999,12.37628,-9.787208999999999,-0.70228636,-1
899,900,1583551780869,5.7254,-3.3062,-1.9724,12.721179,-10.116498,-0.27777526,-1
900,901,1583551780879,6.1879,-3.4394,-1.8824999,13.297023000000001,-10.158924,-0.34625903,-1
901,902,1583551780889,6.8013,-3.5799,-2.2489998,14.089915,-10.294416,-1.0296504000000002,-1
902,903,1583551780899,7.263099700000001,-3.7865998999999997,-2.8109999,14.516570999999999,-10.382025,-1.4310048,-1
903,904,1583551780910,7.5357,-4.1171,-3.0108,14.876248,-10.735744,-1.7171884999999998,-1
904,905,1583551780920,7.7093997000000005,-4.4332,-3.0791,15.1865835,-10.8250475,-1.6651002000000001,-1
905,906,1583551780930,7.9795,-4.4609,-2.7484999,15.494439999999999,-10.685821,-1.4128566999999999,-1
906,907,1583551780940,8.019,-4.4005,-2.5767999,15.560904,-10.5453,-1.3524367,-1
907,908,1583551780950,7.7853,-4.4133,-2.503,15.265602,-10.421424,-1.3366923000000002,-1
908,909,1583551780960,7.257899799999999,-4.3837,-2.4647,14.832289999999999,-10.237089,-1.409208,-1
909,910,1583551780971,6.7223997,-4.3114,-2.4508,14.434842999999999,-9.977644999999999,-1.3551468999999998,-1
910,911,1583551780981,6.2004,-4.1754,-2.1933,14.041112,-9.6260605,-1.1101626,-1
911,912,1583551780991,5.683799700000001,-3.8472,-1.7745999,13.528025,-8.865738,-0.6676949000000001,-1
912,913,1583551781001,5.0459,-3.3560998,-1.3062999,12.927052,-8.241455,-0.39327157,-1
913,914,1583551781011,5.0459,-3.3560998,-1.3062999,12.625766,-8.014130999999999,-0.37915537,-1
914,915,1583551781022,3.353,-2.6657999,-0.9420000000000001,11.50888,-7.155081699999999,-0.2812804,-1
915,916,1583551781032,2.573,-2.3463,-0.3879,11.086093,-6.870315,0.10643663,-1
916,917,1583551781042,1.6001999,-2.4024,0.7254,10.02865,-6.9235619999999995,1.5627146,-1
917,918,1583551781052,1.1033,-2.8379998,1.9317,10.339561,-7.1642747,2.4084517999999995,-1
918,919,1583551781062,1.7686,-3.0805,2.5639,11.118472,-6.948682300000001,2.3862624,-1
919,920,1583551781072,2.5119,-2.8125,2.1775,11.599879,-6.5904136,1.4028777,-1
920,921,1583551781083,2.4148,-2.9099998,1.1920998999999999,11.1367445,-6.6668363,0.4251049,-1
921,922,1583551781093,1.7766998999999999,-3.0412,0.49269998,10.63605,-6.377071400000001,-0.26343882,-1
922,923,1583551781103,1.196,-2.9241998,-0.106,10.110379,-6.01004,-0.58767116,-1
923,924,1583551781113,0.5958,-2.6272,0.0368,9.560335,-5.2612486,0.092243806,-1
924,925,1583551781123,-0.0314,-2.0207999,1.1144,9.013748,-4.393618599999999,1.7932857,-1
925,926,1583551781134,-0.4671,-1.6113,2.7723,8.803308,-3.7936604,3.3427556000000003,-1
926,927,1583551781144,-0.76769996,-1.2766,4.3612,8.430357,-3.6167865,4.1015935,-1
927,928,1583551781154,-1.3536999,-1.5814999,5.3322,7.8245864,-4.0521769999999995,4.8623652,-1
928,929,1583551781164,-1.8041999,-2.1713,5.9761996,7.6595397,-4.0861554,4.960738,-1
929,930,1583551781174,-2.2686,-2.2509,5.7551,6.8819985,-3.2986449999999996,3.5475078,-1
930,931,1583551781185,-2.8560998,-1.6574,4.413,6.2892613,-2.1709568999999997,1.5561450000000001,-1
931,932,1583551781195,-3.4898998999999997,-0.77019995,2.4252,5.6931434,-1.1283106999999999,-0.27694209999999997,-1
932,933,1583551781205,-4.1108,0.067499995,0.7931,5.1030492999999995,-0.063360155,-1.011464,-1
933,934,1583551781215,-4.7276998,0.85789996,0.27339998,4.2607307,0.5034527,-0.7714501,-1
934,935,1583551781225,-5.6345,1.0954,0.6671,3.3989809999999996,0.5541045,0.07062895,-1
935,936,1583551781235,-6.4481997,0.92429996,1.5706999,3.1259177000000005,0.58141756,1.4896818,-1
936,937,1583551781246,-6.6011996,0.8235,2.7582998,3.4593532,0.4859559,2.4029357000000005,-1
937,938,1583551781256,-6.2724,0.5742,3.6562,4.03105,-0.1285782,2.9071355,-1
938,939,1583551781266,-5.7051997000000005,-0.0642,4.1471,4.1575503,-0.57731867,2.7224562000000003,-1
939,940,1583551781276,-5.5815997,-0.58709997,3.9412,3.8726597000000003,-0.9345144000000001,1.9958066000000003,-1
940,941,1583551781286,-5.871299700000001,-1.0106,3.1697,3.2507033,-0.9006603999999999,1.3111798000000001,-1
941,942,1583551781296,-6.4941998,-1.055,2.4217,2.5401042,-0.51179415,1.078789,-1
942,943,1583551781306,-7.2141,-0.73789996,2.1473,1.8818616999999997,-0.019057846,1.167815,-1
943,944,1583551781316,-7.8739996,-0.30679998,2.1914,1.6467319999999999,0.47002012,1.3894893999999998,-1
944,945,1583551781326,-8.1213,0.1025,2.3799,1.7670357,0.7702241999999999,1.387124,-1
945,946,1583551781336,-7.9477997,0.4298,2.3009999,2.2779968,0.88802856,1.0659655000000001,-1
946,947,1583551781346,-7.4912996,0.4906,1.9712,3.1506066,0.13998419,0.59844506,-1
947,948,1583551781357,-6.6235,-0.2285,1.4557999,4.619785,-0.779667,0.28927705,-1
948,949,1583551781367,-5.1569,-1.0928,1.1171,6.2331605,-1.4419031999999998,0.15103583,-1
949,950,1583551781377,-3.5518,-1.7146,0.9449,7.2564325,-1.4881017,0.66486025,-1
950,951,1583551781387,-2.9164,-1.4503,1.8905,6.6417836999999995,-1.0934318,1.1109958,-1
951,952,1583551781397,-2.9164,-1.4503,1.8905,5.709423999999999,-0.78405315,0.83691716,-1
952,953,1583551781407,-4.8469,-0.5342,1.1758,4.8682737000000005,-0.06795702,0.34857659999999996,-1
953,954,1583551781418,-4.7869997,-0.1466,0.7908,5.1119650000000005,0.3089861,-0.022687456,-1
954,955,1583551781428,-3.9624,0.0047999997999999995,0.52779996,6.022193,0.46019432,-0.27824453,-1
955,956,1583551781438,-3.0109,-0.07200000000000001,0.4052,6.9330716,0.29554024,-0.42566990000000005,-1
956,957,1583551781448,-2.2261999,-0.4933,-0.1169,7.711608999999999,-0.2000499,-1.0745847,-1
957,958,1583551781459,-1.1867,-0.84489995,-0.88659996,8.84602,-0.46389094,-1.8081776999999999,-1
958,959,1583551781469,-0.0301,-0.6239,-1.421,9.896528,-0.13590446,-2.2775272999999996,-1
959,960,1583551781479,0.23349999,-0.0758,-1.6257,9.909697,0.430918,-2.339911,-1
960,961,1583551781490,-0.6595,0.22489999,-0.97669995,8.869272,0.68524927,-1.4617176,-1
961,962,1583551781500,-0.6595,0.22489999,-0.97669995,7.336361,0.70998615,0.10440635,-1
962,963,1583551781510,-2.8265998,0.0919,1.1973,6.9290012999999995,0.5870104,0.6140553000000001,-1
963,964,1583551781520,-2.4737,-0.0148,1.3183,7.745692299999999,0.6160951,0.5784199999999999,-1
964,965,1583551781531,-1.2587999,0.20729999,0.86759996,8.983265,0.8485242000000001,-0.061406485999999996,-1
965,966,1583551781540,-0.2503,0.34039998,-0.0175,9.798941000000001,0.8730600000000001,-1.0573466,-1
966,967,1583551781550,0.30699998,0.29279998,-1.0825,10.200936,0.77938926,-2.0440736,-1
967,968,1583551781560,0.58059996,0.0554,-1.8298999,10.4559965,0.42418549999999994,-2.572953,-1
968,969,1583551781570,0.83529997,-0.2418,-1.9655,10.676368,0.20207062,-2.472157,-1
969,970,1583551781580,0.8853,-0.37759998,-1.6824,10.635666,0.1450503,-2.2526085,-1
970,971,1583551781590,0.5639,-0.40109998,-1.3534,10.259335499999999,0.11962389,-1.9101611,-1
971,972,1583551781601,0.214,-0.46539998,-0.83419997,9.866677000000001,0.13540648,-1.2212152,-1
972,973,1583551781611,-0.0765,-0.4053,-0.1677,9.603057000000002,0.27674099999999996,-0.66524327,-1
973,974,1583551781621,-0.30859998,-0.2537,0.27899998,9.35179,0.46745349999999997,-0.30317298,-1
974,975,1583551781632,-0.5907,-0.13319999,0.4428,9.083428,0.5698488,-0.24385424,-1
975,976,1583551781643,-0.7075,-0.0995,0.4317,9.113309,0.6536841,-0.41074923,d
976,977,1583551781653,-0.5606,-0.0036,0.1118,9.3465805,0.68025976,-0.7925095,-1
977,978,1583551781663,-0.1695,-0.014599998999999999,-0.39609998,9.972521,0.60597247,-1.2756020000000001,-1
978,979,1583551781673,0.4666,-0.1671,-0.6555,10.790438,0.17868407,-1.407149,-1
979,980,1583551781684,1.1618998999999999,-0.5561,-0.7643,11.26109,0.047319002,-1.5749538,-1
980,981,1583551781694,1.5440999,-0.5721,-0.99969995,11.036006,0.21373516,-1.7951534,-1
981,982,1583551781704,1.1329,-0.4274,-1.1191,10.358438,0.29333758,-1.689703,-1
982,983,1583551781714,0.46769997,-0.37539998,-0.98469996,9.876696,0.48503652,-1.4589595,-1
983,984,1583551781724,0.0481,-0.1815,-0.7215,9.645588,0.70937324,-1.1456351,-1
984,985,1583551781734,-0.2241,0.023699999,-0.30949998,9.441735000000001,0.8616923000000001,-0.61812544,-1
985,986,1583551781744,-0.32009998,0.1064,0.14299999,9.5052395,0.9982959000000001,-0.27613762,-1
986,987,1583551781755,-0.22989999,0.19319999,0.4218,9.675889,0.8905568000000001,-0.3667917,-1
987,988,1583551781765,-0.0133,0.0381,0.26819998,9.925116000000001,0.7040581,-0.53962433,-1
988,989,1583551781775,0.17369999,-0.1645,0.1541,9.958663,0.48771805,-0.38627094,-1
989,990,1583551781785,0.19409999,-0.36839998,0.3121,9.906756,0.43504560000000003,-0.2908668,-1
990,991,1583551781795,0.10669999599999999,-0.4012,0.3585,9.678024,0.53813034,-0.5747042,-1
991,992,1583551781805,-0.16659999,-0.2943,0.0067,9.34025,0.78385204,-1.0901756999999999,-1
992,993,1583551781816,-0.4592,-0.0288,-0.4874,8.994355,1.1553843000000001,-0.80174154,-1
993,994,1583551781826,-0.76089996,0.2394,-0.1583,8.414576,1.2310411,0.45848003,-1
994,995,1583551781836,-1.3354,0.27399999999999997,1.0754,7.657203,1.217892,1.9444653000000003,-1
995,996,1583551781846,-2.0844,0.2137,2.5911,6.8027024,1.2368829,3.4777887,-1
996,997,1583551781856,-2.9304,0.17289999,4.1478,6.249125,1.3668593,4.2802963,-1
997,998,1583551781867,-3.5907,0.2972,5.1259,5.6542997,1.5959078000000002,4.923475,-1
998,999,1583551781877,-4.0668,0.46519998,5.6322,5.22569,1.84818,4.7087817,-1
999,1000,1583551781887,-4.4975,0.69949996,5.4107,4.862058599999999,2.2206794999999997,4.5184809999999995,-1
1000,1001,1583551781897,-5.4479,1.403,5.3452,4.055845,2.5668428,4.8733687,-1
1001,1002,1583551781908,-6.112,1.4247,5.9554996,3.4858809999999996,2.4703853,5.727917,-1
1002,1003,1583551781918,-6.4326,1.2695999,7.1977,3.2849882000000004,2.2570232999999997,6.955491,-1
1003,1004,1583551781928,-6.4677997000000005,0.9651,8.3812,3.3262644,1.8660313000000002,8.046375,-1
1004,1005,1583551781939,-6.3936996,0.6845,9.2006,3.3249524,1.5859478999999999,8.839163000000001,-1
1005,1006,1583551781949,-6.799299700000001,0.63199997,10.0444,2.8350701000000003,1.5223962,9.649486,-1
1006,1007,1583551781959,-7.4504,0.7040000000000001,10.6096,2.2019759999999997,1.536206,10.040037,-1
1007,1008,1583551781970,-8.005199000000001,0.83959997,10.3125,1.5454860000000001,1.5097165000000001,9.452903,-1
1008,1009,1583551781980,-8.5223,0.5943,9.5257,1.1936245,0.9392835999999999,8.535032000000001,-1
1009,1010,1583551781990,-8.46,-0.2271,8.419,1.431292,0.04684974,7.5590982,-1
1010,1011,1583551782001,-7.5906,-1.4399998999999999,7.2131996,2.8647294,-1.5661334999999998,6.286589,-1
1011,1012,1583551782011,-5.6854997,-2.4313,6.7567,4.9719524,-2.5586738999999996,5.814280999999999,-1
1012,1013,1583551782021,-3.6655998,-3.0525,6.3292,6.717200999999999,-3.1854565,5.0973225,-1
1013,1014,1583551782031,-2.4343998,-3.2066,5.5181,7.411270599999999,-3.3564026,4.0804089999999995,-1
1014,1015,1583551782041,-2.6116998,-3.1452,4.7079,6.7230906,-3.4481869,3.208508,-1
1015,1016,1583551782052,-3.6501,-3.1581,4.0965,5.6086472999999994,-3.8328967000000005,2.3019483,-1
1016,1017,1583551782062,-4.1481,-3.6625997999999997,3.2085998,5.838941,-4.9686675000000005,0.8202726,-1
1017,1018,1583551782073,-3.4562,-4.8493,1.4351,6.847742599999999,-6.107475,-1.1535169,-1
1018,1019,1583551782083,-1.3554,-5.8094,-1.2342,10.1074,-7.099133999999999,-4.470396,-1
1019,1020,1583551782093,1.704,-6.0025997,-3.8074,13.341373,-6.984949,-6.924261,-1
1020,1021,1583551782103,4.1816,-5.5231,-5.3279,14.475420000000002,-6.678223599999999,-7.3275213,-1
1021,1022,1583551782113,4.8988,-5.0715,-5.4396996,13.575181,-6.666281,-7.105109,-1
1022,1023,1583551782124,3.8613,-4.9098997,-5.0232,12.229257,-6.7538705000000006,-6.6528068,-1
1023,1024,1583551782134,2.5844,-4.9335,-4.5708,11.320293,-7.334339599999999,-7.305648,-1
1024,1025,1583551782144,1.9097998999999999,-5.4953,-5.4431,11.918861999999999,-8.043311,-9.166822999999999,-1
1025,1026,1583551782154,2.9106998,-5.9663,-7.4124,13.693407,-8.120041,-11.727260000000001,-1
1026,1027,1583551782164,4.7844,-5.7716,-10.038,15.302204999999999,-7.800759299999999,-13.785670000000001,-1
1027,1028,1583551782174,6.2447996,-5.2999,-11.8018,15.622644000000001,-7.5949636,-14.253257999999999,-1
1028,1029,1583551782184,6.2689,-4.9776,-12.0112,14.476856,-7.475703200000001,-13.463535,-1
1029,1030,1583551782195,4.9923997,-4.777,-10.998199000000001,12.882769,-7.444731699999999,-12.007688,-1
1030,1031,1583551782205,3.3959,-4.6551,-9.6058,11.444256,-7.376688499999999,-11.394092,-1
1031,1032,1583551782216,2.0795,-4.5376997,-9.2649,10.735352,-7.297211,-12.174046,-1
1032,1033,1583551782226,1.5654,-4.3703,-10.278399,10.950446000000001,-7.084663000000001,-13.554982999999998,-1
1033,1034,1583551782236,1.9545,-4.0680000000000005,-11.672199,11.776666,-6.656675999999999,-14.955841,-1
1034,1035,1583551782246,2.6771,-3.6374998,-12.8335,11.902917,-6.2960224,-15.480276000000002,-1
1035,1036,1583551782256,2.8134,-3.1971,-13.395598999999999,11.348334,-6.1282177,-15.240635999999999,-1
1036,1037,1583551782266,2.0535,-2.9914,-13.000199,9.947861,-6.0026946,-13.940221,-1
1037,1038,1583551782276,0.8706,-2.8766,-11.8473,8.394722999999999,-5.8152475,-12.550022,-1
1038,1039,1583551782286,-0.67829996,-2.701,-10.4464,7.3820896,-5.4397125,-11.591192,-1
1039,1040,1583551782296,-1.6989,-2.3444998,-9.4648,6.7890368,-4.9125953,-11.464519500000002,-1
1040,1041,1583551782306,-2.2884998,-1.8262,-9.326099000000001,6.673272,-4.5002084,-11.839317,-1
1041,1042,1583551782316,-2.4076998,-1.415,-9.7141,6.819395,-4.3256516,-12.741280999999999,-1
1042,1043,1583551782327,-2.2528,-1.2285,-10.6297,7.335603999999999,-4.211305,-13.705176000000002,-1
1043,1044,1583551782337,-1.7465,-1.0964999,-11.6374,7.6755614,-4.111984,-13.584969000000001,-1
1044,1045,1583551782347,-1.4079,-0.9917,-11.540999000000001,7.138944,-4.507228400000001,-11.725536,-1
1045,1046,1583551782357,-1.9526,-1.3956,-9.6936,6.150915,-5.204975,-8.747321000000001,-1
1046,1047,1583551782368,-3.7365,-2.406,-4.348799700000001,5.268939,-5.4802610000000005,-6.2004747,-1
1047,1048,1583551782378,-4.1905,-2.4594,-3.9290998,4.86904,-5.4957465999999995,-6.1279497,-1
1048,1049,1583551782388,-4.0546,-2.5463,-4.8047,5.188982,-5.619603,-7.0902944,-1
1049,1050,1583551782398,-4.0546,-2.5463,-4.8047,5.922162999999999,-5.7680917,-7.8240213,-1
1050,1051,1583551782408,-2.3336,-3.1283998,-6.3251,6.8830233,-6.3811507,-8.314574,-1
1051,1052,1583551782418,-1.7119,-3.5597,-6.1909,7.4960637000000006,-6.812596000000001,-7.9537683,-1
1052,1053,1583551782428,-1.5338,-3.9624,-5.2784,7.480846400000001,-7.278430499999999,-6.8171735,-1
1053,1054,1583551782438,-2.2126,-4.3694997,-3.5672,6.6969843,-7.6699399999999995,-4.9570894,-1
1054,1055,1583551782448,-2.9517999,-4.6369,-1.7840999,6.0908489999999995,-7.949688,-3.204543,-1
1055,1056,1583551782458,-2.9738,-4.812,-0.5038,6.1685360000000005,-8.102802,-2.0023763,-1
1056,1057,1583551782469,-2.9738,-4.812,-0.5038,6.5263925,-8.067071,-1.503664,-1
1057,1058,1583551782479,-2.3128,-4.5656,0.022599999,6.7665690000000005,-7.910758500000001,-1.5878153999999998,-1
1058,1059,1583551782490,-2.4057999,-4.6088,-0.2527,6.701007000000001,-8.031503,-1.7315154,-1
1059,1060,1583551782500,-2.2314,-4.6956,-0.0585,6.908564999999999,-8.190478,-1.2490072,-1
1060,1061,1583551782510,-1.8966999,-4.7476997,0.5412,7.43957,-8.289186,-0.40922654,-1
1061,1062,1583551782520,-1.8966999,-4.7476997,0.5412,7.744179700000001,-8.338275999999999,0.41310513,-1
1062,1063,1583551782530,-1.1714,-4.907,3.3109998999999997,7.826884700000001,-8.592111000000001,2.8133209999999997,-1
1063,1064,1583551782541,-1.2932,-5.0573997,5.0343,7.725926400000001,-8.819359,4.5429115,-1
1064,1065,1583551782551,-1.1105,-5.0979,6.3971995999999995,8.108491,-8.718475,5.4765544,-1
1065,1066,1583551782561,-0.5632,-4.6035,6.2089,8.673062,-8.150916,4.6420603,-1
1066,1067,1583551782571,0.0142,-3.9016,4.7476,9.402328,-7.291876299999999,3.2356966000000003,-1
1067,1068,1583551782581,0.7188,-3.0681,4.0892,9.961277,-6.702720599999999,3.4626381,-1
1068,1069,1583551782591,1.3534,-2.4224,5.1856,10.364097000000001,-6.2385902,5.182633,-1
1069,1070,1583551782602,1.2889999,-2.0851998,7.5224,10.020643,-6.011639,7.6978087,-1
1070,1071,1583551782612,0.78209996,-1.9121,9.7605,9.517142999999999,-5.901294999999999,9.69711,-1
1071,1072,1583551782622,0.66029996,-1.8591,10.872499000000001,9.941549,-5.902981,10.259383999999999,-1
1072,1073,1583551782632,1.4765999,-1.7486999,11.1101,10.864225999999999,-5.8740879999999995,10.296312,-1
1073,1074,1583551782642,2.8781998,-1.9049,11.4049,12.405107000000001,-6.286512999999999,11.006155,-1
1074,1075,1583551782652,4.0966,-2.2207,11.9904995,13.606603,-6.691573,11.313953,-1
1075,1076,1583551782663,5.2148,-2.4343998,11.8459,14.56143,-6.7689443,10.5546465,-1
1076,1077,1583551782673,6.1502,-2.3494,10.7335,15.295654,-6.5938039999999996,9.528846000000001,-1
1077,1078,1583551782683,6.7137,-2.0798,9.939099,15.562609,-6.396262999999999,9.469489,-1
1078,1079,1583551782693,6.7658,-1.9527999,10.3363,15.207241,-6.3884196,10.158253,-1
1079,1080,1583551782703,6.1896996,-2.0042,10.9274,14.535927,-6.4159144999999995,10.564071,-1
1080,1081,1583551782713,5.5873,-1.9901999,11.190499,14.211751000000001,-6.1912139999999996,10.740226,-1
1081,1082,1583551782724,5.4142,-1.7933999,11.1973,14.214376000000001,-6.009915400000001,10.135297999999999,-1
1082,1083,1583551782734,5.4368,-1.6653999,10.42,14.293431,-5.9666667,8.930678,-1
1083,1084,1583551782744,5.4981,-1.6564,9.042,14.5123005,-6.0503774,7.200227000000001,-1
1084,1085,1583551782754,5.7153,-1.8568,7.1779,14.913673000000001,-6.3492026,4.9784265,-1
1085,1086,1583551782765,6.1742,-2.1738,4.8817,15.459647,-6.359229599999999,3.0821517000000003,-1
1086,1087,1583551782775,6.6477,-2.1811,3.1455,15.621582,-6.117406,2.1241167,-1
1087,1088,1583551782785,6.6995997,-2.0328999,2.4531999,15.351007999999998,-5.9649525,2.3696563,-1
1088,1089,1583551782796,6.1017,-1.8786,3.0862,14.074956,-5.766617,3.4274626000000006,-1
1089,1090,1583551782806,5.0457,-1.9228,3.8209998999999994,13.401678,-5.763284,3.1830146,-1
1090,1091,1583551782817,4.3223,-2.0537999,3.6283998,13.500260999999998,-5.705986,2.1369495,-1
1091,1092,1583551782827,4.6428,-2.2242,1.2445998999999999,13.891829500000002,-5.6603427,0.45013863,-1
1092,1093,1583551782837,4.7731,-2.4036999,0.043399997,14.010426999999998,-5.7293725,-0.71774334,-1
1093,1094,1583551782847,4.7468,-2.7259,-0.6584,14.040681,-5.909138700000001,-1.3089197,-1
1094,1095,1583551782857,4.867,-2.8421,-0.912,14.203066,-5.844447,-1.516564,-1
1095,1096,1583551782868,4.7514,-2.8727,-0.7438,14.051311499999999,-5.7178903,-1.3564398000000002,-1
1096,1097,1583551782878,4.1445,-2.9385,-0.6087,13.422248999999999,-5.589388400000001,-1.3256598999999998,-1
1097,1098,1583551782888,3.2926998,-2.9090998,-0.8279,12.603900999999999,-5.3678,-1.6548243999999999,-1
1098,1099,1583551782898,2.4823,-2.8566,-1.3558999,11.874235,-5.114934,-2.2650297000000004,-1
1099,1100,1583551782908,2.0578,-2.7066998,-1.7050999,11.599045,-4.7386327,-2.5172732000000004,-1
1100,1101,1583551782918,1.8925999,-2.6346,-1.3089,11.443154,-4.5558404999999995,-2.0224109,-1
1101,1102,1583551782929,1.5361999,-2.9673,-0.5467,11.079839,-4.735367299999999,-1.297868,-1
1102,1103,1583551782939,1.0375,-3.3344,0.1708,10.573953,-4.907012,-0.67183214,-1
1103,1104,1583551782949,0.37759998,-3.6759,0.4703,9.9303255,-5.024155599999999,-0.5891364,-1
1104,1105,1583551782959,-0.041699997999999995,-3.725,0.3516,9.619424,-4.738891000000001,-0.851675,-1
1105,1106,1583551782969,-0.24149999,-3.3985999,-0.4649,9.38798,-4.2183347,-1.9043288,-1
1106,1107,1583551782980,-0.7528,-3.2456,-1.6852,8.712241,-3.8859043,-3.1853898,-1
1107,1108,1583551782989,-1.37,-3.1717,-1.9923999,8.237557,-3.5933328,-3.1473505,-1
1108,1109,1583551782999,-1.37,-3.1717,-1.9923999,7.800826,-3.2582405,-2.7389857999999996,-1
1109,1110,1583551783009,-2.5702999,-2.8281,-0.9144,7.017798,-2.8767388,-2.1365472999999997,-1
1110,1111,1583551783020,-3.1787999,-2.7382,-0.3678,6.269428,-2.4792054,-1.4827483,-1
1111,1112,1583551783030,-3.8284,-2.6011,0.3532,5.665141,-2.203058,-0.9422046000000001,-1
1112,1113,1583551783040,-4.5313,-2.6357,0.8206,4.9271519999999995,-2.0828693,-0.657103,-1
1113,1114,1583551783051,-5.0062,-2.7182999,0.88369995,4.5015593,-1.8494921000000002,-0.85409796,-1
1114,1115,1583551783061,-5.3441,-2.5397,0.43609998,4.19309,-1.4456764,-1.5899128,-1
1115,1116,1583551783071,-5.4976,-2.2371,-0.3971,4.0364037,-0.8945886999999999,-2.3271450000000002,-1
1116,1117,1583551783082,-5.7595997,-1.7673999,-0.7823,3.6562620000000003,-0.28479508,-2.5868487,-1
1117,1118,1583551783092,-6.2254,-1.3709999,-0.98969996,2.917076,0.33847308,-2.8170943,-1
1118,1119,1583551783102,-6.8643,-1.0409,-1.1121,2.4409366,0.8468962,-2.9863262,-1
1119,1120,1583551783113,-7.155999700000001,-0.6491,-1.2142998999999999,2.2018994999999997,1.4026575000000001,-2.9432495,-1
1120,1121,1583551783123,-7.3863997,-0.2818,-0.9781,1.8983816999999998,1.7938987000000002,-2.4840512,-1
1121,1122,1583551783134,-7.6548,-0.0954,-0.27199998,1.4748473999999998,2.1590338,-1.3140528,-1
1122,1123,1583551783144,-8.0127,0.1087,0.7884,0.85349464,2.6218805,-0.4960307,-1
1123,1124,1583551783154,-8.6788,0.49159998,1.499,-0.009299079,3.220977,-0.43061155,-1
1124,1125,1583551783164,-9.4789,1.0297999,1.4470999,-0.54782206,3.8537739999999996,-0.7484466,-1
1125,1126,1583551783175,-10.000899,1.7581999,0.85889995,-0.7158376000000001,4.8051915,-1.9957203999999997,-1
1126,1127,1583551783185,-9.950399,2.4538,-0.37539998,-0.2349095,5.301433,-3.4482057,-1
1127,1128,1583551783195,-9.383699,2.8759,-1.7974,0.3351978,5.5444827000000005,-4.346912400000001,-1
1128,1129,1583551783205,-8.8852,3.0237,-2.4981,0.49393338,5.4247246,-4.286512,-1
1129,1130,1583551783215,-8.795899,2.8374,-2.2163,0.3446597,5.2123017,-3.429493,-1
1130,1131,1583551783225,-9.0088,2.6369998,-1.2456,-0.15706922,5.170182700000001,-2.146373,-1
1131,1132,1583551783236,-9.5175,2.5742,0.1192,-0.8356722,5.1163707,-1.1849096000000001,-1
1132,1133,1583551783246,-10.2372,2.5105,0.9025,-1.5397302,5.077795500000001,-1.0914495000000002,-1
1133,1134,1583551783256,-10.8782,2.478,0.826,-2.2830055000000002,4.977057,-1.7237102999999998,-1
1134,1135,1583551783267,-11.533299000000001,2.3997998,0.2661,-2.4105206000000003,4.7692213,-2.3575418,-1
1135,1136,1583551783277,-11.684899,2.2573,-0.41329998,-1.9109082,4.7380295,-2.5273576,-1
1136,1137,1583551783287,-11.2191,2.3221,-0.6161,-1.4006273,4.763685700000001,-2.082534,-1
1137,1138,1583551783297,-10.7497,2.4706,-0.228,-1.0978277,4.61605,-1.2584403,-1
1138,1139,1583551783308,-10.5442,2.3865,1.1142,-1.1703433,4.316401,-0.52317137,-1
1139,1140,1583551783318,-11.097999999999999,2.0872,1.5586,-1.8104186999999998,3.8366795,-0.19561586,-1
1140,1141,1583551783328,-12.1109,1.6801,1.4205999,-2.824047,3.2673862000000002,-0.35474408,-1
1141,1142,1583551783338,-13.1052,1.1733,1.2866,-3.7065976000000003,2.5424986,-0.43742067,-1
1142,1143,1583551783348,-13.5729,0.5862,1.5489,-4.01748,1.7705122,-0.019900605,-1
1143,1144,1583551783358,-13.435498999999998,0.48299998,2.0046,-3.7557172999999997,1.5285445,0.3985484,-1
1144,1145,1583551783368,-13.1213,0.49269998,1.7433,-3.4197915,1.2051741000000002,0.06778464,-1
1145,1146,1583551783379,-12.8203,0.22729999,1.0961,-3.1067927,0.54486287,-0.47955859999999995,-1
1146,1147,1583551783389,-12.753099,-0.5347,0.7834,-3.009186,-0.7316298000000001,-0.58164734,-1
1147,1148,1583551783399,-12.2202,-2.1369,1.1369,-2.1667717,-2.9780612,-0.08913134,-1
1148,1149,1583551783409,-10.8108,-3.4829,1.3695998999999999,-0.66846114,-4.2823267,0.036545094,-1
1149,1150,1583551783419,-9.5876,-3.3009998999999994,1.102,0.25663927,-4.127364,-0.25724262,-1
1150,1151,1583551783430,-9.5897,-2.8234,0.7837,-0.09629479,-4.304765,-0.18340543,-1
1151,1152,1583551783440,-10.475699,-3.5744,1.5626,-0.98776144,-5.709845,1.0472429,-1
1152,1153,1583551783450,-10.373799,-5.6110997000000005,3.0317,-0.23731329,-8.99061,2.988002,-1
1153,1154,1583551783460,-8.4248,-8.062799,4.0836997,1.958754,-11.708834,3.9482782,-1
1154,1155,1583551783470,-5.9728,-9.9105,4.8859,4.097906,-13.763279,4.594253,-1
1155,1156,1583551783480,-4.2293,-11.328099,4.7239,5.1145225,-15.286719,4.293847599999999,-1
1156,1157,1583551783490,-2.8848,-12.5798,4.0027,6.8310885,-16.873672,3.3822410000000005,-1
1157,1158,1583551783500,-0.56869996,-12.4453,2.7624,8.978285000000001,-16.791151,2.3603764,-1
1158,1159,1583551783511,1.2243998999999999,-11.9022,2.1921,9.923964999999999,-17.09713,2.405761,-1
1159,1160,1583551783521,1.4167,-12.6865,2.7091,9.539697,-18.277699,3.0420822999999997,-1
1160,1161,1583551783531,0.8851,-13.993898999999999,3.7219,9.104574000000001,-20.273285,4.2411465999999995,-1
1161,1162,1583551783541,2.3198,-14.990398999999998,4.0926,11.701201,-20.89712,3.7633019999999995,-1
1162,1163,1583551783551,5.2521,-14.3568,3.0844,14.206973000000001,-20.163631,2.6030145,-1
1163,1164,1583551783562,7.4895997,-13.470999999999998,1.9578999,15.244724,-19.836832,1.739943,-1
1164,1165,1583551783572,8.7387,-12.6937,0.7387,16.34375,-18.930168,0.3694445,-1
1165,1166,1583551783582,9.774099,-11.511,-0.2364,16.749031,-18.356947,-0.05083369,-1
1166,1167,1583551783592,10.3301,-10.5771,-0.4184,16.752499,-17.469973,0.13044567,-1
1167,1168,1583551783602,10.009999,-9.8336,-0.08,15.768309,-17.039104000000002,0.65276474,-1
1168,1169,1583551783612,9.0096,-9.415299000000001,0.6344,14.485457,-17.208822,1.4517385,-1
1169,1170,1583551783623,8.1756,-9.720099000000001,0.972,14.214528,-17.425852,1.0029119,-1
1170,1171,1583551783633,8.6788,-9.243199,0.1136,15.165830999999999,-16.436846,0.12459426,-1
1171,1172,1583551783643,9.7824,-8.0429,-0.7952,15.737184,-15.462415,-0.62774056,-1
1172,1173,1583551783653,10.2878,-6.91,-1.4864998999999999,15.808675,-14.218618,-1.1198735,-1
1173,1174,1583551783663,10.2485,-5.561,-1.8435999,15.252233499999999,-13.139102,-1.1818546,-1
1174,1175,1583551783673,9.5371,-4.6309,-1.7445998999999999,13.905992999999999,-12.449561,-0.98654515,-1
1175,1176,1583551783684,8.4431,-4.0569,-1.5582,12.915186,-11.894739,-0.69479734,-1
1176,1177,1583551783694,7.5929,-3.4218,-1.2077999,12.196867999999998,-11.25111,-0.4082018,-1
1177,1178,1583551783704,6.6692,-2.6339998,-0.9209,10.749536,-10.937259,-0.3083157,-1
1178,1179,1583551783714,5.5491,-2.5737997999999997,-0.8527,10.270551,-10.958778,-0.24228363,-1
1179,1180,1583551783724,5.3139997,-2.445,-0.815,10.414681,-10.721407000000001,-0.58098656,-1
1180,1181,1583551783734,5.5702,-2.1991,-1.3043,10.40772,-10.541134,-1.3412796,-1
1181,1182,1583551783745,5.5353,-1.9483,-2.0626,10.088046,-10.303628999999999,-1.8117020000000001,-1
1182,1183,1583551783755,5.2123,-1.7054,-2.4443,9.559367,-10.081762,-1.6686245,-1
1183,1184,1583551783766,4.7075,-1.4116,-2.1587,8.990304,-9.703650999999999,-1.1766256000000002,-1
1184,1185,1583551783776,4.0913,-1.0265,-1.6377,8.04968,-9.259594,-0.45019612,-1
1185,1186,1583551783786,3.1417,-0.5779,-0.8577,7.005597,-8.863114,0.20320068,-1
1186,1187,1583551783796,2.0906,-0.19999999,-0.28599998,5.8775260000000005,-8.616253,0.51178455,-1
1187,1188,1583551783806,1.1904,0.0026999997999999996,-0.0557,5.6139145,-8.754149,0.45285845,-1
1188,1189,1583551783816,0.9572,-0.1327,-0.1193,6.010375,-9.128565,0.21002895,-1
1189,1190,1583551783826,1.3823,-0.4887,-0.37849998,6.4642773,-9.296771000000001,0.09496362,-1
1190,1191,1583551783837,1.9768,-0.7908,-0.9151,6.548083999999999,-9.464355,-0.29937097,-1
1191,1192,1583551783847,1.9768,-0.7908,-0.9151,6.0278816,-9.46086,-0.29685229999999996,-1
1192,1193,1583551783857,1.4842,-0.7737,-0.92859995,5.6028150000000005,-9.367773,0.08277234,-1
1193,1194,1583551783868,0.83879995,-0.5043,-0.0563,5.374187999999999,-9.186677,0.6157504,-1
1194,1195,1583551783878,0.41759998,-0.2883,0.5319,4.9542737,-8.9718685,1.2027513,-1
1195,1196,1583551783888,-0.0145,-0.0828,0.6789,4.526545,-8.764253,1.3521014,-1
1196,1197,1583551783898,-0.20799999,0.1731,0.3107,4.325259,-8.478347,0.8848395,-1
1197,1198,1583551783908,-0.20799999,0.1731,0.3107,4.4683757,-8.5503645,0.4443351,-1
1198,1199,1583551783918,0.4341,0.0663,-0.7112,5.0586033,-8.646956,-0.10588117,-1
1199,1200,1583551783929,0.9314,-0.092599995,-1.0776,5.4832487,-8.825535,-0.46015596,-1
1200,1201,1583551783939,1.1699,-0.2439,-1.4824,5.6468015,-8.96595,-0.82213056,-1
1201,1202,1583551783949,1.2046,-0.3006,-1.4199,5.6609845000000005,-9.034865,-0.6475071,-1
1202,1203,1583551783959,1.0540999,-0.4195,-1.0128,5.4948845,-9.135853,-0.20823808,-1
1203,1204,1583551783969,0.8081,-0.4141,-0.47869998,5.229588,-9.111939,0.32418448,-1
1204,1205,1583551783979,0.45009997,-0.31239998,-0.1278,4.876702,-8.999066000000001,0.6357371999999999,-1
1205,1206,1583551783990,0.1028,-0.31849998,0.21949999,4.5803185,-9.009755,0.94433063,-1
1206,1207,1583551784000,-0.0042999996999999995,-0.33269998,0.23429999,4.5375104,-9.043838000000001,0.8445786,-1
1207,1208,1583551784010,0.1998,-0.31469998,-0.16699999999999998,4.795068700000001,-9.00734,0.43367612,-1
1208,1209,1583551784020,0.5668,-0.3337,-0.6975,5.2353244000000005,-9.038207,-0.25359383,-1
1209,1210,1583551784030,0.9062,-0.4209,-1.3500999,5.542778,-9.176486,-0.8022874,d
1210,1211,1583551784041,1.1729,-0.6078,-1.5841,5.716511,-9.318147,-0.7979013,-1
1211,1212,1583551784051,1.2048,-0.7097,-0.9859,5.653132,-9.470226,0.05147534,-1
1212,1213,1583551784061,0.92179996,-0.9237,-0.302,5.373144,-9.636796,0.5406203,-1
1213,1214,1583551784071,0.4533,-1.0340999,0.2016,4.8418612,-9.6237135,1.1811171999999999,-1
1214,1215,1583551784082,0.1885,-0.9501,0.6232,4.784697,-9.595951,1.4774139,-1
1215,1216,1583551784092,0.1919,-0.9241,0.8662,4.8362680000000005,-9.550423,1.5435226999999998,-1
1216,1217,1583551784102,0.2796,-0.8276,0.6920000000000001,5.124942,-9.465993,1.0571933,-1
1217,1218,1583551784112,0.64849997,-0.90529996,0.0823,5.670935,-9.573608,0.45391193,-1
1218,1219,1583551784124,1.2669,-0.96159995,-0.43559998,6.267024,-9.6306095,0.06007531,-1
1219,1220,1583551784134,1.7572999,-1.077,-0.86359996,6.584964299999999,-9.8111515,-0.366016,-1
1220,1221,1583551784144,1.8986,-1.2833999,-1.1388,6.66268,-10.152182,-0.10365935400000001,-1
1221,1222,1583551784154,1.9832,-1.6697999,-0.76739997,6.908574000000001,-10.611015,0.6523529,-1
1222,1223,1583551784164,2.2289,-2.1178,-0.027999998999999998,7.3226852,-10.964275,1.0228796,-1
1223,1224,1583551784174,2.6571999,-2.4996998,0.2564,7.8541307,-11.215811,1.120678,-1
1224,1225,1583551784184,3.3371,-2.747,0.2793,8.687111999999999,-11.324066,0.89951116,-1
1225,1226,1583551784195,3.9347,-2.8404,-0.0169,9.087892,-11.417315499999999,0.5145331,-1
1226,1227,1583551784205,4.2615,-2.9965,-0.4421,9.420648,-11.721532,0.05774814599999999,-1
1227,1228,1583551784215,4.5432,-3.3621,-0.8831,9.979646,-11.971641,-0.23316652,-1
1228,1229,1583551784225,5.1333,-3.6028,-1.1968,10.83361,-12.279964999999999,-0.5809194999999999,-1
1229,1230,1583551784235,5.9518,-4.0234,-1.5277,11.771925999999999,-12.812273,-0.8467429,-1
1230,1231,1583551784245,6.8385,-4.5675,-1.7477,12.690648,-13.126928,-0.95471185,-1
1231,1232,1583551784256,7.5481997000000005,-4.9452,-1.7667999,13.219057999999999,-13.485657999999999,-0.8365149,-1
1232,1233,1583551784266,7.8868,-5.2878,-1.6356,13.575306,-13.299253,-0.8726961,-1
1233,1234,1583551784277,8.1151,-5.1695,-1.6285,13.590426999999998,-13.119182,-0.8108395,-1
1234,1235,1583551784287,7.8048,-5.0669,-1.4104999,12.582439,-13.345817000000002,-0.44514915,-1
1235,1236,1583551784297,6.3936,-5.5179996,-1.0777999,12.38081,-13.314051000000001,-0.49743852,-1
1236,1237,1583551784307,6.7472997,-5.3974,-0.97349995,12.970309,-13.014469,-0.39917090000000005,-1
1237,1238,1583551784318,7.0841,-5.111799700000001,-0.56659997,13.365257999999999,-12.558987,0.009097965999999999,-1
1238,1239,1583551784328,6.5151997,-4.9030000000000005,-0.0704,12.7659025,-12.300815,0.40947554,-1
1239,1240,1583551784338,6.5151997,-4.9030000000000005,-0.0704,11.875853999999999,-12.308007,0.41199422,-1
1240,1241,1583551784348,4.3809,-5.0179,-0.2243,11.219967,-11.93613,-0.0052863974,-1
1241,1242,1583551784358,4.2219,-4.567,-0.4236,11.267803,-11.264834,-0.30090326,-1
1242,1243,1583551784368,3.906,-4.1384,-0.57739997,11.069955,-10.676378,-0.46925396,-1
1243,1244,1583551784378,3.1862,-4.0,-0.5595,10.483500999999999,-10.370006,-0.48075572,-1
1244,1245,1583551784389,3.1862,-4.0,-0.5595,9.982116,-10.117848,-0.27935547,-1
1245,1246,1583551784399,1.2773,-3.7108998,0.16409999,8.933933999999999,-9.506858,0.1581035,-1
1246,1247,1583551784409,1.2773,-3.7108998,0.16409999,8.293351,-9.039864999999999,0.4378995,-1
1247,1248,1583551784419,-0.4477,-3.0598998,1.0646,7.603592,-8.228038,0.91287076,-1
1248,1249,1583551784429,-0.778,-2.7854,1.4320998999999999,7.6288075,-7.795569,1.0912771,-1
1249,1250,1583551784439,-0.778,-2.7854,1.4320998999999999,7.8963646999999995,-7.3624673,1.1504426,-1
1250,1251,1583551784450,-0.5445,-2.1584,1.6086999,8.105244,-6.625627499999999,1.0742495,-1
1251,1252,1583551784460,-0.85209996,-1.8041999,1.5062,7.7362213,-5.9655843,0.8217571,-1
1252,1253,1583551784470,-1.4374,-1.4813,1.3177999,7.283046700000001,-5.342144,0.5794543000000001,-1
1253,1254,1583551784480,-1.9362999,-1.0396,1.0882,6.943797999999999,-4.6550845999999995,0.24669854,-1
1254,1255,1583551784490,-2.3664,-0.6412,0.8340000000000001,6.6699204,-4.131645,0.11074619,-1
1255,1256,1583551784501,-2.8051,-0.15519999,0.848,6.2280370000000005,-3.2808415999999996,0.13204502,-1
1256,1257,1583551784511,-3.2322998,0.2746,0.9086,5.948308,-2.7957572999999996,0.09226295,-1
1257,1258,1583551784521,-3.4613998,0.4755,0.7626,5.904302599999999,-2.3540172999999998,-0.14078863,-1
1258,1259,1583551784531,-3.2672,0.56659997,0.6175,6.331351799999999,-2.329654,-0.37795824,-1
1259,1260,1583551784541,-2.613,-0.1626,0.6297,7.115835700000001,-3.181377,-0.22681709,-1
1260,1261,1583551784551,-1.8357999,-1.193,0.92319995,7.9397955,-4.0567737,-0.21819797,-1
1261,1262,1583551784562,-1.374,-1.9420998999999999,0.91389996,8.137423,-4.110317,-0.09222465,-1
1262,1263,1583551784572,-1.652,-1.7801,1.1388,7.066275599999999,-3.4501786,0.063092,-1
1263,1264,1583551784582,-3.1992998,-1.2861999,1.1581,5.220413,-2.690393,-0.12785995,-1
1264,1265,1583551784592,-5.1780996,-0.7046,0.83129996,3.3844819999999998,-1.7600063000000001,-0.58479816,-1
1265,1266,1583551784602,-6.7788,0.0128,0.2534,2.4504080000000004,-0.94931054,-0.9002389999999999,-1
1266,1267,1583551784612,-7.290899799999999,0.4321,0.0683,2.5357852000000003,-0.68332434,-0.8088858,-1
1267,1268,1583551784623,-6.9494,0.3645,0.49629998,3.2508566,-0.77258015,0.39117426,-1
1268,1269,1583551784633,-6.1682997,0.0526,2.1262999,3.8608417999999998,-1.1267303999999998,2.3915203,-1
1269,1270,1583551784643,-5.7746997,-0.63,4.1405,4.074873999999999,-1.9449346,4.1403027,-1
1270,1271,1583551784654,-5.645,-1.515,5.4845,3.9950607000000002,-2.4023037,4.5900292,-1
1271,1272,1583551784664,-5.928999999999999,-1.8233,5.2441,3.399096,-2.1733797000000004,3.2965572,-1
1272,1273,1583551784674,-6.4901,-1.5569998999999999,3.8035997999999998,2.8959785,-1.6049004,1.3292511999999999,-1
1273,1274,1583551784684,-6.944,-1.0390999,1.6683999,2.762516,-1.0387866,-0.5996135,-1
1274,1275,1583551784694,-6.9838,-0.60069996,-0.2814,3.1919496,-0.6539139,-1.9115210999999999,-1
1275,1276,1583551784705,-6.4614997,-0.2802,-1.4442999,3.8422627,-0.4158058,-2.0734744,-1
1276,1277,1583551784714,-5.5931,-0.0893,-1.4088,4.842646599999999,-0.19941784,-1.394795,-1
1277,1278,1583551784724,-4.8596997,0.013499998999999999,-0.7107,4.992983000000001,-0.092368305,-0.4664670999999999,-1
1278,1279,1583551784734,-4.8697,0.042,0.2346,4.5730114,-0.014671668,0.3559412,-1
1279,1280,1583551784744,-5.3097,0.0552,0.9862,4.287527,-0.06908708,0.5325184000000001,-1
1280,1281,1583551784755,-5.5327,-0.0783,1.1001999,4.3863783,-0.052509632,0.41571959999999997,-1
1281,1282,1583551784765,-5.3339996,-0.096999995,1.0002999,4.826404,0.01133894,0.13878708,-1
1282,1283,1583551784776,-4.8814,-0.1169,0.68369997,5.277759,0.00500867,-0.3041498,-1
1283,1284,1583551784787,-4.43,-0.1601,0.2667,5.661482299999999,-0.08414182,-0.52697337,-1
1284,1285,1583551784797,-4.1071,-0.3274,0.048499997999999996,5.799302,-0.6048998000000001,-0.6904686,-1
1285,1286,1583551784807,-3.9998,-0.83709997,-0.0924,6.0590253,-0.9702453999999999,-0.7201663,-1
1286,1287,1583551784817,-3.0575,-1.2085,0.046099997999999996,6.924500500000001,-0.8328469999999999,-0.505732,-1
1287,1288,1583551784827,-3.0575,-1.2085,0.046099997999999996,7.602385000000001,-0.37526718,-0.41948327,-1
1288,1289,1583551784838,-2.1938,-0.7073,0.1707,7.893155999999999,0.07939173,-0.39229473,-1
1289,1290,1583551784848,-1.8791,-0.1982,0.20600000000000002,7.724997,0.5401894,-0.11368627,-1
1290,1291,1583551784858,-2.4068,0.2771,0.7737,7.307276,0.70982337,0.27249850000000003,-1
1291,1292,1583551784868,-2.8865,0.096099995,0.66249996,6.836058599999999,0.5209782999999999,0.08390239999999999,-1
1292,1293,1583551784878,-2.9055,-0.3888,0.2686,7.0002723,0.032474954,-0.36749083,-1
1293,1294,1583551784889,-2.9055,-0.3888,0.2686,7.560410000000001,-0.12419203,-0.6674938,-1
1294,1295,1583551784899,-0.52279997,-0.3588,-0.3624,9.702483,0.29524338,-0.84220356,-1
1295,1296,1583551784909,0.64379996,0.0714,-0.30159998,10.5796995,0.6949506,-0.79672325,-1
1296,1297,1583551784919,0.64379996,0.0714,-0.30159998,10.489525,0.91186523,-0.81383705,-1
1297,1298,1583551784929,-0.030499997999999997,0.6604,-0.37669998,9.411109,1.3171747999999999,-0.93064535,-1
1298,1299,1583551784940,-0.78279996,0.8157,-0.4473,8.872183999999999,1.4950736,-0.9177071,-1
1299,1300,1583551784950,-0.92679995,0.9738,-0.2677,8.855386,1.6630796,-0.7437444000000001,-1
1300,1301,1583551784960,-0.82589996,1.0732,-0.1025,9.019867,1.7465988000000001,-0.65626025,-1
1301,1302,1583551784970,-0.6078,1.0173,-0.1008,9.237903,1.696857,-0.67640984,-1
1302,1303,1583551784981,-0.2825,0.97209996,-0.1572,9.617709,1.6391183999999996,-0.79963464,-1
1303,1304,1583551784990,0.0025,0.9069,-0.2886,9.898606,1.5566238000000001,-0.9624308000000001,-1
1304,1305,1583551785000,0.3259,0.8382,-0.44799998,10.203608500000001,1.505407,-1.125045,-1
1305,1306,1583551785010,0.5211,0.76339996,-0.6146,10.332369,1.3720115,-1.2810799,-1
1306,1307,1583551785020,0.569,0.5822,-0.7351,10.356512,1.1974074,-1.3749421999999998,-1
1307,1308,1583551785030,0.6953,0.3328,-0.9438,10.534718,0.89081544,-1.6270228999999998,-1
1308,1309,1583551785040,0.8612,0.19919999,-1.1201999,10.660519,0.82560694,-1.7595083999999999,-1
1309,1310,1583551785050,0.8612,0.19919999,-1.1201999,10.595684,0.7882382,-1.9627857,-1
1310,1311,1583551785060,0.6451,0.111499995,-1.3594998999999999,10.3304825,0.70935404,-1.879477,-1
1311,1312,1583551785070,0.4396,0.1284,-1.0517,10.200027,0.7486765000000001,-1.5980914,-1
1312,1313,1583551785080,0.3223,0.183,-0.66639996,10.017186,0.80350363,-1.1245757,-1
1313,1314,1583551785090,0.0972,0.109799996,-0.3509,9.799478,0.70228636,-0.8642780999999999,-1
1314,1315,1583551785102,-0.0495,0.0274,-0.1047,9.722096,0.65624106,-0.5750776999999999,-1
1315,1316,1583551785112,-0.0198,0.0254,0.14209999,9.814437,0.6740444,-0.46785575,-1
1316,1317,1583551785123,0.0587,0.035099998,0.106,9.882173,0.6339942,-0.63118815,-1
1317,1318,1583551785133,0.1275,-0.033,-0.0867,9.909658,0.5470655,-0.83782697,-1
1318,1319,1583551785143,0.15709999,-0.12079999599999999,-0.2021,9.999269,0.4776241,-0.795191,-1
1319,1320,1583551785153,0.2943,-0.14029999,-0.1542,10.136896,0.55996543,-0.75267,-1
1320,1321,1583551785163,0.3725,-0.0241,-0.1302,10.149107,0.6891662,-0.77553934,d
