,Seq,Time,ACCx,ACCy,ACCz,ADGx,ADGy,ADGz,Keydown
0,1,1583934044295,-0.122099996,-0.22549999,-1.4096,6.835656599999999,-6.5364580000000005,1.6609247999999999,-1
1,2,1583934044305,-0.122099996,-0.22549999,-1.4096,9.650892,1.1154298,-0.71388394,-1
2,3,1583934044316,0.110599995,-0.3401,0.40089998,9.890868,0.69640625,-0.1569926,-1
3,4,1583934044326,0.29009998,-0.4811,0.6292,10.071603,0.5546982,-0.011856087,-1
4,5,1583934044336,0.48209998,-0.45679998,0.2601,10.265235,0.59507406,-0.4291463,-1
5,6,1583934044347,0.5189,-0.22559999,-0.38079998,10.263425999999999,0.84269196,-1.1095306,-1
6,7,1583934044357,0.4694,0.092099994,-0.9413,10.201837,1.1601056,-1.5630115,-1
7,8,1583934044368,0.34309998,0.3102,-0.9238,10.039003,1.3835899999999999,-1.365959,-1
8,9,1583934044378,0.257,0.3728,-0.3566,9.996587,1.3713413,-0.78504914,-1
9,10,1583934044388,0.18069999,0.1872,0.50909996,9.858547,1.1669243999999999,0.24052150000000003,-1
10,11,1583934044398,-0.0004,0.003,0.524,9.709082,1.0575860000000001,0.68140894,-1
11,12,1583934044409,-0.2338,-0.1314,0.5552,9.485472999999999,0.8894841999999998,0.70036143,-1
12,13,1583934044418,-0.2031,-0.16849999,0.3275,9.628321000000001,0.94931054,0.38940254,-1
13,14,1583934044428,0.0324,-0.086399995,-0.26299998,9.843117999999999,0.99997187,-0.08433336,-1
14,15,1583934044438,0.2656,0.0266,-0.88809997,10.043963,1.0912579,-0.7442041,-1
15,16,1583934044448,0.2656,0.0266,-0.88809997,10.070644,1.087025,-0.8628224,-1
16,17,1583934044458,0.2507,-0.0252,-0.89489996,9.998387,0.94293237,-0.42545924,-1
17,18,1583934044469,0.2507,-0.0252,-0.89489996,9.887564999999999,0.8783751000000001,0.10919475,-1
18,19,1583934044479,-0.045399997000000004,-0.1744,0.2717,9.667010000000001,0.8188361,0.55710196,-1
19,20,1583934044489,-0.26209998,-0.1698,0.5365,9.4612055,0.82473546,0.95020115,-1
20,21,1583934044499,-0.3199,-0.1424,1.0107,9.437435,0.8284511999999998,1.5738811000000001,-1
21,22,1583934044510,-0.3269,-0.1645,1.4798,9.376105,0.74426156,2.0137343,-1
22,23,1583934044520,-0.4996,-0.34700000000000003,1.7978,9.128103999999999,0.5778645,2.4998817000000004,-1
23,24,1583934044530,-0.7008,-0.4544,2.017,8.980889,0.56970507,2.4958308,-1
24,25,1583934044540,-0.77379996,-0.39819998,1.6998999,8.995533,0.697747,2.1213968,-1
25,26,1583934044550,-0.63019997,-0.1584,1.2552999,9.220578,0.99513555,1.9340745,-1
26,27,1583934044560,-0.3281,0.20359999,1.2939999,9.466233,1.331157,2.2098482,-1
27,28,1583934044571,-0.1999,0.38869998,1.8632,9.391562,1.5945096,3.486877,-1
28,29,1583934044581,-0.5985,0.5383,2.9617,8.475503,1.7226377,4.293033599999999,-1
29,30,1583934044591,-1.7613,0.5475,3.392,7.148157,1.6669006000000002,4.3563933,-1
30,31,1583934044601,-2.9747,0.3709,3.2157998,6.314180400000001,1.522243,4.127441,-1
31,32,1583934044612,-3.4654,0.2191,2.9071999,6.217167,1.4433684,3.8703322,-1
32,33,1583934044622,-3.1652,0.1184,2.6055,7.064638,1.4836581,3.7327711999999997,-1
33,34,1583934044632,-2.4463,0.21079999,2.6252,7.5369470000000005,1.6773202,3.9585828999999997,-1
34,35,1583934044642,-2.0527,0.4258,2.9979,7.411376,1.8207808,4.6633396,-1
35,36,1583934044652,-2.5419998,0.4877,3.9280998999999994,6.314468,1.6138834,5.7225733,-1
36,37,1583934044662,-3.5695998999999996,0.228,4.6333,5.2465196,1.3542563,5.679343,-1
37,38,1583934044672,-4.5868,-0.033299997000000005,4.4139,4.577656299999999,1.2328702,5.023676999999999,-1
38,39,1583934044683,-5.3306,-0.1419,3.4324,3.9527504,1.1583436000000003,3.6758275,-1
39,40,1583934044693,-5.7925,-0.18899999999999997,2.3007,3.6124578,1.1530955,2.9117610000000003,-1
40,41,1583934044703,-6.178999999999999,-0.1136,1.5899999,3.155376,1.458969,2.7456036,-1
41,42,1583934044713,-6.6169,0.23789999,1.6712999,2.471094,1.9690106,3.0138881,-1
42,43,1583934044723,-7.3501,0.8013,2.0217,1.6127726,2.3735732999999994,3.4379587,-1
43,44,1583934044733,-8.280499,1.1337,2.3981,0.64019996,2.1076252,3.1313381000000002,-1
44,45,1583934044743,-9.2130995,0.80939996,1.9433999,0.10222284,1.548311,2.2715132000000002,-1
45,46,1583934044753,-9.7079,0.023699999,0.84849995,0.07686345,0.2235131,0.8238161,-1
46,47,1583934044763,-9.5681,-1.0221,-0.29099998,0.5635472,-0.63969237,-0.26041254,-1
47,48,1583934044774,-9.066199000000001,-1.6457,-1.2112,1.0367372,-0.9182338,-1.0124984000000001,-1
48,49,1583934044784,-8.679999,-1.7075,-1.8319999,1.027802,-1.0068861999999998,-1.4684309,-1
49,50,1583934044794,-8.7912,-1.6829,-2.1875,0.5822986,-1.2948418,-1.9275143,-1
50,51,1583934044804,-9.2036,-1.7972,-2.5605,0.36528814,-1.8161839,-2.2257265999999998,-1
51,52,1583934044814,-9.4182,-2.158,-2.8288,0.6444329000000001,-2.8819292,-2.5157027000000003,-1
52,53,1583934044824,-9.1496,-3.0370998,-3.0944998,1.5599469,-3.7384980000000003,-2.9095583,-1
53,54,1583934044834,-7.9066997,-3.9001,-3.5976998999999994,3.3442879999999997,-4.734668,-3.534943,-1
54,55,1583934044844,-6.1194997,-4.68,-4.2653,4.9987483,-6.06503,-4.5777807,-1
55,56,1583934044854,-4.7974,-5.5566,-5.1026,5.451808,-6.833463,-4.9612455,-1
56,57,1583934044864,-4.2931,-6.2418,-5.5037,5.387825,-7.861505,-5.2443933,-1
57,58,1583934044874,-4.370899700000001,-6.8773,-5.7551,5.6234817999999995,-8.618839,-5.810047,-1
58,59,1583934044885,-3.9513998,-7.5460997,-6.5533,7.217942999999999,-8.8924675,-6.8933663,-1
59,60,1583934044895,-2.4740999,-7.461899799999999,-7.5197997,9.050063,-8.973918,-7.5187990000000005,-1
60,61,1583934044905,-0.60499996,-7.3065996,-8.2345,10.619788,-9.001366,-8.2081375,-1
61,62,1583934044916,1.0264,-7.0692997,-9.003699000000001,11.303907,-9.000177,-8.479458000000001,-1
62,63,1583934044926,1.7702999,-6.83,-9.3526,11.130471,-9.468828,-8.307841999999999,-1
63,64,1583934044936,1.5746,-7.2353997,-9.1634,10.876092,-10.298793,-8.066832000000002,-1
64,65,1583934044946,2.1139,-7.9289,-9.378099,11.831885,-10.866975,-8.376239,-1
65,66,1583934044956,3.5728,-8.1959,-9.7135,13.277514000000002,-11.313341000000001,-8.675199000000001,-1
66,67,1583934044966,4.9939,-8.2132,-10.083799,14.531789000000002,-11.431489,-8.741652,-1
67,68,1583934044976,6.0827,-7.8020997,-9.632899,15.253554000000001,-11.182522,-8.07072,-1
68,69,1583934044986,6.1394,-7.4607,-8.9862995,15.03075,-11.131812,-7.317158999999999,-1
69,70,1583934044996,6.1394,-7.4607,-8.9862995,14.611142000000001,-11.176967,-6.865048,-1
70,71,1583934045006,5.8301997000000005,-7.0934,-8.295899,14.691032,-11.064478,-6.3313994000000005,-1
71,72,1583934045016,6.736000000000001,-6.7114997,-7.6594,15.611526500000002,-10.881053,-5.405810400000001,-1
72,73,1583934045026,8.058499000000001,-6.6176,-6.3152,16.808073,-11.018652000000001,-3.9344394,-1
73,74,1583934045037,8.9503,-6.6021,-5.0213,17.48539,-11.150113000000001,-2.728078,-1
74,75,1583934045047,9.156799000000001,-6.5214996,-4.7156997,17.428743,-11.232722,-2.6434667000000003,-1
75,76,1583934045057,8.799399000000001,-6.6008997,-5.4848,16.994244000000002,-11.45477,-3.4864461,-1
76,77,1583934045067,8.7261,-6.6289997000000005,-6.0024,16.967018,-11.546228999999999,-3.7606587,-1
77,78,1583934045078,9.2816,-6.2686,-5.5118,17.605082,-11.203044,-2.9899654,-1
78,79,1583934045089,9.881599000000001,-5.8469996,-4.9238,18.091986,-10.900273,-2.3870572999999995,-1
79,80,1583934045099,10.4685,-5.3799996,-4.076699700000001,18.646885,-10.572556,-1.3454647,-1
80,81,1583934045109,10.948199,-4.9899,-2.7872,18.891985000000002,-10.265877,-0.11382035,-1
81,82,1583934045119,10.916599,-4.7783,-1.7458999,18.640182,-10.149538,0.78414893,-1
82,83,1583934045130,10.3665,-4.5501,-0.8772,17.767295999999998,-9.89988,1.6772340000000001,-1
83,84,1583934045141,9.6564,-4.3111,-0.0155,17.337027,-9.747034,2.3545825000000002,-1
84,85,1583934045150,9.3414,-4.2117,1.0108,17.258814,-9.763314999999999,3.4190733,-1
85,86,1583934045160,9.4839,-4.3452997,2.2086,17.667187,-9.958222,4.547105999999999,-1
86,87,1583934045170,10.0241995,-4.4298997,2.8392,18.251268,-9.913986999999999,4.6816697,-1
87,88,1583934045180,10.7434,-4.4803,2.7533,18.884823,-10.240489,4.0791645,-1
88,89,1583934045192,10.9415,-5.0119,2.1569,18.900768,-10.649179,3.8247275000000003,-1
89,90,1583934045202,10.661799,-5.4330997000000005,2.3711998,18.15617,-10.902562,4.4798193,-1
90,91,1583934045212,9.4587,-5.6907997,3.1794,16.24101,-10.989682,5.6942067000000005,-1
91,92,1583934045222,7.7054996,-5.805,4.3599,14.96515,-10.767281,6.6675935,-1
92,93,1583934045234,5.9859,-5.6421,5.5557,13.274116000000001,-10.45273,7.9703836,-1
93,94,1583934045244,4.6403,-5.5669,6.826699700000001,12.244264,-9.878476,9.781472,-1
94,95,1583934045254,3.685,-5.2587,8.4416,11.387205999999999,-9.374823,10.360294999999999,-1
95,96,1583934045264,2.7138,-4.9591,9.0982,10.6346035,-8.987785,9.645856,-1
96,97,1583934045274,1.8384999,-4.7829,8.4542,10.099835,-8.432244,8.416356,-1
97,98,1583934045285,1.2081,-4.4319997,7.2510996,9.877001,-7.9057116999999995,7.890111,-1
98,99,1583934045295,0.8405,-3.9736998,6.6994996,9.391726,-7.1712375,7.668340700000001,-1
99,100,1583934045305,0.3213,-3.5860999,6.5379,8.689553,-6.4492707000000005,7.5162992,-1
100,101,1583934045315,-1.2947999,-2.8348,6.6685,7.7029895999999995,-5.8364606,7.916303,-1
101,102,1583934045325,-1.2947999,-2.8348,6.6685,7.106948399999999,-5.455294,8.393947,-1
102,103,1583934045335,-2.2056,-2.5293,7.3420997,6.3660865,-5.0510283,8.882986,-1
103,104,1583934045345,-3.0235999,-2.3529,7.8785,5.961409,-4.8208303,8.7834835,-1
104,105,1583934045355,-3.4921,-2.3504,7.8325,5.8999357,-4.560418,8.125777000000001,-1
105,106,1583934045366,-3.6102,-2.3026,7.2296996,6.004763,-4.2828918,7.038436,-1
106,107,1583934045376,-3.5546,-2.24,6.183399700000001,6.037602,-3.7623157999999997,6.084844,-1
107,108,1583934045386,-3.6035,-1.6491,5.0593,6.0231699999999995,-3.1473312,5.772526,-1
108,109,1583934045396,-3.6035,-1.6491,5.0593,5.8957505,-2.6077743,5.6427794,-1
109,110,1583934045406,-3.7975,-1.1931,4.9584,5.805632599999999,-1.8237592,5.562679,-1
110,111,1583934045416,-4.0028,-0.1942,4.9618,5.7294683,-1.1375138999999999,5.551579,-1
111,112,1583934045427,-4.2097,-0.2034,4.863,5.5018085999999995,-0.9830305,5.35151,-1
112,113,1583934045437,-4.6865,-0.19389999,4.7234,4.9959135,-0.747192,5.1597824,-1
113,114,1583934045447,-5.3355,-0.21069999,4.392299700000001,4.313594999999999,-0.68510556,4.702154599999999,-1
114,115,1583934045457,-6.0006,-0.6217,3.7635998999999996,3.7497604,-0.9800234,4.004800299999999,-1
115,116,1583934045467,-5.9572,-1.1651,3.0497,3.9715784,-1.3798646,3.2071195,-1
116,117,1583934045478,-5.2233996,-1.4869,2.3588,4.7556987,-1.5009059,2.4794161,-1
117,118,1583934045488,-5.2233996,-1.4869,2.3588,5.231503,-1.0274572,1.6482067999999999,-1
118,119,1583934045498,-4.8996997,-0.71779996,0.67109996,4.7411613,-0.45599008,0.7145925999999999,-1
119,120,1583934045508,-5.8490996,-0.297,-0.11229999,3.5786421,0.11668382,-0.08506119,-1
120,121,1583934045518,-6.7584,-0.0231,-0.35689998,2.7616925,0.46246397,-0.19599894,-1
121,122,1583934045528,-7.3436,0.1681,-0.29909998,2.4114687000000004,0.6950559000000001,-0.16512331,-1
122,123,1583934045539,-7.4676,0.40899998,-0.3418,2.3034232000000006,1.023368,-0.34091517,-1
123,124,1583934045549,-7.5915,0.6936,-0.6767,2.1912404999999997,1.3782365,-0.85286254,-1
124,125,1583934045559,-7.450599700000001,0.7478,-1.1330999,2.535268,1.4149923,-1.4082886000000001,-1
125,126,1583934045569,-6.849,0.7576,-1.3913,3.2615540000000003,1.5016241000000001,-1.5035299,-1
126,127,1583934045579,-6.0712,0.8490000000000001,-1.1347,3.9476172999999997,1.6059827,-1.177813,-1
127,128,1583934045590,-5.6468,0.8986,-0.64669997,4.1958194,1.7048824,-0.78504914,-1
128,129,1583934045601,-5.6152,1.0119,-0.53929996,4.076855999999999,1.8576707,-1.3096092,-1
129,130,1583934045611,-5.7219,1.1429,-1.4499999,4.182526999999999,1.9969748,-2.6130507,-1
130,131,1583934045621,-5.4084,1.2387999,-2.9125,4.851141,1.9337487000000002,-4.1742716,-1
131,132,1583934045631,-4.5176997000000005,1.1453999,-4.3682,5.962597,1.7455741000000002,-5.3598419999999996,-1
132,133,1583934045642,-3.3627,0.93649995,-5.2885,7.229407000000001,1.308163,-5.808266000000001,-1
133,134,1583934045652,-2.3643,0.5434,-5.375,8.071955,0.7879222,-5.1601367,-1
134,135,1583934045663,-1.5805,0.0539,-4.5078,8.648439999999999,0.3275268,-3.7670467000000003,-1
135,136,1583934045673,-1.0697,-0.36159998,-3.063,8.888857000000002,0.10027875,-2.7731464,-1
136,137,1583934045684,-0.9108,-0.5187,-2.1878,8.650299,0.23385605,-2.5571797000000003,-1
137,138,1583934045694,-1.212,-0.32729998,-2.0626,8.204364,0.54108,-2.8959591000000002,-1
138,139,1583934045704,-1.6696,-0.0363,-2.4803,7.759081,0.85887676,-3.6999419000000002,-1
139,140,1583934045714,-2.0588,0.2271,-3.2547,7.7722588,1.0486029,-4.0793557,-1
140,141,1583934045724,-1.9485999,0.38369998,-3.4529,8.216182,1.0534201,-3.7744779999999998,-1
141,142,1583934045737,-1.5648999,0.3676,-3.1351,8.62355,1.0360764,-3.530528,-1
142,143,1583934045747,-0.7227,0.33179998,-2.6197999,9.151816,0.9471845,-3.2849597999999998,-1
143,144,1583934045757,-0.17539999,0.1498,-2.6065,9.728102,0.70103186,-3.2699912,-1
144,145,1583934045768,0.4303,-0.0589,-2.3725998,10.306808,0.4705468,-2.9559486,-1
145,146,1583934045778,0.6242,-0.2038,-2.0163999,10.377369999999999,0.29798234,-2.6278088,-1
146,147,1583934045788,0.3773,-0.28869998,-1.8087,10.048148,0.18448761,-2.4040369999999998,-1
147,148,1583934045798,0.1408,-0.3398,-1.6745,9.913163,0.14259864,-2.32952,-1
148,149,1583934045808,0.13059999,-0.31309998,-1.7475,9.997555,0.19796218,-2.478468,-1
149,150,1583934045819,0.13059999,-0.31309998,-1.7475,10.280674000000001,0.26966372,-2.594443,-1
150,151,1583934045829,0.8366,-0.0209,-1.9577999,10.710931,0.47432965,-2.6138935,-1
151,152,1583934045839,1.0034,0.1026,-1.8199999,10.80282,0.5384943,-2.3811388,-1
152,153,1583934045849,0.9447,0.1313,-1.4297999,10.650473,0.5428996,-1.9343426,-1
153,154,1583934045859,0.7389,0.0853,-1.0045,10.440826,0.43232578,-1.6004758999999997,-1
154,155,1583934045869,0.6015,-0.1105,-0.75079995,10.390682,0.24484064,-1.3294811000000002,-1
155,156,1583934045879,0.6404,-0.2093,-0.4807,10.477363,0.24298275,-1.0889308000000002,-1
156,157,1583934045890,0.7478,-0.16139999,-0.371,10.548278,0.27371472,-1.0884040000000001,-1
157,158,1583934045900,0.76669997,-0.14389999,-0.5201,10.459280999999999,0.24870008,-1.2464597,-1
158,159,1583934045910,0.5796,-0.15799999,-0.5627,10.23095,0.29192979999999996,-1.1115896,-1
159,160,1583934045920,0.35349998,-0.1139,-0.38819999,10.024542,0.33109894,-0.9809905999999999,-1
160,161,1583934045931,0.2156,-0.0879,-0.3407,10.028344,0.37710592,-1.0073364,-1
161,162,1583934045941,0.2638,-0.019,-0.38329998,10.088238,0.47256753,-0.9916209,d
162,163,1583934045953,0.3216,0.0822,-0.3777,10.1288805,0.56873786,-0.9283948000000001,-1
163,164,1583934045963,0.3403,0.16499999,-0.2916,10.097986,0.49737146,-0.7907474,-1
164,165,1583934045973,0.3103,0.0418,-0.1718,10.09653,0.3733901,-0.654048,-1
165,166,1583934045984,0.3003,-0.1015,-0.0053,10.063442,0.16825491,-0.62600714,-1
166,167,1583934045993,0.27109998,-0.3048,-0.0589,10.044289,-0.041189846,-0.83467615,-1
167,168,1583934046003,0.2617,-0.4502,-0.27609998,10.108272,-0.052461747,-1.0186370999999999,-1
168,169,1583934046013,0.419,-0.4005,-0.45499998,10.355306,0.22545718,-1.1167227,-1
169,170,1583934046023,0.5761,-0.1273,-0.5119,10.284179,0.43467212,-0.97998506,-1
170,171,1583934046033,0.43879998,0.0336,-0.3099,9.947936,0.44454579999999994,-0.5862155,-1
171,172,1583934046044,0.0859,0.013499998999999999,0.11669999,9.65957,0.44221863,-0.06786125,-1
172,173,1583934046054,-0.1686,0.0213,0.6141,9.46133,0.48754567,0.25853547,-1
173,174,1583934046064,-0.3839,0.0415,0.8696,9.503008,0.47635996,0.24159410000000003,-1
174,175,1583934046074,-0.2856,0.0187,0.83199996,9.723953999999999,0.5155578,-0.007967903,-1
175,176,1583934046084,-0.060399997999999996,0.0625,0.5948,9.968153,0.57692605,-0.24852770000000002,-1
176,177,1583934046094,0.1741,0.14109999,0.3532,10.104575,0.5464813000000001,-0.38833952,-1
177,178,1583934046105,0.32029998,0.122999996,0.19899999999999998,10.187031,0.47060427,-0.44686338,-1
178,179,1583934046115,0.39799999999999996,0.0552,0.14459999,10.1796665,0.39845264,-0.5045731999999999,-1
179,180,1583934046125,0.3876,-0.005,0.0823,10.22237,0.3677781,-0.53532434,-1
180,181,1583934046136,0.4265,-0.028999999999999998,0.050699997999999996,10.239752000000001,0.31118876,-0.49936342,-1
181,182,1583934046146,0.4852,-0.1457,0.18679999,10.274526,0.2496482,-0.35834497,-1
182,183,1583934046156,0.4364,-0.091,0.32549998,10.233373,0.31299877,-0.2265681,-1
183,184,1583934046166,0.4364,-0.091,0.32549998,10.137825999999999,0.36113182,-0.13285904,-1
184,185,1583934046176,0.18239999,0.012499999,0.5668,9.946749,0.45962927,-0.037790082,-1
185,186,1583934046186,0.18239999,0.012499999,0.5668,9.764101,0.53269076,-0.039331947,-1
186,187,1583934046196,-0.14999999,0.0795,0.5355,9.614146,0.49618393,-0.10248141,-1
187,188,1583934046206,-0.14999999,0.051,0.34,9.653986,0.48750734,-0.2960574,-1
188,189,1583934046216,-0.14999999,0.051,0.34,9.842247,0.504171,-0.48839799999999994,-1
189,190,1583934046227,0.3193,0.050699997999999996,-0.011399999,10.153014,0.467262,-0.61445755,-1
190,191,1583934046237,0.49499997,0.044499997,-0.105399996,10.305209,0.45416093,-0.72035784,-1
191,192,1583934046247,0.5139,0.0168,-0.2566,10.2958145,0.38081214,-0.8442434000000001,-1
192,193,1583934046257,0.5234,-0.07279999599999999,-0.2857,10.342252,0.28195077,-0.8795052,-1
193,194,1583934046267,0.5234,-0.07279999599999999,-0.2857,10.459942,0.29319394,-0.9098062,-1
194,195,1583934046277,0.73939997,-0.0289,-0.1015,10.498717,0.34263899999999997,-0.6476314999999999,-1
195,196,1583934046287,0.48479998,-0.0634,-0.0002,10.206433,0.29674694,-0.58956736,-1
196,197,1583934046297,0.1029,-0.09219999599999999,-0.0469,9.836596499999999,0.30418809999999996,-0.6631843000000001,-1
197,198,1583934046308,-0.2005,-0.0629,-0.20099999,9.534986,0.33479559999999997,-0.80825377,-1
198,199,1583934046318,-0.2005,-0.0629,-0.20099999,9.410256,0.4157675,-0.84296966,-1
199,200,1583934046328,-0.3956,0.1087,-0.1646,9.396763,0.5299326,-0.68972164,-1
200,201,1583934046338,-0.3852,0.0862,0.0207,9.420255000000001,0.4942207,-0.55754256,-1
201,202,1583934046349,-0.3157,0.0376,0.0823,9.485827,0.43124363,-0.5519784000000001,-1
202,203,1583934046360,-0.2172,-0.0462,0.052899998,9.605317,0.33249715,-0.57808477,-1
203,204,1583934046370,-0.2074,-0.1077,0.107099995,9.494474,0.27748796,-0.4546589,-1
204,205,1583934046380,-0.4235,-0.1487,0.2641,9.267045,0.2235131,-0.36422512,-1
205,206,1583934046390,-0.64,-0.110199995,0.2182,9.073249,0.3174903,-0.46346956,-1
206,207,1583934046400,-0.7784,0.038599997999999996,0.089899994,8.999345,0.52077717,-0.5922776,-1
207,208,1583934046410,-0.7502,0.2597,-0.049399998,9.1829605,0.6886969000000001,-0.7889086,-1
208,209,1583934046420,-0.53569996,0.3858,-0.2556,9.438489,0.7227233000000001,-0.9466578000000001,-1
209,210,1583934046431,-0.24249999,0.39569998,-0.33859998,9.743912,0.6455055000000001,-0.79679036,-1
210,211,1583934046441,0.0316,0.3162,-0.0818,9.833149,0.5007616,-0.52722234,-1
211,212,1583934046451,-0.0174,0.12459999,0.1301,9.593967999999998,0.30133423,-0.3758322,-1
212,213,1583934046461,-0.31149998,-0.022799998999999998,0.3038,9.3586,0.23158635,-0.2402725,-1
213,214,1583934046471,-0.4877,-0.0058999998,0.32099998,9.312564,0.35417905,-0.4001094,-1
214,215,1583934046481,-0.4289,0.1401,0.1187,9.448113000000001,0.47429135,-0.6332759,-1
215,216,1583934046492,-0.2724,0.2599,-0.1083,9.674664,0.5215242,-0.8395507999999999,-1
216,217,1583934046502,-0.086799994,0.2739,-0.2618,9.776292,0.47718355,-0.97638416,-1
217,218,1583934046512,0.0201,0.21959999,-0.4375,9.906286999999999,0.41263586,-1.0532285,-1
218,219,1583934046522,0.2058,0.1837,-0.4534,10.223663,0.31635064,-0.9184158000000001,-1
219,220,1583934046532,0.4802,0.1065,-0.2767,10.407575999999999,0.2855804,-0.72235936,-1
220,221,1583934046542,0.6961,0.1258,-0.0449,10.539535,0.30482978,-0.54221964,-1
221,222,1583934046553,0.73579997,0.1094,0.099599995,10.4708395,0.34080023,-0.47213656,-1
222,223,1583934046562,0.6479,0.1704,0.16579999,10.384477,0.350061,-0.43124363,d
223,224,1583934046572,0.59889996,0.14469999,0.1677,10.433413999999999,0.29694805,-0.4740232,-1
224,225,1583934046582,0.73569995,0.094299994,0.0924,10.83723,0.28589642,-0.6782103,-1
225,226,1583934046592,1.1365,0.1485,-0.1302,11.2269,0.29981149999999995,-0.7794563,-1
226,227,1583934046602,1.6252999,0.1285,-0.2015,11.721035,0.20625569,-0.71587586,-1
227,228,1583934046613,2.0749,0.0206,-0.22389999,12.199664,-0.06335058,-1.126309,-1
228,229,1583934046623,2.4754999,-0.19739999,-0.7083,12.633734,-0.32528582,-1.5913684,-1
229,230,1583934046633,2.9055998,-0.4409,-1.1345999,13.015244500000001,-0.530354,-1.6241497999999999,-1
230,231,1583934046643,3.2770998,-0.62509996,-1.0889,13.255192000000001,-0.6920488,-1.2408093999999998,-1
231,232,1583934046653,3.4922,-0.81119996,-0.66459996,13.386738000000001,-0.8310753000000001,-0.37198234,-1
232,233,1583934046663,3.5802998999999995,-0.9507,0.26819998,13.28011,-0.91776454,0.23313779,-1
233,234,1583934046674,3.4334,-1.0509,0.69699997,13.044482,-0.9434879,0.0023463177,-1
234,235,1583934046684,3.2085,-1.097,0.31559998,13.026296,-0.9633405999999999,-0.8121706,-1
235,236,1583934046694,3.2484999,-1.1814,-0.53639996,13.306102,-1.0649408999999999,-1.5529367,-1
236,237,1583934046704,3.5923998,-1.3406,-1.1854,13.9566345,-1.303595,-1.5777406,-1
237,238,1583934046714,4.152,-1.5661,-1.1280999,14.215198999999998,-1.4430524,-1.4628763,-1
238,239,1583934046725,4.5157,-1.8528,-0.98289996,14.391910999999999,-1.8340255,-1.4065168,-1
239,240,1583934046735,4.5854,-2.1654,-0.9576,14.405710999999998,-2.014807,-1.3075023000000001,-1
240,241,1583934046745,4.6064997000000005,-2.3973,-0.86509997,14.452637,-2.0962002,-1.0263176,-1
241,242,1583934046755,4.6576,-2.5214999,-0.5981,14.124707999999998,-2.1865,-0.57027966,-1
242,243,1583934046766,4.3269997,-2.6880999,-0.1477,13.207767,-2.5176562999999996,0.22065921,-1
243,244,1583934046776,3.4192998,-3.0971,0.61289996,12.264337,-2.6232693,0.89780647,-1
244,245,1583934046786,2.4838,-3.3065998999999997,1.2616999,11.475936,-2.2878418,1.14326,-1
245,246,1583934046797,1.6974,-3.0865,1.4948,10.757703999999999,-1.6905265999999999,1.2232263,-1
246,247,1583934046807,0.2491,-2.1590000000000003,1.6926,9.843281,-0.98568326,1.47909,-1
247,248,1583934046818,-0.6087,-1.7896999,2.2856,8.705451,-0.47557464,2.18582,-1
248,249,1583934046828,-1.5430000000000001,-1.6746,2.6125998,7.887410000000001,-0.28947815,2.2907433999999998,-1
249,250,1583934046838,-2.2999,-1.5431,2.3638,7.2466740000000005,-0.005746084300000001,1.800114,-1
250,251,1583934046848,-2.5374,-1.4101,1.6322,7.144288,0.22748747,1.1355698,-1
251,252,1583934046858,-2.5005999,-1.219,0.65099996,7.218202000000001,0.55968773,-0.07072472,-1
252,253,1583934046868,-2.3258,-1.0555,-0.17359999,7.444799000000001,0.82543457,-0.67811453,-1
253,254,1583934046879,-2.0795999,-0.8504,-0.32619998,7.547405,1.1214633,-0.57867855,-1
254,255,1583934046889,-2.5049999,-0.4657,0.3439,6.599502,1.7337372,0.37102467,-1
255,256,1583934046899,-3.9539999999999997,-0.1481,1.2012,5.266813,2.0795844,0.9514845,-1
256,257,1583934046910,-5.5655,0.14299999,1.5073999,3.3954377,2.6207986,1.0561303,-1
257,258,1583934046920,-6.7552,0.484,1.2279999,2.3645039,3.1510662999999997,0.4307169,-1
258,259,1583934046930,-7.1836996,0.7197,0.5656,2.2919118,3.3882551,-0.1828787,-1
259,260,1583934046941,-6.99,0.82409996,-0.1257,2.7233949,3.4491348,-1.054598,-1
260,261,1583934046951,-6.5069,0.70309997,-0.7979999999999999,3.1222974999999997,3.4239094,-1.7530727,-1
261,262,1583934046961,-6.2216997,0.6890000000000001,-1.4027,3.1551747000000003,3.5766883000000003,-2.335065,-1
262,263,1583934046971,-6.2889,0.83089995,-1.9597,2.9685897999999997,3.9006142999999995,-2.9019642000000005,-1
263,264,1583934046982,-6.4621,1.1743,-2.4606,2.79592,4.421266999999999,-3.3553107000000004,-1
264,265,1583934046992,-6.5945,1.67,-2.8313,2.5817634999999997,5.0307059999999995,-3.5073428,-1
265,266,1583934047002,-6.8724,2.1711,-2.6599998,2.0712526,5.5364666,-2.724726,-1
266,267,1583934047013,-7.5996,2.5802,-1.3843,0.47586194,5.8546949999999995,-0.48936528,-1
267,268,1583934047023,-9.1112995,2.6090999,0.5886,-1.5601288999999998,5.385795,1.0311539,-1
268,269,1583934047034,-10.7654,2.0959,1.7191,-2.4708352000000002,4.8111863,0.7039526999999999,-1
269,270,1583934047044,-11.755999999999998,1.3635,1.1935999,-2.1730732999999995,4.2980328000000005,-0.41701248,-1
270,271,1583934047054,-11.134999,0.97789997,0.0167,-0.37860948,4.448771499999999,-1.9104389,-1
271,272,1583934047064,-9.6071,1.2103,-1.2334,1.1441411,4.9352827,-2.4597359,-1
272,273,1583934047074,-8.125999,1.7682999,-1.8154,2.017431,5.664423,-2.5885246,-1
273,274,1583934047084,-7.2823997,2.5844,-1.9754,2.002855,6.172922,-2.4372494,-1
274,275,1583934047095,-7.4648,3.2358,-1.7861999,0.8981511999999999,6.3811316,-1.8580825,-1
275,276,1583934047105,-8.78,3.406,-1.1144999,-1.2295280000000002,5.7098937,-0.6956401,-1
276,277,1583934047116,-10.584000000000001,2.8302,-0.1239,-2.472339,4.1627507,0.16873376,-1
277,278,1583934047126,-11.8431,1.3505,0.7290000000000001,-2.4143035,2.203422,0.41125682,-1
278,279,1583934047136,-10.5658,-1.7421999,0.7568,-0.7547673,0.5975928,0.13207375,-1
279,280,1583934047146,-8.8916,-2.1657,0.45029998,0.91724735,0.16154158,-0.22109973,-1
280,281,1583934047157,-7.9549,-1.7350999,-0.1286,1.678278,0.5036826,-0.6855845,-1
281,282,1583934047167,-7.9666,-0.9734,-0.19559999,1.6025348999999998,1.0213473,-0.53305465,-1
282,283,1583934047178,-7.9666,-0.9734,-0.19559999,1.2411925,1.2040918999999999,-0.47020206,-1
283,284,1583934047188,-8.710199000000001,-0.6137,-0.098299995,1.018139,0.6406691999999999,-0.20242497,-1
284,285,1583934047198,-8.3342,-1.5,0.3875,1.7326549999999998,-0.76328105,0.6000923,-1
285,286,1583934047209,-7.2170000000000005,-2.5663,1.3651999,3.2135358,-2.4417505,1.7131758000000001,-1
286,287,1583934047219,-5.5037,-4.2068,2.1313,4.9414983,-4.416316,1.8799751,-1
287,288,1583934047230,-4.1036,-5.6082997,1.5633,6.003939599999999,-5.916206400000001,1.0515813,-1
288,289,1583934047240,-3.6534,-6.5959,1.0267,6.190448,-7.213116599999999,0.5691401,-1
289,290,1583934047250,-3.5953998999999994,-6.9228997,0.8361,6.255685,-7.1386476,0.6249633000000001,-1
290,291,1583934047260,-3.4210000000000003,-6.0958,1.1561999,6.4646797,-6.474266,1.2723745000000002,-1
291,292,1583934047270,-3.306,-5.0506997,2.2092,6.380672,-5.954609400000001,2.5176659,-1
292,293,1583934047280,-3.5221998999999995,-4.5966,3.4097998,6.137804,-6.1342707,3.7309419999999998,-1
293,294,1583934047290,-3.4492,-4.8731,4.0785,6.443764,-7.073295599999999,3.9417849,-1
294,295,1583934047301,-2.5843,-6.082000000000001,3.3169,8.047514999999999,-9.423798,2.316687,-1
295,296,1583934047311,-0.5448,-7.6415997,1.5299,9.944230000000001,-10.5496,0.7887267,-1
296,297,1583934047321,1.9605,-8.0857,-0.3216,12.431279,-11.060704,-0.9853289000000001,-1
297,298,1583934047331,3.5623998999999995,-7.8647,-1.0339,13.074475999999999,-10.78085,-0.3853228,-1
298,299,1583934047341,3.6755998,-7.0499,0.32799998,11.991858,-10.261491,1.7134726000000002,-1
299,300,1583934047351,2.1513,-6.4603996,2.5258,10.041866,-10.230912,3.8194410000000003,-1
300,301,1583934047362,0.456,-6.2467,4.2297,8.965281,-10.502319,4.745011,-1
301,302,1583934047372,0.276,-6.4083,4.3150997,9.881129,-11.035269,3.6980263999999994,-1
302,303,1583934047382,2.0407,-6.6105,2.3638,12.743033,-11.743205,0.6184893,-1
303,304,1583934047392,4.8268,-6.9391,-0.3488,15.067476999999998,-12.21064,-0.79892594,-1
304,305,1583934047402,7.8971995999999995,-7.0312,-1.624,17.782272,-12.271117,-0.84685785,-1
305,306,1583934047413,9.8855,-6.7848997,-1.3112999,17.930588,-12.454474000000001,0.21874385,-1
306,307,1583934047423,9.73,-6.8023996,-0.108399995,15.962132,-13.201704999999999,2.2233899,-1
307,308,1583934047433,7.6856,-7.5016,2.0396,13.784127999999999,-14.423983999999999,4.644732,-1
308,309,1583934047443,5.8711,-8.5153,4.2901998,13.164164000000001,-15.067698000000002,5.5847625999999995,-1
309,310,1583934047453,5.8736997,-8.9018,4.6156,14.597094,-15.131986999999999,4.2357545,-1
310,311,1583934047463,7.7235,-8.5745,2.8652,16.771373999999998,-14.628217999999999,2.18582,-1
311,312,1583934047474,10.0379,-7.7888,0.6764,18.060823000000003,-13.685630999999999,0.7820229000000001,-1
312,313,1583934047484,11.215799,-6.6204996,-0.64739996,17.747969,-12.648711,0.53962433,-1
313,314,1583934047494,10.7464,-5.4835,-0.7589,15.662254999999998,-11.835641,1.4207767,-1
314,315,1583934047504,9.0251,-4.7405,-0.0191,13.776686999999999,-11.317497,2.6929693,-1
315,316,1583934047514,7.2370996,-4.1383,1.2307999,12.500309,-10.686079,3.3216102,-1
316,317,1583934047525,6.0421,-3.4322,1.8320999,11.832499,-10.322303999999999,2.7116156000000005,-1
317,318,1583934047535,5.3424,-2.9306997999999997,1.0181999,11.561725,-10.01102,2.0202560000000003,-1
318,319,1583934047545,5.250499700000001,-2.6485999,0.4687,11.883955,-9.738511,1.7766701,-1
319,320,1583934047556,5.638099700000001,-2.3199,0.1837,12.101731,-9.200130999999999,1.282478,-1
320,321,1583934047566,5.9337,-1.7311,-0.3577,11.789078,-8.838386999999999,0.6757873000000001,-1
321,322,1583934047576,5.6919,-1.3266,-0.9985,11.312939,-8.648278,0.3132765,-1
322,323,1583934047586,4.8185,-0.8136,-1.2571,10.726818,-8.326210000000001,0.70298547,-1
323,324,1583934047597,4.4718,-0.6823,-0.51309997,10.346926,-8.270789,1.4775863999999999,-1
324,325,1583934047607,4.4718,-0.6823,-0.51309997,10.134119,-8.261403,1.688209,-1
325,326,1583934047617,3.931,-0.516,-0.3324,9.810728999999998,-8.085411,1.4003686000000002,-1
326,327,1583934047627,3.6399,-0.28419998,-0.6818,9.474536,-7.9057784,1.084267,-1
327,328,1583934047638,3.3147,-0.32009998,-0.8613,9.173001,-7.950789500000001,0.96081233,-1
328,329,1583934047648,3.1938999,-0.3371,-0.764,9.087959,-7.961525,1.1274966,-1
329,330,1583934047658,3.1938999,-0.3371,-0.764,9.047956,-7.916447,1.2716659,-1
330,331,1583934047668,2.9589999,-0.20709999,-0.49229997,8.737561999999999,-7.7793837,1.3983288,-1
331,332,1583934047678,2.6650999,-0.0828,-0.41779998,8.421097,-7.645643700000001,1.5285733,-1
332,333,1583934047689,2.3181,0.1557,-0.2658,8.081963,-7.361385,1.6066626,-1
333,334,1583934047700,1.9674,0.3717,-0.43829998,7.6322265,-7.139481,1.3532123999999999,-1
334,335,1583934047710,1.6037999,0.5268,-0.55009997,7.3556194,-7.1229033,1.5145816,d
335,336,1583934047720,1.3852999,0.3877,-0.3023,7.262494599999999,-7.3089523000000005,1.6873376,-1
336,337,1583934047730,1.2828,0.2188,-0.24689999,7.082259,-7.4711833,1.7141144,-1
337,338,1583934047740,1.053,0.0202,-0.1927,6.941145,-7.674000299999999,1.8819863000000001,-1
338,339,1583934047751,0.8936,-0.31509998,0.2303,6.7696533,-8.048300999999999,2.5320408,-1
339,340,1583934047761,0.75769997,-0.5807,0.76379997,6.689725,-8.228928999999999,2.864873,-1
340,341,1583934047771,0.7628,-0.69909996,0.90449995,6.803335000000001,-8.204842999999999,2.8172667000000002,-1
341,342,1583934047781,0.88699996,-0.64199996,0.6551,6.9653554,-8.120403999999999,2.4479659,-1
342,343,1583934047792,1.0376999,-0.6659,0.268,7.1427369999999994,-8.301866,2.2094172999999997,-1
343,344,1583934047802,1.2118,-0.9374,0.1354,7.367265,-8.695893,2.458529,-1
344,345,1583934047813,1.4168999,-1.2601,0.4511,7.6676226,-8.854389,2.7458142999999997,-1
345,346,1583934047824,1.74,-1.4577999,0.7951,7.8608055,-8.989882000000001,3.2463365,-1
346,347,1583934047834,1.7500999,-1.5909,1.2696999,7.687638300000001,-9.214354,3.6524696000000003,-1
347,348,1583934047844,1.5304999,-1.8448,1.6781,7.715650599999999,-9.299481,3.817497,-1
348,349,1583934047854,1.5493,-1.9332,1.7997999,8.17029,-9.226057,3.6167097000000004,-1
349,350,1583934047864,2.1347,-1.8447,1.5182999,9.114343,-9.012981,2.9757724,-1
350,351,1583934047874,3.1088,-1.6581,0.7184,10.560508,-8.824625,1.5355931999999999,-1
351,352,1583934047884,4.3087,-1.5423,-0.53999996,11.67201,-8.714789,0.84768146,-1
352,353,1583934047896,5.6763,-1.4494,-1.3112,13.092299,-8.838224,0.9573742000000001,-1
353,354,1583934047906,6.7528996,-1.6258999,-1.1252999,13.637018,-9.505211,1.7544613999999998,-1
354,355,1583934047916,7.3809,-2.8674,0.0339,13.92368,-10.087900999999999,1.9742875,-1
355,356,1583934047927,7.6298,-3.4238,-0.1715,14.309128,-10.52629,1.5706921999999999,-1
356,357,1583934047937,8.0632,-3.7222,-0.8267,14.881745,-10.707358000000001,0.8727056999999999,-1
357,358,1583934047947,8.6432,-3.8609998,-0.90919995,15.559992999999999,-10.781703,0.8947898000000001,-1
358,359,1583934047957,9.0425,-4.0109997,-0.4888,16.023712,-10.791844000000001,1.3857448,-1
359,360,1583934047967,9.1173,-4.0308,0.14639999,16.093184,-10.686155,1.9620962,-1
360,361,1583934047977,8.8328,-4.1219,0.4236,15.8988695,-10.675526,2.0850143,-1
361,362,1583934047987,8.2758,-4.2577,0.3487,15.410576,-10.647743,1.9166159999999999,-1
362,363,1583934047997,7.2015996,-4.2437,0.12979999,14.379364,-10.385022,1.7321858,-1
363,364,1583934048007,5.7026997,-4.0385,0.41759998,13.039742,-9.936924000000001,2.0803316,-1
364,365,1583934048018,4.1889,-3.6165,1.1215998999999999,11.725852,-9.22326,2.8043572999999995,-1
365,366,1583934048028,2.8636,-2.9708,1.7583,10.654025,-8.343475999999999,3.3386282999999994,-1
366,367,1583934048038,2.0068,-2.4678,1.9334999,9.974167999999999,-7.5553246,3.309457,-1
367,368,1583934048048,1.5230000000000001,-2.2402,1.7371999,9.766274000000001,-7.176294,3.033827,-1
368,369,1583934048058,1.2149999,-2.2082999,1.5689,9.582745,-6.988857,2.9459503,-1
369,370,1583934048068,0.8066,-2.3536,1.6774,9.206826,-6.9029336,3.0414407000000003,-1
370,371,1583934048079,0.8066,-2.3536,1.6774,8.875842,-6.869922,3.2526474,-1
371,372,1583934048089,-0.7145,-2.76,2.8035997999999998,7.8203344,-6.805364999999999,4.3705006,-1
372,373,1583934048099,-1.6000999,-2.9227,3.9076998,7.10147,-6.665074300000001,5.4141426,-1
373,374,1583934048109,-2.3384,-2.8009999,4.8663,6.5588007,-6.1120524000000005,6.0682383,-1
374,375,1583934048120,-2.9192,-2.3534,5.0129,6.066275,-5.392077400000001,5.6942544,-1
375,376,1583934048130,-3.4784,-1.8503,4.143,5.6468587,-4.670618,4.592567400000001,-1
376,377,1583934048140,-3.8386,-1.5109999,2.8955998,5.5156089999999995,-4.1510572,2.9371014,-1
377,378,1583934048150,-3.7654998,-1.3123,1.6779,5.801705999999999,-3.7275996,2.3631728,-1
378,379,1583934048160,-3.4578,-0.9519,1.4412,6.1080585,-3.225459,2.387929,-1
379,380,1583934048171,-3.3892998999999997,-0.7795,1.7289,6.0060177,-2.8970032000000003,2.7855484,-1
380,381,1583934048182,-3.6991,-0.7604,2.1243,5.5092115,-2.7684154999999997,3.2208717,-1
381,382,1583934048192,-4.1721997,-0.8958,2.5219998,5.2351327,-2.8706286,3.3854394,-1
382,383,1583934048203,-4.5041,-1.2041998999999999,2.6532,5.1247506,-2.8180137000000003,3.4609620000000003,-1
383,384,1583934048213,-4.5178,-1.2232,2.8385,5.3552356,-2.5110387999999997,3.4531953,-1
384,385,1583934048223,-4.3115,-1.0991,2.8099,5.5016165,-2.3050990000000002,3.0938067000000005,-1
385,386,1583934048233,-4.218899700000001,-1.0586,2.4492,5.535403700000001,-1.9895528999999998,2.4940016,-1
386,387,1583934048243,-4.211,-0.86689997,1.9131999,5.556923,-1.5609045,2.1320843999999997,-1
387,388,1583934048254,-4.1798,-0.40489998,1.6403999,5.4605994,-0.8766129999999999,2.10005,-1
388,389,1583934048264,-4.3903,-0.0543,1.7684,5.0626545,-0.44978429999999997,2.0235314,-1
389,390,1583934048274,-4.8331,0.1969,1.7009,4.560456299999999,-0.05952943,1.8287488,-1
390,391,1583934048284,-5.2436,0.40199998,1.5979999,4.524993,0.115247294,1.6180589,-1
391,392,1583934048294,-5.2688,0.45909998,1.3411,4.8738475,-0.07305188,0.5906113000000001,-1
392,393,1583934048305,-4.9388,0.1959,0.49379998,5.5283365,-0.6504184000000001,-0.68490446,-1
393,394,1583934048315,-4.2836,-0.44869998,-0.706,6.274225700000001,-0.8077079,-1.3038726999999999,-1
394,395,1583934048326,-3.5391998,-0.67039996,-1.2846999,6.682886999999999,-0.73456025,-0.63062316,-1
395,396,1583934048336,-3.3536,-0.5952,0.96019995,6.203683,-0.5833999,1.3685831,-1
396,397,1583934048346,-3.3536,-0.5952,0.96019995,5.457037000000001,-0.44832864,2.0448494,-1
397,398,1583934048356,-5.2351,-0.2367,2.2656,4.5852794999999995,-0.10891702,2.1681220000000003,-1
398,399,1583934048366,-5.6063,0.015999998999999997,1.3471999,4.1906669999999995,0.2915276,0.9217868,-1
399,400,1583934048377,-5.6063,0.015999998999999997,1.3471999,4.249057,0.50855714,-0.2016301,-1
400,401,1583934048387,-4.9467998,0.3378,-0.7072,5.054275,0.6132604,-0.9922625,-1
401,402,1583934048397,-3.8574998,0.3049,-0.8851,6.1646867,0.5331504,-1.1811267,-1
402,403,1583934048407,-3.0721998,0.073199995,-1.073,6.826204300000001,0.23020728,-1.4222229,-1
403,404,1583934048418,-2.8258997999999997,-0.30069998,-1.2264,7.0029635,-0.15443559,-1.5762753,-1
404,405,1583934048428,-2.7357,-0.5567,-0.98899996,7.1100509999999995,-0.32641590000000004,-1.2070416000000002,-1
405,406,1583934048438,-2.7038,-0.43919998,-0.3448,7.011276,-0.13429557,-0.484098,-1
406,407,1583934048448,-2.9849,-0.2512,0.3418,6.6647105,0.053706735,-0.07927681,-1
407,408,1583934048458,-3.3925,-0.156,0.4184,6.322493,0.1613692,-0.24866179,-1
408,409,1583934048468,-3.7482,-0.0819,-0.2636,5.896315599999999,0.17457561,-1.472118,-1
409,410,1583934048478,-3.9376,-0.2487,-1.6076,5.962271,0.0129478425,-2.7793424,-1
410,411,1583934048488,-3.4559998999999997,-0.3782,-2.1743,6.467687000000001,-0.10577583,-3.1148853,-1
411,412,1583934048498,-3.4559998999999997,-0.3782,-2.1743,7.2839947,-0.12703633,-3.2088912,-1
412,413,1583934048508,-1.9379,-0.44309998,-2.0354,7.890896000000001,-0.16292064,-3.1623669,-1
413,414,1583934048518,-1.6312,-0.3383,-1.5791,8.165674000000001,-0.015351621000000001,-2.5414162,-1
414,415,1583934048529,-1.5223999,-0.3047,-0.664,8.20447,-0.079142734,-1.7513106999999999,-1
415,416,1583934048538,-1.5327,-0.46629998,-0.2342,8.126955,-0.24711992,-1.7380468,-1
416,417,1583934048548,-1.5438,-0.6321,-0.5473,8.274639,-0.43284294,-2.2317119,-1
417,418,1583934048558,-1.5438,-0.6321,-0.5473,8.629076,-0.6116802,-2.6893685,-1
418,419,1583934048568,-0.6655,-0.9122,-1.5899,9.180337,-0.6815526,-3.3839550000000003,-1
419,420,1583934048578,-0.3252,-0.91609997,-2.1822,9.452213,-0.75893325,-4.063554,-1
420,421,1583934048589,-0.014699998999999998,-0.90489995,-2.6511,9.783274,-0.7003519,-4.378823000000001,-1
421,422,1583934048599,0.2667,-0.7934,-2.5706,9.999564999999999,-0.62092185,-4.09623,-1
422,423,1583934048609,0.401,-0.7399,-2.0314999,10.041733,-0.6042006999999999,-3.4963772000000004,-1
423,424,1583934048619,0.2504,-0.76299995,-1.2519,9.752206,-0.6259591999999999,-2.7424622000000003,-1
424,425,1583934048629,-0.1556,-0.8113,-0.65279996,9.330645,-0.6311786,-2.4175212000000004,-1
425,426,1583934048640,-0.4743,-0.7223,-0.75509995,9.154441,-0.51106626,-2.7405946,-1
426,427,1583934048650,-0.384,-0.5665,-1.0188999,9.425666,-0.29732153,-2.8896577000000003,-1
427,428,1583934048660,0.0189,-0.3159,-1.0626999,9.8125105,-0.0851857,-2.9349272,-1
428,429,1583934048670,0.1865,-0.2496,-1.0572,9.827575,-0.16261418,-2.8142116,-1
429,430,1583934048680,0.1493,-0.36139998,-0.8793,9.63307,-0.30390079999999997,-2.7419834,-1
430,431,1583934048691,-0.053799997999999995,-0.5232,-0.8843,9.603947999999999,-0.43249816,-2.8091264,-1
431,432,1583934048701,0.085999995,-0.58629996,-0.9,9.9674635,-0.42339063,-2.7309031000000004,-1
432,433,1583934048711,0.4606,-0.5406,-0.8111,10.254873,-0.34760934,-2.7140767999999995,-1
433,434,1583934048722,0.6872,-0.4775,-0.76629996,10.341046,-0.3285515,-2.6022866000000002,-1
434,435,1583934048732,0.69799995,-0.4495,-0.65349996,10.236007,-0.3022057,-2.5944526000000003,-1
435,436,1583934048743,0.5819,-0.4369,-0.7147,10.115903999999999,-0.252368,-2.716471,-1
436,437,1583934048753,0.37799999999999995,-0.3013,-0.83309996,9.82929,-0.056005165,-2.625568,-1
437,438,1583934048763,0.16489999,-0.1989,-0.625,9.598833,-0.0078050974,-2.3292517999999998,-1
438,439,1583934048773,-0.0569,-0.19649999,-0.3047,9.449253,0.08254249400000001,-2.100979,-1
439,440,1583934048784,-0.17009999,-0.0852,-0.039,9.473425,0.26276845,-1.9238943,-1
440,441,1583934048794,-0.1162,0.059000000000000004,0.061499998,9.614827,0.35311604,-2.0823712,-1
441,442,1583934048804,0.045199998,0.110599995,-0.13329999,9.747514,0.29781955,-2.4770699,-1
442,443,1583934048814,0.1961,0.0587,-0.47829998,9.795541,0.29708213,-2.5435998,-1
443,444,1583934048824,0.19929999,0.057499997000000004,-0.48279998,9.594764,0.10134177,-2.679964,d
444,445,1583934048834,-0.0036,-0.1484,-0.60679996,9.619213,0.01883758,-2.7994727999999998,-1
445,446,1583934048845,0.057499997000000004,-0.2243,-0.7619,9.985536,0.12567644,-3.1484517999999997,-1
446,447,1583934048858,0.3928,-0.1103,-1.0565,10.501735,0.21992179999999997,-3.7414,-1
447,448,1583934048868,1.3977,0.083,-2.182,11.086715,0.28108886,-4.388562,-1
448,449,1583934048878,1.5189999,-0.094799995,-2.1866,11.057821,0.04520253,-4.1050982000000005,-1
449,450,1583934048888,1.2792,-0.405,-1.4591999,10.756314999999999,-0.26139897,-3.44404,-1
450,451,1583934048898,0.68759996,-0.9298,-0.9440000000000001,10.035096000000001,-0.7777133,-3.170373,-1
451,452,1583934048909,0.2122,-1.1590999,-1.2595,9.685321,-0.81444997,-3.7040407999999996,-1
452,453,1583934048921,0.1257,-1.0954,-1.7949,9.755653,-0.6419716999999999,-4.2246356,-1
453,454,1583934048931,0.24239999,-0.9058,-2.0960999,9.882211,-0.44246763,-4.320385,-1
454,455,1583934048941,0.3294,-0.77059996,-2.2021,9.888119999999999,-0.44485226,-4.8387585,-1
455,456,1583934048952,0.3682,-0.8788,-3.245,10.128986,-0.60563725,-6.460121,-1
456,457,1583934048962,0.7611,-1.0375999,-4.8427,10.882030499999999,-0.7221295,-7.604386999999999,-1
457,458,1583934048972,1.4405,-1.1884999,-5.4726996,11.24433,-0.9769109,-7.4902024,-1
458,459,1583934048982,1.7020998999999999,-1.4915,-5.1397,11.028144000000001,-1.0801489,-6.3623996,-1
459,460,1583934048992,1.3903999,-1.5913999,-3.8418,10.251397,-0.8202248,-4.810813,-1
460,461,1583934049003,0.4759,-1.4145,-2.2683,8.970969,-0.58976847,-3.9913354,-1
461,462,1583934049013,-0.787,-1.2995,-1.6182,7.9410495999999995,-0.40168000000000004,-4.2690053,-1
462,463,1583934049023,-1.6766,-1.2649,-2.0581,7.542712,-0.3452918,-5.1267233,-1
463,464,1583934049033,-1.9513999,-1.3134999,-3.1829998,7.891671700000001,-0.43345585,-6.219801,-1
464,465,1583934049043,-1.4187,-1.4995999,-3.8139,8.693682,-0.6163824,-6.336149,-1
465,466,1583934049054,-0.5988,-1.7327,-3.905,9.36559,-0.77174693,-6.638087,-1
466,467,1583934049064,0.0296,-1.8963,-4.3154,9.854591000000001,-0.8332588,-7.4403076,-1
467,468,1583934049074,0.4114,-1.9526,-4.9969997,10.004536,-0.8024885,-7.7798433000000005,-1
468,469,1583934049084,0.5683,-1.9598999,-5.4068,9.9831505,-0.82145065,-7.8523784,-1
469,470,1583934049094,0.50229996,-2.0414,-5.3928,9.648308,-0.9398774,-7.3067009999999994,-1
470,471,1583934049104,0.096,-2.2281,-4.7008,8.963728999999999,-1.044571,-6.085898,-1
471,472,1583934049115,-0.6222,-2.4078999,-3.5012999,8.283783999999999,-0.98664093,-5.2906303,-1
472,473,1583934049125,-1.2429,-2.3752,-2.8773,7.6406064,-0.5562497,-5.126139,-1
473,474,1583934049136,-1.778,-2.0829,-2.8139,6.918046,-0.18674773,-4.8937197,-1
474,475,1583934049146,-3.0444,-1.5133,-2.0925,6.3331904,0.21735520000000003,-4.1873627,-1
475,476,1583934049156,-3.0123,-1.4239998999999999,-1.6803,6.4846377,0.2934717,-3.8158212,-1
476,477,1583934049166,-2.6313999,-1.7515999,-2.0435,6.874902199999999,-0.07459375,-4.2545733,-1
477,478,1583934049176,-2.2711,-2.0075,-2.7459,7.2562027,-0.21920353,-4.746189,-1
478,479,1583934049187,-2.0045,-1.8736,-2.521,7.4745255,-0.013503298,-4.2327285,-1
479,480,1583934049197,-2.0929,-1.6146,-1.1737,7.2498918,0.36583403,-2.6179349999999997,-1
480,481,1583934049207,-3.0173,-1.3375,0.78209996,6.145226,0.7048816999999999,-0.586024,-1
481,482,1583934049217,-4.4891,-1.0655999,2.7851999,4.651015,1.0779462,1.4458871000000002,-1
482,483,1583934049228,-5.9568996,-0.99259996,4.0929,3.2288685,1.1234266000000002,2.5653488999999996,-1
483,484,1583934049237,-5.9568996,-0.99259996,4.0929,2.5988483,0.9169409,2.2706418,-1
484,485,1583934049247,-6.376,-1.4072,2.6669,3.3261971,0.7575733,1.1189445,-1
485,486,1583934049258,-4.9695,-1.3303,2.2769999999999997,4.858017,0.83429307,0.99998146,-1
486,487,1583934049268,-3.5928998,-1.0163,2.5288,6.1405907,1.1571943999999998,1.4750868000000001,-1
487,488,1583934049278,-2.9677,-0.5804,2.9837,6.539436299999999,1.5715158,2.0952234,-1
488,489,1583934049288,-3.3183,-0.3838,3.5523,5.9273252,1.5670528000000001,3.1202865,-1
489,490,1583934049298,-4.1747,-0.5625,5.1261997,4.919874,1.3124535,5.0378504,-1
490,491,1583934049308,-5.3339,-0.96819997,6.983,3.874824,0.8108491,6.794122,-1
491,492,1583934049318,-6.1222997,-1.4607999,8.1166,3.3947196,0.42394608,7.555928,-1
492,493,1583934049329,-6.0316997,-1.5690998999999999,8.6346,3.8821695,0.44022664,8.216871000000001,-1
493,494,1583934049339,-5.2581,-1.1825,8.8428,4.732609,0.7940035,8.401014,-1
494,495,1583934049349,-4.3875,-0.7679,8.7127,5.6146617,1.1397166,8.321105000000001,-1
495,496,1583934049359,-3.5351998999999994,-0.35459998,8.6503,6.4183183,1.3763691,8.372485000000001,-1
496,497,1583934049369,-3.0140998,-0.0971,8.6142,6.7377720000000005,1.4523803,8.545241,-1
497,498,1583934049379,-3.0686998,-0.090399995,9.116,6.46807,1.1962197,9.335289,-1
498,499,1583934049389,-3.5523,-0.5521,10.3315,5.9973220000000005,0.54630893,10.666082000000001,-1
499,500,1583934049399,-3.8091,-1.0631,11.2578,6.009025,0.0723432,11.160428,-1
500,501,1583934049410,-3.4095,-1.1614,11.2406,6.8508162,0.14006081,10.972416,-1
501,502,1583934049420,-2.5595999,-0.8817,11.043099,7.523136999999999,0.22158815,10.728466000000001,-1
502,503,1583934049430,-1.9549999,-0.63839996,10.4817,7.9788303,0.41392875,9.843233,-1
503,504,1583934049440,-1.7709,-0.39799999999999996,9.590099,7.940753,0.20866904,8.983265,-1
504,505,1583934049450,-1.9182999,-0.66539997,8.901899,7.8612466,-0.23106919,8.716273,-1
505,506,1583934049460,-1.8183999,-1.0302,8.953,8.190268,-0.7277128,8.952083,-1
506,507,1583934049471,-1.3927,-1.3034999,9.211599,8.682553,-1.1301111000000001,9.086082000000001,-1
507,508,1583934049481,-0.63119996,-1.7003,9.3536,9.720172,-1.7079947,9.0241,-1
508,509,1583934049491,0.25,-1.8482,9.1487,10.407278,-1.730711,8.515677,-1
509,510,1583934049502,0.7018,-1.6595,8.574699,10.492091,-1.7286232,8.028744999999999,-1
510,511,1583934049512,0.4592,-1.5957999,8.0843,9.904094,-1.9239901000000001,7.5663,-1
511,512,1583934049522,-0.2026,-1.7146,7.8156996,9.184474,-2.7352414,7.2232202999999995,-1
512,513,1583934049532,-0.64559996,-2.4234998,7.5211,9.444263000000001,-3.6620847999999997,6.471173,-1
513,514,1583934049542,-0.1531,-3.1018,6.617999999999999,10.681405,-4.2674346,5.0090623,-1
514,515,1583934049553,1.2463,-3.4742,5.1370000000000005,12.37877,-4.7307606,3.7531218999999996,-1
515,516,1583934049563,2.9350998,-3.7439999999999998,4.1217,13.684195,-5.1484723,3.3159692,-1
516,517,1583934049573,4.167,-3.9629,3.865,14.21517,-5.4130507,3.5687394,-1
517,518,1583934049584,4.4983997,-4.0113997,4.3374,13.542821,-5.713465,4.3789473,-1
518,519,1583934049594,3.6234998999999997,-4.2341,5.210099700000001,11.832125999999999,-6.624335,4.7017812999999995,-1
519,520,1583934049604,2.1985,-4.8965,5.4168,11.014534,-7.5771503,3.6235190000000004,-1
520,521,1583934049614,1.4115,-5.7092,4.3398,11.5977335,-8.274581,1.6196008,-1
521,522,1583934049624,2.0204,-6.2419996,2.3,13.374834,-8.623484,-0.7373375,-1
522,523,1583934049634,3.8312,-6.4101,-0.0858,14.878995999999999,-8.666435,-2.3940487,-1
523,524,1583934049645,5.6952996,-6.2763,-2.0997,16.102942000000002,-8.497376,-3.4449785000000004,-1
524,525,1583934049655,6.6372,-5.9683,-2.8058,15.592967000000002,-8.234511,-2.6325588,-1
525,526,1583934049665,6.161299700000001,-5.5782,-1.9561,13.877454,-7.8664559999999994,-0.76695853,-1
526,527,1583934049675,4.481,-5.1342,-0.0616,11.599447,-7.694696400000001,0.5787743000000001,-1
527,528,1583934049686,2.2157,-4.9049,1.2886,10.172044,-8.020298,-0.29352912,-1
528,529,1583934049696,0.8114,-5.1619997,0.4044,10.557233,-8.324132,-3.2584703,-1
529,530,1583934049706,3.1425998,-5.5801,-4.9593,12.861948,-8.748481,-5.675685,-1
530,531,1583934049716,3.1425998,-5.5801,-4.9593,13.914152,-9.172934,-5.778291,-1
531,532,1583934049726,4.1268997,-6.3478,-4.6486,13.029437,-9.712913,-4.827936599999999,-1
532,533,1583934049736,2.102,-6.6538997,-4.3451,10.915673,-10.111652000000001,-4.86406,-1
533,534,1583934049746,0.6576,-6.6995997,-6.2025,9.791193,-10.0725975,-6.923131,-1
534,535,1583934049757,1.1034,-6.304199700000001,-8.9843,10.567708999999999,-9.675907,-9.6405115,-1
535,536,1583934049767,2.7245998,-5.857199700000001,-11.004499000000001,12.202604,-9.296723,-11.325895,-1
536,537,1583934049777,3.6634,-5.5449,-11.6248,12.824302000000001,-9.019112,-11.743262,-1
537,538,1583934049787,2.9938,-5.3492,-11.2478,11.87411,-8.805222500000001,-11.343153,-1
538,539,1583934049797,1.3343999,-5.013099700000001,-10.753699000000001,10.144299499999999,-8.38979,-10.997775,-1
539,540,1583934049807,-0.4569,-4.5318,-10.5647,8.465601,-7.8551173,-10.880009,-1
540,541,1583934049818,-1.4241999,-4.0263,-10.5315,7.7025585,-7.3148610000000005,-10.888972,-1
541,542,1583934049828,-1.5152999,-3.6065,-10.8735,7.93946,-6.789285700000001,-11.454272,-1
542,543,1583934049838,-0.7594,-3.1074998,-11.6228,8.655039,-6.303684,-12.000582000000001,-1
543,544,1583934049848,-0.1884,-2.6062999,-12.2021,9.1137295,-5.7802734000000004,-12.534019,-1
544,545,1583934049859,-0.2471,-2.3091,-12.2456,8.829385,-5.5203013,-12.125971,-1
545,546,1583934049869,-0.86759996,-2.2275,-11.3224,8.090726,-5.4779625,-11.200918,-1
546,547,1583934049879,-1.6362,-2.2575,-10.5766,7.4020863,-5.431208,-10.553727,-1
547,548,1583934049889,-2.1389,-2.1866999,-10.0225,7.044890400000001,-5.3049290000000004,-10.10967,-1
548,549,1583934049900,-2.3154,-2.0389,-9.7599,6.9737444,-5.134021,-9.873247000000001,-1
549,550,1583934049910,-2.2633997999999997,-1.9986999,-9.554999,7.11257,-5.167415,-9.566981,-1
550,551,1583934049920,-2.1202,-2.0966,-9.2148,7.277760000000001,-5.322904,-8.946241,-1
551,552,1583934049930,-1.9944998999999999,-2.3553,-8.3605995,7.314535,-5.6581980000000005,-7.733386,-1
552,553,1583934049940,-2.0442,-2.6894,-7.1738,7.1104536,-6.0464892,-6.688001600000001,-1
553,554,1583934049950,-2.3288,-3.0812,-6.3722,6.816675,-6.3429494,-6.2106069999999995,-1
554,555,1583934049961,-2.5930998,-3.2066,-6.143399700000001,6.666386599999999,-6.257016,-6.177471,-1
555,556,1583934049971,-2.6306,-3.0941,-6.1825,6.747933,-6.1704607000000005,-6.0558653,-1
556,557,1583934049981,-2.5691,-3.0772998,-6.013,6.763438000000001,-6.2367325,-5.710114,-1
557,558,1583934049991,-2.4873,-3.1474,-5.2797,6.867404,-6.3720627,-4.529743700000001,-1
558,559,1583934050002,-2.4247,-3.324,-4.3138,6.8585258,-6.60181,-3.5032341000000002,-1
559,560,1583934050012,-2.4594998,-3.4598,-3.5598,6.767048399999999,-6.620916,-3.036748,-1
560,561,1583934050022,-2.5325,-3.4357998,-3.1936,6.7234545,-6.5880575,-2.7812292999999997,-1
561,562,1583934050033,-2.5642998,-3.3962998,-2.9724998,6.6935368,-6.6654387,-2.6218138,-1
562,563,1583934050043,-2.5937997999999998,-3.4973,-2.8276,6.759386500000001,-6.891603999999999,-2.4312449000000003,-1
563,564,1583934050053,-2.474,-3.7003,-2.6527,6.887754400000001,-7.1388679999999995,-2.0115986,-1
564,565,1583934050064,-2.3332,-3.8802998,-2.2228,6.981271700000001,-7.3140755,-1.6986861,-1
565,566,1583934050074,-2.2412,-4.0112,-2.0203,6.9354568,-7.384235400000001,-1.5883421999999998,-1
566,567,1583934050085,-2.3054,-4.0339,-1.8445,6.8793745,-7.641247999999999,-0.52715534,-1
567,568,1583934050096,-2.3191,-4.2399,-0.91819996,7.044967,-7.928207400000001,0.97906566,-1
568,569,1583934050106,-1.9267999,-4.604,1.7851,7.261776400000001,-8.126716,2.4407257999999996,-1
569,570,1583934050116,-1.7651999,-4.7317,2.6036,7.424323599999999,-8.318174,3.2401497000000004,-1
570,571,1583934050126,-1.5023999,-4.7169,3.0224,7.645471000000001,-8.310945,3.6050167,-1
571,572,1583934050136,-1.2570000000000001,-4.4551997000000005,2.8399,7.87383,-8.065185000000001,3.3335428,-1
572,573,1583934050147,-1.2570000000000001,-4.4551997000000005,2.8399,8.161575,-7.7466693,2.8539076,-1
573,574,1583934050157,-0.45069999,-3.4491,2.2138999,8.629172,-7.1757,3.0897555,-1
574,575,1583934050167,-0.3354,-2.9456,3.1181,8.628809,-6.715381,4.193818,-1
575,576,1583934050178,-0.6655,-2.6362,4.6362,8.041482,-6.549617,6.096346400000001,-1
576,577,1583934050188,-1.4096999,-2.5967,6.1105,7.2177234,-6.488392,7.532905599999999,-1
577,578,1583934050199,-2.0548,-2.4192998,7.1877,6.7789235,-6.305331,8.140152,-1
578,579,1583934050209,-2.0471,-2.1369998,6.9315,7.052619,-6.062349,7.751170599999999,-1
579,580,1583934050219,-1.4725,-1.7761999,6.5059,7.7642145000000005,-5.6669415999999995,7.345066,-1
580,581,1583934050229,-0.4908,-1.2631999,5.6872997000000005,8.620084,-5.304603,6.6071729999999995,-1
581,582,1583934050239,0.44169998,-0.8897,4.922,9.533989,-5.0010657,6.014187000000001,-1
582,583,1583934050249,1.0144,-0.6538,4.817199700000001,9.780621,-4.842809,6.3289,-1
583,584,1583934050260,0.8308,-0.5011,5.4982,9.067885,-4.81993,7.427637,-1
584,585,1583934050270,-0.067999996,-0.6166,6.4533997,8.24226,-5.123314,8.171027,-1
585,586,1583934050280,-0.93119997,-1.0914999,7.3826,7.626021000000001,-5.5855865,9.091205,-1
586,587,1583934050290,-1.1164,-1.3498,7.8745,7.659444000000001,-5.6128800000000005,8.997438,-1
587,588,1583934050301,-0.8569,-1.0946,7.3859,8.229301,-5.2700114000000005,8.455047,-1
588,589,1583934050311,-0.19319999,-0.7481,6.7091,8.79213,-4.863217400000001,7.6211944,-1
589,590,1583934050321,0.2931,-0.2941,5.7913,9.176841,-4.492432,6.7786365,-1
590,591,1583934050331,0.64809996,0.018199998999999998,4.9824,9.335902,-4.310808,6.043865,-1
591,592,1583934050341,0.6846,0.16749999,4.2802997000000005,9.193907000000001,-4.3390694000000005,5.367954,-1
592,593,1583934050351,0.43179998,0.0539,3.6913,8.959313,-4.373009,5.0999084,-1
593,594,1583934050362,0.3022,0.1489,3.6557998999999994,8.866581,-4.142956,5.300657299999999,-1
594,595,1583934050372,0.1794,0.3964,3.9083997999999998,8.741575,-3.8482962,5.4556484,-1
595,596,1583934050382,-0.022699999,0.6709,3.9336998,8.4119215,-3.7274272000000006,5.180047,-1
596,597,1583934050392,-0.32099998,0.68149996,3.5388,8.330788,-3.7386415,4.801648,-1
597,598,1583934050402,-0.203,0.70879996,3.1575,8.7372465,-3.6805778,4.446837,-1
598,599,1583934050412,0.29209998,0.7327,2.8671,9.0802965,-3.739992,4.225268,-1
599,600,1583934050423,0.4752,0.6705,2.6227999,9.128861,-3.7882016000000003,3.9483642999999997,-1
600,601,1583934050433,0.4901,0.6349,2.3495998,9.045505,-3.8522897000000005,3.5110104,-1
601,602,1583934050443,0.3845,0.56589997,1.865,8.937584,-3.8829834,3.2323542,-1
602,603,1583934050454,0.31489998,0.5426,1.683,8.956325999999999,-3.9518979,3.3334086000000003,-1
603,604,1583934050464,0.3405,0.4491,1.8366,8.947094,-4.080868700000001,3.6794474000000004,-1
604,605,1583934050474,0.266,0.3154,2.244,8.608678,-4.196442,4.1184959999999995,d
605,606,1583934050484,-0.1129,0.2005,2.6618,8.060338,-4.249411,4.225402,-1
606,607,1583934050494,-0.5875,0.1556,2.7166,7.894860700000001,-4.2135267,4.017796,-1
607,608,1583934050505,-0.7624,0.16499999,2.4412,8.065491,-4.366401000000001,3.8565227999999996,-1
608,609,1583934050516,-0.1204,-0.118499994,2.1295,8.594916,-4.5845227,3.6429980000000004,-1
609,610,1583934050526,0.3865,-0.242,1.5192,9.082816000000001,-4.6946564,3.058535,-1
610,611,1583934050536,0.3865,-0.242,1.5192,9.461895,-4.7421474,2.691351,-1
611,612,1583934050546,1.3165,-0.3137,0.6073,9.972971000000001,-4.747558000000001,2.328974,-1
612,613,1583934050556,1.6079999,-0.217,0.75549996,10.169755,-4.6287675,2.657717,-1
613,614,1583934050567,1.3729999,-0.16849999,1.2677,9.835515,-4.617074,3.1911259999999997,-1
614,615,1583934050577,1.3729999,-0.16849999,1.2677,9.393756,-4.638574,3.6102455,-1
615,616,1583934050587,0.2531,-0.14379999,1.8835,8.741652,-4.5105133,3.7134546999999998,-1
616,617,1583934050597,0.2531,-0.14379999,1.8835,8.508486,-4.430317,3.4475546,-1
617,618,1583934050607,-0.0497,0.071499996,1.1714,8.627765,-4.241242400000001,3.0329077,-1
618,619,1583934050618,0.4103,0.1433,0.87399995,9.275089999999999,-4.173946,2.7698232999999997,-1
619,620,1583934050628,1.0854,0.1114,0.7655,9.875843,-4.251499,2.7766707000000004,-1
620,621,1583934050638,1.4136,-0.0101,0.85649997,10.033304,-4.3346160000000005,2.8664532000000005,-1
621,622,1583934050648,1.3939999,-0.0596,0.9924,10.032616,-4.3161515999999995,3.068543,-1
622,623,1583934050658,1.4705,-0.0761,1.2716,10.113078999999999,-4.3818684,3.370653,-1
623,624,1583934050669,1.5485,-0.243,1.3023,10.333547,-4.5219765,3.2210345,-1
624,625,1583934050679,2.1290998,-0.3432,0.93659997,11.173864,-4.5020565999999995,2.7054286,-1
625,626,1583934050690,3.2110000000000003,-0.1989,0.2126,12.378243,-4.233351,2.0649319,-1
626,627,1583934050700,3.9775998999999995,-0.019399998999999998,-0.021399999,12.790314,-4.0727477,2.4155676,-1
627,628,1583934050710,4.1401,0.12079999599999999,0.92759997,12.692927000000001,-3.9026062000000006,3.5935339999999996,-1
628,629,1583934050720,3.6216998,0.2386,2.1859,11.828228,-3.6531013999999997,5.1191580000000005,-1
629,630,1583934050730,2.8192,0.4035,3.3553998,11.165177,-3.4551108,6.292977,-1
630,631,1583934050740,2.2747,0.42949998,4.296,10.911632,-3.390247,7.0460114,-1
631,632,1583934050750,2.1947,0.4001,4.7762,10.9438095,-3.4707974999999998,7.247507000000001,-1
632,633,1583934050761,2.3792999,0.264,4.607199700000001,11.445424000000001,-3.475289,7.1341944,-1
633,634,1583934050771,2.99,0.21169999,4.4979997,12.152087,-3.4284105000000005,7.334148399999999,-1
634,635,1583934050781,3.7512999,0.2094,4.6033,12.846328999999999,-3.459248,7.4432287,-1
635,636,1583934050791,4.2885,-0.0349,4.5151,13.044799000000001,-3.9283773999999996,7.151710499999999,-1
636,637,1583934050801,4.2647,-0.81009996,4.1874,12.950016999999999,-4.8127093,7.0881300000000005,-1
637,638,1583934050811,4.1351,-1.7823,4.4932,12.961835,-5.597347,7.6726694,-1
638,639,1583934050822,4.1628,-2.4989998,5.2054,13.118214000000002,-5.953087,8.227903999999999,-1
639,640,1583934050832,4.2174997,-2.7766,5.5754,13.135183999999999,-5.8442845000000005,8.042162,-1
640,641,1583934050842,4.1165,-2.6557,5.2771,12.9914465,-5.456175,7.461079600000001,-1
641,642,1583934050852,3.9094,-2.3988,4.6349998,12.95831,-5.077096,6.661761,-1
642,643,1583934050862,3.9002,-2.3046,4.0786,13.256092,-5.0672517,6.049305,-1
643,644,1583934050872,4.2061,-2.4466999,3.4685,13.635371,-5.101775599999999,5.2297792,-1
644,645,1583934050883,4.6006,-2.6495,2.3169,14.088804000000001,-5.129711599999999,3.6849542,-1
645,646,1583934050893,4.8684998,-2.7877,1.219,14.224048000000002,-4.9842777,3.07766,-1
646,647,1583934050903,4.9107,-2.7372,0.8441,14.096570999999999,-4.586946,3.2923815000000003,-1
647,648,1583934050913,4.638999999999999,-2.4914,1.308,13.594957,-4.3149548,3.8660803,-1
648,649,1583934050924,4.0649,-2.4552999,1.9088,13.081612,-3.9980295,4.044668700000001,-1
649,650,1583934050934,3.4833998999999998,-2.2855,2.017,12.482544,-3.5458032999999998,3.5011082,-1
650,651,1583934050944,2.8174,-2.0161,1.4581,11.880403,-2.8159833,2.6820517,-1
651,652,1583934050954,2.3028998,-1.5922999,0.8817,11.610336,-1.834332,2.695507,-1
652,653,1583934050964,2.0011,-0.8027,0.9651,11.109411999999999,-1.1686098999999999,2.7078898,-1
653,654,1583934050974,1.4714999,-0.34129998,1.0356,10.7126255,-1.0026054,2.536168,-1
654,655,1583934050985,0.9279999999999999,-0.3427,0.85649997,10.016794,-1.1995046,1.9556701,-1
655,656,1583934050995,0.3278,-0.7313,0.4188,9.939108000000001,-1.6851348999999998,1.2814918,-1
656,657,1583934051005,0.22649999,-1.355,-0.15799999,10.186275,-2.484808,1.0216346,-1
657,658,1583934051015,0.24149999,-3.6181997999999997,0.15799999,9.994825,-3.6659057,1.2997738,-1
658,659,1583934051025,-0.6856,-4.3782997,0.54829997,9.085909,-4.279989700000001,1.539328,-1
659,660,1583934051038,-2.2126,-3.8372998,0.7874,7.208711599999999,-3.2827377,1.7319368000000002,-1
660,661,1583934051048,-4.0358,-2.6418,1.1868,4.9385580000000004,-1.7141813999999997,2.0294116,-1
661,662,1583934051058,-6.0986,-1.9273,1.0896,3.261621,-1.1953961000000002,1.7106186999999997,-1
662,663,1583934051068,-7.728399799999999,-1.7897999,0.3161,1.8487835,-0.92817456,0.69398326,-1
663,664,1583934051079,-7.5860996,-1.7103,-0.48819998,2.6875392999999996,-0.75451833,-0.2050969,-1
664,665,1583934051091,-5.9488,-1.7542,-1.2793,4.655343,-0.93074113,-0.93285763,-1
665,666,1583934051101,-3.9917,-2.1281,-1.6347,6.5768147,-1.5389258,-1.2394303,-1
666,667,1583934051111,-2.8195,-2.7707,-1.6163,7.165424300000001,-2.1752186,-1.2103169,-1
667,668,1583934051121,-2.6643,-3.245,-1.4311999,6.6802344,-2.1463346000000003,-1.253355,-1
668,669,1583934051131,-3.5535997999999998,-2.9238,-1.4672999,5.328248,-1.4117745000000002,-1.5817723999999997,-1
669,670,1583934051141,-5.0369,-2.1545,-1.6883999,3.8808190000000002,-0.5694178000000001,-1.5801731,-1
670,671,1583934051152,-6.3511,-1.4994999,-1.3131,2.6899717,-0.04841076,-0.93385357,-1
671,672,1583934051162,-7.165,-1.2554,-0.6526,2.3975343999999996,0.06643431,-0.2799875,-1
672,673,1583934051172,-7.3037996,-1.253,0.124,2.6334112000000003,0.034993652,0.05097734,-1
673,674,1583934051182,-6.807699700000001,-1.2587999,0.3252,3.634561,0.32444304,-0.66803014,-1
674,675,1583934051192,-5.8833,-0.87899995,-0.32889998,4.6742864,0.77680355,-1.5629636,-1
675,676,1583934051202,-4.8539,-0.4554,-1.1669999,5.4654074,0.79556453,-2.629705,-1
676,677,1583934051213,-4.1407,-0.43949997,-2.2075999,5.906285,0.74114907,-3.6863332000000004,-1
677,678,1583934051223,-3.7717998,-0.4046,-3.1462998,5.9296904,0.807411,-4.340841,-1
678,679,1583934051234,-3.8339,-0.3118,-3.6894998999999995,5.8138976,0.57734734,-4.3808913,-1
679,680,1583934051244,-3.9038,-0.58599997,-3.5837998,6.289817,0.28871199999999997,-3.907136,-1
680,681,1583934051254,-3.4415998,-0.7723,-3.1086,7.134481399999999,0.44637498,-3.0070887,-1
681,682,1583934051265,-2.595,-0.61219996,-2.151,7.708611500000001,1.0078056999999998,-1.7196018,-1
682,683,1583934051275,-2.0119998,-0.0402,-0.81299996,7.2433414,1.480019,-1.3865013000000002,-1
683,684,1583934051285,-2.4673,0.4206,-0.4308,6.3996434,1.5643331,-2.473076,-1
684,685,1583934051296,-3.304,0.4894,-1.4745,6.286139,1.359217,-2.6069887,-1
685,686,1583934051306,-3.4139,0.2545,-1.5570998999999999,6.6838546,0.6404489999999999,-2.3928227000000004,-1
686,687,1583934051316,-2.3169,-1.1175,-1.6326,7.5574026,-0.08935161,-2.8816322999999997,-1
687,688,1583934051327,-1.3377999,-1.2944,-1.7833999,8.498467,-0.22665428,-3.056074,-1
688,689,1583934051337,-0.7431,-1.2175,-2.001,8.971141000000001,-0.04904283,-3.377644,-1
689,690,1583934051347,-0.7385,-0.9113,-2.4343,8.857511500000001,0.34782004,-3.984488,-1
690,691,1583934051358,-1.0191,-0.5445,-3.1559,8.560995,0.6902579000000001,-4.662478,-1
691,692,1583934051368,-1.1422,-0.3705,-3.1529999,8.5322075,0.77998304,-4.2470264,-1
692,693,1583934051378,-1.0471,-0.5554,-1.8439,8.650538000000001,0.52049947,-2.6397605,-1
693,694,1583934051388,-0.9593,-0.8121,-0.5997,8.682889,0.3763781,-1.9012451000000001,-1
694,695,1583934051398,-0.8416,-0.9102,-0.6082,8.876186,0.40113413,-2.4654243,-1
695,696,1583934051409,-0.569,-0.7374,-1.7339,9.171861999999999,0.6770036,-3.7554967000000006,-1
696,697,1583934051420,-0.26029998,-0.35459998,-2.7791997999999998,9.505068,1.0731673000000002,-4.453761,-1
697,698,1583934051431,-0.021399999,-0.1504,-2.8342,9.493307000000001,1.1423981,-3.8567044999999998,-1
698,699,1583934051441,-0.24229999,-0.2961,-1.8580999,9.100619,0.8351071,-2.7398286,-1
699,700,1583934051451,-0.60789996,-0.7104,-0.97849995,9.077691999999999,0.5285057,-2.4741297,-1
700,701,1583934051461,-0.3056,-0.9228,-1.0496,9.709762,0.53870493,-2.9878678,-1
701,702,1583934051472,0.449,-0.82629997,-1.6879,10.484697,0.67244506,-3.805325,-1
702,703,1583934051482,1.1410999,-0.7601,-2.5277998,10.934836,0.7826454,-4.6154459999999995,-1
703,704,1583934051492,1.3958,-0.6453,-2.9710999,10.95557,0.9838062,-4.414458,-1
704,705,1583934051502,1.2537999,-0.4236,-2.4823,10.355439,1.2430408000000002,-3.2581542000000003,-1
705,706,1583934051512,0.6673,-0.2531,-1.3273,9.641651,1.4692353,-2.1734657000000004,-1
706,707,1583934051522,-0.044000000000000004,-0.099199995,-0.32299998,8.975584,1.7370794999999999,-1.392573,-1
707,708,1583934051532,-0.6677,0.1408,0.4669,8.3497305,1.9414486,-1.0395623,-1
708,709,1583934051543,-1.247,0.2651,0.6816,8.219399000000001,2.0465827,-1.3209481,-1
709,710,1583934051553,-1.2276,0.37199998,0.2873,8.819894999999999,2.2029528999999997,-2.2170212000000005,-1
710,711,1583934051563,-0.5215,0.5514,-0.7751,9.748375,2.1795855,-3.7455754,d
711,712,1583934051573,0.37469998,0.5571,-2.3508,10.592130000000001,2.010325,-5.1576085,-1
712,713,1583934051583,1.1524999,0.3928,-3.7903,11.117006,1.6434662,-6.298704,-1
713,714,1583934051594,1.6391,0.0717,-4.7929997,11.653364999999999,1.3251618,-6.429657499999999,-1
714,715,1583934051604,2.1502,-0.1928,-4.768399700000001,11.737238,1.126788,-6.088838,-1
715,716,1583934051614,1.9606999,-0.47709998,-4.2584,10.82114,0.69828326,-5.230325,-1
716,717,1583934051624,1.0508,-0.8587,-3.5663998,9.730582,0.46679273,-4.990952500000001,-1
717,718,1583934051634,0.1642,-1.0813,-3.4480998999999994,9.074044,0.53264284,-5.187641,-1
718,719,1583934051645,-0.49539998,-1.0638,-3.6511,8.690416,0.7780005999999999,-4.782303,-1
719,720,1583934051655,-0.8695,-0.8577,-3.2482,8.261652,0.6778847,-5.332768,-1
720,721,1583934051665,-1.2930000000000001,-1.0041,-3.7796998,8.130842999999999,0.24926512,-6.941174,-1
721,722,1583934051675,-1.4053999,-1.446,-5.3870997,8.86843,-0.24052150000000003,-8.797015,-1
722,723,1583934051686,-0.6679999999999999,-1.9271,-7.2293,10.201741,-0.6820984999999999,-9.893243,-1
723,724,1583934051696,0.6645,-2.3578,-8.3229,11.438624,-0.916328,-9.965902999999999,-1
724,725,1583934051706,2.5812,-2.5205,-8.059999000000001,12.119842,-0.7780005999999999,-9.442263,-1
725,726,1583934051716,1.9356999,-2.2096,-7.3345,11.198045,-0.40266642,-8.6310005,-1
726,727,1583934051726,0.39399999999999996,-2.0779998,-6.6031,9.341198,-0.18671902,-7.7368727,-1
727,728,1583934051737,0.39399999999999996,-2.0779998,-6.6031,8.070777,0.09040506,-7.0952168,-1
728,729,1583934051747,-3.2983,-1.4848,-5.1308,5.8931932,0.6325673,-6.3367143,-1
729,730,1583934051757,-4.5069,-1.1349,-4.6507,4.8908467,1.0966115,-5.738595,-1
730,731,1583934051767,-4.732199700000001,-0.6493,-4.2574,4.832725,1.6232688,-5.3210370000000005,-1
731,732,1583934051778,-4.2283998,-0.2932,-4.013099700000001,5.5648527,1.9646245,-4.840693,-1
732,733,1583934051788,-3.5900998,-0.2129,-3.5716,6.0341252999999995,1.9889207999999998,-4.352841000000001,-1
733,734,1583934051798,-3.2656,-0.3612,-3.0964,6.288936,1.76762,-3.7706952000000005,-1
734,735,1583934051808,-3.322,-0.81579995,-2.2502,6.189442,1.3107393,-2.6951911,-1
735,736,1583934051818,-3.6799,-1.2085,-1.2494,5.742492700000001,0.96859825,-1.7181557,-1
736,737,1583934051828,-4.2808,-1.3712,-0.9625,5.0206313,0.92106855,-1.3176153999999998,-1
737,738,1583934051839,-4.9094996,-1.3105,-0.4969,4.396712,0.9484582,-0.435036,-1
738,739,1583934051849,-5.5959,-1.4539,0.7888,3.6264589999999997,0.7455065,1.5138059,-1
739,740,1583934051859,-6.4396,-1.7162,3.3625998,2.7300413,0.35720533,4.558177,-1
740,741,1583934051869,-7.3936996,-2.2556,6.4933,1.9135896000000001,-0.18705419,7.6859717000000005,-1
741,742,1583934051879,-7.5687,-2.5702999,9.035,2.3561819,-0.42129332,10.115205,-1
742,743,1583934051889,-6.2700996,-2.6053,10.8699,4.079988,-0.43271846,11.177475,-1
743,744,1583934051900,-4.3782,-2.2308,10.344299000000001,6.3001595,0.17475757,9.701122999999999,-1
744,745,1583934051910,-2.7515,-1.5248,8.873899,7.399941,0.78246343,8.817337,-1
745,746,1583934051920,-2.1016,-0.9264,8.571,7.4816027,0.99906206,9.396189,-1
746,747,1583934051930,-2.5252,-0.9052,10.0854,6.588354600000001,0.64993,12.108838,-1
747,748,1583934051940,-3.484,-1.2062,12.6524,5.470502,0.32523796,14.638829000000001,-1
748,749,1583934051950,-4.6078,-1.4754,14.806398999999999,4.765658999999999,0.05823656,15.965916,-1
749,750,1583934051960,-5.0358,-1.6229,15.8891,4.889343,-0.0491769,16.865091,-1
750,751,1583934051970,-4.4562,-1.5293,16.2845,5.802453,-0.021212627999999997,16.921882999999998,-1
751,752,1583934051980,-3.5256998999999998,-1.4470999,15.9003,6.678520699999999,-0.06460514,16.087646,-1
752,753,1583934051990,-2.7138,-1.3934,14.981998999999998,7.371488,-0.189774,15.184218,-1
753,754,1583934052001,-2.1574,-1.5144,13.925099,7.647051299999999,-0.40529045,13.954201999999999,-1
754,755,1583934052011,-2.1014,-1.5807999,12.6282,7.558523700000001,-0.5613254,12.704736,-1
755,756,1583934052021,-2.1827,-1.6524999,11.655,7.704311,-0.71687186,12.320964,-1
756,757,1583934052031,-1.8324,-1.7161,11.6776,8.1979,-0.9904142,12.467680999999999,-1
757,758,1583934052041,-1.4722998999999999,-2.0142999,11.6577,8.298342,-1.4443357,11.854056,-1
758,759,1583934052051,-1.5435,-2.3708,10.8101,8.231975,-1.8826278000000003,10.765346000000001,-1
759,760,1583934052061,-1.4275999,-2.6365,9.9537,8.633089,-2.2122613999999996,9.979578,-1
760,761,1583934052072,-0.94769996,-2.9334998,9.219399000000001,9.125347,-2.6483223,9.154815,-1
761,762,1583934052082,-0.5643,-3.2605,8.4065,9.34704,-3.1780060000000003,7.8634585999999995,-1
762,763,1583934052092,-0.3556,-3.7082,6.851999799999999,9.997688,-3.8354824,5.249498,-1
763,764,1583934052102,0.3946,-4.0903,4.665499700000001,11.12687,-4.1651254,3.3745794,-1
764,765,1583934052112,1.6279,-4.2792,3.0351999,12.449255,-4.6767955,2.0968323,-1
765,766,1583934052123,2.8158,-4.6931,2.0523999,12.994712,-5.209879,1.5621687,-1
766,767,1583934052133,3.2129,-5.0972,1.8202,12.9800205,-5.640308,1.7691427,-1
767,768,1583934052143,3.0635,-5.4168,2.3205,12.582325,-6.0364337,1.6322421999999999,-1
768,769,1583934052153,2.7389,-5.694,1.9331,12.472068,-6.5272164,-0.04465665,-1
769,770,1583934052163,2.7291,-6.0565,0.0319,12.963127,-6.81838,-2.7952783,-1
770,771,1583934052173,3.3490998999999997,-6.1822,-2.6796,13.867408,-6.902962,-5.22659,-1
771,772,1583934052184,4.2858,-6.1215,-4.842,14.427278,-7.0513452999999995,-6.316948,-1
772,773,1583934052194,4.8322,-6.2974,-5.780999700000001,14.806173999999999,-7.571298599999999,-7.0538735,-1
773,774,1583934052204,5.085,-6.5239,-6.1756997,15.201993,-7.816273,-8.047908,-1
774,775,1583934052215,5.6512,-6.7166,-7.507000000000001,16.33626,-7.8532305,-10.759878,-1
775,776,1583934052225,6.6482,-6.6232996,-9.7591,16.88639,-7.439483999999999,-12.732614,-1
776,777,1583934052235,7.212000000000001,-6.1450996,-11.6608,16.418228,-6.800978999999999,-13.724981,-1
777,778,1583934052245,6.7525997,-5.4968,-12.585799,14.953014999999999,-6.040973,-13.397962,-1
778,779,1583934052255,5.2978997,-4.7486997,-12.1896,13.084274,-5.2058372,-12.33032,-1
779,780,1583934052266,3.4269998,-3.9589,-11.0496,11.511494,-4.45786,-11.777633999999999,-1
780,781,1583934052276,1.8571,-3.2659,-10.4579,10.730036,-3.6729638999999996,-12.397884,-1
781,782,1583934052286,1.1608,-1.8234999,-12.7141,10.904372,-2.8004498,-14.409301999999999,-1
782,783,1583934052296,1.6729,-1.1094998999999999,-13.767798999999998,11.387628,-2.1204294999999997,-15.297014,-1
783,784,1583934052306,1.7436,-0.621,-14.206099499999999,11.395116999999999,-1.7304045,-15.633237,-1
784,785,1583934052317,1.204,-0.3396,-14.2978,10.854697,-1.4191871,-15.741473000000001,-1
785,786,1583934052327,0.38779998,-0.21859999,-14.3064995,9.883868,-1.2479346000000002,-15.719428,-1
786,787,1583934052337,-0.3322,-0.0598,-13.8503,9.20696,-1.0110427,-15.146360999999999,-1
787,788,1583934052347,-0.8674,0.1608,-12.773299,8.676768,-0.73900384,-13.9225025,-1
788,789,1583934052358,-1.5704,0.23249999,-11.155399000000001,7.910806,-0.6558196999999999,-12.268157,-1
789,790,1583934052368,-2.549,0.112399995,-9.725699,6.8205924,-0.79414713,-10.768948,-1
790,791,1583934052378,-3.1843998,-0.1907,-9.129399000000001,6.461739499999999,-1.0877241000000002,-10.4737425,-1
791,792,1583934052388,-3.1030998,-0.6719,-8.9124,6.830168700000001,-1.6476896,-10.169486000000001,-1
792,793,1583934052398,-2.4515998,-1.2469,-8.8216,7.394549400000001,-2.159618,-10.133469,-1
793,794,1583934052409,-1.7405,-2.0045,-8.6599,8.165797999999999,-2.9984312,-9.672191999999999,-1
794,795,1583934052419,-1.4023,-2.5163999,-7.77,8.216096,-3.415003,-8.580867,-1
795,796,1583934052429,-1.9185,-2.8874998,-6.7925997,7.463847,-3.6990702000000004,-7.613503999999999,-1
796,797,1583934052439,-2.7693,-3.0760999,-5.6618,6.623310000000001,-3.7470790000000003,-6.23634,-1
797,798,1583934052449,-3.5117,-3.0709999,-4.1257,5.976406,-3.729017,-4.803439,-1
798,799,1583934052459,-4.1258,-3.1153998,-3.2768998,5.390258,-3.778146,-4.2344904,-1
799,800,1583934052470,-4.4254,-3.2891998,-2.9141998,5.5288057,-3.9272568,-3.7512065999999997,-1
800,801,1583934052480,-4.0475,-3.3446,-2.6155999,5.939401,-3.9920537000000005,-3.4962144,-1
801,802,1583934052490,-3.4345999,-3.5648,-2.1589,6.543487,-4.3482723,-2.7826464,-1
802,803,1583934052500,-2.9861999,-3.9350998,-1.3385999,6.8930793,-4.722802,-1.9121148999999997,-1
803,804,1583934052510,-2.7147,-4.2028,-0.5870000000000001,7.1000914999999996,-4.9274683,-1.0899651000000001,-1
804,805,1583934052520,-2.6395,-4.22,-0.055,7.035812,-4.828119,-0.48218265,-1
805,806,1583934052531,-2.8983,-4.0460997,0.59779996,6.615475999999999,-4.650947,0.23740904,-1
806,807,1583934052540,-3.5986,-3.7675,1.5288,5.656656,-4.3486843,1.5211704,-1
807,808,1583934052550,-4.416,-3.5342998999999997,2.5053,4.9736476,-4.131693,2.4113634,-1
808,809,1583934052560,-4.9084,-3.2484999,3.2628,4.893796400000001,-3.8906257000000006,3.1082485,-1
809,810,1583934052572,-4.5846,-2.8149,4.1558,5.5963025,-3.2906961000000003,4.5266595,-1
810,811,1583934052582,-4.1011,-2.342,5.0786,5.892791000000001,-3.1172602000000005,5.234577,-1
811,812,1583934052592,-3.7229,-2.0611,5.7913,6.2489815,-2.9407883,5.716875,-1
812,813,1583934052602,-3.3716998,-1.8201,6.0196,6.690951299999999,-2.9720855,5.9949374,-1
813,814,1583934052613,-3.0084,-1.8474,6.2458,6.7965160000000004,-3.2129323,6.335546,-1
814,815,1583934052623,-2.9966998,-2.0507998,6.6561,6.407669,-3.49744,7.0656815,-1
815,816,1583934052633,-3.4055998,-2.1785,7.3366,6.061257,-3.5068831,8.372398,-1
816,817,1583934052643,-3.6564998999999996,-1.9928999,8.7095995,6.146308400000001,-3.1375535,9.799602,-1
817,818,1583934052654,-3.5328998999999994,-1.4698,9.9615,6.060931,-2.7547781000000002,10.154978,-1
818,819,1583934052664,-3.6129,-1.0771998999999999,10.132199,6.0049644,-2.7461972,10.0979185,-1
819,820,1583934052674,-3.6408,-0.9499,10.058,6.4226756,-3.154265,10.336047,-1
820,821,1583934052684,-3.2038999,-1.2314999,10.2927,6.9318075,-3.650353,10.52333,-1
821,822,1583934052695,-2.5082,-1.68,10.4994,7.64233,-4.0893826,10.372295,-1
822,823,1583934052705,-1.9172,-1.8791,10.353399000000001,7.7188873,-4.270997,10.51315,-1
823,824,1583934052715,-1.8148999,-1.9145999,10.493,7.336868300000001,-3.9267108,11.013749,-1
824,825,1583934052725,-2.1534998,-1.4466,10.9935,6.3533206,-3.2218676,11.8699255,-1
825,826,1583934052737,-3.1093,-0.6117,11.814899,4.7871203,-2.9071643,12.767827,-1
826,827,1583934052747,-4.4451,-0.12799999,12.5422,4.594846700000001,-3.0688303,13.082108999999999,-1
827,828,1583934052757,-3.3565998,-0.5178,12.246799000000001,6.317206400000001,-3.707546,12.10719,-1
828,829,1583934052767,-1.6751,-0.98749995,10.773,7.8644834,-4.3658843,10.604628,-1
829,830,1583934052777,-0.65669996,-1.3697,9.6111,8.603928,-4.9102874000000005,9.566664999999999,-1
830,831,1583934052788,-0.6982,-1.8238,9.0959,8.183898,-5.7436132,9.014543,-1
831,832,1583934052798,-1.2026,-2.3509,8.8815,7.833129,-6.1981573,8.918565,-1
832,833,1583934052808,-1.1376,-2.4627,8.786,7.968056699999999,-6.4416666,8.463867,-1
833,834,1583934052818,-0.58889997,-2.388,7.6995997,8.709743,-6.49184,6.978332000000001,-1
834,835,1583934052829,0.5226,-2.2333,5.8438,9.611513,-6.457726999999999,5.5361032,-1
835,836,1583934052838,1.5776,-2.1789,4.745199700000001,10.527151,-6.698392,4.6561,-1
836,837,1583934052848,1.7587999,-2.5054,4.6544,10.2436495,-7.350362,4.7246413,-1
837,838,1583934052859,1.2319,-3.1648,4.7167,9.618045,-8.180777,4.675195700000001,-1
838,839,1583934052868,0.75479996,-3.7986,4.3886,9.144816,-8.830755,4.1424,-1
839,840,1583934052878,0.58559996,-4.2841997,3.3353,9.115176,-9.339312,3.205357,-1
840,841,1583934052888,1.1955999,-4.6222,2.0098,10.111212,-9.746143,1.8442918999999998,-1
841,842,1583934052899,2.7784,-4.6686997,0.7909999999999999,11.781091,-9.9738035,0.4842608,-1
842,843,1583934052909,2.7784,-4.6686997,0.7909999999999999,13.102499,-10.130614,-0.7001029000000001,-1
843,844,1583934052920,5.2602997,-4.7784,-1.3885,13.363601000000001,-10.190153,-1.0373884,-1
844,845,1583934052930,5.2602997,-4.7784,-1.3885,12.286985000000001,-10.115119,-0.5133073,-1
845,846,1583934052940,3.2001998,-4.4561,-0.2347,10.6195965,-9.806535,0.53896356,-1
846,847,1583934052950,1.5279,-3.9736,0.3513,8.707979,-9.269822,0.9223423000000001,-1
847,848,1583934052960,0.18509999,-3.5577,0.35959998,7.9022064,-9.127664,0.85126317,-1
848,849,1583934052970,-0.5082,-3.6230998,-0.47959998,7.414718,-9.460286,-0.7615381,-1
849,850,1583934052980,-0.3357,-3.9522,-2.4421,8.440308,-9.876761,-2.781574,-1
850,851,1583934052991,1.3652999,-4.2223,-4.5,10.58624,-9.981245,-4.071704,-1
851,852,1583934053001,3.4571,-4.1766,-5.3054,11.744996,-9.985536,-4.1901209999999995,-1
852,853,1583934053011,4.2307997,-4.0557,-5.2472,11.887058,-9.833101,-3.8033620000000004,-1
853,854,1583934053021,3.4854,-3.6926,-4.437599700000001,10.201646,-9.277858,-2.4310436,-1
854,855,1583934053031,1.7437999,-3.1743,-3.2186,8.568437,-8.95035,-1.442947,-1
855,856,1583934053041,0.3724,-3.0460000000000003,-2.7022,7.611464,-9.079808,-1.7036086,-1
856,857,1583934053052,-0.19699999999999998,-3.2856,-3.5978,7.759081,-9.253839,-3.1349772999999996,-1
857,858,1583934053062,0.5079,-3.2891998,-5.2799,9.094078,-9.134731,-4.5782112999999995,-1
858,859,1583934053072,2.0695,-3.1067,-6.3982,10.479239,-8.923065,-4.861436,-1
859,860,1583934053082,3.1836,-2.8153,-6.3129,10.936302,-8.502049000000001,-4.2467585,-1
860,861,1583934053092,3.2637,-2.4545,-5.664,10.562222,-8.39227,-3.521296,-1
861,862,1583934053102,2.6634998,-2.4203,-4.7146,9.671532000000001,-8.410572,-2.637395,-1
862,863,1583934053113,1.9083999,-2.4173,-4.0653,8.979941,-8.366835,-2.2316642000000004,-1
863,864,1583934053123,1.2399,-2.3539,-3.6747,8.409653,-8.114256,-1.8207520000000001,-1
864,865,1583934053134,0.6331,-2.1076,-3.3407998,7.920833,-8.018794,-2.1354077,-1
865,866,1583934053144,0.247,-2.0866,-3.9406,8.038791,-7.818859599999999,-3.0943047999999997,-1
866,867,1583934053154,0.5017,-1.8159999999999998,-4.9207,8.974828,-7.44795,-3.9218075,-1
867,868,1583934053164,1.3342999,-1.5189999,-5.598099700000001,9.576663,-7.3978342999999995,-4.021655600000001,-1
868,869,1583934053174,2.0054998,-1.4734,-5.6148,9.719405,-7.479754400000001,-3.4916367999999993,-1
869,870,1583934053184,1.9935,-1.6164,-4.9814997000000005,9.263856,-7.7505673999999996,-2.7091062000000004,-1
870,871,1583934053194,1.4472,-1.8836998999999999,-4.1331,8.642062,-7.7881656,-2.000911,-1
871,872,1583934053204,0.8519,-1.8725,-3.5117998,8.240708,-7.4716716,-1.7832205,-1
872,873,1583934053214,0.5263,-1.6087999,-3.3838,8.155475,-7.112541,-1.5943277,-1
873,874,1583934053224,0.44259998,-1.2656,-3.2430000000000003,8.026657,-6.871110000000001,-1.5292341999999999,-1
874,875,1583934053234,0.23629999,-0.99899995,-3.2347999,7.849754300000001,-6.7210894,-1.6337171,-1
875,876,1583934053245,0.12979999,-0.9072,-3.4019999999999997,8.125413,-6.6946473,-1.6772628,d
876,877,1583934053255,0.51199996,-0.89169997,-3.4457,8.694955,-6.5846004,-1.1935096,-1
877,878,1583934053265,0.96809995,-0.7977,-3.0279999,8.652693,-6.357956,-0.26173413,-1
878,879,1583934053276,0.50049996,-0.4015,-1.4404,8.106949,-6.0716953,0.5800289000000001,-1
879,880,1583934053286,-0.32819998,-0.108799994,-0.87439996,7.2444809999999995,-5.785751,1.0939202,-1
880,881,1583934053297,-1.2692,-0.0309,-0.8567,6.3372602,-5.7116169999999995,1.0819684999999999,-1
881,882,1583934053307,-1.8859999,-0.32709998,-1.0004,5.83964,-6.0883017,1.0088017,-1
882,883,1583934053317,-1.6074,-0.8936,-1.0927,6.336561,-6.627609700000001,1.0443509,-1
883,884,1583934053327,-0.3956,-1.2297,-0.73399997,7.593536,-6.9146557,1.5999589,-1
884,885,1583934053337,0.76909995,-1.3153,0.0657,8.637935,-6.9671173,2.4675217000000003,-1
885,886,1583934053347,1.3864,-1.1814,0.67359996,9.132328,-6.831633999999999,3.018418,-1
886,887,1583934053358,1.3864,-1.1814,0.67359996,9.007197,-6.797091,2.7413802000000005,-1
887,888,1583934053368,0.3791,-1.2522,-0.6048,7.511692999999999,-7.071974000000001,1.2826024999999999,-1
888,889,1583934053378,-0.9978,-1.6887,-1.5403,6.278085,-7.421154,0.74355286,-1
889,890,1583934053388,-1.7014999,-1.8305,-1.4336,6.0375924,-7.378805000000001,1.0970423,-1
890,891,1583934053398,-1.1379,-1.1992999,-0.2263,7.0979557,-6.3538190000000005,2.6245142999999995,-1
891,892,1583934053408,0.2261,-0.1469,0.76769996,8.51903,-5.401032,3.1954932,-1
892,893,1583934053419,1.3424,0.30359998,0.5660000000000001,9.175127,-5.530069999999999,2.27928,-1
893,894,1583934053429,1.048,-0.90999997,-1.5949999,8.413627,-7.3974223,-0.51069283,-1
894,895,1583934053439,0.5481,-3.0344,-4.4079,8.784048,-9.169908,-2.6718333,-1
895,896,1583934053449,2.5709,-3.7129,-4.5839,11.696978,-8.921935000000001,-1.6153392,-1
896,897,1583934053459,5.9551,-2.3803,-2.3171,14.734157000000002,-7.277080000000001,0.56486875,-1
897,898,1583934053470,7.2797,-0.9147,-0.898,14.356917000000001,-6.377665,1.0572412,-1
898,899,1583934053481,4.4902997000000004,-1.3354,-1.8745999,10.211758999999999,-7.843797,-0.93706185,-1
899,900,1583934053491,1.3295,-2.8306,-3.4768999,8.344042,-8.763688,-1.6642574,-1
900,901,1583934053501,0.2685,-3.366,-3.4706,8.525148,-8.832766000000001,-0.8139328,-1
901,902,1583934053511,1.3529999,-3.2452998,-2.2458,10.866266,-8.295392,0.36152443,-1
902,903,1583934053521,3.9622,-2.4076,-1.3991,12.956653999999999,-7.3293505,0.29298323,-1
903,904,1583934053532,5.4803,-1.6241,-1.8984,13.7077055,-6.85549,-0.5909369000000001,-1
904,905,1583934053542,5.6015,-1.3323,-2.5133997999999997,12.850561,-6.6185789999999995,-0.373687,-1
905,906,1583934053552,4.5682,-1.268,-1.8283,11.885919,-6.807461999999999,0.73035604,-1
906,907,1583934053562,3.388,-1.6481999,-0.3074,11.042689999999999,-7.103376,2.2391725,-1
907,908,1583934053572,2.8667998,-1.8928,0.79649997,11.1601305,-7.138686,2.1701330000000003,-1
908,909,1583934053582,3.1696,-1.9636999,0.2411,12.212574,-7.1441636,0.3467283,-1
909,910,1583934053592,4.2569,-2.0168,-1.3945,13.571024,-7.043138000000001,-0.56067413,-1
910,911,1583934053602,6.002000000000001,-1.8223,-2.03,15.262145,-6.682686,-0.5232192,-1
911,912,1583934053612,7.2563996,-1.5877999,-1.6012,15.867917000000002,-6.5051804,0.3078656,-1
912,913,1583934053622,7.2377996,-1.6126,-0.36949998,14.815952,-6.663628599999999,1.538447,-1
913,914,1583934053632,5.5638,-1.9336,0.9851,12.520650999999999,-6.825141,2.7406523,-1
914,915,1583934053642,3.6174,-2.1497,1.9886999,11.415208999999999,-6.826434,3.1005583,-1
915,916,1583934053653,2.6269,-2.2819,2.3606,11.311511999999999,-6.847666,2.8248131,-1
916,917,1583934053663,2.6576,-2.4736,2.0477,12.034224499999999,-6.899448,2.048594,-1
917,918,1583934053673,3.4253,-2.5939,1.436,13.100698,-6.713791400000001,1.8201200000000002,-1
918,919,1583934053683,4.3873997000000005,-2.5275,1.4498,13.547120999999999,-7.014618400000001,2.4866752999999995,-1
919,920,1583934053693,4.567199700000001,-3.1193,2.4019,13.147576999999998,-7.8232265,3.557554,-1
920,921,1583934053703,4.057699700000001,-3.9986,3.5367,12.664407,-8.050005,4.0195966,-1
921,922,1583934053714,3.5349998,-4.2084,3.9057,12.249272,-7.445392599999999,3.7026043,-1
922,923,1583934053724,3.0391998,-3.5906,3.6325,11.738980999999999,-6.1645427,3.2663900000000003,-1
923,924,1583934053734,2.3844,-2.4287,3.1899,10.799507,-4.897693599999999,2.5094585,-1
924,925,1583934053744,1.3181,-1.3749,2.4241998,9.615469000000001,-3.8871396000000003,1.5832473,-1
925,926,1583934053754,0.08800000000000001,-0.6283,1.5540999,8.8108635,-3.1105947,1.1756010000000001,-1
926,927,1583934053764,-0.6365,-0.035499997,1.3521999,8.772105999999999,-2.4109132,1.4167832,-1
927,928,1583934053775,-0.6574,0.3313,1.643,9.514461500000001,-2.7864869,1.6931508000000002,-1
928,929,1583934053785,0.044999998,-0.2022,1.9986,10.793004,-3.1280148,1.9724966,-1
929,930,1583934053795,1.2822,-0.70089996,2.3681997999999997,11.901538,-3.4212663,2.152828,-1
930,931,1583934053805,2.3538,-1.158,2.6183999,12.074542999999998,-3.182057,2.2071857,-1
931,932,1583934053815,2.4905,-1.1103,2.7273998,10.858146000000001,-2.2260522999999997,2.1942953999999997,-1
932,933,1583934053826,1.2318,-0.36659998,2.7475998,8.576432,-1.7753293999999997,1.8499134999999998,-1
933,934,1583934053836,-1.0843999,-0.1522,2.4271,6.566509700000001,-1.5617186,1.4381107,-1
934,935,1583934053846,-4.177,0.0098,1.6493,5.5541553,-1.0845829,0.9182913,-1
935,936,1583934053856,-3.6457998999999996,0.2953,1.2413,6.096107,-0.68529713,0.5861772,-1
936,937,1583934053866,-3.6457998999999996,0.2953,1.2413,7.180738000000001,-0.7653209,0.48365748,-1
937,938,1583934053876,-1.6945,-0.5172,1.3219,8.160914,-1.2706316,0.63916564,-1
938,939,1583934053887,-1.6139,-0.9129,1.3607999,8.061967,-1.4721467,0.65694016,-1
939,940,1583934053897,-2.1908998,-0.74729997,1.4222,7.426316,-1.0629872999999999,0.7283066,-1
940,941,1583934053908,-3.2287998,-0.39799999999999996,1.4602,6.334636,-0.5589599000000001,0.81203663,-1
941,942,1583934053918,-4.5884,0.052899998,1.4398999,4.906696299999999,0.057278882999999996,0.82033974,-1
942,943,1583934053929,-5.9452996,0.4502,1.3716999,3.4602152999999998,0.63108283,0.7759321,-1
943,944,1583934053939,-6.6713,0.53819996,1.2414,3.0429633,0.75852144,0.5593524999999999,-1
944,945,1583934053949,-6.7671,0.532,0.7521,3.097599,0.8270243,-0.13670893,-1
945,946,1583934053960,-6.469599700000001,0.3856,-0.2717,3.6036375,0.64427966,-1.258651,-1
946,947,1583934053970,-5.5153,-0.053,-1.0308,4.784381400000001,0.2878788,-1.5394813,-1
947,948,1583934053980,-4.3262997,-0.1978,-0.47849998,5.7458540000000005,0.5072547000000001,-0.33691204,-1
948,949,1583934053990,-4.1089,0.1603,0.78139997,4.996153,1.0453371999999999,1.1477133,-1
949,950,1583934054001,-5.46,0.5238,2.073,3.2992961000000003,1.2288097,1.9742491000000002,-1
950,951,1583934054010,-7.0843,0.52099997,2.3188999,2.2178063,1.3115915,1.6851254,-1
951,952,1583934054020,-7.875099700000001,0.6335,1.5590000000000002,1.918627,1.5195041,0.77679396,-1
952,953,1583934054031,-7.4316998,0.6913,0.40989998,3.227336,1.3727681999999999,-0.5143703,-1
953,954,1583934054041,-5.705899700000001,0.37219998,-0.37019998,5.3865419999999995,0.85528547,-0.95444375,-1
954,955,1583934054051,-3.5698998,-0.15179999,-0.6677,7.1550910000000005,0.41715613,-1.1238191000000002,-1
955,956,1583934054061,-2.2185,-0.40469998,-0.7504,7.8614473,0.44993752,-1.0306655,-1
956,957,1583934054071,-1.8953999,-0.18949999,-0.5026,7.565763499999999,0.88795197,-0.42903137,-1
957,958,1583934054082,-2.6002998,0.18699999,0.2891,6.4853945,1.036335,0.4838202999999999,-1
958,959,1583934054092,-3.7057998,0.1472,1.0412999,5.6373777,0.9102946,0.9152267,-1
959,960,1583934054102,-4.2718997000000005,-0.0277,1.2264999,5.4619784000000005,0.78031826,0.8900684000000001,-1
960,961,1583934054112,-4.2117,-0.2165,0.98109996,5.9884634000000005,0.5237077,0.37523845,-1
961,962,1583934054122,-3.3097,-0.4743,0.2969,7.525923700000001,0.438589,-1.0182348,-1
962,963,1583934054133,-1.9875,-0.42229998,-1.0883,8.742954,0.62272227,-2.2678068,-1
963,964,1583934054143,-0.78349996,-0.19899999999999998,-2.2022,9.66885,0.9354338,-2.4765334,-1
964,965,1583934054153,-0.0299,0.13239999,-2.2549,9.631654,1.186959,-1.9970229,-1
965,966,1583934054164,-0.255,0.3469,-1.7559999,8.91456,1.1198161,-0.98765606,-1
966,967,1583934054174,-0.8605,0.2092,-0.89839995,8.546486,1.0193648000000002,-0.30008924,-1
967,968,1583934054184,-1.2882,0.040599998,-0.0977,8.288936999999999,0.9080824000000001,0.118177794,-1
968,969,1583934054194,-1.4798,-0.072399996,0.25669998,8.429946000000001,1.1731493,0.43501687,-1
969,970,1583934054204,-1.3283,0.141,0.5256,8.3614435,1.491061,0.39411432,-1
970,971,1583934054215,-1.3931,0.41959998,0.5017,8.139884,1.5672541000000002,0.28838637,-1
971,972,1583934054225,-1.6157,0.4705,0.38779998,8.122167,1.536886,0.25049096,-1
972,973,1583934054236,-1.6235,0.4222,0.33859998,8.225874000000001,1.456843,0.043076478,-1
973,974,1583934054245,-1.4754,0.28489998,0.0848,8.74667,1.255711,-0.029036878,-1
974,975,1583934054255,-1.0042,0.12419999400000001,0.0629,9.295017999999999,1.1493126,0.0047405194,-1
975,976,1583934054265,-0.45479998,0.0242,0.085999995,9.480866,1.13964,-0.10698251,-1
976,977,1583934054275,-0.2776,0.0088,-0.0106,9.243122,1.2222111,-0.4855058,-1
977,978,1583934054286,-0.5018,0.0751,-0.3841,9.091339,1.4261781,-1.0441018,-1
978,979,1583934054295,-0.6566,0.2538,-0.9576,9.023382000000002,1.8073636999999998,-0.6258729999999999,-1
979,980,1583934054305,-0.7229,0.61579996,-0.5403,8.612882,1.9529886000000003,0.7413023,-1
980,981,1583934054317,-1.8252,0.65749997,2.1996,7.781500299999999,1.8746983,2.3244922000000003,d
981,982,1583934054326,-2.441,0.4565,2.5156999,7.224906,1.6691896000000002,2.2374485,-1
982,983,1583934054336,-2.3724,0.33929998,0.9694,7.506732,1.6078693000000002,0.45983997,-1
983,984,1583934054346,-1.3838999,0.7267,-0.70559996,8.575494,2.080006,-0.97507215,-1
984,985,1583934054356,-0.64059997,1.1057,-1.0131999,9.136024,2.3338869,-1.0051146999999998,-1
985,986,1583934054366,-0.64059997,1.1057,-1.0131999,8.913642,2.2463357000000004,0.06410715,-1
986,987,1583934054376,-1.9417,0.89599997,2.8774998,7.340267999999999,2.1252754,3.5383716,-1
987,988,1583934054386,-3.4661998999999994,0.7996,5.2061,5.887677,2.076587,5.5815835,-1
988,989,1583934054396,-4.6278,0.7053,6.3220997,4.8945336,2.0083234,6.1752114,-1
989,990,1583934054406,-5.3603,0.61969995,6.1211,4.2974195,1.9337871,5.740405,-1
990,991,1583934054416,-5.3603,0.61969995,6.1211,4.413193700000001,1.9208009999999998,4.9536896,-1
991,992,1583934054426,-4.5425997,0.5758,4.4277997000000004,5.390468599999999,1.8247361,4.055337000000001,-1
992,993,1583934054437,-3.6383997999999997,0.60899997,4.0232,6.2034720000000005,1.8538686000000002,3.7656102,-1
993,994,1583934054447,-3.3233,0.8551,4.4898,6.428623,2.0313939999999997,4.4237665999999995,-1
994,995,1583934054457,-3.6157,1.0988,5.5427,6.0020432,2.2008076,5.503389,-1
995,996,1583934054467,-4.4269,1.1996,6.4263,5.1691484,2.1761953999999997,6.3245807,-1
996,997,1583934054478,-5.1784,1.0152999,6.8806,4.3908224,1.7971356,6.6825137,-1
997,998,1583934054488,-5.3904,0.55469996,6.5937,4.516863,1.2100582,5.9833975,-1
998,999,1583934054500,-4.8275,0.16679999,5.7622,5.3415313,0.8681853999999999,5.2660275,-1
999,1000,1583934054510,-3.7640998,0.11599999999999999,5.1524,6.518952,1.0052104,4.3167844,-1
1000,1001,1583934054520,-3.1213999,0.62,4.4835,6.705441,1.3398814,4.0491505,-1
1001,1002,1583934054531,-3.2516,1.2092,4.5473,6.099564,1.6071223,4.0833974,-1
1002,1003,1583934054541,-4.036299700000001,0.94079995,4.4811997,5.3500447,0.83068264,3.5681074,-1
1003,1004,1583934054552,-4.562999700000001,0.012,3.8611,5.3298760000000005,-0.28360754,2.7228873,-1
1004,1005,1583934054562,-3.8019998,-1.416,2.5008,7.080995,-1.9669133,0.5807566999999999,-1
1005,1006,1583934054573,-1.8621999,-2.1833,0.7497,9.631453,-2.1006150000000003,-1.3537678999999998,-1
1006,1007,1583934054584,0.2251,-1.8975999,-0.64089996,10.901164,-1.7024881999999997,-2.3880246,-1
1007,1008,1583934054594,1.2153,-1.3192999,-1.4602,10.639746,-1.6912737,-2.5424507000000003,-1
1008,1009,1583934054604,0.73179996,-1.3363999,-1.4052,9.883025,-2.3556072999999995,-2.1498494,-1
1009,1010,1583934054614,0.0765,-2.0374,-1.0900999,9.867519999999999,-3.5990502999999996,-2.8368417999999997,-1
1010,1011,1583934054624,0.2298,-3.1444,-1.8892,11.031409,-4.528058000000001,-4.140829,-1
1011,1012,1583934054634,1.3291,-3.7245,-2.8683,12.484468,-4.564785,-4.9515157,-1
1012,1013,1583934054644,2.8028,-3.6327998999999997,-3.6025998999999995,13.013032,-4.0208797,-5.6156287,-1
1013,1014,1583934054654,3.3409,-2.7986,-4.3877997,12.320072999999999,-3.5542307,-6.2959456,-1
1014,1015,1583934054664,2.4326,-2.4113,-4.9897,11.219698,-4.071953,-6.4836035,-1
1015,1016,1583934054674,1.4541,-2.9297,-5.1299996,11.153437,-5.093539700000001,-6.632685700000001,-1
1016,1017,1583934054684,1.5275999,-3.6673,-5.2883997,11.790869,-5.9020715,-7.3259315,-1
1017,1018,1583934054695,2.3811,-4.5432,-6.2549996,12.952850999999999,-6.8115516000000005,-9.077079,-1
1018,1019,1583934054705,3.3762999,-5.1239,-7.7246,13.858319,-6.9524745999999995,-10.0270605,-1
1019,1020,1583934054715,4.3141,-5.1365,-8.6644,14.254253,-6.8578267,-10.004439999999999,-1
1020,1021,1583934054725,4.7683,-4.8657,-8.519899,13.751548000000001,-6.0451584,-9.315398,-1
1021,1022,1583934054735,4.2339997,-4.0524,-7.9392996,12.401342,-5.5077653,-8.9670515,-1
1022,1023,1583934054746,1.4104999,-3.2766,-7.6716,10.633453999999999,-5.3750787,-9.16282,-1
1023,1024,1583934054756,1.4104999,-3.2766,-7.6716,10.365017,-5.4707989999999995,-9.877423,-1
1024,1025,1583934054766,1.4054999,-3.5798,-9.668799,11.05287,-5.830245,-10.991406,-1
1025,1026,1583934054776,2.1523,-3.5187,-9.6928,11.727298,-5.726911,-10.751498,-1
1026,1027,1583934054786,2.2895,-3.1643999,-9.0258,11.68356,-5.4402870000000005,-10.135000999999999,-1
1027,1028,1583934054797,2.2895,-3.1643999,-9.0258,11.349071499999999,-5.3598037000000005,-9.9723,-1
1028,1029,1583934054807,1.5353,-2.7310000000000003,-8.708099,10.925930000000001,-5.044803,-9.863048,-1
1029,1030,1583934054817,1.2828,-2.4394999,-8.7720995,10.647532,-4.8038316,-9.9336195,-1
1030,1031,1583934054827,0.74439996,-2.3301,-8.847099,10.06283,-4.7242775,-9.923544999999999,-1
1031,1032,1583934054837,0.1357,-2.3225,-8.399,9.476297,-4.753582,-9.347855000000001,-1
1032,1033,1583934054848,0.1357,-2.3225,-8.399,9.076486000000001,-4.724171599999999,-8.715545,-1
1033,1034,1583934054858,-0.653,-2.3953,-6.776,8.796038000000001,-4.9343348,-7.4503727,-1
1034,1035,1583934054868,-0.5367,-2.5985,-6.0853996,8.969847999999999,-5.066744,-6.967989,-1
1035,1036,1583934054878,-0.3707,-2.7394,-5.8587,9.12617,-5.268929,-6.814674,-1
1036,1037,1583934054888,-0.2341,-2.9201,-6.0857,9.3296585,-5.4393487,-7.033035000000001,-1
1037,1038,1583934054898,0.029099998999999998,-3.0744998,-6.1477,9.546228,-5.587875,-6.927038700000001,-1
1038,1039,1583934054908,0.2516,-3.3035997999999998,-5.8315997,9.7701435,-5.8923025,-6.323949,-1
1039,1040,1583934054918,0.3443,-3.4628,-5.1386,9.815566,-5.9452434,-5.6986217,-1
1040,1041,1583934054928,0.2873,-3.4559,-4.6352997,9.669147,-5.855221299999999,-5.071618,-1
1041,1042,1583934054938,-0.1055,-3.2842998999999997,-4.0726,9.122741,-5.6674776,-4.2782273,-1
1042,1043,1583934054948,-0.8328,-3.2486,-3.0088,8.487033,-5.6799946,-3.2428792,-1
1043,1044,1583934054958,-1.8047999,-3.3421,-1.923,7.3915424,-5.7911525,-2.1223352,-1
1044,1045,1583934054969,-2.3428,-3.6826,-1.2050999,7.26577,-6.251826,-1.3630285,-1
1045,1046,1583934054979,-1.8758999,-4.0639,-0.5388,7.815402499999999,-6.411347,-0.8108778,-1
1046,1047,1583934054989,-0.8947,-3.8772,-0.08,9.043877,-6.1537495,-0.42565075,-1
1047,1048,1583934054999,-0.0481,-3.659,-0.2394,9.683885,-5.942888,-0.6422494000000001,-1
1048,1049,1583934055009,0.31829998,-3.3521,-0.66279995,9.815536999999999,-5.68961,-0.90498906,-1
1049,1050,1583934055020,0.154,-3.2593,-0.496,9.586834,-5.664853599999999,-0.15957834,-1
1050,1051,1583934055030,-0.0712,-3.2856998,0.8408,9.37689,-5.6990620000000005,1.0985075,-1
1051,1052,1583934055040,-0.5627,-3.2798998,2.0630999,8.613562,-5.6963515,2.7250037,-1
1052,1053,1583934055050,-1.0545,-3.2372,3.1255999,8.409653,-5.464823,3.9308002,-1
1053,1054,1583934055060,-1.0346999,-2.9336998,4.2994,8.63307,-5.14174,5.092936,-1
1054,1055,1583934055070,-0.75699997,-2.5702,5.3938,8.941051,-4.8912582,6.138369,-1
1055,1056,1583934055081,-0.40789998,-2.4517,6.3064,9.496064,-4.959569999999999,7.0720410000000005,-1
1056,1057,1583934055090,0.29659998,-2.5400999,7.1716,10.172455000000001,-4.978838400000001,7.68895,-1
1057,1058,1583934055100,1.248,-2.398,7.7077,11.127933500000001,-4.782092,8.151366000000001,-1
1058,1059,1583934055111,2.2284,-2.0437,8.1423,12.086744,-4.4123220000000005,8.568942999999999,-1
1059,1060,1583934055121,2.8637998,-1.6780000000000002,8.2677,12.573227000000001,-3.9730532,8.833005,-1
1060,1061,1583934055131,3.1629999,-1.2268,8.6902,12.494524,-3.5298865,9.696708000000001,-1
1061,1062,1583934055141,2.8604998999999998,-0.79899997,9.7142,12.126794,-3.2501671,10.920357000000001,-1
1062,1063,1583934055151,2.5358,-0.71349996,10.8359995,11.828055,-3.3619285000000003,11.883505,-1
1063,1064,1583934055162,2.3083,-0.92429996,11.6349,11.846136999999999,-3.6120553,12.495971,-1
1064,1065,1583934055172,2.6794,-1.3866999,12.305599,12.733495,-4.2074169999999995,13.214164000000002,-1
1065,1066,1583934055182,3.4139998,-1.7486999,12.6352,13.334631,-4.4122069999999995,13.145335999999999,-1
1066,1067,1583934055192,4.1179,-1.9396,12.3742,13.868203,-4.3615365,12.474614,-1
1067,1068,1583934055202,4.3873997000000005,-1.8692,11.6264,13.793849,-4.2164097,11.562692,-1
1068,1069,1583934055213,4.2708,-1.7560999,10.668699,13.602063000000001,-4.0005484,10.7898245,-1
1069,1070,1583934055223,3.9933,-1.4431,9.754499000000001,13.275954,-3.4925559999999995,9.907331,-1
1070,1071,1583934055233,3.7026,-1.143,9.045899,12.948609,-3.3800763999999996,9.426902,-1
1071,1072,1583934055243,3.3693,-1.1587,8.6284,12.718163,-3.400025,9.12073,-1
1072,1073,1583934055254,3.1116,-1.2918999,8.28,12.550358000000001,-3.5132613,8.505813999999999,-1
1073,1074,1583934055264,2.9304,-1.5303999,7.6067995999999996,12.506582,-3.7517523999999995,7.1627426,-1
1074,1075,1583934055274,2.9154,-1.8633,6.1474,12.669944000000001,-3.7683587,5.5020576,-1
1075,1076,1583934055284,3.0874999,-1.9264,4.6356,12.82048,-3.3076952000000004,4.665369999999999,-1
1076,1077,1583934055294,3.1622999,-1.6238999,4.0668,12.422373,-2.8706381000000003,4.3460410000000005,-1
1077,1078,1583934055304,2.7473,-1.3111,3.7654998,11.725584,-2.819613,3.5759413,-1
1078,1079,1583934055314,2.0291,-1.4089,3.0194,11.317832000000001,-2.9293056,2.970256,-1
1079,1080,1583934055324,1.5965999,-1.6463,2.4369,11.164182,-3.073925,2.5374708,-1
1080,1081,1583934055334,1.3819,-1.9988999,1.9394,11.050294000000001,-3.3202887000000003,2.1167423999999997,-1
1081,1082,1583934055344,1.2873,-2.3302,1.5669,11.034129,-3.2770684,1.680969,-1
1082,1083,1583934055354,1.2734,-2.3665,1.1201999,11.0975275,-2.9900706,0.9947046,-1
1083,1084,1583934055364,1.3204,-2.1687,0.43289998,11.0730295,-2.557218,0.51968545,-1
1084,1085,1583934055374,1.2807,-1.9650999,0.113299996,10.9099655,-2.3976302000000005,0.5620053,-1
1085,1086,1583934055385,1.1146,-1.954,0.1925,10.63762,-2.252896,0.33340696,-1
1086,1087,1583934055395,0.8226,-1.9612,0.024899999,10.114707000000001,-1.9511212,0.26798779999999994,-1
1087,1088,1583934055405,0.3073,-1.8197,0.0307,9.314200999999999,-1.7559171000000002,0.3112558,-1
1088,1089,1583934055416,-1.0663999,-1.5832,-0.0669,8.680572,-1.283091,-0.08676587,-1
1089,1090,1583934055426,-1.0663999,-1.5832,-0.0669,8.457633,-0.9015415000000001,-0.26565102,-1
1090,1091,1583934055436,-1.2521,-1.0217,-0.38729998,8.544542,-0.47657064,-0.5181244,-1
1091,1092,1583934055447,-1.3621,-0.83519995,-0.74509996,8.387559,-0.20795079,-0.94464666,-1
1092,1093,1583934055456,-1.3621,-0.83519995,-0.74509996,8.335107,-0.20923407,-1.351747,-1
1093,1094,1583934055466,-1.3913,-1.1345,-1.8925999,8.391169,-0.29821220000000004,-2.2314822999999997,-1
1094,1095,1583934055476,-1.3913,-1.1345,-1.8925999,8.450727,-0.40258983,-2.4583566,-1
1095,1096,1583934055486,-1.4997,-1.6223999,-2.1536999,8.119561000000001,-0.48210603,-2.5244652999999997,-1
1096,1097,1583934055496,-2.029,-1.5101,-2.0565999,7.4251666,-0.12396219,-2.2980697,-1
1097,1098,1583934055507,-3.0345,-1.183,-1.4081999,6.3223205,0.42176260000000004,-1.6655216,-1
1098,1099,1583934055517,-4.2128997,-0.73319995,-0.91899997,5.055079,1.041564,-1.4610089,-1
1099,1100,1583934055527,-5.575999700000001,-0.2483,-1.0647,3.8113394,1.620616,-1.7155412,-1
1100,1101,1583934055537,-6.6552,0.2122,-1.2875,2.785012,2.1578364,-1.9489758999999998,-1
1101,1102,1583934055547,-7.2959,0.322,-1.4113,2.2407908,2.3131914,-2.1093778999999997,-1
1102,1103,1583934055557,-7.2832,0.17019999,-1.4404,2.3453887000000004,2.2535949,-2.1974270000000002,-1
1103,1104,1583934055568,-6.920099700000001,0.18329999,-1.8585999,2.6909772999999997,2.4346732999999996,-2.8332889999999997,-1
1104,1105,1583934055578,-6.8815,0.2638,-2.3529,2.5620449,2.483994,-3.3879487999999998,-1
1105,1106,1583934055588,-7.1369996,0.21769999,-2.7326999,2.144247,2.593945,-3.5932372000000004,-1
1106,1107,1583934055598,-7.7644997,0.4341,-2.5414999,1.3982808999999998,2.9743166000000003,-3.2042367,-1
1107,1108,1583934055608,-8.6278,0.81729996,-2.0663,0.6529083999999999,3.322089,-2.940501,-1
1108,1109,1583934055618,-9.3855,1.1395998999999999,-1.9628999,-0.11546756,3.7897437000000007,-2.7813152999999997,-1
1109,1110,1583934055628,-9.7939,1.5252,-1.6765,-0.5380729000000001,4.2033366999999995,-2.6445203,-1
1110,1111,1583934055639,-10.1381,1.8500999,-1.9192,-0.80966157,4.560466,-2.9467356,-1
1111,1112,1583934055649,-10.261399,2.2424,-1.8646,-0.87966806,4.9481735,-2.6073046000000004,-1
1112,1113,1583934055659,-10.2121,2.4858,-1.4684,-0.7787571999999999,5.039919,-2.5210464,-1
1113,1114,1583934055669,-10.2361,2.4729,-1.8733,-0.8374438,4.965938599999999,-3.2018042,-1
1114,1115,1583934055679,-10.225699,2.3414,-2.6520998,-0.6869539000000001,4.680683599999999,-3.9017828000000003,-1
1115,1116,1583934055690,-9.915999000000001,1.9425,-2.8571,-0.34748486,4.145311,-3.7617314,-1
1116,1117,1583934055700,-9.688499,1.4399998999999999,-2.3832,-0.25092193,3.4498913,-3.2217142999999995,-1
1117,1118,1583934055710,-9.767799,0.99649996,-2.0848,-0.27492140000000004,2.9870252999999996,-3.0579126,-1
1118,1119,1583934055720,-9.7029,0.7107,-1.9849,-0.0023750481,2.9132073,-3.0105746,-1
1119,1120,1583934055730,-9.3758,0.92649996,-1.9641,0.4264169,3.001467,-3.0656412,-1
1120,1121,1583934055740,-8.9814,0.996,-2.0063999,0.7875390999999999,2.8470984,-2.9423304,-1
1121,1122,1583934055751,-8.615399,0.83849996,-1.913,0.92485136,2.3288019,-2.951505,-1
1122,1123,1583934055761,-8.8158,0.4206,-1.9032999,0.48742118,1.802719,-2.6498833,-1
1123,1124,1583934055771,-9.434899,-0.0312,-1.3555,-0.21406079999999997,0.9215857,-1.9261543999999997,-1
1124,1125,1583934055781,-10.0527,-0.8846,-0.4076,-0.4946325,-0.045748405,-0.52789277,-1
1125,1126,1583934055791,-10.1707,-1.6314,1.1255,-0.44271663,-0.94965535,0.5423154,-1
1126,1127,1583934055801,-9.937999999999999,-2.3104,1.6199,0.5256039,-1.6945393,0.50428593,-1
1127,1128,1583934055812,-8.9044,-2.5405998,1.625,2.2651734,-1.922975,1.2067733999999999,-1
1128,1129,1583934055822,-7.0958,-2.4803998,2.2842,3.8687716,-1.8318324000000001,1.4834378000000001,-1
1129,1130,1583934055832,-5.1341,-1.9351,2.2842,5.746266,-1.7505636999999998,0.84687704,-1
1130,1131,1583934055842,-3.8764,-1.8572999,1.5486,6.1051474,-3.0451086,0.5375941,-1
1131,1132,1583934055852,-3.6929,-2.9903998,1.3996998999999999,5.7697005,-4.5478816,0.48690403,-1
1132,1133,1583934055862,-4.0554,-4.1739,1.2825999,5.5243907,-5.69979,-0.16634914,-1
1133,1134,1583934055874,-4.2023,-4.9695,0.7247,5.613158,-6.361241000000001,-0.25269362,-1
1134,1135,1583934055884,-3.9784,-5.3847,1.0031999,5.868571299999999,-7.1955146999999995,0.52237654,-1
1135,1136,1583934055894,-3.678,-5.8266,1.7373999,6.726749000000001,-7.946892,1.5148401000000002,-1
1136,1137,1583934055905,-2.6331,-6.159,2.6562997999999998,7.718503999999999,-8.358226,1.8999808999999996,-1
1137,1138,1583934055915,-1.7990999,-6.0985,2.7507,8.132672,-8.987594,1.3830154,-1
1138,1139,1583934055925,-1.2903,-6.3468,2.0686998,8.948186,-9.160254,0.9605633,-1
1139,1140,1583934055936,-0.3701,-6.1232,1.4650999,9.546151,-9.636929499999999,-0.012239159,-1
1140,1141,1583934055946,1.1567,-6.0873,-0.2722,10.409021000000001,-9.862722,-0.51058745,-1
1141,1142,1583934055956,1.1567,-6.0873,-0.2722,10.931321,-10.00105,-0.45018652,-1
1142,1143,1583934055966,2.0198998,-5.8852,-0.3777,10.978171000000001,-10.649026,0.7870603,-1
1143,1144,1583934055976,1.9754,-6.2936997,3.0346,10.371998,-11.047517,3.494682,-1
1144,1145,1583934055987,0.8463,-6.2127,4.0081997000000005,9.012541,-11.280396000000001,4.2334948,-1
1145,1146,1583934055997,0.029099998999999998,-6.5214,3.9036998999999994,8.232108,-12.023663,4.2112665,-1
1146,1147,1583934056008,0.5532,-7.4082,3.1947,8.881962,-13.33579,3.5253375,-1
1147,1148,1583934056018,3.0865,-8.661799,1.7845,11.587419,-14.794385,2.2035944,-1
1148,1149,1583934056028,7.4588,-8.8961,0.2385,16.613827,-15.095873000000001,0.7809216,-1
1149,1150,1583934056038,11.262799000000001,-8.7175,-0.7599,19.030342,-15.366734,0.17135781,-1
1150,1151,1583934056048,12.5605,-8.976399,-0.6387,19.299967000000002,-15.939465,1.0322936,-1
1151,1152,1583934056059,11.274799,-9.4608,1.1437,17.276770000000003,-16.469532,3.0799873,-1
1152,1153,1583934056069,9.1472,-9.3824,3.0707998,15.19687,-16.191298,4.724919,-1
1153,1154,1583934056079,7.8106,-8.575,4.2316,14.176433,-15.371483999999999,5.5680037,-1
1154,1155,1583934056089,7.6042,-7.7620997,4.0639,14.200748,-14.905092999999999,5.0567265,-1
1155,1156,1583934056100,8.589399,-7.1204996,1.9147999,15.702803,-13.892489000000001,1.3217143,-1
1156,1157,1583934056110,9.9372,-5.9813,-1.6808,16.61324,-12.648396,-1.7289968,-1
1157,1158,1583934056120,10.682,-4.5566998,-3.8202998999999997,16.5782,-11.566791,-1.9849560000000002,-1
1158,1159,1583934056130,9.793799,-3.4078,-2.8277,14.415354999999998,-10.595732,0.16046898,-1
1159,1160,1583934056140,7.4995,-2.7008,-0.86969995,11.931293499999999,-9.886166000000001,1.8447516,-1
1160,1161,1583934056150,5.1635,-1.9187,0.4504,10.043648,-9.276977,2.3226917,-1
1161,1162,1583934056161,3.7524,-1.4714999,0.5287,9.366432000000001,-8.960482,2.160901,-1
1162,1163,1583934056171,3.6251,-1.1154,0.3017,9.717835000000001,-8.762509,1.8763263,-1
1163,1164,1583934056183,4.2044,-1.0259,-0.0902,10.310361,-8.888665,1.4915206,-1
1164,1165,1583934056193,4.6758,-1.1409999,-0.4134,10.342299,-9.135403,1.4062966000000001,-1
1165,1166,1583934056203,4.7411,-1.3209,-0.556,10.059114,-9.200572,1.3179697,-1
1166,1167,1583934056213,4.4674997,-1.3536999,-0.77739996,9.7731695,-9.235642,0.81770605,-1
1167,1168,1583934056223,4.2701,-1.3275,-1.3459999999999999,9.67565,-8.960405,0.53543925,-1
1168,1169,1583934056234,4.1658998,-1.0245,-1.4757999,9.209594000000001,-8.760029,1.2142433000000001,-1
1169,1170,1583934056243,3.5788998999999997,-0.8358,-0.5908,8.556685,-8.635014,2.1223066000000004,-1
1170,1171,1583934056253,2.9088,-0.7018,0.3218,7.6542625,-8.36943,2.8003732999999995,-1
1171,1172,1583934056264,1.9303999,-0.4349,0.9069,7.136866,-8.222455,2.8208961,-1
1172,1173,1583934056274,1.2427,-0.198,0.7175,6.632014999999999,-7.9413853,2.1860404,-1
1173,1174,1583934056286,1.0687,-0.074599996,0.1432,7.1740437,-8.28682,1.5971144,-1
1174,1175,1583934056296,1.6228,-0.41669998,-0.3175,7.906583,-8.5056505,1.6226653999999998,-1
1175,1176,1583934056306,2.5047,-0.7211,-0.47289997,7.996968700000001,-8.597424499999999,1.4022647,-1
1176,1177,1583934056316,2.1081998,-0.59529996,-0.7245,7.5694985,-8.401569,1.2363945,-1
1177,1178,1583934056326,1.5683999,-0.3883,-0.4587,7.022414,-8.206269,1.5477078000000002,-1
1178,1179,1583934056336,1.5683999,-0.3883,-0.4587,6.5129085,-8.219687,1.9794589,-1
1179,1180,1583934056347,0.47869998,-0.50189996,0.965,6.0922856,-8.311807,2.980714,-1
1180,1181,1583934056357,0.2183,-0.5922,1.2943,5.889497,-8.3919735,3.1474273,-1
1181,1182,1583934056367,0.1935,-0.68079996,1.0421,6.0109305,-8.426881,2.747193,d
1182,1183,1583934056377,0.42479998,-0.7863,0.3762,6.2566047,-8.526384,2.0994658,-1
1183,1184,1583934056387,0.9564,-0.84129995,-0.5076,6.854359599999999,-8.542081,1.3261579,-1
1184,1185,1583934056397,1.6229,-0.8476,-0.83519995,7.5042800000000005,-8.588422999999999,1.109157,-1
1185,1186,1583934056407,2.0816998,-1.1912,-1.0949,7.925708,-8.967789,0.8616156999999999,-1
1186,1187,1583934056418,2.1999,-1.6697999,-1.0289,8.021360000000001,-9.405994999999999,1.0473961999999999,-1
1187,1188,1583934056428,2.0557,-2.1771998,-0.3583,7.8950043,-9.905961999999999,1.7777904999999998,-1
1188,1189,1583934056438,1.7364998999999999,-2.8107,0.6415,7.661177,-10.511292,2.7973947999999997,-1
1189,1190,1583934056448,1.6336,-3.4596998999999995,1.5126,7.656839,-11.183114999999999,3.6690567,-1
1190,1191,1583934056458,1.8535999,-3.8267,1.7025,8.22302,-11.30633,3.5587127,-1
1191,1192,1583934056468,1.8535999,-3.8267,1.7025,9.105752,-11.133287,2.8294770000000002,-1
1192,1193,1583934056478,4.0473,-3.3960000000000004,-0.3796,10.680256,-10.58943,1.1794891,-1
1193,1194,1583934056489,5.0239,-3.0649998,-1.6406,11.38826,-10.24612,0.39557958,-1
1194,1195,1583934056499,5.1196,-2.9104997999999997,-1.7994,11.2407675,-10.076975,0.74392635,-1
1195,1196,1583934056509,4.7046,-2.8544,-1.0749999,10.9717455,-9.986818,1.5679723,-1
1196,1197,1583934056520,4.7267,-2.8748,-0.3204,11.262115,-9.913910000000001,2.1214256000000002,-1
1197,1198,1583934056530,5.1917995999999995,-2.823,0.2696,11.978,-9.839728,2.872793,-1
1198,1199,1583934056540,5.4245996,-3.0918,0.66099995,12.132463000000001,-10.145717,3.0151713,-1
1199,1200,1583934056550,5.4465,-3.4968,0.6199,12.443297,-10.223011999999999,2.7437263,-1
1200,1201,1583934056561,5.7587,-3.4505,0.4269,12.798627,-9.841854,2.7113376000000002,-1
1201,1202,1583934056571,5.8097997,-3.1708,0.34939998,12.75803,-9.464011,2.4135275000000003,-1
1202,1203,1583934056581,5.5604,-3.0024998,-0.083799995,12.726465,-9.10263,2.0074327000000003,-1
1203,1204,1583934056591,5.5397997000000005,-2.7177,-0.38189998,13.010589999999999,-8.648689,1.7448272,-1
1204,1205,1583934056602,5.6998,-2.48,-0.5945,13.149367000000002,-8.36988,1.8319283,-1
1205,1206,1583934056612,5.4821,-2.5044,-0.1982,12.623064,-8.363837,2.6452002999999995,-1
1206,1207,1583934056622,4.8497,-2.6822999,0.5584,12.140509,-8.379572,3.3376992,-1
1207,1208,1583934056633,4.2008,-2.8643,1.3804,11.872117999999999,-8.258664999999999,4.067844399999999,-1
1208,1209,1583934056643,3.8521,-2.9299,2.1747,11.823621000000001,-8.327043,4.6742287000000005,-1
1209,1210,1583934056653,3.6673,-3.2133,2.7686,11.726915,-8.438201,4.656454,-1
1210,1211,1583934056663,3.4197998,-3.5019998999999995,2.6072,11.609283,-8.375424,3.748525,-1
1211,1212,1583934056673,3.2157,-3.5648,1.6786,11.595263000000001,-7.916686500000001,2.9695093999999997,-1
1212,1213,1583934056683,3.0476,-3.2995,1.0381,11.603796,-7.207974,2.595257,-1
1213,1214,1583934056694,2.9294,-2.7725,0.7285,11.344254,-6.6051908,2.242639,-1
1214,1215,1583934056704,2.4919,-2.4380999,0.43989998,10.87752,-6.2418947,1.8537921000000002,-1
1215,1216,1583934056714,1.8880000000000001,-2.3672,0.13409999,10.281899000000001,-6.0224705,1.7664133000000002,-1
1216,1217,1583934056724,1.1387,-2.4096,0.28,9.5281,-5.700230599999999,2.2997549999999998,-1
1217,1218,1583934056735,0.39409998,-2.3737,0.88799995,9.076744,-5.349729,2.625022,-1
1218,1219,1583934056745,-0.2428,-2.1759999,1.4935,8.655221000000001,-4.9758787,3.9505095,-1
1219,1220,1583934056755,-0.6809,-2.1173,2.845,8.5387,-5.1839830000000005,5.296817,-1
1220,1221,1583934056765,-0.871,-2.5616999,4.3405,8.328536999999999,-5.228668700000001,4.931864,-1
1221,1222,1583934056776,-1.1575999,-2.8269,4.072,8.370436,-4.8235025,3.0936627,-1
1222,1223,1583934056785,-1.1692,-2.6476,2.3342,8.555228999999999,-4.3807764,1.3153073999999998,-1
1223,1224,1583934056795,-1.0057,-2.2965,0.17019999,8.685551,-3.7265080000000004,-0.9338153,-1
1224,1225,1583934056805,-0.9629,-1.9799999,-1.5365,8.553199000000001,-3.3983202000000006,-1.582778,-1
1225,1226,1583934056816,-1.1205,-1.8605,-2.131,8.251836,-2.7936504,-0.66775244,-1
1226,1227,1583934056826,-2.1952999,-1.2879,0.035499997,7.3991466,-2.3402363999999998,0.73441654,-1
1227,1228,1583934056837,-3.0825999,-1.1755999,1.4396,6.4903455,-1.9854923,2.0940741999999997,-1
1228,1229,1583934056847,-4.0913,-1.2516999,2.6237,5.506089,-1.9472331000000003,3.1560943,-1
1229,1230,1583934056857,-4.7802997000000005,-1.6946,3.2877,4.948364700000001,-2.1692522000000003,3.6372235,-1
1230,1231,1583934056867,-4.915,-1.7163,3.0911,4.920477,-1.9190868000000003,3.2349782000000005,-1
1231,1232,1583934056877,-4.4275,-1.1962999,2.0814,5.5703783,-1.1312029,2.1338084,-1
1232,1233,1583934056888,-3.6227,-0.24579999,0.45099998,6.3892430000000004,0.19689916,0.08588480000000001,-1
1233,1234,1583934056898,-3.2956998,0.6174,-1.2386999,6.4401917,0.90818775,-1.1448402,-1
1234,1235,1583934056908,-3.7412998999999996,1.0433999,-2.4824,5.9842014,1.3857353000000001,-2.0083523000000003,-1
1235,1236,1583934056918,-4.2936,0.87149996,-1.9049,5.319054,1.1847469,-1.1685811000000002,-1
1236,1237,1583934056928,-5.1691,0.17899999,-0.5373,4.3244166,0.5133073,0.67522234,-1
1237,1238,1583934056938,-5.7890997,-0.3951,1.0267,3.8369858,0.12600204,1.9936133999999999,-1
1238,1239,1583934056949,-6.0357,-0.6903,1.6273999,3.7323977999999998,0.20475213,2.1027317,-1
1239,1240,1583934056959,-6.0755,-0.3816,1.2673,3.5699174,0.78047144,1.4901223999999997,-1
1240,1241,1583934056970,-6.5063996,0.26549998,0.4712,2.9358182,1.6329412,0.7818218000000001,-1
1241,1242,1583934056980,-7.2405996,1.0462999,-0.0158,2.1180928,2.4760835,0.45254242,-1
1242,1243,1583934056990,-7.8279996,1.4474,-0.0143,1.6522290000000002,2.7344177000000003,0.8128698000000001,-1
1243,1244,1583934057001,-8.1919,1.4477999,0.48,1.4764563,2.5377486,1.3408773999999999,-1
1244,1245,1583934057011,-8.1373,1.0527999,0.90989995,1.9501635,1.9314023999999999,1.5958503000000002,-1
1245,1246,1583934057021,-7.3016996,0.3205,1.0590000000000002,3.2654037000000002,1.1944002,1.6560502000000001,-1
1246,1247,1583934057031,-5.8601,-0.2865,1.0275,4.6360555,0.96558154,1.4923346000000002,-1
1247,1248,1583934057042,-4.7025,-0.2737,0.8379,5.1768193,1.2962878999999998,1.0310199,-1
1248,1249,1583934057052,-4.5828,0.053999998,0.3069,4.726776999999999,1.5267441000000002,0.2723165,-1
1249,1250,1583934057062,-5.098799700000001,0.22289999,-0.5499,4.2759867,1.6137494,-0.49312893,-1
1250,1251,1583934057072,-5.4379,0.2811,-1.1688,4.564622,1.5067956,-0.5874222,-1
1251,1252,1583934057082,-4.9844,0.0739,-1.2215999,5.5349154,1.2430121,-0.43130106,-1
1252,1253,1583934057093,-3.9445998999999996,-0.1302,-1.0029,6.359574299999999,1.1334246000000001,-0.08863334,-1
1253,1254,1583934057103,-3.0240998,-0.2787,-0.5498,7.124033,0.98226434,0.43518925,-1
1254,1255,1583934057114,-2.3292,-0.36229998,-0.059000000000000004,7.754139,0.9456043,0.47708779999999995,-1
1255,1256,1583934057124,-1.9080000000000001,-0.38689998,-0.2859,7.732132000000001,1.0316807,-0.5096393,-1
1256,1257,1583934057134,-1.9657999,-0.3335,-1.1116999,7.655431299999999,1.2594938,-0.9230318000000001,-1
1257,1258,1583934057144,-2.0421,-0.1299,-1.5093,7.7612357,1.6303268999999998,-0.6949889,-1
1258,1259,1583934057154,-1.9312999,0.22929999,-1.2767998999999999,7.846947999999999,1.8988893,-0.40006152,-1
1259,1260,1583934057165,-1.8497,0.47169998,-0.98139995,7.793251,1.8656960999999999,-0.12718956,-1
1260,1261,1583934057175,-1.9253999,0.3832,-0.5771,7.6883087,1.6094303,1.0385185,-1
1261,1262,1583934057185,-2.0025,0.1539,0.4545,7.692369,1.2661303999999998,1.3973038999999998,-1
1262,1263,1583934057196,-1.9929999,-0.20449999,0.8262,8.104277,1.1969476000000001,1.2083248,-1
1263,1264,1583934057206,-1.5824,-0.2701,0.6653,8.888244,1.3572153999999998,0.58089083,-1
1264,1265,1583934057216,-0.79969996,-0.103599995,0.035499997,9.529584,1.4351898,-0.16836984,-1
1265,1266,1583934057226,0.12889999,-0.0773,-1.2024,9.8312435,1.3631628,-0.7791594000000001,-1
1266,1267,1583934057236,0.0405,-0.0893,-1.3985,9.68332,1.3427067,-0.8572103999999999,-1
1267,1268,1583934057247,0.0405,-0.0893,-1.3985,9.436268,1.345685,-0.60344416,-1
1268,1269,1583934057258,-0.5947,-0.0109,-0.6299,9.010042,1.5804126,0.13133633,-1
1269,1270,1583934057268,-0.8772,0.2342,0.0515,8.743922,1.7833259,0.6247238,d
1270,1271,1583934057278,-1.1891999,0.4816,0.61939996,8.360408,2.1124425,1.2708708999999998,-1
1271,1272,1583934057288,-1.5705,0.71639997,1.0905,7.987689,2.2872765,1.6029851000000002,-1
1272,1273,1583934057298,-1.8353,0.7955,1.1177,7.8169154999999995,2.30553,1.3774991,-1
1273,1274,1583934057308,-1.8270998999999999,0.8585,0.54609996,7.972998,2.3971896,0.84588104,-1
1274,1275,1583934057319,-1.4478999,0.9037,0.38509998,8.426259,2.297773,0.8381620999999999,-1
1275,1276,1583934057329,-1.1283,0.6987,0.4524,8.529603,2.0609384,1.0932403999999998,-1
1276,1277,1583934057339,-1.3769999999999998,0.50839996,0.89879996,8.101021000000001,1.8644797999999998,1.4467204,-1
1277,1278,1583934057350,-2.0658,0.41599998,0.86069995,7.283678500000001,1.8249276,1.2092826,-1
1278,1279,1583934057360,-2.9692,0.56949997,0.514,6.3734703,2.0652575,0.99922484,-1
1279,1280,1583934057370,-3.8718998,0.8829,0.98539996,5.2940874,2.4523330000000003,2.0069444,-1
1280,1281,1583934057380,-4.9214,1.1234,2.1518,4.1911263,2.5750117,3.2902555,-1
1281,1282,1583934057390,-6.4515,1.1287,4.1358,2.1654402999999998,2.4341369,5.8666654000000005,-1
1282,1283,1583934057401,-7.9828,0.9266,5.7174,1.091392,2.1117817999999997,6.0266366,-1
1283,1284,1583934057411,-8.8007,0.6074,5.3489,1.1306762,1.9648734,5.237508,-1
1284,1285,1583934057421,-8.337,0.71529996,4.6765,1.9141451,2.1527607000000004,4.8670672999999995,-1
1285,1286,1583934057431,-7.3556,0.94089997,4.5276,2.9718459,2.3059802000000005,5.397009400000001,-1
1286,1287,1583934057441,-6.4919,1.2111,5.5615997,3.4737184,2.5150516,6.953815,-1
1287,1288,1583934057451,-6.1956997000000005,1.5324,7.3954997,3.3497275999999996,2.876547,8.885389,-1
1288,1289,1583934057462,-6.7812,1.9209,9.1216,2.258259,3.0504236000000002,10.159173,-1
1289,1290,1583934057472,-8.0727,1.9387,9.7753,0.77469665,2.6120262000000003,8.654896,-1
1290,1291,1583934057483,-9.100699,1.5146998999999999,7.9648,0.980914,1.8723136000000002,6.5702643,-1
1291,1292,1583934057493,-8.5321,0.80789995,6.187599700000001,2.8735112999999997,0.9391016999999999,5.252591000000001,-1
1292,1293,1583934057503,-6.4372997000000005,0.0624,5.0997996,5.2234682999999995,0.29121155,4.045875,-1
1293,1294,1583934057513,-4.1865997,-0.43269998,3.9972,6.5863914,-0.14764562,3.0291536,-1
1294,1295,1583934057523,-2.6817,-0.70769995,2.8492,7.9156046,-0.15647545,1.5969325,-1
1295,1296,1583934057533,-1.7713,-0.3367,1.8314999,8.305563000000001,0.10497138,0.82476413,-1
1296,1297,1583934057544,-1.4945998999999999,-0.0791,1.2281,8.124042999999999,-0.6696965,0.118024565,-1
1297,1298,1583934057554,-1.7034999,-0.84309995,0.64089996,8.63602,-2.2187452000000003,-1.3380331,-1
1298,1299,1583934057564,-1.1508,-1.9875,-0.5164,10.130787,-3.1465267999999997,-3.0716267000000004,-1
1299,1300,1583934057574,0.87079996,-2.9031,-2.6373,13.163618,-3.8275337,-6.604252000000001,-1
1300,1301,1583934057584,3.4289,-3.1906,-5.4642,14.884895000000002,-3.9617237999999997,-9.546008,-1
1301,1302,1583934057594,5.1861997,-3.1102,-8.2843,15.440435999999998,-4.121331,-10.421107000000001,-1
1302,1303,1583934057605,5.8069,-3.1804,-9.1335,15.253651000000001,-5.1504164,-10.756095,-1
1303,1304,1583934057615,5.6138,-3.9118,-9.3296995,15.280110999999998,-6.348302400000001,-11.457902,-1
1304,1305,1583934057625,5.6773,-4.9452,-9.9474,15.906885,-7.8519664,-12.412528,-1
1305,1306,1583934057636,7.5248,-7.072,-11.5713,17.31435,-8.807933,-13.399944,-1
1306,1307,1583934057646,7.5248,-7.072,-11.5713,18.144964,-8.653334,-14.162718,-1
1307,1308,1583934057656,8.6433,-6.8269,-12.465799,18.509601999999997,-8.154478,-14.948572,-1
1308,1309,1583934057666,9.026,-6.2314,-13.255,18.1159,-7.813333500000001,-14.986782999999999,-1
1309,1310,1583934057676,7.7061996,-5.7092,-12.455999,16.948296,-7.795693400000001,-13.946043,-1
1310,1311,1583934057687,6.7160997,-5.9825,-12.2157,16.035788,-8.125202,-13.860024,-1
1311,1312,1583934057697,6.1252,-6.2223997,-12.5026,15.479701,-8.312707000000001,-14.190041,-1
1312,1313,1583934057707,5.4817,-6.2412996,-12.9588995,14.804039000000001,-8.291905999999999,-14.500731,-1
1313,1314,1583934057717,4.745,-6.0336,-12.4411,14.038737,-7.962664599999999,-13.748138,-1
1314,1315,1583934057728,3.6004,-5.5042995999999995,-11.3536,12.845467,-7.365292500000001,-12.622442,-1
1315,1316,1583934057738,2.2052,-4.8283997,-10.2106,11.428061,-6.5529779999999995,-11.349647000000001,-1
1316,1317,1583934057748,0.7373,-4.0589,-9.014,9.733685000000001,-5.607814,-9.999058,-1
1317,1318,1583934057759,-1.2526,-3.1882,-7.8252997,7.519756299999999,-4.593707,-8.530397,-1
1318,1319,1583934057769,-3.281,-2.4792,-6.5923996,5.6294484,-3.9246042,-7.400449000000001,-1
1319,1320,1583934057779,-4.845,-2.0372999,-6.0274,4.396109,-3.4298949999999997,-6.9308977,-1
1320,1321,1583934057790,-5.5899,-1.5619,-5.5849,3.840558,-2.8792765,-5.9657089999999995,-1
