,Seq,Time,ACCx,ACCy,ACCz,ADGx,ADGy,ADGz,Keydown
0,1,1583933912251,0.21239999,0.3809,-2.7091,6.0729403,-6.694590600000001,0.78149617,-1
1,2,1583933912261,-0.078499995,-0.0047999997999999995,0.0011,9.38572,0.6499204000000001,0.021001939,-1
2,3,1583933912272,-0.61539996,0.0106,0.29639998,8.81277,0.5647634,0.7533499,-1
3,4,1583933912282,-1.0347998999999999,-0.16499999,0.9481,8.668475,0.46826756,1.2561132,-1
4,5,1583933912292,-1.1014999,-0.25419998,1.3558999,8.835792,0.54446065,1.3612281000000002,-1
5,6,1583933912302,-0.79609996,-0.1665,1.2832,9.378480999999999,0.64720064,0.95734555,-1
6,7,1583933912313,-0.2852,-0.0711,0.8411,9.961238999999999,0.83812386,0.40502232,-1
7,8,1583933912323,0.2549,0.0867,0.212,10.296638,0.72345114,0.11627201,-1
8,9,1583933912333,0.5403,-0.1086,0.0541,10.306089,0.4771357,0.44394246,-1
9,10,1583933912343,0.48299998,-0.3365,0.354,10.087078,0.4878617,0.6605794,-1
10,11,1583933912353,0.2482,-0.2686,0.4549,9.688386,0.68491405,0.63838995,-1
11,12,1583933912363,-0.20889999,0.015299999,0.18069999,9.170672999999999,0.97747594,0.6605794,-1
12,13,1583933912374,-0.7040000000000001,0.26909998,0.23399999999999999,8.723016000000001,1.2815108,0.99666786,-1
13,14,1583933912384,-1.1108,0.50049996,0.5805,8.743146000000001,1.4209107,1.3354857,-1
14,15,1583933912394,-0.89,0.551,0.89669997,9.385338,1.5046026000000001,1.6054368,-1
15,16,1583933912404,-0.21769999,0.6242,1.0857999,10.070703,1.6330084999999999,1.5506287,-1
16,17,1583933912414,0.3787,0.6389,0.9751,10.042852,1.3496498,1.5733448,-1
17,18,1583933912424,0.3023,0.29819998,0.9148,9.652683,1.2572143999999998,1.6051686,-1
18,19,1583933912434,-0.0766,0.1432,0.86149997,9.278775999999999,1.1780046,1.7321092,-1
19,20,1583933912444,-0.5256,-0.0009999999,0.97029996,8.870325999999999,1.0947726999999998,1.9020209,-1
20,21,1583933912454,-0.90779996,-0.1539,1.0146998999999999,8.705049,0.86057186,1.6451133000000002,-1
21,22,1583933912465,-0.9974,-0.39429998,0.7240000000000001,9.153214,0.7321373000000001,1.0355593,-1
22,23,1583933912475,-0.5391,-0.54219997,0.091299996,9.924187,0.83360356,1.8482087999999999,-1
23,24,1583933912485,0.24139999,-0.4631,0.8609,9.867224,0.87605757,3.7920036,-1
24,25,1583933912496,0.1906,-0.4613,2.7740998,8.871723,0.81377,5.476573999999999,-1
25,26,1583933912506,-2.199,-0.5907,5.0234,7.1903524,0.82878643,6.0497932,-1
26,27,1583933912516,-3.2372,-0.5979,3.6820998,6.3059154,0.8949716999999999,4.391751,-1
27,28,1583933912527,-3.2961,-0.3464,1.6328,6.404230999999999,1.2354847,2.5492310000000002,-1
28,29,1583933912537,-2.8378,-0.0512,0.7256,6.8966316999999995,1.493072,1.9074701,-1
29,30,1583933912547,-2.332,0.1908,1.0210999,7.358300999999999,1.788823,2.4786596000000003,-1
30,31,1583933912557,-2.1692998,0.5258,2.2045,7.38956,2.1360877,3.7125160000000004,-1
31,32,1583933912567,-2.8481,0.6493,3.0900998,6.480826400000001,2.222748,4.4632515999999995,-1
32,33,1583933912577,-2.8481,0.6493,3.0900998,5.0534225,2.2299595,4.4691795999999995,-1
33,34,1583933912587,-6.2506,0.6985,3.0465999,3.055509,2.4599466,4.315271,-1
34,35,1583933912598,-7.5070996,1.0395,2.8743,1.8754452000000001,2.8459876,4.1796346,-1
35,36,1583933912608,-8.4431,1.2789,3.0878,0.9314594,3.0875242000000003,4.42822,-1
36,37,1583933912618,-9.2359,1.3227999,3.0674,0.2439117,2.9526062,4.177365,-1
37,38,1583933912629,-9.1718,0.7367,2.6332998,0.49678725,2.3244443,3.772218,-1
38,39,1583933912639,-8.4585,-0.2128,1.7601,1.5281040000000001,1.1297854999999999,2.5436669999999997,-1
39,40,1583933912649,-7.4184,-1.0819,0.88299996,2.527942,0.2681027,1.8364388999999999,-1
40,41,1583933912659,-6.8816,-1.7857,0.51919997,2.674419,-0.47318044,1.4485208,-1
41,42,1583933912669,-7.3149,-2.3448,0.0284,1.9869863,-1.0430579,0.5872498,-1
42,43,1583933912679,-8.3187,-2.7649,-0.7488,0.97188306,-1.4694749,-0.09146808,-1
43,44,1583933912689,-9.1841,-2.9772,-1.1179999999999999,0.32227870000000003,-1.6068733,-0.5209113000000001,-1
44,45,1583933912700,-9.3857,-2.8274,-1.5202,0.48335102,-1.3756125,-0.9444838,-1
45,46,1583933912710,-8.8027,-2.1664,-2.1113,1.2508268,-0.7375769,-1.766509,-1
46,47,1583933912720,-7.9565997,-1.7836,-2.8802,2.2297392000000005,-1.0880688,-2.561298,-1
47,48,1583933912730,-7.2795997,-2.3787,-3.3458,2.8182914,-2.1025305,-2.817918,-1
48,49,1583933912740,-6.7997,-3.4068,-3.4006,3.0784264,-3.3363297,-2.9097020000000002,-1
49,50,1583933912751,-6.5435,-4.9115,-3.4113,3.5070744,-5.20939,-3.0415938,-1
50,51,1583933912761,-6.1064,-6.0231,-3.4538,3.8706195,-5.998825599999999,-3.4418087,-1
51,52,1583933912771,-5.7711,-6.3873997000000005,-4.2752,4.3416934000000005,-6.115969000000001,-4.856341400000001,-1
52,53,1583933912781,-5.1844997,-5.8178997,-5.661299700000001,5.0899005,-5.3065375999999995,-6.1945760000000005,-1
53,54,1583933912791,-4.4536,-4.6854,-6.7957997,5.616318,-4.601962,-6.5117307,-1
54,55,1583933912801,-3.9796,-3.9633,-6.7465997,6.4717855,-4.3888397,-6.182509,-1
55,56,1583933912812,-3.076,-3.6645,-6.6842,7.492903,-4.76698,-6.3565865,-1
56,57,1583933912822,-1.597,-4.1503997,-7.0604,9.559942,-6.3279805,-6.870870599999999,-1
57,58,1583933912832,0.18069999,-5.3106,-7.5421996,10.71955,-7.2684326,-7.214486,-1
58,59,1583933912842,1.4132999,-5.9884,-8.1096,11.293919,-7.837572,-8.283937,-1
59,60,1583933912852,1.5421,-6.2307,-9.3813,10.809045,-8.160349,-9.234636,-1
60,61,1583933912862,0.97099996,-6.1642,-9.8287,10.246742999999999,-8.150945,-8.801036999999999,-1
61,62,1583933912873,0.5477,-5.9628997,-9.014999000000001,10.223873,-8.539677000000001,-6.8025494,-1
62,63,1583933912883,0.96209997,-6.2044997,-7.2922997,11.851633999999999,-8.911257,-5.526201,-1
63,64,1583933912893,2.9501,-6.2644,-6.6745,14.362817000000001,-9.489322999999999,-6.7084384,-1
64,65,1583933912903,5.5842,-6.7661,-8.3359995,16.74719,-10.584105000000001,-8.570859,-1
65,66,1583933912913,7.9132,-7.5499997,-10.2421,17.894092999999998,-11.307555,-10.260055,-1
66,67,1583933912924,8.861899000000001,-7.9936,-11.8364,18.133357999999998,-11.554197,-10.746461,-1
67,68,1583933912934,9.1058,-7.9174,-11.987599000000001,18.072277,-11.370265,-9.678695,-1
68,69,1583933912944,9.1199,-7.5878,-10.7348995,18.259897,-11.465794,-8.062024000000001,-1
69,70,1583933912955,9.4198,-7.5438,-9.2526,18.460358,-11.702475,-7.3874435,-1
70,71,1583933912966,10.0925,-7.7318997000000005,-8.9449,18.912689999999998,-12.054748,-7.551139999999999,-1
71,72,1583933912976,10.0925,-7.7318997000000005,-8.9449,19.54404,-12.521129,-7.7943525,-1
72,73,1583933912986,10.9119,-8.1097,-9.334,20.812174,-12.801978,-7.214898,-1
73,74,1583933912996,13.1936,-7.9901,-8.3564,21.761868,-12.648108,-6.7176795,-1
74,75,1583933913006,13.1936,-7.9901,-8.3564,21.822077,-12.409022,-6.308712,-1
75,76,1583933913017,13.3768,-7.6303997,-7.8272996,21.554153,-12.2483425,-5.119445,-1
76,77,1583933913027,13.137198999999999,-7.4094996,-6.5775,20.526228,-11.988266000000001,-3.3276436,-1
77,78,1583933913037,12.1137,-7.111399700000001,-4.7061,18.955881,-11.673831,-2.0992455000000003,-1
78,79,1583933913047,9.1598,-6.649399799999999,-2.4266999,17.425910000000002,-11.511569999999999,-1.0350134,-1
79,80,1583933913057,9.1598,-6.649399799999999,-2.4266999,17.134629999999998,-11.517317,-0.486339,-1
80,81,1583933913067,9.1607,-6.5614,-0.5791,17.926115,-11.410708,0.9637332000000001,-1
81,82,1583933913078,9.6802,-6.6962,0.3721,18.187822,-11.680726,1.7661643,-1
82,83,1583933913088,9.6186,-7.086,1.3407999,18.028051,-12.053628,2.6354032000000003,-1
83,84,1583933913098,9.2671995,-7.5133,2.1364,17.669342,-12.239255,3.1448412,-1
84,85,1583933913108,8.6453,-7.3167995999999995,2.6427,16.8226,-11.63605,3.626593,-1
85,86,1583933913118,7.3227997,-6.6257,3.3198998,15.462960999999998,-10.868363,4.1914620000000005,-1
86,87,1583933913129,6.0,-6.1407,3.8534,14.480112,-10.194865,4.536878,-1
87,88,1583933913139,5.272,-5.6440997,4.1141,14.062707999999999,-9.720995,4.683968,-1
88,89,1583933913149,5.0449,-5.5884,4.514199700000001,14.066404,-9.462747,5.177260400000001,-1
89,90,1583933913159,4.937,-5.5506997,4.9925,13.822845999999998,-9.282846000000001,5.391235,-1
90,91,1583933913170,4.2318,-5.6923,5.0968,12.766017999999999,-9.065386,5.801457,-1
91,92,1583933913180,3.0567,-5.4763,6.1183,11.559953,-8.413818,7.4229449999999995,-1
92,93,1583933913190,1.8192999,-5.1642,7.9817995999999996,10.584431,-7.898136,9.0926895,-1
93,94,1583933913200,0.7759,-4.7339997,9.3358,9.466472999999999,-7.028160000000001,9.50682,-1
94,95,1583933913210,-0.5141,-4.0585,9.017099,8.43823,-6.264007,8.597215,-1
95,96,1583933913220,-1.6601,-3.4355,7.5779996,7.5123253,-5.3815527,6.718887,-1
96,97,1583933913230,-2.1703,-3.0537,6.1439,7.414297,-4.7801766,6.0166287,-1
97,98,1583933913240,-2.2800999,-2.7354,6.0853996,7.195303999999999,-4.3841667,6.489005000000001,-1
98,99,1583933913250,-2.8927999,-2.5623999,7.1008997,6.4699855,-3.9781482000000006,7.7390555999999995,-1
99,100,1583933913260,-3.7240998999999997,-2.3184,8.622499000000001,5.489980999999999,-3.2767619999999997,9.321719,-1
100,101,1583933913270,-4.6461997,-1.9584999,9.5099,4.6842559999999995,-2.8295155,9.565180999999999,-1
101,102,1583933913280,-5.6397,-1.6155,9.3147,3.8192114999999998,-2.2887418,8.723149000000001,-1
102,103,1583933913291,-6.0285997,-1.6172999,8.2978,3.8491866999999997,-2.37138,7.9483857,-1
103,104,1583933913301,-5.6471,-1.9828,7.5111,4.528258999999999,-2.3776722,6.969425,-1
104,105,1583933913311,-5.095,-1.9245,6.4694,4.8553643,-1.9766625,5.37798,-1
105,106,1583933913322,-4.9711,-1.6298,4.7551,4.696121,-1.315815,4.059503,-1
106,107,1583933913331,-5.2853,-1.0264,4.0236998,4.252926,-0.44475648,4.15417,-1
107,108,1583933913341,-5.792000000000001,-0.3676,4.4235,3.595114,0.20661002,4.488879,-1
108,109,1583933913351,-6.5305,-0.108399995,4.6204,2.7187787999999995,0.5403809,4.3364644,-1
109,110,1583933913361,-7.4326,0.1415,4.3079,1.8986307,1.0551535,3.7581974999999996,-1
110,111,1583933913371,-8.1367,0.4109,3.7052998999999995,1.4902374,1.2738686000000001,3.220297,-1
111,112,1583933913382,-8.3014,0.54219997,3.1694,1.7447409999999999,1.6853361,2.207952,-1
112,113,1583933913392,-7.9184,0.7556,2.2992,2.407475,1.7416764,0.87463063,-1
113,114,1583933913402,-7.165199799999999,0.68649995,1.0423,3.1781015,1.7409965,0.11778515,-1
114,115,1583933913412,-6.1882997,0.6879,0.23609999,4.144689,1.707583,-1.0759159,-1
115,116,1583933913422,-5.4768996,0.6008,-0.7967,4.4409849999999995,1.7285273999999997,-1.6902297999999998,-1
116,117,1583933913433,-5.236000000000001,0.6703,-1.6859,4.419706,1.9172863000000002,-2.8087146,-1
117,118,1583933913443,-5.3475,0.7834,-2.3713,4.3891177,2.0544357,-3.3919612999999997,-1
118,119,1583933913454,-5.281399700000001,0.88299996,-2.8184,4.6486487,2.1916041,-3.4224443,-1
119,120,1583933913464,-4.9399,1.0612,-2.5906,4.9107375,2.5344732000000003,-2.7560327,-1
120,121,1583933913474,-4.8111997,1.2916,-1.9095,4.6140766,2.6859686000000003,-2.5332665,-1
121,122,1583933913485,-5.0881,1.3735,-1.7309999999999999,4.3966737,2.5710182,-2.8720077999999996,-1
122,123,1583933913495,-5.296,1.2246,-2.1526,4.789754,2.2860603,-3.6264589999999997,-1
123,124,1583933913505,-4.888999999999999,0.9471,-2.7203,5.863266,1.9475490000000002,-3.9077013,-1
124,125,1583933913516,-3.8188,0.6304,-2.9673,7.1101756,1.6309685,-4.3926034000000005,-1
125,126,1583933913526,-2.8492,0.4534,-3.2245,7.6141744000000005,1.3396708000000002,-4.993844999999999,-1
126,127,1583933913536,-2.0667999,0.073,-3.9993,8.263425,1.1333672,-5.4772444,-1
127,128,1583933913546,-0.91179997,-0.0879,-4.2885,8.865346,1.1171346000000002,-5.214006400000001,-1
128,129,1583933913556,-0.7137,-0.1444,-3.4931997999999997,8.949651,1.0558524999999999,-4.345572,-1
129,130,1583933913567,-0.8965,-0.14389999,-2.4803,8.711293,1.0769407,-3.3362627000000002,-1
130,131,1583933913577,-1.3043,-0.1282,-1.5278,8.304978,1.1342674,-2.4920287,-1
131,132,1583933913587,-1.5561999,-0.0689,-1.1578,8.078793,1.1710519,-2.281789,-1
132,133,1583933913597,-1.5848,-0.1436,-1.431,8.131782000000001,1.0546937,-2.6206357000000002,-1
133,134,1583933913607,-1.1257,-0.39839998,-1.6601,8.683664,0.75947905,-2.8176400000000004,-1
134,135,1583933913618,-0.44349998,-0.611,-1.7699,9.337406,0.56073165,-2.8996081,-1
135,136,1583933913628,-0.046499997,-0.6623,-1.8151,9.735485,0.44645157,-2.9886340000000002,-1
136,137,1583933913638,0.1644,-0.7159,-1.9777999,9.943599,0.38649118,-3.1379843,-1
137,138,1583933913648,0.41579998,-0.67609996,-2.0291,10.223586,0.46857402,-3.077842,-1
138,139,1583933913658,0.7863,-0.4662,-1.8579999,10.629719999999999,0.66064644,-2.8590791,-1
139,140,1583933913669,1.0014,-0.2548,-1.5058999,10.637122,0.87094355,-2.4724824,d
140,141,1583933913679,0.6785,-0.052699998,-1.0533,10.105983,1.040252,-1.9769306,-1
141,142,1583933913689,-0.0164,0.0157,-0.6105,9.315417,1.0542340000000001,-1.6736618000000003,-1
142,143,1583933913700,-0.48619998,0.0179,-0.4935,9.18523,1.0973104999999999,-1.7081288000000001,-1
143,144,1583933913710,-0.35869998,0.1166,-0.7782,9.536125,1.1518313,-2.1191845000000002,-1
144,145,1583933913720,0.1305,0.17459999,-1.1033,10.026333000000001,1.1918623,-2.3186982000000005,-1
145,146,1583933913730,0.5804,0.2351,-1.1057999,10.404789,1.2099338,-2.1266546,-1
146,147,1583933913740,0.746,0.2539,-0.8343,10.409883500000001,1.2374767,-1.837818,-1
147,148,1583933913751,0.6374,0.3069,-0.5643,10.266136,1.3341450000000001,-1.693936,-1
148,149,1583933913760,0.48979998,0.51269996,-0.4529,10.125864,1.59744,-1.6761134999999998,-1
149,150,1583933913770,0.3618,0.6982,-0.5579,9.952572,1.6361208,-1.8774084999999998,-1
150,151,1583933913780,0.096099995,0.6006,-0.8221,9.756936,1.4172143,-2.0013516,-1
151,152,1583933913790,0.1148,0.3387,-0.5748,9.944968,1.1940553999999999,-1.4110276000000002,-1
152,153,1583933913800,0.3004,0.28509998,0.0094,10.027089,1.1315571000000002,-1.0839796,-1
153,154,1583933913810,0.2704,0.1249,0.0954,9.902455999999999,0.9513120999999999,-1.1768172,-1
154,155,1583933913821,0.1716,0.0343,-0.0066,9.856192,0.8427973,-1.2790017,-1
155,156,1583933913831,0.14109999,-0.0554,-0.1392,9.860165,0.7087411,-1.5163723999999998,-1
156,157,1583933913841,0.1494,-0.14459999,-0.3446,9.848424000000001,0.70039976,-1.5925273000000002,-1
157,158,1583933913851,0.1375,-0.097399995,-0.3687,9.766677,0.73082525,-1.6959279999999999,-1
158,159,1583933913862,0.0075999996999999994,-0.0512,-0.6224,9.713391,0.79916537,-2.0728521,-1
159,160,1583933913872,0.0244,0.044000000000000004,-0.88979995,9.828130999999999,0.88707083,-1.9898306000000001,-1
160,161,1583933913882,0.1391,0.1387,-0.7665,9.903701,0.84619707,-1.7142484,-1
161,162,1583933913892,0.17549999,0.0657,-0.466,9.918957,0.6727036,-1.3247405,-1
162,163,1583933913902,0.2224,-0.0679,-0.0638,10.037317,0.79645514,-0.9753212,-1
163,164,1583933913912,0.3191,0.0909,0.1972,9.995447,0.728795,-1.0958165000000002,-1
164,165,1583933913923,0.2392,-0.0156,0.015199998999999999,9.871102,0.65357876,-1.2842209999999998,-1
165,166,1583933913933,0.1295,-0.0446,-0.1902,9.844296,0.6882085,-1.6050249,-1
166,167,1583933913943,0.1273,-0.0047,-0.5657,9.859427,0.7035314,-2.083377,-1
167,168,1583933913953,0.14459999,0.0142,-1.0605999,9.9863205,0.6993559,-2.4631164,-1
168,169,1583933913963,0.2997,0.030299998999999998,-1.3873,10.187146,0.78816164,-2.4499004,-1
169,170,1583933913974,0.48479998,0.1396,-1.3090000000000002,10.215532000000001,0.8275223,-1.9078435,-1
170,171,1583933913984,0.4454,0.1444,-0.6368,9.86979,0.8055531,-0.81276447,-1
171,172,1583933913994,0.034399997,0.1131,0.49159998,9.338919,0.79744154,-0.11207737,-1
172,173,1583933914004,-0.5038,0.0907,1.0029,8.857435,0.7240161999999999,-0.3094841,-1
173,174,1583933914015,-0.9158,-0.0224,0.6749,8.95148,0.6212379,-0.8937841999999999,-1
174,175,1583933914025,-0.7801,-0.0846,0.18419999,9.590339,0.64019036,-1.3945553999999998,-1
175,176,1583933914035,-0.14559999,-0.0469,-0.3312,10.193831,0.5592663,-1.6899137,-1
176,177,1583933914046,0.6222,-0.34,-0.7718,10.363033999999999,0.2348616,-1.8044716,-1
177,178,1583933914056,0.6222,-0.34,-0.7718,10.285950999999999,0.05661808,-1.7574493999999998,-1
178,179,1583933914066,0.5506,-0.5557,-0.7847,10.114429,-0.0048650177,-1.5701941000000001,-1
179,180,1583933914076,0.0751,-0.5647,-0.015,9.7616205,0.09084559,-0.7944153,-1
180,181,1583933914086,-0.2987,-0.42319998,0.9019,9.369632000000001,0.26143727,0.11261367,-1
181,182,1583933914096,-0.74079996,-0.3313,1.2159,8.932116,0.34945768,0.32296824,-1
182,183,1583933914107,-0.8982,-0.2242,0.91719997,8.878045,0.49005479999999996,-0.06684612,-1
183,184,1583933914117,-0.6737,-0.1762,0.3166,9.146923,0.49067727,-0.6199833,-1
184,185,1583933914127,-0.2929,-0.2965,0.1664,9.570466999999999,0.34727418,-0.6744849,-1
185,186,1583933914138,0.097399995,-0.36409998,0.2911,9.912713,0.3042264,-0.5345965,-1
186,187,1583933914148,0.2527,-0.3739,0.3283,10.004019,0.28655723,-0.5366076999999999,-1
187,188,1583933914158,0.1042,-0.3683,0.1695,9.827882,0.29727367,-0.67306757,-1
188,189,1583933914168,0.024699999,-0.3177,0.1573,9.743559,0.3615532,-0.5769546999999999,-1
189,190,1583933914178,-0.064399995,-0.2792,0.4402,9.685829,0.34655592,-0.28271693,-1
190,191,1583933914188,0.0134,-0.3592,0.7554,9.80145,0.2870169,0.011501745,-1
191,192,1583933914198,0.0325,-0.3696,0.8175,9.778647,0.2697403,0.059395354000000004,-1
192,193,1583933914208,-0.0756,-0.3985,0.76409996,9.645482000000001,0.22981463,-0.10799765,-1
193,194,1583933914218,-0.115399994,-0.3761,0.48529997,9.741431,0.34788709999999995,-0.45407470000000005,-1
194,195,1583933914229,0.1388,-0.1935,0.04,10.00827,0.5328727,-0.9055446,-1
195,196,1583933914239,0.3636,-0.010199999,-0.2288,10.154442,0.64499795,-0.9923200000000001,-1
196,197,1583933914249,0.39249998,0.0037999998,-0.124,10.138352000000001,0.63361114,-0.8468292,-1
197,198,1583933914259,0.22549999,-0.0252,0.1962,9.85148,0.6125421,-0.39357802,-1
198,199,1583933914269,-0.117599994,-0.0672,0.5675,9.528080000000001,0.5323939,-0.06420291,-1
199,200,1583933914280,-0.3234,-0.14739999,0.8032,9.449214999999999,0.50298345,0.036478058,-1
200,201,1583933914290,-0.1961,-0.1156,0.7143,9.7138605,0.5222137,-0.16270037,-1
201,202,1583933914300,0.0389,-0.09999999400000001,0.5293,9.935314,0.5898259,-0.43561062,-1
202,203,1583933914310,0.2546,-0.0053,0.1215,10.198159,0.6715257,-0.9609847,d
203,204,1583933914320,0.5392,0.097399995,-0.3524,10.383529,0.7729537,-1.2259175,-1
204,205,1583933914331,0.6182,0.2649,-0.5503,10.346332,0.90269065,-1.3905715,-1
205,206,1583933914341,0.4129,0.2419,-0.75049996,10.082252,0.82103884,-1.599681,-1
206,207,1583933914351,0.3155,0.19659999,-0.78639996,10.201339,0.7971734,-1.4509531999999998,-1
207,208,1583933914361,0.49269998,0.1898,-0.49879998,10.269047,0.8356146999999999,-0.96227753,-1
208,209,1583933914371,0.4445,0.1815,0.1223,10.087088,0.8595280000000001,-0.20014569,-1
209,210,1583933914381,0.24929999,0.2023,0.8325,9.946308,0.86145294,0.21543986,-1
210,211,1583933914391,0.092599995,0.2279,1.0485,9.894978,0.8623052,0.17126204,-1
211,212,1583933914402,0.2391,0.1936,0.8193,10.239023,0.860093,-0.21732648,-1
212,213,1583933914412,0.6301,0.2365,0.3048,10.660776,0.85474914,-1.058036,-1
213,214,1583933914422,1.0501,0.2061,-0.6825,11.165111,0.7280959,-2.1202571,-1
214,215,1583933914432,1.4994999,0.1061,-1.4455999,11.544592,0.6385430999999999,-2.4057896,-1
215,216,1583933914442,1.92,0.0381,-1.6391,11.748702,0.58607185,-2.0409994,-1
216,217,1583933914453,1.9393,-0.0611,-1.1432999,11.511695,0.34435323,-1.2834741000000003,-1
217,218,1583933914464,1.6851,-0.28,-0.3491,11.396055,0.31171548,-0.54451805,-1
218,219,1583933914474,1.6769999,-0.3125,0.5865,11.523647,0.44633666,0.2652584,-1
219,220,1583933914484,1.7565,-0.2005,1.0185,11.493451,0.53677046,0.30788475,-1
220,221,1583933914494,1.7181,-0.12979999,1.0333999,11.513295,0.5408023000000001,0.049895164000000006,-1
221,222,1583933914505,1.7965,-0.13229999,0.72779995,12.046607,0.50928503,-0.571132,-1
222,223,1583933914515,2.2765,-0.1679,0.1757,12.878077000000001,0.42257659999999997,-1.3467288999999998,-1
223,224,1583933914525,3.1094,-0.2581,-0.6096,13.527048,0.24726358,-1.8312960999999999,-1
224,225,1583933914535,3.7565,-0.43989998,-1.107,13.803319,-0.23035094,-1.1451658000000002,-1
225,226,1583933914547,4.042,-0.9187,-0.42200000000000004,13.384028,-0.79228926,-0.23685358,-1
226,227,1583933914557,3.0191,-1.7328,0.9923,12.641060000000001,-0.9732238000000001,0.2992465,-1
227,228,1583933914568,2.4552,-1.6466,0.9008,12.106558999999999,-0.7404021,0.14894807,-1
228,229,1583933914578,2.0289,-1.3474,0.60969996,11.640149000000001,-0.34356794,-0.22103270000000003,-1
229,230,1583933914588,1.6919,-1.2203,0.37809998,11.372066,-0.24146004,-0.36025074,-1
230,231,1583933914598,1.4621998999999999,-1.3627,0.4384,11.179141,-0.40061697,-0.19228312,-1
231,232,1583933914608,1.4104999,-1.7154,0.87049997,11.133372999999999,-0.786026,0.18022592,-1
232,233,1583933914619,1.3202,-2.0097,0.86319995,10.943214999999999,-0.87825066,0.08956230000000001,-1
233,234,1583933914629,0.99499995,-2.0628,0.6064,10.582381,-0.8513973,-0.3223745,-1
234,235,1583933914639,0.7096,-2.0829,0.24319999,10.252862,-0.7522869000000001,-0.6008871,-1
235,236,1583933914649,0.3667,-1.8862,0.0513,9.939586,-0.39650854,-0.7579564000000001,-1
236,237,1583933914660,-0.1205,-1.4461,-0.1278,9.215876,0.258162,-0.8332492,-1
237,238,1583933914670,-1.163,-0.89229995,0.0374,7.953575999999999,0.8739985,-0.5805077,-1
238,239,1583933914680,-2.5644999,-0.5732,0.4718,6.540432,1.2281393,-0.053457737000000005,-1
239,240,1583933914691,-3.8265998,-0.3706,1.0354999,5.087363,1.5001493000000001,0.33492965,-1
240,241,1583933914700,-4.8933,-0.3619,1.072,4.370021299999999,1.6049387,0.09321106,-1
241,242,1583933914710,-5.2769,-0.2856,0.8631,4.3486557,1.7843889,-0.054214302,-1
242,243,1583933914720,-5.0572,-0.14109999,0.5905,4.6430273,1.9456624,-0.47070006,-1
243,244,1583933914730,-4.7911997,-0.0061999997,0.248,4.6382008,2.2603178,-0.5927469,-1
244,245,1583933914740,-5.1036997,0.2651,0.39119998,3.9644246,2.6165175,-0.48523763,-1
245,246,1583933914750,-6.0123,0.5985,0.27339998,3.0706306,2.939869,-0.8076313,-1
246,247,1583933914761,-7.1545997,0.9381,-0.1938,1.787377,3.4410519999999996,-1.2518227,-1
247,248,1583933914771,-8.002399,1.2712,-0.4759,1.1538041,3.788872,-1.4663719,-1
248,249,1583933914781,-8.5078,1.5641999,-0.56159997,0.77311647,4.096412,-1.2974179,-1
249,250,1583933914792,-8.8481,1.8,-0.18689999,0.41283697,4.3348937,-0.85129195,-1
250,251,1583933914802,-9.210899000000001,1.9713,0.2995,-0.17916289999999999,4.386656299999999,-0.62801826,-1
251,252,1583933914812,-9.725599,1.9639,0.32009998,-0.52297026,4.493878400000001,-1.1168855,-1
252,253,1583933914822,-9.9822,2.1348999,-0.23969999,-0.45962927,4.640365,-1.8634263999999998,-1
253,254,1583933914833,-9.8636,2.2319,-0.9684,-0.18694885,4.4345784,-2.4660373,-1
254,255,1583933914842,-9.5939,2.055,-1.5002999,0.051484913,4.1388564,-2.5870116000000003,-1
255,256,1583933914852,-9.366799,1.7636,-1.4503,0.2421304,3.8640117999999997,-2.194142,-1
256,257,1583933914862,-9.2872,1.6437,-0.97789997,0.02759078,3.9008822,-1.6180303,-1
257,258,1583933914873,-9.589,1.829,-0.5283,-0.53574574,4.0671067,-0.9962274,-1
258,259,1583933914883,-10.184,2.0851,0.2033,-0.9018383,4.105108,0.115630366,-1
259,260,1583933914893,-10.514299000000001,2.1241999,1.3658999,-1.271369,3.8023657999999996,0.92465025,-1
260,261,1583933914903,-11.0911,1.6482999,2.2005,-1.8505455000000002,2.4018536,1.0863258999999998,-1
261,262,1583933914914,-11.4546995,0.4093,1.9756999,-1.5690736,1.0020596,0.11538137,-1
262,263,1583933914924,-11.0665,-0.7959,1.0644,-0.95423305,0.0009481038400000001,-0.18540698,-1
263,264,1583933914934,-10.4745,-1.4817,0.9036,-0.39987957,-0.34196863,-0.11277647,-1
264,265,1583933914944,-9.9845,-1.4627,0.9777,-0.14726256,0.08053137,0.57643753,-1
265,266,1583933914954,-9.8358,-0.9414,1.6121999,-0.37638766,0.46142972,1.4019104,-1
266,267,1583933914965,-10.1784,-0.315,2.5572999,-0.95351475,0.42572737,2.0506244,-1
267,268,1583933914975,-10.6728,-0.19389999,3.0902,-1.2992758,-0.39745665,2.4750970000000003,-1
268,269,1583933914985,-11.0238,-0.7661,3.5474,-0.6001785,-1.9463232,1.9772754000000001,-1
269,270,1583933914996,-10.328,-2.0535997999999998,3.1097,1.0223912,-3.4828453,0.7889278000000001,-1
270,271,1583933915006,-7.2658997,-4.0859,1.3561,2.6880085,-4.8027396,0.1499345,-1
271,272,1583933915016,-7.2658997,-4.0859,1.3561,3.6506595999999996,-5.9396505,0.30924466,-1
272,273,1583933915026,-6.3585,-4.7384,1.494,4.297439,-6.656024499999999,0.5628289000000001,-1
273,274,1583933915036,-4.4976,-5.8914,2.2096999,5.372694,-7.6469655,0.91966075,-1
274,275,1583933915046,-3.6866,-6.1398997,1.7093999,5.9826217,-8.207448,0.45339477,-1
275,276,1583933915056,-3.6866,-6.1398997,1.7093999,6.439866,-8.783301,-0.041189846,-1
276,277,1583933915067,-1.9959999,-6.9068,0.73899996,7.6384897,-9.833399,-0.34566525,-1
277,278,1583933915077,-0.4182,-7.6394997,0.466,9.158012,-11.085623,-0.633975,-1
278,279,1583933915087,1.4830999,-9.0819,0.19139999,10.970031,-13.030308999999999,-0.6118621999999999,-1
279,280,1583933915097,3.5010998,-10.6819,1.0701,12.832155,-14.875778,0.22886653,-1
280,281,1583933915107,5.2667,-11.3970995,0.93539995,14.298373999999999,-15.725903,-0.121462636,-1
281,282,1583933915118,5.9286,-10.8614,0.21899999999999997,14.457704000000001,-15.336804999999998,-0.8337184999999999,-1
282,283,1583933915128,5.2353997,-9.8323,-0.35439998,13.294715,-14.562434,-1.2513343000000001,-1
283,284,1583933915138,4.6699,-9.1944,-0.4551,12.924351,-14.358410999999998,-1.3315017,-1
284,285,1583933915148,5.21,-8.5255995,-1.1499,13.7085285,-14.058435999999999,-2.1405217999999997,-1
285,286,1583933915158,6.5357,-8.6287,-1.7639999,14.939704,-14.612684,-2.3387808999999997,-1
286,287,1583933915168,7.8268,-8.749,-1.7967,15.726208999999999,-14.808539999999999,-2.3482618,-1
287,288,1583933915178,8.546599,-8.4022,-1.9444,16.113457,-14.628333,-2.3941537999999998,-1
288,289,1583933915188,8.7102995,-8.0008,-1.5302,15.982254000000001,-14.4976,-1.8730223000000001,-1
289,290,1583933915198,8.307899,-7.9135,-0.8874,15.258363000000001,-14.731407999999998,-0.9714521999999999,-1
290,291,1583933915209,7.9308,-8.0155,-0.1788,14.834234,-14.94002,-0.5764471,-1
291,292,1583933915219,7.6626,-8.2319,-0.67249995,14.521331,-15.467338,-1.3386748,-1
292,293,1583933915229,8.231,-8.286799,-1.4796,15.28875,-15.287926,-1.8833077,-1
293,294,1583933915239,9.4172,-7.3314996,-1.7477,16.122954999999997,-14.301419000000001,-1.9336627,-1
294,295,1583933915249,9.828,-6.2566,-1.9812,15.991064000000001,-13.553517999999999,-1.9939678,-1
295,296,1583933915260,9.5541,-5.7033997,-1.6388999,15.626543,-13.283730499999999,-1.5661622,-1
296,297,1583933915270,9.0932,-5.2394,-1.1753,14.892653,-12.86961,-0.9124494000000001,-1
297,298,1583933915280,8.5081,-4.8697,-0.5924,14.116663,-12.552398,-0.5829115,-1
298,299,1583933915290,7.8515,-4.3992,-0.7177,13.436001000000001,-12.155496000000001,-0.8677735999999999,-1
299,300,1583933915300,7.473799700000001,-3.8948,-1.0934,13.034178,-11.587678,-1.0623072,-1
300,301,1583933915310,7.2843,-3.4617998999999995,-0.9896,12.890957,-11.471061,-0.87055093,-1
301,302,1583933915320,7.1259,-3.3009,-0.7222,12.611955,-11.284428,-0.5961371,-1
302,303,1583933915330,6.9258,-2.9729,-0.6344,12.260612,-10.967292,-0.48779464,-1
303,304,1583933915340,6.4554,-2.5184999,-0.7115,11.640044,-10.485932,-0.5694081999999999,-1
304,305,1583933915350,5.7832,-1.9765999,-0.80719995,10.919350999999999,-9.9275675,-0.65696895,-1
305,306,1583933915361,5.1177998,-1.4431,-0.86499995,10.24295,-9.471663000000001,-0.63976896,-1
306,307,1583933915372,4.4816,-1.0828999,-0.6616,9.510794,-9.119744,-0.18348204,-1
307,308,1583933915382,3.8370998,-0.7869,-0.18069999,8.530598,-8.771954,0.36188838,-1
308,309,1583933915392,3.0593,-0.5536,0.1804,7.886644,-8.613026,0.41011718,-1
309,310,1583933915402,2.3968,-0.3809,0.1135,7.732055,-8.447616,-0.024784777,-1
310,311,1583933915412,2.343,-0.1784,-0.4506,7.848308,-8.344664,-0.46657246,-1
311,312,1583933915422,2.4447,-0.15349999,-0.7295,7.8962493,-8.351139,-0.45339477,-1
312,313,1583933915433,2.4427,-0.191,-0.5997,7.636421,-8.365618,-0.1954339,-1
313,314,1583933915443,2.0983999,-0.1654,-0.40269998,7.129425500000001,-8.250534,-0.041256886,-1
314,315,1583933915453,1.5498999,-0.0667,-0.2272,6.6586103,-8.157849,0.40340385,-1
315,316,1583933915463,1.0759,-0.029399997999999997,0.2891,6.290104,-8.227827,0.9317850000000001,-1
316,317,1583933915474,0.6647,-0.1532,0.74799997,6.0408487,-8.476872,0.9231563,-1
317,318,1583933915484,0.4547,-0.44399998,0.7005,6.0906769999999995,-8.584601,0.81032234,-1
318,319,1583933915494,0.5475,-0.5204,0.5476,6.4466662,-8.68217,0.36643735,-1
319,320,1583933915505,0.83959997,-0.6246,0.1173,6.9052606,-8.639965,-0.5288217,d
320,321,1583933915515,1.2781999,-0.602,-0.79609996,7.327636200000001,-8.609827000000001,-1.043144,-1
321,322,1583933915525,1.6717,-0.5929,-1.3227,7.4751573,-8.75164,-0.5585864,-1
322,323,1583933915536,1.7708,-0.75699997,-0.83339995,7.127194,-9.166134,0.44275495,-1
323,324,1583933915546,1.3794999,-1.2124,0.1726,6.680282000000001,-9.248878,1.1759743999999999,-1
324,325,1583933915556,0.8743,-1.3295,0.93079996,6.5140195,-9.306712,1.1780716999999998,-1
325,326,1583933915566,0.598,-1.6298,0.8301,6.518061,-9.500892,1.0985938,-1
326,327,1583933915576,0.84279996,-1.8378999,0.8734,6.8874865000000005,-9.690838000000001,1.2031438,-1
327,328,1583933915587,1.5444,-2.0427,0.6318,7.7337985,-9.860586999999999,0.9080728000000001,-1
328,329,1583933915597,2.6887,-2.1587,0.1361,9.171708,-9.906488000000001,0.38446090000000005,-1
329,330,1583933915608,3.6796,-2.2207,-0.29889998,9.861266,-9.9339075,0.1260212,-1
330,331,1583933915618,4.0877,-2.2935,-0.2881,10.156894,-10.073785,0.42060378,-1
331,332,1583933915628,3.7942,-2.6629,0.4588,9.763967,-10.47763,1.3436834999999998,-1
332,333,1583933915638,3.3191998,-3.162,1.0532,9.58827,-10.740695,1.5891562,-1
333,334,1583933915648,3.5102,-3.2077,0.7417,10.060139,-10.61928,1.0952133,-1
334,335,1583933915658,3.9903,-3.0923,0.2934,10.565296,-10.491017999999999,0.7983800999999999,-1
335,336,1583933915669,4.42,-3.0976,0.0312,11.200497,-10.38304,0.72872794,-1
336,337,1583933915680,5.1306,-2.9501,0.2595,12.1687975,-10.121871,1.2465075,-1
337,338,1583933915690,5.8252997,-2.9366,0.726,12.806432000000001,-10.138227,1.5524483,-1
338,339,1583933915700,6.4224,-3.0117998,0.8962,13.344284,-10.113127,1.6141803999999997,-1
339,340,1583933915710,6.477999700000001,-3.1503,0.81299996,13.204204999999998,-10.147803999999999,1.3792133,-1
340,341,1583933915720,6.0803,-3.3049998,0.39319998,12.937921000000001,-10.133382000000001,0.92536855,-1
341,342,1583933915730,5.7629,-3.395,0.0166,12.914888000000001,-10.057792,0.8353560999999999,-1
342,343,1583933915741,5.7256,-3.4073,0.0893,13.043726,-9.834394,0.9771695,-1
343,344,1583933915751,5.6763,-3.3109,0.1812,13.017217,-9.488681,1.0819972,-1
344,345,1583933915761,5.3694,-3.0677998,0.25509998,12.724262,-9.086378999999999,1.0544351,-1
345,346,1583933915771,4.9126,-2.8253999,0.1215,12.402194,-8.501772,0.99964625,-1
346,347,1583933915782,4.473099700000001,-2.3569,0.11409999400000001,12.270436,-7.805969,0.9310476000000001,-1
347,348,1583933915791,4.3854,-1.8663,0.106199995,12.631588,-7.235555000000001,1.2841828000000002,-1
348,349,1583933915801,4.738,-1.6080999,0.7862,13.177648000000001,-6.9937124000000015,1.9721519,-1
349,350,1583933915811,5.1177,-1.7138,1.5992998999999999,13.458746,-6.953154,2.4256232000000004,-1
350,351,1583933915821,4.915499700000001,-1.9355999,1.7643,12.931045,-6.8709755,1.741322,-1
351,352,1583933915832,3.9664998,-2.003,0.973,11.930862,-6.568971,0.61761785,-1
352,353,1583933915842,2.825,-1.9526,0.0765,10.871075,-6.2809105,-0.2202474,-1
353,354,1583933915852,1.8492998999999999,-2.0233,-0.1881,10.205228,-6.1816273,-0.35366190000000003,-1
354,355,1583933915862,1.081,-2.2707999,-0.049599998,9.595607000000001,-6.1915107,-0.087943815,-1
355,356,1583933915872,0.3743,-2.5254998,0.4644,9.256501,-6.004141000000001,0.31538340000000004,-1
356,357,1583933915882,-0.1427,-2.5788,1.1644,8.72178,-5.734017,1.0284821,-1
357,358,1583933915893,-0.7151,-2.7307,1.9258,8.146003,-5.783951,1.4269633,-1
358,359,1583933915904,-1.3244,-3.0946999,2.4259999,7.866762599999999,-5.687972,1.7101973000000001,-1
359,360,1583933915914,-1.6968,-3.1369998,2.8676999,7.6222477,-4.955375,1.8585613,-1
360,361,1583933915924,-1.9320998999999999,-2.6601,2.9385998,7.2196198,-3.6996067000000004,1.6310356000000001,-1
361,362,1583933915934,-2.3549,-1.8714,2.8214,6.571020599999999,-3.0378494,1.4876133,-1
362,363,1583933915944,-3.2201998,-1.3413999,2.7159998,5.5027184,-2.3619470000000002,1.1931361,-1
363,364,1583933915954,-4.1446,-1.0777,2.4838,4.894160299999999,-2.015305,0.64836895,-1
364,365,1583933915965,-4.7653,-0.98639995,1.9892999,4.834219,-2.0699023999999997,0.61888194,-1
365,366,1583933915975,-4.8472,-1.2731,2.0232,5.345467,-2.1910586,0.91738147,-1
366,367,1583933915985,-4.3422,-1.6166999,2.3892999,5.89961,-2.006925,1.2133815000000001,-1
367,368,1583933915995,-3.6924,-1.6249,2.8909,5.9270473,-1.6063178,2.238138,-1
368,369,1583933916005,-3.7559998,-1.4746,3.8560998,4.959225,-1.498502,2.7468388,-1
369,370,1583933916016,-4.7177,-1.5802,4.4217997,3.5712582999999998,-1.3397473999999998,1.8341979,-1
370,371,1583933916026,-5.8841,-1.6412,3.7819,3.0573287000000002,-1.2435100000000001,0.7649187,-1
371,372,1583933916036,-6.5912,-1.6832,2.4898999,3.5579943999999997,-1.0093955,-0.05174349,-1
372,373,1583933916046,-4.6066,-1.2106,1.7385,5.308424,-0.42766190000000004,0.049943045,-1
373,374,1583933916057,-3.6074,-0.86219996,1.7369,6.088637,-0.012382812,-0.012641385,-1
374,375,1583933916067,-3.7026,-0.7486,1.7131,5.801543,0.16584156,-0.050948612000000004,-1
375,376,1583933916078,-4.2248,-0.8534,1.8242999,5.318767,0.06914455,0.10115981,-1
376,377,1583933916088,-4.263999999999999,-1.0328,1.994,5.309803,0.057719413,0.15550819,-1
377,378,1583933916098,-4.2146,-1.0472,2.0753999,5.3095349999999994,0.106034406,0.185723,-1
378,379,1583933916108,-4.5089999999999995,-1.2297,2.194,4.876452400000001,-0.016270993,0.2652009,-1
379,380,1583933916118,-4.7946,-1.1883,2.181,4.697989,0.19042523,0.13516705,-1
380,381,1583933916128,-4.9358997,-0.91859996,1.8366,4.50335,0.52865887,-0.48282427,-1
381,382,1583933916139,-5.0709,-0.7909999999999999,1.2976999,4.384865799999999,0.6946536999999999,-0.9922337999999999,-1
382,383,1583933916149,-5.1099997,-0.60069996,0.649,4.3850183,0.8861706,-1.9081501,-1
383,384,1583933916159,-4.9535,-0.5352,-0.3962,4.6873684,0.84662807,-2.7955083999999997,-1
384,385,1583933916170,-4.4533,-0.6969,-0.5913,5.2677608,0.68811274,-2.5028312,-1
385,386,1583933916180,-3.7758,-0.8175,0.16839999,6.096461,0.5702510000000001,-1.8120372,-1
386,387,1583933916190,-3.1669,-0.872,0.514,6.3260937,0.62112296,-1.7739884999999997,-1
387,388,1583933916201,-3.2542,-0.8057,0.4525,5.928465,0.7035218000000001,-1.9582941999999999,-1
388,389,1583933916211,-3.9206,-0.7064,0.2769,5.1407337,0.8884787000000001,-2.1357619999999997,-1
389,390,1583933916222,-4.3919997,-0.47,0.2724,5.047063400000001,1.2872952,-1.8410836,-1
390,391,1583933916232,-4.3545,-0.117599994,0.71959996,5.056104,1.4587201,-1.5683649,-1
391,392,1583933916242,-4.3382998,-0.0253,0.7669,5.2630973,1.4629147,-2.1016016,-1
392,393,1583933916252,-4.0397997000000005,-0.041899998,0.1602,5.885867,1.4191008999999999,-3.0431547,-1
393,394,1583933916262,-3.3414998,-0.0115,-0.76919997,6.5652175,1.4139006,-4.1995926,-1
394,395,1583933916273,-2.7131998999999998,-0.0005999999700000001,-1.9445,6.987161599999999,1.2763871999999998,-5.0716662,-1
395,396,1583933916283,-2.1819,-0.1478,-2.7842999,7.713399400000001,1.0030077,-5.440421,-1
396,397,1583933916293,-1.5586,-0.3742,-2.8228,8.352785,0.71348166,-4.900203,-1
397,398,1583933916303,-0.8908,-0.5984,-2.0577,8.693404,0.7231734000000001,-3.8282803999999997,-1
398,399,1583933916314,-0.6972,-0.52919996,-0.94799995,8.202592999999998,0.90249914,-3.1928596000000002,-1
399,400,1583933916324,-1.3136,-0.3879,-0.3927,7.050962400000001,1.0057466,-2.753581,-1
400,401,1583933916334,-2.2635999,-0.3105,0.0598,6.638355000000001,1.1131313999999999,-2.513615,-1
401,402,1583933916345,-2.6966999,-0.1846,0.33929998,6.9126735,1.1669818,-2.9305413,-1
402,403,1583933916355,-2.371,-0.15619999,-0.020499998999999998,7.692685000000001,1.2352549,-3.748525,-1
403,404,1583933916365,-1.5799999,-0.0583,-0.8007,8.565429,1.174806,-4.746773,-1
404,405,1583933916375,-0.70379996,-0.0742,-1.7718999,9.419719,1.2010082,-5.5618360000000004,-1
405,406,1583933916386,0.1427,0.0001,-2.5576,9.856354,1.1373703000000002,-5.767766,-1
406,407,1583933916396,0.64559996,-0.27879998,-1.7919999,9.870987,0.8293802,-4.606808,-1
407,408,1583933916406,0.3935,-0.5033,-0.6451,9.568925,0.60136604,-3.5858532999999997,-1
408,409,1583933916416,0.3935,-0.5033,-0.6451,9.181447,0.41843942,-3.1716947999999996,-1
409,410,1583933916426,-0.3089,-0.7928,0.0050999997,8.903298,0.39473683,-3.2601461,-1
410,411,1583933916436,-0.15709999,-0.6246,-0.47219998,9.125691,0.5958785,-3.8465437999999996,-1
411,412,1583933916446,-0.15709999,-0.6246,-0.47219998,9.546496000000001,0.8636939,-4.3361964,-1
412,413,1583933916456,0.5808,-0.1241,-1.168,9.762347,1.0482677,-4.461767,-1
413,414,1583933916467,0.5808,-0.1241,-1.168,9.596679,1.0386716999999999,-4.2996893,-1
414,415,1583933916477,0.4427,-0.1287,-0.5581,9.615229,0.9967158000000002,-3.8215003,-1
415,416,1583933916487,0.6296,-0.1934,0.1021,9.777623,0.95173347,-3.2853712999999996,-1
416,417,1583933916497,0.7201,-0.2109,0.2453,9.83267,0.90996903,-3.2211301,-1
417,418,1583933916508,0.6723,-0.22839999,0.41459998,9.731328,0.9620094000000001,-3.1185627,d
418,419,1583933916518,0.6042,-0.088199995,0.3656,9.659473,1.1770278,-3.4106742999999997,-1
419,420,1583933916528,0.5642,0.0843,-0.1767,9.590483,1.2779194999999999,-4.086423399999999,-1
420,421,1583933916538,0.5911,0.16149999,-0.6349,9.649495,1.3639958,-4.399269,-1
421,422,1583933916549,0.67649996,0.1898,-0.8199,9.690752,1.3551277,-4.608426000000001,-1
422,423,1583933916559,0.74149996,0.1489,-0.96819997,9.7949095,1.3673095,-4.7430477,-1
423,424,1583933916569,0.90449995,0.2235,-1.0002,9.917128,1.4582412,-4.8444657,-1
424,425,1583933916580,0.9697,0.373,-1.0331,9.870892,1.6391376,-4.802989,-1
425,426,1583933916590,0.8398,0.4682,-0.86939996,9.633894999999999,1.5787653999999998,-4.6254253,-1
426,427,1583933916601,0.63379997,0.304,-0.69229996,9.491572999999999,1.3625785,-4.7564839999999995,-1
427,428,1583933916611,0.4895,0.0011999999,-1.0785999,9.241100999999999,1.036019,-5.6434207,-1
428,429,1583933916621,0.3195,-0.3208,-2.1241,9.318539,0.8352603999999999,-6.9402065,-1
429,430,1583933916631,0.6033,-0.5051,-3.4194,9.588328,0.68534505,-8.298859,-1
430,431,1583933916642,0.75909996,-0.664,-4.5513997,9.513964,0.60444975,-8.850319,-1
431,432,1583933916652,0.6371,-0.6968,-4.5867,9.111249,0.6695146,-8.260982499999999,-1
432,433,1583933916662,0.20719999,-0.6831,-3.929,8.359967999999999,0.70160645,-7.691650999999999,-1
433,434,1583933916672,-0.5789,-0.7355,-3.4085998999999996,7.597778999999999,0.5200589,-7.5042800000000005,-1
434,435,1583933916682,-1.2501,-1.0217,-3.306,7.198387599999999,0.23597252,-8.024167,-1
435,436,1583933916692,-1.5475,-1.3345,-4.0344,7.193407499999999,0.045183375,-9.401063,-1
436,437,1583933916703,-1.4692999,-1.5311999,-6.0421,7.5059949999999995,-0.01878012,-12.065541,-1
437,438,1583933916713,-1.1054,-1.5589,-8.1546,7.91661,0.028701691,-13.182322000000001,-1
438,439,1583933916723,-0.75509995,-1.5159999,-8.904699,7.7177477,0.29273427,-12.655816999999999,-1
439,440,1583933916733,-1.1065,-1.2878,-8.2126,6.872201400000001,0.42444408,-11.837058,-1
440,441,1583933916743,-2.0407,-1.2748,-7.4785,5.748612400000001,0.45893013,-11.269948,-1
441,442,1583933916754,-3.1845999,-1.2845,-7.023699799999999,4.6805205,0.54652923,-11.133488999999999,-1
442,443,1583933916764,-4.203,-1.3162999,-7.0076,4.288034,0.41210917,-10.818325,-1
443,444,1583933916774,-4.4409,-1.5166998999999999,-6.7437,4.8901954000000005,0.00025857377,-9.876877,-1
444,445,1583933916784,-3.6257,-2.0548,-5.6345,5.9600973,-0.22537099,-9.156452,-1
445,446,1583933916794,-2.6401,-2.2556,-5.2499,6.462803,-0.19392076,-9.686356,-1
446,447,1583933916804,-2.335,-2.2445,-5.843999999999999,6.153308999999999,-0.11546756,-9.724386,-1
447,448,1583933916815,-2.7958998999999998,-2.2082999,-5.905999700000001,5.3726845,-0.34935233,-9.219994999999999,-1
448,449,1583933916825,-3.6301,-2.5816998,-5.3789,4.782303,-0.774304,-7.69212,-1
449,450,1583933916838,-4.2964,-3.2875997999999997,-3.0519,4.607641,-1.1673361999999998,-6.068813,-1
450,451,1583933916848,-4.415,-3.6181,-2.1736999,4.537261,-1.4687566,-5.0649724,-1
451,452,1583933916859,-4.3912997,-3.9462998,-1.2675999,4.726298,-1.6988488000000002,-3.9655642999999996,-1
452,453,1583933916869,-4.1668,-4.0257,-0.3351,4.9862986,-1.7346375,-2.971961,-1
453,454,1583933916879,-3.9740998999999997,-3.9863,0.2756,5.2564125,-1.6160191000000002,-2.3860419999999998,-1
454,455,1583933916889,-3.7905,-3.7738998,0.4217,5.4372416,-1.3107488,-2.0733403999999998,-1
455,456,1583933916899,-3.7705998,-3.4341,0.645,5.392614,-1.1033057,-1.7258938999999998,-1
456,457,1583933916910,-3.9513998,-3.2976,0.8886,5.180784,-0.7917241999999999,-0.90383035,-1
457,458,1583933916920,-4.2135997000000005,-2.8989999999999996,1.9483999,4.912069,-0.32179987,0.72315425,-1
458,459,1583933916930,-4.8399997,-2.3462,4.2831,4.0222014999999995,0.088039584,3.4659612,-1
459,460,1583933916940,-6.1987,-2.2948,7.2173,2.2658916000000002,0.07809886,7.3203197,-1
460,461,1583933916951,-7.6,-2.3332999,10.0345,1.4712944,0.06494991,9.124791,-1
461,462,1583933916961,-8.0798,-2.1966999,11.2897,1.5528983,0.22803333,10.253293,-1
462,463,1583933916971,-7.6278,-2.0944,11.779799,2.4713333,0.016127342,10.799334,-1
463,464,1583933916981,-6.5032,-2.2408,12.0633,3.998767,-0.115161106,11.486930000000001,-1
464,465,1583933916991,-4.8657,-2.044,12.6795,5.631641,0.35136345,12.252566,-1
465,466,1583933917001,-3.5435,-1.3067,13.1193,6.3080416,0.9480656,12.702983999999999,-1
466,467,1583933917011,-3.4373998999999995,-0.72889996,13.3445,5.6531987,1.1018595,13.0232115,-1
467,468,1583933917021,-4.4704,-0.6385,13.605498999999998,4.542806,1.0012072,13.421656,-1
468,469,1583933917031,-5.3624,-0.649,13.986199,4.317119,0.9051423000000001,13.87912,-1
469,470,1583933917042,-4.8917,-0.5852,14.696198999999998,5.690443,0.94803685,14.746875,-1
470,471,1583933917052,-3.3535,-0.36200000000000004,15.127199,7.228382000000001,1.0253887,14.700273999999999,-1
471,472,1583933917062,-2.0897,-0.182,14.6318,7.9238786999999995,0.96697974,13.534882000000001,-1
472,473,1583933917072,-1.8824999,-0.22289999,13.0834,7.7350144,0.37328479999999997,11.983774,-1
473,474,1583933917082,-2.1036,-0.8926,11.7963,7.8403306,-0.76288843,11.031812,-1
474,475,1583933917093,-1.8312998999999999,-1.6588,11.1923,8.656619000000001,-1.5119288,10.812999999999999,-1
475,476,1583933917103,-0.909,-2.2049,11.205999,9.788866,-1.9191058999999997,11.156414999999999,-1
476,477,1583933917113,0.18239999,-2.3862,11.5195,10.4955,-2.0199306,11.048608999999999,-1
477,478,1583933917123,0.99149996,-2.2247999,11.2922,11.221403,-1.6774352,10.52017,-1
478,479,1583933917134,1.4397999,-1.7111,10.7526,10.99654,-1.5918568000000002,9.672402,-1
479,480,1583933917143,1.0864,-1.5609,9.828,10.480694999999999,-1.9654481,8.599675999999999,-1
480,481,1583933917153,0.61869997,-1.8901,8.7445,10.5718565,-3.1289248,6.9770007,-1
481,482,1583933917163,0.9005,-2.987,6.9818997000000005,11.296629,-4.1068225,5.410216,-1
482,483,1583933917173,2.0305,-3.9689,5.227999700000001,12.991082,-5.362121,3.6641053999999995,-1
483,484,1583933917183,3.5089,-4.7918,4.0252,14.1448,-6.152275,2.9472623,-1
484,485,1583933917194,4.52,-5.3262,3.6037998,14.443260999999998,-6.389952,3.1413362,-1
485,486,1583933917204,4.687999700000001,-5.3054,4.0195,13.945172,-6.196883000000001,3.9776597000000002,-1
486,487,1583933917215,4.2363,-4.9648,4.7497,13.001588,-6.1171947,4.0957036,-1
487,488,1583933917225,3.0372999,-4.7685,4.7832,11.840264999999999,-6.472283999999999,2.6805387,-1
488,489,1583933917235,2.1719,-4.9632998,3.3860997999999998,12.304568,-7.071724400000001,-0.42587104,-1
489,490,1583933917245,2.6439998,-5.4108996,0.2579,13.607273000000001,-7.419267,-2.809787,-1
490,491,1583933917256,4.3482,-5.6615996,-2.5918,15.310986999999999,-7.8030862999999995,-3.842052,-1
491,492,1583933917266,5.712999999999999,-5.8206,-3.1801999,15.371675,-8.023793,-2.640517,-1
492,493,1583933917276,4.4532,-6.0056,0.0949,13.445951999999998,-8.228239,-0.30827740000000003,-1
493,494,1583933917286,2.8246,-5.9269,-0.016999999,12.076085,-8.179167999999999,-1.4006081,-1
494,495,1583933917296,2.8246,-5.9269,-0.016999999,12.024513,-8.070327,-2.812852,-1
495,496,1583933917306,4.4719,-5.1527,-5.6127996,14.34326,-7.5262402999999996,-6.7447057,-1
496,497,1583933917316,5.9452996,-4.8026,-7.1965,15.506707999999998,-7.357257400000001,-7.917510000000001,-1
497,498,1583933917326,5.9452996,-4.8026,-7.1965,15.092692999999999,-7.380921400000001,-7.704522,-1
498,499,1583933917336,3.9545999,-4.5639997,-6.5931997,13.023663,-7.200169,-7.033571,-1
499,500,1583933917347,2.2847,-4.1224,-6.2585998,11.443719,-6.748747,-6.597606,-1
500,501,1583933917357,1.2811999,-3.8018,-6.0716996,10.634986,-6.5743914000000006,-6.509442,-1
501,502,1583933917367,1.5058999,-3.7335,-7.5678997,11.105417999999998,-6.490796,-8.240545,-1
502,503,1583933917377,2.6557999,-3.6018,-9.1486,12.282197,-6.454748599999999,-9.473769,-1
503,504,1583933917387,2.6557999,-3.6018,-9.1486,12.675728,-6.692799000000001,-9.636604,-1
504,505,1583933917398,2.7969,-4.1186,-9.745,12.014842,-7.0939336,-10.137979,-1
505,506,1583933917408,2.0091999,-4.2658,-10.3926,11.10788,-7.1850567,-10.965569,-1
506,507,1583933917418,1.4735999,-4.0853,-10.841,10.697197000000001,-6.835647,-11.051357000000001,-1
507,508,1583933917428,1.073,-3.5863,-10.6438,10.201626,-6.3431215,-10.839758,-1
508,509,1583933917438,0.4351,-3.2110999,-10.6893,9.558458,-6.130803599999999,-10.823611,-1
509,510,1583933917448,-0.105799995,-3.0760999,-10.605,9.133161999999999,-5.926826999999999,-10.710384,-1
510,511,1583933917459,-0.3329,-2.9233,-10.767000000000001,8.988303,-5.870476999999999,-10.877078,-1
511,512,1583933917469,-0.3644,-2.9002,-10.887799000000001,9.031887,-5.8232349999999995,-10.932998,-1
512,513,1583933917479,-0.3762,-2.8082,-10.824699,8.919675,-5.716377,-10.657769,-1
513,514,1583933917489,-0.6446,-2.7321,-10.019899,8.555900999999999,-5.6173816,-9.631117,-1
514,515,1583933917500,-1.1991,-2.6319999999999997,-8.8843,7.8685054999999995,-5.4856143,-8.549694,-1
515,516,1583933917510,-1.9993,-2.5537,-7.9535,7.074904400000001,-5.4017596,-7.834738000000001,-1
516,517,1583933917520,-2.6411998,-2.4503,-7.6068997000000005,6.6428084,-5.2331023000000005,-7.797503,-1
517,518,1583933917530,-2.7101998,-2.3328,-7.8952,6.8697976999999995,-5.236426,-8.333143,-1
518,519,1583933917541,-2.3230999,-2.4055998,-8.6451,7.408732400000001,-5.349872599999999,-9.006910000000001,-1
519,520,1583933917551,-1.7557,-2.498,-9.2315,7.845914,-5.5336227,-9.023315,-1
520,521,1583933917561,-1.4326999,-2.6394,-8.881,7.9354949999999995,-5.621356,-8.214917999999999,-1
521,522,1583933917571,-1.5532,-2.7491,-7.5846995999999995,7.4435735,-5.71767,-6.4683957,-1
522,523,1583933917582,-2.2654998,-2.7108,-6.2105,6.3506203,-5.555036,-5.040446,-1
523,524,1583933917591,-3.1655,-2.5867,-5.0891,5.807491000000001,-5.619785299999999,-4.2452836,-1
524,525,1583933917601,-3.6708998999999998,-2.6898,-4.3128,5.650383000000001,-5.702816,-3.912097,-1
525,526,1583933917611,-3.6510000000000002,-2.7082999,-4.1925,5.881901999999999,-5.839132299999999,-4.1754494,-1
526,527,1583933917621,-3.2424,-2.866,-4.7344,6.4991374,-6.2843676,-4.9812226,-1
527,528,1583933917632,-2.6999,-3.2728,-5.4119,6.9845185,-6.8039575,-5.146892,-1
528,529,1583933917642,-2.1629999,-3.6898,-5.4624,7.519067,-7.042171000000001,-4.627638,-1
529,530,1583933917652,-1.5268999,-3.8414,-4.6282997,7.7646356,-7.331753999999999,-3.454421,-1
530,531,1583933917662,-1.5112,-4.099,-3.2726998,7.3935056,-7.495775999999999,-0.9022693000000002,-1
531,532,1583933917672,-1.9217,-4.0543,-0.94879997,6.798872,-7.304910700000001,0.42702982,-1
532,533,1583933917683,-2.7867,-3.7531998,0.16149999,5.647414,-6.989106,0.83765453,-1
533,534,1583933917694,-3.6504998,-3.4696998999999997,0.3362,5.26077,-6.9619746,0.9041368000000001,-1
534,535,1583933917704,-3.8305998,-3.4259,0.33049998,5.7613587,-7.1968265,0.67741543,-1
535,536,1583933917717,-1.9236,-3.9817998,-0.2853,7.4360550000000005,-7.8204009999999995,0.42626366,-1
536,537,1583933917727,-1.9236,-3.9817998,-0.2853,8.562814999999999,-8.145132,1.0377140999999999,-1
537,538,1583933917738,0.4676,-4.7778997,1.6351999,9.501887,-8.8983,2.6696022,-1
538,539,1583933917748,0.6052,-5.2014,3.0209,9.301981,-9.255303,4.1589966,-1
539,540,1583933917758,-0.0547,-5.0811,3.8455,8.6539955,-9.167933999999999,4.6766133000000005,-1
540,541,1583933917768,-1.0160999,-4.7318997000000005,4.3382,7.690597,-8.796928,5.0976767999999995,-1
541,542,1583933917779,-1.0160999,-4.7318997000000005,4.3382,7.690597,-8.796928,5.0976767999999995,-1
542,543,1583933917789,-1.3194,-3.5681,4.9701,7.8103647,-7.4995970000000005,5.908544999999999,-1
543,544,1583933917799,-0.5275,-2.8967,5.4662,8.477993,-7.0701156,6.2422775999999995,-1
544,545,1583933917809,-0.1452,-2.5751,5.4790998,8.678808,-6.860470299999999,6.181311599999999,-1
545,546,1583933917819,-0.028099999,-2.3918998,5.486399700000001,8.751113,-6.800911999999999,6.3578315000000005,-1
546,547,1583933917830,0.0667,-2.4088,5.858,8.766877000000001,-6.899361,6.8503666,-1
547,548,1583933917840,-0.0187,-2.4322999,6.5539,8.608103999999999,-6.920421000000001,7.558332000000001,-1
548,549,1583933917850,-0.1572,-2.3262,7.0966997,8.485041,-6.6377807,7.810096700000001,-1
549,550,1583933917860,-0.1608,-1.902,6.9487,8.574191,-6.2213907,7.1911573,-1
550,551,1583933917870,-0.0079,-1.4703,6.1061,8.812808,-5.8033056,6.361768,-1
551,552,1583933917880,0.3012,-1.0013,5.4852,8.991128,-5.4497967,6.159141,-1
552,553,1583933917891,0.3733,-0.7407,5.5483,8.938895,-5.3985033,6.4263825,-1
553,554,1583933917901,0.27629998,-0.7184,6.014199700000001,8.844947,-5.3735943,6.861629,-1
554,555,1583933917911,0.2366,-0.64919996,6.2407,8.826922999999999,-5.3308434,6.9547253,-1
555,556,1583933917921,0.22559999,-0.6404,6.272,8.789228999999999,-5.4163255999999995,6.668014500000001,-1
556,557,1583933917931,0.1943,-0.6924,5.7384,8.897246,-5.3504086,5.817029499999999,-1
557,558,1583933917942,0.4473,-0.5107,4.7646,9.329686,-4.981797,4.495755,-1
558,559,1583933917952,0.8368,-0.1546,3.6374,9.578052,-4.7081304,3.522608,-1
559,560,1583933917962,1.0483,0.1195,2.7803,9.590760000000001,-4.476822,3.2975434999999997,-1
560,561,1583933917972,0.9331,0.3396,2.7299,9.21851,-4.485834,3.5461767,-1
561,562,1583933917982,0.47219998,0.2611,3.0335999,8.848127,-4.5822916,3.8159459000000004,-1
562,563,1583933917992,0.26569998,0.1908,3.1862,8.848529,-4.6472893,3.8139345999999996,-1
563,564,1583933918003,0.31509998,0.131,3.1339998,9.092038,-4.567773000000001,3.6590967000000005,-1
564,565,1583933918013,0.5811,0.20879999,2.9369,9.295192,-4.5892919999999995,3.3200681000000003,-1
565,566,1583933918023,0.7787,0.17809999,2.5067,9.444168,-4.579389599999999,2.9464770000000002,-1
566,567,1583933918034,0.89779997,0.18519999,2.1193,9.372275,-4.6452875,2.626305,-1
567,568,1583933918044,0.7721,0.0837,1.7430999,9.132864,-4.840693,2.0167606,-1
568,569,1583933918054,0.55009997,-0.116299994,1.0928999,9.060042,-4.845472,1.9376944,-1
569,570,1583933918065,0.5157,-0.0919,1.0279,8.847800999999999,-4.736152,2.5156259999999997,-1
570,571,1583933918075,0.3032,0.0075,1.5251,8.455036999999999,-4.743632,3.558339,-1
571,572,1583933918085,-0.0894,-0.0155,2.5156999,8.069734,-4.719192,4.420453,d
572,573,1583933918095,-0.47529998,-0.0026,3.3325998999999995,8.031053,-4.5391574,4.573346599999999,-1
573,574,1583933918106,-0.5185,0.16669999,3.4378998,8.26714,-4.318211,4.096248999999999,-1
574,575,1583933918116,-0.2855,0.36789998,2.9155,8.547262,-4.0205063999999995,3.359831,-1
575,576,1583933918126,-0.0022,0.6502,2.1411,8.478864999999999,-3.9744992,3.1163409,-1
576,577,1583933918136,-0.043199997000000004,0.6884,1.8470999,8.38188,-4.028215400000001,3.3104052999999998,-1
577,578,1583933918146,-0.2945,0.51379997,2.3532999,8.265378,-4.168621,3.6445591,-1
578,579,1583933918156,-0.2945,0.51379997,2.3532999,8.3460045,-4.287958000000001,3.6581104,-1
579,580,1583933918167,0.2147,0.2742,2.1066,8.899227999999999,-4.383467,3.3194362999999996,-1
580,581,1583933918177,0.69799995,0.1487,1.7716,9.324075,-4.515072,3.0089848,-1
581,582,1583933918187,0.99439996,0.0121,1.7299,9.619701,-4.657699,3.1041114,-1
582,583,1583933918197,1.1905999,-0.1174,2.0749,9.782746000000001,-4.7828584,3.4487422,-1
583,584,1583933918207,1.1905999,-0.1174,2.0749,9.98635,-4.928091,3.5735949999999996,-1
584,585,1583933918217,1.8323,-0.4224,2.2103,10.457682,-5.074338,3.4841762000000003,-1
585,586,1583933918227,2.0909998,-0.5496,2.0595999,10.68898,-5.198798,3.3605685,-1
586,587,1583933918237,2.2687,-0.6906,2.1569998,10.889108,-5.290621,3.4756815000000003,-1
587,588,1583933918247,2.5325,-0.6591,2.3037999,11.191792,-5.2155765999999995,3.6165662000000003,-1
588,589,1583933918258,2.8727,-0.6119,2.5286999,11.537322999999999,-5.2025523,3.8880208,-1
589,590,1583933918268,3.2012,-0.6774,3.0549998,11.925892999999999,-5.1731997000000005,4.5419636,-1
590,591,1583933918278,3.4189999999999996,-0.5432,3.4215,12.115647000000001,-5.0278616,4.698046,-1
591,592,1583933918288,3.5163998999999997,-0.593,3.4176998,12.184752,-5.0780535,4.6999135,-1
592,593,1583933918298,3.5044,-0.80579996,3.6018999,12.144827000000001,-5.355322,4.961332,-1
593,594,1583933918308,3.4622,-1.1802,3.7089,12.287244,-5.602978,5.04895,-1
594,595,1583933918319,3.8999998999999996,-1.2836,3.7308998,12.859832,-5.5741324,4.9905887,-1
595,596,1583933918329,4.4634,-1.2940999,3.3992998999999995,13.403067000000002,-5.5293035999999995,4.6165285,-1
596,597,1583933918339,4.8353,-1.3047,3.1532,13.677442999999998,-5.4914559999999994,4.56988,-1
597,598,1583933918349,4.8852997,-1.3090998999999999,3.4427,13.654189,-5.386475,4.9351199999999995,-1
598,599,1583933918359,4.6135,-1.3287,3.8335998,13.319816000000001,-5.295610400000001,5.4356136,-1
599,600,1583933918369,4.1499,-1.2344998999999999,4.4258,12.890938,-5.014425800000001,5.8964300000000005,-1
600,601,1583933918380,3.6852,-1.0615,4.4519,12.416033,-4.6471267,5.4684525,-1
601,602,1583933918390,3.2716,-0.94259995,3.8746,12.116164,-4.4736237999999995,4.7835765,-1
602,603,1583933918400,2.9682,-0.90389997,3.0555,12.0064335,-4.3377,3.8839028,-1
603,604,1583933918410,2.9698,-0.86439997,2.1871,12.269193,-4.1856103,3.187286,-1
604,605,1583933918420,3.2056,-0.91179997,1.6466999,12.440377,-4.243933,2.896601,-1
605,606,1583933918431,3.3704998,-1.3228999,1.6151999,12.740112,-4.746457,3.2726342999999996,-1
606,607,1583933918441,3.5491,-1.9456999,2.3319,12.913308,-5.1447754,3.9421968,-1
607,608,1583933918451,3.5523,-2.3628,2.8374,12.705186,-5.1992483,4.0211864,-1
608,609,1583933918461,3.199,-2.3346,2.8472,12.145067,-4.771558,3.8394758999999996,-1
609,610,1583933918471,2.4373,-2.0269,2.5493999,11.400844000000001,-4.272769,3.351461,-1
610,611,1583933918481,1.6182,-1.7487999,1.9289999,10.564463,-4.0959907,2.4063642000000005,-1
611,612,1583933918491,0.8131,-1.8744999,0.66429996,10.26716,-4.20667,0.6658945,-1
612,613,1583933918502,0.8045,-2.1481,-0.6556,10.721733,-4.1972847,0.008274361,-1
613,614,1583933918512,1.4928,-2.215,-1.2511,11.603422,-4.098854,-0.72643906,-1
614,615,1583933918522,2.0925,-2.3078,-1.7695999,11.886206,-4.1353035,-1.063083,-1
615,616,1583933918532,2.2605999,-2.495,-1.7908,11.7039585,-4.200703599999999,-0.05563167,-1
616,617,1583933918542,1.8908,-2.7226,-0.4168,11.0221195,-4.155022,1.5872886999999998,-1
617,618,1583933918552,1.1420000000000001,-2.8047,1.3152,10.31808,-4.030016000000001,2.5399225,-1
618,619,1583933918563,0.163,-2.8046,2.3019,9.090353,-3.7373776,2.6830862,-1
619,620,1583933918573,-0.8591,-2.7222,2.2310998,8.28524,-3.4112968,2.0034490000000003,-1
620,621,1583933918583,-1.6011,-2.5277,1.5214,7.907818300000001,-3.0921211,0.76857704,-1
621,622,1583933918593,-1.9071,-2.3727999,0.2322,7.8625490000000005,-2.746542,-0.5851141,-1
622,623,1583933918603,-1.9447999,-2.119,-0.983,7.833234299999999,-2.4932258,-1.6072468,-1
623,624,1583933918614,-1.9799999,-2.0537999,-1.8804,7.9269724,-2.5547953,-1.9735214,-1
624,625,1583933918624,-1.8368,-2.2084,-2.0063,8.32143,-2.621019,-0.9972136999999999,-1
625,626,1583933918634,-1.3392,-2.3116,-0.7527,9.20471,-2.343052,0.64817744,-1
626,627,1583933918644,-0.43879998,-2.0377,0.8673,9.486393,-1.8926643,1.9279165,-1
627,628,1583933918655,-0.3322,-1.7493999,1.8564999,8.547186,-1.6923654,1.7578133000000002,-1
628,629,1583933918665,-1.6177,-1.6285,1.6861,6.4190364,-1.7521343,0.10514376,-1
629,630,1583933918675,-3.3927998999999995,-1.7754999,0.032899998,5.578931,-1.4221462,-1.613127,-1
630,631,1583933918686,-4.2356,-1.5267998999999999,-1.6603,5.823762,-0.9172186999999999,-3.3226826000000003,-1
631,632,1583933918696,-3.9896998,-1.0684,-3.3522,6.7459316,-0.45795333,-4.534407,-1
632,633,1583933918706,-3.0674,-0.6383,-4.559,7.598803500000001,0.041592073,-4.4416943,-1
633,634,1583933918716,-1.8405,0.059299998,-3.5033998,7.959696000000001,0.28038016,-3.3278160000000003,-1
634,635,1583933918726,-1.8405,0.059299998,-3.5033998,7.698402400000001,-0.1735126,-2.4367897999999997,-1
635,636,1583933918736,-2.4821,-0.6581,-1.6818,7.214046000000001,-0.31832350000000004,-1.7704451,-1
636,637,1583933918747,-3.1618,-0.6466,-1.0072,6.464153,-0.18025465,-1.3262441,-1
637,638,1583933918757,-4.035,-0.3716,-0.81579995,5.584188,0.24682304,-1.3261005,-1
638,639,1583933918767,-4.8378,-0.048899997,-0.81149995,4.690087999999999,0.6776260999999999,-1.4002344999999998,-1
639,640,1583933918777,-5.591,0.23429999,-0.7127,4.051142700000001,0.9808181999999999,-1.4761786,-1
640,641,1583933918788,-5.7539997000000005,0.3196,-0.95769995,4.0491505,1.0983448,-1.8900595000000002,-1
641,642,1583933918798,-5.403,0.3904,-1.6665,4.467781,1.190943,-2.7412174,-1
642,643,1583933918808,-4.718499700000001,0.30159998,-2.5705,5.3115654,0.9669223,-3.8201404,-1
643,644,1583933918818,-4.718499700000001,0.30159998,-2.5705,5.7548947,0.7317255,-4.035657,-1
644,645,1583933918828,-3.0669999999999997,-0.4687,-2.2316,6.9324202999999995,0.15406209,-2.8303103,-1
645,646,1583933918838,-2.6571,-0.81869996,-1.0138,7.009753,-0.18176779,-1.8574121,-1
646,647,1583933918849,-2.9524,-1.0713,-0.3002,6.506750599999999,-0.35023340000000003,-1.4086143,-1
647,648,1583933918859,-3.5614998,-1.1534,-0.21169999,5.905069,-0.3701723,-1.7549498,-1
648,649,1583933918869,-3.9957998,-1.1139,-0.9499,5.643459,-0.2835022,-2.6662692999999997,-1
649,650,1583933918879,-3.9522,-0.96559995,-1.7903,5.9392867,-0.04684016,-3.4742644,-1
650,651,1583933918889,-3.3908,-0.64959997,-2.5119,6.547002,0.2223926,-4.1481557,-1
651,652,1583933918900,-2.8007998,-0.5438,-2.9027,7.066026700000001,0.28158686,-4.245628400000001,-1
652,653,1583933918911,-2.3762,-0.4712,-2.3846998,7.382406,0.3061705,-3.1031346,-1
653,654,1583933918920,-2.3212,-0.49519998,-1.0575,7.2544889999999995,0.14610375,-1.7817744999999998,-1
654,655,1583933918930,-2.4299998,-0.71209997,0.1459,7.2094107,-0.044589613,-1.1776024,-1
655,656,1583933918940,-2.5182998,-0.9684,0.48079997,7.131628,-0.33831027,-1.1855705,-1
656,657,1583933918950,-2.3723,-1.1115,0.1716,7.421930000000001,-0.33193213,-1.7545762999999999,-1
657,658,1583933918960,-1.9928,-1.0412999,-0.5096,7.780016000000001,-0.30082667,-2.501912,-1
658,659,1583933918970,-1.7329999,-0.9467,-1.1616,8.039278999999999,-0.11533348,-3.3213131000000002,-1
659,660,1583933918980,-1.4546,-0.7035,-1.8981999,8.369507,0.19001342,-4.164752,-1
660,661,1583933918990,-1.1378,-0.3928,-2.6497998,8.622574,0.46599784,-4.543611,-1
661,662,1583933919000,-0.9873,-0.1275,-2.6768,8.608007,0.5956774,-4.206593,-1
662,663,1583933919011,-1.0307,-0.1152,-2.0674,8.649178,0.37642595,-3.2241757,-1
663,664,1583933919021,-0.89519995,-0.4122,-0.8498,8.802378,0.14121959,-2.0059772000000002,-1
664,665,1583933919031,-0.7676,-0.6125,0.2873,8.80688,0.021174321,-1.4388961,-1
665,666,1583933919041,-0.8067,-0.6533,0.5124,8.793567999999999,0.12611696,-1.6234795,-1
666,667,1583933919051,-0.8088,-0.44329998,0.1881,8.785647,0.3835607,-2.1618395,-1
667,668,1583933919062,-0.7655,-0.1273,-0.7492,8.930964999999999,0.6411193000000001,-3.3643417,d
668,669,1583933919072,-0.4895,-0.00049999997,-1.5899999,9.410889,0.6797043,-3.9049525000000003,-1
669,670,1583933919082,0.0698,0.0315,-1.9729999,10.103732,0.59047717,-4.253175,-1
670,671,1583933919092,0.7876,-0.106199995,-2.2821,10.738474,0.41949287,-4.3678765,-1
671,672,1583933919102,1.3706,-0.1748,-2.2687,11.034339,0.40983945,-4.5065193,-1
672,673,1583933919112,1.4365,-0.20799999,-2.4633,10.881464999999999,0.31590053,-4.863093,-1
673,674,1583933919122,1.2198,-0.36249998,-2.8402998,10.698442,0.22374293,-5.1504544999999995,-1
674,675,1583933919132,1.1214,-0.4377,-2.9436,10.495998,0.19727264,-5.133982700000001,-1
675,676,1583933919142,0.90489995,-0.45819998,-2.8939998,10.291035,0.3084402,-5.065805,-1
676,677,1583933919152,0.6389,-0.3816,-2.8374,9.949354,0.33872208,-5.2470365,-1
677,678,1583933919162,0.3715,-0.4184,-3.0511,9.814437,0.0974057,-5.747205,-1
678,679,1583933919173,0.2978,-0.7503,-3.5860000000000003,10.1145735,-0.48064077,-6.4878554,-1
679,680,1583933919183,0.7123,-1.3852999,-4.3624,10.90851,-1.299496,-7.349155400000001,-1
680,681,1583933919193,1.5753,-2.1973999,-5.1854997,11.857925,-2.005546,-7.844218700000001,-1
681,682,1583933919203,2.4945,-2.8532,-5.5979,12.428177,-2.366927,-7.733405599999999,-1
682,683,1583933919213,2.9411,-3.1394,-5.3561,12.156071,-2.2110738999999997,-6.959552,-1
683,684,1583933919224,2.4454,-2.9273999,-4.5276,10.662175,-1.8406049,-6.280087,-1
684,685,1583933919234,1.1254,-2.6859999,-4.0922,9.627018,-1.6622655,-6.3491163,-1
685,686,1583933919244,-0.1265,-2.5403,-4.2444,8.841624000000001,-1.485449,-6.5142875,-1
686,687,1583933919254,-0.8106,-2.4106998,-4.4997997000000005,8.353858,-1.3230933,-7.2013664,-1
687,688,1583933919265,-1.2009,-2.3329,-5.1886,8.349318499999999,-1.3044951,-7.733463,-1
688,689,1583933919275,-1.1597998999999999,-2.3286998,-5.8493,8.637485,-1.1986332,-7.3982463,-1
689,690,1583933919285,-0.9402,-2.3079,-5.5039997000000005,8.246522,-1.2157948,-6.190314,-1
690,691,1583933919295,-1.3241999,-2.3773,-4.3423,7.227730800000001,-1.206898,-4.792397,-1
691,692,1583933919305,-2.3422,-2.449,-2.9875998,6.102246,-1.1038226999999998,-3.8290372,-1
692,693,1583933919315,-3.4575,-2.4152,-2.0554,5.5076504,-0.9927126000000001,-3.8585336000000003,-1
693,694,1583933919326,-4.0559998,-2.3602998,-2.1358,5.638612999999999,-0.7287758000000001,-4.0599146,-1
694,695,1583933919336,-4.113,-2.0621,-2.9914,5.37685,-0.62033767,-4.658494,-1
695,696,1583933919346,-4.113,-2.0621,-2.9914,4.9838185,-0.5633651999999999,-4.9448404,-1
696,697,1583933919356,-5.089699700000001,-1.9036,-3.6727,4.4885150000000005,-0.37064156,-4.9602017,-1
697,698,1583933919366,-4.9811,-1.7226,-3.3095999,4.748151999999999,-0.16113935,-4.339126599999999,-1
698,699,1583933919376,-4.3887,-1.5148,-2.0207999,5.342028599999999,0.129737,-2.7863717,-1
699,700,1583933919386,-4.2254,-1.0965999,-0.057099998,5.3032335999999995,0.6072749,-0.6661530999999999,-1
700,701,1583933919397,-4.2254,-1.0965999,-0.057099998,4.3448343000000005,0.85308284,1.0927997999999999,-1
701,702,1583933919407,-6.8399,-0.48459998,3.5145,2.5238526,1.2591586000000001,2.8107066,-1
702,703,1583933919417,-7.5743,-0.0001,4.0849,2.1162348,1.8391396,3.4934564,-1
703,704,1583933919427,-7.0095997,0.7102,4.7495,2.813752,2.4836009999999997,4.403683999999999,-1
704,705,1583933919437,-6.2412,1.0839,5.6414,3.6609833,2.7104661,5.541313,-1
705,706,1583933919448,-5.7658,1.0124,6.0199,4.101430000000001,2.5258157000000003,6.107475,-1
706,707,1583933919458,-5.2974997,0.8807,6.8518,4.498226,2.3358312000000003,7.1375365,-1
707,708,1583933919468,-4.7971,0.6856,8.305099499999999,5.1491620000000005,2.0562074,9.192672,-1
708,709,1583933919478,-4.2553,0.6892,10.1546,5.546829,2.0627103,10.897314,-1
709,710,1583933919489,-3.9175,0.8452,12.4563,5.8708606,2.2291357999999994,13.8106365,-1
710,711,1583933919499,-3.9775998999999995,1.2315999,14.2102995,5.641467,2.6591346000000002,15.239639000000002,-1
711,712,1583933919509,-4.3004,1.8698,14.7491,5.309947,3.1636598,15.541453,-1
712,713,1583933919519,-4.6622,2.2256,14.787999,4.947043,3.2716383999999996,15.688657999999998,-1
713,714,1583933919529,-4.6735997000000005,2.0844,14.6002,5.331437,2.8246408,15.360748000000001,-1
714,715,1583933919540,-3.7770998,1.4606,13.9344,6.440671,1.9530078000000002,14.607024,-1
715,716,1583933919550,-2.5502,0.7114,13.0587,7.921025,1.1733408,13.350576,-1
716,717,1583933919560,-1.3639,0.47469997,11.9053,9.02798,1.0536020000000001,12.477066,-1
717,718,1583933919571,-0.3737,0.63479996,11.5273,9.630275,1.4185454,12.854134,-1
718,719,1583933919581,-0.1581,1.2816,12.3483,9.256826,1.9255415,13.607560000000001,-1
719,720,1583933919591,-0.92319995,1.6473999,12.848499,8.033294,1.6728957999999998,13.716133,-1
720,721,1583933919601,-2.355,1.071,12.7436,6.792044000000001,0.48484499999999997,12.201148,-1
721,722,1583933919611,-3.0023,-0.2732,10.2726,7.680637400000001,-1.2279094,8.871513,-1
722,723,1583933919621,-1.0105,-1.9260999,7.3778996,10.841051,-2.860439,6.8186865,-1
723,724,1583933919632,2.3775,-3.2208997999999998,6.1650996,13.842575,-3.8860672,6.1639395,-1
724,725,1583933919642,4.6622,-3.8012,5.9951,14.738868,-4.16073,5.9689746,-1
725,726,1583933919652,4.665499700000001,-3.781,5.7964,12.983353999999999,-4.163201,4.825896299999999,-1
726,727,1583933919662,2.7094,-3.7142,4.7135,11.661371,-4.2553873,3.8618376000000003,-1
727,728,1583933919672,1.0196,-3.9371998,3.0149,10.953722,-4.7853580000000004,0.77507013,-1
728,729,1583933919682,1.4219998999999999,-4.2777,0.7574,12.703384,-5.3166413,-1.612878,-1
729,730,1583933919693,3.3399,-4.772,-1.3943,14.443654,-6.124923,-3.4984457000000004,-1
730,731,1583933919703,4.9396996,-5.4688,-2.9194999,15.233262,-6.6429234,-4.529217,-1
731,732,1583933919713,5.5223,-5.7934,-3.6955,15.021795999999998,-6.7816625,-5.2089596,-1
732,733,1583933919724,5.1905,-5.7833,-4.2219,14.265247,-6.6999917,-5.409929,-1
733,734,1583933919733,4.4126997,-5.5473,-4.2692,13.603624,-6.209199400000001,-6.094565,-1
734,735,1583933919743,3.8546998999999995,-4.9178,-5.2867,13.47042,-5.6738462,-8.514222,-1
735,736,1583933919753,3.8327,-4.3518,-7.9708,13.891417,-5.3820695999999995,-11.428645,-1
736,737,1583933919763,4.4005,-4.0249,-10.7609,14.860110999999998,-5.3867145,-13.0755205,-1
737,738,1583933919774,5.4028997,-4.0105,-11.9904995,15.297282000000001,-5.362083,-13.078441999999999,-1
738,739,1583933919784,5.5828,-3.9076998,-11.788199,14.467319,-5.312772,-12.965224000000001,-1
739,740,1583933919794,4.5934,-3.8702998,-11.7149,13.204711999999999,-5.2594769999999995,-12.958052,-1
740,741,1583933919804,3.3539999,-3.7775998,-11.5759,12.19592,-4.904340299999999,-12.768353999999999,-1
741,742,1583933919816,1.8040999,-2.9455,-11.7816,11.342626,-4.2408876,-13.298410999999998,-1
742,743,1583933919827,1.8040999,-2.9455,-11.7816,11.082808,-3.8901660000000002,-13.990967999999999,-1
743,744,1583933919837,1.4577,-2.5375,-12.585099000000001,10.441842,-3.5724747000000003,-14.600895999999999,-1
744,745,1583933919847,0.107099995,-2.1536999,-13.042399000000001,9.5629015,-3.4047942000000004,-14.428120000000002,-1
745,746,1583933919857,-0.6418,-2.0762,-12.806399,8.908499,-3.2795966,-14.163274,-1
746,747,1583933919867,-0.8028,-1.9728999,-12.4324,8.876216000000001,-3.1741464,-13.792316,-1
747,748,1583933919877,-0.8028,-1.9728999,-12.4324,9.213137,-3.0789432999999997,-13.447867,-1
748,749,1583933919888,-0.4802,-1.7089,-11.5349,8.951182000000001,-2.7576032,-12.530522999999999,-1
749,750,1583933919898,-1.2336999,-1.6410999,-10.3242,8.125605,-2.739867,-11.224295,-1
750,751,1583933919909,-2.2147,-1.5126,-8.6817,7.056603,-2.440448,-9.585138,-1
751,752,1583933919919,-3.2359998,-1.2959,-7.9027,6.053595,-2.2515072999999997,-9.048741,-1
752,753,1583933919929,-4.1294,-1.2873,-7.5421,5.3551397000000005,-2.320173,-8.576661999999999,-1
753,754,1583933919939,-4.3444,-1.5301,-6.9851,5.522456,-2.5422783,-7.870057000000001,-1
754,755,1583933919950,-3.8114998,-1.6504999,-6.2345,6.119436299999999,-2.5834873,-7.142919,-1
755,756,1583933919960,-3.4434998,-1.7325,-5.6830997000000005,6.2175603,-2.7329717000000002,-6.594158,-1
756,757,1583933919970,-3.6246,-1.9002,-5.0561,5.893998000000001,-2.9168177,-5.6174197,-1
757,758,1583933919980,-3.9334,-2.0177999,-4.218,5.689993,-2.9695284,-4.769403,-1
758,759,1583933919990,-4.075599700000001,-2.0736,-3.4636998,5.609298,-3.0553653,-4.0772777,-1
759,760,1583933920000,-4.138999999999999,-2.2034,-2.9392,5.594837,-3.3283519999999998,-3.5700898000000003,-1
760,761,1583933920010,-4.1138,-2.5047998,-2.3992999,5.677782,-3.5774546000000003,-2.7640867,-1
761,762,1583933920021,-4.029,-2.6348999,-1.6248,5.672649,-3.5966942000000004,-2.0092237,-1
762,763,1583933920031,-4.0906,-2.6229,-0.9413,5.5962934,-3.5950089,-1.1408083,-1
763,764,1583933920041,-4.1513,-2.5561,0.0046,5.591208,-3.4175794,0.048602294000000004,-1
764,765,1583933920051,-4.1714,-2.2666,1.0606999,5.4949517,-3.1785996,1.0468407,-1
765,766,1583933920061,-4.2978997,-2.0180000000000002,2.0205,5.3567386,-3.0314807999999998,2.1242313,-1
766,767,1583933920071,-4.4423,-1.8778,3.0010998,5.2305837,-2.9693942000000004,2.9587736000000002,-1
767,768,1583933920082,-4.5849,-1.6881,3.6160997999999998,4.969434,-2.846131,3.5505150000000003,-1
768,769,1583933920092,-4.7943,-1.5861,4.0394998,4.8854165,-2.9503174,4.1564875,-1
769,770,1583933920102,-4.7757998,-1.6114998999999999,4.9203997,5.1890974000000005,-2.8352902,5.7484207000000005,-1
770,771,1583933920112,-4.4605,-1.3137,6.2341,5.233590599999999,-2.5348563,6.995024000000001,-1
771,772,1583933920122,-4.525,-0.93899995,7.4175997,4.87266,-2.3816276000000003,8.466510000000001,-1
772,773,1583933920133,-4.871,-0.70379996,8.8536,4.600641,-2.389394,9.591258,-1
773,774,1583933920143,-5.1545,-0.6644,9.9772,4.5288143,-2.6578703,10.479104,-1
774,775,1583933920153,-5.0512,-0.8091,10.4943,5.010758,-2.7637419999999997,10.860099,-1
775,776,1583933920164,-4.4927998,-0.7005,10.8354,5.3055224,-2.6256347,11.7060375,-1
776,777,1583933920174,-4.295099700000001,-0.4148,11.747399,4.971215,-2.5306903999999997,12.483837,-1
777,778,1583933920184,-4.6461,-0.1933,12.362499,4.622897,-2.4342902000000004,12.615097,-1
778,779,1583933920194,-4.9272,0.0558,12.448199,4.7087917,-2.3045244,12.350067999999998,-1
779,780,1583933920204,-4.763999999999999,0.28059998,12.2014,4.9773629999999995,-2.579647,12.056567,-1
780,781,1583933920214,-4.4592,0.1505,11.9508,5.141462000000001,-2.9819207000000003,12.319824,-1
781,782,1583933920225,-4.2481,-0.1007,12.270599,5.219608999999999,-3.4850574,12.184524,-1
782,783,1583933920235,-4.0813,-0.54289997,12.1698,5.374149299999999,-3.8947532,11.950600999999999,-1
783,784,1583933920245,-3.9095,-0.69549996,12.0014,5.5752239999999995,-4.1693489999999995,11.233633,-1
784,785,1583933920256,-3.6444,-0.80359995,11.328099,5.9999366,-4.375576000000001,10.171028,-1
785,786,1583933920266,-2.4407,-1.1122999,9.610499,6.8813566999999995,-4.982075,9.312583,-1
786,787,1583933920276,-1.65,-1.4738,9.1248,7.533144999999999,-5.5561376,8.89537,-1
787,788,1583933920286,-1.2185999,-1.984,8.7936,7.6932979999999995,-6.215596700000001,8.558409,-1
788,789,1583933920296,-1.2351999,-2.7612997999999997,8.2743,7.610286,-7.217225,7.980573,-1
789,790,1583933920306,-1.2351999,-2.7612997999999997,8.2743,7.826473,-8.010414,7.666473,-1
790,791,1583933920317,0.0213,-3.987,7.482199700000001,8.864485,-8.645069,7.2260265,-1
791,792,1583933920327,0.8034,-4.1626,6.9663,9.431958,-9.001422999999999,6.599406200000001,-1
792,793,1583933920337,1.028,-4.2258997,5.4484,9.515956,-9.205341,4.990541,-1
793,794,1583933920347,1.1848999,-4.021,3.8372998,9.601716,-9.1068735,3.5668626000000003,-1
794,795,1583933920358,1.1848999,-4.021,3.8372998,9.895331,-9.098483,3.0302165,-1
795,796,1583933920368,1.9702,-3.9364,2.6620998,10.129828999999999,-9.461195,2.750459,-1
796,797,1583933920378,1.8980000000000001,-4.5418,2.8841999,9.873688000000001,-10.486613,2.8178892,-1
797,798,1583933920388,1.8899,-5.3451,1.9643999,10.090832,-11.299847,1.369263,-1
798,799,1583933920398,2.6842,-5.7433,-0.1232,11.023489,-11.62089,-0.81562793,-1
799,800,1583933920409,3.9183,-5.7156997,-1.9402,12.168501,-11.659734,-2.0735989,-1
800,801,1583933920419,4.8333,-5.5509996,-2.1471,12.59576,-11.510872,-1.6941563000000002,-1
801,802,1583933920429,4.6106,-5.3231,-1.3998,11.871151,-11.434372,-0.9655528,-1
802,803,1583933920439,3.4475,-5.2461,-1.0453,10.787172,-11.450116,-0.86167324,-1
803,804,1583933920449,2.3116,-5.1261,-1.2387999,9.552491,-11.300566,-1.0744601,-1
804,805,1583933920459,1.847,-4.8677998,-1.6793,9.369133999999999,-11.158244,-1.5657408000000002,-1
805,806,1583933920469,2.2075,-4.6619997,-2.5103,9.826618,-11.064689,-2.2692914,-1
806,807,1583933920479,2.7753,-4.6158,-3.5102,10.357517,-11.148304,-3.2393644,-1
807,808,1583933920489,3.4965,-4.5937,-4.5308,10.921619999999999,-11.136984,-3.9499443,-1
808,809,1583933920500,4.0453,-4.5252,-5.0624,11.287924,-11.113194,-4.1110454,-1
809,810,1583933920510,3.9387999,-4.4416,-4.5941,10.891653999999999,-10.955963,-3.4630977999999994,-1
810,811,1583933920520,3.1206,-4.157099700000001,-3.9498,9.745972,-10.714474000000001,-3.1850162,-1
811,812,1583933920530,1.6862999,-3.8837998,-4.0615997,8.170136,-10.232109,-3.6427300000000002,-1
812,813,1583933920540,0.6759999999999999,-3.3191,-4.7483,7.612067,-9.738971000000001,-4.2481565,-1
813,814,1583933920550,0.2677,-2.7529,-5.3448,7.4475665,-9.275846000000001,-4.499519,-1
814,815,1583933920560,0.4019,-2.5606,-5.4269,7.7891710000000005,-9.293918,-4.626469,-1
815,816,1583933920571,0.9033,-2.5607998,-5.8989997,8.349299,-9.096377,-5.384914,-1
816,817,1583933920581,1.4799,-2.2677999,-6.7787,8.760442,-8.947610000000001,-5.7703133,-1
817,818,1583933920591,1.7530999,-2.2138,-6.6579999999999995,8.712088,-8.969052,-4.9044360000000005,-1
818,819,1583933920601,1.5167999,-2.2134,-5.5832996,8.193562,-8.9044285,-3.8778214,-1
819,820,1583933920611,0.82379997,-2.1589,-4.659,7.3773303,-8.970260000000001,-3.0997345000000003,-1
820,821,1583933920621,0.0819,-2.2340999,-4.0524,6.9547253,-9.026974000000001,-2.9737994999999997,-1
821,822,1583933920632,-0.1339,-2.2479,-4.3234997,7.031282000000001,-8.855836,-3.3647153,-1
822,823,1583933920642,0.0897,-1.9921999,-4.5653996,7.189978999999999,-8.584238000000001,-3.2573879,-1
823,824,1583933920653,0.18959999,-1.7825999,-4.4182,7.067310000000001,-8.547606,-2.868675,-1
824,825,1583933920663,0.083,-1.7591,-4.0481,7.104151700000001,-8.584142,-2.5133370999999998,-1
825,826,1583933920673,0.1906,-1.7549,-3.7552998,7.297460000000001,-8.620754,-2.2041882999999998,-1
826,827,1583933920684,0.41369998,-1.8197,-3.4605,7.5075746,-8.757071,-1.9349556,-1
827,828,1583933920694,0.6426,-1.9153999,-3.1824,7.61609,-8.730303999999999,-1.5003505,-1
828,829,1583933920704,0.7003,-1.8568,-2.6877,7.5131006,-8.56948,-0.8381430000000001,-1
829,830,1583933920714,0.5571,-1.6646999,-2.0212998,7.178572999999999,-8.264641000000001,-0.29046455,-1
830,831,1583933920724,0.2737,-1.3977,-1.5934,6.934757,-7.987076299999999,-0.11001836,-1
831,832,1583933920734,-0.0187,-1.0631,-1.3801,6.6404047,-7.762135499999999,-0.17237294,-1
832,833,1583933920745,-0.27899998,-0.87439996,-1.5583999,6.820908,-7.6195087,-0.6675992,-1
833,834,1583933920755,-0.0648,-0.7515,-1.9957999,7.2600336,-7.552422999999999,-0.7609539000000001,-1
834,835,1583933920765,0.5035,-0.6555,-2.1025,7.8759179999999995,-7.52578,-0.7198406999999999,-1
835,836,1583933920775,0.99899995,-0.6398,-2.0593998,7.890235400000001,-7.529275999999999,-0.5408023000000001,-1
836,837,1583933920785,1.0064,-0.64919996,-1.8587999,7.6012745,-7.364449499999999,-0.393262,-1
837,838,1583933920796,0.7134,-0.4883,-1.7068,7.0540366,-7.1653285,-0.13858597,-1
838,839,1583933920806,-0.0779,-0.3008,-1.245,6.789467999999999,-7.159266499999999,0.1536886,-1
839,840,1583933920816,-0.1074,-0.27719998,-1.0191,6.817767,-7.126083,0.37969166,d
840,841,1583933920826,0.1638,-0.308,-0.8235,7.148175999999999,-7.1750584,0.64399236,-1
841,842,1583933920838,0.6048,-0.35619998,-0.552,7.573645599999999,-7.202381,0.96612746,-1
842,843,1583933920848,0.8777,-0.3568,-0.38729998,7.7172303,-7.263078999999999,1.0216058000000001,-1
843,844,1583933920858,0.7831,-0.53819996,-0.73929995,7.682102700000001,-7.4539447,0.6416269,-1
844,845,1583933920868,0.9285,-0.62549996,-1.0265,7.871292599999999,-7.4601793,0.520624,-1
845,846,1583933920878,1.117,-0.6789,-0.9271,7.989920599999999,-7.5359793,0.7190363000000001,-1
846,847,1583933920888,0.9113,-0.9378,-0.54219997,7.729757000000001,-7.817365,1.1416128,-1
847,848,1583933920899,0.5766,-1.3655,-0.100899994,7.3995194,-8.349941000000001,1.5964056999999998,-1
848,849,1583933920909,0.55939996,-1.8518,-0.095199995,7.7033725,-8.78764,1.4455041000000002,-1
849,850,1583933920920,1.3449999,-2.1757998,-0.5137,8.9040365,-9.055636,0.7619882,-1
850,851,1583933920931,2.3906999,-2.3293,-1.3384,9.825459,-9.080183,-0.33397198,-1
851,852,1583933920941,3.2066998,-2.2886,-2.6237,10.41969,-8.95077,-1.5698205,-1
852,853,1583933920951,3.6167998,-2.2058,-3.6762,10.536392999999999,-8.995705000000001,-2.1922174,-1
853,854,1583933920962,3.4896,-2.3576,-4.0958,10.262545,-9.263760000000001,-2.0583047999999997,-1
854,855,1583933920973,3.2396,-2.6455998,-3.5268998,10.086063000000001,-9.666541,-0.7128591999999999,-1
855,856,1583933920983,3.0200999,-3.1164,-2.1292999,9.99944,-9.997152,0.06765056400000001,-1
856,857,1583933920993,2.9366,-3.4262,-1.5093,10.171948,-10.015875,-0.019067423,-1
857,858,1583933921004,3.0742998,-3.4545,-1.6955,10.491124000000001,-9.927663,-0.6010404,-1
858,859,1583933921014,3.4046998,-3.3960998,-2.316,10.950503999999999,-9.670191,-1.3186593,-1
859,860,1583933921024,3.8474998,-3.1618,-3.1425,11.529996,-9.37035,-2.2262150000000003,-1
860,861,1583933921034,4.3886,-2.9283,-4.0292997,12.088631,-9.275568,-2.8045869999999997,-1
861,862,1583933921044,4.8848,-2.9619,-4.5241,12.656029,-9.56183,-2.7315352,-1
862,863,1583933921054,5.3026,-3.2733,-4.388,13.073816,-9.820671,-2.2974377,-1
863,864,1583933921064,5.7483997,-3.6683,-3.8042,13.540513,-10.244253,-1.8767477,-1
864,865,1583933921074,6.0855,-4.1699,-3.3423,13.57521,-10.555144,-1.5636914,-1
865,866,1583933921084,5.9616,-4.4979,-2.9204,13.218924,-10.538328,-1.3364433,-1
866,867,1583933921094,5.4175997,-4.5859,-2.6583997999999998,12.513027000000001,-10.459224,-0.67737716,-1
867,868,1583933921104,4.7409,-4.5994997,-1.9475,12.11242,-10.168002,0.05363012,-1
868,869,1583933921115,4.2378,-4.4277,-1.1769,12.103914999999999,-9.711179,0.32887715,-1
869,870,1583933921125,4.1265,-4.1054997,-0.83169997,12.273855000000001,-9.355574,0.016663643,-1
870,871,1583933921135,4.192,-3.8765998,-1.0929999,12.290289999999999,-9.1371355,-0.04884171,-1
871,872,1583933921145,4.1095,-3.8000998,-1.0591,12.167859,-9.009362,0.96062076,-1
872,873,1583933921156,4.1095,-3.8000998,-1.0591,12.167859,-9.009362,0.96062076,-1
873,874,1583933921166,3.2391999,-3.7017998999999997,1.3658999,10.979818,-8.503352,3.0690793999999997,-1
874,875,1583933921176,2.27,-3.7254,3.1787,10.9369335,-8.435443,3.7964089999999997,-1
875,876,1583933921186,2.7687,-3.9476,3.1822999,11.69806,-8.460152,3.4743218000000002,-1
876,877,1583933921196,3.7712,-3.8135998,2.575,12.712617,-8.041328,2.7166815,-1
877,878,1583933921207,3.9092998999999997,-3.5300998999999997,1.6539999,12.748683999999999,-7.628473,1.6581953,-1
878,879,1583933921217,3.9092998999999997,-3.5300998999999997,1.6539999,12.584298,-7.364028500000001,1.3977253,-1
879,880,1583933921228,3.7108,-2.8927999,2.4271,12.940478,-6.2746663,3.0336642000000005,-1
880,881,1583933921238,3.85,-2.3934999,3.8295,12.970233,-5.5708475,4.337374,-1
881,882,1583933921248,3.4641,-2.0019,5.0702,12.470343,-5.0595612999999995,5.3562984,-1
882,883,1583933921258,2.4861999,-2.0963,5.7114,11.286727,-5.065718700000001,5.8545894999999994,-1
883,884,1583933921268,0.82949996,-2.5458,6.3675,9.675016000000001,-5.408339,6.6367270000000005,-1
884,885,1583933921279,-0.44529998,-3.2363,7.3128996,8.856324,-5.7104387,7.395383,-1
885,886,1583933921289,-0.83669996,-3.4125,7.8556,8.774902,-5.356404,7.8021193,-1
886,887,1583933921299,-0.66969997,-2.8674,7.9941998,9.015031,-4.3285730000000004,7.6008053,-1
887,888,1583933921309,-0.7116,-1.8621,7.1263,8.78851,-3.1079228,6.288486,-1
888,889,1583933921319,-1.4056,-0.9737,5.0959997,7.758564,-2.0709459999999997,4.0680933,-1
889,890,1583933921329,-2.9775,-0.2267,2.806,6.1051764,-1.1463629,1.8477970000000001,-1
890,891,1583933921340,-4.4456997000000005,0.31579998,0.6161,5.0267606,-0.5215242,-0.08814493,-1
891,892,1583933921350,-4.7406,0.62329996,-0.5625,5.113622,-0.13123098,-0.50431466,-1
892,893,1583933921360,-4.324,0.8075,0.6604,5.549329,0.23769635,2.0345447,-1
893,894,1583933921370,-4.2658,0.49769998,3.0541,5.443476,-0.32534328,4.421564,-1
894,895,1583933921380,-4.4974,-0.2463,5.2306,5.009599,-0.61216867,5.7053633,-1
895,896,1583933921390,-5.0772,-0.58599997,6.1542997,4.231397,-0.5383985,6.024185,-1
896,897,1583933921401,-5.9858,-0.5758,6.205899700000001,3.0604887,-0.17051505,5.5436974,-1
897,898,1583933921411,-7.3420997,-0.30719998,5.5311,1.5343768999999998,0.45358630000000005,4.492298,-1
898,899,1583933921421,-8.843699,0.1752,4.2569,0.34531093,1.1624615,3.103757,-1
899,900,1583933921431,-9.6683,0.68009996,2.9171999,0.17267939999999998,1.6775308999999998,2.0113208,-1
900,901,1583933921441,-9.347000000000001,1.0113,1.9333999,0.9937948,1.9559381999999998,1.0045591999999999,-1
901,902,1583933921451,-8.3516,1.0819,0.8526,2.16478,1.8419647000000001,0.27547684,-1
902,903,1583933921461,-7.0547,0.7743,0.41700000000000004,3.8214907999999994,1.3622530000000002,0.08828858,-1
903,904,1583933921471,-5.7002,0.3466,0.2661,4.706637000000001,1.0727843000000001,-0.0052002063,-1
904,905,1583933921481,-4.7191,0.0558,0.1814,5.3497095,0.99540377,-0.25825775,-1
905,906,1583933921491,-4.3648,0.0788,-0.33299999999999996,5.3498917,1.0936903999999998,-1.1167323999999998,-1
906,907,1583933921501,-4.529,0.1769,-1.2387999,4.9903307,1.3768096,-1.5843773,-1
907,908,1583933921511,-5.035,0.44919997,-1.4236,4.3048706,1.5056752,-1.6565386000000002,-1
908,909,1583933921522,-5.6966,0.3712,-1.6970999,3.8410945,1.3569378,-2.1406364,-1
909,910,1583933921531,-5.8968,0.2164,-2.0205998,4.177815,1.3031831,-2.1434522,-1
910,911,1583933921541,-5.1749997,0.09999999400000001,-1.8096,5.313347,1.2422554,-1.9918034,-1
911,912,1583933921551,-3.9629,0.062,-1.5989,5.987601799999999,1.2724129,-1.902289,-1
912,913,1583933921561,-3.1427,0.09559999400000001,-1.055,6.99105,1.2360305,-0.8707616,-1
913,914,1583933921571,-2.5669999999999997,-0.0911,-0.025899999,7.2714205000000005,1.1875623,-0.13781026,-1
914,915,1583933921582,-2.5014,-0.0198,0.6307,6.909388000000001,1.3587573999999998,0.5296549,-1
915,916,1583933921592,-3.1708,-0.0663,1.2566998999999999,5.840636,1.0075566999999999,0.5549664000000001,-1
916,917,1583933921602,-3.9905998999999994,-0.4085,0.94449997,5.5803385,0.9388048000000001,-0.25508782,-1
917,918,1583933921612,-4.0169,-0.3628,-0.24309999,6.344922,1.0166643,-1.9340553,-1
918,919,1583933921622,-3.1332998,-0.4087,-1.6161,7.5509770000000005,0.9695367,-2.7886417000000003,-1
919,920,1583933921632,-1.9372,-0.4156,-2.2914999,8.359767,0.98680377,-2.6555720000000003,-1
920,921,1583933921643,-1.2412,-0.3847,-1.9681,8.637638,1.0147202,-1.7465798,-1
921,922,1583933921652,-1.0731,-0.38439998,-0.98759997,8.571769,0.9506705,-0.9889298000000001,-1
922,923,1583933921662,-1.2076,-0.46429998,-0.14819999,8.213855,1.0518878,-0.4648965,-1
923,924,1583933921672,-1.5469998999999999,-0.3463,0.0997,7.938244,1.3060083,-0.43653000000000003,-1
924,925,1583933921682,-1.8076999,-0.132,0.099199995,7.6546364,1.577051,-0.52376515,-1
925,926,1583933921693,-2.0887,0.1345,-0.0438,7.4578809999999995,1.791179,-0.8224658000000001,-1
926,927,1583933921703,-2.263,0.27089998,-0.42459998,7.478269999999999,1.7553712,-1.2955121,-1
927,928,1583933921713,-2.1248,0.221,-0.8716,8.136743,1.7718816000000002,-1.5561162,-1
928,929,1583933921723,-1.38,0.23179999,-1.1343,8.974771,1.781784,-1.7306248,-1
929,930,1583933921733,-0.5872,0.2411,-1.2537999,9.413349,1.6662303,-1.5934274,-1
930,931,1583933921743,-0.2355,0.102699995,-1.0569998999999999,9.572678999999999,1.4947385,-1.0933936000000002,-1
931,932,1583933921754,-0.1182,-0.0415,-0.5275,9.499619000000001,1.4261206,-0.68781585,-1
932,933,1583933921764,-0.2059,-0.0946,-0.18609999,9.374506,1.2975231000000003,-0.44145247,-1
933,934,1583933921774,-0.3222,-0.2607,0.0592,9.321805,1.25709,-0.4422282,-1
934,935,1583933921784,-0.3692,-0.28239998,-0.0067999995999999995,9.224888,1.2142433000000001,-0.7343208000000001,-1
935,936,1583933921795,-0.4849,-0.34309998,-0.3181,9.166584,1.2854469,-0.8362371999999999,d
936,937,1583933921805,-0.5128,-0.2744,-0.3566,9.202622,1.6722828,-0.63867724,-1
937,938,1583933921815,-0.48229998,0.1006,-0.1629,9.153214,2.1044364,-0.38907695,-1
938,939,1583933921825,-0.5308,0.5269,0.0755,9.136638,2.407906,-0.22892399,-1
939,940,1583933921836,-0.5115,0.8986,-0.0713,9.187538,2.4716396,-0.6088838000000001,-1
940,941,1583933921846,-0.5115,0.8986,-0.0713,9.309776,2.3896337000000005,-0.89372677,-1
941,942,1583933921856,-0.3645,0.8239,-0.424,9.4326,2.1314332,-1.0623839,-1
942,943,1583933921866,-0.1871,0.2613,-0.5144,9.469892,1.7722647,-1.0160513,-1
943,944,1583933921877,-0.4409,0.0804,-0.40699998,9.164631,1.6629071,-0.88817227,-1
944,945,1583933921886,-0.4409,0.0804,-0.40699998,8.7512865,1.816318,-0.48415545,-1
945,946,1583933921896,-0.92929995,0.23449999,0.033,8.25447,1.9937092,0.82543457,-1
946,947,1583933921906,-2.119,0.42769998,2.9699,7.403619,2.088146,2.8196225,-1
947,948,1583933921917,-2.8507,0.64269996,4.6846,6.667153,2.35418,4.5575447,-1
948,949,1583933921928,-3.7795,0.8473,6.1433,5.6749477,2.508769,5.7202269999999995,-1
949,950,1583933921938,-3.7795,0.8473,6.1433,4.9090805,2.6166997000000003,5.205033,-1
950,951,1583933921948,-4.9410996,1.1675,5.1127996,4.722429,2.8500384999999997,4.41531,-1
951,952,1583933921958,-4.9995,1.2925,4.7769,4.637061,2.7352605,4.1098676,-1
952,953,1583933921969,-5.1103997,0.9762,4.4263997,4.6134257000000005,2.2977347000000004,3.7992342000000003,-1
953,954,1583933921979,-4.9286,0.8278,4.1043,4.864903,2.2530683999999996,3.5590574999999998,-1
954,955,1583933921989,-4.5014997,1.2317,4.0801,5.2911377,2.7000083999999998,3.921444,-1
955,956,1583933922000,-4.6117,1.6771,5.167000000000001,4.7964096,2.974068,5.401319,-1
956,957,1583933922010,-5.6608996,1.9143,6.8192997,3.5898852,3.103527,7.069005000000001,-1
957,958,1583933922020,-6.884999799999999,1.9214,8.2565,2.2794522999999995,2.6761142999999996,8.646641,-1
958,959,1583933922030,-7.7358,1.4569999999999999,9.427,1.7226377,2.151104,9.119197999999999,-1
959,960,1583933922040,-8.1446,0.94589996,9.282499000000001,1.5922111,1.2248353,8.032086999999999,-1
960,961,1583933922050,-7.9638,-0.083,7.983,2.5289474,-0.11146445599999999,6.5030923,-1
961,962,1583933922061,-6.506,-1.1471,6.5381,4.1073966,-0.82378733,5.1875453,-1
962,963,1583933922071,-4.4672,-1.489,4.9386997,6.333880000000001,-1.1446104,3.118371,-1
963,964,1583933922081,-2.9262,-1.3713,3.47,7.292173399999999,-1.129661,2.0174215,-1
964,965,1583933922091,-2.3239,-1.1831,2.7654,7.4702735,-1.218888,1.5464915000000001,-1
965,966,1583933922101,-2.385,-1.183,2.3502,7.196664,-1.7442813000000001,0.84926164,-1
966,967,1583933922112,-2.5781999,-1.5618,1.8713,7.114801400000001,-2.1950423999999997,0.5910326,-1
967,968,1583933922122,-2.5281,-2.3293,1.7394999,7.618321400000001,-3.8634274,0.3335889,-1
968,969,1583933922132,-1.9295,-3.4471998,1.5952,8.509864,-4.939975700000001,-0.45084733,-1
969,970,1583933922142,-0.89159995,-4.2753997,0.76879996,9.895016,-5.814472,-2.550639,-1
970,971,1583933922152,0.6024,-4.843899700000001,-1.4189,11.579728,-6.3064137,-5.215998,-1
971,972,1583933922162,2.3351998,-5.0683,-3.9559,13.07873,-6.5576514999999995,-7.449597,-1
972,973,1583933922173,3.8054,-5.0390997,-5.9273,13.984426500000001,-6.60498,-8.723848,-1
973,974,1583933922182,4.5895,-4.8505,-6.9804997,14.011605,-6.635128,-9.164305,-1
974,975,1583933922192,4.3423,-4.8454,-7.3936,13.117917000000002,-7.4025172999999995,-9.994968,-1
975,976,1583933922202,3.6129,-5.4811997,-8.1919,12.714694999999999,-8.205608999999999,-11.392128999999999,-1
976,977,1583933922212,3.4117,-6.0597,-9.6556,13.297875,-8.530732,-12.8051,-1
977,978,1583933922222,4.1995,-6.1987,-10.9401,14.523438,-8.488230999999999,-13.588215,-1
978,979,1583933922233,5.5129,-5.8903,-11.5527,15.5346155,-8.120892999999999,-13.634442000000002,-1
979,980,1583933922243,6.3872,-5.4163,-11.5288,15.340378,-7.888186,-13.4046755,-1
980,981,1583933922254,5.9567,-5.082,-11.3344,14.147864000000002,-7.7715883,-13.096762,-1
981,982,1583933922264,4.6731,-4.9315,-11.1054,12.846386,-7.8933864,-13.036563000000001,-1
982,983,1583933922274,3.4708997999999998,-5.0078998,-11.1678,12.093305,-8.043167,-13.35322,-1
983,984,1583933922284,2.8044,-5.1464,-11.653399,11.702619,-8.171717,-13.767023000000002,-1
984,985,1583933922294,2.4593,-5.1586,-12.019199,11.274123,-7.940485000000001,-13.292531,-1
985,986,1583933922304,2.0816,-4.9296,-11.6165,10.839269999999999,-7.7140317,-12.627987,-1
986,987,1583933922314,1.5022,-4.5903,-10.834499000000001,10.185135,-7.0672336,-11.701325,-1
987,988,1583933922324,0.78929996,-3.9146998,-10.0197,9.294905,-6.3783544999999995,-11.015014,-1
988,989,1583933922334,-0.104499996,-3.2903,-9.4189,8.53779,-5.8090706,-9.982097999999999,-1
989,990,1583933922344,-0.7248,-2.8478,-8.6335,8.204077,-5.5963984,-9.097479,-1
990,991,1583933922354,-1.1572,-2.6309,-7.6179,7.7841916,-5.410216,-8.044863000000001,-1
991,992,1583933922365,-1.5285,-2.4984999,-6.8652,7.632954600000001,-5.384894999999999,-7.8490167,-1
992,993,1583933922375,-1.9365,-2.4866998,-6.6155996,7.0457144,-5.405973,-7.478567,-1
993,994,1583933922385,-2.2928,-2.5253,-6.4618998,6.9721836999999995,-5.625072,-7.194642999999999,-1
994,995,1583933922395,-2.3716,-2.7508,-6.2872,7.715794,-5.899504,-7.2147064,-1
995,996,1583933922405,-1.6330999,-3.0172,-6.4096,9.089317999999999,-6.1374497,-7.884355,-1
996,997,1583933922416,-0.2644,-3.2415,-7.1713,9.895533,-6.4135394,-8.173776,-1
997,998,1583933922426,0.5354,-3.5131997999999998,-7.5360000000000005,9.907771,-6.808669,-7.5304923,-1
998,999,1583933922436,0.5378,-3.9208998999999998,-6.9308,9.150572,-7.129080999999999,-6.122386,-1
999,1000,1583933922446,-0.2289,-4.2773,-5.5554,7.904466,-7.405582000000001,-4.0035457999999995,-1
1000,1001,1583933922456,-1.8966999,-4.4681997,-2.2087998,7.4778485,-7.144116,-2.4027345,-1
1001,1002,1583933922466,-1.8966999,-4.4681997,-2.2087998,7.5165005,-6.779775999999999,-1.4747324,-1
1002,1003,1583933922477,-1.7232,-3.9843998,-0.8659,7.7928777,-6.673205,-1.0859907,-1
1003,1004,1583933922486,-1.7232,-3.9843998,-0.8659,8.177023,-6.5715666,-0.6041241,-1
1004,1005,1583933922496,-1.258,-3.8693998,-0.3538,8.898031,-6.7354449999999995,0.06952762,-1
1005,1006,1583933922506,0.2694,-4.1363997,0.7722,9.941730999999999,-6.8379164,0.7212293000000001,-1
1006,1007,1583933922516,0.8874,-4.1236,1.1113,10.420811,-6.771310000000001,1.1415841999999998,-1
1007,1008,1583933922527,1.0131999,-3.8334,1.7573999,10.335385,-6.4301744,2.0547996,-1
1008,1009,1583933922537,0.3417,-3.6330998,3.1334999,9.57198,-6.311077,3.5668147000000006,-1
1009,1010,1583933922547,-0.7729,-3.5591998,5.9213,8.485874,-6.1621294,6.751821499999999,-1
1010,1011,1583933922557,-1.6216999,-3.3852,9.4552,7.696525599999999,-5.9943914000000005,10.181524000000001,-1
1011,1012,1583933922567,-1.8776,-3.1773999,11.6671,7.6854067,-5.746993499999999,12.139561,-1
1012,1013,1583933922577,-1.0081999,-2.8288,11.7231,8.682362,-5.4148893,11.753261,-1
1013,1014,1583933922588,0.4375,-2.6836998,9.9457,10.552933,-5.373144,9.707597999999999,-1
1014,1015,1583933922598,2.1416,-2.6302,8.4892,12.21605,-5.3150699999999995,8.750960000000001,-1
1015,1016,1583933922608,3.6757998,-2.4993,8.1333,13.283097,-5.227759,8.807798,-1
1016,1017,1583933922618,4.357599700000001,-2.2389997999999998,9.224299,13.750005999999999,-4.9390273,10.274227999999999,-1
1017,1018,1583933922628,3.8813,-2.0609999,11.335199000000001,12.8260355,-4.723856,12.888122000000001,-1
1018,1019,1583933922638,2.6125,-1.9216,13.210799,11.520888000000001,-4.4632034,14.429651999999999,-1
1019,1020,1583933922649,1.5173999,-1.5627999,13.9246,10.716907,-3.9264428999999996,14.490016,-1
1020,1021,1583933922659,1.5173999,-1.5627999,13.9246,10.637113000000001,-3.5791017999999997,13.782576999999998,-1
1021,1022,1583933922669,1.4639,-0.53,11.0359,11.143391000000001,-2.7695265,11.226372999999999,-1
1022,1023,1583933922679,2.2189999,-0.0681,9.3435,12.145947999999999,-2.3228066000000003,9.807061000000001,-1
1023,1024,1583933922689,3.3053,0.2445,8.0399,13.167027,-1.9503359,8.732927,-1
1024,1025,1583933922699,3.9643,0.4086,7.3465,13.454532999999998,-1.8235389,8.382991,-1
1025,1026,1583933922709,3.7048997999999997,0.2791,7.3761997,12.964602000000001,-1.8657438999999998,8.436803,-1
1026,1027,1583933922720,2.9413998,0.1024,7.4270000000000005,12.212105000000001,-1.9126990000000001,8.393516,-1
1027,1028,1583933922730,2.3446,0.08249999599999999,7.1611,11.635859,-1.6265249,7.9324884,-1
1028,1029,1583933922741,1.8190998999999999,0.29479998,6.7240996,11.233239999999999,-1.3132867,7.5069427,-1
1029,1030,1583933922751,1.4636999,0.5467,6.1361,11.037702000000001,-0.89561343,6.782696700000001,-1
1030,1031,1583933922761,1.4343,0.7147,5.3915997,11.251379,-0.76838547,5.75455,-1
1031,1032,1583933922771,1.7394999,0.5567,4.1534,11.677699,-1.0591853,4.210587,-1
1032,1033,1583933922781,2.2502,0.101799995,2.6278,12.333988,-1.4010295,2.9296124,-1
1033,1034,1583933922792,2.8785,-0.40879998,1.6229999,12.88614,-1.8142111,2.2516797000000004,-1
1034,1035,1583933922802,3.3597,-0.8847,1.3654,13.276107999999999,-2.1867392000000003,2.370748,-1
1035,1036,1583933922812,3.5272,-1.3317,1.5870999,13.140269,-2.4266384,2.3723857,-1
1036,1037,1583933922822,3.225,-1.7019999,1.7034,12.60459,-2.5394053,2.406441,-1
1037,1038,1583933922832,2.5328,-1.8872999,1.6959,11.675573,-2.4768302,2.1096077,-1
1038,1039,1583933922842,1.7162,-1.9519999,1.4589,11.158551,-2.3694553,1.8639721999999999,-1
1039,1040,1583933922853,0.8736,-1.9289,0.9740000000000001,10.156884,-2.2767901000000004,0.9344857,-1
1040,1041,1583933922863,0.2694,-2.0866,0.3157,9.864686,-2.2012767999999996,0.584032,-1
1041,1042,1583933922873,0.020499998999999998,-2.1259,0.092999995,9.859591,-2.1529813,0.46233952,-1
1042,1043,1583933922883,0.0677,-2.2131,0.030599998,9.965060000000001,-2.0338647,0.52790236,-1
1043,1044,1583933922893,0.19489999,-2.1859999,0.1979,10.082759,-1.7929794,0.5906686999999999,-1
1044,1045,1583933922904,0.2549,-2.04,0.2042,9.840964,-1.5259969999999998,0.10546937599999999,-1
1045,1046,1583933922914,-0.036199998,-1.936,-0.2455,9.470953999999999,-1.4099741000000001,-0.38365647,-1
1046,1047,1583933922924,-0.39409998,-1.9339998999999999,-0.6096,9.196119,-1.2401582,-0.6567295999999999,-1
1047,1048,1583933922934,-0.6616,-1.8942,-0.8452,8.775516,-1.2545043,-1.1622317,-1
1048,1049,1583933922944,-1.1034,-2.0805,-1.3039,8.131149,-1.1989013000000002,-1.5831803,-1
1049,1050,1583933922954,-1.6313,-2.1403,-1.5718,7.6284246,-0.85474914,-1.9052961,-1
1050,1051,1583933922965,-2.2356,-1.8181,-1.9981999,7.1858325,-0.061645902999999995,-2.9144616,-1
1051,1052,1583933922975,-2.5539,-1.2483,-2.7907999,7.140630000000001,0.83686924,-2.8803970000000003,-1
1052,1053,1583933922985,-2.5860999,-0.49949998,-2.7001,6.557134,1.3973901000000002,-2.0633423,-1
1053,1054,1583933922995,-3.1555,-0.0661,-1.8312998999999999,5.2995944,1.4111713,-1.2542073999999999,-1
1054,1055,1583933923005,-4.3792,-0.17629999,-0.95989996,4.239011,1.3350357,-0.91766876,-1
1055,1056,1583933923015,-5.424299700000001,-0.38369998,-0.56659997,3.5887647000000005,1.3053953999999999,-1.0245171999999998,-1
1056,1057,1583933923025,-6.0469,-0.5348,-0.6132,3.644272,1.4882741000000002,-1.5869056000000001,-1
1057,1058,1583933923035,-5.9637,-0.45979998,-1.1248,4.100904,2.236491,-2.5791009999999996,-1
1058,1059,1583933923045,-5.4884996,0.18239999,-2.0616999,4.0517650000000005,3.207924,-3.5474217000000006,-1
1059,1060,1583933923056,-5.5032,1.0536,-2.9845,3.2885892,3.9135046,-3.8679094,-1
1060,1061,1583933923066,-7.4918,1.8173,-2.2907,1.7281156000000002,4.1643405,-2.6472592,-1
1061,1062,1583933923076,-8.7720995,1.6228,-0.9044,0.5223478,4.0240498,-1.3819139999999999,-1
1062,1063,1583933923086,-9.2921,1.4110999,-0.094299994,0.18837579999999998,3.873196,-0.7174369,-1
1063,1064,1583933923097,-8.8382,1.2666998999999999,0.0424,0.77680355,3.79819,-0.7760564999999999,-1
1064,1065,1583933923107,-8.184299000000001,1.1642,-0.3924,1.3454552,3.6793709000000003,-1.3004059,-1
1065,1066,1583933923117,-8.0246,1.0065,-1.107,1.4036534,3.5819077000000004,-2.102722,-1
1066,1067,1583933923127,-8.2295,1.1578,-1.9252,1.1439304,3.7728596,-2.862412,-1
1067,1068,1583933923138,-8.2295,1.1578,-1.9252,0.92922795,4.040024,-2.906331,-1
1068,1069,1583933923148,-8.8188,1.8441999,-1.6909999999999998,0.4007415,4.4702234,-2.3769633999999997,-1
1069,1070,1583933923158,-9.4389,2.0202,-1.1221,-0.25440785,4.449174,-1.827274,-1
1070,1071,1583933923169,-10.0522995,1.7574999,-0.602,-0.78336364,4.0860977,-1.4231038999999999,-1
1071,1072,1583933923180,-10.0522995,1.7574999,-0.602,-0.78336364,4.0860977,-1.4231038999999999,-1
1072,1073,1583933923189,-10.317699000000001,1.4941,-0.2729,-0.6239577,3.5572187999999993,-1.0882701000000001,-1
1073,1074,1583933923199,-9.7767,0.6728,0.041899998,-0.14480132,2.6139417000000003,-0.893066,-1
1074,1075,1583933923209,-9.4777,0.0314,0.0963,0.17371370000000003,1.9552296000000002,-1.0957879,-1
1075,1076,1583933923219,-9.2486,-0.2929,-0.4183,0.35599864,1.5858617,-1.6956311000000002,-1
1076,1077,1583933923229,-9.1279,-0.53889996,-0.82739997,0.5501205,1.149734,-1.8137323,-1
1077,1078,1583933923239,-8.958099,-0.84569997,-0.5363,0.707343,0.7868304,-1.4281030000000001,-1
1078,1079,1583933923249,-8.808499000000001,-0.7629,-0.1911,0.9896002,1.1024724,-1.1438058999999998,-1
1079,1080,1583933923260,-8.5807,-0.1326,-0.124699995,1.1796902,1.5615175,-1.1236563999999998,-1
1080,1081,1583933923270,-8.4991,0.57739997,0.1042,1.1149414,1.7888613000000002,-0.72546226,-1
1081,1082,1583933923280,-8.777599,0.3225,0.5707,0.8271775,0.8590109,-0.23344424,-1
1082,1083,1583933923290,-8.866199499999999,-0.34399998,0.8104,1.1408466999999998,0.08076122,-0.22810039,-1
1083,1084,1583933923301,-8.3136,-0.8792,0.7438,2.0093959999999997,-0.8407287,-0.32450053,-1
1084,1085,1583933923311,-7.2865996,-1.6084,0.5512,3.1336365,-1.7160393,-0.87455404,-1
1085,1086,1583933923321,-6.2752,-2.0567,-0.1735,3.8954617999999996,-2.3646667000000003,-1.5213236,-1
1086,1087,1583933923331,-5.6411,-2.4666997999999998,-0.7655,4.398436,-3.0120685000000003,-1.945241,-1
1087,1088,1583933923342,-5.2359,-2.6868,-1.1122999,4.4843974,-3.2240512000000003,-1.9557276999999997,-1
1088,1089,1583933923352,-5.4902997000000004,-2.5544,-0.9235,3.750316,-3.4863023999999996,-1.0496756,-1
1089,1090,1583933923362,-6.3051,-2.6162,0.2683,3.2150392999999995,-3.892292,0.4292229,-1
1090,1091,1583933923372,-6.4621997,-2.7354,1.5208,3.6533506,-4.2994404,1.4750198,-1
1091,1092,1583933923382,-5.861000000000001,-2.7559,2.1159,4.448053400000001,-4.965545,1.8165287,-1
1092,1093,1583933923392,-4.98,-3.1884,2.3585,5.425223,-6.113881,2.3131435000000002,-1
1093,1094,1583933923403,-3.8869,-4.0873,2.7869,6.37121,-7.326343,2.1469095,-1
1094,1095,1583933923413,-2.9155998,-4.843499700000001,2.2405,6.853641499999999,-8.077175,0.68162924,-1
1095,1096,1583933923423,-2.4501,-5.2001,0.5667,7.144709599999999,-8.753948,-0.30128634,-1
1096,1097,1583933923433,-1.9705,-5.5207996,-0.1039,7.755882300000001,-9.279859,0.25913882,-1
1097,1098,1583933923443,-1.2508999,-5.6573997,0.46159998,7.715325,-9.617642,1.0273616,-1
1098,1099,1583933923453,-1.4193,-5.7096995999999995,1.1639,6.8044553,-10.718563,2.2200189,-1
1099,1100,1583933923464,-2.0618,-6.665499700000001,2.3916,7.212619,-12.217017,3.981931,-1
1100,1101,1583933923474,-1.1113,-7.7394996,3.9810000000000003,8.855443,-13.308620000000001,4.792042299999999,-1
1101,1102,1583933923484,0.8576,-8.411099,4.2419,11.012408,-14.135126999999999,3.7396279999999997,-1
1102,1103,1583933923494,3.2819998,-8.8763,2.7784998,13.388797,-15.270755,1.8639243000000003,-1
1103,1104,1583933923504,5.4954,-9.4805,1.1352,15.086995000000002,-15.897499,1.6698503,-1
1104,1105,1583933923514,7.4469,-9.7936,0.8688,15.441279000000002,-16.080235000000002,1.6491932,-1
1105,1106,1583933923525,8.0449,-9.6807995,0.8091,14.481079999999999,-16.073023000000003,1.1679586000000002,-1
1106,1107,1583933923535,7.311899700000001,-9.4206,0.2962,13.817004999999998,-16.197512,1.6675136000000002,-1
1107,1108,1583933923545,6.7632,-9.3755,1.0282999,13.318378,-16.514791,3.0245376,-1
1108,1109,1583933923555,6.571799799999999,-9.4375,2.0844,13.190596,-16.922773,3.2448807,-1
1109,1110,1583933923566,6.6544,-9.6601,2.2711,13.915655,-17.148958,3.013486,-1
1110,1111,1583933923577,7.5923,-9.7066,1.9880999,15.149503,-17.055222,1.9353672999999998,-1
1111,1112,1583933923587,9.8741,-8.9079,-0.1114,15.859173,-16.491606,0.90437615,-1
1112,1113,1583933923597,9.9319,-7.8588996,-0.49429998,15.263304000000002,-15.469204999999999,0.7735187,-1
1113,1114,1583933923608,8.9203,-7.0607,-0.254,14.20771,-14.916279000000001,1.1453478000000001,-1
1114,1115,1583933923618,8.9203,-7.0607,-0.254,13.2339115,-14.48311,1.9560053,-1
1115,1116,1583933923628,6.8967,-5.5989,1.4171,11.948253999999999,-13.53426,2.8249187,-1
1116,1117,1583933923638,6.2044,-5.0332,1.5106,11.134694,-13.111979500000002,2.6911979,-1
1117,1118,1583933923648,5.7791,-4.602999700000001,0.7502,10.927645,-12.592371,1.5644385,-1
1118,1119,1583933923658,6.0058,-3.8544998,-0.75119996,11.206463000000001,-11.881839,0.23233333,-1
1119,1120,1583933923669,6.3423,-3.3358,-1.4488,11.343689999999999,-11.570306,0.018033126,-1
1120,1121,1583933923679,6.2145,-2.8523,-1.1391,10.915539,-11.01419,0.4017949,-1
1121,1122,1583933923689,5.5358996,-2.3056,-1.1237,10.085767,-10.503296,0.29189149999999997,-1
1122,1123,1583933923699,4.6612,-1.9266,-1.2211,9.236361500000001,-10.226421,0.23229502,-1
1123,1124,1583933923709,4.0564,-1.6380000000000001,-1.2258999,8.712997999999999,-10.006011,0.30416897,-1
1124,1125,1583933923720,3.6819,-1.4697,-0.9346,8.512775,-9.898166,0.52815133,-1
1125,1126,1583933923730,3.4097,-1.2657,-0.7238,7.979481,-9.537177999999999,0.55472696,-1
1126,1127,1583933923740,3.0052,-0.9877,-1.0809,7.5518103000000005,-9.235547,0.18894082,-1
1127,1128,1583933923751,2.5669999999999997,-0.68369997,-1.3858,7.1989813,-9.018221,0.044043735,-1
1128,1129,1583933923760,2.0858,-0.3822,-1.3884,6.585194,-8.623014,0.25526020000000005,-1
1129,1130,1583933923770,1.6116999,-0.12079999599999999,-1.1609,6.2099175,-8.424353,0.4638718,-1
1130,1131,1583933923780,1.3223,0.052899998,-0.90529996,6.0709968,-8.341743,0.99596876,-1
1131,1132,1583933923791,1.1889,0.0515,-0.1973,5.8298717,-8.555565,1.635824,-1
1132,1133,1583933923801,0.87729996,-0.3026,0.37919998,5.577389,-8.915949000000001,2.0519936000000003,-1
1133,1134,1583933923811,0.7019,-0.5697,0.6793,5.534044000000001,-9.101299000000001,2.1799781000000005,-1
1134,1135,1583933923821,0.72389996,-0.6911,0.6432,5.617305,-9.124542,1.7634254,-1
1135,1136,1583933923831,0.7863,-0.69729996,-0.0382,5.708572,-9.152314,0.89560384,-1
1136,1137,1583933923841,0.9382,-0.8124,-0.8777,5.9915476,-9.315628,0.45931324,-1
1137,1138,1583933923852,1.2937,-0.94759995,-0.9949,6.4051886,-9.335614999999999,0.74252814,-1
1138,1139,1583933923862,1.6336,-0.9068,-0.5373,6.4804626,-9.302938000000001,1.4291373,d
1139,1140,1583933923872,1.4639,-0.9666,0.30949998,5.9849396,-9.386199000000001,2.3657396,-1
1140,1141,1583933923882,0.97129995,-1.0107,0.98819995,5.7292385,-9.3194685,2.6358342,-1
1141,1142,1583933923892,0.7504,-0.9694,1.1817,5.847071,-9.377006,2.4272895,-1
1142,1143,1583933923902,0.9245,-1.0761,0.8516,6.345477,-9.675257,1.6143813999999999,-1
1143,1144,1583933923913,1.4652,-1.4576,-0.0605,7.0905147,-10.154605,0.72108567,-1
1144,1145,1583933923923,2.202,-1.9477999,-0.83889997,7.8179398,-10.577755999999999,0.54514056,-1
1145,1146,1583933923934,2.8751,-2.3809,-0.88409996,8.405467999999999,-11.004325,1.1340184,-1
1146,1147,1583933923943,3.3353,-2.8367999,-0.19569999,8.534429,-11.224697,1.7934965,-1
1147,1148,1583933923954,3.3560998,-3.0138,0.3728,8.52942,-11.171834,1.8369273999999998,-1
1148,1149,1583933923964,3.332,-2.9715998,0.3209,8.724002,-10.999346000000001,1.7071617,-1
1149,1150,1583933923974,3.4896,-2.8272,0.1786,8.957628,-11.003511,1.9264991000000002,-1
1150,1151,1583933923984,3.613,-2.9129,0.3863,9.255428,-11.234198,1.8484098999999998,-1
1151,1152,1583933923995,3.8362,-3.1996,0.2875,9.860635,-11.169161,1.2861843000000002,-1
1152,1153,1583933924005,4.3528,-3.1876,-0.2871,10.115588,-11.247835,1.045318,-1
1153,1154,1583933924016,4.5235,-3.3293998,-0.51089996,10.220952,-11.372994,1.4514416,-1
1154,1155,1583933924026,4.6418,-3.5082,-0.1217,10.569577,-11.220369,1.3064966999999998,-1
1155,1156,1583933924036,4.6418,-3.5082,-0.1217,10.981743,-10.966172,0.74454886,-1
1156,1157,1583933924046,5.2032,-3.0716999,-1.5218999,11.280358,-10.602291000000001,-0.20283677,-1
1157,1158,1583933924056,4.9599,-3.0965,-2.1276,11.035269,-10.647656,-0.58979726,-1
1158,1159,1583933924066,4.5053997,-3.6074,-1.6326,10.821589999999999,-11.068366000000001,0.058677092,-1
1159,1160,1583933924077,4.6805,-4.2369,-0.62119997,11.235097999999999,-11.642686999999999,1.2054423,-1
1160,1161,1583933924087,5.1854,-5.0822,0.9903,11.891109,-12.349177000000001,2.7815068,-1
1161,1162,1583933924097,5.1854,-5.0822,0.9903,12.364213000000001,-12.616217,3.1270189999999998,-1
1162,1163,1583933924107,5.9059,-5.9606,0.39209998,12.782585000000001,-12.893896,1.6850104,-1
1163,1164,1583933924117,6.357,-5.9504,-0.6863,13.435303,-12.634126,0.84167683,-1
1164,1165,1583933924127,6.8332996,-5.579,-1.0232999,13.981055,-12.099031,0.5310531,-1
1165,1166,1583933924138,6.937999700000001,-5.2046,-1.1113,14.009912,-11.4320545,0.5964148,-1
1166,1167,1583933924148,6.102999700000001,-4.7735,-0.5870000000000001,13.267527,-10.926217,1.0416884,-1
1167,1168,1583933924158,4.4915,-4.3849,0.0686,11.767971000000001,-10.306837,1.6023530000000001,-1
1168,1169,1583933924168,2.7628999,-3.9726998999999994,0.61,10.070317999999999,-9.564051,2.0521276000000004,-1
1169,1170,1583933924178,1.6340000000000001,-3.6136,0.9892,9.440462,-9.006739,2.4384081,-1
1170,1171,1583933924189,1.2263,-3.3000998,1.4043,9.313932000000001,-8.493938,2.654557,-1
1171,1172,1583933924199,0.95879996,-3.1706998,1.5529,9.120913,-8.302154,2.7803864,-1
1172,1173,1583933924209,0.5221,-3.2415,1.7138,8.824932,-8.005215,2.8795831,-1
1173,1174,1583933924219,0.107099995,-3.0196998,1.661,8.533357,-7.466433,2.71129,-1
1174,1175,1583933924230,-0.4349,-2.6174998,1.5833,8.041817,-6.788433,2.6314096,-1
1175,1176,1583933924240,-1.1144999,-2.165,1.5574,7.3651004,-5.857807,2.5361397,-1
1176,1177,1583933924250,-1.8031,-1.6608,1.7315999,6.796171000000001,-5.093357599999999,3.0692422,-1
1177,1178,1583933924260,-2.5943,-1.2757,2.5497,5.9850154,-4.5782404,3.7807699999999995,-1
1178,1179,1583933924270,-3.5511,-1.0993,3.2638,5.2829120000000005,-4.0404644,4.171398600000001,-1
1179,1180,1583933924281,-4.2461,-0.9029,3.48,5.004466000000001,-3.6669402,3.7961410000000004,-1
1180,1181,1583933924291,-4.2257,-0.81229997,3.0942,5.7702465,-3.2660452999999996,3.5600629999999995,-1
1181,1182,1583933924301,-3.2561998,-0.58599997,3.0893998,6.8900237,-2.7408917,3.4144379999999996,-1
1182,1183,1583933924311,-2.293,-0.3455,2.5823,7.741584,-2.4534627999999996,2.0702853,-1
1183,1184,1583933924321,-1.5469998999999999,-0.3786,0.9776,8.460628999999999,-2.2600403,0.48859912,-1
1184,1185,1583933924332,-1.0217999,-0.226,-0.2137,8.60252,-1.5808626000000001,-0.053965304000000006,-1
1185,1186,1583933924341,-1.1998,0.10349999,-0.30429998,7.9238786999999995,-1.4317806,-0.12287043,-1
1186,1187,1583933924351,-2.3558,-0.1227,-0.21069999,6.5884220000000004,-1.616268,0.2947454,-1
1187,1188,1583933924362,-3.5946,-0.5171,0.4651,5.674526,-1.4625316000000002,0.7296951999999999,-1
1188,1189,1583933924372,-4.2468,-0.389,0.64809996,5.3333335,-0.9500384,-0.6635099,-1
1189,1190,1583933924382,-4.4592,-0.22819999,-0.9105,5.4649763,-0.7028897,-2.066847,-1
1190,1191,1583933924392,-4.1061997,-0.1095,-2.1471999,6.2073894,-0.16601394,-1.9110806,-1
1191,1192,1583933924402,-3.5226998,0.1393,-1.2186999,6.137086,0.0042425254,0.55248594,-1
1192,1193,1583933924412,-3.8665,-0.0021,1.4793999,5.119789599999999,-0.206792,2.6617012000000004,-1
1193,1194,1583933924423,-5.304199700000001,-0.4982,3.9747,3.4206053999999995,-0.36623624,4.559144,-1
1194,1195,1583933924433,-6.6299,-0.7284,5.138,2.3999,-0.3850834,4.232096,-1
1195,1196,1583933924443,-7.4431,-0.93539995,4.4358997,2.644118,-0.2652967,2.3231514,-1
1196,1197,1583933924453,-6.942199700000001,-0.83379996,2.4730000000000003,3.7218343999999997,0.1611585,0.09591172,-1
1197,1198,1583933924463,-5.8257,-0.581,0.2041,4.687253,0.2986144,-1.9681294999999999,-1
1198,1199,1583933924473,-4.9458,-0.5798,-1.6186999,5.169283,0.4424389,-2.293693,-1
1199,1200,1583933924484,-4.5495,-0.4563,-1.6119,5.1777678,0.71279216,-1.3641204,-1
1200,1201,1583933924494,-4.651799700000001,-0.2653,-0.62619996,4.6432,1.0192596,-0.12590627,-1
1201,1202,1583933924504,-5.2430997,-0.0298,0.5313,3.5793505,1.41369,1.0980096000000001,-1
1202,1203,1583933924514,-6.157099700000001,0.20879999,1.4569999999999999,2.5606754,1.44831,2.0352151000000003,-1
1203,1204,1583933924524,-7.169699700000001,0.177,2.3511,1.8174290000000002,1.3206034,2.8231754000000002,-1
1204,1205,1583933924535,-7.9094996,-0.0093,3.1039999,2.19804,1.1957601,2.3600986,-1
1205,1206,1583933924545,-7.5248,-0.14639999,2.6290998,3.3172910000000004,1.2574347,1.1872942,-1
1206,1207,1583933924555,-6.0653,-0.066199996,1.0562999,5.4887266,1.3608738,-1.6619016,-1
1207,1208,1583933924565,-4.2359,0.0632,-1.3824999,6.862146000000001,1.4615357,-3.7282796,-1
1208,1209,1583933924576,-2.8676999,0.1937,-3.4729,7.3732123,1.5566813,-4.128887000000001,-1
1209,1210,1583933924586,-2.2807999,0.2938,-2.8023999,7.4073443,1.5195423000000001,-2.6213446,-1
1210,1211,1583933924596,-2.2807999,0.2938,-2.8023999,6.811360400000001,1.3486251,-0.6800682,-1
1211,1212,1583933924606,-4.1717997,-0.14549999,1.5811,5.3137099999999995,1.1820365,1.6290148000000002,-1
1212,1213,1583933924616,-4.1717997,-0.14549999,1.5811,4.6178403,1.1233115,1.8785863999999999,-1
1213,1214,1583933924629,-5.1502,-0.076799996,1.6702,4.705545,1.4314548,1.2865865,-1
1214,1215,1583933924639,-3.9826,0.2339,0.67969996,5.9978776,1.7103508,0.21796812,-1
1215,1216,1583933924649,-2.6715,0.2642,-0.44889998,7.2631559999999995,1.6428245,-0.8969636999999999,-1
1216,1217,1583933924660,-1.7738999,0.1188,-1.2494999,8.180968,1.3898916000000001,-1.7321475,-1
1217,1218,1583933924670,-1.2386,-0.1858,-1.7358999,8.730093,0.9628713,-1.9294488,-1
1218,1219,1583933924680,-0.8689,-0.4694,-1.5242,8.980335,0.73496246,-1.3196936000000001,-1
1219,1220,1583933924691,-0.7229,-0.6379,-0.79819995,8.943972,0.6821751,-0.6763716,-1
1220,1221,1583933924700,-0.8886,-0.5951,-0.2943,8.603401,0.8141435,-0.44483310000000004,-1
1221,1222,1583933924710,-1.2197,-0.4637,-0.17899999,8.473186,0.9695655000000001,-0.42667547,-1
1222,1223,1583933924720,-1.3447,-0.2349,-0.325,8.293639,1.2294991000000002,-0.69767034,-1
1223,1224,1583933924731,-1.4411,-0.069,-0.3759,8.309594,1.4277103,-0.34427664,-1
1224,1225,1583933924740,-1.3033999,0.1152,0.1187,8.58192,1.5299811,-0.007891289000000001,-1
1225,1226,1583933924750,-0.78459996,0.1717,0.3162,9.15967,1.5112201,0.016567875,-1
1226,1227,1583933924760,-0.2864,0.0585,0.251,9.597598,1.3384928,-0.08991664,-1
1227,1228,1583933924770,0.035099998,-0.0712,-0.0405,9.791538000000001,1.2070319999999999,-0.5929958000000001,d
1228,1229,1583933924780,0.052899998,-0.1822,-0.4166,9.646957,1.0052296,-0.8233468,-1
1229,1230,1583933924790,-0.1541,-0.3461,-0.5467,9.54505,1.0319583,-0.8732324,-1
1230,1231,1583933924801,-0.1354,-0.13069999,-0.5463,9.635598,1.4726926000000002,-0.9347441999999999,-1
1231,1232,1583933924812,-0.0285,0.37649998,-0.6164,9.996758999999999,2.0490727,-0.7578989,-1
1232,1233,1583933924822,0.48079997,0.9587,-0.19759999,10.119352000000001,2.3314066,0.16203956,-1
1233,1234,1583933924832,0.2555,0.99619997,0.67719996,9.169447,1.9857414,1.1618295,-1
1234,1235,1583933924844,-0.7826,0.5872,1.5919,8.400286,1.5678573,1.3878613000000002,-1
1235,1236,1583933924854,-1.6935999,0.074099995,1.6672,7.544752000000001,0.98297304,1.0357987,-1
1236,1237,1583933924864,-2.1845,-0.3099,1.3876,7.966236599999999,0.87391233,0.4528776,-1
1237,1238,1583933924874,-1.7652999,-0.3949,0.81189996,8.946394999999999,0.96232545,-0.18723615,-1
1238,1239,1583933924884,-0.7787,-0.27449998,0.20089999,9.614099000000001,1.1564856000000001,-0.21272962,-1
1239,1240,1583933924895,-0.1249,-0.0502,0.1776,9.604282000000001,1.2245958000000001,0.08837477,-1
1240,1241,1583933924905,-0.2924,0.078499995,0.7812,8.770315,1.4644086,1.180715,-1
1241,1242,1583933924916,-0.9668,0.2574,1.6064999,7.853603999999999,1.8153412,2.05298,-1
1242,1243,1583933924926,-1.8745999,0.5923,2.5131,6.791909700000001,2.171407,2.7899346,-1
1243,1244,1583933924937,-3.9747999,1.1506,4.2338,5.531372,2.4143991000000002,3.8197667999999996,-1
1244,1245,1583933924947,-5.0527,1.3416,4.678999999999999,4.4587317,2.6680599999999997,4.118602,-1
1245,1246,1583933924957,-5.9378,1.768,4.6103997,3.681315,3.0558443,4.037486,-1
1246,1247,1583933924967,-6.3554997,2.1778,4.8252,3.3306123999999997,3.4305364999999997,4.335277,-1
1247,1248,1583933924977,-6.5396,2.4698,5.1815,3.1709093999999998,3.5675426,4.654548,-1
1248,1249,1583933924987,-6.606,2.4436,5.4974,3.1345272,3.4563080000000004,4.9329557,-1
1249,1250,1583933924997,-6.6119,2.458,5.6556997,3.1019566000000003,3.3720894,4.964291,-1
1250,1251,1583933925008,-6.8996997,2.4113998,5.5078998,2.7483616,3.2008467,4.7513027,-1
1251,1252,1583933925018,-7.4205,2.4982,5.8248997000000005,2.1442087000000005,3.3627712999999995,5.2953515,-1
1252,1253,1583933925028,-7.8321996,3.0839999,6.6884,1.7474991000000002,3.9655737999999996,6.060596,-1
1253,1254,1583933925038,-8.371099000000001,3.8114998,7.2360997000000005,1.0663296,4.3992023,6.0905523,-1
1254,1255,1583933925048,-9.066199000000001,3.9118,6.6085,0.5781997,3.97539,5.1329193,-1
1255,1256,1583933925059,-9.0428,3.0895,5.611399700000001,0.82579845,2.9208493,4.2493153,-1
1256,1257,1583933925069,-8.090799,1.4117998999999999,4.6559,2.2207465,0.42903137,3.0194810000000003,-1
1257,1258,1583933925079,-6.285,-0.6939,3.7273,4.424810400000001,-1.9964098999999997,1.9292957,-1
1258,1259,1583933925089,-3.6632998,-2.7588,2.7273998,7.004917,-4.0826216,0.7498831,-1
1259,1260,1583933925100,-1.3577,-3.9285997999999998,1.4985,9.008692,-5.0391626,-0.7159621,-1
1260,1261,1583933925110,0.2126,-4.0636,-0.0668,10.013672,-5.244662,-2.1742609,-1
1261,1262,1583933925120,1.0234,-4.1826,-1.9165,10.869858,-5.883454,-4.430671,-1
1262,1263,1583933925130,1.4889,-4.6015,-3.0417,11.239886,-6.651675999999999,-5.252697,-1
1263,1264,1583933925141,1.9666,-5.3444,-3.8458997999999998,11.789164,-7.581575,-6.0334935,-1
1264,1265,1583933925150,3.1574,-6.271,-5.0478997,13.21631,-8.607998,-7.428988,-1
1265,1266,1583933925160,4.8645997,-6.9827,-6.5697,15.028395000000002,-9.261691,-8.995227,-1
1266,1267,1583933925170,6.6805,-6.9848,-7.6874,16.782673000000003,-9.260418,-10.093409,-1
1267,1268,1583933925180,7.8033,-6.7682,-8.3839,17.295628,-9.130861999999999,-10.464912,-1
1268,1269,1583933925190,7.9722995999999995,-6.5076,-8.4628,17.121819,-9.095256,-10.196685,-1
1269,1270,1583933925201,7.9722995999999995,-6.5076,-8.4628,16.90834,-9.135603999999999,-9.972789,-1
1270,1271,1583933925211,6.6995997,-6.4494,-8.2584,15.760781,-9.244864999999999,-10.276651,-1
1271,1272,1583933925221,6.0097,-6.641,-9.4921,15.269701000000001,-9.647302,-11.796327999999999,-1
1272,1273,1583933925231,6.1724997,-6.8813,-10.3934,15.7209215,-9.783685,-12.415401,-1
1273,1274,1583933925241,6.6773,-6.8076,-10.9256,15.922801000000002,-9.519873,-12.613431,-1
1274,1275,1583933925252,6.6183,-6.337999999999999,-10.978399000000001,15.537726999999999,-8.9231615,-12.458257000000001,-1
1275,1276,1583933925262,6.0716,-5.7328,-10.849,14.82959,-8.276765,-12.218952,-1
1276,1277,1583933925272,5.4296,-5.2093997000000005,-10.6814995,14.163609,-7.825391000000001,-11.84628,-1
1277,1278,1583933925282,4.4284,-4.7290998,-10.1552,12.971239,-7.371728,-11.099978,-1
1278,1279,1583933925292,3.1768,-4.3399,-9.2967,11.440493,-6.8172690000000005,-9.921371,-1
1279,1280,1583933925302,1.8835,-3.9555998,-8.46,10.1404505,-6.439627,-9.4250145,-1
1280,1281,1583933925312,0.5015,-3.6741998,-8.0829,9.00307,-5.950491400000001,-9.327417,-1
1281,1282,1583933925323,-0.5464,-3.2122998,-8.0603,8.414968,-5.4783645,-9.134779,-1
1282,1283,1583933925333,-1.2204,-2.6926,-7.661299700000001,7.72878,-4.749042500000001,-8.300333,-1
1283,1284,1583933925343,-1.814,-2.1552,-7.035599700000001,7.1678185,-4.2645617,-7.470484,-1
1284,1285,1583933925353,-2.4055,-1.7789999,-6.2366,6.6033235,-4.0559597,-6.5296582999999995,-1
1285,1286,1583933925363,-2.9554,-1.6636,-5.4034,6.3319645,-4.146566,-6.00303,-1
1286,1287,1583933925374,-3.1685,-1.8851999,-5.0306997,6.3450940000000005,-4.551531,-6.015585,-1
1287,1288,1583933925384,-3.1130998,-2.3628,-5.1759,6.6446757,-5.109399,-6.0541887,-1
1288,1289,1583933925394,-2.8195,-2.9801998,-5.2151,6.846622,-5.679928,-5.8100667,-1
1289,1290,1583933925404,-2.6729,-3.5075,-4.9073997,6.608916000000001,-5.713006,-4.9802175,-1
1290,1291,1583933925414,-3.0679,-3.4419,-4.0011997,5.4548435,-5.318748,-3.184365,-1
1291,1292,1583933925424,-4.1033,-3.1497998,-2.5467,4.4972878,-4.9198933,-1.9728221999999997,-1
1292,1293,1583933925434,-5.3058,-2.6660000000000004,-1.1398,3.3880633999999996,-4.1852274,-0.8368309000000002,-1
1293,1294,1583933925444,-6.391,-1.9698,-0.2489,2.5530713,-3.4338405,0.04837245,-1
1294,1295,1583933925454,-7.1832,-1.2670000000000001,0.6052,1.8378276000000002,-2.9594247000000005,1.0566857,-1
1295,1296,1583933925464,-7.8573,-0.86139995,1.5004,1.6405357,-2.5306903999999997,2.2664185000000003,-1
1296,1297,1583933925475,-7.9635997000000005,-0.48369998,2.4152,2.1713111,-2.2806304,2.8969076,-1
1297,1298,1583933925485,-7.4308,-0.2214,3.0115,2.8239514999999997,-2.2443821,3.4449690000000004,-1
1298,1299,1583933925495,-6.7598996,-0.1151,3.4742,3.2051942,-2.2798643,4.4845023,-1
1299,1300,1583933925506,-6.3589997,-0.073,4.4288,2.5678867999999997,-2.4376900000000004,5.650536,-1
1300,1301,1583933925516,-8.284699,-0.0844,6.7985997000000005,0.8903366,-2.4233822999999997,7.4042125,-1
1301,1302,1583933925526,-8.9816,0.2013,7.607199700000001,0.55649865,-2.1622515,8.226151,-1
1302,1303,1583933925537,-8.4837,0.6961,8.314899,1.1464587,-1.8514169999999999,8.94988,-1
1303,1304,1583933925547,-7.2313,1.0789,9.0772,2.4452173999999998,-1.6622560000000002,9.772730000000001,-1
1304,1305,1583933925557,-6.0778,1.0325999,9.502399,3.457304,-1.9951648999999998,10.209786,-1
1305,1306,1583933925568,-5.3389,0.5379,10.0781,4.0124903,-2.887953,11.086677,-1
1306,1307,1583933925578,-5.3399,-0.098799996,10.928599,3.791927,-3.5683947,11.867799,-1
1307,1308,1583933925588,-5.6780996,-0.71209997,12.0225,3.4261985,-4.3301725,12.970309,-1
1308,1309,1583933925598,-5.3501997,-1.0047,12.601399,4.1688222999999995,-4.717429599999999,13.3624325,-1
1309,1310,1583933925608,-3.8820998999999996,-0.7276,12.0281,5.790415,-4.486217,12.474413,-1
1310,1311,1583933925619,-1.9509,-0.1486,10.7332,7.6187043,-4.2022166,11.238114,-1
1311,1312,1583933925629,-0.30769998,-0.0016999998999999999,9.3993,8.893444,-4.501099,10.035296,-1
1312,1313,1583933925639,0.59929997,-0.3344,8.4958,9.261576,-5.0152493,9.602646,-1
1313,1314,1583933925649,0.5198,-1.1132,8.7546,8.819175999999999,-6.326160400000001,10.20157,-1
1314,1315,1583933925660,0.19849999,-2.1222,9.4425,8.718697,-7.380452,10.830123,-1
1315,1316,1583933925670,0.75949997,-2.5795999,9.9409,9.475809,-7.691785,11.147959,-1
1316,1317,1583933925680,1.8442999,-2.4312,9.8653,10.558525,-7.6079016,10.715786,-1
1317,1318,1583933925690,2.6966999,-2.1608999,9.2862,11.214297,-7.398073700000001,10.14701,-1
1318,1319,1583933925700,3.3437,-1.7221999,8.7562,11.333337,-7.161009299999999,9.597339999999999,-1
1319,1320,1583933925710,3.3126,-1.5376999,8.182799000000001,10.955943,-7.524400999999999,9.167494,-1
1320,1321,1583933925721,3.0049,-1.9205999,7.8746996,10.752781,-7.9879856,9.094298,-1
