,Seq,Time,ACCx,ACCy,ACCz,ADGx,ADGy,ADGz,Keydown
0,1,1583934146009,0.5503,-0.3223,-0.45979998,6.1680093000000005,-7.691105,1.3413658000000002,-1
1,2,1583934146019,0.55329996,-0.19489999,-1.2177,9.11192,1.4414818,-0.19273323,-1
2,3,1583934146029,-0.6415,-0.098,0.009699999,9.083668,1.2681321,0.13507129,-1
3,4,1583934146040,-0.52309996,-0.4258,0.9440000000000001,9.265532499999999,0.81444037,1.3524271,-1
4,5,1583934146050,-0.34759998,-0.7933,1.6366,9.455067,0.6062885,1.523306,-1
5,6,1583934146060,-0.076,-0.8355,1.4254999,9.718544,0.715895,1.128234,-1
6,7,1583934146071,0.0962,-0.5841,0.79539996,9.836578,0.99084514,0.46404415,-1
7,8,1583934146081,0.1699,-0.3372,0.3362,10.000580000000001,1.2628361000000001,0.32119653,-1
8,9,1583934146091,0.332,-0.026099999,0.1894,9.991635,1.4173195,0.29752263,-1
9,10,1583934146101,0.15269999,0.053099997,0.1041,9.485932,1.3754402000000001,0.23680569,-1
10,11,1583934146111,-0.6013,-0.0416,-0.081999995,8.771914500000001,1.2422841999999998,0.15866853,-1
11,12,1583934146122,-1.3330000000000002,-0.14639999,-0.08779999599999999,8.314258,1.2885209999999998,0.26064235,-1
12,13,1583934146132,-1.3399,-0.068799995,-0.0022,8.705652,1.4105583000000002,0.38287115,-1
13,14,1583934146142,-0.7105,0.0569,0.2197,9.602003,1.5729331,0.82143146,-1
14,15,1583934146152,0.0067999995999999995,0.1854,0.6128,9.931158,1.5767063000000001,1.1894681,-1
15,16,1583934146163,0.20549999,0.152,0.92939997,9.741221000000001,1.5349131,1.4158734,-1
16,17,1583934146173,-0.18249999,0.061199997,1.2046,8.971802,1.4564216,1.6201276000000002,-1
17,18,1583934146183,-0.85389996,-0.014599998999999999,1.2183,8.47219,1.4943170000000001,1.275851,-1
18,19,1583934146193,-1.2897999,0.0069999998,0.75439996,8.267935000000001,1.5646011999999998,0.8472122,-1
19,20,1583934146203,-1.4514999,0.121,0.2613,8.31535,1.8769679,0.51627606,-1
20,21,1583934146213,-1.3491,0.3868,0.0138,8.544092,2.1493322999999998,0.49780244,-1
21,22,1583934146223,-1.0803,0.6458,0.0424,8.76432,2.400168,0.7482455,-1
22,23,1583934146233,-0.92929995,0.826,0.28059998,8.664050999999999,2.2689369999999998,1.0785208999999998,-1
23,24,1583934146244,-1.0526999,0.62229997,0.6409999999999999,8.476872,1.9329730999999999,1.6879506000000002,-1
24,25,1583934146254,-1.2056999,0.2516,1.2119,8.545739,1.5848371,1.9649693,-1
25,26,1583934146264,-1.0846,-0.1363,1.4216,8.644515,1.0633799,1.8915917000000002,-1
26,27,1583934146275,-1.0227,-0.5703,1.298,8.739181,1.0842094,1.6344928,-1
27,28,1583934146285,-0.9216,-0.5627,1.0264,8.418013,1.2408763999999999,1.6140941,-1
28,29,1583934146295,-1.2315999,-0.43019998,0.9866,7.736566000000001,1.1935383,1.8891497,-1
29,30,1583934146305,-2.0994,-0.4886,1.3337,6.623740700000001,1.2456553,2.4491632,-1
30,31,1583934146315,-3.0253,-0.46069998,1.7648,6.0043225,1.4048218000000001,2.39741,-1
31,32,1583934146325,-3.6378998999999994,-0.3215,1.6861,6.0141106,1.4299513000000001,2.0134279999999998,-1
32,33,1583934146336,-3.5470998,-0.3482,1.1787,6.624076400000001,1.1031619,1.746752,-1
33,34,1583934146346,-2.1237,-1.1738,1.7959,7.5893607,0.43556273,2.5832193,-1
34,35,1583934146356,-2.0241,-1.5712999,2.0425,7.551475,-0.01046745,2.626305,-1
35,36,1583934146366,-2.0241,-1.5712999,2.0425,6.9717910000000005,-0.30714732,2.1708229,-1
36,37,1583934146376,-2.483,-1.9215,1.7748,6.398733999999999,-0.25697446,1.8438226000000002,-1
37,38,1583934146386,-4.2098,-1.5553,1.1863999,5.2918367,0.17700812,1.6902202000000002,-1
38,39,1583934146396,-4.9286,-0.95229995,1.4427999,4.639206400000001,0.80235445,1.940625,-1
39,40,1583934146406,-5.2158,-0.0103,1.4317,4.456241,1.7677636000000003,1.8599883000000001,-1
40,41,1583934146417,-5.2158,-0.0103,1.4317,4.5814010000000005,2.2963459999999998,1.5683937,-1
41,42,1583934146427,-5.1798,0.42119998,0.9327,4.4721484,1.734963,1.3304003,-1
42,43,1583934146437,-5.3781,-0.7129,0.75799996,4.3097453,0.45134532,1.1140125,-1
43,44,1583934146447,-5.2750998,-2.0575,0.7125,4.537060299999999,-0.9878955,0.91186523,-1
44,45,1583934146457,-4.7798,-3.2439999999999998,-0.0187,5.042198,-2.1658044,-0.11699985,-1
45,46,1583934146468,-4.5178,-3.7321,-0.9472,5.200704,-2.5510697,-1.0333374,-1
46,47,1583934146478,-4.8315,-3.2384,-1.1956999,4.655889,-1.7348769,-1.1798243999999998,-1
47,48,1583934146488,-5.6629996,-1.9799999,-0.8885,3.880206,-0.68768173,-0.88658243,-1
48,49,1583934146498,-6.9058,-0.8017,-0.5286,2.3731902000000002,0.40746439,-0.40148845,-1
49,50,1583934146508,-6.9058,-0.8017,-0.5286,1.8589731,0.47858176,-0.12707464,-1
50,51,1583934146518,-7.7372,-0.80939996,0.2719,2.5077443,-0.49197972,0.41109398,-1
51,52,1583934146529,-6.3452997,-1.8478999,0.2068,4.1368837,-1.7052846000000002,-0.07410533,-1
52,53,1583934146539,-4.8345,-2.6188,-0.7937,5.311278,-2.4778647,-1.3602417,-1
53,54,1583934146549,-4.4289,-3.1697,-2.0866,5.238714,-3.1252758999999997,-2.5225406,-1
54,55,1583934146559,-4.9714,-3.2185,-2.9234998,4.7065887,-3.064741,-3.040981,-1
55,56,1583934146570,-5.6386,-2.4385998,-2.9939999999999998,4.0896797,-2.1146548,-2.859644,-1
56,57,1583934146580,-5.5083,-1.1942999,-2.7238,4.535298,-0.9959209000000001,-2.562035,-1
57,58,1583934146590,-4.8835,-0.16139999,-2.5751998,5.1586237,-0.56139237,-2.2734861,-1
58,59,1583934146600,-4.3714,-0.25869998,-2.292,5.6524997,-1.3985393999999998,-1.8619418999999997,-1
59,60,1583934146610,-3.9826,-0.9798,-2.0295,5.998155000000001,-2.6821954,-1.9197476000000002,-1
60,61,1583934146621,-3.5990998999999997,-2.4034998,-2.5091,6.584925999999999,-4.584303,-3.1284652000000004,-1
61,62,1583934146631,-2.7482998,-3.9422,-4.0954,7.6506232999999995,-5.87041,-5.1415386,-1
62,63,1583934146641,-1.6247,-4.588,-6.2306,8.458025,-6.330413,-6.906736,-1
63,64,1583934146651,-0.62979996,-4.7179,-8.1807995,9.652837,-6.473184,-8.42282,-1
64,65,1583934146662,0.5311,-4.3645997,-8.677899,10.896011,-6.372503,-7.8125005000000005,-1
65,66,1583934146672,1.7806,-4.1665,-7.6050997,11.796078,-6.637733,-6.160606400000001,-1
66,67,1583934146682,2.5289,-4.1383,-6.1714,11.978277,-6.7762036,-5.035446599999999,-1
67,68,1583934146692,2.3918,-4.0874,-5.4863,11.228442,-7.4924912,-4.3690734,-1
68,69,1583934146702,1.7895,-4.7105,-5.1217,10.857063,-8.80255,-4.690117,-1
69,70,1583934146713,1.7046,-5.7955,-5.8301,11.756297,-10.211912,-5.962673000000001,-1
70,71,1583934146723,2.9945,-6.9739,-7.2556996,13.367364000000002,-11.220378,-6.961150599999999,-1
71,72,1583934146733,5.2956,-7.7401,-8.603499000000001,15.665961,-11.644832000000001,-7.936578,-1
72,73,1583934146743,7.080899700000001,-7.6092997,-9.2593,16.6594,-11.043074,-7.1577244,-1
73,74,1583934146756,7.8989997,-6.6446,-8.167399000000001,15.17878,-10.017866,-4.695901,-1
74,75,1583934146766,4.0532,-5.2089,-5.2858996,12.268108999999999,-9.7146845,-3.5299919,-1
75,76,1583934146776,3.5802,-5.1877,-5.1917995999999995,12.30884,-9.938082000000001,-3.5014144999999997,-1
76,77,1583934146786,6.0744,-5.6004,-5.5078998,15.109175,-10.591498,-3.6707612999999997,-1
77,78,1583934146796,9.6428995,-6.1382,-5.920099700000001,18.374176000000002,-11.327783,-4.075276000000001,-1
78,79,1583934146807,11.7999,-6.411299700000001,-6.5662,20.021713000000002,-11.634862,-4.51082,-1
79,80,1583934146817,11.890599,-6.2221,-6.1615996,19.560934,-11.6039295,-3.7504787000000004,-1
80,81,1583934146827,10.2125,-6.121,-4.1703997,17.689808,-11.536307,-1.4620527,-1
81,82,1583934146837,8.3524,-5.6152,-1.464,15.811969,-11.060646,1.1994183999999999,-1
82,83,1583934146847,6.896,-5.1113,0.4904,14.503442000000001,-10.6745,2.8838542,-1
83,84,1583934146858,6.652199700000001,-4.9098997,0.74189997,14.607082,-10.536978,2.645612,-1
84,85,1583934146868,7.6466,-4.7785,-0.0736,15.858436,-10.61092,1.8452495,-1
85,86,1583934146878,9.1453,-4.9955997000000005,-0.6516,17.249294,-10.9187565,1.6563278000000001,-1
86,87,1583934146888,10.330299,-5.1212,-0.2287,17.981977,-11.044069,2.227029,-1
87,88,1583934146898,10.590199,-5.4804,0.98179996,17.859222,-11.735094,3.7955089,-1
88,89,1583934146908,9.839399,-6.2001,2.517,16.929697,-12.393164,5.2961655,-1
89,90,1583934146919,8.7675,-6.567199700000001,3.9278,15.8413315,-12.49191,6.3922696,-1
90,91,1583934146929,7.6576996,-6.3342,4.6812997,14.837604999999998,-12.096273,6.838050999999999,-1
91,92,1583934146939,6.8898997,-5.9269,4.7097,14.459245000000001,-11.703194,6.6478076,-1
92,93,1583934146950,6.8707,-5.4459,4.3803997,14.6324415,-11.1093445,6.403762,-1
93,94,1583934146960,7.040499700000001,-5.2116,4.4625,14.858856,-10.878860000000001,6.409479,-1
94,95,1583934146970,7.0611997,-5.0901,4.525,14.791244500000001,-10.597043,6.562736999999999,-1
95,96,1583934146980,6.6421,-4.8519,4.7198997,14.239342,-10.228900999999999,6.6253304,-1
96,97,1583934146990,5.9902997000000004,-4.782099700000001,4.9797,13.643502,-10.025327,7.038033500000001,-1
97,98,1583934147001,5.2272,-4.7612,5.382999999999999,13.012285,-10.07437,6.871301,-1
98,99,1583934147011,4.5975,-5.1085997,5.1236997,12.822617,-10.280702999999999,6.558944,-1
99,100,1583934147021,4.4237,-5.3855,5.086,12.772578,-10.250736,6.626863,-1
100,101,1583934147031,4.1703997,-5.52,5.2556996,12.46861,-10.077339,6.747435,-1
101,102,1583934147042,3.5723,-5.3389997000000005,5.5797,11.431135000000001,-9.378538,7.3426814,-1
102,103,1583934147053,1.989,-4.7567,6.1278,9.255505,-8.499914,7.578137,-1
103,104,1583934147062,0.1444,-4.2728,6.1215,8.346877000000001,-7.953806,7.2426710000000005,-1
104,105,1583934147072,-0.7637,-3.7698998,5.691,8.226208999999999,-6.820956,6.681344999999999,-1
105,106,1583934147083,-0.7061,-2.9277,5.1865997,8.437702999999999,-5.936701,6.085831,-1
106,107,1583934147093,-0.644,-2.2851,4.6177,8.268634,-5.3030324,5.743393,-1
107,108,1583934147103,-1.0178,-1.9627,4.4886,7.702433999999999,-5.078571299999999,6.1542954000000005,-1
108,109,1583934147113,-1.8175,-1.8957,5.218,7.038455,-4.988501,6.957243400000001,-1
109,110,1583934147123,-2.3559,-2.1362,5.8799996,6.7603827,-5.0095606,7.8801417,-1
110,111,1583934147134,-2.6232998,-2.2659,6.8687997,6.688987700000001,-4.300484,8.468129,-1
111,112,1583934147143,-2.7602,-1.6430999,7.143399700000001,6.45585,-3.3056934,7.250858999999999,-1
112,113,1583934147154,-3.1032999,-0.91889995,5.5982,5.906926599999999,-2.5182116000000003,5.344069,-1
113,114,1583934147164,-3.7691998,-0.40969998,3.8851998,5.252946,-1.6040288999999999,4.57214,-1
114,115,1583934147174,-4.343,0.1125,3.428,4.879114599999999,-0.9475005,4.257331,-1
115,116,1583934147184,-4.8812,0.7326,3.0574,4.2648773,0.11413638,3.5614517,-1
116,117,1583934147194,-5.5779,1.6025,2.4636,3.548542,1.1961623,3.299526,-1
117,118,1583934147204,-6.2760997000000005,2.4043999,2.4452999,3.1945164,1.4231901000000002,4.3542295,-1
118,119,1583934147215,-6.5452,2.3025,3.5333997999999998,3.6696792,0.71506184,5.7105255,-1
119,120,1583934147225,-6.0828,1.4548999,4.975,4.5935345000000005,-0.07338707,6.1162753,-1
120,121,1583934147235,-5.1842,0.5699,5.4460998,5.1471314,-0.103094324,5.272147,-1
121,122,1583934147245,-4.6351,0.4278,4.652199700000001,5.2687955,0.42771935,3.2917303999999996,-1
122,123,1583934147256,-4.515,0.8142,2.6957,4.995674,0.99930143,0.9765087,-1
123,124,1583934147265,-4.805,1.2796999,0.4089,4.57214,1.4872878,-0.33869335,-1
124,125,1583934147275,-5.2309,1.6624,-0.8552,4.261458999999999,1.8346863000000002,-0.26615859999999997,-1
125,126,1583934147285,-5.5481,1.9090999,-0.7377,4.0961823,2.0427232,0.22701820000000003,-1
126,127,1583934147295,-5.964299700000001,2.122,0.30539998,3.8456721,2.1898901,0.70068705,-1
127,128,1583934147306,-5.8582,1.7902,0.15529999,3.9480769999999996,1.8890060000000002,0.50418055,-1
128,129,1583934147317,-5.3108,1.3047999,-0.24129999,4.651656,1.2991418,-0.02567542,-1
129,130,1583934147327,-4.567199700000001,0.7468,-0.3195,5.384215,0.77122986,-0.09707051,-1
130,131,1583934147338,-4.567199700000001,0.7468,-0.3195,5.798029,0.501365,-0.018090586999999998,-1
131,132,1583934147348,-3.7649998999999994,0.33089998,-0.0075,6.093118700000001,0.4542184,0.20675367,-1
132,133,1583934147358,-3.6179997999999998,0.36519998,0.4883,6.225489,0.5006467,0.5951986,-1
133,134,1583934147368,-3.4413,0.5025,0.4935,6.4208946,0.6205388000000001,0.29029217,-1
134,135,1583934147378,-3.2740998,0.42200000000000004,-0.5915,6.5079575,0.52888876,-1.199926,-1
135,136,1583934147388,-3.391,0.3699,-1.63,6.391321,0.55443966,-2.0456060000000003,-1
136,137,1583934147399,-3.4487,0.4333,-2.1355999,6.3161726,0.6356605,-2.4925363,-1
137,138,1583934147409,-3.6725,0.4854,-2.4384,6.0096955,0.65947807,-2.8306456,-1
138,139,1583934147419,-3.9645,0.41059998,-2.6078,5.827755000000001,0.56306833,-2.9836445,-1
139,140,1583934147429,-3.8439,0.2031,-2.7122,6.185497,0.30098948,-3.116427,-1
140,141,1583934147439,-3.1638,-0.134,-2.519,7.021953999999999,-0.10522995,-2.8096435,-1
141,142,1583934147449,-2.1399999,-0.57409996,-1.8143,7.999985000000001,-0.53919333,-2.0653627,-1
142,143,1583934147460,-1.4786999,-0.84999996,-1.0669,8.412823,-0.65903753,-1.5312451999999999,-1
143,144,1583934147470,-1.4749,-0.7822,-0.7592,8.115635000000001,-0.45712972,-1.5083950000000002,-1
144,145,1583934147480,-2.0407,-0.55799997,-0.9784,7.370224,-0.18642212,-1.8184537,-1
145,146,1583934147490,-2.5874,-0.31939998,-1.1101,7.0699434000000005,0.12591586,-1.8339872,-1
146,147,1583934147500,-2.7419999,-0.018199998999999998,-1.0784999,7.0030779999999995,0.40522343,-1.8972421000000002,-1
147,148,1583934147511,-2.7693,0.1959,-1.2616999,7.103845,0.51947474,-2.1634102000000004,-1
148,149,1583934147521,-2.7693,0.1959,-1.2616999,7.8287807,0.51958007,-2.6399713,-1
149,150,1583934147531,-1.6078999,0.1938,-1.9435999,8.642866999999999,0.37085226,-2.9017437000000004,-1
150,151,1583934147541,-0.8605,-0.0401,-2.0204,9.230279,0.030885202999999996,-2.7590303,-1
151,152,1583934147551,-0.3777,-0.3723,-1.6257,9.523817999999999,-0.34946725,-2.2632868,-1
152,153,1583934147562,-0.13059999,-0.9061,-0.8951,9.54753,-0.927801,-1.328418,-1
153,154,1583934147572,-0.3164,-1.1651,-0.2992,9.130614,-0.90078485,-1.0800627,-1
154,155,1583934147582,-0.91539997,-1.0034,-0.1724,8.453035,-0.5374025,-1.2799209999999999,-1
155,156,1583934147592,-1.5453,-0.622,-0.5227,8.006229,-0.008379705999999999,-1.7502093,-1
156,157,1583934147602,-1.7541,-0.1792,-0.96889997,8.359461,0.41094077,-2.0940453999999997,-1
157,158,1583934147613,-1.286,0.22389999,-1.2832,9.095303999999999,0.6338505,-2.2020624,d
158,159,1583934147623,-0.5225,0.3831,-1.4054999,9.761381,0.53795797,-2.297725,-1
159,160,1583934147633,0.0462,0.2627,-1.479,9.918909,0.3249985,-2.1868925,-1
160,161,1583934147643,0.1161,0.0909,-1.2938,9.689055999999999,0.32332256,-1.9374837999999999,-1
161,162,1583934147654,-0.1567,0.1486,-1.0074999,9.356713000000001,0.5312925000000001,-1.4430428999999998,-1
162,163,1583934147664,-0.4692,0.3784,-0.442,9.083591,0.7709520999999999,-0.9326948,-1
163,164,1583934147674,-0.6940000000000001,0.5785,-0.0409,9.053291,0.7595653,-0.67864126,-1
164,165,1583934147684,-0.72349995,0.5764,0.2145,9.127042,0.6517975,-0.58973974,-1
165,166,1583934147694,-0.6263,0.4437,0.326,9.3183,0.50487965,-0.54860735,-1
166,167,1583934147704,-0.4118,0.3382,0.2958,9.647311,0.5538746,-0.8784613000000001,-1
167,168,1583934147715,-0.12879999,0.4262,-0.0095999995,10.082711,0.6364363000000001,-1.2459521,-1
168,169,1583934147725,0.3013,0.5499,-0.3929,10.210322,0.5042189,-1.5254321000000002,-1
169,170,1583934147735,0.43739998,0.4517,-0.68829995,10.368549,0.18405665,-1.5450454,-1
170,171,1583934147746,1.0043,-0.09219999599999999,-0.868,10.864991999999999,-0.21958661,-1.7351834,-1
171,172,1583934147756,1.2779,-0.4147,-1.0203999,11.066507000000001,-0.5137095,-1.8253297999999998,-1
172,173,1583934147766,1.2779,-0.4147,-1.0203999,11.186907000000001,-0.72226363,-1.6192178,-1
173,174,1583934147776,1.3636,-0.6207,-0.66929996,11.150687,-0.77091384,-1.4324988,-1
174,175,1583934147786,1.234,-0.45659998,-0.6228,10.968411999999999,-0.5590269,-1.3237542,-1
175,176,1583934147799,0.86859995,-0.1139,-0.59169996,10.566312,-0.25346935,-1.2809458,-1
176,177,1583934147809,0.3956,0.0875,-0.54899997,10.074743,-0.047520115999999994,-1.1409329,-1
177,178,1583934147819,0.2076,0.1722,-0.3412,10.0047655,-0.025148695,-0.91337836,-1
178,179,1583934147829,0.22639999,0.055999997999999995,0.0056,10.063117,-0.23398055,-0.43985316,-1
179,180,1583934147839,0.3541,-0.153,0.4845,10.21555,-0.45298296,0.014173673500000001,-1
180,181,1583934147850,0.5513,-0.3775,0.6806,10.436536,-0.783536,0.018607734,-1
181,182,1583934147860,0.69979995,-0.6383,0.5848,10.565477,-1.0620966,-0.24961947,-1
182,183,1583934147870,0.83809996,-0.8308,0.248,10.648652,-1.1439017,-0.5256805,-1
183,184,1583934147880,0.8874,-0.77239996,-0.1388,10.68855,-0.9727163000000001,-0.9915155999999999,-1
184,185,1583934147890,0.85749996,-0.5931,-0.4967,10.602665,-0.8703784999999999,-1.1690791,-1
185,186,1583934147901,0.6997,-0.4991,-0.5724,10.395317,-0.8054861,-1.1315763,-1
186,187,1583934147911,0.54219997,-0.4588,-0.4951,10.322792,-0.74293995,-0.918818,-1
187,188,1583934147921,0.54219997,-0.3906,-0.13239999,10.376653,-0.6583767,-0.40724415,-1
188,189,1583934147932,0.5721,-0.3223,0.37669998,10.273041000000001,-0.6822517,-0.10452127,-1
189,190,1583934147942,0.38639998,-0.3707,0.4949,10.048761,-0.7176093000000001,-0.22701820000000003,-1
190,191,1583934147952,0.24939999,-0.3687,0.361,10.015203999999999,-0.6897408,-0.40100005,-1
191,192,1583934147962,0.2198,-0.3642,0.18899999999999997,9.989308,-0.7583873000000001,-0.47989380000000004,-1
192,193,1583934147972,0.1898,-0.44739997,0.078,10.002112,-0.6744849,-0.5992111999999999,-1
193,194,1583934147982,0.24769999,-0.22749999,-0.096599996,10.056576,-0.43019974,-0.8869751,-1
194,195,1583934147993,0.2564,-0.028999999999999998,-0.4517,10.008184,-0.3143491,-1.1663401000000002,-1
195,196,1583934148003,0.19649999,0.0296,-0.65669996,10.001911999999999,-0.22482511,-1.2671743999999998,-1
196,197,1583934148013,0.2057,0.1459,-0.74509996,9.862627,-0.1479425,-1.1825538,-1
197,198,1583934148023,0.019199999,0.18259999,-0.6096,9.674951,-0.24466826,-0.78917676,-1
198,199,1583934148034,-0.16679999,0.060999997,-0.1422,9.456847,-0.38917270000000004,-0.18355866,-1
199,200,1583934148044,-0.3823,-0.0795,0.4633,9.354108,-0.5518156,0.24893951,-1
200,201,1583934148054,-0.4312,-0.23699999,0.8186,9.41041,-0.5784583000000001,0.48111004,-1
201,202,1583934148064,-0.3627,-0.2346,1.0196,9.482773,-0.43750682,0.46480075,-1
202,203,1583934148074,-0.29459998,-0.072299995,0.9087,9.661916,-0.30008924,-0.023060951,-1
203,204,1583934148084,-0.0991,0.0625,0.371,9.871906,-0.20027976,-0.63879216,-1
204,205,1583934148095,0.0668,0.159,-0.1472,9.915194,-0.2326781,-0.94956917,-1
205,206,1583934148105,0.1153,0.1269,-0.4784,9.9812355,-0.29674694,-0.98128754,-1
206,207,1583934148116,0.18349999,0.0725,-0.52169997,10.051299,-0.29228416,-0.6612019,-1
207,208,1583934148126,0.2518,0.0736,-0.21579999,10.003779,-0.31455022,-0.22006544,-1
208,209,1583934148136,0.2025,0.0515,0.23249999,9.851948,-0.3145598,0.26735570000000003,-1
209,210,1583934148146,0.0455,0.045599997,0.6954,9.605029,-0.27756462,0.42300758,-1
210,211,1583934148156,-0.3274,0.0826,0.5015,9.480722,-0.24095245,-0.008226477,-1
211,212,1583934148167,-0.18069999,0.2199,0.14899999,9.67291,-0.11624328,-0.34964922,-1
212,213,1583934148177,-0.0143,0.27339998,-0.117599994,9.796364,-0.09613199,-0.5853248000000001,-1
213,214,1583934148187,0.0931,0.2306,-0.32619998,9.939039999999999,-0.13017754,-0.7788242,-1
214,215,1583934148198,0.0931,0.2306,-0.32619998,10.048311,-0.15115075,-0.91207594,-1
215,216,1583934148208,0.2888,0.2703,-0.3969,10.066075999999999,-0.09548077,-0.5925074,-1
216,217,1583934148218,0.2101,0.2321,0.1566,9.976802000000001,-0.15567099,0.026920404,-1
217,218,1583934148228,0.08249999599999999,0.22049999,0.6635,9.854563,-0.1365557,0.3459717,-1
218,219,1583934148238,-0.0058999998,0.2464,0.8192,9.735092,-0.12075396,0.43705672,-1
219,220,1583934148248,-0.1432,0.2519,0.6936,9.602922,-0.11236468,0.14962804,-1
220,221,1583934148258,-0.3002,0.24859999,0.26459998,9.38711,-0.100728855,-0.28214229999999996,-1
221,222,1583934148269,-0.506,0.2677,-0.0761,9.275501,-0.061320294000000004,-0.55581874,-1
222,223,1583934148279,-0.5351,0.3208,-0.24849999,9.276803999999998,-0.034035973,-0.6624085999999999,-1
223,224,1583934148290,-0.456,0.40829998,-0.43539998,9.399560000000001,0.07807013,-0.91008395,-1
224,225,1583934148300,-0.456,0.40829998,-0.43539998,9.610958,0.019709067,-0.9059275999999999,d
225,226,1583934148310,0.46879998,0.2728,-0.3915,10.817155999999999,-0.37090972,-0.78170687,-1
226,227,1583934148321,1.3826,-0.1391,-0.204,11.702303,-0.777857,-0.5171763,-1
227,228,1583934148331,2.1288,-0.3911,0.0778,12.022015,-0.7730399,-0.23756227,-1
228,229,1583934148341,2.1283,-0.2443,0.3533,11.59079,-0.5120336,0.13590446,-1
229,230,1583934148351,1.4698,0.016099999,0.7743,10.817950999999999,-0.2107089,0.60973614,-1
230,231,1583934148361,0.74219996,0.3103,1.1419,10.225176,-0.011549628999999999,0.80612767,-1
231,232,1583934148371,0.33859998,0.3463,1.1084,10.257344999999999,-0.089140914,0.30827740000000003,-1
232,233,1583934148382,0.7008,0.2602,0.305,11.0927,-0.25170723,-0.77228326,-1
233,234,1583934148392,1.7308999,0.0055,-0.9223,12.542236,-0.8068364,-2.2047915000000002,-1
234,235,1583934148402,2.987,-0.47419998,-1.9819,13.609312,-1.3418063999999998,-2.4263605999999998,-1
235,236,1583934148412,3.9687,-0.9853,-2.0001,14.070158,-1.9018772000000002,-1.7511861,-1
236,237,1583934148422,4.2927,-1.5106,-1.2020998999999999,14.029801,-2.2641007999999996,-0.52637005,-1
237,238,1583934148432,4.1647,-1.8211,0.085099995,13.529931,-2.3762833999999997,0.64878076,-1
238,239,1583934148443,3.6237,-1.9648,1.1019,13.047239999999999,-2.4106355,0.89161986,-1
239,240,1583934148453,3.1899,-1.9745,1.1208,12.809755000000001,-2.247303,0.44626004,-1
240,241,1583934148463,2.9522,-1.8623999,0.57839996,12.5938835,-2.1040437,-0.26733655,-1
241,242,1583934148474,2.7735,-1.7430999,-0.1282,12.591269500000001,-2.0442078,-0.7457842,-1
242,243,1583934148484,2.8012,-1.7816999,-0.534,12.654380999999999,-2.076405,-0.65944934,-1
243,244,1583934148495,2.8391,-1.8513998999999999,-0.34469998,12.492877,-2.1062846,-0.22808124,-1
244,245,1583934148505,2.6125,-1.9550999,0.115499996,11.90896,-2.3042085,0.23719835,-1
245,246,1583934148515,2.0921,-2.2034,0.4646,11.252087,-2.5626482999999998,0.49470909999999996,-1
246,247,1583934148525,1.4348999,-2.5279,0.7277,10.729271,-2.6418962,0.6166027,-1
247,248,1583934148535,0.91539997,-2.6831,0.8617,10.432964,-2.3587482000000004,0.5586821999999999,-1
248,249,1583934148545,0.6221,-2.4912999,0.8066,10.028114,-1.9202935,0.59353215,-1
249,250,1583934148555,0.2218,-2.1390998,0.84129995,9.455909,-1.6205298000000001,0.7693814999999999,-1
250,251,1583934148566,-0.35349998,-1.9405999,1.044,8.936109,-1.4495837999999999,0.78141,-1
251,252,1583934148576,-0.8588,-1.8633,1.0849999,8.587159,-1.2603748,0.7419151999999999,-1
252,253,1583934148586,-1.2055,-1.7673,1.0888,8.188725,-1.0395815000000002,0.6710851,-1
253,254,1583934148596,-1.9528999,-1.3277,0.97639996,7.727477599999999,-0.5167454,0.53088075,-1
254,255,1583934148606,-2.4515998,-0.9758,0.9867,7.208894,-0.074756555,0.46821007,-1
255,256,1583934148616,-2.9685,-0.6853,0.8444,6.696314,0.37543955,0.24767539,-1
256,257,1583934148627,-3.3371,-0.3171,0.5017,6.2977276,0.88363284,-0.2991124,-1
257,258,1583934148637,-3.5869999999999997,0.022799998999999998,-0.2103,6.1109029999999995,1.3409444,-1.0829262,-1
258,259,1583934148647,-3.5809998999999997,0.42159998,-0.7816,6.1260247,1.8237113,-1.4732671999999998,-1
259,260,1583934148657,-3.7008,0.866,-0.601,5.9212245999999995,2.3800950000000003,-1.1515152,-1
260,261,1583934148668,-4.2008,1.2940999,0.2631,5.128830000000001,3.054513,-0.21341914,-1
261,262,1583934148678,-5.1502,1.7389,0.6511,4.0771146,3.6343887,-0.111272916,-1
262,263,1583934148689,-6.0014997,2.2677999,0.42279997,3.4004846,4.3537025,-0.49729487,-1
263,264,1583934148699,-6.374,2.9099,-0.0039999996999999995,3.1794999,5.057694000000001,-0.81453615,-1
264,265,1583934148709,-6.4839997,3.4238,-0.2109,3.1009797999999997,5.504805999999999,-1.0649984,-1
265,266,1583934148719,-6.4009,3.5649998,-0.4617,3.2662560000000003,5.5908155,-1.259417,-1
266,267,1583934148729,-6.1345997,3.4598,-0.42339998,3.5478525000000003,5.447824,-1.1421204,-1
267,268,1583934148739,-5.8612,3.1629,-0.3443,3.8004217000000002,5.084221400000001,-1.158085,-1
268,269,1583934148749,-5.6882997,2.7484,-0.46609998,3.8563504,4.737675,-1.3648291000000001,-1
269,270,1583934148759,-5.7721995999999995,2.4175,-0.627,3.75294,4.519956,-1.4358218999999999,-1
270,271,1583934148769,-6.0337996,2.2753,-0.3539,3.3147626000000003,4.396913,-0.9217964,-1
271,272,1583934148779,-6.6396,2.1462998,0.319,2.6485043,4.2117167,-0.1710705,-1
272,273,1583934148790,-7.2075,1.8189,1.0353,2.05547,3.7482089999999997,0.43395385,-1
273,274,1583934148800,-7.5432997,1.3895,1.2643,2.1380987,3.1319892000000005,0.5458588000000001,-1
274,275,1583934148811,-7.1682,0.7373,1.4153999,2.8278107999999995,2.5867817000000004,0.58569837,-1
275,276,1583934148821,-6.3859,0.4112,1.3300999,3.6446357000000003,2.448732,0.2667811,-1
276,277,1583934148831,-5.6267,0.47419998,0.7504,4.3822894,2.5889556000000002,-0.7408043000000001,-1
277,278,1583934148841,-4.9862,0.77089995,-0.42729998,4.756321400000001,2.9102382999999996,-1.9600849999999999,-1
278,279,1583934148851,-4.9432,1.2239,-1.6067,4.333697,3.1385207000000004,-3.1950812,-1
279,280,1583934148861,-5.6148996,1.2791,-2.8314998,3.5887455999999998,2.8203504,-3.8360282999999997,-1
280,281,1583934148872,-6.2566,0.98789996,-2.7496998,3.1542459,2.4434838,-2.5910242,-1
281,282,1583934148882,-6.6239996,0.64379996,-1.0472,2.8763459,1.8247743000000003,-0.7986578000000001,-1
282,283,1583934148892,-6.865,0.028099999,0.4908,2.6457843999999997,1.227354,0.34059912,-1
283,284,1583934148902,-7.127999999999999,-0.35259998,1.3457999,2.5749927,0.9071343000000001,1.0208205,-1
284,285,1583934148912,-7.0803,-0.35689998,1.7822,2.9038699,1.0815375,1.265393,-1
285,286,1583934148923,-6.7606997,-0.0426,1.9251,3.2605772,0.8850598,1.2357336,-1
286,287,1583934148933,-6.4227,-0.13759999,1.6601,3.767803,0.38133886,0.34876814,-1
287,288,1583934148943,-5.8666,-0.4349,0.5294,4.5921072999999994,0.14415011,-0.7773876999999999,-1
288,289,1583934148953,-5.0502996,-0.4592,-0.6509,5.0519857,-0.29951462,-1.56621,-1
289,290,1583934148963,-4.7867,-0.7579,-1.3995999,4.713925,-1.1512376,-1.5681924999999999,-1
290,291,1583934148974,-5.1842,-1.4548999,-1.2242,4.533832599999999,-1.7658194999999999,-0.7244854000000001,-1
291,292,1583934148984,-5.2829,-1.7622,-0.2597,4.3831515,-1.8235006,0.58498967,-1
292,293,1583934148994,-5.5443,-1.5358,1.1185,3.580337,-1.8666729,2.0641851000000004,-1
293,294,1583934149004,-6.312,-1.4466,2.4043,3.1926296,-2.5873084,3.0134380000000003,-1
294,295,1583934149014,-6.5945,-1.8969999999999998,3.1557999,4.1752386,-2.9026725,2.6501992000000003,-1
295,296,1583934149024,-5.6036997,-1.9566,2.6724,5.3253846,-3.2518623,1.2059593000000002,-1
296,297,1583934149035,-4.4151998,-2.03,1.0926,6.019109200000001,-4.0090330000000005,-0.30809546,-1
297,298,1583934149045,-3.6762,-2.4943,-0.52239996,6.186167,-4.858266,-0.86742884,-1
298,299,1583934149055,-3.4673998,-3.0547,-1.1403999,6.2326239999999995,-5.5499606,-0.120361306,-1
299,300,1583934149065,-3.359,-3.4517,-0.4195,6.0488550000000005,-5.704061,1.6959664,-1
300,301,1583934149076,-3.4685,-3.3225,1.3721,5.2716400000000005,-6.303588400000001,3.0260507999999997,-1
301,302,1583934149086,-3.8234,-3.9355998,2.3824,5.8032002,-6.9241850000000005,2.5811124,-1
302,303,1583934149096,-2.0788,-3.9508997999999997,1.2681,7.5341125,-7.3605614,1.5793495000000002,-1
303,304,1583934149106,-2.0788,-3.9508997999999997,1.2681,8.828456,-8.160829,1.0015711999999999,-1
304,305,1583934149117,0.89879996,-5.0691,-0.28039998,10.056509,-9.115195,0.21913649,-1
305,306,1583934149127,1.8199999,-5.3694,-0.3141,10.775352999999999,-9.699294,0.44051394,-1
306,307,1583934149137,2.2463,-5.5276,0.6990000000000001,10.907169,-10.16445,1.5983882,-1
307,308,1583934149147,2.1589,-5.8181,1.7794,10.677219000000001,-10.784767,2.5852685,-1
308,309,1583934149158,2.8065,-6.0985,2.2038,11.413753,-11.247223,2.8479028,-1
309,310,1583934149168,4.2715,-5.9702,1.3795998999999999,12.880336,-11.516053,1.5745803,-1
310,311,1583934149179,5.3556,-6.454799700000001,-0.0191,13.553346,-12.642389999999999,0.67054886,-1
311,312,1583934149189,6.0522,-7.4314,0.1125,14.012085,-13.732672,1.521544,-1
312,313,1583934149199,6.4052997000000005,-8.0619,1.2942,13.89904,-14.446593,2.5973449,-1
313,314,1583934149209,6.45,-8.2733,1.8587999,13.866929,-14.589432,2.9134848,-1
314,315,1583934149219,6.6865997,-7.6919,1.7292999,13.964019,-14.131776,2.7678697,-1
315,316,1583934149230,7.0358996,-7.4536996,1.2622,14.181834,-14.282993,2.070046,-1
316,317,1583934149240,7.652,-7.3619,0.33249998,14.774436999999999,-14.132379,1.4961079,-1
317,318,1583934149250,8.4230995,-6.7868,0.1761,15.178415,-13.664398,1.7631762999999998,-1
318,319,1583934149260,8.3537,-6.2395,0.7096,14.254091,-13.132264000000001,2.4226642000000003,-1
319,320,1583934149270,7.2657,-5.6917995999999995,1.0689,12.890459,-12.718103999999999,2.6953156000000003,-1
320,321,1583934149280,6.0859,-5.179199700000001,1.3104,11.724148,-12.298631,2.9872072,-1
321,322,1583934149291,5.1858997,-4.6851,1.4452,11.039138000000001,-11.886646,2.925025,-1
322,323,1583934149301,4.9245996,-4.1562,1.1466,11.213703,-11.408629,2.407906,-1
323,324,1583934149311,5.4501,-3.6889,0.40919998,11.781042999999999,-11.172102,1.7790067999999999,-1
324,325,1583934149321,6.1099,-3.4124,-0.138,12.117467,-10.961795,1.5036161,-1
325,326,1583934149331,6.3258,-3.1439998,-0.3646,11.846175,-10.722633,1.5056463,-1
326,327,1583934149341,5.8754,-2.8669999,-0.1979,11.096646,-10.541603,2.0824766,-1
327,328,1583934149352,5.0822,-2.5421999,0.55439997,10.130758,-10.106241,2.765772,-1
328,329,1583934149362,4.127,-2.0795999,1.0005,9.147143,-9.726301,2.905814,-1
329,330,1583934149372,3.3121998,-1.7213999,0.9618,8.493594,-9.4537735,2.6514729999999997,-1
330,331,1583934149382,2.8687,-1.4930999,0.67219996,8.273988000000001,-9.393411,2.4335144,-1
331,332,1583934149392,2.8683999,-1.4409,0.4094,8.493459,-9.364853,2.233474,-1
332,333,1583934149402,3.1141,-1.4274,0.32439998,8.681624000000001,-9.4240465,2.4397106,-1
333,334,1583934149413,3.2877,-1.4454,0.536,8.513906,-9.25222,2.4957828999999996,-1
334,335,1583934149423,3.0616,-1.2139,0.5111,7.9827666,-9.103052,2.3534813,-1
335,336,1583934149433,2.5433,-1.0768,0.36519998,7.578050599999999,-8.917722,2.4424403,-1
336,337,1583934149443,2.1871998,-0.8743,0.49319997,7.2401905,-8.785839,2.6940227,-1
337,338,1583934149454,1.8247,-0.7831,0.733,6.8654020000000004,-8.843931,2.8199193,-1
338,339,1583934149464,1.5185,-0.84129995,0.7741,6.762327,-8.873428,2.4777403,-1
339,340,1583934149474,1.4758999,-0.8718,0.33159998,6.930591000000001,-8.821444999999999,1.8983433,-1
340,341,1583934149484,1.6771,-0.7859,-0.2893,7.003576299999999,-8.651591999999999,1.3537965,-1
341,342,1583934149494,1.7081,-0.6433,-0.7321,6.830763,-8.490826,1.4467586000000001,d
342,343,1583934149504,1.537,-0.4931,-0.6487,6.6006417,-8.425367999999999,1.8319091,-1
343,344,1583934149515,1.2332,-0.433,-0.1863,6.318442,-8.498486999999999,2.2332827999999996,-1
344,345,1583934149525,0.9956,-0.5215,0.119799994,6.2730955999999995,-8.61541,2.3635175,-1
345,346,1583934149535,0.9436,-0.6407,0.2365,6.280355,-8.658755000000001,2.2765793999999997,-1
346,347,1583934149545,0.92899996,-0.70309997,0.13499999,6.2707205,-8.571183999999999,2.0059483,-1
347,348,1583934149556,0.988,-0.6666,-0.19029999,6.3885635999999995,-8.601600999999999,2.0102005000000003,-1
348,349,1583934149566,1.0827,-0.6839,0.1273,6.5380282,-8.567919,2.3503015,-1
349,350,1583934149577,1.2267,-0.6829,0.086899996,6.675925,-8.578616,2.2171075,-1
350,351,1583934149587,1.2267,-0.6829,0.086899996,6.653113,-8.659291,2.093739,-1
351,352,1583934149598,1.0557,-1.069,0.050899997,6.5274177,-8.991137,2.3800950000000003,-1
352,353,1583934149608,1.1508,-1.5131999,0.6942,6.696573,-9.417688,3.0903400000000003,-1
353,354,1583934149618,1.5787,-1.8691,1.0455999,7.419717299999999,-9.780266000000001,3.2366638,-1
354,355,1583934149628,2.5442998,-2.0888,0.5744,8.315704,-9.86416,2.7034562,-1
355,356,1583934149638,3.5814998,-1.9688,-0.2447,9.341763499999999,-9.679451,1.9194506000000002,-1
356,357,1583934149648,4.1917,-1.9429,-0.7219,9.936233999999999,-9.683636,1.5216205,-1
357,358,1583934149658,4.2388997,-2.0337,-0.5112,9.791758,-9.739459,2.126961,-1
358,359,1583934149669,3.6532998,-2.2221,0.657,9.151147,-10.011775,3.3879104,-1
359,360,1583934149679,2.8846,-2.6741,1.946,8.699342,-10.241867999999998,4.33022,-1
360,361,1583934149689,2.8077998,-2.5741,2.4991999,9.032164,-9.8733425,4.3910904,-1
361,362,1583934149699,3.2642999,-2.165,1.8884,9.613927,-9.473482,3.296222,-1
362,363,1583934149710,3.7542,-2.065,0.4824,10.225319,-9.35857,1.7781258000000002,-1
363,364,1583934149719,4.2531,-2.0391,-0.6667,10.728341,-9.301043,1.046946,-1
364,365,1583934149729,4.6974,-2.2347,-0.8362,11.324507,-9.476921,1.0458927,-1
365,366,1583934149739,4.888,-2.5068,-0.40299999999999997,11.4840765,-9.62743,1.5914832,-1
366,367,1583934149749,4.6186,-2.7305999,0.58849996,11.160763000000001,-9.75597,2.6095745999999997,-1
367,368,1583934149759,3.9903,-2.9463,1.4113,10.611035000000001,-9.785189,3.0877445,-1
368,369,1583934149770,3.3421,-2.9362,1.6492,10.265293,-9.541889,3.0369873,-1
369,370,1583934149780,3.0909,-2.6668,1.2867,10.332838,-8.947754,2.3249326,-1
370,371,1583934149790,3.2198,-2.2819998,0.6181,10.625477,-8.556744,1.7747068,-1
371,372,1583934149800,3.5117998,-1.8986,0.0232,11.025729,-7.9632106,1.2738781000000001,-1
372,373,1583934149810,3.5709998999999994,-1.6457,-0.1734,11.055456,-7.670754,1.370058,-1
373,374,1583934149820,3.4125,-1.5364,0.0786,10.92683,-7.4884405,1.7241987,-1
374,375,1583934149831,3.1633,-1.5806999,0.5189,10.924876,-7.493057,2.274463,-1
375,376,1583934149841,3.2069,-1.7487999,1.1758,11.403066,-7.434408,2.9707925,-1
376,377,1583934149851,3.6422,-1.796,1.8185999,11.830239,-7.260062700000001,3.4027543,-1
377,378,1583934149861,3.7942998,-1.7236999,2.2398999,11.888946,-6.845683599999999,3.7604480000000002,-1
378,379,1583934149871,3.5648,-1.4746,2.5047,11.630582,-6.472494599999999,3.7669315,-1
379,380,1583934149881,3.1917999,-1.2616,2.5033,11.339657,-5.970076000000001,3.8944373,-1
380,381,1583934149892,2.6956,-0.99189997,2.7196999,10.605145,-5.8878207,3.9019647000000006,-1
381,382,1583934149902,1.8693,-1.3302,2.5709,9.798461999999999,-6.4313139999999995,3.2800276,-1
382,383,1583934149912,1.0267,-2.1274,1.9465,9.532256,-7.1681729999999995,2.5284111,-1
383,384,1583934149922,0.78779995,-3.0179,1.2839999,9.858595,-7.578625,1.7547296000000001,-1
384,385,1583934149932,1.0943999,-3.5031,0.55,10.279084,-7.533384299999999,1.1085058,-1
385,386,1583934149942,1.474,-3.5217998,-0.0332,10.479142999999999,-6.999984700000001,1.0595396000000001,-1
386,387,1583934149952,1.3738999,-3.1506998999999998,0.3084,10.064793,-6.4045467,1.7267941000000002,-1
387,388,1583934149962,0.5283,-2.6188998,1.2954999,8.637035000000001,-5.494367,2.7851365,-1
388,389,1583934149973,-0.87399995,-2.0697,2.1445,7.2993369999999995,-4.7812395,3.1140904,-1
389,390,1583934149983,-2.2214,-1.6499,2.3974,6.578940400000001,-4.311823400000001,2.8821976,-1
390,391,1583934149993,-2.8731,-1.3968999,2.1749,6.377416,-3.8423681000000003,2.3532321,-1
391,392,1583934150003,-3.0928,-1.1273999,1.6947,6.338678,-3.4354782,1.8765465000000001,-1
392,393,1583934150014,-3.1269999,-0.9503,1.3578,6.523836,-3.2094848,1.7001226999999999,-1
393,394,1583934150024,-2.9863,-0.91539997,1.3031,6.693422,-3.2173665000000002,1.8220258000000003,-1
394,395,1583934150034,-2.8973,-1.1132,1.5073,6.8147216,-3.2546009999999996,1.9287593,-1
395,396,1583934150045,-2.8023999,-1.3015,1.6574999,6.6518006,-3.0351486,1.9519256,-1
396,397,1583934150055,-2.997,-1.217,1.6909,6.1983104,-2.8230414,1.802154,-1
397,398,1583934150065,-3.4715998,-1.1441,1.5277,5.6940246,-2.5725505,1.3276902,-1
398,399,1583934150076,-3.9908997999999998,-1.0116999,1.0051,5.6147475,-2.2649147999999997,0.9553918,-1
399,400,1583934150086,-3.9483998,-0.4025,0.213,5.8129683,-1.6478331999999998,0.58535355,-1
400,401,1583934150096,-3.8885998999999996,0.0028,0.188,5.7966690000000005,-1.2002708,0.7761427,-1
401,402,1583934150107,-4.2293,0.3778,0.77059996,5.41962,-0.7154066,1.4145518999999998,-1
402,403,1583934150117,-4.2293,0.3778,0.77059996,5.2020349999999995,-0.55802137,1.6616526000000003,-1
403,404,1583934150127,-4.4165,0.243,0.8538,5.405916,-0.90380156,1.3995928999999998,-1
404,405,1583934150137,-3.7143998,-0.0011999999,0.5509,6.3356900000000005,-0.9867942,1.0642897,-1
405,406,1583934150148,-2.8371,0.0383,-0.3755,7.080143,-0.9004688,-0.26953920000000003,-1
406,407,1583934150158,-2.4724998,0.1811,-1.7328,7.2585874000000015,-0.6293207,-1.3666965,-1
407,408,1583934150168,-2.8176,0.32099998,-1.5974,6.8216076,-0.51616114,-0.92994624,-1
408,409,1583934150178,-3.6938998999999995,0.0958,-0.45459998,5.914894599999999,-0.62959844,0.14756902,-1
409,410,1583934150188,-4.569,0.1806,0.7152,4.9184756,-0.18580921,1.2327743999999998,-1
410,411,1583934150199,-5.2644,0.6669,1.2573,4.457046,0.35512713,1.3664666,-1
411,412,1583934150208,-5.711,1.1542,1.1985999,4.043586299999999,0.88372856,1.1855223999999998,-1
412,413,1583934150218,-5.9877996,1.0523,1.2928,3.8446665,0.70550424,1.160393,-1
413,414,1583934150228,-5.5369,0.5604,0.963,4.655362,0.33049559999999994,0.47795925,-1
414,415,1583934150238,-4.4961,0.5397,0.40129998,5.6813927,0.44530237,-0.08375875,-1
415,416,1583934150249,-3.6701998999999996,0.45189998,-0.047199998,6.238686599999999,0.30770278,-0.50385493,-1
416,417,1583934150259,-3.432,0.2182,-0.0883,6.338447599999999,0.199935,-0.37675159999999996,-1
417,418,1583934150269,-3.6344,0.2877,0.3292,6.062061,0.27485436,-0.2471295,-1
418,419,1583934150279,-3.9055,0.2721,0.0099,5.869864499999999,0.33492965,-0.8555249,-1
419,420,1583934150289,-3.8929,0.4798,-0.504,5.9248066,0.6837553000000001,-1.1971486999999998,-1
420,421,1583934150300,-3.8026,0.72819996,-0.5535,6.0344224,0.8025364,-1.1938831,-1
421,422,1583934150310,-3.4483,0.63519996,-0.5256,6.638949,0.6075814,-1.358288,-1
422,423,1583934150320,-2.9178,0.46539998,-0.7958,7.2757397,0.456354,-1.7065487000000001,-1
423,424,1583934150330,-2.2595,0.36049998,-1.1487,7.7741933,0.38395333,-2.1339424,-1
424,425,1583934150340,-1.8648,0.2546,-1.4778999,8.119292999999999,0.05884948,-2.0704005000000003,-1
425,426,1583934150350,-1.5668,-0.161,-0.9298,8.279074000000001,-0.4359075,-1.0934318,-1
426,427,1583934150361,-1.5130000000000001,-0.5642,0.029199999,8.208377,-0.59226805,-0.7532829000000001,-1
427,428,1583934150371,-1.6453999,-0.5624,0.0157,7.9293949999999995,-0.390207,-1.2566781999999999,-1
428,429,1583934150382,-1.9352,-0.28849998,-0.6052,7.8068213,-0.10302729,-1.9419754,-1
429,430,1583934150392,-1.8923,-0.021599998999999998,-1.5981,8.086014,0.17123331,-3.082305,-1
430,431,1583934150402,-1.4972999,0.1635,-2.2477999,8.7339525,0.18432479999999998,-3.3111043,-1
431,432,1583934150413,-0.88659996,0.08779999599999999,-2.2605,9.392702,0.058016295999999995,-3.1808023,-1
432,433,1583934150423,-0.2748,-0.0198,-1.9806999,9.672699,-0.06789956,-2.2294998,-1
433,434,1583934150433,-0.0927,-0.1258,-0.7938,9.462421,-0.18407579999999998,-0.9806363000000001,-1
434,435,1583934150443,-0.52669996,-0.3502,0.63019997,8.658688,-0.37187698,-0.35595074,-1
435,436,1583934150453,-1.2154,-0.48979998,0.8361,8.261231,-0.40154594,-0.7733654999999999,-1
436,437,1583934150463,-1.4641,-0.5054,0.413,8.647109,-0.38612726,-1.3737641999999999,-1
437,438,1583934150474,-0.9499,-0.4484,-0.203,9.336783,-0.18355866,-2.2004151000000003,-1
438,439,1583934150484,-0.2719,-0.24139999,-1.0253999,9.823658,-0.06726749,-2.7737974999999997,-1
439,440,1583934150494,0.13939999,-0.1183,-1.4887999,9.929855,0.016950948,-2.8230703,-1
440,441,1583934150506,0.19739999,-0.075899996,-1.4943999,9.838455,-0.055315635999999994,-2.7496257,-1
441,442,1583934150515,0.099199995,-0.1269,-1.4067999,9.8924675,-0.22474850000000002,-2.5126572,-1
442,443,1583934150525,0.4869,-0.5076,-0.9274,10.329811,-0.5399883000000001,-2.2300267000000003,-1
443,444,1583934150536,0.4869,-0.5076,-0.9274,10.626252000000001,-0.7057340999999999,-2.0261266,-1
444,445,1583934150546,0.86429995,-0.7597,-0.65889996,10.593394,-0.7259411,-1.8806359000000001,-1
445,446,1583934150556,0.5101,-0.64379996,-0.21949999,10.137835,-0.4753831,-1.6544988,-1
446,447,1583934150566,0.0431,-0.3223,-0.15869999,9.647578999999999,-0.12631808,-1.6516927,-1
447,448,1583934150576,-0.3748,-0.1382,-0.0691,9.269564,0.05936663,-1.4936178999999998,-1
448,449,1583934150586,-0.5854,-0.2049,0.3724,9.110752,-0.0033423058,-1.1002601,-1
449,450,1583934150597,-0.5854,-0.2049,0.3724,9.319085000000001,-0.15627433,-1.1011126,-1
450,451,1583934150608,0.26319999,-0.58779997,0.41279998,10.071860000000001,-0.37177163,-1.2113607,-1
451,452,1583934150618,0.8513,-0.60609996,0.24219999,10.606314,-0.36628413,-1.5555128,d
452,453,1583934150628,1.2441,-0.5015,-0.6127,10.959448,-0.20522138,-2.5568254,-1
453,454,1583934150638,1.3823999,-0.3184,-1.5766,11.017636999999999,0.03835511,-3.5553991999999996,-1
454,455,1583934150648,1.247,-0.1487,-1.6183,10.723965,0.25526020000000005,-3.2696176,-1
455,456,1583934150659,0.7697,-0.0213,-1.0988,10.11057,0.40927440000000004,-2.85272,-1
456,457,1583934150669,0.057,0.0809,-0.7017,9.405382000000001,0.6054649000000001,-2.5530427,-1
457,458,1583934150679,-0.4705,0.2662,-0.4008,9.034655,0.8442337999999999,-2.3496025,-1
458,459,1583934150689,-0.5985,0.3974,-0.4042,9.081733999999999,0.95444375,-2.6391382,-1
459,460,1583934150700,-0.21949999,0.43039998,-1.0357,9.794172,0.85566854,-3.6753964,-1
460,461,1583934150711,0.5297,0.2651,-1.9973999,10.544830000000001,0.69711494,-4.634628299999999,-1
461,462,1583934150721,1.239,0.1382,-2.9115999,11.066297,0.5093425,-5.6178217,-1
462,463,1583934150732,1.5948,-0.1178,-3.8774,11.285528999999999,0.25294262,-6.521049,-1
463,464,1583934150742,1.7347,-0.36519998,-4.6507998,11.228136,0.07069599,-7.010097999999999,-1
464,465,1583934150752,1.5804,-0.48200000000000004,-4.8396,10.932605,-0.013905523000000001,-6.7298713,-1
465,466,1583934150762,1.1722,-0.62549996,-4.3322997,10.435952,-0.23031262,-6.0048976,-1
466,467,1583934150773,0.6877,-0.90029997,-3.5644,9.926072999999999,-0.46238738,-5.5183860000000005,-1
467,468,1583934150783,0.2933,-1.1398,-3.3888998,9.746842,-0.59748745,-5.8217506,-1
468,469,1583934150794,0.2226,-1.2971,-3.7236,9.885342999999999,-0.48541963,-6.2211127,-1
469,470,1583934150804,0.436,-1.1534,-4.2739,10.028880000000001,-0.39760029999999996,-6.9478774,-1
470,471,1583934150816,0.49199998,-1.2205,-4.777,9.806229,-0.5538363000000001,-7.3526506,-1
471,472,1583934150826,0.2829,-1.3662,-5.1152,9.587275,-0.44346362,-8.015787,-1
472,473,1583934150836,0.0733,-1.2974,-5.7707,9.58173,-0.24711992,-8.787074,-1
473,474,1583934150847,0.1419,-1.0791,-6.4210997,9.639553999999999,-0.15075809,-8.574422,-1
474,475,1583934150857,-0.040599998,-1.2656,-5.9365997,9.385883,-0.31612083,-8.121219,-1
475,476,1583934150867,-0.4421,-1.494,-5.6047997,8.981206,-0.47263458,-7.77042,-1
476,477,1583934150877,-0.9359,-1.5058999,-5.2427,8.464575,-0.37751773,-7.3592496,-1
477,478,1583934150888,-0.9359,-1.5058999,-5.2427,8.154679,-0.28527394,-7.0277004000000005,-1
478,479,1583934150898,-1.5423,-1.3447,-4.3546,7.941797,-0.10579498,-6.181245,-1
479,480,1583934150909,-1.7513,-1.2580999,-3.7150998,7.6270933,-0.07861601,-5.397546,-1
480,481,1583934150920,-2.1876,-1.5110999,-3.116,7.300936,-0.28164429999999996,-4.892800299999999,-1
481,482,1583934150930,-2.5556,-1.7592,-2.8548,6.9029913,-0.5613637,-4.565867400000001,-1
482,483,1583934150940,-2.7965999,-2.0693998,-2.8335,6.770544,-0.8224466,-4.467504,-1
483,484,1583934150950,-2.783,-2.2482998,-2.7509,6.852578599999999,-0.8738836,-4.0003470000000005,-1
484,485,1583934150961,-2.7489,-2.1632,-2.2897,6.814118400000001,-0.6223871,-3.2140720000000003,-1
485,486,1583934150971,-2.909,-1.8766999,-1.4869999999999999,6.3663644999999995,-0.32267135,-2.124921,-1
486,487,1583934150981,-3.6162,-1.6933,-0.43129998,5.4211335,-0.20172586,-0.77610445,-1
487,488,1583934150991,-4.6452,-1.5795,0.8991,4.400648,-0.06514144,0.6622935999999999,-1
488,489,1583934151002,-5.615,-1.5256,2.0045,3.6841307,-0.032360032000000004,1.4081162,-1
489,490,1583934151012,-6.1054997,-1.5221,2.2969,3.6071042999999996,-0.06588843,1.4877473,-1
490,491,1583934151022,-5.9407,-1.5646,2.2108,4.1299114,-0.12532209,1.6649374,-1
491,492,1583934151032,-5.2181,-1.558,2.3365998,5.1968255,0.0023750481,1.8075839,-1
492,493,1583934151042,-4.3585997,-1.3529999,2.3046,5.7422629999999995,0.20968420000000002,1.9923589,-1
493,494,1583934151053,-3.9390998,-1.0978,2.4577,5.7128525,0.45807782,2.5412822,-1
494,495,1583934151063,-4.1446,-0.7227,3.2033,5.07543,0.81133753,3.899465,-1
495,496,1583934151073,-4.8183,-0.4531,4.2888,4.197792,0.77505094,5.041365,-1
496,497,1583934151083,-5.7163,-0.5272,5.3573,3.3454660000000005,0.4869902,6.22411,-1
497,498,1583934151093,-6.526,-0.7989,6.371,3.0024438,0.2621555,6.931740799999999,-1
498,499,1583934151103,-6.6891,-0.86869997,6.8936,3.6106572,0.62727123,7.234463000000001,-1
499,500,1583934151114,-5.99,-0.3118,6.9796996,4.2396145,1.2248353,6.974903,-1
500,501,1583934151124,-5.4279,0.3401,6.6344,4.7749386,1.8026232,7.0305734,-1
501,502,1583934151135,-4.991699700000001,0.92289996,6.5790997,5.222711599999999,2.084823,6.417811,-1
502,503,1583934151146,-4.5442,1.3052,5.8645997,5.8171153,2.2084212000000005,6.535443,-1
503,504,1583934151156,-3.9589999,1.5407,5.9038997,6.1775384,1.8251861,8.166641,-1
504,505,1583934151166,-3.6007998,1.4276999,7.1625,5.9392385,1.0010444,9.626605999999999,-1
505,506,1583934151176,-4.183,-0.3019,10.347999999999999,5.5577654999999995,-0.0708971,10.965684,-1
506,507,1583934151186,-4.2078,-0.75659996,9.9622,5.686047,-0.5478604,10.295641999999999,-1
507,508,1583934151197,-3.5533997999999998,-0.6888,8.7197,6.415321,-0.5109226,9.024942999999999,-1
508,509,1583934151207,-2.8378,-0.45279998,7.8478,7.0593805,-0.42957723,8.394386,-1
509,510,1583934151217,-2.4833998999999998,-0.5255,8.4852,7.3146405,-0.60481364,9.071793,-1
510,511,1583934151227,-2.5017,-0.88229996,10.1981,7.2411957,-1.2188976999999999,10.953472999999999,-1
511,512,1583934151237,-2.7459998,-1.5267998999999999,10.3272,7.018238,-2.0325048,10.7046385,-1
512,513,1583934151247,-2.7152,-2.261,9.5463,7.153434299999999,-2.8857793999999997,9.852485,-1
513,514,1583934151257,-2.2117999,-2.9422998,8.4943,7.7057,-3.634743,8.619538,-1
514,515,1583934151267,-2.2117999,-2.9422998,8.4943,8.16508,-3.9598660000000003,7.6839705,-1
515,516,1583934151277,-1.0095999,-3.3188998999999995,7.0516996,8.911899,-4.1967196,7.6064362999999995,-1
516,517,1583934151287,-0.76269996,-3.3442,8.0138,8.914034,-4.36982,8.660986,-1
517,518,1583934151298,-1.1709,-3.3713998999999997,8.936,8.4793625,-4.487021400000001,9.344339,-1
518,519,1583934151308,-1.5672,-3.5251,8.910399,8.14449,-4.80998,9.082203,-1
519,520,1583934151318,-1.2548,-3.7317,7.7099,8.675371,-5.18337,7.6569633,-1
520,521,1583934151328,0.23709999,-3.9884998999999994,5.3234997,10.6865,-5.646888,4.5920596,-1
521,522,1583934151338,2.1139997999999998,-4.2627997,3.0342,12.47291,-6.0151634000000005,2.8207430000000002,-1
522,523,1583934151348,3.7259,-4.1261,2.0855,13.709151,-5.667947,2.1975515,-1
523,524,1583934151359,4.041,-3.4122999,2.043,13.319633499999998,-5.1231800000000005,2.5569403,-1
524,525,1583934151369,2.9015,-2.9866,3.1092,11.886521,-4.9756207,4.0106133999999996,-1
525,526,1583934151379,1.3492998999999999,-3.2078,5.0634,10.391554,-5.732131,5.777697,-1
526,527,1583934151389,0.242,-4.4007,5.7414,9.818315,-7.033322,5.5217757,-1
527,528,1583934151400,1.0446,-5.0899997,4.3147,11.554399,-7.335172999999999,3.7690767999999997,-1
528,529,1583934151410,3.6606998,-4.6573,2.2519999,14.487257000000001,-6.775475999999999,1.6393863999999998,-1
529,530,1583934151420,5.683,-3.9778,0.7624,15.678574,-6.184223,0.9023745999999999,-1
530,531,1583934151430,6.153,-3.3184,0.39399999999999996,14.791368499999999,-5.981712,1.3223941000000001,-1
531,532,1583934151440,4.5256,-3.3881,1.082,12.519022,-6.4913607,2.2454932,-1
532,533,1583934151451,2.3711998,-3.8760000000000003,1.7728,11.263703999999999,-6.909944,2.494241,-1
533,534,1583934151461,1.6877999,-4.3873,1.2931,11.437503999999999,-7.692905400000001,1.1288278,-1
534,535,1583934151471,2.6957998,-4.9674,-0.3317,13.224584,-8.040878,-0.338837,-1
535,536,1583934151481,4.7370996,-5.0365996,-1.6904999,14.994043,-8.124283,-1.4480993999999998,-1
536,537,1583934151491,6.1593,-5.0292997,-2.7375998,15.682078,-7.977988000000001,-2.0375519,-1
537,538,1583934151502,6.3293,-4.5978,-2.8843,14.941609,-7.4607152999999995,-1.5561545,-1
538,539,1583934151512,4.990999700000001,-4.0805,-2.2305999,12.326307,-6.982612599999999,-0.7577552,-1
539,540,1583934151522,2.6283998,-3.6989,-1.6399,10.217178,-6.8183417,-0.33789846,-1
540,541,1583934151533,0.7381,-3.6158997999999998,-1.5159,9.562978,-7.042132400000001,-1.8653896,-1
541,542,1583934151543,0.4863,-3.8109998999999997,-3.5551998999999994,10.805195,-7.1851144,-4.263345200000001,-1
542,543,1583934151553,2.0561,-3.9004998,-5.8719997,12.971345,-7.376467999999999,-5.4526315,-1
543,544,1583934151563,4.2486997,-4.0999,-6.6482,14.712876999999999,-7.9296727,-4.534608400000001,-1
544,545,1583934151574,5.7846,-4.5768,-5.4065,14.785651000000001,-8.0464525,-3.2041507,-1
545,546,1583934151584,5.4138,-4.5316,-4.187,13.326156,-7.7618966,-3.2286959,-1
546,547,1583934151594,3.1791,-4.0119,-4.6724,10.30361,-6.742617599999999,-4.777524,-1
547,548,1583934151604,0.7364,-3.1315,-6.0132,8.685062,-6.0686307,-6.0359354000000005,-1
548,549,1583934151614,-0.46379998,-2.6411998,-7.065,9.098809,-5.88966,-7.078409700000001,-1
549,550,1583934151624,0.23889999,-2.4273999,-8.4904995,11.080997,-5.960997,-9.221335,-1
550,551,1583934151635,1.9574,-2.5184999,-10.3515,12.133958,-6.253521,-10.297135,-1
551,552,1583934151645,3.0249,-2.7824,-11.435699000000001,12.041915,-6.3594594,-9.769473,-1
552,553,1583934151655,2.9246,-2.892,-10.8736,10.922358000000001,-6.2234974,-8.64077,-1
553,554,1583934151665,1.7947999,-2.7549999,-9.6669,9.446352000000001,-5.8694906,-7.8829093,-1
554,555,1583934151676,0.29889998,-2.4239,-8.8504,8.248819000000001,-5.4935436,-7.9208045,-1
555,556,1583934151686,-0.9083,-2.0725,-8.861899000000001,7.916542999999999,-5.272808,-8.594083,-1
556,557,1583934151696,-0.6288,-1.6525999,-10.2969,8.664377,-5.0405607,-9.461694,-1
557,558,1583934151706,-0.059699997000000005,-1.5570998999999999,-10.9583,9.136494,-5.0119834,-9.950542,-1
558,559,1583934151716,0.124,-1.6772,-10.671,9.267486,-5.166658999999999,-9.465439,-1
559,560,1583934151727,0.0471,-1.8218,-9.623799,9.110713,-5.3056273,-8.397941000000001,-1
560,561,1583934151737,-0.46539998,-1.9631,-8.5,8.518761,-5.4763246,-7.373385000000001,-1
561,562,1583934151747,-1.2239,-2.128,-7.705899700000001,7.812337400000001,-5.624516000000001,-6.645442,-1
562,563,1583934151757,-1.5967,-2.1237,-7.0601997,7.534802,-5.578557,-6.07183,-1
563,564,1583934151767,-1.5824,-1.9854,-6.7602997,7.5626316,-5.4817066,-5.857146299999999,-1
564,565,1583934151778,-1.5539,-2.066,-7.0176997000000005,7.587340400000001,-5.5846480000000005,-6.1535964000000005,-1
565,566,1583934151788,-1.385,-2.2094998,-7.3901997,7.861639,-5.808975,-6.540183,-1
566,567,1583934151798,-1.0877,-2.3006,-7.5119996,8.057456,-5.8785124,-6.3432174,-1
567,568,1583934151808,-1.1258,-2.4213998,-6.664499799999999,7.772182000000001,-6.134528599999999,-5.0361743,-1
568,569,1583934151818,-1.7953,-2.7119999999999997,-5.0971,7.0878043,-6.3532443,-3.8783385999999997,-1
569,570,1583934151828,-2.7709,-2.7498,-3.958,6.120853,-6.36691,-2.862134,-1
570,571,1583934151838,-3.5486,-2.5876,-3.2705,5.412208000000001,-6.1818767,-2.2873821,-1
571,572,1583934151848,-3.9965,-2.3367,-3.2192,4.930916000000001,-6.029662999999999,-2.5760077999999997,-1
572,573,1583934151858,-4.0629,-2.3560998,-3.9717,5.184692,-6.086367,-3.2740996,-1
573,574,1583934151868,-3.2759,-2.3005,-4.4569,6.1106157,-6.138216000000001,-3.7488027,-1
574,575,1583934151879,-2.3049998,-2.4183,-5.2158,6.817537299999999,-6.3786893,-4.311134,-1
575,576,1583934151888,-1.7982,-2.6894,-5.147,7.1133265,-6.7166076,-3.8010154000000003,-1
576,577,1583934151898,-1.9598999,-2.8706,-2.98,6.849322999999999,-6.977805,-1.3310995,-1
577,578,1583934151908,-2.4756,-3.2329,-0.0928,6.0684776,-7.4727630000000005,1.9159935000000001,-1
578,579,1583934151918,-3.2278,-3.4305,1.7538999,5.3036356,-7.7553077,2.938356,-1
579,580,1583934151928,-3.6523,-3.6655,1.5706999,5.2092752,-8.045283,2.1209276000000004,-1
580,581,1583934151938,-3.0179,-3.7735,0.3716,6.265128,-8.151452,1.0896873,-1
581,582,1583934151949,-1.3434,-3.7029998,-0.25439999,8.032202,-8.149691,0.8671607,-1
582,583,1583934151959,0.24759999,-3.5978,0.1175,9.208119,-8.248532,1.7088279999999998,-1
583,584,1583934151969,0.8526,-3.7458,1.5419999,9.403074,-8.528999,3.4425747,-1
584,585,1583934151980,0.6907,-3.8121998,3.261,8.950216000000001,-8.537619,4.9653926,-1
585,586,1583934151990,-0.0422,-3.622,4.4526,8.077989,-8.363713,5.861858,-1
586,587,1583934152000,-0.95019996,-3.3869998,4.9941998,7.1315603,-8.066851,6.096346400000001,-1
587,588,1583934152010,-1.4096,-3.0409,5.0585,7.0439043,-7.7555857,6.3342338,-1
588,589,1583934152021,-1.3075,-2.6834,5.3573,7.2761993,-7.3466845,6.597855,-1
589,590,1583934152031,-0.96599996,-2.2041,5.6562,7.595557,-7.066572,6.8176619999999994,-1
590,591,1583934152041,-0.4253,-1.8003999,5.8682,8.207803,-6.656358999999999,6.913334,-1
591,592,1583934152051,-0.0404,-1.5332999,5.7841997,8.294568,-6.801946000000001,6.777850999999999,-1
592,593,1583934152062,-0.088599995,-1.8577,5.7214,8.078917500000001,-7.311058500000001,6.879901400000001,-1
593,594,1583934152073,-0.1884,-2.2059,5.8767,8.356558999999999,-7.332414999999999,6.9829383,-1
594,595,1583934152083,0.1901,-2.0708,5.8898,8.620869,-7.2302213,6.981847,-1
595,596,1583934152093,0.36949998,-1.9519999,5.9625998,8.2860155,-7.1827005999999995,7.198436,-1
596,597,1583934152103,-0.0064,-1.8858,6.1668997,8.022712,-7.062042699999999,7.1653476,-1
597,598,1583934152113,-0.17889999,-1.6777999,6.0902,8.143111,-6.631431,6.9941144,-1
598,599,1583934152124,0.012499999,-1.2054,5.8459,8.380396000000001,-6.258472,6.481573,-1
599,600,1583934152134,0.2643,-0.83019996,5.3011,8.515525,-5.9527707,6.225499,-1
600,601,1583934152144,0.3768,-0.50589997,5.1264,8.355955,-5.7246227,6.2755184,-1
601,602,1583934152154,0.1612,-0.2936,5.1906,7.9674435,-5.9973316,6.58982,-1
602,603,1583934152164,-0.1654,-0.5952,5.515,7.8918539999999995,-6.3549866999999995,6.977392999999999,-1
603,604,1583934152175,-0.2183,-0.9877,5.9205,8.135516,-6.348705000000001,6.366039,-1
604,605,1583934152184,0.1033,-0.8716,4.961,8.636872,-6.062492400000001,4.576919,-1
605,606,1583934152194,0.6319,-0.57159996,3.1101,9.104278,-5.7393035999999995,3.4333617999999997,-1
606,607,1583934152204,1.0503,-0.24499999,2.2442,8.976771000000001,-5.47711,3.7410836000000005,-1
607,608,1583934152214,0.7654,-0.0123,2.745,8.074225,-5.3165164,4.7693458,-1
608,609,1583934152224,-0.27179998,0.1258,3.8253998999999994,6.980026700000001,-5.293896,5.569008999999999,-1
609,610,1583934152235,-1.2803,0.0968,4.516,6.8242216,-5.2975926,5.547901599999999,-1
610,611,1583934152245,-1.2923,0.1034,4.4086,7.488210700000001,-5.1523794999999994,4.7613683,-1
611,612,1583934152255,-0.4534,0.2748,3.3441,8.376814,-5.230938,3.2148001,-1
612,613,1583934152265,0.2715,0.18519999,2.0348,8.689257000000001,-5.3824143,2.4304595,-1
613,614,1583934152276,0.5919,0.0437,1.2308999,8.7288,-5.399193,2.1113603,d
614,615,1583934152286,0.3349,0.10789999,1.1848999,8.3373375,-5.283533599999999,2.4879205,-1
615,616,1583934152296,0.3349,0.10789999,1.1848999,7.888052,-5.2005606,2.825024,-1
616,617,1583934152307,-0.6809999999999999,0.1962,2.0365,7.391456,-5.20124,3.2570335999999998,-1
617,618,1583934152317,-0.7338,0.16059999,2.0053,7.4278193,-5.2337823,3.125209,-1
618,619,1583934152327,-0.3407,0.012999999,1.5067999,7.9081535,-5.422465,2.5724549999999997,-1
619,620,1583934152338,-0.3407,0.012999999,1.5067999,8.334446,-5.534829,2.1826787,-1
620,621,1583934152348,0.3593,-0.1592,0.84239995,8.894708,-5.676154,1.5201936000000003,-1
621,622,1583934152359,0.9712,-0.4691,0.17719999,9.075662,-5.910211599999999,1.507169,-1
622,623,1583934152369,0.8128,-0.64019996,1.0698,8.865959,-6.082747,2.5234406000000003,-1
623,624,1583934152379,0.6053,-0.8147,1.9675,8.718860000000001,-6.222051,3.3133836000000003,-1
624,625,1583934152391,0.7334,-0.8434,2.0625,8.989844,-6.3027267,3.1302464,-1
625,626,1583934152402,1.1674,-1.0194,1.2928,9.8606825,-6.519028,1.9963523999999997,-1
626,627,1583934152412,1.9244,-1.1868,0.54429996,10.452749,-6.6595583,2.1324867999999997,-1
627,628,1583934152422,2.5187,-1.3781999,1.0494,10.753681,-6.982133999999999,3.3916644999999996,-1
628,629,1583934152432,2.6238,-1.7062998999999999,2.1684,10.732383,-7.0577526,4.373689700000001,-1
629,630,1583934152442,2.6049,-1.7597,3.0428998,10.744756,-7.0420275,5.050003500000001,-1
630,631,1583934152452,2.5537999,-1.7619999999999998,3.6815,10.656046,-6.855567,5.6200056,-1
631,632,1583934152462,2.4628,-1.6225,4.1407,10.748529,-6.7252455,5.602748,-1
632,633,1583934152472,2.6188998,-1.5630000000000002,3.9694,11.206712,-6.6177077,5.4399805,-1
633,634,1583934152482,3.0995,-1.4649,3.7665,11.663527,-6.5483236,5.2914824000000005,-1
634,635,1583934152492,3.6553,-1.4769999999999999,3.3790998,12.277611,-6.4961686,4.527436,-1
635,636,1583934152502,4.303499700000001,-1.4358,2.4766998,13.001368,-6.2935996,3.9760125,-1
636,637,1583934152512,4.9332,-1.2559999,2.3305,13.443385000000001,-6.1132493,4.4326153,-1
637,638,1583934152522,5.0727,-1.2738,3.1239,13.250451000000002,-6.2293873,5.4848669999999995,-1
638,639,1583934152532,4.6756997,-1.5012,4.2035,12.67362,-6.24335,6.730570299999999,-1
639,640,1583934152543,4.0885,-1.5452,5.1759996,12.166967999999999,-6.101498599999999,7.075067,-1
640,641,1583934152553,3.3748,-1.4215,5.3039,11.594496000000001,-5.6515512,6.549032,-1
641,642,1583934152563,2.9789,-1.1642,4.5692,11.630984,-5.2714767,5.400448,-1
642,643,1583934152573,3.0677998,-0.8558,3.4066,12.074686,-4.839237000000001,4.8003936,-1
643,644,1583934152583,3.5033,-0.5999,2.9287999,12.595177,-4.9316535,4.867422,-1
644,645,1583934152593,3.9687,-0.86899996,3.0651999,12.984148,-5.148606299999999,5.177222,-1
645,646,1583934152604,4.2648997,-1.1889,3.3634998999999994,12.888485000000001,-5.3548527,5.3055129999999995,-1
646,647,1583934152614,3.967,-1.4993,3.4391,12.317833,-5.40989,5.3738046,-1
647,648,1583934152624,3.3007998,-1.6169,3.5323,11.6555395,-5.108805,5.2985983,-1
648,649,1583934152634,2.582,-1.4128,3.3953998,10.987796000000001,-4.830235,4.670599,-1
649,650,1583934152644,1.8342999,-1.3428,2.7168,10.330186,-4.848105,4.182307,-1
650,651,1583934152655,1.1882,-1.5375999,2.3285,10.158311,-4.9365760000000005,4.1123,-1
651,652,1583934152665,1.0476999,-1.7363,2.3195,10.380999999999998,-4.950989,4.410282,-1
652,653,1583934152676,1.2162,-1.8781999,2.6343,10.559072,-5.0211196,4.8180629999999995,-1
653,654,1583934152686,1.3162,-2.1446,2.1520998,10.570314,-4.9245852999999995,3.5664315,-1
654,655,1583934152696,1.3526,-1.9835999,0.8987,10.705922,-4.5546527,2.3220406000000002,-1
655,656,1583934152706,1.3526,-1.9835999,0.8987,10.742535,-4.0934434,1.5761987,-1
656,657,1583934152716,1.3773,-1.5532999,0.0379,10.316194,-3.6275985,0.8763832,-1
657,658,1583934152726,0.90099996,-1.2386999,-0.56479996,9.400048,-3.2264547,0.77190024,-1
658,659,1583934152737,-0.99729997,-0.99109995,-0.4244,8.317093,-3.0728621,0.7802321,-1
659,660,1583934152747,-1.9736999,-1.2427,-0.447,7.428594599999999,-3.1961539,0.67993414,-1
660,661,1583934152757,-1.9736999,-1.2427,-0.447,7.0680475000000005,-3.2192437999999997,0.9957101999999999,-1
661,662,1583934152767,-2.4182,-1.4576,0.43179998,7.2915893,-3.0622416,1.3553959,-1
662,663,1583934152778,-2.1124,-1.3,0.40879998,7.6717978,-2.7104947999999998,1.13919,-1
663,664,1583934152787,-1.8120999,-1.0461,0.0925,7.940485000000001,-2.4117942,0.63530624,-1
664,665,1583934152797,-1.6071,-1.0339999,-0.3955,8.150016,-2.3668982999999995,0.19615217,-1
665,666,1583934152808,-1.6071,-1.0339999,-0.3955,8.335949000000001,-2.3039117,0.050661307,-1
666,667,1583934152818,-1.4175999,-1.1393,-0.6089,8.166775999999999,-2.3310044,-0.19865170000000001,-1
667,668,1583934152828,-1.8453,-1.5133,-0.573,7.762998,-2.674764,-0.17450857,-1
668,669,1583934152838,-2.2611,-2.0727,-0.3277,7.440987,-3.0791636000000002,0.0066654575,-1
669,670,1583934152849,-2.5957,-2.7563,0.4062,7.144365,-3.6701674,0.95533437,-1
670,671,1583934152859,-2.5355,-2.9557998,1.2032,7.340364,-3.5604843999999995,1.4121193,-1
671,672,1583934152869,-2.1204,-2.6121,1.1376,7.7335973,-3.0103447,0.88151634,-1
672,673,1583934152879,-2.1749,-2.2191,0.046299997999999995,7.5062914,-2.4861772,-0.28174007,-1
673,674,1583934152890,-2.5518,-1.8045,-0.5854,7.083197599999999,-2.0379157,-0.43825385,-1
674,675,1583934152900,-3.0649,-1.6378,-0.23089999,6.450295400000001,-1.9836631,-0.042511445,-1
675,676,1583934152910,-3.4984998999999997,-1.7843,-0.0242,6.2605023,-2.0359046000000003,-0.06602251,-1
676,677,1583934152920,-3.4311,-2.037,-0.22639999,6.633939999999999,-2.2724516,-0.5238609000000001,-1
677,678,1583934152931,-2.5386999,-2.1339,-0.9913,8.032289,-2.061963,-1.9705716,-1
678,679,1583934152941,-1.351,-1.8492,-2.3890000000000002,8.711265,-1.6542497999999999,-3.1075494,-1
679,680,1583934152951,-1.1427,-1.2665,-3.0440998,8.120041,-0.83716613,-2.9520698,-1
680,681,1583934152961,-2.2958,-0.77629995,-2.1125,6.4787669999999995,-0.50229394,-1.7196593,-1
681,682,1583934152971,-3.9373,-0.6444,-0.66359997,5.3512416,-0.27750713,-0.6419429,-1
682,683,1583934152981,-4.9302998,-0.4971,0.50049996,4.742406,-0.029764716,0.35069308,-1
683,684,1583934152992,-4.8835,-0.3875,1.0186,5.63008,0.43828255,-0.18875886,-1
684,685,1583934153002,-3.9543998,-0.0084,0.17,6.382261799999999,0.6960805999999999,-1.7832685000000001,-1
685,686,1583934153012,-3.1051998,0.2553,-1.8873999,6.861523599999999,0.8212686,-3.6149190000000004,-1
686,687,1583934153023,-2.9435,0.1872,-2.906,6.491696,0.48070782,-3.3825665000000003,-1
687,688,1583934153034,-3.3799998999999996,-0.22209999,-2.4064,6.1072826,0.046821006,-2.5090182,-1
688,689,1583934153044,-3.6592,-0.65029997,-1.4918,6.230182,-0.25069207,-2.0621066000000003,-1
689,690,1583934153054,-3.4477,-0.9084,-1.2106999,6.655919,-0.10967359,-2.8195174,-1
690,691,1583934153064,-3.0112,-0.6807,-2.1016,7.122482000000001,0.40960959999999996,-3.7399538,-1
691,692,1583934153074,-2.6244,-0.2843,-2.7556998999999998,7.158251299999999,0.71028304,-4.014147299999999,-1
692,693,1583934153084,-2.6013,0.0618,-3.0663998,7.149728,0.9794296,-4.24717,-1
693,694,1583934153095,-2.5783,0.28869998,-3.2623,7.1663820000000005,0.9681386000000001,-4.3047265999999995,-1
694,695,1583934153105,-2.5642,0.2206,-3.2542,7.3500557,0.80039126,-3.9728904000000003,-1
695,696,1583934153115,-2.3130999,-0.005,-2.7528,7.630704,0.5462994000000001,-3.1618592999999997,-1
696,697,1583934153125,-2.0898,-0.2421,-2.0251,7.777545,0.24404576,-2.4026772999999997,-1
697,698,1583934153135,-1.9346999,-0.56909996,-1.2088,7.968630999999999,0.24387339,-2.012968,-1
698,699,1583934153146,-1.7308999,-0.59319997,-0.78099996,7.89353,0.44285070000000004,-2.4228457999999997,-1
699,700,1583934153156,-2.1725,-0.3536,-1.2089,7.3806343,0.522817,-2.4809196,-1
700,701,1583934153166,-2.4751,-0.41869998,-1.1891,7.2405740000000005,0.45343307,-2.5125902,-1
701,702,1583934153176,-2.4751,-0.41869998,-1.1891,7.480712,0.47846687,-2.7049499,-1
702,703,1583934153186,-2.2103999,-0.4351,-1.43,7.916734,0.6017395000000001,-3.03874,-1
703,704,1583934153196,-1.1819,-0.1916,-1.8554,8.617239,0.7564145,-3.1079035,-1
704,705,1583934153207,-0.71059996,-0.0179,-1.7279999,9.042823,0.87501365,-2.9858282000000003,-1
705,706,1583934153217,-0.4721,-0.065,-1.4778,9.241849,0.78051937,-2.6421835,-1
706,707,1583934153227,-0.5651,-0.42229998,-0.5408,9.026819999999999,0.3926395,-1.7119788,-1
707,708,1583934153238,-0.5651,-0.42229998,-0.5408,8.645386,0.09370905,-1.4795878999999998,-1
708,709,1583934153248,-1.173,-0.8111,-0.5399,8.513226,0.14069287,-2.1225842999999998,-1
709,710,1583934153258,-1.043,-0.5001,-1.4463999,8.694975,0.49180734,-3.0048285,-1
710,711,1583934153270,-0.68939996,-0.0371,-1.8234999,9.116546000000001,1.0771514,-3.2423427000000005,-1
711,712,1583934153280,-0.4544,0.3891,-1.8524,9.253905,1.3710731000000003,-3.4269357000000005,-1
712,713,1583934153290,-0.4154,0.5118,-2.0864,9.266479499999999,1.4314069999999999,-3.5338513999999996,-1
713,714,1583934153300,-0.2962,0.55579996,-2.0241,9.515257,1.3850745,-3.222471,-1
714,715,1583934153310,-0.047799997000000004,0.42319998,-1.4501,9.770096,1.1263378000000002,-2.1353883999999996,-1
715,716,1583934153321,0.1627,0.0929,-0.0349,9.841223,0.86954534,-0.94592035,-1
716,717,1583934153331,0.1575,-0.0519,0.6824,9.748136,0.77439976,-1.1107468999999999,-1
717,718,1583934153341,0.071899995,-0.1152,0.0747,9.713275999999999,0.74372524,-1.9411517,-1
718,719,1583934153352,0.0625,-0.14389999,-1.2112,9.8083935,0.6190640000000001,-3.4433985000000003,-1
719,720,1583934153362,0.2083,-0.345,-2.1724,9.990831,0.22473893,-3.8430288,-1
720,721,1583934153372,0.34379998,-0.6942,-2.2251,10.001441999999999,-0.13380714,-3.4477269999999995,-1
721,722,1583934153383,0.32369998,-1.0297999,-1.8119999,10.011975999999999,-0.41806590000000005,-3.1351974,-1
722,723,1583934153393,0.38419998,-1.2275,-1.548,10.049862,-0.30961818,-3.1050497999999997,-1
723,724,1583934153403,0.3777,-1.1187999,-1.5516,10.127761,-0.25805664,-3.1129412999999997,d
724,725,1583934153413,0.5291,-1.0843999,-1.494,10.4131775,-0.095739335,-2.8870242000000004,-1
725,726,1583934153423,0.8179,-0.90739995,-1.2228,10.515841499999999,0.13692918,-2.54541,-1
726,727,1583934153434,0.83169997,-0.7446,-0.8390000000000001,10.02252,0.103123054,-2.1987967,-1
727,728,1583934153444,0.23629999,-0.8717,-0.5442,9.232396000000001,-0.14339353,-2.1847090000000002,-1
728,729,1583934153454,-0.53679997,-1.1371,-0.6311,8.806267,-0.32489315,-2.7038102000000004,-1
729,730,1583934153464,-0.8111,-1.3091999,-1.2623999,9.185259,-0.24458206,-3.57914,-1
730,731,1583934153474,-0.2531,-1.1589,-2.1711,10.346657,0.22199039,-4.345667400000001,-1
731,732,1583934153484,0.7069,-0.78709996,-2.7719998,10.6341915,0.43451890000000004,-4.643803,-1
732,733,1583934153495,1.0009,-0.5649,-3.1348,10.468082,0.5121102,-4.919021599999999,-1
733,734,1583934153505,0.83529997,-0.5358,-3.3567998,10.235596000000001,0.5342805,-4.909253,-1
734,735,1583934153516,0.59209996,-0.5409,-3.3609998,9.949191,0.42618704,-4.596446,-1
735,736,1583934153526,0.122099996,-0.71669996,-3.0281,9.679939,0.43643424,-4.6061664,-1
736,737,1583934153536,0.122099996,-0.71669996,-3.0281,9.446035,0.5247228,-4.756752,-1
737,738,1583934153547,-0.4052,-0.5746,-3.5263,9.225894,0.5567573,-5.051066400000001,-1
738,739,1583934153557,-0.32119998,-0.7334,-3.7607,9.397625,0.37917449999999997,-5.1886277000000005,-1
739,740,1583934153567,-0.32119998,-0.7334,-3.7607,9.74035,0.14589308,-5.091451599999999,-1
740,741,1583934153578,0.50879997,-1.1291,-3.6081998,10.225003,0.045489833,-5.01184,-1
741,742,1583934153588,0.715,-1.2461,-3.8681,10.399511,-0.063484654,-5.267339,-1
742,743,1583934153598,0.7653,-1.1273,-4.0618,10.222418,0.16112019,-5.407592,-1
743,744,1583934153608,0.1687,-1.1072999,-3.8708,9.507825,0.12306196,-4.835847,-1
744,745,1583934153619,-0.5748,-1.3004999,-2.8841,8.825008,0.02165316,-3.7035716,-1
745,746,1583934153629,-1.1912999,-1.3169999,-2.0409,8.201184,0.09588299,-3.2057211,-1
746,747,1583934153639,-1.1912999,-1.3169999,-2.0409,7.8601832,0.21588038,-3.445036,-1
747,748,1583934153649,-1.7713,-1.0848,-2.4023,7.9314632,0.42296925,-3.5339565000000004,-1
748,749,1583934153659,-1.5490999,-0.9945,-2.4345999,8.190612,0.4641112,-3.5320125,-1
749,750,1583934153670,-1.3469,-1.0548999,-2.4262,8.403035000000001,0.36197457,-3.3626563999999997,-1
750,751,1583934153680,-1.2228,-1.1528,-2.2762,8.439781,0.27070759999999994,-3.3010677999999998,-1
751,752,1583934153690,-1.1666,-1.301,-2.408,8.501983000000001,0.10697293,-3.312244,-1
752,753,1583934153700,-1.1393,-1.472,-2.1692998,8.52398,0.05796841,-2.8117504,-1
753,754,1583934153710,-1.2192,-1.3539,-1.6202999,8.172522,0.34635478,-2.1925237,-1
754,755,1583934153720,-1.818,-1.124,-1.2628,7.2770996,0.52846736,-1.9380008999999998,-1
755,756,1583934153730,-2.7298,-0.94759995,-1.0648999,6.561176,0.85077477,-1.5475832,-1
756,757,1583934153740,-3.1898,-0.5537,-0.6432,6.459201999999999,1.2364518999999998,-1.0541383,-1
757,758,1583934153750,-3.2186,-0.1618,0.1204,6.418472,1.4996896999999998,-0.33162567,-1
758,759,1583934153760,-3.3664,-0.0827,1.1058999,6.17954,1.4318666000000002,1.0056220999999999,-1
759,760,1583934153770,-3.5554997999999998,-0.3642,1.7842,6.0345855,0.95752746,1.3289065,-1
760,761,1583934153780,-3.6787,-0.8583,1.7222998999999999,5.9976473,0.47690582,0.74403167,-1
761,762,1583934153791,-3.5983998999999995,-1.2541,0.77669996,6.3174844000000006,0.26729825,-0.19299181,-1
762,763,1583934153801,-3.1457999,-1.1961,-0.0484,6.771061,0.5937045999999999,-0.56890064,-1
763,764,1583934153812,-2.9369,-0.7014,-0.1934,6.390833,1.2674712,-0.00010534488000000001,-1
764,765,1583934153822,-3.7645998,0.056399997,0.6199,5.0748076,2.0667899,1.40803,-1
765,766,1583934153832,-5.2662997,0.8534,2.3772,3.6973562000000006,2.6876062999999997,3.686544,-1
766,767,1583934153843,-6.218899700000001,1.321,4.667,3.4112968,2.7536767,6.3138255999999995,-1
767,768,1583934153853,-6.2232,1.2109999999999999,6.6835,4.121647,2.4648306,7.544722999999999,-1
768,769,1583934153863,-5.3682,0.9794,7.6906996,5.257657,2.215824,7.8851976,-1
769,770,1583934153873,-4.2804,0.83849996,7.8020997,6.1762934000000005,2.2384925,7.954169800000001,-1
770,771,1583934153883,-3.3794,0.9873,7.9361997,6.9563429999999995,2.2194345,8.427522999999999,-1
771,772,1583934153894,-2.6922998,0.99109995,8.0548,7.2508300000000006,1.8873491999999998,7.44976,-1
772,773,1583934153904,-2.4833998999999998,0.7245,6.857199700000001,7.1256710000000005,1.5692173,6.887448,-1
773,774,1583934153914,-2.7145998,0.5068,6.5211997,6.7430587,1.2030576000000002,7.959417999999999,-1
774,775,1583934153924,-3.0737,0.1427,7.9079,6.6016088,0.5141404,10.219679,-1
775,776,1583934153934,-3.1489,-0.4754,10.218699,6.822172,0.1261457,11.92933,-1
776,777,1583934153944,-2.9006998999999998,-0.7219,11.653999,7.0161314,-0.25552836,12.005657000000001,-1
777,778,1583934153954,-2.7694,-0.9456,11.5473995,7.4156947,-0.51206225,11.126794,-1
778,779,1583934153964,-2.1957,-1.0957999,10.327,8.451035000000001,-0.36247256,9.629650999999999,-1
779,780,1583934153974,-1.1402,-0.7718,8.850699,9.457346000000001,-0.3994486,8.6611395,-1
780,781,1583934153984,-0.3387,-0.74549997,8.060599,9.95759,-0.94985646,8.227962,-1
781,782,1583934153994,0.1593,-1.1718,7.601999799999999,10.52266,-1.4136038,7.529209,-1
782,783,1583934154004,0.7262,-1.5145998999999999,6.9038997,11.187875,-1.9596924,7.348389,-1
783,784,1583934154015,1.3907,-1.9531,6.7545,11.844806,-2.2318363,8.020767,-1
784,785,1583934154025,2.1427999,-1.7313,8.4212,11.942508,-1.9334807,8.929272000000001,-1
785,786,1583934154035,2.1427999,-1.7313,8.4212,10.959344,-1.479291,9.406522,-1
786,787,1583934154046,1.1623,-1.2006999,8.926,9.413675,-1.3647238000000002,8.975077,-1
787,788,1583934154056,-1.2172999,-1.7161,7.244,8.596707,-2.4141884,7.33593,-1
788,789,1583934154066,-0.25239998,-2.8683,5.4735,9.939250999999999,-3.6409392,5.4998830000000005,-1
789,790,1583934154076,2.0395,-3.6991,3.9164999,12.286527,-4.544875,4.0164843,-1
790,791,1583934154086,3.9617,-3.9531998999999995,3.0440998,13.964995000000002,-4.765438,3.1621373,-1
791,792,1583934154096,3.9617,-3.9531998999999995,3.0440998,14.343692,-4.43409,2.4835055,-1
792,793,1583934154107,3.9954998,-2.7280998,1.9190999,13.555319,-3.7242286,2.2174711,-1
793,794,1583934154117,2.8504999,-2.2029,2.5534,12.298841,-3.3972477999999997,2.9713382999999998,-1
794,795,1583934154127,1.2551,-2.6439,2.988,10.704073,-4.1826606,3.1600015,-1
795,796,1583934154137,0.5348,-3.6969998,1.8607,10.317487,-5.2854779999999995,1.7529099999999997,-1
796,797,1583934154148,0.5348,-3.6969998,1.8607,11.222112,-5.8275824,-0.33647153,-1
797,798,1583934154158,3.4592,-4.8134,-3.5249,13.563076,-6.5491858,-3.7023075,-1
798,799,1583934154168,5.4725,-4.7894,-5.1428,15.435379999999999,-6.5416775000000005,-4.935560700000001,-1
799,800,1583934154178,6.3828998,-4.1952,-4.5041,15.957488,-5.9480114,-3.9885771,-1
800,801,1583934154188,5.1179,-3.4315998999999997,-2.5,13.687180999999999,-5.148031700000001,-1.6206926000000001,-1
801,802,1583934154198,2.286,-2.8974,-0.97709996,10.810931,-4.701120400000001,-0.9230126000000001,-1
802,803,1583934154209,-0.0778,-2.4582999,-1.5134,9.044988,-4.2932153,-2.258709,-1
803,804,1583934154219,-0.8301,-2.2979,-3.5965,9.016985,-4.3659225,-4.567332700000001,-1
804,805,1583934154229,0.2677,-2.5669999999999997,-5.9687,10.265599,-4.66378,-6.5436983,-1
805,806,1583934154239,2.2930999,-2.7417998,-8.342,12.536432000000001,-4.7935367,-9.127961,-1
806,807,1583934154249,3.5253,-2.5323,-9.5167,13.165945,-4.60201,-9.483433,-1
807,808,1583934154259,3.1645,-2.3058999,-8.670899,12.206491999999999,-4.4948263,-8.211221,-1
808,809,1583934154270,1.7081,-2.2203999,-7.171,10.697312,-4.433898999999999,-6.9372854,-1
809,810,1583934154280,0.5801,-2.2082,-6.2732997,9.902448,-4.4119487,-6.2941456,-1
810,811,1583934154290,0.2647,-2.0857,-5.8476,9.9252205,-4.141547,-6.2578974,-1
811,812,1583934154300,0.46949998,-1.8335999,-6.0614,10.150275,-3.8957589,-6.820391000000001,-1
812,813,1583934154310,0.65489995,-1.6478,-6.7623997000000005,10.241964,-3.8354727999999993,-7.7373223,-1
813,814,1583934154320,0.6729999999999999,-1.6973,-7.6445,10.199587,-3.9453955,-8.422467,-1
814,815,1583934154331,0.61219996,-1.828,-8.1236,10.212361999999999,-4.1299790000000005,-8.70683,-1
815,816,1583934154341,0.65929997,-2.1188,-8.274099,10.299653999999999,-4.476429,-8.799754,-1
816,817,1583934154351,0.736,-2.4415998,-8.3442,10.219975,-4.6673717,-9.187088000000001,-1
817,818,1583934154362,0.5873,-2.6373,-8.9556,10.111499,-4.865918,-10.084444,-1
818,819,1583934154372,0.6437,-2.8214998,-9.7663,10.583117999999999,-4.78215,-10.494475,-1
819,820,1583934154382,1.2874,-2.5022,-9.7547,11.139282000000001,-4.33838,-9.971849,-1
820,821,1583934154392,1.5668,-2.1752,-9.1718,10.701066,-4.264236,-9.449416000000001,-1
821,822,1583934154402,0.97169995,-2.238,-8.867499,10.054822999999999,-4.370328,-9.317907,-1
822,823,1583934154413,0.3764,-2.3627,-8.7455,9.82409,-4.4169865,-8.7485285,-1
823,824,1583934154424,0.2137,-2.4842,-8.0767,9.906317,-4.7657638,-7.773092,-1
824,825,1583934154434,0.3363,-2.8464,-7.1352,10.05535,-4.7898498,-7.220663,-1
825,826,1583934154444,0.43899998,-2.7868,-6.7825,9.906460000000001,-4.5410438,-7.387453,-1
826,827,1583934154454,0.2165,-2.5762,-7.019,9.381478,-4.241271,-7.0622916,-1
827,828,1583934154465,-0.2426,-2.3435,-6.7001995999999995,8.876819,-4.01092,-6.0241275000000005,-1
828,829,1583934154475,-0.7609999999999999,-2.1548,-5.7095,8.263061,-3.9566386,-4.834449,-1
829,830,1583934154485,-1.3867999,-2.1423,-4.5473,7.740722,-4.111371,-3.9822757000000006,-1
830,831,1583934154496,-1.9031999,-2.3186,-3.7347998999999996,7.6107745,-4.294412599999999,-3.1665810000000003,-1
831,832,1583934154507,-1.8908999,-2.3753,-2.3181,7.775572299999999,-4.1243668,-2.2795002,-1
832,833,1583934154517,-1.9117,-2.2412999,-1.5439999,7.7049913,-3.918427,-1.3904948000000001,-1
833,834,1583934154527,-2.2553,-1.8907,-0.6795,7.298877,-3.5888987,-0.49627970000000005,-1
834,835,1583934154537,-2.8142,-1.8927,-0.1375,6.722717299999999,-3.6980169999999997,0.039475597,-1
835,836,1583934154547,-3.2052999,-2.2240999,0.1239,6.430184,-4.059933999999999,0.32943258,-1
836,837,1583934154558,-3.0166,-2.6362,0.25259998,6.8300633,-4.6134925,0.538092,-1
837,838,1583934154568,-2.5128,-3.0714,0.47739998,7.231839,-4.9093776,0.78406274,-1
838,839,1583934154578,-2.1462998,-3.1239998,0.93009996,7.524659599999999,-4.8649607,1.3245778,-1
839,840,1583934154588,-2.2319,-2.6134,1.5107,7.210397,-4.163823000000001,2.0576441,-1
840,841,1583934154598,-2.9362,-2.0403,2.2955,6.276237,-3.613492,3.1529912999999996,-1
841,842,1583934154608,-4.0722,-1.4585999,3.7064998,5.179884400000001,-3.0930883999999996,4.5936303,-1
842,843,1583934154619,-4.8141,-1.0447999,4.8306,4.771232599999999,-2.7351456,5.4802895,-1
843,844,1583934154628,-4.8141,-1.0447999,4.8306,4.8117514,-2.4646199,5.664413,-1
844,845,1583934154638,-4.5815997,-0.1602,4.7281,5.104706299999999,-1.9161466,4.780895,-1
845,846,1583934154648,-4.4616,0.2066,3.7754,5.157178,-1.7073723000000003,4.1779494,-1
846,847,1583934154658,-4.3603997,0.3931,3.7684,5.2689580000000005,-1.586015,4.477454,-1
847,848,1583934154668,-4.2781,0.5159,4.7188,5.2656160000000005,-1.5970666,5.7367277,-1
848,849,1583934154678,-4.3905997,0.4576,5.9983,5.125967,-1.6935912,6.9529533,-1
849,850,1583934154688,-4.4616,0.5433,7.0674,5.065919999999999,-1.6800209,7.755039699999999,-1
850,851,1583934154698,-4.6366997,0.5609,7.8497,4.804971,-1.7672081000000002,8.516961,-1
851,852,1583934154708,-5.013499700000001,0.6387,8.3861,4.2803254,-1.7726381999999998,8.987803999999999,-1
852,853,1583934154718,-5.4735,0.6523,8.3499,3.9463148,-2.0159178,8.8175,-1
853,854,1583934154728,-5.1721,0.4488,8.1809,4.6624875,-2.3076081000000004,8.75145,-1
854,855,1583934154739,-3.952,0.3125,8.0829,6.004188500000001,-2.5902197,8.552644,-1
855,856,1583934154749,-2.6685,0.2038,7.6583996,6.9487877000000005,-2.86404,8.1455145,-1
856,857,1583934154759,-2.1492,0.1761,7.6622,7.130613,-2.9087155,8.559156,-1
857,858,1583934154769,-2.495,0.4666,8.6376,6.323623,-2.624409,9.797158999999999,-1
858,859,1583934154779,-3.7540998,0.84349996,9.877299,4.831729,-2.5535118999999997,10.9102335,-1
859,860,1583934154789,-5.1479,0.8186,10.617599499999999,3.6097665,-2.7858262000000003,11.45978,-1
860,861,1583934154800,-5.7490997,0.5429999999999999,10.793699,3.4219462999999997,-3.3616699999999997,11.412776,-1
861,862,1583934154810,-5.0639,-0.1228,10.2431,4.562707,-4.213239700000001,10.577726,-1
862,863,1583934154820,-3.3379,-0.6139,9.0379,6.526249,-4.855384,9.271269,-1
863,864,1583934154830,-1.8894,-0.9328,8.206799499999999,7.402163000000001,-5.322128299999999,8.931607000000001,-1
864,865,1583934154840,-1.2346,-1.1029999,8.15,7.577667699999999,-5.395994,9.351656,-1
865,866,1583934154851,-1.219,-0.8638,8.7598,7.117501700000001,-5.2950735,9.999537,-1
866,867,1583934154861,-1.8824999,-0.7543,9.0851,6.1161127,-5.5711637000000005,9.88293,-1
867,868,1583934154871,-2.7429,-1.0152,8.743899,5.5611752999999995,-6.2080884,9.203378,-1
868,869,1583934154881,-2.904,-1.6775999,7.614,5.858688,-7.1985793000000005,7.521959299999999,-1
869,870,1583934154891,-2.0486,-2.5892,5.6731,7.271017999999999,-8.205378999999999,5.6932583,-1
870,871,1583934154901,-0.2446,-3.2793,4.1555,9.078764999999999,-8.622028,4.752998000000001,-1
871,872,1583934154912,1.4045999,-3.2949,3.5058,9.810817,-8.532322,4.703725,-1
872,873,1583934154922,1.6078999,-2.9113,3.8058,9.026974000000001,-8.185814,5.3890514000000005,-1
873,874,1583934154932,0.4315,-2.5059,4.5343,7.2180586,-8.131312,6.0339246,-1
874,875,1583934154942,-0.9226,-2.4645998,4.8852,6.249096400000001,-8.542454,6.090418,-1
875,876,1583934154952,-1.5935999,-2.8760000000000003,4.6874,6.6022315,-9.338142999999999,5.0874295,-1
876,877,1583934154962,-0.8691,-3.537,3.3348,8.197641,-9.992,3.2283225,-1
877,878,1583934154973,1.0152,-4.0354,1.252,10.1393585,-10.384754,1.1888552,-1
878,879,1583934154983,3.0507,-4.251,-0.82739997,11.422812,-10.4607935,0.16172354,-1
879,880,1583934154994,4.1651998,-4.1640997,-1.6387,11.047766000000001,-10.402892,0.6866379,-1
880,881,1583934155004,3.7986,-4.0379,-1.1751,9.647963,-10.380952,1.8929995,-1
881,882,1583934155014,2.4817,-3.9415,-0.0308,8.22391,-10.284360000000001,3.1792316,-1
882,883,1583934155025,1.1161,-3.7907998999999997,1.1859,7.222416,-10.255410000000001,3.1300836,-1
883,884,1583934155035,0.1937,-3.7173,1.0414,7.2164779999999995,-10.244407,1.7078991000000001,-1
884,885,1583934155045,0.2619,-3.6669998,-0.5111,8.40497,-10.000896000000001,-0.26136062,-1
885,886,1583934155056,1.5374,-3.3878998999999994,-2.6053998,9.810538000000001,-9.827451,-1.4780556999999999,-1
886,887,1583934155066,3.8797998,-3.375,-4.1379,10.619146,-10.142068,-1.4800763000000001,-1
887,888,1583934155076,3.8797998,-3.375,-4.1379,10.458036,-10.260045,-0.7906899000000001,-1
888,889,1583934155086,3.1057,-3.8629,-2.4194,9.474029,-10.767069000000001,0.3906571,-1
889,890,1583934155096,3.1057,-3.8629,-2.4194,8.647952,-11.126163,0.9020299,-1
890,891,1583934155107,1.4039999,-4.8854,-1.6747999,7.8348145,-11.871774,0.93824935,-1
891,892,1583934155117,1.5404999,-5.2395997,-2.5567,8.108951,-12.120273,-0.062306705999999996,-1
892,893,1583934155127,2.4368,-5.0467,-3.9419999999999997,9.009889,-11.870739,-1.3237444999999999,-1
893,894,1583934155137,3.2013998,-4.6299,-4.6909,9.592263,-11.4722,-1.8098441000000003,-1
894,895,1583934155147,3.1001,-4.3533998,-4.4761,9.271469999999999,-11.231899,-1.3769437,-1
895,896,1583934155158,3.1001,-4.3533998,-4.4761,8.656151,-10.967158,-0.75199956,-1
896,897,1583934155168,1.7059,-3.5869999999999997,-3.0384998,7.864167699999999,-10.413264,0.05719269,-1
897,898,1583934155178,1.3576,-3.2224998,-2.9178,7.6071740000000005,-10.11802,0.07786902,-1
898,899,1583934155188,1.5109,-3.0461,-3.5391,7.8662167,-9.884414,-0.8684823,-1
899,900,1583934155198,1.8886,-2.8313,-4.4634,8.219304,-9.687036500000001,-1.6089705,-1
900,901,1583934155208,2.0925999,-2.6173,-4.8851,8.312122,-9.51607,-1.7657621,-1
901,902,1583934155219,1.9535999,-2.3848999,-4.5059,8.043378,-9.199893,-1.0993983999999999,-1
902,903,1583934155229,1.5900999,-2.0764,-3.8497999,7.6437855,-8.843156,-0.5544205,-1
903,904,1583934155239,1.1247,-1.683,-3.4578,7.2189107,-8.431995,-0.26534456,-1
904,905,1583934155249,0.7382,-1.2428,-3.2386,6.861236,-8.012752,-0.08330864,-1
905,906,1583934155260,0.424,-0.9694,-3.0558999,6.5515704,-7.8205447,0.2223926,-1
906,907,1583934155269,0.07400000000000001,-0.9292,-2.5324,6.252333,-7.820947,0.8441955,-1
907,908,1583934155279,-0.1171,-0.9931,-2.0827,6.1899495,-7.923198700000001,1.0157449,-1
908,909,1583934155291,0.07400000000000001,-1.1014999,-2.2700999,6.600469,-7.996978299999999,0.5792053,-1
909,910,1583934155299,0.4992,-1.1372,-2.6906,6.9315586,-8.016860000000001,0.27875212,-1
910,911,1583934155309,0.7657,-1.0722,-2.7779999,7.0971894,-7.8798447,0.3412312,-1
911,912,1583934155319,0.7453,-0.8807,-2.6169,6.966715299999999,-7.661560499999999,0.44159612,-1
912,913,1583934155329,0.49859998,-0.5749,-2.491,6.7268543,-7.3474699999999995,0.6309583000000001,-1
913,914,1583934155340,0.21249999,-0.2909,-1.9770999,6.420396299999999,-7.168565299999999,1.3663614,-1
914,915,1583934155351,-0.1422,-0.34989998,-0.9034,5.9899287,-7.4469633,2.7618456,-1
915,916,1583934155361,-0.42569998,-0.71129996,0.23709999,5.8785024,-7.730494,3.5062415999999996,-1
916,917,1583934155371,-0.43089998,-0.88629997,0.5658,6.036328299999999,-7.9099827000000005,3.1334546000000003,-1
917,918,1583934155382,-0.17819999,-1.0825,-0.17469999,6.499223000000001,-7.951402000000001,2.086068,-1
918,919,1583934155392,0.3692,-0.99579996,-1.1652,7.049861,-7.751257000000001,1.3375255,d
919,920,1583934155402,0.7392,-0.82119995,-1.6248,7.2776837,-7.488699400000001,1.1432216999999998,-1
920,921,1583934155412,0.9586,-0.5114,-1.7873,7.2826447,-7.1871257,1.0422248,-1
921,922,1583934155422,0.8509,-0.27339998,-1.8618,6.973649000000001,-7.089403599999999,1.1449934,-1
922,923,1583934155433,0.3994,-0.243,-1.6053,6.359651,-7.3446064,1.7131087999999999,-1
923,924,1583934155443,-0.117199995,-0.5543,-1.0684999,6.0980315,-7.8094163,2.421936,-1
924,925,1583934155453,-0.27249998,-1.0188999,-0.3159,6.3846940000000005,-8.0943165,3.0660529999999997,-1
925,926,1583934155463,0.1314,-1.2641,0.1391,7.060970299999999,-8.300966,2.516852,-1
926,927,1583934155473,0.848,-1.4695,-0.70769995,7.767882000000001,-8.4651785,1.2136976000000002,-1
927,928,1583934155483,1.5766,-1.6084,-2.0434,8.424707000000001,-8.588403999999999,0.51572067,-1
928,929,1583934155494,2.2001,-1.7782999,-2.583,8.691728,-8.929358,0.7549397,-1
929,930,1583934155504,2.3799999,-2.146,-2.1692998,8.635446,-9.209871000000001,1.6379404,-1
930,931,1583934155514,2.1921,-2.4884999,-0.96,8.110913,-9.452423,2.8140392000000003,-1
931,932,1583934155524,1.7584,-2.6222,-0.2642,8.061008000000001,-9.465582000000001,2.4442215,-1
932,933,1583934155534,1.6846,-2.6541997999999998,-0.62509996,8.585761,-9.393094999999999,1.1660912,-1
933,934,1583934155545,2.1915,-2.6109998,-1.9187,9.446926,-9.378356,-0.13702495,-1
934,935,1583934155555,3.0203,-2.6271,-3.2096999,10.138506,-9.37238,-0.58248055,-1
935,936,1583934155565,3.6820998,-2.6429,-3.6348,10.423971,-9.553287,-0.032905906,-1
936,937,1583934155576,3.9157998999999997,-2.846,-3.0365999,10.144922,-9.769416,1.0798329,-1
937,938,1583934155586,3.1776,-3.3874998,-0.97169995,9.801747,-10.057725999999999,1.9434310000000001,-1
938,939,1583934155596,3.2519,-3.4641,-1.077,10.060311,-10.020787,1.6010792999999999,-1
939,940,1583934155606,3.2519,-3.4641,-1.077,10.575218,-9.608918,0.69418436,-1
940,941,1583934155616,3.9290998,-2.7303998,-2.7886999,10.804122,-9.1086645,-0.19859424,-1
941,942,1583934155626,3.8678,-2.3904,-3.2099,10.772719,-8.715228999999999,-0.44311884,-1
942,943,1583934155637,3.8678,-2.3904,-3.2099,10.630936,-8.512402999999999,0.020130448000000002,-1
943,944,1583934155647,3.2747998,-1.9798,-1.9354,10.332502999999999,-8.149087,0.9029684000000001,-1
944,945,1583934155658,3.0881998999999998,-1.7400999,-1.3834,10.27169,-7.850175999999999,1.3181133999999999,-1
945,946,1583934155667,3.0273,-1.6983,-1.3736,10.317314,-7.7426667,1.2151723,-1
946,947,1583934155677,3.1536,-1.6565,-1.2906,10.591316,-7.5974917,1.3502531999999998,-1
947,948,1583934155688,3.4571,-1.4957,-0.7775,10.95218,-7.3565392,1.829649,-1
948,949,1583934155698,3.5249,-1.4136,0.1752,11.034952,-7.2079644,3.1033258,-1
949,950,1583934155708,3.2384999,-1.5198,1.3218,10.736654,-7.294635,3.8598456,-1
950,951,1583934155718,2.8845,-1.7773,1.5620999,10.581778,-7.4916296,3.6867737999999997,-1
951,952,1583934155728,2.8558,-1.9808999,1.1365,10.768621000000001,-7.4815354,3.0372458,-1
952,953,1583934155739,3.0760999,-2.1004,0.3069,11.089607,-7.606675599999999,2.0704005000000003,-1
953,954,1583934155749,3.3,-2.419,-0.34649998,11.3681,-7.8164362999999994,1.7481502,-1
954,955,1583934155759,3.3055,-2.6069,0.0289,11.267515,-7.8452053,2.3625502999999997,-1
955,956,1583934155769,2.7949998,-2.6555998,1.1388999,10.847496000000001,-7.747750999999999,3.2943735,-1
956,957,1583934155779,2.0246,-2.5563,2.5793,9.964255999999999,-7.352019,4.855919999999999,-1
957,958,1583934155789,1.1567,-2.247,3.6913998,9.221009,-6.930476700000001,5.580070500000001,-1
958,959,1583934155799,0.4028,-2.116,3.9585998,8.78423,-6.809837299999999,5.269734,-1
959,960,1583934155810,0.2846,-2.1316,3.0395,8.994622999999999,-6.5876746,3.7651217000000003,-1
960,961,1583934155820,0.6046,-1.9706999,1.1809,9.391457,-6.297593,1.8882206999999998,-1
961,962,1583934155830,0.779,-1.8039,-0.078499995,9.594467,-5.946479,1.064577,-1
962,963,1583934155840,0.8143,-1.466,-0.1427,9.497779,-5.321458,1.3610749,-1
963,964,1583934155850,0.4456,-1.0583999,0.5552,8.98542,-4.718445,2.1552700000000002,-1
964,965,1583934155860,-0.3057,-0.6006,1.4602,8.102888,-4.107568700000001,2.8850322,-1
965,966,1583934155871,-1.2588999,-0.2834,2.2144,7.5019149999999994,-4.042514,3.302897,-1
966,967,1583934155881,-1.6838,-0.6665,2.6715999,7.5609660000000005,-4.472196,3.7277625,-1
967,968,1583934155891,-1.4521998999999999,-1.1761999,3.3102998999999995,7.995906,-4.649214,4.2939334,-1
968,969,1583934155901,-1.1233,-1.3999,3.7233998999999995,8.217437,-4.6146803,4.0796623,-1
969,970,1583934155911,-1.0619,-1.4584999,3.1687,8.158233000000001,-4.5426910000000005,3.1146553,-1
970,971,1583934155921,-1.1913999,-1.4531,2.1657999,8.198244,-4.1848540000000005,2.3420846,-1
971,972,1583934155932,-1.0713,-1.0407,1.7243998999999999,8.445001,-3.4322220999999997,2.40171,-1
972,973,1583934155942,-0.9097,-0.3217,2.0965,8.498526,-2.5493555,3.2317414,-1
973,974,1583934155952,-0.9726,0.2017,2.7853,8.268251,-2.3231224999999998,3.532089,-1
974,975,1583934155962,-1.3287,0.1585,3.1306998999999998,8.098301,-2.9692986,3.8402324,-1
975,976,1583934155972,-1.3295,-0.6809,3.4434,8.65433,-3.574294,3.9467554,-1
976,977,1583934155982,-0.7195,-1.3168,3.5470998,9.409193,-4.001592,3.631439,-1
977,978,1583934155993,-0.0287,-1.8036,3.1938,9.759982,-4.0991797,2.7634068,-1
978,979,1583934156003,0.21159999,-1.8844999,2.3234,9.639055,-3.7088962,1.9859904,-1
979,980,1583934156013,-0.0477,-1.5619999,1.6091,9.088868,-3.1736484000000003,1.3586425,-1
980,981,1583934156023,-0.63019997,-1.1293,0.98109996,8.542148,-2.4193504,1.1534307,-1
981,982,1583934156033,-1.1911,-0.4129,0.8951,8.016621,-1.5278358,1.5199159,-1
982,983,1583934156043,-1.7399,0.318,1.2924,7.7170195999999995,-1.1781483,2.237803,-1
983,984,1583934156054,-1.9624,0.3637,2.0576,8.089433,-1.8340925,3.4618144,-1
984,985,1583934156065,-1.6035999,-0.3215,3.0946,8.887889999999999,-2.399354,3.5562419999999997,-1
985,986,1583934156075,-0.81159997,-0.96739995,3.208,9.463417,-2.7398095000000002,2.2339625,-1
986,987,1583934156085,-0.2548,-1.3908,1.9004999,9.358628,-2.5401714,0.6826251999999999,-1
987,988,1583934156095,-0.36569998,-1.2791,0.3561,8.807655,-2.0007482,0.008532935,-1
988,989,1583934156105,-0.9381,-0.8505,-0.32389998,8.197201,-1.3738695,0.065658584,-1
989,990,1583934156116,-1.569,-0.3451,-0.2883,7.8017554,-0.6233734999999999,0.40852743,-1
990,991,1583934156126,-2.4045,0.63729995,0.1091,7.2492886,-0.07464163,0.49182647,-1
991,992,1583934156136,-2.4045,0.63729995,0.1091,6.752156299999999,0.17349344,0.56099015,-1
992,993,1583934156146,-3.4290998,0.5488,0.6989,6.3368487,-0.16555426,1.2080853999999999,-1
993,994,1583934156156,-3.248,-0.1806,1.4258,6.665582000000001,-0.7794274999999999,1.8405473,-1
994,995,1583934156166,-3.248,-0.1806,1.4258,6.9763589999999995,-0.97447836,1.7824064,-1
995,996,1583934156176,-2.7842,-0.5654,0.6999,6.9436636,-0.8518857,0.75200915,-1
996,997,1583934156187,-3.2077,-0.38099998,-0.221,6.4846663,-0.56487834,-0.04115154,-1
997,998,1583934156197,-3.8848998999999997,-0.014099998999999998,-0.6875,5.7866610000000005,-0.11066,-0.32768002,-1
998,999,1583934156207,-4.5411997,0.1787,-0.4687,5.143799,0.14557704,0.029257145,-1
999,1000,1583934156217,-4.9711,0.41799998,0.0345,4.819547,0.49028465,0.6001401999999999,-1
1000,1001,1583934156227,-4.7339997,0.75729996,0.3621,5.1918836,0.87602884,0.88001275,-1
1001,1002,1583934156238,-4.1833,1.0991,0.2126,5.7093476999999995,1.2705454,0.6554558000000001,-1
1002,1003,1583934156248,-3.7703998,1.2907,-0.0898,6.120997,1.4363773000000002,0.36564250000000004,-1
1003,1004,1583934156258,-3.2893,1.0512999,-0.6364,6.610237599999999,1.1649035,-0.23386562,-1
1004,1005,1583934156268,-2.6812,0.5139,-0.77669996,7.2306232,0.6594206,-0.17004578,-1
1005,1006,1583934156278,-2.4359,0.07400000000000001,0.0067999995999999995,7.2410429999999995,0.28248706,0.8324639000000001,-1
1006,1007,1583934156288,-2.9252,-0.124699995,0.7909999999999999,6.499808,0.22889526,1.4076853,-1
1007,1008,1583934156298,-3.8839,-0.2052,0.99829996,5.751246,0.26647463,1.396873,-1
1008,1009,1583934156309,-4.4983,-0.1148,0.7313,5.199143,0.56860375,1.0287693000000002,-1
1009,1010,1583934156319,-4.534,0.266,0.3552,5.415598,1.1195287,0.62310535,-1
1010,1011,1583934156329,-3.9524,0.8242,-0.1381,6.2114405999999995,1.6331617,0.07462248,-1
1011,1012,1583934156339,-2.9989,1.1858,-0.65849996,7.150676,1.8972995,-0.38197094,-1
1012,1013,1583934156350,-2.2031999,1.2566998999999999,-1.0009999,7.684985,1.897127,-0.58017254,-1
1013,1014,1583934156360,-1.7908,0.9309999999999999,-1.1179,8.102199,1.3608163999999998,-0.56199574,-1
1014,1015,1583934156370,-1.5554999,0.3804,-0.7715,8.320751,0.8268615,-0.10308475,-1
1015,1016,1583934156380,-1.291,-0.1334,-0.2782,8.680436,0.35305858,0.41712740000000004,-1
1016,1017,1583934156390,-1.0165,-0.3581,0.0491,8.817893,0.35854608,0.6170624,-1
1017,1018,1583934156400,-0.96669996,-0.26659998,0.146,8.7376,0.52664775,0.46682143,-1
1018,1019,1583934156410,-1.1218,-0.0554,-0.11229999,8.492980000000001,0.8513303,0.16852307,-1
1019,1020,1583934156420,-1.3641,0.2295,-0.3333,8.323375,1.0893329999999999,0.12551363,-1
1020,1021,1583934156430,-1.6455,0.46649998,-0.3706,7.9778056,1.2830622,0.11374374,-1
1021,1022,1583934156440,-1.9667,0.48349997,-0.3647,7.794065,1.1939309,0.23055205,-1
1022,1023,1583934156450,-1.9066999,0.3038,-0.1902,8.132452,0.9883839,0.37460637,-1
1023,1024,1583934156460,-1.4267,0.1063,-0.1283,8.464604,0.88152593,0.32189563,-1
1024,1025,1583934156471,-0.8304,-0.0037,-0.2598,9.05671,0.77630556,0.20366037,-1
1025,1026,1583934156481,-0.42069998,-0.0241,-0.069699995,9.380175999999999,0.7684622,0.5871349,d
1026,1027,1583934156491,-0.49069998,-0.0014,0.2409,9.064927,0.83848774,0.59395355,-1
1027,1028,1583934156502,-0.8533,0.1011,0.117199995,8.643068,1.1180729999999999,0.5037113,-1
1028,1029,1583934156512,-1.2047,0.3742,0.1008,8.291848,1.4224527,0.54284215,-1
1029,1030,1583934156523,-1.5552,0.6536,0.098799996,7.8813960000000005,1.610522,0.7032632,-1
1030,1031,1583934156533,-1.9754,0.8134,0.3241,7.636737299999999,1.7410921999999998,1.3450242000000001,-1
1031,1032,1583934156543,-2.1315,0.93939996,1.0166,7.7177567,1.8105527,1.9556031000000003,-1
1032,1033,1583934156553,-2.0244,0.9963,1.5483999,7.7936726,1.7600255,2.167739,-1
1033,1034,1583934156564,-1.9771999,0.9327,1.7088,7.742762,1.5435992,2.2050982000000006,-1
1034,1035,1583934156574,-2.0481,0.6856,1.7745,7.6358369999999995,1.110584,2.4747715,-1
1035,1036,1583934156584,-2.1285,0.2528,2.1389,7.753144,0.7370023,3.1144445,-1
1036,1037,1583934156594,-2.0026,-0.0716,2.8191,7.8427444,0.58935666,3.7409976,-1
1037,1038,1583934156605,-1.9449999,-0.1418,3.2979,7.6445713,0.69231695,3.8877047999999994,-1
1038,1039,1583934156615,-2.1322,-0.0188,3.4406,7.103031,0.8636843000000001,3.4463577000000005,-1
1039,1040,1583934156625,-2.6822,0.1608,2.9958,6.566490700000001,0.8197459,2.510196,-1
1040,1041,1583934156635,-3.2226,0.1352,2.0671,6.5078998,0.94221413,1.8958056,-1
1041,1042,1583934156645,-3.2733,0.2687,1.4623,6.706570599999999,1.3405231000000002,1.9555839,-1
1042,1043,1583934156656,-3.0793998,0.6779999999999999,1.5572,6.7473774,1.6415796000000002,2.6748404999999997,-1
1043,1044,1583934156666,-3.0425,0.9948,2.3107,6.3801837,2.1171832000000004,4.6243815,-1
1044,1045,1583934156676,-3.4073,1.4800999,4.3001,5.252993599999999,2.382336,7.176457000000001,-1
1045,1046,1583934156686,-5.5197,1.6603999,8.543799,4.131138,2.2237248,8.792428,-1
1046,1047,1583934156696,-5.5197,1.6603999,8.543799,3.7395132000000006,2.0449355,8.272704,-1
1047,1048,1583934156706,-5.7032,1.3561,6.1587,4.2878237,1.8243625,5.744782,-1
1048,1049,1583934156717,-4.5799,1.1328,3.4261,5.473892,1.4787834999999998,2.9918807000000003,-1
1049,1050,1583934156727,-3.4071998999999997,0.71029997,1.3585,6.6450396,0.9183486999999999,1.2123951000000002,-1
1050,1051,1583934156737,-2.1746,0.24219999,0.7994,7.885696,0.35229242,0.919067,-1
1051,1052,1583934156747,-2.1746,0.24219999,0.7994,8.428633999999999,-0.04073016,1.5627146,-1
1052,1053,1583934156757,-1.8729,-0.27969998,3.0962,7.6986419999999995,-0.28314787,3.3437996,-1
1053,1054,1583934156767,-3.2742999,-0.1157,4.5199,6.2533293,-0.080713324,4.665149700000001,-1
1054,1055,1583934156777,-4.6061,0.5622,5.9466,4.963879599999999,0.59745866,5.9575305,-1
1055,1056,1583934156787,-5.8589997,0.9557,6.6,3.724449,0.7328650999999999,6.2584243,-1
1056,1057,1583934156797,-6.4249,0.35689998,5.4744997,3.5009549,-0.12159672,4.7958636,-1
1057,1058,1583934156807,-5.1057997,-0.726,3.3581998,5.1498610000000005,-1.4253066,2.628412,-1
1058,1059,1583934156817,-2.5562,-1.9423,1.2939,7.743289,-2.8277438,0.58689547,-1
1059,1060,1583934156827,-0.3637,-2.8739,-0.64669997,9.71092,-3.8480282,-1.3075118000000001,-1
1060,1061,1583934156837,0.6267,-3.0693,-1.7840999,10.453372,-4.06342,-2.246987,-1
1061,1062,1583934156848,0.6576,-2.7711,-1.8002,10.32147,-3.9332998,-2.1785414,-1
1062,1063,1583934156858,0.3545,-2.6253,-1.6898999,10.044336999999999,-3.960067,-2.1687636,-1
1063,1064,1583934156868,0.4633,-2.5204,-1.8104999,10.280425,-4.0395737,-2.379444,-1
1064,1065,1583934156878,0.8983,-2.7844,-1.9782,10.650682000000002,-4.576823,-2.5555902,-1
1065,1066,1583934156888,1.3373,-3.7466998,-2.3040000000000003,11.081141,-5.8175077,-3.145301,-1
1066,1067,1583934156898,1.5156,-4.3290997,-3.1478,11.134025,-6.508655999999999,-4.295255,-1
1067,1068,1583934156909,1.6866,-4.8971,-4.7235,11.482256,-7.2778177,-6.139011,-1
1068,1069,1583934156919,2.35,-5.5197997,-6.5127997,12.336307000000001,-8.10399,-7.9355910000000005,-1
1069,1070,1583934156930,3.6829998,-6.2170997,-8.467,13.838132,-8.938206,-9.793788000000001,-1
1070,1071,1583934156939,5.4491,-6.829,-10.1385,15.570538,-9.572277,-11.142700999999999,-1
1071,1072,1583934156949,6.9972997,-7.0649,-10.9298,16.85493,-9.639593,-11.372372,-1
1072,1073,1583934156959,7.5765,-6.4512997,-10.5089,16.587393,-8.971246,-10.570199,-1
1073,1074,1583934156969,6.1043,-5.8213,-9.6473,14.599029000000002,-8.630857,-9.774625,-1
1074,1075,1583934156979,4.0632,-5.7360997000000005,-9.1419,12.849096000000001,-8.674969,-9.287088,-1
1075,1076,1583934156989,2.9108999,-5.8117,-9.0271,11.980461,-8.832411,-9.477075,-1
1076,1077,1583934156999,2.3969,-6.0041,-9.809199000000001,11.78408,-8.991586999999999,-10.287502,-1
1077,1078,1583934157010,2.6488,-5.9502997,-10.5480995,12.211721,-8.781587,-10.7890005,-1
1078,1079,1583934157020,3.1945,-5.4003,-10.9191,12.786685,-7.89624,-10.933678,-1
1079,1080,1583934157030,3.4234998,-4.5478,-10.9689,12.51295,-7.092726700000001,-10.671302,-1
1080,1081,1583934157040,2.9034,-3.8469,-10.5998,11.80395,-6.556895299999999,-9.833886999999999,-1
1081,1082,1583934157051,2.1543999,-3.3923,-9.537499,11.030585,-6.1912712999999995,-8.496362,-1
1082,1083,1583934157061,1.3454,-3.1274998,-8.3385,10.397262,-6.051891,-7.716435400000001,-1
1083,1084,1583934157071,0.5762,-3.1446998,-7.7732997,9.483701,-6.259018,-7.359775999999999,-1
1084,1085,1583934157081,-0.1228,-3.4313,-7.6334995999999995,9.033917,-6.4825215,-7.182011,-1
1085,1086,1583934157092,-0.3689,-3.5358998999999995,-7.4368,8.968163,-6.342231,-6.8170867,-1
1086,1087,1583934157102,-0.39729998,-3.3118,-7.0091996,8.948511,-6.0719733,-6.0228825,-1
1087,1088,1583934157112,-0.4148,-3.1046999,-6.3212,8.934078,-5.945501999999999,-5.47892,-1
1088,1089,1583934157122,-0.4016,-2.9635,-5.8139,8.933121,-5.837858,-5.10915,-1
1089,1090,1583934157132,-0.4359,-2.8874998,-5.5959,8.828014999999999,-5.8641760000000005,-4.834056400000001,-1
1090,1091,1583934157143,-0.607,-2.9269998,-5.0772,8.445814,-6.0167246,-3.6987349999999997,-1
1091,1092,1583934157153,-1.1615,-3.1327,-3.7254,7.5855875,-6.366489,-2.1684477,-1
1092,1093,1583934157163,-1.8736999,-3.4455998,-2.5621998,7.257687599999999,-6.5916686,-1.1843925,-1
1093,1094,1583934157174,-2.0557,-3.6273,-1.6262,7.485442599999999,-6.7185993,-0.5885139,-1
1094,1095,1583934157184,-1.8424,-3.7022998,-1.1845,8.016391,-6.9736009999999995,-0.62451315,-1
1095,1096,1583934157194,-1.2903,-3.9227998,-1.2459999,8.662336999999999,-7.2288704,-0.51649636,-1
1096,1097,1583934157204,-0.4493,-4.1935,-1.1725999,9.518475,-7.443506,-0.7165845999999999,-1
1097,1098,1583934157214,0.3744,-4.3244,-1.4756,9.924493,-7.5800233,-0.32175198,-1
1098,1099,1583934157224,0.6767,-4.423,-0.8368,9.688414999999999,-7.6934223,1.1656313999999999,-1
1099,1100,1583934157234,0.3062,-4.5065,0.6422,8.805807000000001,-7.655326,2.8276767999999994,-1
1100,1101,1583934157245,-0.4333,-4.4481997,1.9684,8.765862,-7.14946,4.0539293,-1
1101,1102,1583934157255,-0.46969998,-3.9348,3.1766999,9.077463,-6.40969,4.4872894,-1
1102,1103,1583934157265,-0.1617,-3.1927,3.5897,9.23367,-5.967529,4.420118,-1
1103,1104,1583934157276,0.0104,-2.7415,3.5007,9.190431,-5.7599225,4.4083953000000005,-1
1104,1105,1583934157285,-0.022699999,-2.4740999,3.4939999999999998,9.517536,-5.524324,4.7855015,-1
1105,1106,1583934157295,0.2967,-2.2633997999999997,3.8416997999999998,9.804217,-5.287997,5.543554,-1
1106,1107,1583934157305,0.5952,-2.0238,4.6031,9.604694,-5.090226,6.956314999999999,-1
1107,1108,1583934157316,0.3918,-1.8087,6.0224,9.136235000000001,-5.1812057000000005,8.448496,-1
1108,1109,1583934157325,-0.0764,-1.9021,7.5155997,8.943119,-5.19831,9.080948,-1
1109,1110,1583934157335,-0.22749999,-1.8957,8.158,9.456283,-5.120805000000001,9.019686,-1
1110,1111,1583934157345,0.2633,-1.8155999,7.9817,10.277935000000001,-4.995635500000001,8.575877,-1
1111,1112,1583934157357,1.8176999,-1.6019,7.4656,11.061460499999999,-4.934373,8.734498,-1
1112,1113,1583934157367,2.009,-1.6685,8.4618,11.115569,-5.0311275,9.933437,-1
1113,1114,1583934157377,1.5156,-1.7305,9.8707,10.5739155,-5.012606,11.334026,-1
1114,1115,1583934157387,1.0361999,-1.4713,11.005099000000001,10.153857,-4.6865253,12.360688,-1
1115,1116,1583934157398,0.8401,-1.2564,11.4191,10.00399,-4.499998000000001,12.55868,-1
1116,1117,1583934157408,0.86219996,-1.1305,10.597899,10.101999000000001,-4.3103004,11.607635499999999,-1
1117,1118,1583934157418,1.2789999,-0.88619995,9.4773,10.576463,-4.046268,10.555528,-1
1118,1119,1583934157428,1.8726,-0.73109996,8.462299,11.176899,-3.8658025,9.607175,-1
1119,1120,1583934157438,2.3553998,-0.6706,7.7098,11.71618,-3.7882495,8.837918,-1
1120,1121,1583934157448,2.6166,-0.6602,7.1703,11.82954,-3.6943872000000004,8.433766,-1
1121,1122,1583934157459,2.4194999,-0.49679998,7.0429997,11.548671,-3.4560014999999997,8.453553,-1
1122,1123,1583934157469,1.8143,-0.2778,7.2257,10.873037,-3.1298823,8.646161,-1
1123,1124,1583934157479,1.236,-0.0858,7.3859,10.359691999999999,-2.8400211,8.787784,-1
1124,1125,1583934157489,0.9332,0.0871,7.420099700000001,10.322925999999999,-2.6384966,8.550001,-1
1125,1126,1583934157499,1.2409999,0.12789999,6.7753,10.84173,-2.5677145,7.644753,-1
1126,1127,1583934157510,1.8557999,-0.011899999,5.763,11.437859,-2.7223606,6.614145,-1
1127,1128,1583934157520,2.2465,-0.34649998,4.6394,11.744814,-3.0241162999999998,5.4225316,-1
1128,1129,1583934157530,2.4703999,-0.6168,3.5117998,11.95604,-3.0905027,4.409439599999999,-1
1129,1130,1583934157540,2.5555,-0.5711,2.7194998,11.971899,-2.9053638,3.7918887000000003,-1
1130,1131,1583934157550,2.4522998,-0.54249996,2.4838998,11.883745,-2.8900888,3.8353386,-1
1131,1132,1583934157560,2.3764,-0.66679996,2.8407,11.791769,-2.8843045,4.413385400000001,-1
1132,1133,1583934157571,2.1424,-0.78429997,3.4958,11.474269999999999,-3.0234747000000004,4.7645669999999996,-1
1133,1134,1583934157581,1.8305999,-1.0991,3.6053998,11.296456,-3.2957910000000004,4.495410400000001,-1
1134,1135,1583934157591,1.7269,-1.4907,3.2396998,11.421836,-3.6018083,3.8455858,-1
1135,1136,1583934157602,2.0181,-1.8197999,2.5437999,11.872156,-3.6872239999999996,3.2526379,-1
1136,1137,1583934157612,2.4099,-1.9319998999999999,2.1901,12.166912,-3.6383152,3.0342581,-1
1137,1138,1583934157622,2.6064,-1.9304999,1.9087,12.275944,-3.4117949999999997,2.5144767999999997,-1
1138,1139,1583934157632,2.6160997999999998,-1.7606,1.2184,12.11399,-3.1055669999999997,1.2214643,-1
1139,1140,1583934157642,2.3697999,-1.6487,0.1173,11.757244,-3.0787423,0.52983683,-1
1140,1141,1583934157652,1.9747,-1.78,-0.3029,11.3216915,-3.2464895,0.8735963,-1
1141,1142,1583934157663,1.5195999,-2.1138,0.26,10.933333,-3.4069011,1.6056283000000002,-1
1142,1143,1583934157673,1.1143,-2.335,1.1252999,10.641575,-3.3200874,2.0851867,-1
1143,1144,1583934157683,0.6922,-2.3346,1.6478,10.149825,-3.0088508,1.6499113999999997,-1
1144,1145,1583934157693,0.33249998,-2.1692998,1.0309,10.099566000000001,-2.5897794,0.6698689,-1
1145,1146,1583934157704,0.31939998,-1.8666999,0.146,10.08885,-2.1927822,-0.027255592999999998,-1
1146,1147,1583934157714,0.2307,-1.6423,-0.2898,9.5858755,-1.9806752,0.2422549,-1
1147,1148,1583934157724,-0.3752,-1.5874,0.22379999,8.837295,-1.8881153999999998,0.6714011999999999,-1
1148,1149,1583934157734,-1.1255,-1.6513,0.6246,8.185564999999999,-1.6316773,0.49130934,-1
1149,1150,1583934157744,-1.6962,-1.4932,0.4604,8.004909,-1.2432611,0.027121517999999997,-1
1150,1151,1583934157754,-1.7642,-1.1961,0.0033,8.294108,-0.8616349,-0.8645271000000001,-1
1151,1152,1583934157765,-1.4676,-0.9855,-0.8379,8.5319195,-0.62931114,-1.7424233,-1
1152,1153,1583934157775,-1.2773,-0.8951,-1.469,8.553449,-0.49487190000000003,-2.231827,-1
1153,1154,1583934157785,-1.2422999,-0.8634,-1.9015,8.198014,-0.23105961,-2.2687168,-1
1154,1155,1583934157795,-1.5975,-0.71889997,-1.8564999,7.538728,-0.062728085,-2.1060357000000005,-1
1155,1156,1583934157806,-2.889,-0.7165,-1.4189,6.768886999999999,0.029994559,-1.9784917000000002,-1
1156,1157,1583934157816,-2.889,-0.7165,-1.4189,6.48301,0.099397674,-1.9955193,-1
1157,1158,1583934157826,-3.2773,-0.7521,-1.3531,6.425683,0.44331998,-2.200185,-1
1158,1159,1583934157836,-3.3216,-0.5185,-1.4837999,6.0392209999999995,0.98654515,-2.905067,-1
1159,1160,1583934157846,-4.1927,0.23959999,-2.2048,5.3708267,1.4893945,-2.9835966,-1
1160,1161,1583934157857,-4.9203997,0.36089998,-1.8087,4.665935,1.6625048999999998,-2.546808,-1
1161,1162,1583934157867,-5.402199700000001,0.45929998,-1.0282,4.187812999999999,1.8778394,-1.8186547999999998,-1
1162,1163,1583934157877,-5.8159,0.53889996,-0.6615,3.7809522000000007,2.026826,-1.6689596999999998,-1
1163,1164,1583934157888,-6.0738997,0.6699,-0.84779996,3.5351825,2.2579045,-1.9607744999999999,-1
1164,1165,1583934157897,-6.1768,0.8628,-1.2062,3.4478803,2.4864361,-2.361382,-1
1165,1166,1583934157907,-6.0861998,0.8818,-1.5646,3.5977572999999996,2.5569593999999998,-2.7315257,-1
1166,1167,1583934157917,-5.8409,1.0565,-1.795,3.7585040000000003,2.785778,-2.938902,-1
1167,1168,1583934157927,-6.0676,1.1962,-1.6493,3.42616,2.9404724,-2.7222266,-1
1168,1169,1583934157937,-6.0676,1.1962,-1.6493,2.913954,2.944418,-2.5600624,-1
1169,1170,1583934157948,-7.2658,1.1865,-1.1833,2.1222777,3.0102584,-2.3684208,-1
1170,1171,1583934157958,-7.6298,1.2119,-1.3462,1.8985541000000001,3.063764,-2.8021066,-1
1171,1172,1583934157968,-7.5636997,1.2979,-1.8274,2.119855,3.167481,-3.2017374,-1
1172,1173,1583934157979,-7.2542,1.4056,-1.9138,2.3929374,3.2603855,-3.1593310000000003,-1
1173,1174,1583934157989,-7.1031,1.4532,-1.5985,2.4612203,3.2742815,-2.758494,-1
1174,1175,1583934157999,-7.1006,1.4985,-1.1187,2.38994,3.3513653,-2.428563,-1
1175,1176,1583934158009,-7.2576,1.6121999,-1.0572,2.2510092,3.4569879,-2.6383722,-1
1176,1177,1583934158019,-7.3293996,1.8939999,-1.5130999,2.202522,3.789303,-3.1579616,-1
1177,1178,1583934158029,-7.4526,2.3144,-1.8757,1.9716538000000001,4.0482025,-3.3914058,-1
1178,1179,1583934158039,-7.8711996,2.3416997999999998,-2.0119,1.4991916,3.8599703,-3.6686735,-1
1179,1180,1583934158050,-8.2809,2.0839,-2.4020998,1.223801,3.4380546,-4.085878,-1
1180,1181,1583934158060,-8.230599,1.5746,-2.7494,1.5941936,2.7735486000000003,-4.3477745,-1
1181,1182,1583934158070,-7.4849,0.9622,-2.7395,2.394786,2.0944667000000003,-4.037687,-1
1182,1183,1583934158080,-6.897,0.52669996,-1.8215,2.731449,1.5649939,-2.6491077,-1
1183,1184,1583934158090,-7.017299700000001,0.21519999,-0.536,2.1899667000000003,1.1581712,-1.4811586,-1
1184,1185,1583934158100,-7.7778997,-0.1255,0.3971,1.4310143999999998,0.64928836,-0.98258036,-1
1185,1186,1583934158111,-8.3757,-0.4588,0.5421,1.3320572,0.32708627,-1.1759552,-1
1186,1187,1583934158121,-8.1331,-0.4861,0.2437,1.8268908,0.16336118,-1.2922848,-1
1187,1188,1583934158131,-7.3415,-0.7076,0.1488,2.8494544,-0.49822378,-1.1914791999999998,-1
1188,1189,1583934158141,-6.527199700000001,-1.0533999,0.2881,3.7348971,-0.8056871999999999,-0.89671475,-1
1189,1190,1583934158152,-5.6678,-1.0018,0.4199,4.4282775,-1.0159651,-1.2254194,-1
1190,1191,1583934158162,-5.2625,-1.0971,-0.0379,4.4308819999999995,-1.5504276000000001,-1.3761871,-1
1191,1192,1583934158173,-5.3311,-1.4209,-0.0252,4.190935,-1.8948669999999999,-0.44188344,-1
1192,1193,1583934158183,-5.639199700000001,-1.5691998999999999,1.0896,3.5944724000000003,-2.5940982999999997,0.8925871,-1
1193,1194,1583934158193,-6.2569,-2.182,2.3213,3.128216,-3.4858427000000005,1.6376436,-1
1194,1195,1583934158203,-6.5683,-2.7475998,2.9183998,3.6085312000000007,-3.8793727999999996,1.8526716,-1
1195,1196,1583934158214,-5.8761997,-2.8446999,2.9456,4.6535044,-3.8319678,1.487374,-1
1196,1197,1583934158223,-4.8248,-2.4095,2.3915,5.54318,-3.4680586000000004,0.83923477,-1
1197,1198,1583934158233,-3.9399998,-1.8156999,1.6142,6.2712665,-3.6608013999999995,-0.054875102,-1
1198,1199,1583934158243,-3.1706,-1.8663,0.6044,6.8149705,-4.171044,-0.44064805,-1
1199,1200,1583934158253,-2.7233,-2.1104998999999998,0.45369998,6.444443700000001,-4.8771133,0.1497238,-1
1200,1201,1583934158263,-3.1984,-2.6013,1.0526,5.5188456,-5.823685,1.0067331,-1
1201,1202,1583934158274,-4.0288997,-3.3147,2.0807,5.0153356,-6.9060745,2.4656255000000002,-1
1202,1203,1583934158284,-4.341,-4.1507998,3.5328,5.098424,-7.774547599999999,2.9896684,-1
1203,1204,1583934158294,-4.025,-4.5972,3.7048997999999997,5.912653400000001,-7.9617357,2.4984452999999998,-1
1204,1205,1583934158304,-2.9801998,-4.4047,3.0628,7.2951326000000005,-7.949936999999999,1.9136183999999998,-1
1205,1206,1583934158314,-1.4574,-4.0677,2.3832,7.984317999999999,-8.106624,1.5425267,-1
1206,1207,1583934158324,-0.88799995,-3.9204,1.9679999,7.159735700000001,-9.207774,1.6230581,-1
1207,1208,1583934158335,-1.5603,-4.7012997,1.9204999,6.83015,-10.399797999999999,1.8605245,-1
1208,1209,1583934158345,-1.7009,-5.805,2.1045,7.551226,-11.471875,1.5893667999999999,-1
1209,1210,1583934158355,-0.82909995,-6.3461,1.6982,9.173297999999999,-12.012936,0.96281385,-1
1210,1211,1583934158365,0.9737,-6.602999700000001,0.99619997,10.984597,-11.928497,1.0557185,-1
1211,1212,1583934158375,2.9878,-6.237,1.0323,11.587543499999999,-11.656257,1.1539669,-1
1212,1213,1583934158386,3.7682,-5.7114997,1.0705,11.225358,-11.700512,2.2284174,-1
1213,1214,1583934158396,3.6067,-5.5083,2.0714,10.1831045,-12.636252,3.575568,-1
1214,1215,1583934158406,2.6367,-6.854099799999999,3.6167998,9.8721075,-13.746243,4.048614,-1
1215,1216,1583934158416,2.6367,-6.854099799999999,3.6167998,10.2321,-14.667512,4.1594370000000005,-1
1216,1217,1583934158426,4.7016,-8.6467,2.3906999,12.077752,-15.947806,2.3586526,-1
1217,1218,1583934158437,4.7016,-8.6467,2.3906999,13.345529999999998,-15.99412,1.0709647,-1
1218,1219,1583934158447,9.6517,-7.843499700000001,-1.8845999,16.111713,-15.253632000000001,-1.0379918,-1
1219,1220,1583934158457,10.1754,-7.634999799999999,-1.5273,16.085117,-15.396173000000001,-0.18463126,-1
1220,1221,1583934158467,10.1754,-7.634999799999999,-1.5273,15.034533499999998,-15.835892000000001,1.76762,-1
1221,1222,1583934158477,7.7035,-8.149799,2.8936,13.175483999999999,-16.035232999999998,4.1825647,-1
1222,1223,1583934158487,6.727699799999999,-7.7485,3.0588999,12.194857,-15.6042185,4.0690703,-1
1223,1224,1583934158498,6.4465,-6.6907,2.0667,11.937536999999999,-14.515604000000002,3.0376003,-1
1224,1225,1583934158508,6.7039,-5.5916,0.24929999,12.07735,-13.549707000000001,1.1522622,-1
1225,1226,1583934158518,6.9528,-4.7261,-1.7549,12.210409,-12.754305,-0.5546215999999999,-1
1226,1227,1583934158528,7.2802997000000005,-4.0348997,-2.4015,12.493174,-12.164565,-0.99445564,-1
1227,1228,1583934158538,7.4649997,-3.7243,-2.5469,12.47472,-11.917492999999999,-0.9597589,-1
1228,1229,1583934158548,7.1629996,-3.4536,-2.0708,11.794747000000001,-11.639517,-0.22583069,-1
1229,1230,1583934158559,6.0741,-3.0967,-0.97669995,10.453382000000001,-11.319279,0.939887,-1
1230,1231,1583934158569,4.6498,-2.6813998,-0.0179,9.087527,-10.828878999999999,1.5570546,-1
1231,1232,1583934158579,3.5412,-2.1639,0.166,8.180307,-10.314010000000001,1.5766106000000002,-1
1232,1233,1583934158589,3.0609,-1.5986999,-0.034199997999999995,7.9224423999999996,-9.762184,1.4166586,-1
1233,1234,1583934158599,3.1009998,-1.1412,-0.37109998,7.984088000000001,-9.375244,1.0430197,-1
1234,1235,1583934158610,3.1260998,-0.7536,-0.97609997,7.8776226,-8.880008,0.4892215999999999,-1
1235,1236,1583934158620,3.049,-0.33929998,-1.3989999,7.766598700000001,-8.622314999999999,0.48118666,-1
1236,1237,1583934158630,2.9594,-0.1828,-1.2772,7.558859,-8.443832,0.95012456,-1
1237,1238,1583934158640,2.6653,0.0587,-0.65099996,7.0495834,-8.217379,1.7332393,-1
1238,1239,1583934158650,2.0212,0.1696,0.081199996,6.456654,-8.2013,2.2627027,-1
1239,1240,1583934158660,1.2579,0.1695,0.61219996,5.5661836,-8.180872,2.615972,-1
1240,1241,1583934158671,0.5624,0.2078,0.622,5.186617,-8.100533,2.3911562,-1
1241,1242,1583934158681,0.3737,0.2672,0.35709998,5.1481657,-8.094509,2.1699705000000002,-1
1242,1243,1583934158691,0.3804,0.19219999,0.17099999,5.2773857,-8.282262,2.188109,-1
1243,1244,1583934158701,0.5815,-0.055999997999999995,0.21429999,5.591907,-8.530981,2.0326676,d
1244,1245,1583934158711,0.9623,-0.24409999,-0.17539999,6.0106816,-8.656898,1.5740153000000001,-1
1245,1246,1583934158721,1.37,-0.413,-0.6393,6.333094,-8.890083,1.2330618,-1
1246,1247,1583934158732,1.6134,-0.6328,-0.867,6.3540964,-9.050092,1.2566686000000002,-1
1247,1248,1583934158742,1.4647,-0.7479,-0.64449996,6.0131335,-9.143342,1.9235016,-1
1248,1249,1583934158753,1.1421,-0.83739996,-0.018000000000000002,5.722506,-9.09812,2.1538142999999996,-1
1249,1250,1583934158763,0.8365,-0.7931,0.0414,5.454451000000001,-9.123047999999999,1.9791811999999998,-1
1250,1251,1583934158773,0.5816,-0.8491,-0.1174,5.377741,-9.180355,1.9648447,-1
1251,1252,1583934158783,0.4965,-0.91499996,-0.1362,5.4282107,-9.172761999999999,2.1826882000000003,-1
1252,1253,1583934158793,0.5811,-0.92069995,0.0994,5.636822,-9.101452,2.4627428,-1
1253,1254,1583934158803,0.7929999999999999,-0.8563,0.28239998,5.861264,-9.10332,2.1679304,-1
1254,1255,1583934158814,1.0225999,-0.88949996,-0.1361,6.3760753,-9.2568655,1.6270803,-1
1255,1256,1583934158824,1.5920999,-1.0993,-0.6451,7.0472465,-9.476758,1.3430035,-1
1256,1257,1583934158834,2.1962,-1.3001,-0.8716,7.3830094,-9.571166,1.5061828000000002,-1
1257,1258,1583934158845,2.3997998,-1.4268,-0.5757,7.077490299999999,-9.843904499999999,2.2814922,-1
1258,1259,1583934158855,2.0564,-1.6872,0.0875,6.7676324999999995,-10.081495,2.5610297,-1
1259,1260,1583934158865,1.7012,-1.9628999,0.3442,6.873580499999999,-10.095839999999999,2.1508167,-1
1260,1261,1583934158875,1.8686999,-2.0159,-0.1012,7.641889599999999,-10.054115,1.7385351999999998,-1
1261,1262,1583934158886,2.4989998,-2.0005,-0.55039996,8.399759,-10.207804,1.6544508000000002,-1
1262,1263,1583934158895,3.1165,-2.1618,-0.68799996,8.697042999999999,-10.362833,1.8720453999999997,-1
1263,1264,1583934158905,3.471,-2.3837,-0.4588,9.022233,-10.6577215,2.2606243999999998,-1
1264,1265,1583934158915,3.737,-2.7072,-0.070099995,9.356024,-10.83542,2.482816,-1
1265,1266,1583934158926,4.3598,-2.9582999,0.3586,9.863431,-10.793339,2.7316597000000002,-1
1266,1267,1583934158936,4.5912,-3.123,0.371,10.153637,-10.9714,2.673557,-1
1267,1268,1583934158946,4.7879,-3.3929,0.2394,10.44661,-11.132817,2.5223298,-1
1268,1269,1583934158956,5.0592,-3.4536998,-0.1546,10.821819999999999,-11.107305,2.1069646,-1
1269,1270,1583934158966,5.3377,-3.5502,-0.4583,11.210026,-11.134877000000001,1.9134556,-1
1270,1271,1583934158976,5.7009,-3.6910000000000003,-0.2827,11.667902,-11.218406,2.1281962000000005,-1
1271,1272,1583934158987,5.8719997,-3.8672,-0.2512,11.890027,-11.297673,2.1787236,-1
1272,1273,1583934158997,5.8719997,-3.8672,-0.2512,11.906997,-11.362239,2.5252602000000004,-1
1273,1274,1583934159007,5.6120996,-4.1934,0.1564,11.810578,-11.414883999999999,2.5292346,-1
1274,1275,1583934159017,5.3943,-4.3055997,0.21689999,11.730525,-11.386393,2.6038954,-1
1275,1276,1583934159027,5.0782,-4.3479,0.2941,11.549093,-11.305325,2.5752417999999997,-1
1276,1277,1583934159038,4.6952,-4.3025,0.24419999,11.300124,-11.074878,2.5060778,-1
1277,1278,1583934159048,4.6952,-4.3025,0.24419999,11.014764999999999,-10.743022999999999,2.4828255,-1
1278,1279,1583934159058,3.5205,-3.7817,0.6271,10.447339,-10.245708,2.8448189999999998,-1
1279,1280,1583934159068,2.9294999,-3.5103,1.2745999,9.949996,-9.765058,3.5693812000000005,-1
1280,1281,1583934159079,2.3987,-3.3144998999999995,1.9559,9.646334,-9.381008999999999,4.07587,-1
1281,1282,1583934159089,2.0093,-3.0843,2.1966,9.452596,-8.995485,3.9238477,-1
1282,1283,1583934159099,1.7329999,-3.0051,1.742,9.397308,-8.842907,3.2270105,-1
1283,1284,1583934159109,1.6574,-3.1543999,1.1269,9.632773,-8.847714,2.656386,-1
1284,1285,1583934159119,1.8791,-3.2774,0.8886,9.968327,-8.713037,2.4886193,-1
1285,1286,1583934159130,1.9147999,-3.1634,1.1349,9.949652,-8.306061,2.757268,-1
1286,1287,1583934159140,1.2824,-2.8284,1.8298999,8.9369135,-7.601705,3.7494826,-1
1287,1288,1583934159151,0.061899997000000005,-2.4306997999999997,3.0061,7.833904700000001,-6.997495,4.9446487,-1
1288,1289,1583934159161,-1.1618,-2.1590000000000003,4.2636,6.762758,-6.707298799999999,5.767316,-1
1289,1290,1583934159171,-2.3039,-2.2182,4.8599997,6.1161227,-6.6248135999999995,5.700661,-1
1290,1291,1583934159181,-2.6738,-2.3818998,4.5754,6.483249,-6.600267999999999,4.8678813,-1
1291,1292,1583934159191,-2.055,-2.5072,3.5052,7.441849,-6.405370700000001,3.4758732000000006,-1
1292,1293,1583934159202,-1.1886,-2.4054,2.0636,8.203972,-5.9654503,1.9583898999999998,-1
1293,1294,1583934159212,-0.78749996,-2.059,0.7272,8.198475,-5.340123,0.99734783,-1
1294,1295,1583934159222,-1.0713,-1.6029999,0.104899995,7.876205400000001,-4.6474805,0.6963583000000001,-1
1295,1296,1583934159233,-1.3738999,-1.2447,0.011399999,7.992717,-3.9382224000000003,0.73482835,-1
1296,1297,1583934159242,-1.2912999,-0.70489997,0.1264,7.9330053,-3.4712956,0.78736675,-1
1297,1298,1583934159252,-1.5091,-0.6095,0.2658,7.5345526,-3.5654356,0.9736548,-1
1298,1299,1583934159262,-2.253,-0.9709,0.6921,6.597337700000001,-3.6496157999999994,1.4270687,-1
1299,1300,1583934159273,-3.2861998,-1.2185,1.1923,5.735214,-3.4786217000000006,1.6194763,-1
1300,1301,1583934159283,-3.8906998999999995,-1.2085999,1.2818999,5.660735,-3.2447082999999997,1.3614005,-1
1301,1302,1583934159293,-3.8697,-1.1328,1.0885999,6.2088447,-2.4373548,1.0862492,-1
1302,1303,1583934159303,-3.3318,-0.4116,0.8394,6.613417,-1.4183825,0.7024205,-1
1303,1304,1583934159313,-3.053,0.354,0.4358,6.491849,-0.8790934000000001,0.26250029999999996,-1
1304,1305,1583934159323,-3.4657998,0.7302,-0.12529999,5.636698,-0.5030122,-0.24928428,-1
1305,1306,1583934159333,-4.2662997,0.73929995,-0.3669,4.881136,-0.5001487,-0.044829033,-1
1306,1307,1583934159344,-4.9834,0.5744,-0.021599998999999998,4.404335,-0.5397776,0.61041605,-1
1307,1308,1583934159354,-5.4012,0.3709,0.7351,4.8183403,-0.9020585999999999,1.1830708,-1
1308,1309,1583934159364,-4.7353997,-0.29799998,1.2608,6.126523000000001,-1.5933795,0.94009763,-1
1309,1310,1583934159374,-3.3895,-0.94869995,0.87299997,7.2679057,-1.3937893,-0.47655147,-1
1310,1311,1583934159385,-2.3264,-0.6956,-0.6028,7.9752483,-0.5672726,-1.8855008999999998,-1
1311,1312,1583934159395,-1.8317,-0.1266,-1.6567999,7.529161,-0.24342328,-1.8248318,-1
1312,1313,1583934159406,-2.4643,0.1231,-1.4318999,6.076646299999999,-0.15194562,-0.68084395,-1
1313,1314,1583934159418,-5.0775,-0.1502,0.21249999,4.5214405,-0.13539690000000001,0.08517612,-1
1314,1315,1583934159428,-5.752999999999999,-0.1273,0.52309996,4.040119600000001,0.029276298,0.2655074,-1
1315,1316,1583934159439,-5.4364,-0.080299996,0.1278,4.739034999999999,0.37426159999999997,-0.37105337,-1
1316,1317,1583934159449,-4.5017,0.42299998,-0.3757,5.5882106,0.9560526,-0.77120113,-1
1317,1318,1583934159459,-3.9692,0.63199997,-0.4161,5.9047046,0.8470110999999999,-0.6188437,-1
1318,1319,1583934159469,-3.8685,-0.0229,-0.0867,5.970008999999999,0.19716729,-0.31048965,-1
1319,1320,1583934159479,-3.7877,-0.50049996,-0.105399996,6.005367,-0.02899857,-0.5000051,-1
1320,1321,1583934159489,-3.9029998999999997,-0.5972,-0.6236,5.780206,-0.043469127,-0.99865985,-1
1321,1322,1583934159499,-4.2044,-0.6106,-0.6368,5.462055,0.1606605,-0.7275117,-1
1322,1323,1583934159509,-4.4558,-0.22639999,-0.37799999999999995,5.3397879999999995,0.7464259,-0.5195131,-1
1323,1324,1583934159519,-4.3536,0.36479998,-0.3315,5.5635405,1.3724234,-0.43331220000000004,-1
1324,1325,1583934159529,-4.0548997,0.88259995,-0.1699,5.757605,1.8211639,-0.24290612,-1
1325,1326,1583934159539,-4.0603,1.1913999,-0.1643,5.6472225,2.1008737,-0.3928406,-1
1326,1327,1583934159551,-4.1836,1.1249,-0.5538,5.6496363,1.9212033,-0.74174285,-1
1327,1328,1583934159561,-3.9545,0.8124,-0.71739995,6.26666,1.5999299999999999,-0.7814866,-1
1328,1329,1583934159571,-3.1671,0.4789,-0.7115,7.0371814,1.3263782,-0.64836895,-1
1329,1330,1583934159581,-2.5072,0.2545,-0.36519998,7.361068700000001,1.2045325,-0.07578127,-1
