,Seq,Time,ACCx,ACCy,ACCz,ADGx,ADGy,ADGz,Keydown
0,1,1583934178964,0.88019997,-0.078999996,-2.4506,6.333468,-7.827239,0.26222253,-1
1,2,1583934178974,0.88019997,-0.078999996,-2.4506,10.542857000000001,0.57263553,-0.34975454,-1
2,3,1583934178985,0.7446,0.039499998,-0.0242,10.324889,0.4044477,-0.12196063,-1
3,4,1583934178995,0.5286,-0.1231,0.19309999,9.898128,0.06249824,0.5626661000000001,-1
4,5,1583934179005,0.096499994,-0.48139998,0.8197,9.596333999999999,-0.10872549,0.9539553,-1
5,6,1583934179015,-0.19909999,-0.6238,1.1621,9.4320345,-0.006311115999999999,1.0082654,-1
6,7,1583934179025,-0.3789,-0.4955,1.127,9.40068,0.11523772,0.8645079,-1
7,8,1583934179035,-0.4026,-0.3143,0.8068,9.505939,0.25213817,0.66894954,-1
8,9,1583934179045,-0.3041,-0.061499998,0.3482,9.720258,0.28593472,0.36473268,-1
9,10,1583934179056,0.3175,0.0158,-0.436,10.118576,0.24428518,0.04191768,-1
10,11,1583934179066,0.3175,0.0158,-0.436,10.537189,0.14768395,-0.19246508,-1
11,12,1583934179076,0.9734,-0.14800000000000002,-0.88259995,10.782153,0.063388884,-0.44232398,-1
12,13,1583934179086,0.9141,-0.1558,-0.8351,10.672403,0.06811982400000001,-0.37688565,-1
13,14,1583934179096,0.5604,-0.10529999400000001,-0.7581,10.2671995,0.13337620000000003,-0.36429214,-1
14,15,1583934179106,0.078899994,0.0154,-0.77459997,9.887363,0.24794352,-0.38837785,-1
15,16,1583934179117,0.078899994,0.0154,-0.77459997,9.613093,0.37327522,-0.16322709999999999,-1
16,17,1583934179127,-0.29600000000000004,0.2575,0.0178,9.526221000000001,0.58587074,0.45246583,-1
17,18,1583934179138,-0.3065,0.34219998,0.3019,9.581432000000001,0.70576274,0.66346204,-1
18,19,1583934179148,-0.081,0.3867,0.4452,9.767882,0.6901813,0.66857606,-1
19,20,1583934179158,0.0761,0.24509999,0.67249995,9.878389,0.5633748000000001,0.98197705,-1
20,21,1583934179168,0.018099999,0.23789999,0.9526,9.764416,0.6569785,1.201056,-1
21,22,1583934179178,-0.2647,0.3322,0.9325,9.396399,0.7724652,0.9857503000000001,-1
22,23,1583934179188,-0.5372,0.3611,0.4211,9.259145,0.8029099000000001,0.3869413,-1
23,24,1583934179199,-0.4172,0.3691,-0.2332,9.544686,0.92805004,-0.28825232,-1
24,25,1583934179209,0.0061999997,0.518,-0.86869997,9.94763,1.0863546,-0.78914803,-1
25,26,1583934179219,0.30179998,0.49429998,-1.0271,10.131869,0.9575849,-0.6452374,-1
26,27,1583934179229,0.25439999,0.282,-0.3849,9.914541999999999,0.8281735,0.17796579999999998,-1
27,28,1583934179240,-0.0964,0.1516,0.5681,9.513246,0.74626315,1.1067915000000002,-1
28,29,1583934179250,-0.5345,0.0639,1.4354,9.085986,0.75138664,1.8312291,-1
29,30,1583934179260,-0.9514,0.085099995,1.7684,8.641957000000001,0.9289886,2.018379,-1
30,31,1583934179270,-1.232,0.2014,1.7662,8.4973955,1.0534393,2.0220854,-1
31,32,1583934179280,-1.249,0.2922,1.7601999,8.534736,1.1322371999999998,1.9753218000000001,-1
32,33,1583934179290,-1.1489999,0.39209998,1.6347,8.772202499999999,1.2369978000000001,1.8629378,-1
33,34,1583934179301,-0.93179995,0.4297,1.5166,8.940619,1.2616006000000002,1.8011580000000003,-1
34,35,1583934179311,-0.7931,0.4016,1.5054,8.959457,1.2022437,1.9445226999999998,-1
35,36,1583934179321,-0.88979995,0.3051,1.6897,8.743194,1.0851861999999999,2.1338562999999997,-1
36,37,1583934179332,-1.1431999,0.19759999,1.8851,8.414843,0.99477166,2.518662,-1
37,38,1583934179342,-1.4160999,0.1092,2.2073998,8.199278999999999,0.92486095,2.7650924,-1
38,39,1583934179352,-1.6595999,0.0222,2.438,7.932803999999999,0.86524534,2.8469355,-1
39,40,1583934179363,-1.854,-0.0324,2.3894,7.8915663,0.8312476999999999,2.6875298,-1
40,41,1583934179373,-1.8622999,-0.0635,2.1725,7.897465700000001,0.83481985,2.432126,-1
41,42,1583934179383,-1.8709999,-0.0611,1.92,7.887247599999999,0.83280873,2.3430138,-1
42,43,1583934179393,-1.8998,-0.0372,1.8318,7.742858,0.90488374,2.2277377,-1
43,44,1583934179403,-2.0467,0.0457,1.6731,7.5573936,1.0155534,2.1428394,-1
44,45,1583934179414,-2.2430000000000003,0.14829999,1.6201999,7.368711500000001,0.9883456,2.2149718,-1
45,46,1583934179424,-2.4792,0.114599995,1.8026999,7.094565400000001,1.0584766,2.5637784,-1
46,47,1583934179434,-2.6769,0.2006,2.0548,6.998558,1.1002313999999997,2.5542781000000003,-1
47,48,1583934179445,-2.7772,0.25149998,2.0707,6.867748700000001,1.0910856000000002,2.5106843,-1
48,49,1583934179455,-2.9761999,0.2377,2.026,6.368212000000001,0.98407435,2.1880226,-1
49,50,1583934179465,-3.4108998999999995,0.168,1.7795999,5.9509416,1.110718,2.0123458,-1
50,51,1583934179475,-3.8260998999999996,0.3175,1.6524999,5.6153607,1.3845572,1.7106379,-1
51,52,1583934179486,-4.1635,0.6221,1.3857,5.377176,1.607285,1.5150603999999999,-1
52,53,1583934179496,-4.383,0.8653,1.2634,5.2556080000000005,1.6100335,1.3641682,-1
53,54,1583934179506,-4.5343,0.941,1.1085,5.0626545,1.0937096000000002,1.2619358,-1
54,55,1583934179516,-4.8183,0.2233,1.1804,4.9256964000000005,0.62271273,1.365327,-1
55,56,1583934179526,-5.1467,-0.2967,1.198,4.5836415,0.04732858,1.2997353999999999,-1
56,57,1583934179537,-5.3764,-0.8188,1.0853,4.396654,-0.5478604,1.0733206,-1
57,58,1583934179547,-5.3764,-0.8188,1.0853,4.464046499999999,-0.71629727,0.8392635,-1
58,59,1583934179557,-5.3405,-0.9895,0.8462,4.547776,-0.67794216,0.13463075,-1
59,60,1583934179567,-5.2553997,-0.723,-0.6782,4.5560894,-0.6724834,-0.94634175,-1
60,61,1583934179577,-5.402,-0.8197,-1.1374999,4.358721,-0.9683396999999999,-1.3104615,-1
61,62,1583934179588,-5.7723,-1.1460999,-0.8516,3.9206488,-1.4331882,-0.9719597,-1
62,63,1583934179598,-5.7723,-1.1460999,-0.8516,3.531706,-1.7318314,-0.68884057,-1
63,64,1583934179608,-6.7503,-2.004,-0.2543,3.0991697,-2.7018185000000003,-0.7492798,-1
64,65,1583934179618,-6.5337,-2.3281999,-0.7448,3.4668137999999997,-3.0239439999999997,-1.5389546,-1
65,66,1583934179628,-5.9121,-2.2797,-1.7767998999999999,4.1455603,-3.1029717999999997,-2.76039,-1
66,67,1583934179638,-5.1988997,-2.156,-3.1776998,4.8137913,-3.1579041,-4.0874767,-1
67,68,1583934179648,-4.6189,-1.9918,-4.1731,5.2316275,-3.1620126,-4.645134400000001,-1
68,69,1583934179659,-4.515,-1.7955999,-3.9510998999999996,5.048337,-3.2823644,-3.8835676,-1
69,70,1583934179669,-5.0144997,-2.0421,-2.8732,4.297582599999999,-4.293206,-2.6034357999999997,-1
70,71,1583934179680,-5.4989,-3.0305998,-2.0844998,4.2316747,-5.6166730000000005,-2.2079612999999996,-1
71,72,1583934179690,-5.1426,-4.0475,-2.0154,4.829239,-6.461826,-2.4306223,-1
72,73,1583934179700,-3.9931997999999997,-4.7462,-2.7071,6.129166000000001,-7.261709700000001,-3.4664307,-1
73,74,1583934179710,-2.4633,-4.809,-4.2004,7.6180243,-7.1868476999999995,-4.7876085999999995,-1
74,75,1583934179720,-1.1529,-4.1679,-5.0333,8.639477000000001,-6.48754,-4.883731,-1
75,76,1583934179730,-0.7211,-3.2538998,-4.5971,8.493086,-5.9831386,-4.1276803,-1
76,77,1583934179741,-1.2376,-2.7177,-3.8569,7.429264999999999,-6.1669464000000005,-3.4433312000000007,-1
77,78,1583934179750,-2.1422,-3.1713998,-3.7396,6.844974499999999,-7.0609603000000005,-3.4328925999999997,-1
78,79,1583934179760,-2.1264,-4.2005,-4.1593,7.464154,-8.244442999999999,-3.9690788,-1
79,80,1583934179770,-0.4791,-5.078,-5.0484,9.399797999999999,-9.265541,-4.732226,-1
80,81,1583934179780,1.8585,-5.5534,-5.8487,12.101799,-9.626118,-5.1197515,-1
81,82,1583934179790,3.9987998,-5.2792,-5.8578997,13.374633,-9.351714,-4.5198602999999995,-1
82,83,1583934179800,4.7187,-4.7797,-5.2311,13.016432,-9.186418,-3.5206928,-1
83,84,1583934179811,3.9742,-4.5708,-4.3068,11.972924,-9.299978999999999,-2.5699744,-1
84,85,1583934179821,2.7554,-4.8431,-3.2584,10.657032000000001,-10.167571,-1.3170313,-1
85,86,1583934179831,2.2237,-5.6035,-2.7640998,10.872501,-11.1634245,-1.2989215,-1
86,87,1583934179841,3.2182,-6.3715997,-3.2779,12.623658,-11.728753999999999,-2.1716177000000005,-1
87,88,1583934179852,5.4273996,-6.5169,-4.4495,14.708070000000001,-11.803759,-3.304343,-1
88,89,1583934179862,7.4131,-6.3511996,-5.6953998,15.996207,-11.701317,-4.2208440000000005,-1
89,90,1583934179873,8.330999,-6.1113,-6.4195,16.005468,-11.554331,-4.2325845,-1
90,91,1583934179883,8.153299,-5.8325,-6.1541,15.038526999999998,-11.596373,-2.7139616,-1
91,92,1583934179893,7.1531997,-5.8462,-4.495199700000001,13.923392999999999,-11.7700205,-0.9729653,-1
92,93,1583934179904,6.2116,-5.9014997000000005,-2.9134998,13.34324,-11.94289,-0.3513156,-1
93,94,1583934179914,5.8482,-6.032,-2.5767999,13.712617999999999,-12.035067999999999,-0.6025630999999999,-1
94,95,1583934179926,6.5295,-5.9486,-2.9810998,15.053629,-11.809917,-1.308527,-1
95,96,1583934179936,8.6986,-5.4751997,-3.9513998,15.967141,-11.6735525,-1.5103008,-1
96,97,1583934179947,8.6258,-5.4392,-3.1899,15.637967999999999,-11.726025,-0.5019587000000001,-1
97,98,1583934179957,7.7373996,-5.5439,-1.867,14.669092000000001,-11.946052,0.81633663,-1
98,99,1583934179967,7.0182,-5.8269997,-0.53279996,14.001501999999999,-12.256684,2.0664740000000004,-1
99,100,1583934179977,7.0182,-5.8269997,-0.53279996,13.789748999999999,-12.447378,2.5660768,-1
100,101,1583934179987,6.7165,-6.0715,0.2233,13.776371,-12.462777,2.5311787,-1
101,102,1583934179998,6.7619,-5.8297,0.27199998,13.870923000000001,-12.095373,2.6353552000000002,-1
102,103,1583934180009,6.7936997,-5.3854,0.5319,13.867023999999999,-11.68472,2.8240376,-1
103,104,1583934180019,6.535599700000001,-4.817,0.83349997,13.538273,-11.055475,3.1600685,-1
104,105,1583934180029,6.2627997,-4.5738997,1.2688,13.335934,-10.885076,3.640623,-1
105,106,1583934180039,5.9188,-4.4486,1.9556999,12.983526,-10.681232000000001,4.2851805999999995,-1
106,107,1583934180050,5.3782,-4.295,2.6323,12.374556,-10.491142,4.8513613,-1
107,108,1583934180060,4.8606997000000005,-4.1617,3.1399999,12.106347999999999,-10.2708,5.255991000000001,-1
108,109,1583934180070,4.4954,-4.0091,3.8878,11.822807000000001,-9.984875,6.002349400000001,-1
109,110,1583934180080,4.2344,-3.8169999999999997,4.3733,11.672863000000001,-9.702397,5.9831867,-1
110,111,1583934180091,4.0699,-3.6144998,4.1579,11.690322,-9.455584,5.6887956,-1
111,112,1583934180100,4.0022,-3.4013,3.8504,11.768182000000001,-9.042507,5.351021299999999,-1
112,113,1583934180110,3.9907,-3.1576,3.7319998999999995,11.779664,-8.808373,5.352889,-1
113,114,1583934180120,3.8472,-3.1492,3.8112,11.583866,-8.743625,5.437844999999999,-1
114,115,1583934180130,3.4717,-3.182,4.075,11.231085,-8.522525,5.8538523,-1
115,116,1583934180141,2.9815998,-3.0307,4.6164,10.928142999999999,-8.259171499999999,6.2606554,-1
116,117,1583934180151,2.5463,-2.8901,5.1384,10.753969,-7.971178500000001,6.631881,-1
117,118,1583934180161,2.5128,-2.8356,5.2623,10.990276,-7.774700599999999,6.3012805,-1
118,119,1583934180171,2.6685,-2.8353,4.8132,11.24548,-7.7180634,5.6719694,-1
119,120,1583934180181,2.7783,-3.0272,4.3451,11.305525999999999,-7.656303,5.415158,-1
120,121,1583934180191,2.5658998,-2.9923,4.3422,11.024111999999999,-7.303942999999999,5.5332203,-1
121,122,1583934180202,1.8735,-2.4886,4.7132998,9.73264,-6.016265,6.3297906,-1
122,123,1583934180212,0.60359997,-1.655,5.4434,8.663227000000001,-5.179712,6.8653064,-1
123,124,1583934180222,-0.81,-0.909,6.0443,7.2854600000000005,-4.274214700000001,7.234089999999999,-1
124,125,1583934180232,-1.9027,-0.46589997,6.2777,6.853258599999999,-4.0083055,7.1230183,-1
125,126,1583934180242,-2.2694,-0.5104,6.047000000000001,7.111842,-4.1674623,6.4295135000000005,-1
126,127,1583934180252,-1.9591,-0.9005,5.2799,7.661819,-4.47914,5.298023000000001,-1
127,128,1583934180263,-1.5151,-1.4179,4.225,7.893683,-4.7767386,4.566193,-1
128,129,1583934180273,-1.4323,-1.8294,3.6999,7.7882039999999995,-4.630961,4.527924,-1
129,130,1583934180283,-1.6335,-1.7603999,3.8943,7.526116,-4.025879,5.070947599999999,-1
130,131,1583934180293,-2.0384998,-1.2994,4.5790997,6.7178235,-3.3193498,5.6487739999999995,-1
131,132,1583934180304,-2.9984999,-0.81619996,5.1756997,5.647959999999999,-2.7037720000000003,5.818963500000001,-1
132,133,1583934180314,-4.1094,-0.41079998,5.3203998,4.813130999999999,-2.1671739,5.6558995,-1
133,134,1583934180324,-4.8986,-0.061499998,5.2327,4.434732,-1.7348673,5.576737400000001,-1
134,135,1583934180334,-5.218899700000001,0.15089999,5.1948,4.524792,-1.5778077,5.3146586,-1
135,136,1583934180344,-5.1496,0.090799995,5.0116997,5.008593,-1.954272,4.7918415,-1
136,137,1583934180354,-4.692,-0.4208,4.5518,5.735942400000001,-2.1768273999999996,4.076645399999999,-1
137,138,1583934180365,-3.9852998,-0.754,3.8916998,6.2746468,-1.9085331,2.904655,-1
138,139,1583934180375,-3.4527997999999998,-0.6035,2.7582,6.3551593,-1.3251524,2.1202571,-1
139,140,1583934180385,-3.3897998,-0.13319999,2.0056,5.8706879999999995,-0.6123506,2.2765793999999997,-1
140,141,1583934180395,-3.8848,0.4592,2.1933,5.058641400000001,-0.18906532,2.6540873,-1
141,142,1583934180406,-4.7114997,0.7575,2.6157,4.591934999999999,0.037924156,2.341989,-1
142,143,1583934180416,-5.1926,0.8384,2.352,4.5991654,0.104866035,1.5952661,-1
143,144,1583934180426,-5.1902,0.8096,1.6696999,5.058048,0.06473921,0.91219085,-1
144,145,1583934180436,-4.3044,0.38459998,0.6393,5.6161556,-0.3222021,0.2506729,-1
145,146,1583934180446,-3.5691998,-0.33589998,0.031799997999999996,6.399624299999999,-1.0147104999999998,-0.44275495,-1
146,147,1583934180456,-3.5691998,-0.33589998,0.031799997999999996,6.9889526,-1.3700675,-1.0135039000000001,-1
147,148,1583934180467,-2.5286999,-0.6728,-1.0728999,7.2458787,-0.9768439,-1.6530718,-1
148,149,1583934180479,-2.9794998,-0.2602,-1.2767,6.4548825999999995,-0.46741520000000003,-1.8575078,-1
149,150,1583934180490,-3.9204998,-0.033099998,-1.2378,5.546513,-0.17048632,-1.832656,-1
150,151,1583934180500,-4.5765,0.1364,-1.1459,5.122797,0.13410401,-1.8309514999999998,-1
151,152,1583934180510,-4.5845,0.3075,-1.1645,5.465186599999999,0.3799215,-1.9412762,-1
152,153,1583934180521,-4.1309,0.49409997,-1.2636,5.8820076,0.56811535,-2.125237,-1
153,154,1583934180530,-3.7951,0.557,-1.4369999,6.089968,0.5925074,-2.2961926,-1
154,155,1583934180540,-3.5872,0.5316,-1.6112,6.27685,0.5975256999999999,-2.451021,-1
155,156,1583934180550,-3.3902997999999998,0.5046,-1.6825,6.4895797,0.6553888000000001,-2.5067387,-1
156,157,1583934180560,-3.1359,0.6904,-1.7803999,6.82653,0.956225,-2.6669110000000003,-1
157,158,1583934180570,-2.8337998,0.9298,-1.9633,7.075622599999999,1.1692706,-2.7531214,-1
158,159,1583934180580,-2.6694999,1.0936999,-2.0075998,7.198857,1.2102402,-2.7708192000000005,-1
159,160,1583934180591,-2.6694999,1.0936999,-2.0075998,7.402508,0.9407776,-3.0529137000000004,-1
160,161,1583934180601,-2.3392,0.70919997,-2.5468,7.535893400000001,0.79702014,-3.3994025999999997,-1
161,162,1583934180611,-2.1724,0.6204,-2.7240999,7.695031,0.83859307,-3.2392783,-1
162,163,1583934180621,-2.0736,0.65749997,-2.412,7.711943600000001,0.8502289000000001,-2.794924,-1
163,164,1583934180631,-2.0925999,0.62439996,-1.916,7.692436,0.69920266,-2.3214562,-1
164,165,1583934180641,-2.0728,0.39609998,-1.3788999,7.8065050000000005,0.47291228,-1.5468458,-1
165,166,1583934180652,-1.9456999,0.22019999,-0.7787,7.998060700000001,0.44067675,-1.3827952,-1
166,167,1583934180662,-1.7306,0.22479999,-0.7802,8.194844999999999,0.50058925,-1.6916951,-1
167,168,1583934180672,-1.5841,0.29209998,-1.0741999,8.263836,0.5788509,-1.8936316000000002,-1
168,169,1583934180682,-1.4959999,0.353,-1.3403,8.386084,0.57651424,-2.258393,-1
169,170,1583934180692,-1.3683,0.3296,-1.6682,8.696439999999999,0.43772712,-2.5478806,-1
170,171,1583934180702,-1.005,0.20279999,-1.8931999,9.177789,0.36253002,-2.7242951,-1
171,172,1583934180713,-0.5338,0.16699999999999998,-2.06,9.533242,0.27776572,-2.6037998,-1
172,173,1583934180723,-0.2198,0.0713,-1.8282,9.577812,0.14486836,-2.1314812,-1
173,174,1583934180733,-0.2392,-0.0581,-1.3525,9.377504,0.056369085,-1.6831238000000002,-1
174,175,1583934180743,-0.4549,-0.1327,-0.88949996,9.1977,-0.031201236,-1.2515929,-1
175,176,1583934180754,-0.6019,-0.19759999,-0.496,9.214008,-0.12651919,-1.1050198999999998,-1
176,177,1583934180764,-0.4842,-0.28869998,-0.3274,9.575236,-0.15580507,-0.9970892,-1
177,178,1583934180775,-0.21939999,-0.2865,-0.2941,9.741356,-0.17719966,-1.2118205,d
178,179,1583934180786,-0.0427,-0.29009998,-0.5051,9.880630499999999,-0.16665560000000001,-1.5192263000000001,-1
179,180,1583934180796,0.0849,-0.2624,-0.8032,10.003607,0.022486342000000003,-1.7333637,-1
180,181,1583934180806,0.27089998,0.0773,-1.0476,10.071707,0.16819747,-1.7553328000000001,-1
181,182,1583934180816,0.2704,0.0618,-0.9062,10.039041000000001,0.11541010000000002,-1.5678287,-1
182,183,1583934180826,0.1131,-0.024899999,-0.6081,9.871974,0.01784159,-1.2451379999999999,-1
183,184,1583934180838,0.1131,-0.024899999,-0.6081,9.780889,-0.04345955,-0.8617976999999999,-1
184,185,1583934180848,-0.0242,-0.1805,0.363,9.741067999999999,-0.22596475,-0.20715591,-1
185,186,1583934180858,-0.023799999,-0.2756,0.6045,9.781847,-0.29422826,-0.11576444,-1
186,187,1583934180868,0.1041,-0.2997,0.5237,9.930017999999999,-0.29034963,-0.23421997,-1
187,188,1583934180879,0.23199999999999998,-0.14400000000000002,0.3818,10.036035,-0.16065094,-0.38796604,-1
188,189,1583934180889,0.28129998,-0.114,0.3153,10.085919,-0.1721431,-0.40318355,-1
189,190,1583934180899,0.3109,-0.1325,0.3354,10.086925,-0.22625206,-0.43828255,-1
190,191,1583934180909,0.2421,-0.1704,0.18439999,10.02277,-0.31783506,-0.6272234,-1
191,192,1583934180920,0.2811,-0.22809999,-0.096099995,10.090755,-0.30815290000000006,-0.86207545,-1
192,193,1583934180930,0.4281,-0.0514,-0.3848,10.266815,-0.07373183,-1.1423119,-1
193,194,1583934180940,0.4285,0.13499999,-0.3437,10.068211999999999,0.012421119,-0.790393,-1
194,195,1583934180950,0.1546,0.1733,0.1644,9.735303,0.11699985,-0.26255774,-1
195,196,1583934180961,-0.19699999999999998,0.3085,0.6313,9.315561,0.17417338,0.087915085,-1
196,197,1583934180971,-0.627,0.3266,0.98289996,9.0001,0.11666465599999999,0.3447842,-1
197,198,1583934180981,-0.81159997,0.2017,1.0418,9.070203,-0.022965182999999997,0.030550014,-1
198,199,1583934180991,-0.57449996,0.1626,0.6271,9.425896,-0.061406485999999996,-0.4170412,-1
199,200,1583934181001,-0.20019999,0.198,0.2285,9.740685000000001,-0.028826188,-0.82051206,-1
200,201,1583934181012,-0.032199997,0.2242,-0.20449999,9.698039999999999,-0.07641334,-1.2946885000000001,-1
201,202,1583934181022,-0.1785,0.1978,-0.634,9.457824,0.018904617,-1.5800007999999999,-1
202,203,1583934181032,-0.35439998,0.3233,-0.7305,9.266547000000001,0.16552553,-1.233598,-1
203,204,1583934181042,-0.55939996,0.504,-0.2932,9.080719,0.23170127,-0.7488201,-1
204,205,1583934181053,-0.7739,0.50729996,0.3241,8.932948,0.10068097,-0.22120509,-1
205,206,1583934181063,-0.8508,0.34649998,0.7576,8.972932,-0.115754865,-0.07177817,-1
206,207,1583934181073,-0.7609999999999999,0.22119999,0.74759996,9.338574000000001,-0.28438327,-0.45985909999999997,-1
207,208,1583934181083,-0.33789998,0.0927,0.2897,9.766342,-0.30577785,-0.9766235999999999,-1
208,209,1583934181094,0.045199998,0.13319999,-0.19649999,9.803854,-0.12830047,-1.304457,-1
209,210,1583934181104,0.035499997,0.327,-0.46379998,9.643509,0.012698846000000001,-1.3063147,-1
210,211,1583934181114,-0.19,0.4861,-0.46679997,9.335816000000001,0.051130574000000005,-1.0981534,-1
211,212,1583934181124,-0.4348,0.5257,-0.2784,9.291332,-0.18545486,-1.0820355,-1
212,213,1583934181134,-0.473,0.33229998,-0.2598,9.610805000000001,-0.31973127,-1.1991408000000001,-1
213,214,1583934181145,-0.0396,0.19309999,-0.4114,10.194339,-0.40914035,-1.3853809,-1
214,215,1583934181155,0.43339998,0.1646,-0.5509,10.500634,-0.43452844,-1.4945374,-1
215,216,1583934181165,0.7395,0.1734,-0.6629999999999999,10.444524000000001,-0.43426988,-1.4184208999999999,-1
216,217,1583934181175,0.68219995,0.1969,-0.5839,10.272878,-0.4775379,-1.1035736999999999,-1
217,218,1583934181186,0.50659996,0.17719999,-0.2747,10.126669,-0.5699541,-0.81989914,-1
218,219,1583934181196,0.33049998,0.0686,0.0683,9.909907,-0.7557537,-0.41876504,-1
219,220,1583934181206,0.1245,-0.1586,0.4987,9.906201,-0.9068374,-0.27073634,-1
220,221,1583934181216,0.1245,-0.1586,0.4987,10.094049,-1.0171238999999999,-0.442391,-1
221,222,1583934181226,0.5861,-0.40199998,-0.121599995,10.441105,-1.2236477,-0.98674625,-1
222,223,1583934181236,1.0971999,-0.5479999999999999,-0.8775,10.947372,-1.4209683000000002,-1.6874908,-1
223,224,1583934181247,1.5302999,-0.7075,-1.2918999,11.341803,-1.5889838,-1.9518297999999998,-1
224,225,1583934181256,1.5302999,-0.7075,-1.2918999,11.36833,-1.6846942999999999,-1.6153104,-1
225,226,1583934181266,1.6200999,-0.78999996,-0.9590000000000001,10.94652,-1.69724,-0.6884096,-1
226,227,1583934181276,0.5327,-0.70339996,0.6651,10.175175,-1.5636914,0.10644621,-1
227,228,1583934181287,0.0714,-0.5809,1.0196,9.780381,-1.4458296999999998,0.39625952,-1
228,229,1583934181297,-0.066199996,-0.4739,0.93549997,9.679566000000001,-1.3429652,0.23914245,-1
229,230,1583934181307,0.0315,-0.41779998,0.55939996,9.829011999999999,-1.3217238000000002,-0.16813041,-1
230,231,1583934181317,0.0315,-0.41779998,0.55939996,10.000781,-1.397553,-0.35731068,-1
231,232,1583934181328,0.46379998,-0.56299996,0.242,10.276785,-1.5096878999999999,-0.34690067,-1
232,233,1583934181338,0.6609,-0.63409996,0.37829998,10.451888,-1.5588549999999999,-0.17515022,-1
233,234,1583934181348,0.71099997,-0.5711,0.3928,10.466367,-1.4830068,-0.28684452,-1
234,235,1583934181358,0.74109995,-0.4437,0.1048,10.485368,-1.3527622,-0.6344634,-1
235,236,1583934181368,0.6727,-0.2518,-0.1463,10.37464,-1.1785888999999998,-0.73094016,-1
236,237,1583934181378,0.46649998,-0.1326,0.052199997000000005,10.132136000000001,-1.1084197,-0.402427,-1
237,238,1583934181389,0.27969998,-0.163,0.3005,9.987478999999999,-1.1377151,-0.27461493,-1
238,239,1583934181399,0.24,-0.183,0.2342,10.055953,-1.1460853000000002,-0.34474587,-1
239,240,1583934181409,0.4163,-0.13319999,0.2102,10.224295,-1.0631405,-0.3791266,-1
240,241,1583934181419,0.5144,-0.0447,0.062699996,10.257048,-0.98687077,-0.63681936,-1
241,242,1583934181429,0.4358,0.0611,-0.2602,10.133650999999999,-0.8658965000000001,-0.8685589,-1
242,243,1583934181440,0.3179,0.155,-0.217,10.002506,-0.8306155999999999,-0.502677,-1
243,244,1583934181450,0.19029999,0.1107,0.28,9.910463,-0.91228664,-0.11979628,-1
244,245,1583934181461,0.19029999,0.0284,0.5701,10.039357,-0.954166,-0.08547300000000001,-1
245,246,1583934181470,0.38639998,0.0079,0.34579998,10.230567,-0.93344176,-0.4140724,-1
246,247,1583934181480,0.64129996,0.0391,-0.1387,10.493077,-0.9490711,-0.9192106,-1
247,248,1583934181490,0.8961,-0.0173,-0.5961,10.760826,-1.0049806000000001,-1.2863567,-1
248,249,1583934181500,1.1704,-0.1256,-0.7679,10.986436999999999,-1.1424652,-1.2441996000000002,d
249,250,1583934181510,1.2383,-0.2888,-0.348,10.939663000000001,-1.3629712,-0.55229443,-1
250,251,1583934181521,1.1094998999999999,-0.46949998,0.22199999,10.753299,-1.4567376,-0.099598795,-1
251,252,1583934181531,0.9411,-0.5082,0.5366,10.672892,-1.3928125,-0.063676186,-1
252,253,1583934181541,0.9195,-0.35169998,0.2893,10.705136,-1.115449,-0.5884276999999999,-1
253,254,1583934181552,0.9666,-0.1151,-0.20549999,10.779482000000002,-0.8979501,-0.8982183000000001,-1
254,255,1583934181562,1.0433999,-0.0138,-0.3565,10.847178999999999,-0.92238057,-0.88943636,-1
255,256,1583934181572,1.1989,-0.1261,-0.2707,11.246742999999999,-1.1654495,-0.6875764,-1
256,257,1583934181582,1.5705,-0.37379998,-0.1039,11.5324,-1.2849296000000001,-0.5884180999999999,-1
257,258,1583934181592,2.0500998,-0.5336,0.0061999997,12.13618,-1.5065658000000002,-0.59107095,-1
258,259,1583934181602,2.4411,-0.71599996,-0.0707,12.403842,-1.5927474,-0.7607049,-1
259,260,1583934181613,2.6550999,-0.81659997,-0.2568,12.488922,-1.5717838,-0.97780156,-1
260,261,1583934181623,2.7117,-0.8068,-0.4603,12.5702,-1.5353249,-1.0881551999999999,-1
261,262,1583934181633,2.827,-0.79319996,-0.48569998,12.670403,-1.4860619,-0.8266796000000001,-1
262,263,1583934181643,2.8834,-0.8045,-0.2026,12.485782,-1.5463573999999998,-0.5139489,-1
263,264,1583934181653,2.6653,-0.9374,0.1325,12.403507000000001,-1.7543466,-0.19791429,-1
264,265,1583934181663,2.6534998,-1.1988,0.4398,12.545474,-1.9187994,-0.094887,-1
265,266,1583934181673,2.7986,-1.3806,0.5184,12.70305,-1.9063879000000001,-0.18702547,-1
266,267,1583934181683,2.9338999,-1.3969999999999998,0.3484,12.718306,-1.7878557000000002,-0.64766026,-1
267,268,1583934181693,2.9219,-1.3097,-0.117599994,12.6234865,-1.6883814,-0.90207773,-1
268,269,1583934181703,2.8316,-1.2479,-0.2698,12.596527,-1.5547563,-0.76398015,-1
269,270,1583934181715,2.8004,-1.2019,-0.095199995,12.493558,-1.5359857,-0.56158394,-1
270,271,1583934181725,2.5930998,-1.2890999,0.2189,12.074542999999998,-1.629781,-0.23281218,-1
271,272,1583934181735,2.2783,-1.4406999,0.41619998,11.846969999999999,-1.631227,-0.41685924,-1
272,273,1583934181745,2.0619,-1.5173,0.24769999,11.72317,-1.5439824,-0.34088644,-1
273,274,1583934181756,1.6696,-1.3371998999999999,0.4894,11.367009,-1.2285032,-0.10726981599999999,-1
274,275,1583934181766,1.3276,-1.2198,0.68149996,11.000782000000001,-1.0479803,0.07069599,-1
275,276,1583934181776,0.9966,-1.1144999,0.7308,10.732708,-0.8511770000000001,0.051235918,-1
276,277,1583934181786,0.8039,-1.0273,0.5383,10.551947,-0.68092054,-0.22280441,-1
277,278,1583934181797,0.8039,-1.0273,0.5383,10.416377,-0.6670149999999999,-0.51668787,-1
278,279,1583934181807,0.62619996,-1.0922999,-0.1783,10.415189999999999,-0.6041624,-0.94943506,-1
279,280,1583934181818,0.67039996,-0.98469996,-0.3037,10.429917999999999,-0.3452918,-0.98427546,-1
280,281,1583934181828,0.40199998,-0.68909997,-0.0002,10.043169,0.047884032,-0.6239098000000001,-1
281,282,1583934181838,-0.34469998,-0.5906,0.40449998,9.07615,0.22264160000000002,-0.17039055,-1
282,283,1583934181848,-1.1086999,-0.66639996,0.6796,8.402239999999999,0.2787138,-0.018416198,-1
283,284,1583934181859,-1.5864999,-0.69299996,0.75509995,8.029693,0.35249352,0.085147396,-1
284,285,1583934181869,-1.8277999,-0.7542,0.93189996,7.7978864,0.39163393,0.21674229,-1
285,286,1583934181879,-2.0491,-0.7995,0.93909997,7.6105637999999995,0.48210603,0.14764562,-1
286,287,1583934181890,-2.3393,-0.6533,0.62439996,7.210961999999999,0.79596674,-0.37817854,-1
287,288,1583934181900,-2.7179,-0.42499998,0.24419999,6.808917999999999,1.1843541000000002,-0.6505141999999999,-1
288,289,1583934181910,-3.1055999,-0.0673,0.069,6.235755999999999,1.7585028000000003,-0.76660424,-1
289,290,1583934181920,-3.7177,0.3294,0.0532,5.479667,2.1207168,-0.6316479,-1
290,291,1583934181931,-4.4853997,0.46199998,0.2891,4.7667694,2.233254,-0.29272467,-1
291,292,1583934181941,-5.0365,0.47079998,0.6691,4.4343486,2.338972,-0.08724471,-1
292,293,1583934181951,-5.1762,0.53709996,0.7388,4.4570746,2.5566146,-0.15569015,-1
293,294,1583934181961,-5.111000000000001,0.6908,0.7007,4.515809,2.8083793999999997,-0.19208202,-1
294,295,1583934181971,-5.0762,0.8418,0.6512,4.352974400000001,2.9538127999999997,-0.40081808,-1
295,296,1583934181981,-5.3466,0.95879996,0.3705,4.034229799999999,3.251345,-0.7446063,-1
296,297,1583934181992,-5.5982,1.2954,0.0087,3.8023179,3.7936413,-1.17698,-1
297,298,1583934182002,-5.7815,1.6858,-0.2812,3.5685387000000004,4.109474700000001,-1.2140708999999998,-1
298,299,1583934182014,-6.112,1.9922999,-0.2518,3.0542161,4.4892144,-1.1205055,-1
299,300,1583934182024,-6.541,2.2849998,-0.13679999,2.741859,4.7462845,-1.0534775,-1
300,301,1583934182034,-6.746,2.4407,-0.0547,2.7411695,4.732704599999999,-1.4993162,-1
301,302,1583934182044,-6.7384996,2.4146,-0.4623,2.9207826,4.6905475,-2.069347,-1
302,303,1583934182054,-6.5676,2.3631,-0.99899995,3.1023970000000003,4.601119000000001,-2.2868072999999995,-1
303,304,1583934182066,-6.3802,2.2831,-1.1876999,2.9031417,4.4991074,-2.253777,-1
304,305,1583934182077,-6.5779,2.2006,-1.1387,2.4169943,4.422665,-1.9605447,-1
305,306,1583934182087,-7.5779,2.161,-0.5424,1.7690566000000003,4.404804,-1.6196392,-1
306,307,1583934182097,-8.157,2.0135999,-0.5136,1.2804476999999999,4.169683999999999,-1.6949512,-1
307,308,1583934182107,-8.1723995,1.9404,-1.0587,1.4424778,4.1133347,-2.2614767999999996,-1
308,309,1583934182119,-7.4660997,1.9537,-1.5888,2.3679516,3.9047897000000003,-2.7778678,-1
309,310,1583934182129,-7.4660997,1.9537,-1.5888,2.6555526,3.50129,-2.85046,-1
310,311,1583934182139,-6.9953,1.2333,-1.7055,2.4668992000000003,2.912288,-2.4865701000000002,-1
311,312,1583934182149,-7.4712,0.7967,-1.0066998999999999,1.8724956999999998,2.4003403,-1.501126,-1
312,313,1583934182160,-8.1812,0.21939999,0.26229998,1.1574624,1.6578122,-0.10907025,-1
313,314,1583934182170,-8.8448,-0.23699999,1.3343999,0.63810265,1.3194255,0.6584342,-1
314,315,1583934182180,-8.9814,-0.066,1.2385,1.1808011999999999,1.5806233,0.011894393999999999,-1
315,316,1583934182190,-8.0695,0.3055,0.2157,2.472789,1.5803072,-1.1119727,-1
316,317,1583934182200,-6.7433996,0.3913,-0.9277,3.622724,1.4328818,-1.8187601999999998,-1
317,318,1583934182211,-5.8831997000000005,0.3164,-1.3771,4.0243660000000006,0.99188906,-1.7226952000000002,-1
318,319,1583934182221,-5.7144,-0.0354,-1.0478,3.9661769999999996,0.3356192,-1.0529316999999998,-1
319,320,1583934182231,-5.9142,-0.5974,-0.1029,3.6376927,-0.51669747,0.38047695,-1
320,321,1583934182241,-6.365999700000001,-1.2873,1.4268,3.1193097,-1.3066596000000001,1.7970398999999997,-1
321,322,1583934182251,-6.9133,-1.7655,2.4434,2.6246674,-2.1406462000000004,2.3300562,-1
322,323,1583934182262,-7.183399700000001,-2.3631,2.6455998,3.0104307999999995,-3.0101723999999996,2.1668196,-1
323,324,1583934182273,-6.5959,-2.9826,2.2412999,4.443389,-3.4426897000000003,1.2844031,-1
324,325,1583934182283,-4.9818,-3.0349,1.2197,6.468778599999999,-3.3457725,0.3374388,-1
325,326,1583934182293,-2.8981,-2.6169999,0.22199999,8.1137295,-3.2609985,-0.088642925,-1
326,327,1583934182303,-1.0606999,-2.2737,-0.114999995,9.095180000000001,-3.3927848,0.09300995,-1
327,328,1583934182314,-0.7075,-2.2858999,0.1329,8.355907,-4.3731527,0.83477193,-1
328,329,1583934182324,-1.5659,-3.1397,0.97239995,7.367130800000001,-5.639657,1.9746512999999999,-1
329,330,1583934182334,-2.4290000000000003,-4.1878,2.0252,7.237336599999999,-7.0457234,2.5985324,-1
330,331,1583934182344,-2.3820999,-5.0811996,2.4377,8.0925455,-8.024167,2.7797544,-1
331,332,1583934182354,-1.4613,-5.8025,2.5495,9.404587,-8.569212,2.2084117,-1
332,333,1583934182364,-0.087,-6.0789,1.874,10.915645,-8.516281,1.8576323000000001,-1
333,334,1583934182375,1.504,-5.7539997000000005,1.4135,11.809295,-8.111019,2.0888357,-1
334,335,1583934182385,2.4945,-5.0738,1.5438,12.128528,-7.9049354,2.0222769,-1
335,336,1583934182395,2.9013,-4.613,1.3864,12.236324,-7.968630999999999,2.1467083,-1
336,337,1583934182405,3.1845,-4.7167,1.5787,12.2063875,-8.608755,2.3982718,-1
337,338,1583934182416,3.2075,-5.072,1.9133999,12.121699000000001,-9.15673,2.8825421,-1
338,339,1583934182426,3.2036,-5.4554,2.5388,12.004412,-9.779548,3.5313324999999995,-1
339,340,1583934182436,3.1044,-5.5353,2.4278998,11.781953,-9.892994999999999,3.2181613,-1
340,341,1583934182446,2.9796,-4.8217,1.2439,11.545722,-9.301416,2.0951467,-1
341,342,1583934182457,3.0563,-3.9680998,0.2364,11.58968,-8.629708,1.2357719999999999,-1
342,343,1583934182467,3.4152,-3.2045999,-0.3606,11.818076,-8.116219500000001,0.9443689000000001,-1
343,344,1583934182477,3.5463998,-3.1071,0.105,11.7400255,-8.359567,1.6821278000000002,-1
344,345,1583934182487,3.4078,-3.4713,0.8501,11.447377000000001,-8.92817,2.4790907000000004,-1
345,346,1583934182498,3.2631997999999998,-3.8082,1.3528,11.130481,-9.543097,3.1801033,-1
346,347,1583934182508,3.2969999999999997,-4.5127,2.2496,11.268071,-10.550183,4.163603,-1
347,348,1583934182518,4.1847,-5.0972,2.8367999,12.305202,-11.017896,4.5797443,-1
348,349,1583934182528,5.2959,-4.8886,2.4357,13.06875,-10.805759,3.7887955,-1
349,350,1583934182538,5.8212,-4.3245997,1.1013,13.201322,-10.169189,2.433888,-1
350,351,1583934182548,5.7106,-3.3848998999999997,-0.10669999599999999,12.735247,-9.433098,1.620549,-1
351,352,1583934182559,5.0864997,-2.8077998,-0.3726,12.081564,-9.20989,1.6773107,-1
352,353,1583934182569,4.4530997,-2.7247,-0.007999999,11.328347,-9.254777,2.2383392000000004,-1
353,354,1583934182579,4.3424997,-2.6222,0.341,11.304644999999999,-9.322274,2.6284504,-1
354,355,1583934182589,4.7139,-2.7739999999999996,0.7805,11.758805,-9.749141999999999,3.1920167999999998,-1
355,356,1583934182600,5.5794997,-3.1151,1.3612,12.726197,-10.139311,3.8894187999999996,-1
356,357,1583934182610,6.312,-3.1813,1.8226,12.747314,-10.165704,3.9235604,-1
357,358,1583934182620,5.9339,-3.1678,1.4761,11.668659,-10.229121000000001,3.1821048,-1
358,359,1583934182630,4.7551,-3.0449998,0.8199,10.484036999999999,-10.017828,2.9391315,-1
359,360,1583934182640,3.7766,-2.7551,0.83959997,9.844133,-9.848463,3.1302369,-1
360,361,1583934182650,3.3430998,-2.5941,1.0575,9.76251,-9.730399,3.1360881000000003,-1
361,362,1583934182661,3.7735999,-2.3330998,0.7637,10.454512,-9.401274,2.8696709,-1
362,363,1583934182671,4.5905,-1.9449999,0.5906,10.982118,-9.20989,2.9171240000000003,-1
363,364,1583934182681,4.9783,-1.8756,0.5832,10.934242,-9.322322,2.7229638,-1
364,365,1583934182691,4.8220997,-1.9719,0.19659999,10.628636,-9.489562,2.3170509999999997,-1
365,366,1583934182701,4.522,-2.0381,-0.096599996,10.23776,-9.400431,2.2321908,-1
366,367,1583934182711,4.0895,-1.8572999,-0.0729,9.584525,-9.200898,2.2758898999999997,-1
367,368,1583934182722,3.3709,-1.6058999,-0.024899999,8.769176,-8.996586,2.3500812,-1
368,369,1583934182732,2.5671,-1.4487,0.0699,7.9858885,-8.787161,2.5167943999999998,-1
369,370,1583934182742,2.0056998999999998,-1.2168,0.24849999,7.588019999999999,-8.503736,2.9175549,-1
370,371,1583934182752,1.6398,-0.9474,0.67789996,7.258195,-8.305361999999999,3.2255642000000004,-1
371,372,1583934182763,1.3328999,-0.7384,0.92499995,7.092631,-8.0906105,3.2041313999999996,-1
372,373,1583934182773,1.2033,-0.51159996,0.792,7.038943300000001,-7.8188496,2.7281258,-1
373,374,1583934182783,1.1912999,-0.2377,0.23169999,7.0947949999999995,-7.4710584,2.1434138,-1
374,375,1583934182793,1.2347,0.0933,-0.306,7.1112766,-7.3288527000000006,2.1474743,-1
375,376,1583934182803,1.2325,0.2077,-0.14400000000000002,6.7843056,-7.240794,2.6993856,-1
376,377,1583934182814,0.7801,0.2615,0.4165,6.064714,-7.2852974,3.0758023,-1
377,378,1583934182824,0.0187,0.185,0.7456,5.384493,-7.429773,3.1683428,-1
378,379,1583934182834,-0.5153,0.0686,0.8129,5.3132987,-7.5326949999999995,2.9396775,-1
379,380,1583934182844,-0.5313,-0.054899998,0.5153,5.88241,-7.497298700000001,2.6027176,d
380,381,1583934182854,0.1477,0.0314,0.1602,6.8723453999999995,-7.3366957,2.1610734000000003,-1
381,382,1583934182865,0.977,0.1408,-0.22119999,7.21305,-7.504338000000001,2.0899177,-1
382,383,1583934182875,1.3199999,-0.0149,-0.28599998,7.1260924,-7.6178612999999995,2.0877056,-1
383,384,1583934182886,0.9589,-0.3552,-0.042099997,6.7984886,-7.946164,2.4195325,-1
384,385,1583934182897,0.7348,-0.65529996,0.50519997,6.64458,-8.189079,2.9059575,-1
385,386,1583934182907,0.6913,-0.8285,0.68729997,6.68147,-8.326651,2.9580266,-1
386,387,1583934182918,0.9385,-0.97279996,0.47869998,6.983101,-8.452316999999999,2.6978345,-1
387,388,1583934182928,1.3768,-0.95129997,0.1275,7.417534,-8.388545,2.3689861,-1
388,389,1583934182938,1.6385,-0.922,-0.17119999,7.636316000000001,-8.398984,2.1096077,-1
389,390,1583934182948,1.7200999,-1.0322,-0.22209999,7.7324,-8.485807000000001,2.150041,-1
390,391,1583934182958,1.8536999,-1.1838,-0.1643,7.936117599999999,-8.687658,2.251804,-1
391,392,1583934182968,2.0681,-1.4061999,0.1019,8.1626,-8.869665,2.6792266,-1
392,393,1583934182979,2.1963,-1.5432,0.64419997,8.255897500000001,-8.951767,3.0642526,-1
393,394,1583934182989,2.1625,-1.7630999,0.7944,8.241675,-9.183812,3.0806383999999998,-1
394,395,1583934182999,2.1753,-1.8994,0.6915,8.311223,-9.247403,2.9690495,-1
395,396,1583934183010,2.2069,-1.9310999,0.53249997,8.419718,-9.188811999999999,2.8618565,-1
396,397,1583934183020,2.4333,-1.8669,0.6066,8.921342,-9.085861,3.0161578999999996,-1
397,398,1583934183030,2.912,-1.8435999,0.68399996,9.545683,-9.077003,2.9582756000000003,-1
398,399,1583934183040,3.5630998999999997,-1.9288,0.5329,10.282855999999999,-9.176936,2.6267742999999997,-1
399,400,1583934183050,4.2167997,-2.1104998999999998,0.11,10.775841999999999,-9.29907,2.2481267000000003,-1
400,401,1583934183060,4.6566997,-2.2379,-0.33589998,11.232961999999999,-9.364298,1.7411689,-1
401,402,1583934183071,4.8447,-2.3521,-0.6428,11.312814,-9.418158,1.6114031,-1
402,403,1583934183081,4.7903,-2.4638,-0.56619996,11.3206,-9.488451,1.8985157,-1
403,404,1583934183091,4.6717,-2.7091,0.11,11.206732,-9.783886,2.7458810000000002,-1
404,405,1583934183101,4.5104,-3.0289,0.7249,11.347808,-9.928639,3.2065063,-1
405,406,1583934183113,4.7784,-3.1778,1.0512999,12.030164,-9.960004,3.179768,-1
406,407,1583934183123,5.5541,-3.2726,0.8170000000000001,13.185146,-9.730869,2.7257316,-1
407,408,1583934183134,6.3837,-3.0498998,0.4692,13.711104,-9.125547000000001,2.4403045,-1
408,409,1583934183144,6.6639,-2.5133997999999997,0.2505,13.388741,-8.510631,2.674122,-1
409,410,1583934183154,6.0471,-2.0686998,0.68729997,12.104682,-8.192431,3.509919,-1
410,411,1583934183164,4.7967997,-1.9509999999999998,1.4582,11.224563999999999,-8.208933,3.8862875,-1
411,412,1583934183174,3.7798998,-2.1073,1.9411,11.097623,-8.338697999999999,3.7380192,-1
412,413,1583934183185,3.4929,-2.3760998,1.9417,11.313475,-8.703699,2.9670672000000002,-1
413,414,1583934183195,3.5684998,-2.8831,1.3450999,11.683196,-8.8547735,2.2264447,-1
414,415,1583934183205,3.7835998999999996,-3.1894999,0.8067,11.777997000000001,-8.609646000000001,1.8740183000000001,-1
415,416,1583934183216,3.1843,-3.0888,1.1008999,11.226613,-8.370398,2.2597241,-1
416,417,1583934183226,3.1843,-3.0888,1.1008999,10.503573,-8.150926,2.7700147999999998,-1
417,418,1583934183236,2.1836,-3.0107,1.9175999,9.383594500000001,-8.005137,3.0836265,-1
418,419,1583934183246,0.39909998,-3.1431,2.3049,8.932862,-7.863564,2.8151502999999996,-1
419,420,1583934183256,0.2759,-3.1266,1.8535999,9.014064999999999,-7.5929713,2.1333392000000004,-1
420,421,1583934183266,0.3962,-2.9521,1.2135,9.234043,-7.1485405,1.4507903999999998,-1
421,422,1583934183277,0.2566,-2.6046,0.92689997,9.063758,-6.639475999999999,1.2534795,-1
422,423,1583934183287,-0.43879998,-2.1957998,1.2645998999999999,8.40427,-5.9954257,1.622311,-1
423,424,1583934183297,-1.3267,-1.7059,2.1162999,7.593076700000001,-5.307821,2.417684,-1
424,425,1583934183307,-2.1787999,-1.3749,2.9563,6.8639850000000004,-4.782686,3.1044655,-1
425,426,1583934183318,-2.8063998,-1.1956999,3.2514,6.285019,-4.404651,3.0478091,-1
426,427,1583934183328,-3.0607998,-1.2393999,2.8693,6.3579273,-4.3017864,2.5491544999999998,-1
427,428,1583934183338,-2.825,-1.3076999,2.4259999,6.6228886,-4.177566000000001,2.1264917999999997,-1
428,429,1583934183348,-2.5623,-1.2074,1.9849,6.9106145,-3.8429712999999994,1.5867141000000002,-1
429,430,1583934183359,-2.6086,-1.1212,1.6909999999999998,6.8305902000000005,-3.6138847000000003,1.39762,-1
430,431,1583934183369,-2.7691998,-0.94479996,1.7112,6.801180400000001,-3.2281213,1.4836965,-1
431,432,1583934183379,-2.4745,-0.7642,1.8773999,7.205742999999999,-2.904933,1.5929773,-1
432,433,1583934183389,-1.8219999,-0.4578,1.9512999,7.969991,-2.4097066000000003,1.5121299,-1
433,434,1583934183399,-1.4885,-0.3795,1.6412,8.123316,-2.3402746,1.1029705,-1
434,435,1583934183410,-1.6909999999999998,-0.6028,1.2361,7.805059,-2.3745694,0.6001019000000001,-1
435,436,1583934183420,-2.0372999,-0.6493,0.8275,7.671089,-2.1583345,0.23961172,-1
436,437,1583934183430,-1.9189999,-0.5286,0.86789995,7.9246545,-1.8173428,0.47474146,-1
437,438,1583934183440,-1.5315,-0.112799995,1.4793999,8.27802,-1.1258686000000002,1.1598184,-1
438,439,1583934183450,-1.4232,0.2463,2.1311998,8.155714,-0.87662256,1.5524195,-1
439,440,1583934183460,-1.7411,0.1389,2.6102998,7.5235970000000005,-1.1533349,1.9618185000000001,-1
440,441,1583934183471,-2.5349,-0.4034,3.1601,6.683385400000001,-1.7030531000000002,2.225851,-1
441,442,1583934183481,-3.3355,-1.036,3.4041997999999998,6.0127697,-1.9243157,2.052664,-1
442,443,1583934183491,-3.8504998999999995,-1.1774,3.0881998999999998,5.7683887,-1.8518671999999998,1.4745122,-1
443,444,1583934183502,-3.9146,-1.119,2.2378,6.0594470000000005,-1.3677211999999999,-0.16259503,-1
444,445,1583934183513,-3.5479998999999998,-0.7148,1.0137,6.6058226,-0.7254144,-1.3627125,-1
445,446,1583934183523,-2.9757,-0.1565,-0.015199998999999999,7.0145610000000005,-0.29394093,-1.7411784,-1
446,447,1583934183533,-2.6659,0.12019999,-0.1497,6.878187,-0.042415675,-1.2126632,-1
447,448,1583934183543,-2.8857,0.2785,0.5561,6.2069583,0.027897237000000002,-0.5254314999999999,-1
448,449,1583934183554,-3.6409998,0.20189999,1.2044,5.4547669999999995,-0.0744884,-0.4887619000000001,-1
449,450,1583934183564,-4.3167,0.0512,1.2333,5.004916000000001,-0.06820602,-0.55512923,-1
450,451,1583934183574,-4.7079,-0.0105,1.2567999,4.896056,0.048449066,-0.5089115,-1
451,452,1583934183584,-4.736399700000001,0.0673,1.3233,4.896085,0.35356614,-0.6773388000000001,-1
452,453,1583934183594,-4.7267,0.2724,1.2347,4.7962465,0.69743097,-0.67252165,-1
453,454,1583934183605,-4.8258,0.5743,1.2767,4.547125299999999,0.92008215,-0.82519513,-1
454,455,1583934183614,-5.0729,0.7676,1.1661,4.2997184,0.8401062,-1.2618017,-1
455,456,1583934183624,-5.3104,0.6579,0.7696,4.325019999999999,0.87134576,-2.084392,-1
456,457,1583934183634,-5.272599700000001,0.6791,-0.015199998999999999,4.588085700000001,1.0462183,-2.7183,-1
457,458,1583934183644,-4.919699700000001,0.9285,-0.7549,5.0960965,1.4813021,-3.127402,-1
458,459,1583934183654,-4.4772,1.3149998999999999,-0.96889997,5.337346,1.8124682,-2.853285,-1
459,460,1583934183664,-4.2288,1.666,-0.6358,5.4565196,1.6189592,-2.7977395,-1
460,461,1583934183675,-4.0971,1.4988999,-0.5259,5.673999299999999,1.0560536,-2.4120338,-1
461,462,1583934183685,-3.8583,0.95119995,-0.077599995,5.9099526,0.6090561999999999,-1.7504392,-1
462,463,1583934183695,-3.6114,0.5236,0.63659996,6.041672,0.519695,-1.5382555,-1
463,464,1583934183706,-3.475,0.4642,0.87869996,5.974471599999999,0.24199633,-2.0995807999999996,-1
464,465,1583934183716,-3.4276998,-0.1293,-0.7565,6.1582026,-0.25385243,-3.4562504,-1
465,466,1583934183727,-2.9074,-0.26049998,-1.9817,6.751084,-0.33418268,-4.64184,-1
466,467,1583934183737,-2.0651999,0.042,-2.8813999,7.604310000000001,-0.03847961,-5.449883,-1
467,468,1583934183747,-1.3507,0.3962,-3.332,8.247662,0.22713314,-5.796841000000001,-1
468,469,1583934183757,-1.3507,0.3962,-3.332,8.419,0.17773595,-5.684371,-1
469,470,1583934183767,-1.1333,0.022599999,-2.8393,8.3692,-0.3373143,-5.1722035,-1
470,471,1583934183777,-1.1374999,-0.40199998,-2.1505,8.345115,-0.7322426999999999,-4.4320025,-1
471,472,1583934183788,-1.2272999,-0.6615,-1.1465,8.241819,-0.9301665000000001,-3.444806,-1
472,473,1583934183798,-1.3066,-0.81769997,-0.35549998,8.198848,-1.0515335,-2.799904,-1
473,474,1583934183808,-1.2501,-0.77489996,-0.0126,8.23751,-0.9263836999999999,-2.5827212000000004,-1
474,475,1583934183818,-1.2368,-0.6369,-0.2146,8.2873,-0.7740646,-2.9749296000000003,-1
475,476,1583934183828,-1.0308,-0.49109998,-0.7341,8.605527,-0.6032622,-3.5242742999999996,-1
476,477,1583934183838,-0.5703,-0.26999998,-1.2559,9.001786,-0.43689390000000006,-3.8955097000000003,-1
477,478,1583934183849,0.019,-0.1436,-1.5175999,9.729901,-0.33363682,-4.164091,-1
478,479,1583934183859,0.5322,-0.26369998,-1.6335,10.128259,-0.6408129,-4.224673999999999,-1
479,480,1583934183869,0.7532,-0.67329997,-1.5654999,10.261051,-0.99624646,-4.1577415,-1
480,481,1583934183879,0.6798,-0.8653,-1.6056,10.0481205,-1.0849372,-4.245360400000001,-1
481,482,1583934183890,0.45639998,-0.8109,-1.6458,9.842055,-0.85737324,-4.285353,-1
482,483,1583934183900,0.3374,-0.5584,-1.5900999,9.751803,-0.58958656,-4.081338,-1
483,484,1583934183910,0.2162,-0.1743,-1.1797,9.628158,-0.13978307,-3.5959567999999997,-1
484,485,1583934183920,0.045399997000000004,0.1856,-0.6242,9.391486,0.17364667,-2.9826581,-1
485,486,1583934183930,-0.2908,0.21239999,-0.064899996,9.054248,-0.03383486,-2.5127816000000003,-1
486,487,1583934183940,-0.4197,-0.097399995,0.048299998,9.175769,-0.24032038,-2.7051127,-1
487,488,1583934183951,-0.11639999599999999,-0.1717,-0.2874,9.620726,-0.14597927,-3.1362798,-1
488,489,1583934183961,0.2844,-0.0309,-0.74289995,9.892966,-0.011405977,-3.5853650000000004,-1
489,490,1583934183972,0.4784,0.0243,-1.133,9.990209,-0.07780198,-3.7694023000000003,-1
490,491,1583934183982,0.5348,-0.0405,-1.1812,10.1304035,0.060151922999999996,-3.5760849,-1
491,492,1583934183993,0.70919997,0.0758,-0.94369996,10.414269,0.11956642599999999,-3.142677,-1
492,493,1583934184003,0.9726,0.1094,-0.49789998,10.550308,0.14822981,-2.8238267999999995,-1
493,494,1583934184013,1.0606999,0.1196,-0.2731,10.385731,0.16884868,-3.0671543999999997,-1
494,495,1583934184023,0.8454,0.0977,-0.5952,10.089722,0.18550275,-3.3208344,-1
495,496,1583934184033,0.5721,0.124299996,-0.7678,10.044107,0.2792118,-3.2086419999999998,-1
496,497,1583934184043,0.5733,0.19229999,-0.5973,10.105274,0.27254635,-2.806531,d
497,498,1583934184054,0.6426,0.14559999,-0.104899995,10.168787,0.2625673,-2.0771518,-1
498,499,1583934184064,0.7025,0.1099,0.5846,10.192672,0.07028419,-2.0011983,-1
499,500,1583934184074,0.7236,-0.081599995,0.5697,10.225166,-0.03868072,-2.5776357999999995,-1
500,501,1583934184084,0.75409997,-0.2022,-0.192,10.344617999999999,-0.07524497,-3.4371543,-1
501,502,1583934184095,0.9007,-0.20359999,-0.9988,10.354577,0.04819049,-4.2011824,-1
502,503,1583934184105,0.8796,-0.13859999,-1.6327,10.159335,0.032321725,-4.599491,-1
503,504,1583934184116,0.6818,-0.17600000000000002,-2.0421,9.963307,-0.14546211,-4.5838428,-1
504,505,1583934184126,0.524,-0.32529998,-2.0864,9.681147,-0.16619591,-4.331781400000001,-1
505,506,1583934184136,0.20089999,-0.39929998,-1.7827,9.526002,-0.12758222,-4.124099,-1
506,507,1583934184146,0.174,-0.4547,-1.5329,9.695598,-0.24680389999999996,-4.0375915,-1
507,508,1583934184156,0.3611,-0.74619997,-1.2573999,9.876408,-0.51454264,-3.7729936,-1
508,509,1583934184166,0.48009998,-1.0261999,-1.4116,9.944422,-0.7735953000000001,-4.105021499999999,-1
509,510,1583934184177,0.45069999,-1.2955999,-2.3153,9.925661,-0.98837435,-5.0782547,-1
510,511,1583934184187,0.4005,-1.3112999,-3.3418998999999996,9.866227,-0.9691633,-6.0807357,-1
511,512,1583934184197,0.39769998,-1.2124,-4.129699700000001,9.8619375,-0.82862365,-6.756092,-1
512,513,1583934184208,0.3443,-1.0995,-4.4734,9.757789,-0.67392945,-7.0108547,-1
513,514,1583934184218,0.1725,-1.0525,-4.3898997,9.61928,-0.6416748000000001,-6.816867,-1
514,515,1583934184228,-0.0967,-1.198,-4.031399700000001,9.298763000000001,-0.8284321,-6.3146496,-1
515,516,1583934184238,-0.2667,-1.5148,-3.4937,9.24612,-1.0845158000000001,-5.8144245,-1
516,517,1583934184248,-0.1217,-1.8716999,-2.9131,9.503976,-1.437565,-5.176408,-1
517,518,1583934184259,0.1796,-2.0995998,-2.6388,9.737486,-1.5322125,-5.1770879999999995,-1
518,519,1583934184269,0.2324,-2.0327,-3.1341999,9.704102,-1.3535955,-5.6279254000000005,-1
519,520,1583934184279,-0.091,-1.7329999,-3.5976998999999994,9.238496000000001,-0.91664404,-5.9736767,-1
520,521,1583934184289,-0.60289997,-1.4958999,-3.661,8.713037,-0.7272244000000001,-5.829249,-1
521,522,1583934184299,-1.1154,-1.3887,-3.4266998999999996,8.225337,-0.57782626,-5.443380400000001,-1
522,523,1583934184310,-1.5877,-1.3018,-3.0841,7.81342,-0.4644943,-5.070583999999999,-1
523,524,1583934184320,-1.8815,-1.3124,-2.8436,7.6642613,-0.4632876,-4.849178,-1
524,525,1583934184330,-1.8002,-1.4004999,-2.6232998,7.828167999999999,-0.50170976,-4.500879,-1
525,526,1583934184340,-1.7169,-1.4678,-2.3367,7.736298,-0.43796653,-4.0563426,-1
526,527,1583934184350,-1.9666,-1.3889999,-1.9233999,7.322905,-0.35773206,-3.4539807000000002,-1
527,528,1583934184360,-2.4429,-1.3698,-1.3126,6.9267607,-0.14427459,-2.708685,-1
528,529,1583934184371,-2.8428,-1.0936999,-0.6755,6.5149870000000005,0.21461624,-2.2997456,-1
529,530,1583934184381,-3.4115,-0.7341,-0.42389998,5.762575,0.61373925,-1.9874269,-1
530,531,1583934184392,-4.1387997,-0.4843,-0.26,5.0670314,0.9084462999999999,-1.6938881999999997,-1
531,532,1583934184402,-4.6015997,-0.27269998,-0.14400000000000002,5.1841935999999995,1.0944566999999998,-1.8997224999999998,-1
532,533,1583934184413,-4.3282,-0.1174,-0.598,5.853191000000001,1.2704303999999997,-2.774104,-1
533,534,1583934184423,-3.6511,0.0771,-1.5957999,6.3937926,1.4865981000000001,-3.6970305,-1
534,535,1583934184433,-3.1973,0.3011,-2.452,6.6680527000000005,1.7732702,-3.505389,-1
535,536,1583934184443,-2.9954998,0.5848,-2.0026,6.3100815,1.9602096000000002,-2.2698755,-1
536,537,1583934184453,-3.4787,0.69119996,-0.7989,5.462074299999999,1.8949148999999998,-1.124547,-1
537,538,1583934184463,-4.3642,0.575,0.3542,4.700996,1.8727636000000003,0.68860114,-1
538,539,1583934184474,-5.093,0.5574,2.2192,4.139201,1.9302917000000002,2.4143896000000002,-1
539,540,1583934184484,-5.6665,0.5518,3.6202,3.8210117999999995,1.9160031000000002,3.2760437000000002,-1
540,541,1583934184494,-5.8803,0.6051,4.3261,3.9516587,1.9381636000000002,3.3923347,-1
541,542,1583934184504,-5.7341,0.6347,4.3082,4.272635,1.7237773,2.9897547,-1
542,543,1583934184514,-5.3152,0.3857,3.7786998999999994,4.8537555,1.1000878,2.7550366000000004,-1
543,544,1583934184524,-4.7012,-0.22569999,3.5626,5.8454914,0.26794946,3.3377182,-1
544,545,1583934184535,-3.8809998,-0.8258,4.0997,6.3720818,-0.25474307,4.5124187000000004,-1
545,546,1583934184545,-3.3636,-1.2386999,5.2408,6.44294,-0.257913,5.6478453,-1
546,547,1583934184555,-3.3056,-1.1566,6.3420000000000005,6.2245126,-0.05518156,6.525205000000001,-1
547,548,1583934184565,-3.5414999,-0.87329996,7.1765,5.6890445,-0.11382035,6.879815600000001,-1
548,549,1583934184575,-4.0713,-0.8545,7.4711,5.4665947,-0.27582163,6.6845726999999995,-1
549,550,1583934184586,-4.3166,-0.93539995,7.2021,6.1222515,-0.38071638,6.175642,-1
550,551,1583934184596,-3.8061,-0.92359996,6.7344,6.6782618000000005,-0.55990803,5.981032,-1
551,552,1583934184606,-2.8195999,-1.1496,6.790199799999999,6.9835606,-0.8430559000000001,6.5385838,-1
552,553,1583934184617,-2.8195999,-1.1496,6.790199799999999,6.9310035999999995,-0.9525954,7.376478,-1
553,554,1583934184627,-3.0528998,-1.0256,8.9801,6.7193173999999996,-0.8563293,8.890619000000001,-1
554,555,1583934184637,-3.2710000000000004,-0.7087,9.8629,6.5460634,-0.6908996000000001,9.708517,-1
555,556,1583934184647,-3.2424998,-0.61,10.104099,6.628625,-0.75843525,9.857944,-1
556,557,1583934184658,-2.8193,-0.853,9.7652,7.0888100000000005,-1.240685,9.438680999999999,-1
557,558,1583934184668,-2.3149,-1.5939,8.8963995,7.57353,-2.193539,8.527697,-1
558,559,1583934184678,-1.8664,-2.386,8.028299,8.046289,-3.0680642000000002,7.682179,-1
559,560,1583934184688,-1.2781,-2.5885,7.5562997,8.760097,-3.1475134,7.3285365,-1
560,561,1583934184698,-0.7274,-2.0209,7.6302,9.129503,-2.7282022999999995,7.4590397,-1
561,562,1583934184709,-0.2934,-1.3130000000000002,8.026999,9.606208,-2.0692225,8.029050999999999,-1
562,563,1583934184719,-0.1424,-0.8164,8.4264,9.662002000000001,-1.9118562,8.411932,-1
563,564,1583934184729,0.0105,-0.84059995,8.285,9.86096,-2.28381,7.649532000000001,-1
564,565,1583934184739,0.4711,-1.3776,7.0692997,10.397539,-3.1641293,6.363032,-1
565,566,1583934184749,0.9852,-2.4053,6.1587,10.826772,-4.44496,5.685951,-1
566,567,1583934184760,1.2778,-3.3212,5.8431997,11.038677999999999,-5.616653400000001,5.233179,-1
567,568,1583934184769,1.4354,-4.0812,5.416,11.120253,-6.087459,4.7835383,-1
568,569,1583934184779,1.6133,-4.2356,4.933799700000001,11.281229,-6.2337065,4.2208915000000005,-1
569,570,1583934184789,1.8889999,-4.0594997,4.065,11.705722,-6.0714559999999995,3.2280064,-1
570,571,1583934184799,2.5967,-3.4728,3.1864998,12.289304,-5.610467,2.723663,-1
571,572,1583934184809,3.2763,-2.6929998,3.0284998,12.895161,-4.973169,2.853333,-1
572,573,1583934184820,3.32,-2.467,3.4097,12.571484,-5.152426999999999,3.4543254,-1
573,574,1583934184830,2.6004999,-2.7447,4.0769,11.669799000000001,-5.6919174,4.1767616,-1
574,575,1583934184840,1.8147,-3.3267,4.436899700000001,10.972961999999999,-6.554682700000001,4.244431,-1
575,576,1583934184850,1.6205,-3.8971998999999995,4.0044,11.233115,-7.3329130000000005,3.1027706000000004,-1
576,577,1583934184861,2.2333,-4.5168,2.1643,12.213369,-7.960845,0.70968926,-1
577,578,1583934184871,3.4652,-4.8856997,-0.2949,13.458459,-8.308081,-1.1526933000000001,-1
578,579,1583934184881,4.5773,-4.991699700000001,-1.6689,14.118406,-8.235719,-1.5379201999999998,-1
579,580,1583934184891,4.9577,-4.598099700000001,-1.4987999,13.887375,-7.647521,-0.62322026,-1
580,581,1583934184901,4.3307,-3.8339,-0.29839998,12.606238000000001,-7.024827,0.73724174,-1
581,582,1583934184912,2.7477,-3.3012,0.92139995,10.38823,-6.7573853,1.8672571,-1
582,583,1583934184923,0.9481,-3.0988,1.5640999,9.367861,-6.9275649999999995,1.5717263000000001,-1
583,584,1583934184934,0.22199999,-3.5377,0.42749998,10.468991,-7.927173,-1.2313379,-1
584,585,1583934184944,1.9365,-4.303999999999999,-2.3427,13.691673999999999,-8.5335,-4.416967,-1
585,586,1583934184954,4.6856,-4.6761,-5.0456,15.21699,-8.592848,-6.1447477,-1
586,587,1583934184964,6.2421,-4.6475,-6.7999997,14.961395000000001,-8.471624,-6.2761316,-1
587,588,1583934184974,5.7731,-4.4432,-6.7566,12.77005,-8.2337265,-4.4388304000000005,-1
588,589,1583934184984,3.8279,-4.2208,-5.0958,10.7146845,-8.014877,-2.533305,-1
589,590,1583934184995,1.7662,-4.0088,-3.1747,9.500987,-8.083419000000001,-1.6438589,-1
590,591,1583934185005,0.5591,-4.0924,-2.3009999,9.856344,-8.339089999999999,-2.6123135,-1
591,592,1583934185015,0.91969997,-4.3301997000000005,-3.3260998999999996,11.358994000000001,-8.350802,-4.7047596,-1
592,593,1583934185025,2.4479,-4.3147,-5.5017,12.555261,-8.459653,-6.8336744000000005,-1
593,594,1583934185036,3.6669998,-4.3986,-7.7077,12.798771,-8.31355,-8.076581,-1
594,595,1583934185046,3.9206998,-4.2251997,-9.014,12.462078,-7.9847779999999995,-8.671857000000001,-1
595,596,1583934185056,2.6641998,-3.5523,-9.2234,11.319211,-7.581067599999999,-7.9946703999999995,-1
596,597,1583934185066,1.5572,-3.2572,-7.8406,10.232052000000001,-7.288841000000001,-6.5927696,-1
597,598,1583934185076,0.62369996,-3.1058,-6.8978996,9.395355,-7.119762400000001,-5.866158,-1
598,599,1583934185087,0.3488,-2.8542,-7.1162,9.267812,-6.816675,-6.2703375999999995,-1
599,600,1583934185097,0.3488,-2.8542,-7.1162,9.437923,-6.7211084,-6.988636,-1
600,601,1583934185107,0.9087,-2.7309,-8.7992,9.883179,-6.7218366,-7.909217,-1
601,602,1583934185117,1.0928999,-2.5904,-9.218599000000001,9.997822,-6.565485499999999,-8.257897999999999,-1
602,603,1583934185128,0.8829,-2.5028,-9.3418,9.700712,-6.46875,-8.33073,-1
603,604,1583934185138,0.34579998,-2.3637,-9.1985,9.05423,-6.264237400000001,-8.036876,-1
604,605,1583934185148,-0.3707,-2.1525,-8.572000000000001,8.357919,-6.022633,-7.2759314,-1
605,606,1583934185158,-0.99009997,-1.9231999,-7.5516,7.792370299999999,-5.7406926,-6.087794000000001,-1
606,607,1583934185168,-1.3723999,-1.7005,-6.523,7.524928,-5.539273000000001,-5.1759005,-1
607,608,1583934185179,-1.4764999,-1.6085,-5.7458,7.4691339999999995,-5.493812,-4.597853700000001,-1
608,609,1583934185189,-1.5752,-1.5761,-5.2065,7.3331046,-5.446713,-3.9765010000000003,-1
609,610,1583934185199,-1.6682999,-1.6231999,-4.8784,7.2608,-5.5779824,-3.7139241999999997,-1
610,611,1583934185210,-1.6873,-1.8091999,-4.8285,7.288879,-5.7818537,-3.7872057,-1
611,612,1583934185220,-1.5353,-2.096,-5.2956,7.6218259999999995,-6.3301163,-4.3841475999999995,-1
612,613,1583934185230,-1.1265,-2.5844,-5.6707997,8.034184,-6.6972046,-4.2107589999999995,-1
613,614,1583934185240,-0.77919996,-2.8871999,-5.1933,8.080038,-6.978332000000001,-3.3975157999999994,-1
614,615,1583934185251,-0.9179999999999999,-3.0881,-4.3129,7.6628245999999995,-7.0488843999999995,-2.4001012000000004,-1
615,616,1583934185261,-1.5231,-3.013,-3.3032,6.8637357,-6.819089,-1.5498242,-1
616,617,1583934185272,-2.3455,-2.7265,-2.6001,6.1422669999999995,-6.5342264000000005,-1.0520983999999998,-1
617,618,1583934185282,-2.9686,-2.427,-2.222,5.645556,-6.237671400000001,-0.7319649,-1
618,619,1583934185292,-3.2326999,-2.2257,-2.0221999,5.828981,-6.239127,-0.868511,-1
619,620,1583934185302,-2.9208,-2.2366,-2.3581,6.489828599999999,-6.3533587,-1.6733938000000002,-1
620,621,1583934185312,-2.1720998,-2.3339999,-3.1833,7.194126,-6.5166626,-1.8915917000000002,-1
621,622,1583934185323,-1.2559999,-2.5238,-3.0918999,8.054832000000001,-6.7677765,-0.8361893,-1
622,623,1583934185333,-0.6563,-2.6353998,-1.9929999,8.164764,-6.950482400000001,0.38197094,-1
623,624,1583934185343,-0.64809996,-2.7721,-0.80109996,7.7539954,-6.813208599999999,1.353969,-1
624,625,1583934185353,-1.1231999,-2.5244,0.0138,7.0540557,-6.521403299999999,1.3934255,-1
625,626,1583934185363,-1.8034999,-2.2309,-0.0975,6.6297646,-6.332558000000001,1.1229955,-1
626,627,1583934185373,-2.1269999,-2.0228999,-0.33929998,6.600996,-6.085285,1.157836,-1
627,628,1583934185384,-2.0734,-1.6992999,-0.2993,6.7368526,-5.9156794999999995,1.2090239999999999,-1
628,629,1583934185394,-1.8984,-1.5440999,-0.29459998,6.982555400000001,-5.9553465999999995,1.2935393,-1
629,630,1583934185404,-1.5649998999999999,-1.5696,-0.19119999,7.679181599999999,-6.072289,1.8188558999999997,-1
630,631,1583934185415,-0.92829996,-1.6014999,0.2911,8.045351,-6.090542299999999,2.9512174,-1
631,632,1583934185425,-0.5304,-1.5558,1.4511,7.767786,-6.1913290000000005,4.067289,-1
632,633,1583934185435,-0.7929999999999999,-1.6031,2.5986,7.102256,-6.1303825,4.690087999999999,-1
633,634,1583934185446,-1.4376999,-1.508,3.2322,6.6323886,-5.99103,4.1572723,-1
634,635,1583934185456,-1.6896,-1.2506,2.0262,6.8824396,-5.966819999999999,3.3838498999999995,-1
635,636,1583934185466,-1.0317,-1.2483,1.5629,7.554970699999999,-6.069885299999999,3.0731973999999997,-1
636,637,1583934185476,-0.41279998,-1.3201,1.7436999,8.081235000000001,-6.1897774000000005,3.442278,-1
637,638,1583934185486,-0.1723,-1.3352,2.6099,8.165655000000001,-6.2836685,4.3486650000000004,-1
638,639,1583934185496,-0.42069998,-1.4160999,3.7487998,7.824097999999999,-6.423433,5.461327,-1
639,640,1583934185506,-0.8909999999999999,-1.3772,4.7622,7.258137,-6.3736234000000005,6.487712,-1
640,641,1583934185516,-1.3417,-1.2046,5.5120000000000005,6.864319999999999,-6.2438483,6.9334836,-1
641,642,1583934185526,-1.3417,-1.2046,5.5120000000000005,6.7601724,-6.1151266,6.654444,-1
642,643,1583934185537,-1.2832999,-0.8935,4.2999997,7.0407057,-6.0527809999999995,5.4971347,-1
643,644,1583934185548,-0.69659996,-0.79219997,3.6258,7.621462299999999,-5.995359,5.006908,-1
644,645,1583934185559,-0.2004,-0.6337,3.6385998999999996,8.052313,-5.8639746,5.192679,-1
645,646,1583934185569,-0.0457,-0.4621,4.0393,8.015576,-5.734458,5.6901746,-1
646,647,1583934185579,-0.3915,-0.49469998,4.7544,7.512525999999999,-6.0301514,6.492806400000001,-1
647,648,1583934185589,-0.8214,-0.90459996,5.6145,7.270519999999999,-6.3794556,7.1351905,-1
648,649,1583934185599,-0.6807,-0.9704,6.0094,7.5658307,-6.3051972,7.235803999999999,-1
649,650,1583934185609,-0.2997,-0.78959996,5.7832,7.903154400000001,-6.1920376,6.8183894,-1
650,651,1583934185619,-0.0115,-0.64809996,5.0632997,8.134788499999999,-6.102723999999999,5.837389,-1
651,652,1583934185630,0.2909,-0.61539996,3.7628998999999994,8.58918,-6.104831,4.329205,-1
652,653,1583934185640,0.80079997,-0.5159,2.5851998,9.106356,-5.9308496,3.3940108,-1
653,654,1583934185650,1.3568,-0.2924,1.7771,9.53284,-5.8364797,3.0350816000000003,-1
654,655,1583934185661,1.6202999,-0.242,1.7556,9.469892,-5.8373610000000005,3.6058495,-1
655,656,1583934185670,1.3542,-0.2191,2.6524,8.897045,-5.8852735,4.8384995,-1
656,657,1583934185680,0.6685,-0.3112,3.9866998,8.269074,-5.91974,6.051565,-1
657,658,1583934185690,0.1574,-0.29889998,4.9547,7.980017999999999,-5.8341236,6.3693040000000005,-1
658,659,1583934185700,0.072399996,-0.18769999,4.8124,8.169323,-5.728951,5.61017,-1
659,660,1583934185710,0.3861,-0.0055,3.6511998,8.476719000000001,-5.486505,4.4018164,-1
660,661,1583934185721,0.8326,0.27629998,1.7725999,9.029511,-5.357965,2.1793175,-1
661,662,1583934185731,1.3389,0.2642,0.2545,9.518139999999999,-5.322483,1.622608,-1
662,663,1583934185741,1.742,0.36839998,0.162,9.627678999999999,-5.249976599999999,2.0053259999999997,-1
663,664,1583934185751,1.5965999,0.3897,0.7086,9.138399,-5.2843194,2.7616735,-1
664,665,1583934185761,0.93149996,0.3258,1.6242,8.31557,-5.4065,3.7671040000000002,-1
665,666,1583934185772,0.1144,0.1013,2.6991,7.7448015,-5.6971083,4.6862664,-1
666,667,1583934185782,-0.2979,-0.1413,3.4327,7.6060915,-5.7942653,4.9056425,-1
667,668,1583934185792,-0.2618,-0.1743,3.3774,7.8712735,-5.789371,4.4062790000000005,-1
668,669,1583934185802,0.1653,-0.1239,2.5093,8.574566,-5.6794677,2.9588406000000003,-1
669,670,1583934185812,0.8143,-0.0602,1.1424,9.208703,-5.7062635,1.4914536,-1
670,671,1583934185823,1.4245,-0.064899996,-0.2929,9.620275999999999,-5.614547,0.9679662,-1
671,672,1583934185833,1.7534,0.0352,-0.5768,9.525043499999999,-5.610965,1.6223493999999998,d
672,673,1583934185843,1.5518999,-0.0074,0.2616,8.951442,-5.7738949999999996,2.6499599999999996,-1
673,674,1583934185853,0.90999997,-0.1647,1.2975,8.40495,-5.8161,3.3718023,-1
674,675,1583934185863,0.3919,-0.22909999,1.972,8.133965,-5.8808775,3.7215949999999998,-1
675,676,1583934185874,0.17019999,-0.31379998,2.2802,8.129866999999999,-5.9181504,3.7460732000000005,-1
676,677,1583934185884,0.19909999,-0.34739998,2.2144,8.305792,-5.976416,3.316132,-1
677,678,1583934185894,0.35119998,-0.41779998,1.8239,8.579977,-6.0143785,2.9255612,-1
678,679,1583934185904,0.7319,-0.45749998,1.3047999,9.176822999999999,-5.9187636,2.1726327000000003,-1
679,680,1583934185914,1.2203,-0.3796,0.62,9.613543,-5.884842400000001,1.7856816999999998,-1
680,681,1583934185925,1.6459999,-0.353,0.22219999,9.78176,-5.94215,2.0027306,-1
681,682,1583934185935,1.8,-0.4583,0.5503,9.550432,-6.1830926,2.7799362999999997,-1
682,683,1583934185945,1.555,-0.6872,1.2458,9.37128,-6.3451996,3.3744644999999998,-1
683,684,1583934185955,1.3555,-0.8815,1.8563,9.419286999999999,-6.425482,3.8927612000000003,-1
684,685,1583934185966,1.3726,-0.98859996,2.3903,9.756764,-6.5700917,4.3044395,-1
685,686,1583934185977,2.3186998,-1.2907,2.8023,10.521941,-6.6762314,4.2764370000000005,-1
686,687,1583934185988,2.9501,-1.4011999,2.4701998,11.286344,-6.831146,3.9480097,-1
687,688,1583934185998,3.4016,-1.7127,2.5807,11.854047,-7.1587877,4.5226087999999995,-1
688,689,1583934186008,4.1717,-2.0393,3.4371998,12.457462,-7.333612400000001,5.208279,-1
689,690,1583934186018,4.8287997,-2.3044999,4.1995997,13.142472,-7.593833,6.0388374,-1
690,691,1583934186028,5.0190997,-2.4543,4.6905,13.192654999999998,-7.579018,6.433622,-1
691,692,1583934186039,4.781399700000001,-2.4132,4.856,12.8841,-7.4526906,6.468271,-1
692,693,1583934186049,4.4114,-2.3566,4.5878,12.623936,-7.174695,6.0971025999999995,-1
693,694,1583934186059,4.2039,-2.0656,4.0313,12.483148,-6.8299107999999995,5.616931,-1
694,695,1583934186069,4.0106997,-1.8915999,3.6608998999999995,12.340444,-6.5841026,5.3451033,-1
695,696,1583934186079,3.8000998,-1.8445,3.2621999,12.230014,-6.431228,4.7774763,-1
696,697,1583934186090,3.6409,-1.7768999,2.4947999,12.141571,-6.244461,4.0209184,-1
697,698,1583934186100,3.4259,-1.6883999,2.0651999,11.890926,-5.938261499999999,3.8266141000000005,-1
698,699,1583934186110,3.0793998,-1.5771998999999999,2.1541997999999998,11.562816999999999,-5.663053,3.9370828,-1
699,700,1583934186120,2.6536999,-1.4331,2.3381998999999998,11.188948,-5.3326535,4.079863,-1
700,701,1583934186130,2.1807,-1.2256,2.5101,10.768755,-4.982285500000001,4.010000700000001,-1
701,702,1583934186140,1.6625999,-1.1478,2.3223,10.443938000000001,-4.942982,3.7024797999999994,-1
702,703,1583934186151,1.3456,-1.2463,1.8729,10.3832035,-4.7037926,2.9180433999999997,-1
703,704,1583934186160,1.3658999,-1.0878999,1.0428,10.475829,-4.4350667,2.0931358,-1
704,705,1583934186170,1.4086,-0.93759996,0.083,10.616216,-4.156803,1.1812034,-1
705,706,1583934186180,1.5899,-0.88479996,-0.52849996,11.04697,-3.8810966000000002,0.57299954,-1
706,707,1583934186190,1.9390999,-0.782,-0.7481,11.371797,-3.7109551,0.5491724,-1
707,708,1583934186200,2.1919,-0.8262,-0.4324,11.482534,-3.6585891000000004,1.0477314,-1
708,709,1583934186210,2.0259,-0.91239995,0.25779998,11.244003999999999,-3.5392813999999997,1.8274941000000002,-1
709,710,1583934186221,1.5996,-0.95309997,1.1608,10.553124,-3.48975,2.5032527,-1
710,711,1583934186231,0.6983,-1.133,1.745,9.602635000000001,-3.6264017,2.7781072,-1
711,712,1583934186241,-0.2057,-1.4564999,1.9359,8.993235,-3.61942,2.7431424,-1
712,713,1583934186251,-0.71059996,-1.4659,1.6934999,8.662672,-3.3425832000000004,2.0130543999999997,-1
713,714,1583934186261,-0.9939,-1.2863,0.7342,8.566511,-3.0208123,0.56588393,-1
714,715,1583934186272,-1.0181,-1.0853,-0.8527,8.744899,-2.7681665,-0.3270671,-1
715,716,1583934186282,-0.6974,-0.95449996,-0.9525,9.403112,-2.3608646,0.84381247,-1
716,717,1583934186292,-0.1519,-0.70309997,0.28419998,9.656381,-2.353596,1.4553298000000001,-1
717,718,1583934186302,0.10759999599999999,-0.94949996,0.8228,9.773026,-2.3855060000000003,1.3823068,-1
718,719,1583934186312,-0.0069999998,-0.9382,0.6958,8.944767,-1.7604084999999998,0.9098636999999998,-1
719,720,1583934186323,-1.0438,-0.4754,0.3033,7.347412599999999,-1.4619091999999998,0.53324616,-1
720,721,1583934186334,-2.7842,-0.4366,0.1691,5.739121400000001,-1.4239466,1.040702,-1
721,722,1583934186344,-4.2648997,-0.5421,0.96489996,4.803161,-1.1539286,1.9144324000000001,-1
722,723,1583934186354,-4.9846997,-0.44059998,1.7635,4.873972,-0.9992056999999999,1.7120936000000002,-1
723,724,1583934186364,-4.8262,-0.3549,1.4609999999999999,6.0610843,-0.78299016,0.28814697,-1
724,725,1583934186374,-3.7419,-0.2529,0.33789998,7.5745645,-0.89492387,-0.88796157,-1
725,726,1583934186384,-2.2331,-0.4066,-0.7303,8.936942,-0.8888809000000001,-1.5354398,-1
726,727,1583934186395,-0.8603,-0.43109998,-1.3093,9.234119999999999,-0.6578979,-1.555666,-1
727,728,1583934186405,-0.5663,-0.24599999,-1.2669,8.628347999999999,-0.5043337999999999,-1.5313792,-1
728,729,1583934186415,-1.3906,-0.1354,-1.1697,7.223153,-0.34850958,-1.3540552,-1
729,730,1583934186425,-2.5778,-0.066,-0.9679,6.4629083,-0.16404112,-1.1295077,-1
730,731,1583934186436,-3.5951998,-0.0437,-0.5078,6.234683,-0.25275108,-0.99501103,-1
731,732,1583934186446,-3.1408,-0.2916,-0.48529997,6.8622994,-0.43104252,-1.093748,-1
732,733,1583934186457,-1.9889,-0.42679998,-0.8979,8.029597,-0.55360645,-1.7190273,-1
733,734,1583934186467,-1.1017,-0.615,-1.5828999,8.790513,-0.70668215,-2.3906389999999997,-1
734,735,1583934186477,-1.1017,-0.615,-1.5828999,8.844430000000001,-0.66472614,-2.5602732000000006,-1
735,736,1583934186488,-1.2409999,-0.45589998,-1.5991,8.439705,-0.41175482,-2.3335135,-1
736,737,1583934186498,-1.7284,-0.22029999,-0.89849997,7.871569999999999,-0.06685569,-1.4689577,-1
737,738,1583934186508,-2.1471,-0.0664,-0.3205,7.467534,0.06568731,-1.2312614,-1
738,739,1583934186518,-2.5068998,-0.15349999,-0.6279,7.2015767,-0.1290762,-1.8236156000000003,-1
739,740,1583934186528,-2.6016998,-0.56409997,-1.4044,7.2037024,-0.54311985,-2.7259903,-1
740,741,1583934186539,-2.6016998,-0.56409997,-1.4044,7.429696000000001,-0.7433805,-3.3500245000000004,-1
741,742,1583934186549,-1.9571999,-0.91069996,-2.5697,8.088284,-0.52363104,-3.5146498999999998,-1
742,743,1583934186559,-1.2772,-0.4926,-2.22,8.576145,-0.047740385,-2.95954,-1
743,744,1583934186569,-1.3535,-0.1286,-1.3734,8.089184,0.237591,-1.9909607,-1
744,745,1583934186579,-2.3226,-0.2041,-0.3972,6.9370365000000005,-0.013972561000000001,-1.164377,-1
745,746,1583934186589,-3.4875,-0.6459,0.109299995,5.931577,-0.45333729999999994,-0.9818334000000001,-1
746,747,1583934186600,-4.0635,-1.1292,-0.1433,5.8409424,-0.95082366,-1.5699548,-1
747,748,1583934186610,-3.6388998,-1.412,-0.77129996,6.6467447,-0.88663036,-2.3010479999999998,-1
748,749,1583934186620,-2.7136,-1.2037,-1.5371,7.404278999999999,-0.6309392,-2.9653144,-1
749,750,1583934186630,-1.8662,-0.7777,-2.1613998,8.115855,-0.040538624,-3.3897107,-1
750,751,1583934186640,-1.5676999,-0.24049999,-2.0702999,7.9844612999999995,0.4366545,-2.8140009999999998,-1
751,752,1583934186650,-2.0051,-0.0356,-1.2915,7.200858599999999,0.3559795,-2.132707,-1
752,753,1583934186661,-2.8560000000000003,-0.22729999,-0.72349995,6.527407599999999,0.17934486,-1.6517311000000001,-1
753,754,1583934186671,-3.2865998999999997,-0.3839,-0.2932,6.4738445,0.094666734,-1.4068711999999999,-1
754,755,1583934186681,-2.9633,-0.58559996,-0.053099997,7.1690254,-0.21083339999999998,-1.1492456,-1
755,756,1583934186691,-2.2974,-0.7348,-0.0083,7.803795,-0.23356874,-1.4511831,-1
756,757,1583934186702,-1.7098999,-0.7114,-0.5297,8.28116,-0.17124289999999998,-2.207502,-1
757,758,1583934186712,-1.3181,-0.5714,-1.3230000000000002,8.58284,0.042444407999999996,-2.8848693,-1
758,759,1583934186722,-1.0824,-0.3865,-1.8750999,8.724825,0.17852126,-3.2644843999999997,-1
759,760,1583934186732,-1.0023999,-0.30589998,-2.0286,8.743165,0.19306841,-2.7463217,-1
760,761,1583934186743,-0.9995,-0.30159998,-1.3016,8.558372,0.057527877000000005,-1.6761807,-1
761,762,1583934186754,-1.2113,-0.4883,-0.22559999,8.323806,-0.3003574,-1.0486125,-1
762,763,1583934186765,-1.4233999,-0.8415,0.2496,8.417563000000001,-0.46470500000000003,-1.4264462,-1
763,764,1583934186775,-1.3032,-0.95489997,-0.11599999999999999,8.750117999999999,-0.38472906,-2.1918342,-1
764,765,1583934186786,-0.9683,-0.88659996,-0.8698,9.076102,-0.28236258,-2.5931504000000003,-1
765,766,1583934186796,-0.5554,-0.7479,-1.2741,9.453477000000001,0.07491936,-2.310893,-1
766,767,1583934186806,-0.26029998,-0.4456,-0.9831,9.48236,0.520691,-1.8136748,-1
767,768,1583934186817,-0.5306,0.18859999,-0.0591,9.092488000000001,0.7226276,-1.3371329,-1
768,769,1583934186827,-1.0071,0.074099995,0.25759998,8.635982,0.5604826,-1.0896298999999998,-1
769,770,1583934186837,-1.2082,-0.41849998,0.18869999,8.500297,0.058772862,-1.2766362,-1
770,771,1583934186848,-0.9094,-0.6967,-0.1241,8.886041,-0.16077544,-1.6325198,-1
771,772,1583934186858,-0.4249,-0.61649996,-0.4403,9.399453999999999,0.034380738,-1.9799378,-1
772,773,1583934186868,-0.14729999,-0.3019,-0.5179,9.545529,0.35534742,-1.9964578000000002,-1
773,774,1583934186878,-0.2043,0.1451,-0.4385,9.39594,0.8409873,-1.8303577000000002,-1
774,775,1583934186888,-0.45749998,0.3223,-0.0775,9.137413,0.9192777,-1.3884933000000002,-1
775,776,1583934186898,-0.6418,0.3159,0.2564,9.005224,0.8377503000000001,-1.2889423,-1
776,777,1583934186909,-0.6871,-0.00029999999,0.0931,9.064505,0.34196863,-1.5988958,-1
777,778,1583934186919,-0.3389,-0.6326,-0.22659999,9.593595,-0.25144863,-1.8943307,-1
778,779,1583934186929,0.3046,-0.89699996,-0.519,10.261625,-0.21816924,-2.4712949,-1
779,780,1583934186940,0.73219997,-0.6045,-1.1085,10.438614,0.2769804,-3.1703157,-1
780,781,1583934186950,0.7273,-0.0565,-1.6780000000000002,10.252498,0.93004197,-3.3456957000000003,-1
781,782,1583934186960,0.4274,0.6466,-1.4526,9.741767999999999,1.4793485,-2.603091,-1
782,783,1583934186970,-0.1863,0.9695,-0.4368,9.108778,1.5242158000000001,-1.5301822,-1
783,784,1583934186981,-0.6716,0.79179996,0.496,8.874405,1.1837028,-0.98578864,-1
784,785,1583934186991,-0.78239995,0.4161,0.7849,8.9894705,0.86285114,-1.2655271000000001,-1
785,786,1583934187001,-0.45049998,0.0919,0.2314,9.47715,0.5187277,-2.1857052,-1
786,787,1583934187011,0.0581,-0.2618,-0.7797,9.905924,0.19445707,-3.1812716,-1
787,788,1583934187021,0.5072,-0.47529998,-1.7063999,10.459827,0.1415069,-4.1023884,-1
788,789,1583934187031,1.023,-0.3403,-2.3808,10.81775,0.53276736,-4.3076763,d
789,790,1583934187041,1.2222998999999999,0.088599995,-2.1599998,10.621197,0.8381620999999999,-3.64341,-1
790,791,1583934187051,0.7528,0.2021,-1.2560999,9.914207000000001,0.74640673,-2.5366569,-1
791,792,1583934187061,0.018299998999999997,0.053799997999999995,-0.31649998,9.229313000000001,0.64761245,-2.2201432999999997,-1
792,793,1583934187071,-0.55939996,-0.0512,-0.4653,8.944125,0.52664775,-2.8764896,-1
793,794,1583934187081,-0.579,-0.19479999,-1.3203,9.391094,0.36378458,-4.024107,-1
794,795,1583934187092,-0.0894,-0.3285,-2.2642,9.895609,0.25997198,-4.665801,-1
795,796,1583934187102,0.54649997,-0.4691,-2.9847999,10.519097,0.11929828,-5.2827773,-1
796,797,1583934187112,0.97709996,-0.57559997,-3.4006998999999998,10.604034,-0.025187002000000003,-5.289912,-1
797,798,1583934187122,0.96739995,-0.664,-3.2760000000000002,10.233967,0.08376832,-4.722994,-1
798,799,1583934187132,0.5275,-0.5588,-2.6787,9.776253,0.22624248,-4.474044999999999,-1
799,800,1583934187142,-0.04,-0.4403,-2.5655,9.167973,0.34589509999999996,-4.653849,-1
800,801,1583934187153,-0.5216,-0.3804,-2.7874,8.88946,0.3518902,-4.789294,-1
801,802,1583934187163,-0.74039996,-0.4432,-2.9298,8.902897,0.18584752,-4.9017644,-1
802,803,1583934187173,-0.6563,-0.6371,-3.0563,9.251387,-0.06947015,-4.9292684,-1
803,804,1583934187183,-0.2678,-0.90449995,-3.1108,9.576855,-0.27301559999999997,-5.018438300000001,-1
804,805,1583934187194,0.072299995,-1.1599,-3.3179998,9.880324,-0.54015106,-5.4665084,-1
805,806,1583934187204,0.2856,-1.3877,-3.7775998,10.074418,-0.6417130999999999,-6.0679893,-1
806,807,1583934187214,0.4499,-1.4628999,-4.2981997000000005,10.135144,-0.5266382,-6.1647344,-1
807,808,1583934187224,0.49589998,-1.3005999,-4.3754,9.692053999999999,-0.1296125,-5.491025,-1
808,809,1583934187235,0.0699,-1.0005,-3.7893,8.882919000000001,-0.020628443,-4.8826294,-1
809,810,1583934187245,-0.7511,-0.9403,-3.2484999,8.202641,0.18219875,-4.7052383,-1
810,811,1583934187255,-1.444,-0.7859,-3.1299,8.19472,0.5379675,-4.5616918,-1
811,812,1583934187266,-1.4631,-0.4667,-3.0632,8.338631,0.31102595,-4.0844793,-1
812,813,1583934187276,-1.3252,-0.7168,-2.6705,8.446275,-0.16919345,-3.6430748,-1
813,814,1583934187286,-1.0071,-1.4602,-2.3703,8.714138,-0.4530883,-3.7229452000000003,-1
814,815,1583934187296,-0.8569,-1.5209999,-2.7754998,8.825621,-0.44753376,-4.024136,-1
815,816,1583934187306,-1.1287999,-1.3033999,-2.6643,8.402183,-0.16387829999999998,-3.6986682,-1
816,817,1583934187316,-1.1287999,-1.3033999,-2.6643,7.646170599999999,0.17899053,-3.081893,-1
817,818,1583934187326,-3.0956,-0.5947,-1.4537,6.476967,0.61431384,-2.25054,-1
818,819,1583934187337,-3.5152997999999998,-0.3265,-0.80009997,6.1996126,0.91636634,-1.4724723999999998,-1
819,820,1583934187347,-3.5033,-0.0682,-0.37309998,6.2317333,1.1376001,-1.0437281999999999,-1
820,821,1583934187357,-3.4515998,-0.083,-0.4127,6.296291,1.065458,-0.9517814,-1
821,822,1583934187367,-3.4478,-0.39429998,-0.0093,6.266458999999999,0.7109151,-0.35190934,-1
822,823,1583934187378,-3.5407998999999997,-0.8488,0.6258,6.253731299999999,0.19947532,0.55490893,-1
823,824,1583934187387,-3.2796998,-1.0083,1.2718999,6.586573,0.22968055,1.2336556,-1
824,825,1583934187397,-3.2796998,-1.0083,1.2718999,6.828042999999999,0.8267273999999999,2.0982497,-1
825,826,1583934187407,-3.1466,0.16409999,2.9887998,6.431774,1.5271463,3.188684,-1
826,827,1583934187417,-3.8435998,0.7212,3.9034998,5.716971,1.9660227,4.004829,-1
827,828,1583934187428,-4.6974998,1.0598,4.3201,4.9191650000000005,2.2670790000000003,4.4098606,-1
828,829,1583934187438,-5.2778,1.1896,4.3863997,4.3980336,2.3039593999999997,4.528537,-1
829,830,1583934187449,-5.4378,0.9399,4.2415,4.4339657,1.8550466,4.487059599999999,-1
830,831,1583934187459,-5.0101,0.5438,4.0849,5.033933599999999,1.472118,4.3774147,-1
831,832,1583934187469,-4.2093997000000005,0.4252,3.8416,5.9321423,1.4326041,4.3696575,-1
832,833,1583934187479,-3.0839,0.75119996,4.1419,7.1877002999999995,1.8503923,5.1384068,-1
833,834,1583934187489,-1.8984,1.4654,5.4165,8.169639,2.5439734,6.856927000000001,-1
834,835,1583934187500,-1.3986,2.1118999,7.4153,7.882717599999999,2.9119813,9.540539,-1
835,836,1583934187510,-2.4575999,2.1095998,9.5969,6.5039062,2.4861869999999997,11.402021000000001,-1
836,837,1583934187520,-3.7912998,1.5052999,11.0548,5.4843980000000006,1.7201285,12.165293,-1
837,838,1583934187530,-4.7928,0.5478,11.5644,4.8989199999999995,0.73848677,12.503566000000001,-1
838,839,1583934187540,-4.5109997,-0.2126,11.5443,6.168210500000001,0.0005746083999999999,11.99155,-1
839,840,1583934187550,-2.7872,-0.41979998,10.655399000000001,8.178593,-0.116329476,10.754754,-1
840,841,1583934187560,-0.97349995,-0.3279,9.2775,9.427264,-0.08051222,9.3891115,-1
841,842,1583934187570,-0.0609,-0.2003,7.9637,9.901758000000001,-0.2043116,8.333728,-1
842,843,1583934187580,0.096099995,-0.29009998,7.1011,9.776262,-0.32667446,7.922739,-1
843,844,1583934187590,-0.3172,-0.3339,6.9919,8.991932,-0.639271,8.187308,-1
844,845,1583934187601,-1.1248,-0.7309,7.5794997,8.215406,-1.4521216000000001,9.011239,-1
845,846,1583934187611,-1.6881,-1.6229999,8.519299499999999,8.148599,-2.399852,9.563888,-1
846,847,1583934187621,-1.4563999,-2.2877998,8.6528,8.763171,-2.7377505,8.821724,-1
847,848,1583934187632,-0.60539997,-2.2696,7.5683,10.0357275,-2.223677,6.8868160000000005,-1
848,849,1583934187642,0.44419998,-1.5396,5.9114,10.712578,-1.5340033000000002,5.342028599999999,-1
849,850,1583934187652,0.97639996,-0.8559,4.5341,10.661178999999999,-1.465692,4.6927886,-1
850,851,1583934187662,0.8131,-0.84129995,4.1014,10.320513,-2.034583,4.462256,-1
851,852,1583934187672,0.5028,-1.4375,3.9399998,10.285318,-3.0510366,4.108546,-1
852,853,1583934187683,0.56549996,-2.3779,3.6241,10.791797,-4.0442567,3.558387,-1
853,854,1583934187693,1.1882,-3.2875997999999997,3.1229,11.730669,-4.8476553,2.6566157,-1
854,855,1583934187703,2.1657999,-3.8741,2.2891998,12.53332,-5.1923437,1.4071871999999999,-1
855,856,1583934187713,2.9097,-4.0737,1.0905,12.959066,-5.158671400000001,0.47335285,-1
856,857,1583934187723,3.3207,-3.8035997999999998,0.24239999,12.972522999999999,-4.5935440000000005,0.17649096,-1
857,858,1583934187734,3.182,-3.2226,0.36789998,12.566178,-4.2110944,0.50648856,-1
858,859,1583934187744,2.7286,-2.8695,0.7204,12.170043,-4.3228364,0.6785071999999999,-1
859,860,1583934187754,2.3925,-3.0528998,0.9,12.010523,-4.9920444,0.3201718,-1
860,861,1583934187764,2.3516998,-3.7549,0.41349998,12.40952,-5.762872,-1.0563409,-1
861,862,1583934187774,2.8715,-4.4519997,-1.0602,13.383282000000001,-6.3716029999999995,-3.4538754999999997,-1
862,863,1583934187784,3.6962,-4.8626,-2.9823,13.762723999999999,-6.3412440000000005,-4.7064257000000005,-1
863,864,1583934187794,4.1173,-4.7037997,-4.4087,13.813776999999998,-5.638431,-5.472944,-1
864,865,1583934187805,4.0829997,-3.8400998,-4.9365997,13.045172,-4.114541,-4.994113400000001,-1
865,866,1583934187815,3.3767998,-2.5395,-4.4281,11.652809,-3.2713509999999997,-4.299335,-1
866,867,1583934187825,1.9711,-1.7284,-3.7273998,10.7553,-3.0467749,-4.0384245000000005,-1
867,868,1583934187835,1.0751,-1.531,-3.4582,10.728945,-3.0588319999999998,-4.509852400000001,-1
868,869,1583934187846,1.045,-1.5584999,-3.8851,11.305296,-3.2495925,-5.8461328,-1
869,870,1583934187857,2.2301,-1.9481,-6.555299799999999,11.961967,-3.4803362,-7.5367746,-1
870,871,1583934187867,2.3237997999999997,-2.0713,-7.5140996,11.966813,-3.5959282,-8.422619000000001,-1
871,872,1583934187878,2.1511,-1.9674,-7.824,11.772146000000001,-3.3931968,-8.689564,-1
872,873,1583934187888,1.8488,-1.5792999,-7.7014,11.437877,-2.9918517999999996,-8.519115,-1
873,874,1583934187898,1.3101,-1.2871,-7.2963996,10.853356,-2.728279,-8.189950999999999,-1
874,875,1583934187908,0.93829995,-1.2136999,-7.3673997,10.538796000000001,-2.7035612999999996,-8.631174,-1
875,876,1583934187918,0.94079995,-1.3519999999999999,-8.1869,10.702743,-2.8308084,-9.632964999999999,-1
876,877,1583934187928,1.2587999,-1.5325999,-9.091000000000001,10.9765625,-2.9950697,-10.340002,-1
877,878,1583934187938,1.5875,-1.8179,-9.7390995,11.276575,-3.2990087999999997,-11.084713,-1
878,879,1583934187948,1.5627999,-1.9980999,-10.076099000000001,11.092901,-3.3701741999999997,-11.29205,-1
879,880,1583934187958,1.1637,-1.9296999,-9.9025,10.585206,-3.2269243999999997,-10.995783,-1
880,881,1583934187968,0.6439,-1.7008,-9.3552,10.19159,-2.9756958,-10.480302,-1
881,882,1583934187979,0.1699,-1.4353,-8.517099,9.740359,-2.6959095,-9.60592,-1
882,883,1583934187989,-0.2375,-1.2865,-7.7559,9.252144,-2.5341284,-8.850244,-1
883,884,1583934187999,-0.64669997,-1.203,-7.4528,8.8593025,-2.4183545,-8.610229499999999,-1
884,885,1583934188010,-1.037,-1.1834999,-7.367999999999999,8.501828999999999,-2.503339,-8.533682,-1
885,886,1583934188020,-1.2803,-1.4425,-7.242999999999999,8.448267,-2.7880093999999995,-8.170797,-1
886,887,1583934188030,-1.1112,-1.6184,-6.905999700000001,8.740521000000001,-2.7966764,-7.780083,-1
887,888,1583934188040,-0.8925,-1.5677999,-6.5773,8.765823,-2.7656765,-7.3936496,-1
888,889,1583934188050,-1.1053,-1.6399,-5.9509,8.267456,-2.8714522999999996,-6.324561599999999,-1
889,890,1583934188061,-1.6513,-1.7099999,-4.9234,7.7396016,-2.8861334,-5.1651834999999995,-1
890,891,1583934188071,-2.2066,-1.7449,-3.7993,7.202601400000001,-2.9595876,-4.0763006,-1
891,892,1583934188081,-2.7122,-1.8953999,-2.8689999999999998,6.831452400000001,-3.1844892999999996,-3.3485400000000003,-1
892,893,1583934188091,-2.9032998,-2.1955,-2.3251998,6.943204,-3.4858138999999997,-2.9974256,-1
893,894,1583934188101,-2.6425998,-2.4538,-2.1538,7.318452400000001,-3.528833,-3.0658135,-1
894,895,1583934188112,-2.2735999,-2.3764,-2.4772,7.596064599999999,-3.4678767,-3.3580692,-1
895,896,1583934188122,-1.9727999,-2.3609,-2.6841,7.8405895,-3.5216407999999997,-3.0406935,-1
896,897,1583934188132,-1.8872999,-2.3731,-2.3079998,7.7880607,-3.4874134,-2.3133352000000005,-1
897,898,1583934188142,-1.9781,-2.3184,-1.6201999,7.516089,-3.3962517,-1.4918367000000001,-1
898,899,1583934188152,-2.3137,-2.1691,-0.86139995,7.134405,-3.2399967,-0.7793797,-1
899,900,1583934188163,-2.7861,-2.0328999,-0.0738,6.725476,-3.252255,0.0012449849,-1
900,901,1583934188173,-3.0614998,-2.1225,0.5778,6.874097999999999,-3.340553,0.90761316,-1
901,902,1583934188183,-2.7867,-2.0902998,1.3069998999999999,7.133447,-3.1186773999999997,1.4427938,-1
902,903,1583934188194,-2.5993,-1.8268,1.6939,6.8953967,-2.7804055,1.4534527,-1
903,904,1583934188204,-2.8330998,-1.5411999,1.6127,6.438104,-2.5718899,1.4752305000000001,-1
904,905,1583934188214,-3.4290998,-1.2626,1.6314,5.7913537,-2.3610086,1.9531131999999998,-1
905,906,1583934188225,-3.9455998,-1.0667,1.9899999,5.5110790000000005,-2.0817103,2.7280874,-1
906,907,1583934188235,-4.2153,-0.7456,2.7055,5.3053308,-1.8097961999999999,3.7412848,-1
907,908,1583934188245,-4.4149,-0.4262,3.665,5.238512999999999,-1.7777331000000003,4.4522862000000005,-1
908,909,1583934188255,-4.4462,-0.3441,4.5072,5.5444629999999995,-1.7550552,5.440536,-1
909,910,1583934188266,-4.0436997,-0.0797,6.3243,5.5995493,-1.6137878,6.6733394,-1
910,911,1583934188277,-4.0436997,-0.0797,6.3243,5.183619,-1.5986468,7.1187759999999995,-1
911,912,1583934188287,-5.2244,-0.2067,7.1161,4.313125599999999,-1.9847357,7.3219666,-1
912,913,1583934188297,-5.5313,-0.3137,7.0752997,4.1653175000000005,-2.1078837000000004,7.2622266,-1
913,914,1583934188307,-5.0003,-0.1686,6.8148,4.791707499999999,-2.0648649,7.055971,-1
914,915,1583934188317,-4.062999700000001,0.049799997,6.6489997,5.716319599999999,-1.9674494999999999,6.9061704,-1
915,916,1583934188328,-3.2408997999999998,0.059299998,6.6912,6.464775599999999,-2.123609,7.067117999999999,-1
916,917,1583934188338,-2.7124,-0.0208,7.3493,6.874672400000001,-2.3388286,7.811265,-1
917,918,1583934188348,-2.7433,-0.0295,8.2238,6.687666,-2.4349701,8.543928999999999,-1
918,919,1583934188358,-3.2842998999999997,-0.0839,8.3488,6.077241000000001,-2.6237385,8.490950999999999,-1
919,920,1583934188368,-3.8630998,-0.1593,8.0742,5.525377,-2.80701,8.181629,-1
920,921,1583934188378,-4.0754,-0.2084,7.990999700000001,5.3834777,-2.9762895,8.141607,-1
921,922,1583934188389,-3.6639,-0.1952,8.3272,6.064685,-3.054379,8.708746000000001,-1
922,923,1583934188399,-2.6566,-0.077599995,8.9157,7.102217,-3.1360595,9.173078,-1
923,924,1583934188409,-1.6818999,-0.1449,8.756599000000001,7.865259,-3.4139112999999996,8.4825325,-1
924,925,1583934188419,-1.1449,-0.2698,7.4188,8.159238,-3.7052187999999995,7.1168127000000005,-1
925,926,1583934188429,-1.0382999,-0.44889998,6.4340997,8.057935,-4.0939794,6.655248599999999,-1
926,927,1583934188440,-1.2262,-0.72349995,6.5758996,7.760719,-4.54181,6.955251700000001,-1
927,928,1583934188450,-1.5122,-1.0433,6.894,7.456367500000001,-4.96951,7.164562700000001,-1
928,929,1583934188460,-1.5805999,-1.2473999,6.8525,7.5469546,-5.2032037,7.02567,-1
929,930,1583934188470,-1.056,-1.1148,6.6369,8.291858,-5.1390004000000005,6.6480369999999995,-1
930,931,1583934188480,-0.3293,-0.99609995,6.1377997,8.82268,-5.3229809999999995,6.0146656,-1
931,932,1583934188491,0.16699999999999998,-1.0612999,5.3691998,9.106154,-5.5754733,5.294126,-1
932,933,1583934188501,0.4111,-1.2459999,4.666,9.162925999999999,-6.185037,4.7976737,-1
933,934,1583934188511,0.5394,-1.9042,4.194,9.203206,-6.994219999999999,4.426515,-1
934,935,1583934188521,0.69799995,-2.4986,3.7501998,9.3427305,-7.6105732999999995,4.1178164,-1
935,936,1583934188531,0.9264,-2.8432999,3.5391,9.583739999999999,-7.9365296,4.202255,-1
936,937,1583934188542,1.3716999,-2.9303,3.695,10.1094885,-7.888655,4.6805015,-1
937,938,1583934188552,2.074,-2.5149,4.1819,10.816927,-7.346742,5.360464599999999,-1
938,939,1583934188563,2.6399,-2.0093,4.4775,10.938543,-7.332683,5.121101400000001,-1
939,940,1583934188573,2.7905998,-1.9950999,3.8883,10.979158,-7.698297,3.8829355000000003,-1
940,941,1583934188583,2.9350998,-2.3147,2.4599,11.071842,-8.251003,2.3742914,-1
941,942,1583934188594,3.1016,-2.77,0.83739996,11.118721,-8.545508,1.0083132,-1
942,943,1583934188604,3.1815999,-2.9108999,-0.26209998,10.712798,-8.542062,1.209225,-1
943,944,1583934188614,2.8228,-2.8360999,-0.0955,9.828562,-8.546064,2.1273534,-1
944,945,1583934188625,1.9885,-2.7897,0.77269995,9.093303,-8.662643,3.1755736,-1
945,946,1583934188635,1.3004999,-2.8467999,1.7653999,9.053099000000001,-8.839814,3.458338,-1
946,947,1583934188645,1.3126999,-2.9821,1.9794999,9.465821,-8.888876,3.2163801,-1
947,948,1583934188656,1.7818999,-2.9766,1.6541,9.852953999999999,-9.166221,2.3739467,-1
948,949,1583934188665,2.2247,-3.1956,0.7290000000000001,10.072637,-9.357632,1.1681885,-1
949,950,1583934188676,2.5089,-3.3383,-0.5516,10.063251,-9.33505,0.60343456,-1
950,951,1583934188686,2.08,-3.4019999999999997,-1.1501,9.428414,-9.570648,0.7189309,-1
951,952,1583934188696,1.5791998999999999,-3.5323,-0.7531,8.92025,-9.693434,1.226358,-1
952,953,1583934188707,1.2181,-3.5518,-0.3576,8.561033,-9.732938,1.514936,-1
953,954,1583934188717,1.0387,-3.4199,-0.7157,8.386467,-9.558803,1.0971574,-1
954,955,1583934188727,0.98459995,-2.9671,-1.1909999999999998,8.30834,-9.114639,0.66616267,-1
955,956,1583934188738,0.8815,-2.5730999,-1.4695,8.152946,-8.750328,0.49234363,-1
956,957,1583934188748,0.6239,-2.1478999,-1.3385,7.8148465,-8.321613000000001,0.71695805,-1
957,958,1583934188758,0.6239,-2.1478999,-1.3385,7.3524785,-8.027021000000001,0.87783885,-1
958,959,1583934188768,-0.25079998,-2.1996,-1.4714999,7.1367993,-8.762509,0.28790754,-1
959,960,1583934188779,0.4258,-2.5493999,-2.2631,7.9647527,-8.839431,-0.44905645,-1
960,961,1583934188789,1.2196,-2.3014,-2.8169999999999997,8.489063,-8.624680499999998,-0.83043367,-1
961,962,1583934188799,1.3557999,-2.1978,-3.0914,8.361547,-8.5887575,-1.0225731,-1
962,963,1583934188809,1.0071,-2.044,-3.1771,7.936548700000001,-8.379189,-1.0937383999999999,-1
963,964,1583934188819,0.60969996,-1.777,-3.2345,7.5970507,-8.125097,-1.1486136,-1
964,965,1583934188830,0.4057,-1.4613,-3.1169999,7.4159436,-7.771530599999999,-0.7107427,-1
965,966,1583934188841,0.2541,-1.2112,-2.4514,7.221353,-7.667660700000001,-0.13628754,-1
966,967,1583934188851,-0.0583,-1.2915,-1.8354,6.8561797,-8.054132000000001,0.37141728,-1
967,968,1583934188861,-0.2552,-1.7712,-1.6784999,6.882909,-8.547414999999999,0.19848889,-1
968,969,1583934188871,0.024699999,-2.1419,-2.049,7.46287,-8.833091,-0.46747264,-1
969,970,1583934188881,0.7786,-2.3258997999999997,-2.9285997999999998,8.328173,-8.943338,-1.4689002,-1
970,971,1583934188891,1.6473999,-2.3451998,-3.912,8.910941000000001,-8.817903,-2.1957318999999997,-1
971,972,1583934188901,2.095,-2.1153,-4.5095,9.130557000000001,-8.529507,-2.5378442000000003,-1
972,973,1583934188911,2.0697,-1.8046,-4.5513997,8.746592999999999,-8.241225,-2.0809731,-1
973,974,1583934188921,1.4944998999999999,-1.5594,-3.7354,8.048252,-8.088485,-0.9352901,-1
974,975,1583934188932,0.82519996,-1.4947,-2.5005999,7.4668064,-8.080775,0.118024565,-1
975,976,1583934188942,0.32389998,-1.4994,-1.6643,7.103271,-8.044096000000001,0.5495938,-1
976,977,1583934188952,0.015,-1.4442999,-1.4341999,7.018650500000001,-8.002897,0.5679429,-1
977,978,1583934188962,0.0469,-1.4067,-1.5065998999999999,7.298245,-7.9421034,0.36932957,-1
978,979,1583934188972,0.3793,-1.3471999,-1.7796999,7.718121000000001,-7.976723700000001,-0.07954496,-1
979,980,1583934188982,0.812,-1.4053999,-2.2854,8.034606,-7.922317999999999,-0.6568636,d
980,981,1583934188993,1.0843999,-1.2907,-2.8981,8.006833,-7.764051400000001,-1.1132176,-1
981,982,1583934189003,1.0051,-1.1697999,-3.2979998999999998,7.748096,-7.6500297,-1.0472525,-1
982,983,1583934189014,0.7223,-1.0532,-3.1183999,7.328632400000001,-7.3047759999999995,-0.38145378,-1
983,984,1583934189024,0.34669998,-0.752,-2.5269,6.849725200000001,-7.018832000000001,0.20783587,-1
984,985,1583934189034,-0.1479,-0.4703,-1.9499999,6.4977007,-6.952599,0.572128,-1
985,986,1583934189044,-0.5528,-0.41200000000000003,-1.499,6.4636264,-6.9469294999999995,0.7878264,-1
986,987,1583934189054,-0.5311,-0.4375,-1.3448,6.861706,-7.1625133000000005,0.5088541,-1
987,988,1583934189064,-0.1599,-0.63479996,-1.6277,7.4404699999999995,-7.368672999999999,-0.09071152,-1
988,989,1583934189075,0.4109,-0.84,-2.2108998,7.782429,-7.435471000000001,-0.33023703,-1
989,990,1583934189085,0.8145,-0.9091,-2.5017,7.7916419999999995,-7.4092592999999995,-0.5262838000000001,-1
990,991,1583934189095,0.7635,-0.8847,-2.6578999,7.4577084000000005,-7.27641,-0.5282279000000001,-1
991,992,1583934189106,0.42479998,-0.7671,-2.6803,7.227386,-7.1753554,-0.43720996,-1
992,993,1583934189116,0.1924,-0.68079996,-2.595,7.3157897,-7.0631633,-0.3660064,-1
993,994,1583934189126,0.4631,-0.5229,-2.1845999,7.526364999999999,-6.996231,0.060803145,-1
994,995,1583934189137,0.4631,-0.5229,-2.1845999,7.548171000000001,-7.074818,0.23812729999999996,-1
995,996,1583934189147,0.45749998,-0.7409,-1.9746,7.521356,-7.247603,0.19867085,-1
996,997,1583934189157,0.59999996,-1.0289,-2.0389,7.7274966,-7.5781465,0.12038046,-1
997,998,1583934189167,1.0121,-1.4509999999999998,-2.149,8.176247,-8.002417999999999,0.020379445,-1
998,999,1583934189177,1.5159,-1.8518,-2.1471,8.659177,-8.396552,0.053812075,-1
999,1000,1583934189188,1.8722999,-2.1945,-2.1368,8.986789,-8.709302000000001,0.07500555,-1
1000,1001,1583934189198,2.0674999,-2.4034998,-2.0641,9.150294,-8.897706,0.16920301,-1
1001,1002,1583934189208,2.2756,-2.4796,-1.9145999,9.391964999999999,-8.930822000000001,0.30815290000000006,-1
1002,1003,1583934189218,2.4564,-2.4134998,-1.8228999,9.529133999999999,-8.843721,0.35324052,-1
1003,1004,1583934189228,2.316,-2.4606,-1.8398999,9.384217,-8.926206,0.27639621,-1
1004,1005,1583934189238,2.2491999,-2.5902998,-1.9706999,9.415332000000001,-9.001192,0.12142433,-1
1005,1006,1583934189249,2.4951,-2.702,-2.131,9.854735,-9.159478,-0.09071152,-1
1006,1007,1583934189259,2.8997,-3.0096,-2.119,10.229131,-9.509559,0.030731974,-1
1007,1008,1583934189269,3.1671999,-3.3479997999999997,-1.8859999,10.414423,-9.726769,0.20935857,-1
1008,1009,1583934189279,3.2556998999999998,-3.4757,-1.9136,10.587409,-9.738311,0.07575254,-1
1009,1010,1583934189289,3.4287998999999996,-3.3541,-2.0328999,10.8155,-9.551083,0.005564125,-1
1010,1011,1583934189299,3.615,-3.2482998,-2.0377998,10.979349000000001,-9.470735000000001,-0.037636854,-1
1011,1012,1583934189310,3.6961,-3.2853,-2.0032,11.155304,-9.485301,0.08848969999999999,-1
1012,1013,1583934189320,3.8398,-3.3760998,-1.6736,11.309769000000001,-9.490501,0.49750552,-1
1013,1014,1583934189331,3.8514,-3.3934998999999997,-1.1133,11.246504,-9.494006,1.2046473,-1
1014,1015,1583934189341,3.6624,-3.5372,-0.4714,11.189216,-9.539648,1.6718998,-1
1015,1016,1583934189351,3.6148,-3.5131,-0.0892,11.2365055,-9.254355,1.9139248,-1
1016,1017,1583934189361,3.5653,-3.2721999,0.1184,11.187146,-8.999986999999999,2.0809538,-1
1017,1018,1583934189371,3.4375,-3.1341,0.22749999,11.10539,-8.769089,2.0620781999999998,-1
1018,1019,1583934189382,3.2991,-2.9408,0.2065,11.135529,-8.492349,2.1707845,-1
1019,1020,1583934189392,3.3449,-2.7986,0.39899999999999997,11.276556,-8.455544,2.410329,-1
1020,1021,1583934189402,3.4563,-2.9924998,0.6915,11.505450999999999,-8.660632000000001,2.684714,-1
1021,1022,1583934189412,3.6704998,-3.2989,0.91999996,11.893972,-8.920556,2.6493661,-1
1022,1023,1583934189422,3.9178,-3.6025998999999995,0.8497,12.241419,-8.967703,2.3927650000000003,-1
1023,1024,1583934189432,4.157,-3.6725,0.6756,12.248055,-8.510515,2.614976,-1
1024,1025,1583934189443,3.9359,-3.2768,1.1226,11.475427999999999,-7.9233713,3.4471524,-1
1025,1026,1583934189453,2.9324,-2.8286,2.1278,10.558439,-7.495096,4.3398547,-1
1026,1027,1583934189463,1.6908,-2.4617,3.3186998,9.509941,-6.833558999999999,5.439243299999999,-1
1027,1028,1583934189473,0.8846,-2.0597,4.1481,9.313464,-6.404796,5.5787106,-1
1028,1029,1583934189484,0.7234,-1.8309,4.2144,9.529746000000001,-6.085879,5.218401999999999,-1
1029,1030,1583934189494,0.8728,-1.6754999,3.8695998,9.714052,-5.9299874,4.695269000000001,-1
1030,1031,1583934189504,0.9281,-1.7127,3.5275,9.815595,-6.041739499999999,4.513281,-1
1031,1032,1583934189514,0.94619995,-1.9650999,3.4378,10.060541,-6.151173,4.567792,-1
1032,1033,1583934189524,1.0687,-2.3091,3.6518998,10.37015,-5.8245373,4.7779837,-1
1033,1034,1583934189534,1.3428999,-2.0472,3.9053,10.302844,-5.1390867,4.7693650000000005,-1
1034,1035,1583934189545,1.1123999,-1.3485,3.9002998,9.451524000000001,-4.23744,3.8847935,-1
1035,1036,1583934189555,0.27519998,-0.79929996,3.1373,8.748298,-3.894849,2.8709066,-1
1036,1037,1583934189565,-0.4915,-0.6414,2.1603,8.777871000000001,-3.867153,2.407887,-1
1037,1038,1583934189576,-0.5302,-0.7994,1.7713,9.467305999999999,-3.7433631000000003,2.8200345,-1
1038,1039,1583934189586,0.0916,-0.85529995,2.2851999,9.806344000000001,-3.5106468,3.6090195,-1
1039,1040,1583934189596,0.0178,-1.0033,3.6815998999999997,9.419546,-3.552143,3.9240391000000003,-1
1040,1041,1583934189607,-0.5108,-1.1721,3.5403,8.941894,-3.462954,3.5433133000000003,-1
1041,1042,1583934189617,-0.96559995,-0.8225,3.0314,8.519632000000001,-2.8261062999999997,2.918915,-1
1042,1043,1583934189627,-1.4452,-0.21599999,2.4826,8.089797,-2.0714536,2.3524852000000003,-1
1043,1044,1583934189637,-1.9204999,0.22839999,2.283,7.6234827,-1.4790708000000001,2.1925333,-1
1044,1045,1583934189647,-2.3716,0.45549998,2.1409,7.1863117,-1.1174792,1.9488035,-1
1045,1046,1583934189657,-2.6906998,0.45909998,1.5897,7.0357065,-1.0283767,1.3004824,-1
1046,1047,1583934189668,-2.6906998,0.45909998,1.5897,7.210052,-0.99114203,0.70894223,-1
1047,1048,1583934189678,-1.8744999,0.5552,0.21509999,7.9908204,-0.6071025,0.06675034,-1
1048,1049,1583934189688,-1.4769999999999999,0.7858,0.12239999,8.307564,-0.19333658,0.11129207,-1
1049,1050,1583934189698,-1.5489998999999999,1.0311999,0.47169998,8.055694,0.21566011,0.42498997,-1
1050,1051,1583934189708,-2.0516,1.2672,0.65889996,7.4312572,0.5884469,0.54012233,-1
1051,1052,1583934189718,-2.906,1.4668,0.8171,6.6640687000000005,0.8309508,0.69757456,-1
1052,1053,1583934189729,-3.984,1.4495,1.1268,5.460178400000001,0.8923764000000001,1.0414681000000001,-1
1053,1054,1583934189739,-4.8241,1.1745,1.2536,4.793393,0.67256,1.0424738000000002,-1
1054,1055,1583934189749,-5.0635,0.9041,1.1136999,4.843948999999999,0.6675896,0.7404021,-1
1055,1056,1583934189759,-4.7321,1.0546,0.7029,5.295189,1.0894959,0.33490095,-1
1056,1057,1583934189769,-4.2228,1.4188,0.45209998,5.674172,1.3985298000000002,0.20655257,-1
1057,1058,1583934189779,-4.1835,1.403,0.6008,5.540872,1.2477717,0.4694455,-1
1058,1059,1583934189790,-4.3006997,0.7876,1.0828,5.5965905,0.57836246,1.0737132999999999,-1
1059,1060,1583934189800,-4.0847,0.24769999,1.7932999,5.7463717,0.24298275,1.7878939999999999,-1
1060,1061,1583934189810,-4.1826,-0.024999999,2.2977998,5.4717183,0.09572019,2.0580077,-1
1061,1062,1583934189820,-4.5846,-0.22219999,2.1090999,4.919864,-0.011425131000000002,1.6528324,-1
1062,1063,1583934189831,-5.1527,-0.2836,1.6658,4.286502,-0.0076710223,1.2839049999999999,-1
1063,1064,1583934189841,-5.7303,-0.311,1.2313,3.9832335,0.20148644,0.88741565,-1
1064,1065,1583934189851,-5.6603,-0.043399997,0.877,4.596321,0.6226744000000001,0.73806536,-1
1065,1066,1583934189861,-4.8355,0.4377,0.7615,5.4841489999999995,1.2161396,0.67764527,-1
1066,1067,1583934189872,-4.1191,0.9129,0.6102,5.7471566,1.3385407,0.34212187,-1
1067,1068,1583934189882,-4.1187,0.69839996,0.1714,5.558714,0.6111918000000001,0.09983821,-1
1068,1069,1583934189892,-4.2556,-0.2705,0.1314,5.7146916,-0.45834598,0.5798661,-1
1069,1070,1583934189902,-4.0098,-1.0354,0.6207,6.498859400000001,-0.9046155999999999,1.0762702,-1
1070,1071,1583934189914,-3.0871,-1.3813,1.0109999,7.4587235,-0.5841948,1.0114736999999998,-1
1071,1072,1583934189924,-2.2033,-0.9295,0.81659997,7.7391996,0.2260701,0.27012342,-1
1072,1073,1583934189935,-2.0542998,-0.3026,0.1165,7.2868867,0.5742636999999999,-0.26900294,-1
1073,1074,1583934189945,-2.5126998,-0.0016,-0.42569998,6.790291000000001,0.7065001999999999,-0.46527958,-1
1074,1075,1583934189955,-3.0002,0.0883,-0.61079997,6.790655,0.9402891999999999,-0.22144450000000002,-1
1075,1076,1583934189966,-2.9975998,0.2791,-0.3608,7.047533500000001,1.0053253,0.7067588,-1
1076,1077,1583934189976,-2.7502,0.29979998,0.5789,7.2853546,0.779169,1.3219727,-1
1077,1078,1583934189986,-2.5031,0.052199997000000005,1.2309999999999999,7.6668944,0.3721547,1.315135,-1
1078,1079,1583934189996,-1.5682,-0.4748,1.0713999,8.329877999999999,0.31728917,1.0328873,-1
1079,1080,1583934190006,-1.1745,-0.3355,0.4438,8.673741999999999,0.5109130999999999,0.3481169,-1
1080,1081,1583934190017,-0.9181,-0.1774,-0.20019999,8.9702215,0.69450045,-0.34116414,-1
1081,1082,1583934190027,-0.5731,0.0464,-0.5463,9.287846,1.0078344000000001,-0.583534,-1
1082,1083,1583934190037,-0.5318,0.28689998,-0.5934,9.161431,1.1309347,-0.5401894,-1
1083,1084,1583934190048,-0.9314,0.0341,-0.24409999,8.739402,0.83756834,-0.16581284,-1
1084,1085,1583934190058,-1.3211,-0.3962,0.4087,8.43416,0.38359899999999997,0.6320022,-1
1085,1086,1583934190068,-1.2205,-0.62619996,0.905,8.683999,0.3146364,0.7855472,-1
1086,1087,1583934190079,-0.8655,-0.60469997,0.5385,9.03702,0.44218034,0.1321312,-1
1087,1088,1583934190089,-0.55,-0.2557,-0.1525,9.344579,0.9549513000000001,-0.5145331,-1
1088,1089,1583934190099,-0.32279998,0.3671,-0.59349996,9.432953,1.58794,-0.83332586,-1
1089,1090,1583934190109,-0.4782,0.8407,-0.69049996,9.121382,1.9352715,-0.7992706999999999,-1
1090,1091,1583934190119,-0.89849997,1.0016,-0.4125,8.712739,2.005546,-0.39208403,-1
1091,1092,1583934190130,-1.1329,0.8249,-0.1073,8.671022,1.7018369999999998,-0.13926592,-1
1092,1093,1583934190140,-0.9856,0.42139998,0.114,8.883034,1.2982798,0.18963036,-1
1093,1094,1583934190150,-0.7995,0.1718,0.39299998,9.014294,1.0993600000000001,0.22007503,-1
1094,1095,1583934190160,-0.6526,-0.027199998,0.1214,9.287386,0.9921955,-0.3679888,d
1095,1096,1583934190170,-0.3288,0.064399995,-0.26999998,9.547989999999999,1.3567557,-0.54772633,-1
1096,1097,1583934190180,-0.2298,0.57019997,-0.276,9.426298,1.792807,-0.45154646,-1
1097,1098,1583934190191,-0.6401,0.93109995,-0.0458,8.782861,2.023857,0.0031603463,-1
1098,1099,1583934190201,-1.2169,0.9946,0.47329998,8.297556,2.0851486,0.56911135,-1
1099,1100,1583934190211,-1.5389999,1.0917,1.0344,8.25831,2.1836363999999997,1.0244693999999999,-1
1100,1101,1583934190221,-1.4697,1.1302,1.4583,8.366988000000001,2.1302936000000003,1.3331872,-1
1101,1102,1583934190232,-1.3618,1.0224999,1.6502,8.340403,1.8867842000000001,1.1161288999999999,-1
1102,1103,1583934190242,-1.4309,0.78569996,1.3698,8.355736,1.5246947,0.74590874,-1
1103,1104,1583934190252,-1.3532,0.447,1.0993998999999999,8.704934,1.227488,0.7431985,-1
1104,1105,1583934190263,-0.98179996,0.2392,1.2226,8.897945,1.2064958000000001,0.9027576999999999,-1
1105,1106,1583934190273,-0.8951,0.32279998,1.3593,8.587072000000001,1.4726734,0.87834644,-1
1106,1107,1583934190284,-1.2791,0.6049,1.3122,7.8788675999999995,1.8214417,0.96322566,-1
1107,1108,1583934190294,-2.0256,0.9665,1.4915999,6.9926585999999995,2.1975130000000003,1.5933030000000001,-1
1108,1109,1583934190304,-2.9678,1.3339,2.2087,5.892341,2.4605787,2.6710958,-1
1109,1110,1583934190314,-3.8709,1.5479,3.0986998,5.5760865,2.4891558,3.3401315,-1
1110,1111,1583934190324,-4.1858997,1.5855,3.7765,5.739792,2.241423,3.6598246,-1
1111,1112,1583934190335,-4.0306997,1.3837999,4.1359997,6.0918355,1.9974537,3.4665358,-1
1112,1113,1583934190346,-3.5228998999999996,1.1468999,3.8985,7.1135755000000005,1.9429043999999998,2.7195162999999996,-1
1113,1114,1583934190356,-2.1652,1.3504,2.4989998,7.6075854000000005,2.0475595,1.8320048999999998,-1
1114,1115,1583934190366,-2.1652,1.3504,2.4989998,7.081503,2.1556053,1.8849646,-1
1115,1116,1583934190376,-3.5119,1.6057999,3.2668998,6.077528,2.2104802,2.8983345000000003,-1
1116,1117,1583934190386,-4.3549,1.5619999,4.3353,5.279138,2.1027508,3.8194795,-1
1117,1118,1583934190397,-4.863,1.4253,4.7358,4.839993499999999,1.8982955000000001,4.005643,-1
1118,1119,1583934190407,-4.9198,1.2846999,4.6425,4.9580755,1.6631178,3.7961410000000004,-1
1119,1120,1583934190417,-4.3203998,0.9594,4.3259,5.636334,1.2956749,3.3913963,-1
1120,1121,1583934190427,-3.3204,0.77279997,3.725,6.622582,1.0343335,2.7274075,-1
1121,1122,1583934190438,-2.6545,0.6586,3.0871,7.206346000000001,0.79506654,1.9564747,-1
1122,1123,1583934190448,-2.655,0.58669996,2.5979,6.969138,0.5082603,1.6649183,-1
1123,1124,1583934190459,-3.1248999,0.1417,2.8246,6.484954,-0.14434163,2.1934142000000003,-1
1124,1125,1583934190469,-3.3571,-0.39999998,3.4626,6.5595669999999995,-0.90310246,2.5615373,-1
1125,1126,1583934190480,-2.7142,-1.1485,3.1269999,7.3012904999999995,-1.6171491000000002,1.9890261000000002,-1
1126,1127,1583934190490,-1.304,-1.6487,2.0772998,9.351828999999999,-2.2634976000000004,0.40240782,-1
1127,1128,1583934190500,0.14800000000000002,-1.7584,0.9903,10.566647,-2.3861284,-0.6292345,-1
1128,1129,1583934190511,1.0727999,-1.7148,0.1406,10.944768,-2.4907455,-1.1159181999999999,-1
1129,1130,1583934190521,1.1753,-1.801,-0.10759999599999999,10.63921,-2.7753202999999997,-1.1748827,-1
1130,1131,1583934190531,0.7096,-1.9397999,-0.051799998,10.168156,-3.1065054,-1.2696643,-1
1131,1132,1583934190541,0.41099998,-2.2319,-0.2651,10.186053999999999,-3.7311813999999996,-1.7652929,-1
1132,1133,1583934190551,0.6522,-2.8544998,-0.8519,10.673667,-4.513961,-2.423143,-1
1133,1134,1583934190561,1.3159,-3.4498,-1.4907,11.310601,-4.9565816,-2.8975396,-1
1134,1135,1583934190571,2.2652,-3.7726,-1.9652,12.489852,-5.3089986,-3.419753,-1
1135,1136,1583934190582,3.1659,-3.7602,-2.4424999,13.034522,-5.317953,-4.0316634,-1
1136,1137,1583934190592,3.4483,-3.5688,-3.1351,12.780813,-5.1156334999999995,-4.6229835,-1
1137,1138,1583934190602,3.0923998,-3.2912,-3.5746998999999997,12.310122999999999,-5.1844234,-5.197908,-1
1138,1139,1583934190612,2.6771998,-3.3479,-4.2578,12.259424000000001,-5.530261,-6.00189,-1
1139,1140,1583934190622,2.7718,-3.6185,-5.0743,12.557291000000001,-6.0619654999999995,-6.7557573,-1
1140,1141,1583934190632,3.1029,-4.1205,-5.8486,12.951836,-6.6128616,-7.425061,-1
1141,1142,1583934190643,3.5039999999999996,-4.5099998,-6.4709,13.194446,-6.793547,-7.752875,-1
1142,1143,1583934190653,3.6792998,-4.5635,-6.7036,13.006269999999999,-6.74642,-7.878580599999999,-1
1143,1144,1583934190663,3.3613,-4.3552,-6.7644,12.450700999999999,-6.38819,-7.725888,-1
1144,1145,1583934190673,2.8629,-3.9736,-6.6289,11.902592,-6.189519000000001,-7.745050999999999,-1
1145,1146,1583934190683,2.3516998,-3.7975,-6.7067,11.616686,-6.131771,-8.110952000000001,-1
1146,1147,1583934190693,2.1529,-3.7247999,-7.1404,11.645559,-6.235899400000001,-8.750041,-1
1147,1148,1583934190704,2.2089999,-3.8209,-7.8753,11.725009,-6.425855599999999,-9.629479,-1
1148,1149,1583934190714,2.2847,-3.988,-8.7324,11.661256,-6.449424,-10.205772999999999,-1
1149,1150,1583934190724,2.1733,-3.9148,-9.1837,11.38419,-6.2442694,-10.120941,-1
1150,1151,1583934190734,1.8741,-3.6827,-8.984,10.945447,-6.0589485,-9.447836,-1
1151,1152,1583934190744,1.5135,-3.5374,-8.3843,10.725201,-5.791037599999999,-8.78764,-1
1152,1153,1583934190754,1.2284,-3.1636999,-7.5404,10.17532,-5.236004400000001,-7.885561999999999,-1
1153,1154,1583934190764,0.7441,-2.717,-6.8574,9.46087,-5.0829379999999995,-7.6284246,-1
1154,1155,1583934190777,0.012399998999999998,-2.5669,-6.6428,8.986789,-4.9401093000000005,-7.7622029999999995,-1
1155,1156,1583934190787,-0.7841,-2.5303,-7.2995,8.617632,-5.107292,-8.237241000000001,-1
1156,1157,1583934190797,-0.80719995,-2.71,-7.3290997,8.6849375,-5.251136,-8.047965,-1
1157,1158,1583934190807,-0.5542,-2.7026,-6.7395,8.950637,-5.192564,-7.334857,-1
1158,1159,1583934190818,-0.5067,-2.5702999,-5.903,8.87407,-5.071427,-6.253023000000001,-1
1159,1160,1583934190828,-0.7737,-2.5115,-4.9621997,8.550632,-5.029365,-5.239671700000001,-1
1160,1161,1583934190838,-1.1493,-2.4164999,-4.0415,8.239377000000001,-4.90797,-4.5553904,-1
1161,1162,1583934190848,-1.5446,-2.2616,-3.5089,7.786164299999999,-4.726748000000001,-4.0583540000000005,-1
1162,1163,1583934190859,-1.89,-2.1124,-3.5038,7.50905,-4.634082299999999,-4.130351999999999,-1
1163,1164,1583934190869,-2.1947,-2.1430000000000002,-3.7900998999999995,7.2019405,-4.7290077,-4.359075,-1
1164,1165,1583934190879,-2.2127,-2.3323998,-3.872,7.3012904999999995,-4.924700700000001,-4.332049400000001,-1
1165,1166,1583934190889,-1.9037,-2.6,-3.6748998,7.7232447,-5.242095,-3.9477512999999997,-1
1166,1167,1583934190899,-1.5236,-2.7424998,-3.2357,8.053931,-5.4696207,-3.3548991999999997,-1
1167,1168,1583934190909,-1.2597,-2.9996,-2.5274,8.224591,-5.6950593000000005,-2.7129178,-1
1168,1169,1583934190919,-1.0252,-3.1889,-1.5430000000000001,8.45227,-5.9339523000000005,-1.4209588,-1
1169,1170,1583934190929,-1.0268999,-3.2152,-0.6121,8.309507,-5.9000793,-0.6317149000000001,-1
1170,1171,1583934190940,-1.3145,-3.1878,-0.08249999599999999,7.946814999999999,-5.946699,-0.1820934,-1
1171,1172,1583934190950,-1.5831,-3.1729998999999998,0.0369,7.886405,-5.993338,-0.17414466,-1
1172,1173,1583934190960,-1.3992,-3.1746,-0.044999998,8.272082000000001,-5.933282,-0.03814442,-1
1173,1174,1583934190970,-0.9187,-3.0911999,0.1086,8.777833,-5.8372936,0.31795958,-1
1174,1175,1583934190980,-0.4172,-2.8774998,0.4657,9.166910000000001,-5.6418023,0.6855845,-1
1175,1176,1583934190990,-0.1414,-2.6852,0.7147,9.281257,-5.537214,0.9069332,-1
1176,1177,1583934191001,-0.0831,-2.5091999,1.1401,9.2065,-5.210051,1.7911596999999997,-1
1177,1178,1583934191011,-0.35169998,-2.0692,2.1278,8.768103,-4.8581605,2.7650156000000004,-1
1178,1179,1583934191021,-0.9371,-1.7368,3.4987998,8.247775,-4.751657,4.731833,-1
1179,1180,1583934191031,-1.1019,-1.7996999,5.3728,8.452451,-4.826682,6.556799400000001,-1
1180,1181,1583934191041,-0.68549997,-1.9139999,6.9122,8.966755000000001,-5.0398903,7.426469,-1
1181,1182,1583934191051,-0.2068,-2.1569,7.1713,9.448774,-5.222702,7.1008863,-1
1182,1183,1583934191062,0.3136,-2.1517,6.5323,9.924128999999999,-5.046422,6.5611369999999996,-1
1183,1184,1583934191073,0.7075,-1.903,6.0748,10.067695,-4.711808,6.760928599999999,-1
1184,1185,1583934191083,0.7374,-1.5725,6.4189997000000005,9.872892,-4.407677,7.861486,-1
1185,1186,1583934191093,0.5108,-1.2860999,7.5319,9.593078,-4.166754,9.18976,-1
1186,1187,1583934191104,0.23979999,-1.0856,8.812999999999999,9.53917,-4.315194,10.422229,-1
1187,1188,1583934191114,0.24319999,-1.2279,9.7663,9.794469,-4.359152,10.587054,-1
1188,1189,1583934191125,0.5707,-1.253,9.840799,10.099911,-4.234318,10.2125635,-1
1189,1190,1583934191135,0.8698,-1.1225,9.417399000000001,10.243333,-4.124769000000001,10.008673,-1
1190,1191,1583934191145,0.95379996,-1.0242,9.2036,10.283049,-4.1426300000000005,9.735274,-1
1191,1192,1583934191155,0.9988,-1.0465,8.854899000000001,10.471376,-3.9832623,9.300621000000001,-1
1192,1193,1583934191166,1.6640999,-0.5779,7.5957,11.079130000000001,-3.5647172999999994,8.384542,-1
1193,1194,1583934191176,2.0866,-0.354,6.9849997,11.40272,-3.3916739999999996,7.97432,-1
1194,1195,1583934191186,2.1520998,-0.1284,6.819,11.381882000000001,-3.1496967999999996,7.9182570000000005,-1
1195,1196,1583934191197,1.841,-0.1282,7.0923,11.047307,-3.1820858,8.286063,-1
1196,1197,1583934191207,1.841,-0.1282,7.0923,10.766926,-3.2006645000000002,8.620399,-1
1197,1198,1583934191217,1.3393999,-0.3152,7.5958,10.680774000000001,-3.2813779999999997,8.673044,-1
1198,1199,1583934191227,1.6035,-0.3859,7.1152997000000004,10.993006,-3.270489,8.09605,-1
1199,1200,1583934191238,1.9951999,-0.348,6.0973997,11.391354,-3.2118025,7.0299697,-1
1200,1201,1583934191248,2.3762,-0.4484,4.9293,11.846232,-3.2928029999999997,5.693487999999999,-1
1201,1202,1583934191258,2.7063,-0.54219997,4.0252,12.187713,-3.3295013999999994,4.988932,-1
1202,1203,1583934191268,2.9944,-0.60139996,3.5958997999999998,12.414999,-3.3317807,4.7232330000000005,-1
1203,1204,1583934191278,3.1613998,-0.627,3.497,12.520909,-3.3046017,4.6106772000000005,-1
1204,1205,1583934191288,2.9822,-0.6987,3.4018,12.32673,-3.3230274,4.5017886,-1
1205,1206,1583934191298,2.6146,-0.92429996,3.4912998999999996,11.941235,-3.4865994,4.5926824,-1
1206,1207,1583934191308,2.4722,-1.0756,3.6004998999999995,11.941761,-3.5694675000000005,4.5249166,-1
1207,1208,1583934191318,2.4979,-1.2483,3.3478,12.0707035,-3.6814106,4.1304574,-1
1208,1209,1583934191329,2.7110000000000003,-1.4031999,2.8925,12.32671,-3.7606108,3.5618825,-1
1209,1210,1583934191339,2.9538999,-1.5015999,2.2186,12.5055,-3.7358263,2.951342,-1
1210,1211,1583934191349,2.9905999,-1.5846,1.5766,12.54327,-3.7392642,2.2262053,-1
1211,1212,1583934191359,2.9187,-1.6330999,1.2056,12.437055,-3.6437546999999997,1.9261352999999999,-1
1212,1213,1583934191370,2.7775998,-1.5881,1.0299,12.297654,-3.4790049,1.7290734,-1
1213,1214,1583934191380,2.6557999,-1.5669999,0.97139996,12.249129,-3.4241582999999998,1.6726657999999999,-1
1214,1215,1583934191390,2.5930998,-1.6768,1.0677999,12.184083,-3.5121693999999994,1.735327,-1
1215,1216,1583934191400,2.4038,-1.9466,1.1659,11.963587,-3.7024797999999994,1.607668,-1
1216,1217,1583934191410,2.1081998,-2.2099,0.86399996,11.542819999999999,-3.8079300000000003,1.1536509,-1
1217,1218,1583934191420,1.7062,-2.3207,0.5297,11.177703999999999,-3.7136845999999997,0.8081100999999999,-1
1218,1219,1583934191431,1.3253,-2.3276,0.3006,10.876868,-3.5661442,0.59315866,-1
1219,1220,1583934191441,1.0636,-2.2868,0.027999998999999998,10.857225,-3.3773087999999998,0.123876,-1
1220,1221,1583934191451,1.1661,-2.1676,-0.3859,10.921199,-3.131654,-0.12479537,-1
1221,1222,1583934191461,1.0929999,-2.0695999,-0.3636,10.642533,-2.9614743999999997,0.049406745,-1
1222,1223,1583934191471,0.7069,-2.0751998,-0.0665,10.193408999999999,-2.8766239,0.43056366,-1
1223,1224,1583934191481,0.2339,-2.0469,0.45009997,9.777795,-2.5788043,0.646875,-1
1224,1225,1583934191492,-0.1091,-1.7959,0.41099998,9.638635,-2.0331273000000003,-0.18633594,-1
1225,1226,1583934191502,-0.1556,-1.4388,-0.32709998,9.746,-1.4289553,-1.0143563,-1
1226,1227,1583934191512,-0.0427,-0.98319995,-1.0081999,9.820200999999999,-1.0768162000000001,-1.4574943,-1
1227,1228,1583934191523,0.0039999996999999995,-0.82129997,-1.2787,9.797408,-0.8985535,-1.5119479999999998,-1
1228,1229,1583934191533,-0.0446,-0.7115,-1.1438999,9.513735,-0.5127614,-1.1499829,-1
1229,1230,1583934191543,-0.3944,-0.5268,-0.6805,8.915605000000001,-0.37589923,-0.77089465,-1
1230,1231,1583934191553,-1.0354999,-0.5883,-0.22309999,8.294875,-0.384844,-0.5478890999999999,-1
1231,1232,1583934191563,-1.7324,-0.7556,0.059899997,7.9694256999999995,-0.42323738,-0.5299326,-1
1232,1233,1583934191574,-2.0442998,-0.8462,-0.1267,7.6179957,-0.22969970000000003,-1.2449179,-1
1233,1234,1583934191584,-2.1680999,-0.8181,-0.60209996,7.5059853,-0.27785190000000004,-1.9180906999999998,-1
1234,1235,1583934191594,-2.2515,-0.9869,-1.063,7.3320417,-0.4309563,-2.5755958999999997,-1
1235,1236,1583934191604,-2.4023,-1.2378,-1.6252999,7.167406599999999,-0.60452634,-3.2065446,-1
1236,1237,1583934191614,-2.552,-1.5361999,-2.3314,7.212973,-0.4321534000000001,-3.705142,-1
1237,1238,1583934191625,-2.4847,-1.4445,-2.6027,6.90867,0.03385401,-3.1699135,-1
1238,1239,1583934191635,-2.7688,-1.1121,-2.0054,6.1363773,0.30103734,-2.2192621,-1
1239,1240,1583934191645,-3.5210000000000004,-0.9526,-0.98609996,5.246931,0.61000425,-1.4267622,-1
1240,1241,1583934191655,-4.3887997,-0.7643,-0.1227,4.4860253,0.9806267,-1.1221241000000002,-1
1241,1242,1583934191665,-5.1187,-0.49989998,0.23809999,3.9562936,1.280831,-1.3562578,-1
1242,1243,1583934191676,-5.7697997,-0.0928,-0.4488,3.8217779999999997,1.6105411,-2.0706491000000002,-1
1243,1244,1583934191686,-5.7697997,-0.0928,-0.4488,4.1267323,1.7188453999999997,-2.7103992000000003,-1
1244,1245,1583934191696,-4.9677997000000005,0.0495,-1.6560999,4.613723,1.8811050999999999,-3.2705657,-1
1245,1246,1583934191707,-5.0074997,0.28149998,-1.7185999,4.4160285,2.1498687000000003,-3.3670232,-1
1246,1247,1583934191718,-5.5069,0.4305,-1.5185,3.7533135000000004,2.4134222999999997,-3.0444283,-1
1247,1248,1583934191729,-6.0155,0.62729996,-1.0060999,3.3256803,2.6818411,-2.5626387999999998,-1
1248,1249,1583934191739,-6.2507,0.90779996,-0.6448,3.1161972999999996,3.0675662,-2.4511836,-1
1249,1250,1583934191749,-6.370899700000001,1.3342999,-0.7615,3.0060925,3.5809116000000003,-2.7822156000000002,-1
1250,1251,1583934191760,-6.5144997,1.8111999,-1.2594,2.8537734,4.0570035,-3.3408787,-1
1251,1252,1583934191770,-6.6215997,2.1917,-1.6223999,2.7326555,4.431619599999999,-3.5434089,-1
1252,1253,1583934191781,-6.6519,2.3969,-1.5604,2.7784998,4.399633000000001,-3.3566995000000004,-1
1253,1254,1583934191791,-6.5562997,2.2213,-1.2789,2.9417174,4.1676726,-3.000222,-1
1254,1255,1583934191801,-6.423899700000001,2.0468,-0.8505,3.0117333,4.096153299999999,-2.6821764,-1
1255,1256,1583934191811,-6.3631997,2.02,-0.5839,2.9891514999999997,4.0179205,-2.6224458,-1
1256,1257,1583934191821,-6.4442,1.9153999,-0.6415,2.8697953,3.7148817000000003,-2.8406055,-1
1257,1258,1583934191832,-6.5397997000000005,1.5761,-0.9271,2.9472623,3.1328514,-3.3124260000000003,-1
1258,1259,1583934191842,-6.3935,1.0811,-1.3069,3.3758627999999997,2.5774827,-3.4252696000000005,-1
1259,1260,1583934191852,-5.9259996,0.6349,-1.3276,3.8632455,2.4023325,-3.2046200000000002,-1
1260,1261,1583934191862,-5.3511,0.625,-1.0246998999999999,4.2582984,2.5232396,-2.8704276,-1
1261,1262,1583934191872,-5.1583,0.8322,-0.7212,4.2017856,2.6666524,-2.4130487,-1
1262,1263,1583934191882,-5.4449997,1.0297999,-0.081999995,3.4641898,2.6094307999999997,-1.7645074,-1
1263,1264,1583934191892,-6.1147,0.97489995,0.35779998,3.1764064,2.3204317000000003,-1.5066998,-1
1264,1265,1583934191903,-6.3072,0.7829,0.5815,3.2636032000000004,2.092034,-1.224998,-1
1265,1266,1583934191913,-6.1022,0.54829997,0.9088,3.8117414,1.5442121000000002,-1.2197213,-1
1266,1267,1583934191923,-5.6166,0.1652,0.6846,4.195139,1.1960473,-1.7038002,-1
1267,1268,1583934191936,-5.3283,-0.0084999995,0.1504,4.223659,0.9932011000000001,-2.0039371999999998,-1
1268,1269,1583934191945,-5.3529,-0.027099999,-0.11,4.0640616000000005,0.6500066,-1.7332488000000001,-1
1269,1270,1583934191955,-5.5323997,-0.2259,0.1305,4.0852838,0.46643838,-1.284585,-1
1270,1271,1583934191965,-5.5337,-0.2613,0.5269,4.4622459999999995,0.42349598,-0.9719597,-1
1271,1272,1583934191976,-5.18,-0.1432,0.7944,4.9419002999999995,0.17044802,-0.55239975,-1
1272,1273,1583934191986,-4.6474,-0.3164,1.7013999,4.986892,-0.16456784,0.07124187,-1
1273,1274,1583934191997,-4.8696,-0.6362,1.6594,4.7664919999999995,-0.69011426,-0.08241799999999999,-1
1274,1275,1583934192007,-5.089299700000001,-0.9539,1.1320000000000001,4.5377975,-1.190579,-0.6322800000000001,-1
1275,1276,1583934192017,-5.3073997,-1.158,0.61,4.34154,-1.5405443,-1.0721427,-1
1276,1277,1583934192028,-5.2489,-1.1193,0.3721,4.489789,-1.714076,-1.1136965,-1
1277,1278,1583934192038,-4.8833,-0.9878,0.96559995,4.882639,-1.7900585,-0.2552219,-1
1278,1279,1583934192048,-4.3953,-0.99369997,2.0223,5.4499693,-2.1495623999999998,1.0348027,-1
1279,1280,1583934192058,-3.9199998,-1.1385,2.5705,5.985734,-2.6436968,1.372433,-1
1280,1281,1583934192068,-3.2977,-1.5479,2.2702,6.5439186,-3.4492497,0.9097584000000001,-1
1281,1282,1583934192079,-2.7907999,-2.2331,1.6187999,6.897657000000001,-4.4108667,0.36359304,-1
1282,1283,1583934192089,-2.5556997999999997,-3.0015,1.0282,7.0349402,-5.4700994000000005,-0.18066646,-1
1283,1284,1583934192100,-2.3985999,-3.6615998999999997,0.5155,7.147142,-6.2067285000000005,-0.5021310999999999,-1
1284,1285,1583934192110,-2.2138,-3.7551,0.5159,7.1798663000000005,-6.3975563,-0.38184643,-1
1285,1286,1583934192120,-2.2691,-3.5096998,0.5647,7.059974,-6.317379,-0.26097757,-1
1286,1287,1583934192130,-2.1041,-3.0219,0.8659,7.228832700000001,-6.0254874,0.68720293,-1
1287,1288,1583934192140,-1.9506999,-2.6590998,1.7716999,7.2527075,-6.2938294,1.5633466,-1
1288,1289,1583934192151,-1.8348999,-2.859,2.4013999,7.2810354,-6.9693966,2.1248062,-1
1289,1290,1583934192162,-1.6351999,-3.4410000000000003,2.8278,7.4869270000000006,-8.122042,2.7555346000000003,-1
1290,1291,1583934192172,-1.2221,-4.3946,3.3035,8.019014,-9.462919,3.0237138,-1
1291,1292,1583934192182,-0.5674,-5.0875998,3.2423,8.513283,-10.028306,2.802978,-1
1292,1293,1583934192192,0.2871,-5.457000000000001,2.8223,9.67496,-10.865827000000001,2.079891,-1
1293,1294,1583934192203,1.5539,-5.8543997,1.8576,10.994278999999999,-10.984472,0.6873083000000001,-1
1294,1295,1583934192213,3.0412998,-5.5041,0.2453,11.799536,-10.492053,-0.37888720000000004,-1
1295,1296,1583934192223,3.7633997999999997,-4.8045,-0.73069996,11.250861,-10.554244,0.10264422,-1
1296,1297,1583934192234,3.1555998,-4.7675,-0.0081,10.126638999999999,-11.149032,2.2260904,-1
1297,1298,1583934192244,2.2115,-5.2366,2.2415,9.222254,-12.228424,5.224263,-1
1298,1299,1583934192254,1.6855999,-5.9540997,4.6432,9.297096,-13.326203,5.9705744,-1
1299,1300,1583934192265,1.9482,-6.8459997,5.3022,10.62969,-14.425141,4.4993176,-1
1300,1301,1583934192275,3.4817998,-7.7372,3.7131,12.713105,-14.255978,2.0050004,-1
1301,1302,1583934192285,5.7682,-7.3719997,1.0871,14.226395000000002,-13.362825,-0.47246218,-1
1302,1303,1583934192295,7.4880996,-6.3012,-1.4993,14.219949,-12.971899,-1.0401561,-1
1303,1304,1583934192306,7.6566997,-5.7573,-2.1634998,13.2801485,-12.631923,0.58625376,-1
1304,1305,1583934192316,5.7651,-5.290499700000001,1.2334,11.844863,-12.836971,2.790375,-1
1305,1306,1583934192326,5.3122,-5.4221997,2.4494998,11.421826,-12.994558,3.9158318,-1
1306,1307,1583934192337,5.4083,-5.2868,2.7256,11.432007,-12.945314,4.027009,-1
1307,1308,1583934192347,5.9737,-5.3069997,1.9151,12.008492,-13.049031,3.1256494999999997,-1
1308,1309,1583934192357,6.9831,-4.973799700000001,0.5159,12.870605,-12.686664,1.7681468,-1
1309,1310,1583934192367,7.6232996,-4.3185997,-0.87369996,13.265113000000001,-12.111587,0.52607316,-1
1310,1311,1583934192377,7.3771996,-3.7942,-1.5498999,12.761545,-11.6361265,0.089964524,-1
1311,1312,1583934192388,6.5006,-3.2324998,-1.2599,11.56296,-11.018930000000001,0.6589896,-1
1312,1313,1583934192398,5.5489999999999995,-2.7582,-0.515,10.792104,-10.715442,1.2657666,-1
1313,1314,1583934192408,4.9133,-2.5054,0.0422,10.131045,-10.48692,1.804414,-1
1314,1315,1583934192418,4.5495,-2.2477,0.25259998,9.776876,-10.194185000000001,1.9540421000000001,-1
1315,1316,1583934192428,4.2028,-1.8384999,0.2208,9.327303,-9.773802,1.8736353,-1
1316,1317,1583934192438,3.7742,-1.4635999,-0.018099999,8.896728999999999,-9.425235,1.5630785,-1
1317,1318,1583934192449,3.4973,-1.1315,-0.4428,8.684142,-9.106107000000002,1.2129313,-1
1318,1319,1583934192459,3.3609998,-0.79139996,-0.72749996,8.557642999999999,-8.806066,0.9889011000000001,-1
1319,1320,1583934192469,3.2258,-0.5511,-0.99469995,8.311232,-8.599714,0.8013968,-1
1320,1321,1583934192479,2.8076,-0.3913,-0.9723,7.808057000000001,-8.464192,0.93808657,-1
1321,1322,1583934192490,2.3237997999999997,-0.361,-0.78209996,7.340584,-8.489974,1.0615028,-1
1322,1323,1583934192500,1.9926,-0.3913,-0.6958,7.035946000000001,-8.501714999999999,1.1885296,-1
1323,1324,1583934192510,1.6976,-0.3551,-0.48189998,6.7548475,-8.451503,1.5275676999999999,-1
1324,1325,1583934192520,1.3779,-0.3514,-0.090799995,6.3854413,-8.461433999999999,1.8134737,-1
