,Seq,Time,ACCx,ACCy,ACCz,ADGx,ADGy,ADGz,Keydown
0,1,1583937151103,2.1304,-2.0564,0.4583,8.210838,-9.045792,3.8208394,-1
1,2,1583937151113,-0.7252,-0.0455,0.0094,8.641162,0.33575326,0.19875705,-1
2,3,1583937151123,-1.3428999,-0.49339998,0.64699996,8.385692,0.26391762,1.2064766000000002,-1
3,4,1583937151134,-1.3532,-0.2622,1.4113,8.911286,0.03863284,0.8780781999999999,-1
4,5,1583937151144,-0.88409996,-0.56229997,0.92719996,9.828926,-0.44671974,0.26961586,-1
5,6,1583937151154,0.0254,-0.983,0.30879998,10.559771000000001,-0.32722035,0.6314371999999999,-1
6,7,1583937151164,0.905,-0.7826,0.7926,10.943655999999999,-0.39046559999999997,1.3993918,-1
7,8,1583937151175,1.1373999,-0.8132,1.3276,10.600586999999999,-0.5901899,1.3816746000000002,-1
8,9,1583937151185,0.7923,-0.91419995,1.1709,9.956555,-0.48048756,1.2211483,-1
9,10,1583937151195,0.1468,-0.7109,0.8563,9.417641,-0.12066776,0.8390528,-1
10,11,1583937151205,-0.3888,-0.2943,0.3502,9.167887,0.012737153000000001,0.35154542,-1
11,12,1583937151215,-0.6325,-0.19739999,-0.1554,9.206424,0.27385837,0.0312587,-1
12,13,1583937151225,0.0029,0.2401,-0.4535,9.886932,0.46393883,0.06384857,-1
13,14,1583937151235,0.0029,0.2401,-0.4535,10.016919,0.33513078,0.44412443,-1
14,15,1583937151246,0.2067,0.1016,0.033099998,10.004517,-0.011559206,1.3454839,-1
15,16,1583937151256,0.19579999,-0.2258,0.96529996,9.938609,-0.23889345,1.9267672999999998,-1
16,17,1583937151266,0.1282,-0.4373,1.5187,10.075931,-0.2829755,1.8225046000000003,-1
17,18,1583937151276,0.47129998,-0.1618,0.37739998,10.288555,0.04233906,0.762084,-1
18,19,1583937151286,0.47129998,-0.1618,0.37739998,10.231611000000001,0.25052926,-0.05671385,-1
19,20,1583937151296,0.4127,0.1713,-1.1342,10.207832000000002,0.32854193,-0.5313308000000001,-1
20,21,1583937151307,0.4127,0.1713,-1.1342,10.330128,0.4358692,-0.56426543,-1
21,22,1583937151317,0.4784,0.2016,-0.861,10.209441,0.34149936,-0.13962984,-1
22,23,1583937151327,0.1235,-0.021,-0.27359998,9.853423,0.11624328,0.43289079999999996,-1
23,24,1583937151337,-0.0053,-0.1727,0.4561,9.811066,0.034189202,1.1195766000000003,-1
24,25,1583937151347,0.0725,-0.2209,1.1781,9.88698,0.009854534,1.7226664,-1
25,26,1583937151358,0.0433,-0.2254,1.1858,9.8323345,-0.029103916,1.5487229,-1
26,27,1583937151367,0.0245,-0.22639999,0.8452,9.827059,0.010275913000000001,1.340753,-1
27,28,1583937151377,-0.0133,-0.10759999599999999,0.261,9.793347,0.14127706,0.66843235,-1
28,29,1583937151387,0.0368,-0.0376,-0.2427,9.880009,0.20851581,0.2768176,-1
29,30,1583937151397,0.273,0.039699998,-0.2861,10.068039,0.2684762,0.27332205,-1
30,31,1583937151407,0.4596,0.1599,-0.19039999,10.278777,0.40937018,0.45168050000000004,-1
31,32,1583937151418,0.42049998,0.095199995,0.413,10.077693,0.34332854,1.2596661,-1
32,33,1583937151428,0.0286,0.012999999,1.0453,9.758287,0.27649197,1.6811222,-1
33,34,1583937151438,-0.2936,-0.0435,1.6345999,9.345728,0.27406907,2.5159228,-1
34,35,1583937151448,-0.7417,-0.0418,2.3629,8.943139,0.31006828,3.0746818,-1
35,36,1583937151458,-1.3047,-0.018199998999999998,2.4617999,8.297987,0.380544,3.0228808,-1
36,37,1583937151468,-1.6249,0.15429999,1.9187,8.144902,0.60625976,2.6299732000000002,-1
37,38,1583937151478,-1.6249,0.15429999,1.9187,8.242154,0.89537394,2.1883578,-1
38,39,1583937151489,-1.0874,0.7565,0.8993,8.910969999999999,1.2196351,1.8196603,-1
39,40,1583937151499,-0.5265,0.8244,1.0598,9.353227,1.2842977,2.136308,-1
40,41,1583937151509,-0.4468,0.79609996,1.4469,9.154182,1.1763479,2.6581001,-1
41,42,1583937151519,-0.98499995,0.62,2.2138,8.444771000000001,1.0593098,3.4707498999999995,-1
42,43,1583937151530,-1.8369,0.55469996,2.8953998,7.602892999999999,1.1261462,3.955336,-1
43,44,1583937151539,-2.61,0.70379996,3.0356,6.907932799999999,1.3078854,3.8171809999999997,-1
44,45,1583937151549,-3.1571,0.86759996,2.5328,6.4439077000000005,1.5147636,3.199343,-1
45,46,1583937151559,-3.5567,1.0214,1.8644999,6.1427555,1.6279806,2.5643337,-1
46,47,1583937151569,-3.5444998999999995,1.0317,1.3455,6.325577,1.6080608,2.1616385,-1
47,48,1583937151580,-3.3667998,0.9783,1.1528,6.489694,1.5273092,2.1393726,-1
48,49,1583937151590,-3.1513999,0.8476,1.3526,6.5961027,1.2905896000000001,2.5242262,-1
49,50,1583937151600,-3.2317998,0.4587,1.869,6.4340725,0.8735004999999999,3.1950908,-1
50,51,1583937151610,-3.4524998999999994,0.2943,2.4020998,5.945368,0.7766408,3.3569007000000006,-1
51,52,1583937151620,-4.085099700000001,0.3048,2.3696,5.2995176,0.84906054,3.0789432999999997,-1
52,53,1583937151630,-4.6777,0.4127,2.0869,4.999878400000001,1.0240767,2.6787667,-1
53,54,1583937151641,-4.7304997,0.7205,1.4851999,5.1996603,1.3642353,1.6620644,-1
54,55,1583937151651,-4.5383997,1.0167,0.4538,5.213068,1.3473897,0.85598457,-1
55,56,1583937151661,-4.5829997,0.8797,-0.16,5.184989,1.1540626,0.43616608,-1
56,57,1583937151671,-4.5014,0.79109997,-0.3597,5.2097445,0.9473951999999999,0.3987495,-1
57,58,1583937151681,-4.7736,0.5945,-0.0888,4.5635114,0.46747264,0.88035756,-1
58,59,1583937151691,-5.4865,0.12109999,0.5837,3.7657347000000003,-0.10762415,1.6215832000000001,-1
59,60,1583937151701,-6.3940997,-0.4306,1.4409999999999998,2.9814800999999997,-0.84982663,2.0827065,-1
60,61,1583937151711,-6.9466996,-1.104,1.6708,2.866463,-1.4615261999999998,1.7431321,-1
61,62,1583937151721,-6.7506,-1.4626,0.5588,3.4479472999999996,-1.5330840000000001,-0.33073503,-1
62,63,1583937151731,-6.091,-1.1609,-1.3227,4.090168,-1.5116128,-1.8583793999999998,-1
63,64,1583937151741,-5.4677,-1.0895,-2.381,4.613176999999999,-1.6053122,-2.188195,-1
64,65,1583937151752,-5.126,-1.0178,-2.3181998999999998,4.6112804,-1.8742481,-1.7230113,-1
65,66,1583937151762,-5.1933,-1.2329999,-1.8303,4.6014447,-2.607621,-1.1973690000000001,-1
66,67,1583937151772,-5.1204,-2.0521,-1.0138999,4.6671224,-3.5930839,-0.33662474,-1
67,68,1583937151782,-5.1031,-2.9282,-0.3412,4.7145376,-4.9058824,-0.75403947,-1
68,69,1583937151792,-5.0622997000000005,-3.5869,-0.9291,4.664249400000001,-5.599291,-2.1050012000000002,-1
69,70,1583937151803,-5.0269,-4.3687997,-2.4566998,5.07339,-6.2907267,-3.5968190000000004,-1
70,71,1583937151812,-4.4575,-4.4878,-3.5672998,5.759903400000001,-5.574621,-3.3661422999999995,-1
71,72,1583937151822,-3.8346998999999995,-3.6215,-3.2875,5.7102385,-5.264016000000001,-3.2771738,-1
72,73,1583937151832,-4.1401,-2.9449,-3.2238,4.8361434999999995,-4.493964,-2.6261232000000003,-1
73,74,1583937151842,-4.8626,-2.2489998,-2.6396,4.340294999999999,-4.726441400000001,-2.3820200000000002,-1
74,75,1583937151852,-5.216,-2.5864,-2.6727998,4.827496,-5.530510400000001,-2.8371289,-1
75,76,1583937151863,-4.4138,-3.0476,-3.3184,6.1767626,-6.468386,-3.8776777,-1
76,77,1583937151873,-2.8867,-3.8184,-4.427,7.785963000000001,-7.3618255,-4.442872,-1
77,78,1583937151883,-1.2348,-4.4082,-4.9498997000000005,8.932709,-7.7379546,-4.800834,-1
78,79,1583937151893,-0.2258,-4.4564,-5.2879,9.049737,-7.6538414999999995,-4.3233156,-1
79,80,1583937151903,-0.1962,-4.1184,-4.7427,8.190296,-7.309717999999999,-3.6650345,-1
80,81,1583937151913,-1.1445999,-3.5581,-4.1575,6.933043,-7.2527933,-2.6558306000000003,-1
81,82,1583937151924,-2.2022998,-3.5189,-3.31,6.9459906,-7.918180499999999,-2.4739093999999997,-1
82,83,1583937151934,-1.6869999,-3.9296,-3.5649998,8.752751,-8.3801565,-3.3343854,-1
83,84,1583937151944,0.4328,-4.2637997,-4.6946,10.918142999999999,-9.423271000000002,-4.562764,-1
84,85,1583937151954,2.6806,-5.1295,-6.0062,12.695744,-10.283738,-5.3521996,-1
85,86,1583937151964,4.1846,-5.5601,-6.6913,12.968548,-10.986953,-5.0501947,-1
86,87,1583937151974,4.5959997,-6.0755,-6.474,12.627441000000001,-11.235711,-4.462064,-1
87,88,1583937151985,4.2567997,-6.1108,-5.7734,11.932682000000002,-11.121546,-3.2315402,-1
88,89,1583937151995,3.7882998,-5.8589997,-4.8217998,11.774359,-10.978583,-2.649596,-1
89,90,1583937152005,3.7645,-5.5687,-4.3417997,12.409396000000001,-10.716935000000001,-2.7361607999999995,-1
90,91,1583937152015,4.5223,-5.153,-4.5467,13.418064000000001,-10.966229,-3.088884,-1
91,92,1583937152025,5.6789,-5.2538,-5.006,14.314003,-11.306312,-3.022019,-1
92,93,1583937152036,6.8844,-5.5102997,-4.9638,14.719619,-11.706373,-3.0217313999999997,-1
93,94,1583937152046,7.2383,-5.6846,-5.0523,14.439957000000001,-12.113567999999999,-3.1603272000000002,-1
94,95,1583937152057,7.3385997000000005,-6.112,-5.2497997000000005,14.651279,-12.479096,-3.2129517000000005,-1
95,96,1583937152067,7.7216997,-6.3508997,-5.0213,14.979954999999999,-12.925614999999999,-2.779036,-1
96,97,1583937152077,8.1584,-6.8146996,-4.1429,15.269366,-13.539191,-1.7489069,-1
97,98,1583937152087,8.5461,-7.3198,-2.9057,15.586225,-14.040479999999999,-0.5506951,-1
98,99,1583937152097,8.733399,-7.291,-1.956,15.542669,-13.966164000000001,0.20036595,-1
99,100,1583937152108,8.4138,-6.975,-1.4513999,15.138720000000001,-13.731724,0.54825306,-1
100,101,1583937152118,8.0896,-6.672999999999999,-1.7253,14.8206835,-13.398029000000001,0.051417875999999994,-1
101,102,1583937152128,8.1938,-6.2832,-1.9879999,14.994952,-13.027953,-0.013273453999999999,-1
102,103,1583937152138,8.3616,-5.8928,-1.6896,15.062114999999999,-12.733025999999999,0.31590053,-1
103,104,1583937152148,8.2954,-5.710099700000001,-1.0409,14.872426999999998,-12.652466,1.0931255,-1
104,105,1583937152159,7.905999700000001,-5.7082,0.053299997,14.541576999999998,-12.718881,1.9426743999999998,-1
105,106,1583937152170,7.6173,-5.8005,1.1682999,14.273492999999998,-12.668928,3.1356764,-1
106,107,1583937152180,7.3532,-5.6161,1.8678999,13.945860999999999,-12.438069,3.3760830000000004,-1
107,108,1583937152190,6.7605996,-5.2743998,2.1636999,13.44193,-11.939568,3.4886775,-1
108,109,1583937152200,6.2541,-4.753,2.4394,13.020627000000001,-11.357393,3.9047706,-1
109,110,1583937152210,5.8329,-4.4803,2.9452,12.691233,-11.064324000000001,4.1854379999999995,-1
110,111,1583937152220,5.4898,-4.2569,3.3569998999999995,12.482372,-10.780889,4.6909018,-1
111,112,1583937152231,5.2285,-4.0792,3.9557,12.437199,-10.570506,5.077039,-1
112,113,1583937152241,5.0965,-4.0023,4.4101,12.435675,-10.436430999999999,5.404556299999999,-1
113,114,1583937152251,4.9877,-4.0162997,4.8733,12.287004,-10.194549,5.7195373,-1
114,115,1583937152261,4.5503,-3.8281998999999995,5.3045,11.780899,-9.907896000000001,5.9428587,-1
115,116,1583937152271,3.7965,-3.8095,5.4946,11.064239,-9.964093,5.6218443,-1
116,117,1583937152281,3.0628,-4.1137,4.9839997,10.926849,-10.230577,5.0091968,-1
117,118,1583937152291,3.2143,-4.6096997,4.731,11.475686,-10.600386,5.032516,-1
118,119,1583937152301,3.8981998,-5.4825,4.9502,12.410737,-11.552817999999998,5.306413,-1
119,120,1583937152311,4.3872,-6.3032,5.402199700000001,12.620163,-11.700799,5.919348,-1
120,121,1583937152321,4.1783,-6.244,6.2042,12.001128,-10.921275,6.686546000000001,-1
121,122,1583937152331,3.0734,-5.4462,6.9091997,10.715288000000001,-9.770928,7.0914435,-1
122,123,1583937152341,1.6143999,-4.4758997,7.214699700000001,9.448334,-8.625198,7.001996000000001,-1
123,124,1583937152351,0.37469998,-3.6007,6.8507,8.59981,-7.6988616,6.3723693,-1
124,125,1583937152362,-0.3579,-3.0595999,6.173899700000001,8.306567999999999,-7.1522083,5.691199299999999,-1
125,126,1583937152372,-0.6913,-2.7835999,5.4495997,8.046088000000001,-6.3938785000000005,5.054284,-1
126,127,1583937152382,-1.2064999,-2.0718,5.0448,6.9660926,-5.2638345,5.163345,-1
127,128,1583937152392,-2.4347,-1.4195,5.3977,5.4120545,-4.6013303,6.1498137,-1
128,129,1583937152402,-4.0309,-1.0794,6.5304,4.7082934000000005,-4.190648,7.2511945,-1
129,130,1583937152413,-4.5776997,-0.91969997,7.5379996,4.9393816,-3.7905383,7.469689,-1
130,131,1583937152423,-4.3375998,-0.7545,7.6429996,5.14671,-3.4677043,6.8395734,-1
131,132,1583937152433,-4.2841,-0.64519995,6.8595996,4.9190407,-2.983884,5.485394,-1
132,133,1583937152443,-4.6356997,-0.3023,5.4276,4.454556,-2.2508175,3.8518779999999997,-1
133,134,1583937152454,-5.119,0.17300000000000001,3.9357,4.1159587,-1.494384,2.4483585,-1
134,135,1583937152464,-5.4891,0.82949996,2.3657,4.170767,-0.61822116,1.1533444,-1
135,136,1583937152474,-5.3931,1.4796,1.2667999,4.2842035,0.06277597,1.2086217,-1
136,137,1583937152484,-5.4006,1.9025999,1.6157999,3.9402716,0.6250207,2.4885526000000002,-1
137,138,1583937152495,-5.7471,2.1639,2.761,3.5623612000000002,0.9402126000000001,3.3208724999999997,-1
138,139,1583937152505,-6.1568,2.2804,3.6615998999999997,3.1718382999999997,0.94544154,3.5028224000000003,-1
139,140,1583937152515,-6.6285996,2.0577,3.8834998999999994,3.3547937999999995,0.68562275,2.7854812,-1
140,141,1583937152525,-6.3977,1.6831,3.2805998,4.2079244000000005,0.38105157,1.8714805,-1
141,142,1583937152535,-5.5539,1.2475,2.4287999,4.7563305,0.15145720000000001,1.1285691999999998,-1
142,143,1583937152545,-5.0119,0.89879996,1.7217,4.624496499999999,0.36826655,-0.14251247,-1
143,144,1583937152555,-5.1558,1.0196999,0.4917,4.3907169999999995,0.6344634,-0.9751392,-1
144,145,1583937152565,-5.4467,1.2548,-0.4741,4.4125805,1.2000792,-1.1937394,-1
145,146,1583937152575,-5.3733997,1.6644,-0.579,4.6114334999999995,1.5414348999999998,-0.8983332,-1
146,147,1583937152585,-5.1802998,1.9149,-0.2668,4.716539,1.5479088,-0.54011273,-1
147,148,1583937152596,-4.8757,1.6001999,-0.14119999,4.983761,1.3103945,-1.0386813,-1
148,149,1583937152606,-4.8757,1.6001999,-0.14119999,5.265308999999999,1.0740579,-1.7237773,-1
149,150,1583937152616,-4.5204,1.2682999,-0.96779996,5.8915367,0.5533479,-2.2964703999999996,-1
150,151,1583937152626,-3.1719,0.3091,-1.7069,6.7036114,0.1559966,-2.565052,-1
151,152,1583937152636,-2.9550998,0.23699999,-1.8671999,6.827813000000001,0.13045526,-2.7081103,-1
152,153,1583937152646,-3.1415,0.3584,-2.1097999,6.622822,0.31952056,-2.988232,-1
153,154,1583937152657,-3.1908998,0.655,-2.1901999,6.613082,0.65226674,-3.0211377,-1
154,155,1583937152667,-2.9944,0.8545,-2.0471,6.804407,0.83568174,-2.8298507,-1
155,156,1583937152677,-2.8946998,0.7626,-1.7529,6.909216000000001,0.6877871,-2.5880650000000003,-1
156,157,1583937152687,-2.7935998,0.3222,-1.7673,7.014178,0.24083754,-2.7241897999999996,-1
157,158,1583937152697,-2.5641,-0.0534,-2.0289,7.305743700000001,-0.10101616,-3.0348806,-1
158,159,1583937152707,-2.5641,-0.0534,-2.0289,7.928064,-0.18876843,-3.2777293,-1
159,160,1583937152718,-1.5073,-0.18169999,-2.2970998,8.30154,-0.19497421,-3.265787,-1
160,161,1583937152729,-1.5073,-0.18169999,-2.2970998,8.177864999999999,-0.17111838,-3.1173653999999997,-1
161,162,1583937152739,-1.7788999,-0.1545,-2.0142,7.851267,-0.11423215,-3.0195386,-1
162,163,1583937152749,-2.0341,-0.074499995,-1.8994,7.693239999999999,-0.0154856965,-2.8844385,-1
163,164,1583937152759,-2.0249,-0.049399998,-1.8362,7.8019567,0.035491645,-2.8986793,-1
164,165,1583937152769,-1.8195,-0.0466,-1.9298999,8.134942,0.017152062,-2.9503844,-1
165,166,1583937152779,-1.2804999,-0.0069,-1.913,8.722480000000001,0.06298666,-2.9501736000000003,-1
166,167,1583937152790,-0.7607,0.0277,-1.9221,9.177750999999999,0.010457873000000001,-2.9060054,-1
167,168,1583937152800,-0.5542,-0.0654,-1.8283999,9.227197,-0.18894082,-2.799674,-1
168,169,1583937152810,-0.4944,-0.3488,-1.5442,9.288248,-0.48863742,-2.3918362,-1
169,170,1583937152820,-0.41489998,-0.48929998,-1.2796,9.366529,-0.51864153,-2.3073113,-1
170,171,1583937152830,-0.2968,-0.4554,-1.2764,9.509941,-0.42924207,-2.371495,-1
171,172,1583937152840,-0.23879999,-0.2462,-1.3130000000000002,9.466797999999999,-0.15811308,-2.3612382000000003,-1
172,173,1583937152851,-0.348,-0.0865,-1.3162,9.367026,-0.09747274,-2.3360991,-1
173,174,1583937152861,-0.369,-0.0624,-1.2903,9.482724000000001,-0.13198754,-2.2375252,-1
174,175,1583937152871,-0.213,-0.13239999,-1.1522,9.684421,-0.24718696,-1.9787023999999998,-1
175,176,1583937152881,0.011899999,-0.2192,-0.8146,9.800185,-0.2832628,-1.5867715,-1
176,177,1583937152892,0.0409,-0.2163,-0.447,9.797667,-0.2975131,-1.2397176,-1
177,178,1583937152902,0.0405,-0.2417,-0.1577,9.840782,-0.32891545,-1.1304749,-1
178,179,1583937152912,0.1184,-0.22699999999999998,-0.1837,10.027569,-0.29476452,-1.2836082,-1
179,180,1583937152922,0.3041,-0.15349999,-0.3089,10.06508,-0.24758919,-1.4203745,-1
180,181,1583937152932,0.2837,-0.1214,-0.46559998,10.01939,-0.23724623,-1.5025818000000002,-1
181,182,1583937152942,0.2631,-0.1016,-0.6137,10.116211,-0.2402342,-1.6712868000000003,-1
182,183,1583937152953,0.3604,-0.1028,-0.7015,10.1855755,-0.21125478,-1.5753368,-1
183,184,1583937152963,0.4479,-0.044000000000000004,-0.49519998,10.176382,-0.1665694,-1.1641375,d
184,185,1583937152973,0.3595,0.0072999996999999995,-0.1336,9.859735,-0.044034157000000004,-0.6542204,-1
185,186,1583937152983,0.015899998999999998,0.1467,0.3911,9.50024,0.09309614,-0.324874,-1
186,187,1583937152994,-0.3179,0.2588,0.6409999999999999,9.386045,0.16406986,-0.38579208,-1
187,188,1583937153003,-0.377,0.2996,0.48839998,9.542455,0.12374192,-0.6457736999999999,-1
188,189,1583937153013,-0.0535,0.23189999,0.13069999,10.105839,-0.05518156,-1.076864,-1
189,190,1583937153023,0.4077,0.1318,-0.23439999,10.317783,-0.266331,-1.4798847,-1
190,191,1583937153034,0.565,-0.0655,-0.61869997,10.413953999999999,-0.43453804,-1.5951321000000003,-1
191,192,1583937153044,0.6929,-0.1785,-0.6609,10.556341999999999,-0.4099831,-1.4252491000000003,-1
192,193,1583937153054,0.7909999999999999,-0.121199995,-0.4795,10.384160000000001,-0.3553666,-1.1921304,-1
193,194,1583937153064,0.6143,-0.0616,-0.28869998,10.1382475,-0.3086413,-1.0520121999999998,-1
194,195,1583937153074,0.3004,0.019199999,-0.1433,9.889145,-0.2211572,-1.0810683,-1
195,196,1583937153084,0.0652,0.096099995,-0.1408,9.637131,-0.12855905,-0.87296426,-1
196,197,1583937153095,-0.1794,0.1827,0.0703,9.424517,-0.23063825,-0.8112034,-1
197,198,1583937153105,-0.34559998,0.0475,0.0947,9.6142235,-0.27181852,-0.9207525,-1
198,199,1583937153115,-0.1589,0.0378,-0.0022,9.8922,-0.31994197,-1.0568963,-1
199,200,1583937153125,0.115499996,0.0067,-0.14649999,10.050676,-0.37550658,-1.1821898000000002,-1
200,201,1583937153135,0.2816,-0.0308,-0.2882,10.119007,-0.3559699,-1.5293586000000001,-1
201,202,1583937153146,0.34939998,0.0088,-0.6489,10.206883,-0.30102777,-1.8453166,-1
202,203,1583937153156,0.4367,0.0837,-0.98029995,10.336737,-0.21029711,-1.8761251,-1
203,204,1583937153166,0.5634,0.1915,-1.0236,10.2759905,-0.26635015,-1.4710933000000002,-1
204,205,1583937153176,0.3269,-0.0188,-0.1427,10.06145,-0.41817126,-0.8785188,-1
205,206,1583937153186,0.1401,-0.0587,0.3372,9.855694,-0.45830768,-0.42431957,-1
206,207,1583937153196,-0.1938,-0.11889999,0.59959996,9.513705,-0.47164816,-0.224375,-1
207,208,1583937153207,-0.1938,-0.11889999,0.59959996,9.222887,-0.34193987,-0.45043552,-1
208,209,1583937153217,-0.4892,-0.0223,0.473,9.238679,-0.2601348,-0.6818590999999999,-1
209,210,1583937153227,-0.2454,0.1112,0.032199997,9.628129,-0.27158865,-0.7609252,-1
210,211,1583937153237,0.0088,0.044000000000000004,-0.0011999999,9.804342,-0.34966835,-0.7990217,-1
211,212,1583937153247,0.047399998,-0.0427,-0.053099997,9.842103999999999,-0.45018652,-0.843937,-1
212,213,1583937153257,0.0862,-0.17019999,-0.0841,9.890638000000001,-0.6083188,-0.85887676,-1
213,214,1583937153268,0.2523,-0.3094,-0.0959,10.061009,-0.7266881,-0.8527093000000001,-1
214,215,1583937153278,0.2906,-0.31509998,-0.1094,10.054795,-0.72175604,-0.86332035,-1
215,216,1583937153288,0.18159999,-0.3254,-0.1244,9.93179,-0.7376727,-0.8434389999999999,-1
216,217,1583937153298,-0.0058999998,-0.28059998,0.0173,9.720364,-0.6489149000000001,-0.5640546999999999,-1
217,218,1583937153308,-0.2031,-0.19749999,0.2994,9.471816,-0.58950037,-0.32179028,-1
218,219,1583937153319,-0.4588,-0.16139999,0.5252,9.260178999999999,-0.55229443,-0.042951975,-1
219,220,1583937153329,-0.63589996,-0.1599,0.7418,9.112658,-0.5820017,0.120572,-1
220,221,1583937153339,-0.6559,-0.20969999,0.75,9.209478,-0.62222433,-0.012497733,-1
221,222,1583937153349,-0.3032,-0.192,0.44099998,9.600711,-0.6365416,-0.28972715,-1
222,223,1583937153359,0.18689999,-0.276,-0.009699999,10.078268,-0.7894066,-0.8051988,-1
223,224,1583937153369,0.4317,-0.4779,-0.32639998,10.286363,-1.0443412,-0.93122953,-1
224,225,1583937153380,0.5293,-0.62729996,-0.2784,10.30337,-1.1168855,-0.8116344,-1
225,226,1583937153390,0.4306,-0.59,-0.2179,10.103081,-0.9888915,-0.7315723000000001,-1
226,227,1583937153400,0.2532,-0.4145,-0.0947,9.892047,-0.7664414,-0.49919105,-1
227,228,1583937153410,-0.0221,-0.196,0.20019999,9.612222000000001,-0.6398935,-0.15293202,-1
228,229,1583937153420,-0.4249,-0.0972,0.65669996,9.141569,-0.5585576999999999,0.33598313,-1
229,230,1583937153430,-0.76839995,-0.0635,0.95,8.967922999999999,-0.5390114,0.54583967,-1
230,231,1583937153441,-0.7782,-0.0316,1.1452,9.0852,-0.49546567,0.5467781999999999,-1
231,232,1583937153450,-0.6404,-0.0187,0.9852,9.28299,-0.5361670999999999,0.3626258,-1
232,233,1583937153460,-0.2376,-0.027099999,0.62659997,9.760921000000002,-0.5489234000000001,-0.115783595,-1
233,234,1583937153470,0.2634,-0.08,0.1287,10.26242,-0.69769907,-0.6132316999999999,-1
234,235,1583937153480,0.5976,-0.1654,-0.20279999,10.435061,-0.6925468000000001,-0.75096536,-1
235,236,1583937153490,0.57839996,-0.103099994,-0.20019999,10.123068,-0.66338545,-0.5224052,-1
236,237,1583937153501,0.1469,-0.0711,0.1293,9.713908,-0.56988704,-0.16211618,-1
237,238,1583937153511,-0.2162,0.0616,0.50119996,9.425177,-0.43123403,0.19243635,-1
238,239,1583937153521,-0.43219998,0.2527,0.7856,9.27192,-0.14026192,0.34627816,-1
239,240,1583937153531,-0.5499,0.49769998,0.75519997,9.239933,-0.042118800000000005,0.12069649,-1
240,241,1583937153541,-0.4615,0.5352,0.41700000000000004,9.463417,-0.046390053,-0.28771599999999997,-1
241,242,1583937153552,-0.2058,0.5426,0.0968,9.777028999999999,-0.10888829,-0.5333131999999999,-1
242,243,1583937153562,0.0894,0.4581,-0.1055,9.975537,-0.22021867,-0.70100313,d
243,244,1583937153572,0.23779999,0.36479998,-0.27699998,10.185633000000001,-0.43066899999999997,-0.7843022,-1
244,245,1583937153582,0.43519998,0.1899,-0.3094,10.356626499999999,-0.5610477,-0.7153396,-1
245,246,1583937153592,0.57339996,0.1064,-0.2119,10.34592,-0.70028484,-0.47609179999999995,-1
246,247,1583937153603,0.54429996,-0.0828,0.049999997000000004,10.304031,-0.9275999,-0.3356575,-1
247,248,1583937153613,0.51449996,-0.239,0.14729999,10.20088,-0.7687399,-0.42512402,-1
248,249,1583937153623,0.35639998,-0.0469,-0.0391,9.751315,-0.5557804000000001,-0.7284885,-1
249,250,1583937153633,-0.1157,0.1618,-0.3254,9.503238,-0.36975095,-0.75522697,-1
250,251,1583937153643,-0.3128,0.3042,-0.3225,9.460564,-0.37313157,-0.48032475,-1
251,252,1583937153653,-0.2935,0.2573,0.0295,9.687265,-0.5525626,0.018799273000000002,-1
252,253,1583937153663,-0.008599999,0.0805,0.4385,10.166135,-0.85000867,-0.110861115,-1
253,254,1583937153673,0.5121,-0.18869999,0.213,10.664214999999999,-0.9754553,-0.37189615,-1
254,255,1583937153683,0.9152,-0.2908,-0.0039999996999999995,10.816889,-1.035272,-0.5797703000000001,-1
255,256,1583937153694,1.0629,-0.3096,-0.23439999,10.831953,-1.0002592,-0.8114333,-1
256,257,1583937153704,1.0629,-0.2757,-0.4398,10.8810625,-1.0547991,-0.7981694,-1
257,258,1583937153714,1.1113,-0.3364,-0.4427,10.904764,-1.0127378,-0.8607155000000001,-1
258,259,1583937153724,1.1204,-0.2931,-0.4899,10.846356,-0.9711648,-0.74743146,-1
259,260,1583937153734,1.0604,-0.2659,-0.40019998,10.821389,-1.0458639,-0.4341358,-1
260,261,1583937153745,1.0297999,-0.35909998,-0.0818,10.966009,-1.0743358,-0.21077594,-1
261,262,1583937153755,1.1855999,-0.4034,0.1326,11.086801,-1.1294790000000001,-0.06980535,-1
262,263,1583937153765,1.2925999,-0.4662,0.2818,11.20765,-1.2423896,-0.049828122999999995,-1
263,264,1583937153775,1.4194,-0.5858,0.3037,11.592025999999999,-1.3574643999999998,-0.42858127,-1
264,265,1583937153785,1.8012999,-0.71239996,-0.0695,12.03072,-1.3775278,-0.64896274,-1
265,266,1583937153796,2.2417998,-0.7402,-0.3015,12.259778,-1.4437611000000001,-0.5156153,-1
266,267,1583937153806,2.4761,-0.8208,-0.17459999,12.478617,-1.4451593,-0.72467697,-1
267,268,1583937153816,2.6903,-0.83889997,-0.4026,12.706297,-1.4357932,-1.0362966,-1
268,269,1583937153826,2.9612,-1.2303,-0.72859997,12.8016815,-1.8523843,-0.98395944,-1
269,270,1583937153836,3.1748998,-1.5562999,-0.3787,12.99497,-2.1258310000000002,-0.6705776,-1
270,271,1583937153847,3.1748998,-1.5562999,-0.3787,12.970196000000001,-2.231128,-0.56418884,-1
271,272,1583937153857,2.8962,-1.6765,0.0174,12.634689999999999,-2.0461998,-0.2757833,-1
272,273,1583937153867,2.5902,-1.5546,0.261,12.389869000000001,-1.8299171000000003,-0.06258443,-1
273,274,1583937153877,2.5786,-1.3449,0.3444,12.410307000000001,-1.5404198,-0.004185064699999999,-1
274,275,1583937153888,2.5967999,-1.2425,0.3347,12.356914999999999,-1.4005411,-0.038173154,-1
275,276,1583937153897,2.3699,-1.2399,0.3371,12.090537,-1.3826610000000001,0.00063206925,-1
276,277,1583937153907,1.9963,-1.29,0.3455,11.743646,-1.3470353000000002,0.019910181000000002,-1
277,278,1583937153917,1.7996999,-1.3623999,0.2074,11.615297,-1.3632393,-0.14769351,-1
278,279,1583937153927,1.8881999,-1.4473,0.19389999,11.731349,-1.33969,-0.09989567,-1
279,280,1583937153937,1.8993,-1.4196999,0.3556,11.656630499999999,-1.2345749,0.08233181,-1
280,281,1583937153948,1.4113,-1.3716999,0.4438,11.093964999999999,-1.0795839,0.14289553,-1
281,282,1583937153958,0.77739996,-1.2046,0.486,10.444513,-0.79567945,0.18002482,-1
282,283,1583937153968,0.027099999,-1.0231,0.62839997,9.670717,-0.5240045999999999,0.35922602,-1
283,284,1583937153978,-0.65309995,-0.93179995,1.1739,8.937880499999999,-0.3282163,0.97210336,-1
284,285,1583937153988,-1.1264,-0.87649995,1.5479,8.584947,-0.15507723,1.1222389,-1
285,286,1583937153998,-1.1264,-0.87649995,1.5479,8.549187,0.03164177,0.82600915,-1
286,287,1583937154009,-1.3349,-0.79899997,0.87649995,8.321968,0.089495264,0.11179006,-1
287,288,1583937154019,-1.5805,-0.7987,0.060099997,8.102936,0.24755087,-0.72826827,-1
288,289,1583937154029,-1.7077,-0.60249996,-0.54399997,8.02138,0.50826985,-1.1176612,-1
289,290,1583937154039,-1.9121,-0.2241,-0.5234,7.6772947,1.123053,-0.79574645,-1
290,291,1583937154049,-2.4675,0.0981,0.1688,6.885034599999999,1.439576,-0.07091625,-1
291,292,1583937154059,-3.3443,0.2976,0.9073,6.074329,1.8132342000000001,0.46902412,-1
292,293,1583937154070,-3.9845998,0.6082,1.2001,5.4977480000000005,2.1724699,0.63494223,-1
293,294,1583937154079,-4.4586,0.7525,1.3554,5.1233716,2.301029,0.69461536,-1
294,295,1583937154089,-4.8849998,0.67469996,1.0455999,4.706072,2.2727106,0.13448709,-1
295,296,1583937154099,-4.9115,0.6701,0.5133,4.754358,2.404736,-0.3290878,-1
296,297,1583937154109,-4.8911,0.7355,0.3363,4.6747365,2.4902474999999997,-0.48795745,-1
297,298,1583937154119,-5.0683,0.8073,-0.034199997999999995,4.5187206,2.7242757999999996,-1.0575379999999999,-1
298,299,1583937154130,-5.0597997,1.2361,-0.6434,4.596781299999999,3.3318381,-1.6967611,-1
299,300,1583937154140,-4.9142,1.8929,-1.4663999,4.7880487,3.9917279999999997,-2.4272225,-1
300,301,1583937154150,-4.7481,2.3137,-1.4884,4.747788,4.267348999999999,-1.6553128000000001,-1
301,302,1583937154160,-5.0505,2.3174,-0.3802,4.302917,4.247486,-0.7679354,-1
302,303,1583937154170,-5.6751,2.2310998,0.6775,3.5544608,4.245446,0.339584,-1
303,304,1583937154180,-6.2517,2.2015,1.3541,2.9287312,4.132804,0.29819304,-1
304,305,1583937154191,-6.8718,1.9741,0.9244,2.507189,3.7918792000000003,-0.37658876,-1
305,306,1583937154201,-7.1151,1.5823,0.35689998,2.556567,3.3860525999999997,-0.9432006,-1
306,307,1583937154211,-6.8076,1.2262,-0.23809999,3.2576659,3.0846894,-1.5484068000000002,-1
307,308,1583937154221,-5.9992,1.0368,-0.8071,3.9391513,2.8729463,-1.9006035,-1
308,309,1583937154232,-5.5604997,0.8882,-0.9129,4.171762,2.6127252999999997,-1.7198892,-1
309,310,1583937154242,-5.4158998,0.604,-0.6943,3.9265672999999994,2.2100875,-1.6954683000000002,-1
310,311,1583937154252,-5.8978996,0.1609,-0.88409996,3.4338598,1.49742,-2.1522725,-1
311,312,1583937154262,-6.2118998,-0.3721,-1.2742,3.3962612,0.92071426,-2.2394597999999997,-1
312,313,1583937154272,-6.2313,-0.8832,-1.2380999,3.4627244,0.26403257,-1.8042417000000002,-1
313,314,1583937154282,-6.1534,-1.4980999,-0.7152,3.4131453,-0.26935726,-1.0348698,-1
314,315,1583937154293,-6.311899700000001,-1.9024999,0.0738,3.0968137000000002,-0.5598505,-0.53649276,-1
315,316,1583937154303,-6.6294,-2.0161,0.5534,3.2034035,-0.059979542999999996,-0.12767799,-1
316,317,1583937154313,-6.4005,-1.314,0.7593,3.5062892,0.77887213,-0.014690822,-1
317,318,1583937154323,-6.1454997,-0.3628,0.8587,3.7226677,1.6318974,0.40173745,-1
318,319,1583937154333,-5.9399,0.5891,1.1666,3.9342097999999996,2.1104794,0.27174190000000004,-1
319,320,1583937154344,-5.8008,0.96129996,0.8168,3.9698260000000003,1.4134314,-0.503424,-1
320,321,1583937154354,-5.7465,0.22309999,-0.0071,4.3650513,0.19649692,-0.82488865,-1
321,322,1583937154364,-5.3943,-0.6376,-0.1369,4.6066647000000005,-0.77610445,-0.34192073,-1
322,323,1583937154375,-5.1369,-1.7192999,0.4544,4.8515434,-1.9456528000000002,-0.21090044,-1
323,324,1583937154386,-4.8185997,-2.639,0.5112,5.3658269999999995,-2.241988,-0.56219685,-1
324,325,1583937154395,-4.107199700000001,-2.4901,0.045599997,6.116237,-1.633535,-1.0396869,-1
325,326,1583937154405,-4.107199700000001,-2.4901,0.045599997,6.2106357,-1.3758518999999998,-1.0149595999999999,-1
326,327,1583937154415,-3.1631,-0.0468,1.0066,6.6355585999999995,-0.18727446,0.33553299999999997,-1
327,328,1583937154426,-2.9573,-0.49019998,1.0711,6.853977,-1.110651,0.45972502,-1
328,329,1583937154436,-2.7732,-1.6064999,0.80439997,7.073391,-2.4655776,0.21547815,-1
329,330,1583937154446,-2.3948,-2.6976,0.6518,7.4309125,-3.7427120000000005,0.19393991,-1
330,331,1583937154456,-2.1866999,-3.4763,0.95419997,7.601485,-4.683892,0.44205582,-1
331,332,1583937154466,-1.7089,-3.7468,0.67179996,8.205235499999999,-5.0188690000000005,0.030990547,-1
332,333,1583937154476,-0.56909996,-3.2301998,0.0173,9.330922,-4.6603136,-0.61442876,-1
333,334,1583937154486,0.2032,-2.7007,-0.6897,9.905194999999999,-4.4280376,-1.1996578000000002,-1
334,335,1583937154497,0.2557,-2.5223,-0.3893,9.812301,-4.596321,-0.528362,-1
335,336,1583937154507,0.0109,-2.8811998,1.0016,9.495768,-5.2331314,1.0628628,-1
336,337,1583937154517,-0.30449998,-3.2470999,2.2409,9.096061,-5.8549050000000005,2.1648276,-1
337,338,1583937154527,-0.7008,-3.7494998,2.3322,8.669347,-6.585041,2.1511424,-1
338,339,1583937154537,-0.7761,-4.0372,1.4837999,8.756447999999999,-7.069445,1.0147297,-1
339,340,1583937154548,0.0286,-3.9333,0.6659999999999999,9.842803,-7.0761204,0.7829997,-1
340,341,1583937154558,1.3303,-3.5384,0.80649996,10.682736,-6.95145,0.9631681999999999,-1
341,342,1583937154568,1.9210999,-3.2872,0.8411,11.069927,-6.9302177,1.0585053,-1
342,343,1583937154578,2.0653,-3.053,0.7252,11.06939,-6.8995337,1.020562,-1
343,344,1583937154589,1.9706999,-2.7343,0.87439996,10.609302,-6.8932614,1.5934848999999998,-1
344,345,1583937154599,1.3261,-3.0530999,1.5296999,9.9742155,-7.721224,2.1821425,-1
345,346,1583937154609,1.3592,-3.4982998,1.4965998999999999,10.116498,-8.107494,2.0953095,-1
346,347,1583937154619,1.8928,-3.7182,0.9173,10.629451,-8.74238,1.3466426999999999,-1
347,348,1583937154629,2.7057,-4.0155,-0.2933,11.65801,-8.960156,0.2610446,-1
348,349,1583937154639,4.3608,-3.5798,-0.9855,13.235529999999999,-8.69122,0.17584932,-1
349,350,1583937154650,5.6363,-3.2475,-0.5676,13.759104,-8.565305,0.8517515999999999,-1
350,351,1583937154660,5.1151,-2.9844,0.0023999998999999998,12.474538,-8.534601,1.2913846000000002,-1
351,352,1583937154670,3.5953998999999994,-2.9928,0.3083,10.873342999999998,-8.809963,2.0274005,-1
352,353,1583937154680,2.8274999,-3.0707998,1.2535,10.562346,-8.971361,2.9293343999999997,-1
353,354,1583937154690,2.8819999999999997,-3.0212,2.1046999,10.712558999999999,-9.021965,3.5313613,-1
354,355,1583937154700,3.3293998,-2.9443998,1.9158,11.095037,-9.17413,2.7036667000000003,-1
355,356,1583937154710,3.9129998999999995,-2.8351,0.5956,11.393564999999999,-9.178363000000001,1.7259896000000001,-1
356,357,1583937154721,4.4228997,-2.7667,-0.5534,11.85373,-9.372753999999999,0.9530646,-1
357,358,1583937154731,5.0077,-2.8127,-0.74259996,12.183508,-9.465677000000001,1.3580486999999999,-1
358,359,1583937154741,5.3796,-2.6743999,-0.2438,12.07779,-9.471146000000001,2.0748248,-1
359,360,1583937154751,5.1049,-2.6778998,0.5387,11.404109,-9.743922,2.8022313,-1
360,361,1583937154761,4.4631,-2.8811998,1.1313,10.687141,-10.094683,3.3263983999999995,-1
361,362,1583937154771,3.9253,-3.0739,1.6187999,10.146598,-10.327131,3.8274187999999993,-1
362,363,1583937154782,3.5983,-3.3197,2.1938,9.995811,-10.67384,4.2136226,-1
363,364,1583937154792,3.7419,-3.3808,2.1647,10.265092,-10.579739,3.6523836000000003,-1
364,365,1583937154802,4.316,-3.1689999999999996,1.2522,10.934377,-10.53059,2.4536161,-1
365,366,1583937154812,5.0375,-3.0683,0.20529999,11.412384,-10.5820265,1.9144898999999997,-1
366,367,1583937154822,5.7079997,-3.0516999,-0.2855,11.795332,-10.647618,2.0519648,-1
367,368,1583937154832,6.0042,-3.0349,0.2294,11.440588,-10.631366,3.2532987999999996,-1
368,369,1583937154842,5.5497,-2.9047,1.3463,10.434055,-10.405459,3.7610037000000003,-1
369,370,1583937154853,4.5557,-2.5646,1.6001999,9.6464205,-9.819453999999999,3.1059593999999997,-1
370,371,1583937154863,3.9160998,-1.9123,0.866,9.254595,-9.280827,2.6078794,-1
371,372,1583937154873,3.62,-1.431,0.48,9.057151,-9.085526,2.6808164,-1
372,373,1583937154883,3.4624998999999996,-1.1566,0.68619996,8.9431095,-8.744764,2.8385751,-1
373,374,1583937154893,3.4303,-0.8445,0.67859995,8.731577,-8.56201,2.5933897,-1
374,375,1583937154904,3.2150998,-0.6728,0.3735,8.464787,-8.664893,2.2863476,-1
375,376,1583937154914,3.0309,-0.7888,0.0681,8.500488,-8.711389,1.9631113000000002,-1
376,377,1583937154924,3.1121,-0.7812,-0.1788,8.449923,-8.489761999999999,2.0254659999999998,-1
377,378,1583937154934,3.076,-0.55289996,-0.0962,7.808737,-8.47171,2.3586526,-1
378,379,1583937154944,2.4328,-0.5265,0.25259998,7.2476697,-8.367992999999998,2.5318491,-1
379,380,1583937154954,1.7552999,-0.4064,0.45009997,6.8285313,-8.2990885,2.7746593999999996,-1
380,381,1583937154965,1.4118998999999999,-0.3369,0.7579,6.7011504,-8.152161999999999,2.9446478,-1
381,382,1583937154975,1.3274,-0.2082,0.8411,6.661225,-8.058615,2.5200505,-1
382,383,1583937154985,1.2949,-0.109,0.40629998,6.7040524,-8.147813000000001,2.2123573,-1
383,384,1583937154995,1.3506,-0.19669999,0.0879,6.820755,-8.097832,2.1996012,-1
384,385,1583937155005,1.4708999,-0.14739999,0.0624,6.822038,-8.157783,2.142849,-1
385,386,1583937155015,1.4564999,-0.2179,-0.0112,6.693258999999999,-8.138303,2.0910766,-1
386,387,1583937155025,1.3162,-0.1936,-0.0274,6.452823599999999,-8.078342,2.3135555,-1
387,388,1583937155036,1.0615,-0.1431,0.21579999,6.0385695,-8.057139999999999,2.7344656,d
388,389,1583937155046,0.62759995,-0.1343,0.6534,5.654779,-8.05805,2.8770452,-1
389,390,1583937155056,0.20799999,-0.1284,0.76919997,5.672515,-8.03383,2.8409886,-1
390,391,1583937155066,0.2662,-0.2356,0.8793,5.762795400000001,-8.142967,3.0063415,-1
391,392,1583937155076,0.2662,-0.2356,0.8793,5.9041014,-8.22482,2.9427133,-1
392,393,1583937155086,0.43519998,-0.3317,0.8497,6.329503,-8.43958,2.59746,-1
393,394,1583937155096,0.8506,-0.5645,0.49589998,6.966591,-8.566808,2.346787,-1
394,395,1583937155106,1.4792,-0.6997,0.24419999,7.127778,-8.593402000000001,2.3621863999999997,-1
395,396,1583937155116,1.3978,-0.78599995,0.4682,6.818561999999999,-8.657998,2.6718333,-1
396,397,1583937155126,1.3978,-0.78599995,0.4682,6.615716,-8.645223,3.0641184,-1
397,398,1583937155136,1.0521,-0.8152,0.9702,6.620944500000001,-8.642474,3.4435230000000003,-1
398,399,1583937155147,1.1405,-0.8847,1.6538999,6.774967999999999,-8.7071085,3.7294862,-1
399,400,1583937155157,1.4641,-1.1587,1.4103999,7.250667599999999,-8.9989805,3.3972862,-1
400,401,1583937155167,2.6469,-1.5581,0.7179,8.671952000000001,-9.396466,2.715877,-1
401,402,1583937155177,4.5726,-2.1518,0.313,10.638836,-10.053434,2.4809196,-1
402,403,1583937155187,4.5726,-2.1518,0.313,12.123384,-10.792333,3.0992174,-1
403,404,1583937155197,7.337999999999999,-4.0337,2.2301,13.132817999999999,-11.856767,4.564086,-1
404,405,1583937155208,7.337999999999999,-4.0337,2.2301,12.735333,-12.150725999999999,5.841679599999999,-1
405,406,1583937155218,6.4002,-4.9793997,4.8146,12.250258,-12.752897,7.172778999999999,-1
406,407,1583937155228,6.388999999999999,-5.4073,5.1721997,12.507597,-12.937654,7.012272,-1
407,408,1583937155238,7.1503997,-5.1914997000000005,3.6699,13.473428,-12.444869,5.351108,-1
408,409,1583937155248,8.014,-4.3938,1.9297999,14.425726000000001,-11.415458000000001,3.6215080000000004,-1
409,410,1583937155259,8.1223,-3.9194998999999995,1.2736,14.338911999999999,-10.977262,3.4993748999999994,-1
410,411,1583937155268,7.3437,-3.7510000000000003,1.6362,13.415929,-10.712156,3.8394568,-1
411,412,1583937155278,5.9610996,-3.6244998,1.9238,12.420697,-10.431144999999999,3.991776,-1
412,413,1583937155288,4.5401998,-3.4868,2.0399,11.252471,-10.111202,3.9743078,-1
413,414,1583937155298,3.5748,-3.3226,1.7465998999999999,10.600844,-9.548996,3.3846254,-1
414,415,1583937155308,3.2584,-2.7735999,0.9464,10.550787,-8.752349,2.4048990000000003,-1
415,416,1583937155319,2.9329998,-2.2602,-0.0605,10.328422999999999,-8.228756,1.6648991000000002,-1
416,417,1583937155329,2.4675999,-2.115,-0.7482,10.086216,-7.862185,0.9112235999999999,-1
417,418,1583937155339,2.322,-2.0219,-1.2919999,10.156058999999999,-7.517113,0.4319906,-1
418,419,1583937155349,2.2294,-1.9613999,-1.4880999,10.151923,-7.316172999999999,0.5034335999999999,-1
419,420,1583937155359,1.8355,-2.0528,-1.0792999,9.782592999999999,-7.155464,0.9325894,-1
420,421,1583937155370,1.1101999,-2.0525,-0.59459996,9.102976,-6.914914,1.3470353000000002,-1
421,422,1583937155380,0.2418,-2.0384998,-0.0288,8.474306,-6.540164,2.0199689999999997,-1
422,423,1583937155390,-0.41259998,-1.7023,0.8178,7.9775186,-5.92178,2.6651487,-1
423,424,1583937155400,-1.115,-1.3643,1.3397,7.3904309999999995,-5.412744,3.0453,-1
424,425,1583937155410,-1.7462,-1.3252,1.62,6.980275999999999,-5.339338,3.0512857,-1
425,426,1583937155420,-2.0702,-1.6405,1.2358999,6.929193499999999,-5.3608,2.3287156,-1
426,427,1583937155431,-1.9409,-1.633,0.1973,7.383297,-4.914912999999999,0.8640100000000001,-1
427,428,1583937155441,-1.5764999,-1.3826,-0.80329996,7.7436814,-4.416019,0.50741756,-1
428,429,1583937155451,-1.4505999,-1.0978999,-0.5923,7.581891000000001,-3.9994373,1.2982702,-1
429,430,1583937155461,-1.9571999,-0.92819995,0.56119996,6.9223647,-3.6070754999999997,2.5683942,-1
430,431,1583937155471,-2.6935,-0.6854,1.8118999,6.4180503,-3.1305623,3.2233138,-1
431,432,1583937155482,-3.1374,-0.3629,2.0843,6.121868,-2.5831904,2.7876074,-1
432,433,1583937155492,-3.4645,-0.0916,1.4071,5.962032,-2.4490576,1.8799462,-1
433,434,1583937155502,-3.5091998999999996,-0.2816,0.53889996,6.508551000000001,-2.6577554,0.9278202,-1
434,435,1583937155512,-2.8319,-0.6311,0.024999999,7.458158500000001,-2.846294,0.765139,-1
435,436,1583937155522,-1.6801,-0.8743,0.0213,8.287663,-2.6884394,0.8283459000000001,-1
436,437,1583937155532,-1.3407999,-0.7334,0.3117,7.812912,-2.1923707,1.202483,-1
437,438,1583937155543,-2.0112,-0.4138,0.7029,6.989114999999999,-1.6074958000000001,1.3207948999999999,-1
438,439,1583937155553,-2.846,0.0321,0.96449995,6.3159523,-1.0035919,1.8475577,-1
439,440,1583937155563,-3.5491,0.46089998,1.5570998999999999,5.649971,-0.5485882,1.9102473000000002,-1
440,441,1583937155573,-4.1686,0.73499995,1.551,5.4499216,-0.25615084,1.3954078,-1
441,442,1583937155583,-4.2929997,0.85349995,1.0070000000000001,5.714700700000001,-0.1511699,0.62960804,-1
442,443,1583937155593,-3.9717998999999997,0.8290000000000001,0.2883,6.2689585999999995,-0.25186044,-0.13672808,-1
443,444,1583937155604,-3.353,0.55939996,-0.26819998,7.4673240000000005,-0.9246215,-0.22579238,-1
444,445,1583937155614,-2.3198,-0.1006,-0.1762,8.311835,-1.224548,0.35157415,-1
445,446,1583937155624,-1.4813,-0.4781,0.4894,8.330203,-1.1704965,0.967133,-1
446,447,1583937155634,-1.4657999,-0.5157,1.1996,7.9274125,-1.0551343,1.0543299,-1
447,448,1583937155644,-2.195,-0.4192,1.3755,6.6330304,-0.61415106,0.81812745,-1
448,449,1583937155655,-3.1683998,-0.1598,1.2211,5.760669,-0.23212264,0.56461024,-1
449,450,1583937155666,-4.0425997,0.1258,1.0131999,5.273373,0.053745043,0.30011797,-1
450,451,1583937155676,-4.4035997,0.4669,0.20279999,5.4977282999999995,0.28600177,-0.49708417,-1
451,452,1583937155686,-3.7528,0.42029998,-0.17,6.0422754,0.25572947,-0.83286613,-1
452,453,1583937155696,-3.7528,0.42029998,-0.17,6.856831,-0.32234573,-0.5918658,-1
453,454,1583937155706,-2.9336,-0.16,0.14459999,7.863813,-1.3495541000000002,-0.1549719,-1
454,455,1583937155716,-2.0435998,-1.1036,0.62549996,8.002092,-1.4364253,-0.48843630000000005,-1
455,456,1583937155727,-2.271,-1.1364,-0.1505,7.327942999999999,-1.11995,-1.1475024999999999,-1
456,457,1583937155737,-3.23,-0.70199996,-0.009000000000000001,6.3248963,-0.62752026,-0.8399338,-1
457,458,1583937155747,-4.2089,-0.3699,0.59679997,5.376908,-0.27948955,-0.26765259999999996,-1
458,459,1583937155758,-4.2089,-0.3699,0.59679997,4.8886056,-0.09616072,0.08609549,-1
459,460,1583937155768,-4.5751,-0.13679999,1.0339,5.4353647,0.0144897085,-0.08775228,-1
460,461,1583937155778,-3.9821,-0.2259,0.6349,5.8925996,-0.11257536,-0.5655584,-1
461,462,1583937155789,-3.4868,-0.31829998,0.023599999,6.5076413,-0.23327187,-1.2935107,-1
462,463,1583937155799,-2.7559,-0.4622,-0.4109,7.1746755,-0.35935053,-1.6462818,-1
463,464,1583937155809,-1.986,-0.41099998,-0.652,7.867452,-0.32525709999999997,-1.7936113999999999,-1
464,465,1583937155819,-1.9516,-0.4497,-0.22999999,7.6201506,-0.31791168,-1.0930966999999998,-1
465,466,1583937155829,-2.4368,-0.3667,0.76,6.9096470000000005,-0.12910494,-0.08736921,-1
466,467,1583937155840,-3.1079,-0.282,1.3185999,6.374562,-0.17079277,0.065064825,-1
467,468,1583937155850,-3.5042,-0.41,1.4274,6.2702417,-0.23450726,0.049990933,-1
468,469,1583937155860,-3.2529,-0.3875,1.0873,6.804896,-0.1694233,-0.85505563,-1
469,470,1583937155870,-2.5807,-0.2602,0.20349999,7.547586999999999,0.008781932,-1.7107146,-1
470,471,1583937155881,-1.8599999,-0.0717,-0.585,8.15377,0.18894082,-2.5967991,-1
471,472,1583937155891,-1.4435999,0.0903,-1.4164,8.295641,0.26343882,-3.2952546999999996,-1
472,473,1583937155901,-1.4,0.1204,-1.8477999,8.317553,0.13958195,-3.1281204,-1
473,474,1583937155911,-1.3457999,-0.0731,-1.1280999,8.369411,-0.23324314,-1.9862872,-1
474,475,1583937155921,-1.2709,-0.4698,0.0088,8.443688,-0.49213293,-1.2218089,-1
475,476,1583937155932,-1.2148,-0.5769,0.5412,8.484333,-0.44514915,-1.0099509,-1
476,477,1583937155942,-1.2178999,-0.4883,0.7177,8.319286,-0.4116782,-1.1624518999999998,-1
477,478,1583937155952,-1.3701999,-0.46449998,0.4795,8.270511,-0.29070398,-1.531159,-1
478,479,1583937155962,-1.3577,-0.2434,-0.033999998,8.521336999999999,0.045710098,-2.307819,-1
479,480,1583937155972,-1.0731,0.0162,-0.7186,8.820727,0.17062996,-2.9750159,-1
480,481,1583937155983,-0.7787,0.121599995,-1.3544999,9.097391,0.11283394,-3.3477836,-1
481,482,1583937155993,-0.4337,0.0503,-1.6191,9.480033,-0.124804944,-3.2266752999999997,-1
482,483,1583937156003,-0.1256,-0.17359999,-1.4397999,9.799975,-0.52721274,-3.126904,-1
483,484,1583937156013,0.22379999,-0.5634,-1.2785,10.244799,-0.82427573,-2.7045093,-1
484,485,1583937156023,0.6727,-0.7976,-0.7082,10.432648,-0.7947409000000001,-1.9277346000000002,-1
485,486,1583937156033,0.7589,-0.7503,0.13599999,10.019974000000001,-0.68525887,-1.0692792,-1
486,487,1583937156043,0.2654,-0.63409996,0.98389995,9.261749,-0.40784746,-0.7827028,-1
487,488,1583937156053,-0.54399997,-0.3608,1.0652,8.548919,-0.11968136,-1.4561918,-1
488,489,1583937156063,-1.1306,-0.074599996,0.3287,8.601352,0.1405205,-2.1896317,-1
489,490,1583937156073,-0.9252,0.17189999,-0.38979998,9.279925,0.3756311,-2.9212806000000002,-1
490,491,1583937156084,-0.1713,0.39659998,-1.1114,10.263033,0.37185782,-3.4463863,-1
491,492,1583937156095,0.6333,0.4121,-1.5015999,10.839815,0.03863284,-3.3696281999999997,-1
492,493,1583937156105,1.2153,0.1096,-1.4074,11.050362,-0.48986325,-2.8764896,d
493,494,1583937156115,1.4275999,-0.3818,-0.8867,10.937738000000001,-0.84249085,-2.4683836,-1
494,495,1583937156125,1.288,-0.7809,-0.37989998,10.610211,-0.74383056,-2.1472830000000003,-1
495,496,1583937156136,1.0106,-0.6459,-0.091199994,10.060455000000001,-0.40307823,-2.1865096,-1
496,497,1583937156146,-0.107999995,-0.0657,-0.086899996,9.420589,-0.076116465,-2.2095802000000004,-1
497,498,1583937156156,-0.26229998,0.021699998999999998,-0.0749,9.348410000000001,-0.014844051,-2.148844,-1
498,499,1583937156166,0.0438,-0.0464,0.0721,9.725266,-0.09589256,-2.0954148999999997,-1
499,500,1583937156177,0.4089,-0.20089999,-0.4076,10.079417,-0.26466465,-2.6763535,-1
500,501,1583937156187,0.7737,-0.3278,-1.0461999,10.415944999999999,-0.36082536,-3.2901309999999997,-1
501,502,1583937156197,1.0102999,-0.3843,-1.3840000000000001,10.612079,-0.47060427,-3.534857,-1
502,503,1583937156207,1.0102999,-0.3843,-1.3840000000000001,10.644324000000001,-0.48918328,-3.3833230000000003,-1
503,504,1583937156217,0.903,-0.4843,-0.9206,10.407662,-0.5706819000000001,-3.030092,-1
504,505,1583937156227,0.56979996,-0.57559997,-0.6647,10.097297,-0.5872305999999999,-2.7570286,-1
505,506,1583937156238,0.325,-0.47739998,-0.73109996,9.884030000000001,-0.47348690000000004,-3.0094159,-1
506,507,1583937156248,0.3743,-0.3803,-1.3478,10.021783000000001,-0.33056265,-3.6493474999999997,-1
507,508,1583937156258,0.5703,-0.24249999,-1.7507,10.205169999999999,-0.15530708,-4.017595,-1
508,509,1583937156268,0.6572,-0.036599997,-1.9532,10.204260000000001,0.14221558,-4.0581527,-1
509,510,1583937156278,0.42909998,0.1848,-1.7498,9.822903,0.31287426,-3.6885931000000003,-1
510,511,1583937156289,-0.1136,0.225,-1.2172999,9.197144,0.3145981,-3.0948217000000002,-1
511,512,1583937156298,-0.7148,0.0679,-0.7227,8.794046,0.17311037,-2.7822921000000003,-1
512,513,1583937156308,-0.8340000000000001,-0.1916,-1.0938,8.975594000000001,-0.11324574,-3.6414275000000003,-1
513,514,1583937156318,-0.2171,-0.2947,-2.2073,9.638893,-0.16198212,-4.6511483,-1
514,515,1583937156329,0.3408,-0.5018,-2.8797998,10.088409,-0.45682326,-5.083627,-1
515,516,1583937156339,0.6634,-0.7522,-3.0821,10.321567,-0.63251936,-5.116964299999999,-1
516,517,1583937156349,0.7209,-0.86399996,-2.8944,10.239005,-0.6663351,-4.9012184,-1
517,518,1583937156360,0.4635,-0.8368,-2.7719,9.897151,-0.5698392,-4.804215,-1
518,519,1583937156370,-0.0201,-0.8231,-2.7918,9.351187,-0.58586115,-4.861388,-1
519,520,1583937156380,-0.3184,-0.9249,-2.8653,9.284533,-0.6466739,-4.905317,-1
520,521,1583937156390,-0.2052,-1.1379,-3.0286,9.560306,-1.0415832,-5.139336,-1
521,522,1583937156400,0.055299997000000004,-1.5215,-3.2979998999999998,9.780572,-1.3023499,-5.5058784,-1
522,523,1583937156412,0.1586,-1.7364998999999999,-3.7559,9.660938999999999,-1.4022839,-5.889401,-1
523,524,1583937156422,-0.0726,-1.7574999,-4.0245,9.356847,-1.214636,-5.927383,-1
524,525,1583937156432,-0.3245,-1.5957999,-4.0841,9.021841,-1.0794115,-5.9739832999999996,-1
525,526,1583937156442,-0.66499996,-1.5253999,-4.1377,8.694563,-1.0952036,-5.6183295,-1
526,527,1583937156452,-1.0244,-1.5863999,-3.7101,8.417667999999999,-1.0838072,-5.039364,-1
527,528,1583937156462,-1.3234,-1.6116999,-3.0307,8.13362,-1.2443719,-4.321802,-1
528,529,1583937156472,-1.5717,-1.8434,-2.5400999,7.8546863,-1.4294821000000002,-4.122375,-1
529,530,1583937156483,-1.8194,-2.0226,-2.4476,7.9307547000000005,-1.4676073,-4.2309475,-1
530,531,1583937156493,-1.6659,-2.0475,-2.6139997999999998,8.227339,-1.3655663999999998,-4.300120400000001,-1
531,532,1583937156503,-1.4159,-1.9678999,-2.6703,8.182758,-1.325861,-4.3073125,-1
532,533,1583937156513,-1.5299,-1.9548,-2.7437,7.8565826,-1.1574337,-4.4151764,-1
533,534,1583937156523,-1.87,-1.7565998999999999,-2.9203,7.6769314,-0.8401733,-4.283456299999999,-1
534,535,1583937156534,-2.0235999,-1.4429,-2.697,7.472725,-0.49555188,-3.5319644999999995,-1
535,536,1583937156544,-2.2152998,-1.1917,-2.1074998,7.3191705,-0.2937398,-2.8150737,-1
536,537,1583937156554,-2.4054,-0.99329996,-1.2655,7.0213504,-0.16913599,-2.1438257999999997,-1
537,538,1583937156564,-2.7614,-0.89379996,-0.7233,6.6250625,-0.022811955,-1.9418316999999998,-1
538,539,1583937156574,-3.1180000000000003,-0.7906,-0.6368,6.5179653,0.2455206,-1.8891208,-1
539,540,1583937156584,-3.1825,-0.5719,-0.6409999999999999,6.490748,0.5036347,-1.1489103999999999,-1
540,541,1583937156595,-3.2196999,-0.3263,0.035,6.251739,0.6878445,-0.60240984,-1
541,542,1583937156605,-3.5621998,-0.114999995,0.59209996,5.6907587,0.7642484,-0.44844353,-1
542,543,1583937156615,-4.032,-0.0665,0.5775,5.640183400000001,0.88819134,0.39459318,-1
543,544,1583937156625,-4.0987,0.0532,1.3248999,5.7270164,1.0273807,1.8819191000000002,-1
544,545,1583937156635,-4.0162,0.20269999,2.7452,5.446052,1.0264422,3.119415,-1
545,546,1583937156646,-4.3045,0.2041,3.9378,4.9584394,1.0651516,4.249124,-1
546,547,1583937156656,-4.9157,0.255,5.265,4.201134,1.2112745,5.2735934,-1
547,548,1583937156666,-5.5571,0.4014,6.0178,3.4428236000000005,1.1706115,5.8202753,-1
548,549,1583937156676,-6.2106,0.41349998,6.4779,3.5063660000000003,1.0362103999999999,5.844974,-1
549,550,1583937156686,-5.5315,0.27199998,6.8258996,4.38318,0.95083326,6.480883599999999,-1
550,551,1583937156697,-4.9023,0.1601,7.8075,4.947321,0.7152055,7.598325,-1
551,552,1583937156707,-4.9023,0.1601,7.8075,5.050674,0.34348175,8.955665,-1
552,553,1583937156717,-5.0214,-0.4606,10.1647,4.673883999999999,-0.05284482,9.867386999999999,-1
553,554,1583937156727,-5.0214,-0.4606,10.1647,4.380575,-0.4649061,9.890437,-1
554,555,1583937156738,-5.3131,-1.1148,9.6286,4.5670357,-0.84227055,9.077549000000001,-1
555,556,1583937156748,-4.6888,-1.2006999,8.715,5.5121036,-1.003611,8.183314,-1
556,557,1583937156758,-3.6422,-1.1112,8.4935,6.586363,-0.9941969999999999,8.24179,-1
557,558,1583937156768,-2.6922998,-0.7876,8.531799000000001,7.355140700000001,-0.661154,8.204842999999999,-1
558,559,1583937156778,-2.3095,-0.2741,8.413899,7.4936595,-0.28051424,8.165329,-1
559,560,1583937156788,-2.5426,0.0169,8.647699000000001,6.984327,-0.33281320000000003,8.535808,-1
560,561,1583937156799,-3.2737,-0.2503,8.953,6.296664,-0.8647378000000001,8.544483999999999,-1
561,562,1583937156809,-3.5217,-0.77889997,8.6954,6.458311,-1.5474780000000001,8.087019999999999,-1
562,563,1583937156819,-2.8646998,-1.3064,7.9530997,7.295994800000001,-2.096095,6.956084700000001,-1
563,564,1583937156829,-1.8912,-1.5698999,6.4128,8.252257,-2.5298667,5.3077154,-1
564,565,1583937156839,-0.8566,-1.8413,4.9599,9.438346000000001,-2.8851473,4.199487,-1
565,566,1583937156849,0.55289996,-1.7472999,4.5172,10.795666,-2.7795916000000003,4.2182580000000005,-1
566,567,1583937156860,1.5530000000000002,-1.4137,4.995,11.339869,-2.6907187,4.7429137,-1
567,568,1583937156870,1.4175999,-1.4145,5.7731,10.770565,-3.0757928,5.6675059999999995,-1
568,569,1583937156880,0.48009998,-1.8449,6.3339,9.619586,-3.8274858,5.903862,-1
569,570,1583937156890,-0.29729998,-2.3593,6.1211,9.175385,-4.6209245,5.204554,-1
570,571,1583937156900,-0.3347,-3.1130998,5.093499700000001,9.56109,-5.456960700000001,4.031941000000001,-1
571,572,1583937156910,0.7518,-3.8865,3.3665,11.522508,-6.4325779999999995,2.0778415,-1
572,573,1583937156921,2.8451,-4.3424,1.8529999,13.613317000000002,-6.8207746,0.90009534,-1
573,574,1583937156931,4.8343997000000005,-4.3311,0.9036,15.145864000000001,-6.685798599999999,0.6281140000000001,-1
574,575,1583937156941,5.9403,-3.9088998,0.9733,15.22901,-6.5209055000000005,1.1634767,-1
575,576,1583937156951,5.4131,-3.7335,1.7020998999999999,13.989263000000001,-6.720629,2.1906752999999997,-1
576,577,1583937156961,5.4131,-3.7335,1.7020998999999999,12.739192999999998,-6.853296799999999,2.9995036,-1
577,578,1583937156971,3.0788,-3.8825,3.1295,12.175531,-7.235603,2.9483254,-1
578,579,1583937156982,3.0479998999999998,-4.2495,2.6606998,13.4833975,-7.5474625,1.937139,-1
579,580,1583937156992,4.5964,-4.2878,1.5706999,14.880059,-7.584821000000001,1.0111671999999998,-1
580,581,1583937157002,6.2527,-4.272599700000001,0.4525,16.094820000000002,-7.730475,0.34264857,-1
581,582,1583937157012,6.950999700000001,-4.2872,0.11,15.92644,-7.6636386,0.39406642,-1
582,583,1583937157022,6.5699997,-4.114,0.22739999,14.537009,-7.5114822,0.6330365,-1
583,584,1583937157032,5.0421,-3.9459,0.4252,12.939933,-7.304671000000001,0.51695603,-1
584,585,1583937157043,3.5303,-3.6910000000000003,0.2408,11.839902,-7.194068400000001,0.5539896,-1
585,586,1583937157053,2.5599,-3.6603,0.22829999,11.610336,-7.325903,0.114998296,-1
586,587,1583937157063,2.5751998,-3.7301,-0.5351,12.386067,-7.297814,-1.522607,-1
587,588,1583937157073,3.5368,-3.6552,-2.4429,13.6358595,-7.3786807,-3.4880166,-1
588,589,1583937157083,4.7928,-3.7556,-4.433,14.629837,-7.6451454,-4.8735127,-1
589,590,1583937157093,5.6608996,-3.9819998999999995,-5.7158,14.703607,-7.6920724,-5.606416,-1
590,591,1583937157104,5.539,-3.9422,-6.332000000000001,13.858827999999999,-7.4506216,-5.597069,-1
591,592,1583937157114,4.5543,-3.6680998999999996,-6.1979,12.506112,-7.134922500000001,-5.24447,-1
592,593,1583937157124,3.1318998,-3.4001,-5.8701,11.106912,-6.8616867,-4.8893237,-1
593,594,1583937157134,1.7772,-3.1485,-5.5025,10.061211,-6.4903455,-4.6791415,-1
594,595,1583937157144,0.9662,-2.8725998,-5.4393,10.130232000000001,-6.290066,-5.3780665,-1
595,596,1583937157154,1.0356,-2.6836998,-6.2191,10.777517999999999,-6.014254,-6.711732400000001,-1
596,597,1583937157165,1.6893,-2.4259,-7.6453,11.054651,-5.83442,-7.878571000000001,-1
597,598,1583937157175,1.9708999,-2.2436,-8.8919,10.797284,-5.8228903,-8.153501499999999,-1
598,599,1583937157185,1.6213,-2.2316,-9.1824,10.123125,-5.809569000000001,-7.505171000000001,-1
599,600,1583937157195,1.0512,-2.2333998999999998,-8.6012,9.533902000000001,-5.783883599999999,-7.0919704,-1
600,601,1583937157206,0.44829997,-2.2179,-8.196,9.274726,-5.8737044,-6.900118400000001,-1
601,602,1583937157216,0.1848,-2.3356,-8.0019,9.14223,-5.6589160000000005,-7.063009700000001,-1
602,603,1583937157226,0.043199997000000004,-2.1286,-8.1518,8.934892999999999,-5.473356,-7.1037016,-1
603,604,1583937157236,-0.2392,-1.9188,-8.136000000000001,8.56653,-5.3343678,-6.6760015,-1
604,605,1583937157246,-0.84239995,-1.7196,-7.370199700000001,8.240459,-5.172299400000001,-6.313031,-1
605,606,1583937157256,-0.84239995,-1.7196,-7.370199700000001,8.118805,-5.072576000000001,-6.2916746,-1
606,607,1583937157267,-1.069,-1.5021,-7.3847,8.080794000000001,-4.9840290000000005,-6.390469,-1
607,608,1583937157277,-0.81729996,-1.4869999999999999,-7.3816,8.355524,-5.0081143,-6.3253565,-1
608,609,1583937157287,-0.6906,-1.6818999,-7.1057997,8.390393,-5.2571306,-5.9687448,-1
609,610,1583937157297,-0.8188,-2.0135999,-6.504699700000001,8.262102,-5.6180806,-5.3313127,-1
610,611,1583937157307,-0.8188,-2.0135999,-6.504699700000001,8.2615385,-5.7415543,-4.8751307,-1
611,612,1583937157317,-0.8303,-2.1706998,-5.9307,8.043503,-5.5358443,-4.440047,-1
612,613,1583937157327,-1.4843998999999999,-1.9433999,-4.8465,7.4644027,-5.555467,-3.6216707,-1
613,614,1583937157337,-2.0168,-1.9757999,-3.9183,6.968238,-5.567563,-2.7251859,-1
614,615,1583937157347,-2.33,-1.9232999,-3.5363,6.700317,-5.529945400000001,-2.477769,-1
615,616,1583937157357,-2.33,-1.9232999,-3.5363,6.713734,-5.511864,-2.7022302000000002,-1
616,617,1583937157367,-2.3243,-1.8416,-3.7905,7.0237064,-5.940924,-2.9516964,-1
617,618,1583937157377,-1.1568999,-2.605,-4.0683,8.02161,-6.421737,-2.9590704,-1
618,619,1583937157387,-0.5038,-2.8069,-3.9886,8.503476,-6.668532000000001,-2.8808759999999998,-1
619,620,1583937157397,-0.6538,-2.9729997999999997,-3.4987998,8.160273,-6.8302455,-2.1213682,-1
620,621,1583937157407,-0.6538,-2.9729997999999997,-3.4987998,7.691105,-6.773216000000001,-1.2200661,-1
621,622,1583937157417,-2.3528,-2.7021,-0.95369995,6.429437,-6.513368,0.13170025,-1
622,623,1583937157427,-3.1546,-2.3451998,-0.26209998,5.728769000000001,-6.1406584,0.71588546,-1
623,624,1583937157438,-3.4175,-1.9248999,-0.0909,5.5682425,-5.76813,0.7752904,-1
624,625,1583937157448,-3.0526,-1.6243999,-0.4712,6.1443353,-5.5133777,0.13071384,-1
625,626,1583937157458,-2.3274999,-1.4468,-1.1991999,6.9011045,-5.4866486,-0.42086238,-1
626,627,1583937157468,-1.5511999,-1.4878,-1.3327999,7.559442999999999,-5.6575656,-0.34493744,-1
627,628,1583937157478,-1.1402999,-1.7063999,-1.2062,7.7402625,-5.9610449999999995,-0.16952863,-1
628,629,1583937157490,-1.1844,-1.9010999,-0.7078,7.497749000000001,-6.1875267,0.5831605,-1
629,630,1583937157500,-1.4669,-2.0528,0.084,7.0722995,-6.4597096,1.506968,-1
630,631,1583937157511,-1.9161999,-2.2266,1.1048,6.632264,-6.652194000000001,2.4998624,-1
631,632,1583937157521,-2.2147,-2.3678,2.0874999,6.536965400000001,-6.834345,3.2281597,-1
632,633,1583937157531,-2.1052,-2.4336,2.5767,6.8162727,-6.8458369999999995,3.3421906999999997,-1
633,634,1583937157541,-1.7450999,-2.336,2.4401,7.2133845999999995,-6.8108716000000005,3.0560357999999996,-1
634,635,1583937157551,-1.1955,-2.2351,2.1687999,7.9685545,-6.775121700000001,3.1248642999999996,-1
635,636,1583937157561,-0.332,-2.1345,2.4331,8.609875,-6.753458999999999,3.305253,-1
636,637,1583937157572,0.1157,-2.0887,2.4484,8.72065,-6.724067,3.3253163999999997,-1
637,638,1583937157582,0.1248,-1.8959999,2.5548,8.530847,-6.5523844,3.5314665,-1
638,639,1583937157592,-0.14649999,-1.673,2.873,7.995513000000001,-6.3159904000000004,4.104629,-1
639,640,1583937157602,-0.5969,-1.4448999,3.4785,7.544455,-6.2310247,4.7269015,-1
640,641,1583937157612,-1.0157,-1.3427,4.0929,7.3459663,-6.342556,5.318757499999999,-1
641,642,1583937157623,-1.0956,-1.4605,4.7346,7.671702400000001,-6.4461584,5.8267117,-1
642,643,1583937157633,-0.639,-1.4628999,5.0573,8.28253,-6.4397035,5.5630136,-1
643,644,1583937157643,0.0184,-1.3729,4.6945,8.832305999999999,-6.3152623,5.2429953000000005,-1
644,645,1583937157654,0.5785,-1.166,4.3872,9.169955,-6.1979465,5.309736,-1
645,646,1583937157664,0.8997,-1.0131999,4.5531,9.135421000000001,-6.244959,6.1565747,-1
646,647,1583937157674,0.82269996,-1.0926,5.5162997,9.047123,-6.550718,7.288295,-1
647,648,1583937157684,0.78889996,-1.296,6.4413,9.145553999999999,-6.3744473,7.353944,-1
648,649,1583937157695,0.90809995,-1.0832,6.5203,8.850071,-6.182509,6.6608224,-1
649,650,1583937157705,0.64199996,-0.8566,5.8377,8.596295,-5.9690704000000006,5.783405,-1
650,651,1583937157715,0.3985,-0.618,4.9547,8.683224000000001,-5.884325,5.233208,-1
651,652,1583937157725,0.5022,-0.50769997,4.4058,8.946031,-5.8918524,5.0368257000000005,-1
652,653,1583937157736,0.7967,-0.48959997,4.1842,8.995064,-5.9077405999999995,4.9186287,-1
653,654,1583937157746,0.80719995,-0.5132,4.0661,8.893157,-5.9928017,4.924432299999999,-1
654,655,1583937157756,0.659,-0.7226,4.3514,8.754628,-6.234214,5.275307700000001,-1
655,656,1583937157766,0.49879998,-0.83669996,4.7208,8.575225999999999,-6.309162000000001,5.4966655,-1
656,657,1583937157777,0.4263,-0.6779999999999999,4.2693,8.536353,-6.0659876,4.800767,-1
657,658,1583937157787,0.46179998,-0.31469998,3.4445998999999996,8.537244,-5.735253,3.9459987,-1
658,659,1583937157797,0.3796,-0.1388,2.5837998,8.485099,-5.630952,3.1945354999999998,-1
659,660,1583937157807,0.5423,-0.041899998,1.8880000000000001,8.700892,-5.5295334,2.555619,-1
660,661,1583937157817,0.9097,0.191,1.2659,9.018968,-5.2997856,1.8972131999999997,-1
661,662,1583937157827,0.90139997,0.24399999,0.87829995,8.928074,-5.2817526,1.6423457,-1
662,663,1583937157838,0.5649,0.24309999,1.1298,8.574450500000001,-5.281340599999999,1.9252255,-1
663,664,1583937157848,0.23609999,0.20969999,1.6097,8.232376,-5.3644867,2.507457,-1
664,665,1583937157858,0.0357,0.1077,2.0307,8.096347,-5.412706,2.7285664,-1
665,666,1583937157868,0.0148,0.2333,1.8053,8.187825,-5.2046589999999995,2.2138703,-1
666,667,1583937157878,0.2331,0.39159998,1.1,8.4507475,-5.093597,1.60853,-1
667,668,1583937157888,0.5028,0.3861,0.66459996,8.663084,-5.1665339999999995,1.2923421999999998,-1
668,669,1583937157898,0.9101,0.1859,0.1304,9.209775,-5.4876059999999995,0.6757681999999999,-1
669,670,1583937157908,1.4719,-0.1328,-0.0708,9.628713000000001,-5.713312,0.7116142,-1
670,671,1583937157919,1.4719,-0.1328,-0.0708,9.613122,-5.9814916,0.9942545,-1
671,672,1583937157929,1.2155,-0.5356,0.5265,9.091742,-6.0440855,1.2782451000000001,-1
672,673,1583937157939,0.664,-0.4921,0.7136,8.583701,-5.963152,1.4458776000000002,-1
673,674,1583937157949,0.2207,-0.4007,0.8689,8.226841,-5.869021400000001,1.5041045,-1
674,675,1583937157960,0.0354,-0.2868,0.87299997,8.12525,-5.6808853,1.5438483,-1
675,676,1583937157970,0.030599998,-0.0802,0.7689,8.209085,-5.5150914,1.3604621000000001,d
676,677,1583937157980,0.1961,-0.0941,0.52419996,8.426393,-5.62398,1.1334918,-1
677,678,1583937157990,0.5201,-0.24219999,0.3055,8.803499,-5.7610335,0.92077166,-1
678,679,1583937158000,0.9119,-0.3317,0.0567,9.132692,-5.8248057,0.666201,-1
679,680,1583937158010,1.0252,-0.4452,-0.1136,9.022233,-5.948854,0.63259596,-1
680,681,1583937158021,0.7212,-0.4978,0.0251,8.67019,-5.9256015,0.8859408000000001,-1
681,682,1583937158031,0.1776,-0.4587,0.5352,8.099526,-5.6354623,1.455167,-1
682,683,1583937158041,-0.19029999,-0.059299998,0.8322,7.902283000000001,-5.216037,1.4713136,-1
683,684,1583937158051,-0.28079998,0.2941,0.75619996,8.018469,-4.931529,1.4874983999999998,-1
684,685,1583937158061,-0.013599999,0.5069,0.8224,8.437741,-4.846717,1.45691,-1
685,686,1583937158072,-0.013599999,0.5069,0.8224,8.608391000000001,-4.883932,1.3685737,-1
686,687,1583937158082,0.76489997,0.3974,0.21599999,9.062542,-5.0457516,0.74433815,-1
687,688,1583937158092,0.91719997,0.2339,0.0526,9.198313,-5.226523,0.9746029,-1
688,689,1583937158102,0.9975,0.1059,0.3611,9.177779,-5.262254,1.3449571000000002,-1
689,690,1583937158112,0.86859995,0.0324,0.8145,8.928735000000001,-5.4067300000000005,1.685499,-1
690,691,1583937158122,0.6987,-0.1024,1.1909,9.027844,-5.4647846,2.1625004,-1
691,692,1583937158132,0.82409996,-0.1774,1.5919999999999999,9.245486999999999,-5.6099687000000005,2.3479266,-1
692,693,1583937158143,1.0302,-0.3678,1.7397,9.572469,-5.7629967,2.3671951,-1
693,694,1583937158153,1.3951,-0.51699996,1.7515999,9.793491,-5.867652,2.4228747000000004,-1
694,695,1583937158163,1.6633999,-0.6745,1.8052,10.254309,-6.03109,2.4053970000000002,-1
695,696,1583937158173,2.0599,-0.79249996,1.7353,10.680475999999999,-6.103691599999999,2.2359068,-1
696,697,1583937158183,2.4652998,-0.9026,1.5638,10.908241,-6.1961846,2.2254487999999997,-1
697,698,1583937158193,2.6813998,-1.0471,1.5975,11.044960000000001,-6.3888125,2.4394712000000003,-1
698,699,1583937158204,2.7652,-1.1991,1.8095,11.038428,-6.3223877,2.7525945,-1
699,700,1583937158214,2.6880999,-1.1774,2.1385,10.885266,-6.3155019999999995,3.1131325,-1
700,701,1583937158224,2.5354,-1.1931,2.4192,10.904554,-6.282816400000001,3.3648781999999997,-1
701,702,1583937158235,2.5254,-1.2128999,2.6606,10.989864,-6.1665444,3.401768,-1
702,703,1583937158245,2.5816998,-1.1395,2.6938,11.147547,-6.064101,3.5271091,-1
703,704,1583937158255,2.7052,-1.1092,2.8104,11.26425,-5.9523779999999995,3.6036375,-1
704,705,1583937158265,2.7884,-1.053,2.8731,11.316203999999999,-5.8978863,3.504508,-1
705,706,1583937158275,2.8023999,-1.0588,2.7433999,11.361512,-5.8474544999999996,3.4402668,-1
706,707,1583937158286,2.8154,-1.0777999,2.6596,11.251417,-5.882448,3.3189285,-1
707,708,1583937158296,2.6592999,-1.1905,2.5087,11.374556,-5.808946,3.0254282999999997,-1
708,709,1583937158306,2.7456,-1.1913999,2.1975,11.727853999999999,-5.713475,2.6807396,-1
709,710,1583937158316,3.0537999,-1.1889,1.8492998999999999,11.937106,-5.6646047,2.7368693,-1
710,711,1583937158327,3.1482,-1.2674,2.2653,11.880546,-5.568396,3.1329564999999997,-1
711,712,1583937158337,2.7108998,-1.27,2.6027,11.436077000000001,-5.4729730000000005,3.4581945,-1
712,713,1583937158347,2.0774999,-1.2488999,2.8713,10.838254,-5.311498,3.6613184999999997,-1
713,714,1583937158357,1.5741999,-1.189,2.7844,10.467669500000001,-5.151862,3.5165174,-1
714,715,1583937158368,1.3986,-1.2232,2.2797,10.399847,-5.0998793,2.9587066,-1
715,716,1583937158378,1.6186,-1.2824999,1.5415,10.761171000000001,-5.025736,2.19057,-1
716,717,1583937158388,2.1153,-1.2705,0.9274,11.373406,-4.9022236,1.7084161,-1
717,718,1583937158398,2.445,-1.3583,0.9414,11.581817,-4.962203,1.8240657,-1
718,719,1583937158408,2.4396,-1.7271999,1.3072,11.536796,-5.2587589999999995,2.2355812000000004,-1
719,720,1583937158418,2.2161999,-2.0665,1.5404999,11.32671,-5.4007062999999995,2.3174436000000003,-1
720,721,1583937158428,2.0202,-2.1029,1.4226999,11.245134,-5.153633999999999,2.0412866999999997,-1
721,722,1583937158439,1.7349,-1.9236,1.0113,10.807236,-4.835703,1.6054462999999999,-1
722,723,1583937158449,1.067,-1.7721,0.73969996,10.304539,-4.596426999999999,1.4505415000000002,-1
723,724,1583937158459,0.6064,-1.5555999,0.72889996,9.983831,-4.0787334,1.4695419,-1
724,725,1583937158469,0.4136,-1.2098,0.8901,9.791116,-3.6206172,1.5821555,-1
725,726,1583937158479,0.26319999,-0.9776,0.93299997,9.78176,-3.272826,1.50873,-1
726,727,1583937158489,0.42100000000000004,-0.8854,0.83519995,10.211681,-3.0467844,1.2800646999999998,-1
727,728,1583937158500,0.75879997,-0.8163,0.5884,10.296389,-2.9069247000000003,0.79906005,-1
728,729,1583937158510,0.6181,-0.972,0.17799999,10.128048,-3.1188595,0.4931481,-1
729,730,1583937158520,0.2726,-1.3765,-0.1365,9.628053,-3.2364242,-0.18134642,-1
730,731,1583937158530,-0.17889999,-1.5103999,-0.6382,9.44252,-3.197868,-0.43462422,-1
731,732,1583937158540,-0.21579999,-1.5679,-0.53029996,9.594696,-2.9851959999999997,-0.47002012,-1
732,733,1583937158551,-0.053,-1.3519999999999999,-0.5298,9.56223,-2.3579247000000003,-0.6472389000000001,-1
733,734,1583937158560,-0.436,-0.7748,-0.6362,8.883839,-1.7916385,-0.82520473,-1
734,735,1583937158570,-1.6493,-0.2175,-0.6464,7.575503299999999,-1.0916313999999998,-0.80904865,-1
735,736,1583937158580,-2.8391,0.3189,-0.4606,6.5940145999999995,-0.43593624,-0.718136,-1
736,737,1583937158590,-3.5245,0.5815,-0.3132,6.153653599999999,-0.4452066,-0.7278469,-1
737,738,1583937158600,-3.5295,0.19229999,-0.37719998,6.6078243,-0.76241916,-1.0778983,-1
738,739,1583937158611,-2.8353,-0.1369,-0.7952,7.448581699999999,-0.97147125,-1.8268237,-1
739,740,1583937158621,-2.0516,-0.43649998,-1.5843999,7.961295599999999,-1.2674139,-2.504718,-1
740,741,1583937158632,-1.8070998999999999,-0.7865,-1.9519,7.824528699999999,-1.4580591999999999,-2.4814177,-1
741,742,1583937158642,-2.122,-0.92929995,-1.6039,7.061832000000001,-1.2813002,-1.9706099999999998,-1
742,743,1583937158652,-2.9078,-0.80539995,-1.1854,6.072289,-0.9814216,-1.5333424999999998,-1
743,744,1583937158662,-3.8890998,-0.5961,-0.6407,5.3751169999999995,-0.8539351000000001,-0.9926073000000001,-1
744,745,1583937158672,-4.6631,-0.5664,-0.053099997,5.070364,-0.6897694999999999,-0.97007304,-1
745,746,1583937158683,-4.6115,-0.48259997,-0.23979999,5.801869,-0.8293802,-1.6302981,-1
746,747,1583937158693,-3.7831998,-0.72349995,-0.8767,6.691391499999999,-1.1441506000000001,-2.1777083999999998,-1
747,748,1583937158703,-2.9339999999999997,-1.1022,-1.2709,7.100771400000001,-1.4761881000000001,-2.34762,-1
748,749,1583937158713,-2.6511998,-1.4735999,-1.2846,7.001881,-1.747997,-2.080638,-1
749,750,1583937158723,-2.8185,-1.7619,-0.87659997,6.5056973,-1.765312,-1.7245052,-1
750,751,1583937158733,-3.3623998,-1.7921,-0.46019998,5.8078547,-1.6968665,-1.1348804,-1
751,752,1583937158744,-4.0685,-1.7797999,0.2314,5.3812940000000005,-1.512264,-0.49101245,-1
752,753,1583937158754,-4.3321,-1.6489999,0.9036,5.889899,-1.1485463,-0.7209036999999999,-1
753,754,1583937158764,-3.8207,-1.3996998999999999,0.66929996,6.2332654000000005,-0.5503887,-1.7325593000000001,-1
754,755,1583937158774,-3.4772,-0.8523,-0.2717,6.181790400000001,-0.0047022122999999996,-2.7860942000000004,-1
755,756,1583937158784,-3.5181,-0.35369998,-1.2863,6.1636996,0.18153796,-3.3181239999999996,-1
756,757,1583937158794,-3.5319,-0.2184,-1.7861999,6.379772,0.094197474,-3.0745668,-1
757,758,1583937158805,-3.2143,-0.3766,-1.4145,7.091376299999999,-0.20211852,-2.3738031000000004,-1
758,759,1583937158815,-2.5939999,-0.61399996,-0.8136,7.548698,-0.2104216,-2.441176,-1
759,760,1583937158825,-2.1311,-0.622,-0.87259996,7.5226869999999995,-0.006981492,-2.823664,-1
760,761,1583937158835,-2.1585999,-0.4351,-1.2454,7.4251759999999996,0.25003126,-3.0070214,-1
761,762,1583937158845,-2.2621999,0.14919999,-1.3337,7.394214,0.67743456,-2.8794296000000004,-1
762,763,1583937158856,-2.3774,0.23879999,-0.8998,7.2854600000000005,0.695439,-2.4021025000000003,-1
763,764,1583937158866,-2.3774,0.23879999,-0.8998,7.340872,0.49011225,-2.0200167,-1
764,765,1583937158876,-1.9308,-0.0683,-0.3956,7.833176600000001,0.38244978,-2.1231299999999997,-1
765,766,1583937158886,-1.4666,-0.090799995,-0.8909999999999999,8.265819,0.33147246,-2.6654265,-1
766,767,1583937158896,-1.1976,-0.23789999,-1.1754,8.494858,0.14816278,-2.8379622,-1
767,768,1583937158907,-0.9572,-0.46519998,-0.92679995,8.733300999999999,-0.10939587,-2.655457,-1
768,769,1583937158917,-0.73569995,-0.5688,-1.0097,9.013988000000001,-0.20085438,-2.8548174,-1
769,770,1583937158927,-0.4545,-0.5398,-1.2169,9.230634,-0.1478276,-3.064061,-1
770,771,1583937158937,-0.40829998,-0.449,-1.2283,9.20087,-0.063896455,-3.0261753,-1
771,772,1583937158947,-0.6953,-0.3942,-0.8189,8.853767,-0.012794614,-2.5973067000000003,-1
772,773,1583937158957,-1.002,-0.449,-0.2739,8.588816,-0.09671617,-2.0806284,-1
773,774,1583937158967,-0.986,-0.47919998,0.14919999,8.675955,-0.07877882,-1.7791887999999998,-1
774,775,1583937158978,-0.75519997,-0.3543,-0.0392,8.886425,0.06372407,-2.1456642,-1
775,776,1583937158988,-0.5845,-0.19319999,-0.7136,9.100399000000001,0.2216935,-2.8203123,-1
776,777,1583937158998,-0.1892,-0.0186,-1.1661,9.54687,0.37171417,-3.3658645,-1
777,778,1583937159009,0.0976,0.0079,-1.4653,9.779012,0.31184953,-3.4796370000000003,-1
778,779,1583937159019,0.24769999,-0.0795,-1.3416,9.855166,0.21825543,-3.299526,-1
779,780,1583937159029,0.2023,-0.1268,-1.02,9.672297,0.14889061,-2.852806,-1
780,781,1583937159039,-0.1366,-0.3186,-0.36389998,9.340997,-0.033786975,-2.1625388,-1
781,782,1583937159050,-0.2902,-0.3355,0.26819998,9.346685,0.08753201,-1.6539720000000002,-1
782,783,1583937159060,-0.1803,-0.20969999,0.43379998,9.429439,0.22006544,-1.7989264999999999,-1
783,784,1583937159070,-0.1017,0.0315,0.0041,9.491142,0.41445547,-2.392995,-1
784,785,1583937159080,-0.1129,0.08249999599999999,-0.40219998,9.515553,0.38073555,-2.5799727000000003,-1
785,786,1583937159090,0.0911,0.078499995,-0.6143,9.887067,0.42636899999999994,-2.9137816,-1
786,787,1583937159100,0.4235,0.1444,-0.9798,10.184177,0.47101608,-3.1996493,-1
787,788,1583937159111,0.65929997,0.16749999,-1.1033,10.2787,0.39465064,-3.138147,d
788,789,1583937159121,0.6321,-0.012399998999999998,-0.7883,10.059085000000001,0.09168835,-2.5315428,-1
789,790,1583937159131,0.3608,-0.3371,-0.1362,9.859074,-0.24691881,-1.9564075,-1
790,791,1583937159141,0.24659999,-0.5184,0.22209999,9.802935,-0.11893436,-2.0183218000000003,-1
791,792,1583937159151,0.24919999,-0.2778,-0.021599998999999998,9.901814,0.11991120000000001,-2.4794066000000003,-1
792,793,1583937159161,0.368,-0.1039,-0.51699996,9.980901,0.29084763,-2.828778,-1
793,794,1583937159171,0.40699998,0.0418,-0.7339,9.928132000000002,0.30999166,-2.9148927000000002,-1
794,795,1583937159182,0.2789,-0.0189,-0.76629996,9.771197,0.19988711,-2.892866,-1
795,796,1583937159192,0.2008,-0.12889999,-0.7554,9.826962,0.14161225,-3.0660625,-1
796,797,1583937159202,0.3107,-0.1882,-1.1092,10.103292,0.09112331,-3.6516747000000005,-1
797,798,1583937159212,0.6002,-0.1968,-1.5570998999999999,10.260121,0.10624509,-4.085255,-1
798,799,1583937159222,0.70089996,-0.19739999,-1.9380000000000002,10.256751,-0.037234623,-4.161486,-1
799,800,1583937159232,0.6857,-0.38,-1.9583999,10.2373295,-0.27039158,-4.275872,-1
800,801,1583937159243,0.65999997,-0.58779997,-2.1107,10.176171,-0.31653259999999994,-4.5312085,-1
801,802,1583937159253,0.5254,-0.66279995,-2.4445,9.819531,-0.40033928,-4.925706,-1
802,803,1583937159263,0.22299999,-0.7413,-2.7349,9.717528,-0.45731170000000004,-4.980849299999999,-1
803,804,1583937159273,0.1841,-0.8092,-2.7072,9.841605,-0.48306373,-4.933061,-1
804,805,1583937159283,0.3012,-0.8351,-2.7612,9.885659,-0.49890375,-5.335708599999999,-1
805,806,1583937159293,0.2996,-0.8972,-3.202,9.70391,-0.58155155,-5.7407303,-1
806,807,1583937159304,0.12079999599999999,-1.0274,-3.616,9.644879,-0.7739209,-6.157312,-1
807,808,1583937159314,0.1092,-1.2268,-4.048,9.834691000000001,-1.1457787,-6.725695599999999,-1
808,809,1583937159324,0.26569998,-1.5667,-4.5334,9.997324,-1.3607684,-7.034892599999999,-1
809,810,1583937159334,0.41399997,-1.8259999999999998,-4.8859,9.679288,-1.3413658000000002,-7.3367724,-1
810,811,1583937159344,0.1227,-1.8224,-5.1459,9.262841,-1.3458383,-7.352363599999999,-1
811,812,1583937159355,-0.2859,-1.8682,-5.1524,8.731242,-1.3512393999999999,-7.1751065,-1
812,813,1583937159365,-0.8243,-1.9261999,-4.9842,8.355592,-1.264378,-7.041903,-1
813,814,1583937159375,-1.2005,-1.8810999,-4.8743,8.309585,-1.1973499,-7.2640367,-1
814,815,1583937159385,-1.2573,-1.8471999,-5.1842,8.163567,-1.2383578000000002,-7.3097663,-1
815,816,1583937159395,-1.4045,-1.9164,-5.2493,7.882459,-1.3557694,-7.2644773,-1
816,817,1583937159406,-1.7283,-1.7706,-4.888999999999999,7.832985400000001,-0.9111469999999999,-6.701179,-1
817,818,1583937159416,-2.2166997999999998,-1.3488,-4.2822,7.19653,-0.47909892,-6.0145800000000005,-1
818,819,1583937159427,-3.2533998,-1.1911,-3.5212,6.182222,-0.31970254,-5.170154,-1
819,820,1583937159436,-3.8288,-1.0633,-2.6251,5.7464,-0.0710216,-4.192859599999999,-1
820,821,1583937159446,-3.8288,-1.0633,-2.6251,5.530079,0.18829918,-3.4838602999999995,-1
821,822,1583937159456,-4.6022997000000005,-0.72779995,-1.2317,4.9587072999999995,0.30723354,-2.7270339,-1
822,823,1583937159466,-4.7439,-0.66969997,-0.8725,4.9558063,0.38978562,-2.2545621,-1
823,824,1583937159476,-4.339699700000001,-0.5061,-0.4136,5.4309974,0.58469284,-1.70471,-1
824,825,1583937159486,-3.9757998,-0.253,-0.1524,5.700632,0.82052165,-1.3234382,-1
825,826,1583937159497,-3.9729997999999997,-0.0953,0.20789999,5.733825700000001,0.9459874,-0.79962504,-1
826,827,1583937159507,-3.9729997999999997,-0.0953,0.20789999,5.7952227999999995,1.0621445,-0.1481149,-1
827,828,1583937159517,-3.9280998999999994,0.1855,2.1323,5.7470512000000005,1.1897841999999998,1.6256438,-1
828,829,1583937159527,-4.3473997,0.035,4.1747,5.2604346,0.97976476,3.7994642,-1
829,830,1583937159537,-4.8642,-0.3041,5.6566,4.8224583,0.62632316,5.0803523,-1
830,831,1583937159547,-4.8336997,-0.2826,6.1980996,5.002693700000001,0.7574584,5.6433344000000005,-1
831,832,1583937159558,-4.3937,0.2312,6.6131,5.4472785,1.2012668,6.1197805,-1
832,833,1583937159568,-4.0239997,0.42249998,6.7218,5.8527985000000005,1.2593883999999997,6.302496400000001,-1
833,834,1583937159578,-3.4285997999999998,0.56119996,6.882999999999999,6.4673615,1.3183433,6.679085300000001,-1
834,835,1583937159588,-3.1646,0.49289998,7.3360996,6.593325,0.90971047,7.377656,-1
835,836,1583937159598,-3.2898998,-0.0149,7.9483,6.5580826,0.27455747,8.281975,-1
836,837,1583937159608,-3.2898998,-0.0149,7.9483,6.856466999999999,-0.08768524,8.953672000000001,-1
837,838,1583937159618,-2.4452999,-0.8462,9.8054,7.472332000000001,-0.64946073,10.246628,-1
838,839,1583937159629,-2.1629,-0.93659997,10.5477,7.791891000000001,-0.61444795,11.005523,-1
839,840,1583937159639,-1.8007,-0.48099998,11.0555,8.06074,-0.13288777,11.42287,-1
840,841,1583937159649,-1.8491,0.023599999,11.238999,7.869616499999999,0.19445707,11.5399475,-1
841,842,1583937159659,-2.0338,0.30429998,11.0967,7.816044000000001,0.21707748,11.314748,-1
842,843,1583937159670,-1.8059,0.2392,10.6465,8.140822,0.031469386,10.86325,-1
843,844,1583937159680,-1.3421,0.0064,10.1584,8.934624000000001,-0.6676375,10.126717,-1
844,845,1583937159690,-0.45589998,-0.5347,9.3653,9.854295,-1.0456724,9.424421,-1
845,846,1583937159700,0.8624,-0.6346,8.6566,11.12529,-1.1518027,8.852198,-1
846,847,1583937159710,1.7508999,-0.5744,8.4484,11.58333,-1.2259367,8.899966000000001,-1
847,848,1583937159721,1.6467999,-0.6472,8.7968,11.145095,-1.5358133,9.23524,-1
848,849,1583937159731,1.1611,-0.85899997,8.947000000000001,10.64578,-1.8764221999999997,9.0203085,-1
849,850,1583937159741,0.7448,-1.2202,8.602099,10.457136,-2.4257574,8.220913000000001,-1
850,851,1583937159751,0.7515,-1.6951,7.4511,10.826753,-2.9165208,6.506750599999999,-1
851,852,1583937159761,1.4072,-2.085,5.6782,12.190634,-3.4236413999999997,4.583977,-1
852,853,1583937159772,2.7215,-2.3439,4.3122997000000005,13.285492000000001,-3.5935912000000005,3.7864492,-1
853,854,1583937159782,3.9678,-2.4508,3.5849998,13.918414000000002,-3.8387575,3.4769937999999994,-1
854,855,1583937159792,4.1053,-2.5830998,3.5923998,13.147835,-3.8863256,3.7565408,-1
855,856,1583937159802,3.2310998,-2.5393,4.0645,12.147002,-3.9305418,4.308184,-1
856,857,1583937159812,2.2386,-2.605,4.5263,11.450078,-4.28927,3.4194657999999998,-1
857,858,1583937159822,1.6978999,-2.9438999,3.4292,11.5125,-4.6109643,1.9635135,-1
858,859,1583937159832,2.1104,-3.332,1.5208,12.616543,-5.2257667,-0.5681632,-1
859,860,1583937159843,3.1527,-3.7696998,-0.48369998,13.6128845,-5.611118299999999,-2.3448045,-1
860,861,1583937159853,4.1078997,-4.0804,-2.0697,14.207939000000001,-5.8666563,-3.2941344,-1
861,862,1583937159863,4.5912,-4.2177997000000005,-2.6929,14.015023999999999,-5.7409606,-3.0013041,-1
862,863,1583937159873,4.198,-3.9847998999999996,-2.1684,13.060628999999999,-5.429015,-2.3364344,-1
863,864,1583937159883,2.7707999,-3.5681,-1.3712,11.306378,-5.018994,-2.2052417,-1
864,865,1583937159893,1.4688,-3.2996,-1.6127,10.792717,-4.87176,-3.683125,-1
865,866,1583937159903,1.2067,-3.1641998,-3.2726,11.193592,-4.8248143,-5.3434175999999995,-1
866,867,1583937159913,1.9086,-3.1722999,-5.2703,12.298411,-4.955337,-7.215712,-1
867,868,1583937159923,2.7993999,-3.2505999,-6.5223,12.609734,-5.011246,-8.099163,-1
868,869,1583937159933,2.9643998,-3.2647,-7.2419,12.263722999999999,-4.807978599999999,-8.415265,-1
869,870,1583937159943,2.5383,-3.0084,-7.4269,11.640752,-4.301298,-8.688846,-1
870,871,1583937159953,1.9024999,-2.4722,-7.7236996,11.081716,-3.8349366000000003,-9.1444235,-1
871,872,1583937159964,1.3810999,-2.0442,-8.172,10.541756,-3.3531177000000003,-9.828198,-1
872,873,1583937159974,0.92719996,-1.6924,-8.7279,10.243217999999999,-3.1654793999999997,-10.249597,-1
873,874,1583937159984,0.57159996,-1.5029,-9.1676,9.995255,-3.1863472,-10.395049,-1
874,875,1583937159994,0.3446,-1.6358999,-9.231999,9.789133999999999,-3.224415,-10.538088,-1
875,876,1583937160004,0.1778,-1.6794,-9.318999,9.540147,-3.2479259999999996,-10.613228,-1
876,877,1583937160014,-0.1758,-1.7392,-9.392999999999999,9.068211,-2.9789903,-10.869273,-1
877,878,1583937160025,-0.56079996,-1.5141,-9.5717,9.017952000000001,-2.4590366,-10.707818,-1
878,879,1583937160035,-0.6141,-1.0308,-9.406199,8.715056,-2.060565,-10.564884,-1
879,880,1583937160045,-0.914,-0.662,-9.2752,8.346341,-1.8491377,-10.386037,-1
880,881,1583937160055,-1.2928,-0.4868,-9.1023,8.143264,-1.8245348999999997,-10.111557000000001,-1
881,882,1583937160065,-1.4943,-0.48389998,-8.8403,8.093886,-2.1426093999999996,-9.723025,-1
882,883,1583937160077,-1.5475999,-0.82009995,-8.467199,8.155771000000001,-2.298788,-9.292164999999999,-1
883,884,1583937160087,-1.4922,-0.98679996,-8.1006,8.047592,-2.3714857000000005,-9.163098,-1
884,885,1583937160097,-1.7450999,-1.1937,-7.3353996,7.9168970000000005,-2.4537023999999996,-8.320675,-1
885,886,1583937160108,-1.7988,-1.2925999,-6.0081,7.832066,-2.5238142000000003,-6.999927499999999,-1
886,887,1583937160118,-2.0492,-1.2231,-5.2759,7.545758,-2.4260732999999997,-6.401817299999999,-1
887,888,1583937160128,-2.3098,-1.1875,-5.1219,7.334608599999999,-2.3887238999999996,-6.249823999999999,-1
888,889,1583937160139,-2.4229,-1.3204,-4.8959,7.2379690000000005,-2.6139224,-5.858669,-1
889,890,1583937160149,-2.3783,-1.5531,-4.4775,7.374447999999999,-2.9055266,-5.279406,-1
890,891,1583937160159,-2.1564,-1.8977,-3.7747998,7.6331169999999995,-3.1765215,-4.5426435,-1
891,892,1583937160169,-1.9822999,-2.0241,-3.2621999,7.715161999999999,-3.2812917,-4.15869,-1
892,893,1583937160180,-1.9839,-2.1991,-2.9485,7.71316,-3.5262377000000003,-3.6134633999999997,-1
893,894,1583937160190,-2.0046,-2.3653,-1.9928,7.622391,-3.6637129999999996,-2.4408119999999998,-1
894,895,1583937160200,-2.1726,-2.4823,-0.8527,7.388947,-3.7245063999999997,-1.297619,-1
895,896,1583937160210,-2.4199998,-2.4064999,-0.2049,7.050330000000001,-3.522608,-0.8753776,-1
896,897,1583937160220,-2.7447999,-2.1225998,0.062299997,6.827852,-3.24965,-0.6059629,-1
897,898,1583937160231,-2.9424999,-1.8858,0.3333,6.645030499999999,-3.1392007,-0.24587494,-1
898,899,1583937160241,-3.0900998,-1.7892,0.61179996,6.612814,-3.0986907,0.037215468,-1
899,900,1583937160251,-3.0988,-1.7641,0.8355,6.5251575,-3.1823442,0.42868662,-1
900,901,1583937160261,-3.1943,-1.7930000000000001,1.3108,6.4644694000000005,-3.1567645,1.4254407,-1
901,902,1583937160271,-3.2491,-1.7111,2.2265,6.3859587,-3.1629512,2.293693,-1
902,903,1583937160281,-3.3716,-1.6265999,3.2846,6.14332,-2.9821696,3.3106925000000005,-1
903,904,1583937160291,-3.6306998999999998,-1.3521999,4.2324,5.8975029999999995,-2.8211932,4.2984347000000005,-1
904,905,1583937160301,-3.8789999999999996,-1.1403999,5.1026998,5.6900883,-2.5166988,4.8932785999999995,-1
905,906,1583937160311,-4.067199700000001,-0.69479996,5.3616,5.508876,-2.0976557999999996,4.944419,-1
906,907,1583937160321,-4.1945,-0.2298,5.2388997,5.397594000000001,-1.8243339,4.6191044,-1
907,908,1583937160332,-4.2209997,0.038599997999999996,4.8996997,5.5939856,-1.632472,4.6907773,-1
908,909,1583937160342,-3.9111998,0.32439998,5.1103997,5.8352537,-1.571803,5.1868467,-1
909,910,1583937160352,-3.7754,0.38889998,5.6830997000000005,5.805144,-1.6633381999999999,5.904274,-1
910,911,1583937160362,-3.8046,0.3761,6.4546,5.8267492999999995,-1.8293042000000002,7.0129523,-1
911,912,1583937160372,-3.7045,0.3453,7.4309997999999995,5.913208999999999,-2.0143664,7.9105669999999995,-1
912,913,1583937160383,-3.6510000000000002,0.20199999,8.1571,5.883262,-2.3966916,7.5792284,-1
913,914,1583937160393,-3.5749998,-0.0614,7.6143,6.3715934999999995,-2.6150525,6.6667795,-1
914,915,1583937160403,-2.9957,-0.1406,6.7637,6.946623,-2.9274287,6.3493176,-1
915,916,1583937160413,-2.4234,-0.36319998,6.6231,7.3136253,-3.2737164,6.8011894,-1
916,917,1583937160423,-2.105,-0.5201,7.0513997,7.432924000000001,-3.2455416,7.2745614000000005,-1
917,918,1583937160433,-1.9427999,-0.3665,7.6303997,7.4756174,-3.1543415,7.5072875,-1
918,919,1583937160443,-1.8673999,-0.1731,7.8103,7.5330305,-3.0840285,7.562353999999999,-1
919,920,1583937160453,-1.75,0.0246,7.8328,7.688778,-3.2466237999999996,7.381170299999999,-1
920,921,1583937160463,-1.5208,-0.1037,7.6303,8.050550999999999,-3.7008517,7.396685000000001,-1
921,922,1583937160474,-1.1012,-0.40199998,7.7036996,8.256654,-4.1719346,7.411874000000001,-1
922,923,1583937160485,-0.914,-0.66859996,7.6435,8.009065,-4.4906797,6.461165,-1
923,924,1583937160495,-1.1072999,-0.8569,6.6682997,8.136675,-4.592912,6.042055,-1
924,925,1583937160505,-0.58489996,-0.8411,6.4424,8.463799,-4.8017435,6.3991739999999995,-1
925,926,1583937160517,-0.3302,-0.9133,6.495199700000001,8.694333,-4.965469000000001,6.3873086,-1
926,927,1583937160528,0.1037,-0.9069,6.0871,9.047746,-5.1182475,6.0018044,-1
927,928,1583937160538,0.4421,-1.0776,5.6717,9.315847999999999,-5.5611559999999995,5.75546,-1
928,929,1583937160548,0.5467,-1.3194,5.7907,9.203886,-5.913132,5.957224,-1
929,930,1583937160558,0.2898,-1.6815,5.8517,8.880037,-6.4612894,5.974625,-1
930,931,1583937160568,0.2024,-2.0437999,5.5882998,8.814511,-6.824136,5.683634,-1
931,932,1583937160579,0.2963,-2.2863998,4.7233,8.95012,-7.1932163000000005,4.566978,-1
932,933,1583937160589,0.7583,-2.3411,3.5904998999999997,9.434726,-7.4097,3.668846,-1
933,934,1583937160599,1.3317,-2.4664,2.7021,9.896002000000001,-7.5698433000000005,2.8688185,-1
934,935,1583937160609,1.8259999999999998,-2.3051999,1.9452,10.207794,-7.459020599999999,2.5128105,-1
935,936,1583937160619,1.8642,-2.1358,1.8154999,9.908069,-7.504711599999999,2.614976,-1
936,937,1583937160629,1.4642,-2.2036998,2.0226998,9.429563499999999,-7.737514,2.862048,-1
937,938,1583937160639,1.0993998999999999,-2.4354,2.1383,9.106212,-8.016007,2.9660997000000004,-1
938,939,1583937160650,0.9799,-2.5416,2.1111999,8.964609,-8.270683,2.9177656,-1
939,940,1583937160660,0.9914,-2.8435,1.9152999,9.000810000000001,-8.688625,2.7921370999999997,-1
940,941,1583937160670,1.3321999,-3.0273,1.5067999,9.469403,-8.775735000000001,2.0998490000000003,-1
941,942,1583937160680,1.8264999,-2.8688,0.64599997,9.851805,-8.721311,1.3066691000000001,-1
942,943,1583937160690,2.2457,-2.7147,-0.2136,10.04562,-8.591621,0.85856074,-1
943,944,1583937160700,2.4587,-2.4887,-0.7242,10.040161,-8.480444,0.6401521,-1
944,945,1583937160711,2.3804,-2.2467,-0.84929997,9.654427,-8.264344,0.8001901,-1
945,946,1583937160721,1.9504999,-2.1467,-0.8785,9.171497,-8.503064,0.57537454,-1
946,947,1583937160731,1.7149999,-2.3628,-1.2990000000000002,9.171133,-8.689832000000001,0.24780945,-1
947,948,1583937160741,1.9440998999999999,-2.5714998,-1.6452999,9.498134,-9.029625999999999,-0.07336792,-1
948,949,1583937160751,2.3845,-2.7326,-2.0714,9.810692,-9.130632,-0.45983997,-1
949,950,1583937160761,2.6239,-2.8086998,-2.3969998,9.856919,-9.29701,-0.6750786999999999,-1
950,951,1583937160772,2.6739,-2.8885999,-2.5928,9.763832,-9.355736,-0.73845804,-1
951,952,1583937160782,2.5175,-2.8937,-2.6295,9.384361,-9.391428999999999,-0.6078015999999999,-1
952,953,1583937160792,2.1469,-2.8929,-2.5056998999999998,9.036493,-9.384763000000001,-0.48178044,-1
953,954,1583937160802,2.0049999,-2.8072,-2.4977,9.009477,-9.271421,-0.46132436,-1
954,955,1583937160813,2.0412,-2.6655,-2.6172,8.919416,-9.232864999999999,-0.8437646000000001,-1
955,956,1583937160823,2.0047998,-2.5876,-3.1855,8.966611,-8.985553999999999,-1.5522183999999999,-1
956,957,1583937160833,2.1262,-2.2791,-3.9227998,9.134617,-8.785772,-1.8371762999999999,-1
957,958,1583937160843,2.3127,-2.1009998,-4.1067,9.089846000000001,-8.646075,-1.5716211000000002,-1
958,959,1583937160853,2.2108,-1.9161999,-3.7773,8.662652,-8.418971,-1.3748655,-1
959,960,1583937160864,1.745,-1.6862999,-3.6032,8.161594000000001,-8.193589999999999,-1.3938371999999999,-1
960,961,1583937160874,1.2760999,-1.4390999,-3.6225998,7.784795,-7.8928113,-1.4006081,-1
961,962,1583937160884,0.96819997,-1.1719998999999999,-3.6042,7.361911999999999,-8.081235000000001,-1.041631,-1
962,963,1583937160895,0.57049996,-1.344,-3.2412999,7.388008,-8.412631,-0.74963415,-1
963,964,1583937160905,0.6143,-1.6593,-2.9756,7.913995699999999,-8.4903755,-0.9676405999999999,-1
964,965,1583937160915,1.175,-1.7169999999999999,-3.2224998,8.134329,-8.6193075,-1.3213981000000001,-1
965,966,1583937160925,1.43,-1.8253,-3.5956,8.079951,-8.673235,-1.5048131999999999,-1
966,967,1583937160936,1.3915,-1.8594998999999999,-3.8070998,8.117664999999999,-8.599226,-1.3809851,-1
967,968,1583937160946,1.4390999,-1.7701,-3.6718,8.120328,-8.258329,-1.1691366,-1
968,969,1583937160956,1.0653,-1.2685,-2.9875,7.6550384000000005,-8.071428,-0.65928656,-1
969,970,1583937160966,0.5744,-1.1293,-2.352,7.195255800000001,-7.939565700000001,-0.055018757,-1
970,971,1583937160976,0.26569998,-1.0775,-1.9367,6.9706225,-7.9060372999999995,0.27700913,-1
971,972,1583937160987,0.29009998,-1.0424,-1.7572,7.037200500000001,-7.872814999999999,0.46461877,-1
972,973,1583937160996,0.29009998,-1.0424,-1.7572,7.1892130000000005,-7.834919999999999,0.4687464,-1
973,974,1583937161006,0.5338,-0.9859,-1.6219,7.193206299999999,-7.8522343999999995,0.6378249,-1
974,975,1583937161016,0.5385,-1.0267998999999999,-1.5029,7.2165265,-7.895244,0.7231064,-1
975,976,1583937161027,0.6574,-0.99069995,-1.4857999,7.333172,-7.855069,0.76928574,-1
976,977,1583937161037,0.77099997,-0.8979,-1.4004999,7.4411883,-7.757759,0.8821484,-1
977,978,1583937161047,0.77099997,-0.8979,-1.4004999,7.352372999999999,-7.7462860000000004,1.1600674,-1
978,979,1583937161057,0.3712,-0.9866,-0.5852,6.936097999999999,-7.8791356,1.7858255,-1
979,980,1583937161067,0.079399996,-1.0092,0.1336,6.7120967,-7.8783984,2.4443745999999997,-1
980,981,1583937161078,-0.0037999998,-0.80619997,0.3452,6.6348023000000005,-7.6020308000000005,2.528047,-1
981,982,1583937161088,-0.1818,-0.53389996,0.067999996,6.480050599999999,-7.3522773,2.2125776000000004,d
982,983,1583937161098,-0.0526,-0.45569998,-0.085099995,6.812797,-7.298006,1.9825236000000002,-1
983,984,1583937161108,0.44259998,-0.39399999999999996,-0.5521,7.3014149999999995,-7.2452564,1.478094,-1
984,985,1583937161119,0.86829996,-0.4495,-0.8477,7.5789795,-7.392251,1.3615347,-1
985,986,1583937161129,0.88449997,-0.62549996,-0.8067,7.510256299999999,-7.534246,1.4454178999999998,-1
986,987,1583937161139,0.7744,-0.7079,-0.5372,7.4457083,-7.55837,1.758589,-1
987,988,1583937161149,0.69839996,-0.6174,-0.2633,7.293131,-7.4116539999999995,1.9455953999999998,-1
988,989,1583937161159,0.4057,-0.5104,-0.103199996,6.960547999999999,-7.363109,2.0696244,-1
989,990,1583937161169,0.086899996,-0.5317,-0.0546,6.8115897,-7.389205499999999,2.1115517999999995,-1
990,991,1583937161180,0.1477,-0.5901,0.0678,6.9381285,-7.455276,2.211189,-1
991,992,1583937161190,0.3326,-0.7337,0.022599999,7.148167,-7.608150500000001,2.0970812,-1
992,993,1583937161200,0.5798,-0.89559996,-0.2742,7.6380205000000005,-7.703545,1.5555894,-1
993,994,1583937161210,1.1596999,-0.9026,-0.86899996,8.223757,-7.728128999999999,0.9718639000000001,-1
994,995,1583937161220,1.666,-0.9363,-1.4592999,8.553027,-7.764798,0.5118516,-1
995,996,1583937161230,1.8641,-1.0064,-1.6364,8.604205,-7.992812599999999,0.81846267,-1
996,997,1583937161241,1.7572,-1.3459999999999999,-1.1068,8.388909,-8.3024025,1.3579912,-1
997,998,1583937161251,1.4693999,-1.6403999,-0.5549,8.19765,-8.5840845,1.6300491000000001,-1
998,999,1583937161262,1.4101,-1.9271,-0.4888,8.505009,-8.758113999999999,1.4566801999999999,-1
999,1000,1583937161272,1.8385999,-2.0664,-0.7295,9.074503,-8.875172000000001,1.0789231000000001,-1
1000,1001,1583937161282,2.2728,-2.2061,-1.0684,9.44254,-9.031139,0.6911007,-1
1001,1002,1583937161293,2.6503,-2.3764,-1.5058,10.130739,-9.058902999999999,0.28421092,-1
1002,1003,1583937161303,3.3595,-2.3918998,-1.9537,10.723927,-8.936606,-0.27033409999999997,-1
1003,1004,1583937161313,3.8562,-2.2744,-2.4907,10.979647,-8.900358,-0.46062523,-1
1004,1005,1583937161323,4.0283,-2.3493,-2.5397,10.977328,-9.113108,-0.03304956,-1
1005,1006,1583937161333,3.9545999,-2.6259,-2.0507,10.974925,-9.463963,0.58140796,-1
1006,1007,1583937161344,3.9526,-3.0544999,-1.4056,11.191476,-9.814465,1.1713583,-1
1007,1008,1583937161354,4.1632,-3.4097998,-0.7822,11.615221,-9.957054,1.8752919999999997,-1
1008,1009,1583937161364,4.4905,-3.5649998,-0.0828,11.701134,-9.903433999999999,2.1817403,-1
1009,1010,1583937161374,4.4744,-3.5412998,0.1174,11.753250999999999,-9.785878,1.7463212,-1
1010,1011,1583937161384,4.4785,-3.534,-0.34809998,11.93068,-9.584114,0.8734718,-1
1011,1012,1583937161394,4.5903997,-3.4048,-1.2571,12.103877,-9.327475,0.44494802,-1
1012,1013,1583937161404,4.7565,-3.1729,-1.7580999,12.260372,-9.070787,0.5843193,-1
1013,1014,1583937161415,4.803999999999999,-3.0647,-1.5764999,12.130759,-8.952658,1.1096263000000002,-1
1014,1015,1583937161425,4.5826,-3.0428,-1.0286,11.774875999999999,-8.751325,1.9313451000000001,-1
1015,1016,1583937161435,4.132,-2.9419999999999997,-0.1449,11.080614,-8.411864999999999,3.1189554,-1
1016,1017,1583937161445,3.3285,-2.7233999,1.1230999,10.161508999999999,-8.127089,4.091921,-1
1017,1018,1583937161455,2.3075,-2.5609999,2.1785997999999998,9.606264999999999,-7.474305,4.363241,-1
1018,1019,1583937161465,1.6452999,-2.0279,2.5253,9.262458,-6.8638697,3.8841517,-1
1019,1020,1583937161475,1.2099,-1.5396,2.0967999,9.15062,-6.582053,3.2195978,-1
1020,1021,1583937161485,1.0122,-1.3662,1.476,9.525322000000001,-6.740578,3.1524262000000003,-1
1021,1022,1583937161496,1.3153,-1.6230999,1.4375,10.272475,-6.9531064,3.1763779999999997,-1
1022,1023,1583937161506,1.9964998999999999,-1.9326999,1.4886,10.889682,-7.2070355,3.3276242999999996,-1
1023,1024,1583937161516,2.6750998,-2.2784998,2.0934,11.058617,-6.992333,3.7596053999999994,-1
1024,1025,1583937161527,2.6750998,-2.2784998,2.0934,10.519452000000001,-6.5783663,4.010546,-1
1025,1026,1583937161537,0.74439996,-1.4433,3.0356,9.073967,-5.810938,4.6131477,-1
1026,1027,1583937161547,-0.862,-1.0476,3.4801,7.587148700000001,-5.256718599999999,4.876137,-1
1027,1028,1583937161557,-2.0902,-0.7707,3.4025,6.5990424,-4.8036017,4.6322155,-1
1028,1029,1583937161567,-2.1689,-0.5201,2.9970999,6.8904934,-4.3545932999999994,4.1300073,-1
1029,1030,1583937161578,-1.528,-0.15259999,2.7027,7.685828,-3.8141644,3.8203416,-1
1030,1031,1583937161588,-0.9169,0.012,2.8363,8.243936,-3.6776372999999998,4.0529623,-1
1031,1032,1583937161598,-0.69339997,-0.2511,3.3004,8.460122,-3.7349067000000002,4.4240923,-1
1032,1033,1583937161608,-0.71349996,-0.1171,3.3776998999999996,8.404299,-3.3853917,4.2730559999999995,-1
1033,1034,1583937161619,-1.224,0.2523,2.7637,7.871503,-2.8955667000000003,3.4731822,-1
1034,1035,1583937161629,-1.8721,0.4457,1.6731,7.313616000000001,-2.437623,1.9592806,-1
1035,1036,1583937161640,-2.1464,0.75299996,0.3108,7.144278999999999,-1.9491291000000002,0.5379675,-1
1036,1037,1583937161650,-2.2512999,0.9034,-0.35029998,7.09514,-1.7697651,0.33194172,-1
1037,1038,1583937161660,-2.3724,0.9474,-0.1244,7.0846729999999996,-1.4871727,0.925675,-1
1038,1039,1583937161670,-2.4794,1.0916,0.8407,6.756581,-1.0773716,2.1544845,-1
1039,1040,1583937161680,-3.0813,1.3181,2.2422,6.125776,-1.0046741,3.3134315,-1
1040,1041,1583937161690,-3.5202,0.93619996,3.2977,6.195514,-1.3531836000000002,3.7491282999999997,-1
1041,1042,1583937161700,-3.2264,0.58,3.3904998,6.525339,-1.4753741000000002,3.393934,-1
1042,1043,1583937161710,-2.9708,0.2349,2.5853,6.749494,-1.8243528999999998,1.821116,-1
1043,1044,1583937161720,-2.8402998,-0.13599999,0.85899997,7.0691004,-1.8522694,0.027523743,-1
1044,1045,1583937161730,-2.8402998,-0.13599999,0.85899997,7.634975,-1.5438098999999998,-0.9192201999999999,-1
1045,1046,1583937161740,-1.6894,0.325,-1.4864,8.125900999999999,-0.96252656,-1.4432726999999999,-1
1046,1047,1583937161751,-1.6865,0.6592,-1.5767,7.727985,-0.5289366,-1.1405785,-1
1047,1048,1583937161761,-2.3109999,0.92679995,-0.9677,7.0431669999999995,-0.34182495,-0.5232384,-1
1048,1049,1583937161772,-3.3070998,0.82049996,-0.1268,5.866005,-0.7451139,0.7249643,-1
1049,1050,1583937161782,-4.0264,-0.0923,1.3084999,5.9000793,-2.0394669999999997,2.6214497000000003,-1
1050,1051,1583937161792,-3.7429,-1.1499,2.6957998,6.768657000000001,-2.4824998,2.9194894000000002,-1
1051,1052,1583937161802,-2.8005,-1.5518999,2.7603,7.7171826,-2.1947742000000003,1.9999244999999999,-1
1052,1053,1583937161813,-1.9454999,-1.2191,1.6157,8.073861,-1.4581646000000001,0.49458462,-1
1053,1054,1583937161823,-1.757,-0.5696,0.1452,7.655431299999999,-0.8400583,-0.40251318,-1
1054,1055,1583937161833,-2.2640998,-0.112399995,-0.53389996,7.1786594,-0.5252399999999999,-0.38957492,-1
1055,1056,1583937161843,-2.6624,0.0598,-0.3813,7.113728500000001,-0.27019045,0.29637346,-1
1056,1057,1583937161853,-2.6966,0.2193,0.35119998,7.156910400000001,-0.022629995,0.88423616,-1
1057,1058,1583937161863,-2.6413999,0.3577,0.8675,7.171649499999999,0.14301045,0.986028,-1
1058,1059,1583937161873,-2.6636,0.3971,0.9004,7.0971703999999995,0.0137618715,0.8026418000000001,-1
1059,1060,1583937161883,-2.6750998,0.1909,0.7877,7.403608999999999,-0.28765854,0.95795846,-1
1060,1061,1583937161894,-2.4113998,-0.14289999,0.9571,7.4551034,-0.521572,0.9611569999999999,-1
1061,1062,1583937161904,-2.3825,-0.49929997,0.9328,7.465303,-0.753417,0.6761034,-1
1062,1063,1583937161914,-2.3534,-0.6859999999999999,0.5902,7.4422326000000005,-0.47447333,0.04057693,-1
1063,1064,1583937161924,-2.3732,-0.35169998,-0.0809,7.5248227,0.16603309,-0.5594387,-1
1064,1065,1583937161934,-2.2651,0.2289,-0.6551,7.713016499999999,0.7645548000000001,-1.0843436000000002,-1
1065,1066,1583937161944,-2.0980000000000003,0.65419996,-1.1206,7.8006825,1.0324277,-1.4132878,-1
1066,1067,1583937161955,-2.0189,0.87469995,-1.4588,7.958192299999999,1.1355698,-1.4649929,-1
1067,1068,1583937161965,-1.8613,0.93909997,-1.5029,7.8481646,1.0174208,-0.8363138000000001,-1
1068,1069,1583937161975,-1.9683,0.77709997,-0.8509,7.209142699999999,0.59536135,0.23910414,-1
1069,1070,1583937161985,-3.2307,-0.32259998,0.7442,6.603524,-0.07616434,0.7121984,-1
1070,1071,1583937161996,-3.2307,-0.32259998,0.7442,7.1363970000000005,-0.13257173,0.6123698000000001,-1
1071,1072,1583937162006,-2.6701999,-0.4755,0.6938,8.22255,0.5712278000000001,0.54729533,-1
1072,1073,1583937162016,-1.5903,0.1739,0.6479,8.197795,1.1682746000000002,0.32869515,-1
1073,1074,1583937162026,-2.3827,0.8843,-0.1282,7.297842999999999,1.3508182,-0.37524801,-1
1074,1075,1583937162036,-2.3827,0.8843,-0.1282,7.119762400000001,1.3223463,-0.9901269,-1
1075,1076,1583937162046,-2.1167998,0.504,-1.2096,7.837467,0.89282656,-1.2098093,-1
1076,1077,1583937162056,-2.1167998,0.504,-1.2096,8.386362,0.42948148,-0.84622586,-1
1077,1078,1583937162067,-0.9202,-0.5958,-0.1864,8.929999,-0.2358959,-0.18307982,-1
1078,1079,1583937162077,-0.7137,-0.99719995,0.0788,9.14563,-0.54022765,0.052883125999999996,-1
1079,1080,1583937162087,-0.5068,-0.8282,0.3658,9.30086,-0.23754312,0.3270671,-1
1080,1081,1583937162097,-0.5546,-0.36139998,0.47439998,9.203905,0.26553613,0.35914943,-1
1081,1082,1583937162107,-0.5546,-0.36139998,0.47439998,9.054162,0.7371747,0.045786712,-1
1082,1083,1583937162117,-0.8463,0.7168,-0.1514,8.899985000000001,1.4448911,-0.2916808,-1
1083,1084,1583937162128,-1.0416,0.89659995,-0.3545,8.703057000000001,1.4688907,-0.40770382,-1
1084,1085,1583937162138,-1.3745999,0.5168,-0.24399999,8.399386,0.9878380999999999,-0.18651788,-1
1085,1086,1583937162148,-1.1493,-0.166,0.0607,8.79285,0.3266936,0.11908759,-1
1086,1087,1583937162158,-0.17909999,-0.57559997,0.3292,9.84556,-0.06259401,0.3707565,-1
1087,1088,1583937162168,0.6145,-0.7308,0.5424,10.455814,-0.17574398,0.50022537,-1
1088,1089,1583937162178,0.60469997,-0.59209996,0.45499998,10.239627,0.11060254,0.37282512,-1
1089,1090,1583937162189,0.0757,-0.1805,0.2568,9.602425,0.5870486999999999,0.08576031,-1
1090,1091,1583937162199,-0.47259998,0.22569999,-0.0327,9.233536,0.93234044,-0.14134409,d
1091,1092,1583937162209,-0.47259998,0.22569999,-0.0327,9.300419999999999,1.1922742,-0.18309897,-1
1092,1093,1583937162219,-0.41239998,0.6247,-0.2877,9.4270735,1.2380991000000001,-0.37634936,-1
1093,1094,1583937162229,-0.3534,0.46609998,-0.4421,9.445136,0.9360850000000001,-0.41224322,-1
1094,1095,1583937162240,-0.37309998,0.045599997,-0.259,9.443249,0.42780554,-0.13430515,-1
1095,1096,1583937162250,-0.2556,-0.48189998,0.0426,9.678714,0.027763162,0.14756902,-1
1096,1097,1583937162260,0.1072,-0.62909997,0.2771,10.026686999999999,-0.027839776,0.29507098,-1
1097,1098,1583937162270,0.27429998,-0.5566,0.37449998,10.049047999999999,0.16637787,0.33492965,-1
1098,1099,1583937162280,0.1674,-0.2669,0.33229998,9.812664,0.5631162,0.26871565,-1
1099,1100,1583937162291,-0.1353,0.0071,0.2717,9.405095,0.79608166,0.26879224,-1
1100,1101,1583937162301,-0.5751,0.1915,0.2872,9.076217999999999,0.9243438,0.29196809999999995,-1
1101,1102,1583937162311,-0.76019996,0.2225,0.2583,9.0297985,0.80826336,0.25655308,-1
1102,1103,1583937162321,-0.70059997,0.0056,0.23539999,9.310437,0.6576968000000001,0.31205067,-1
1103,1104,1583937162331,-0.3276,-0.047599997000000005,0.3254,9.7104225,0.65964085,0.31040347,-1
1104,1105,1583937162342,-0.0334,-0.0674,0.2819,9.879941,0.6226457,0.14542381,-1
1105,1106,1583937162352,0.1528,-0.057699997,0.0919,10.057945,0.66040707,0.11052592,-1
1106,1107,1583937162362,0.3197,-0.0497,0.1441,10.143198,0.71675694,0.1898602,-1
1107,1108,1583937162372,0.3789,0.091199994,0.1919,10.07889,0.9395518,0.17507361,-1
1108,1109,1583937162382,0.17379999,0.2565,0.2269,9.761094,1.0582274999999999,0.3238493,-1
1109,1110,1583937162392,-0.1779,0.32909998,0.3475,9.401245,1.1657082,0.40299204,-1
1110,1111,1583937162403,-0.4513,0.45049998,0.4173,9.185528,1.2685343,0.5095052999999999,-1
1111,1112,1583937162413,-0.62689996,0.4874,0.5268,9.032805,1.3017563,0.64614713,-1
1112,1113,1583937162423,-0.78319997,0.5297,0.6362,8.908021000000002,1.4457243999999998,0.80516046,-1
1113,1114,1583937162433,-0.9106,0.6854,0.777,8.745674000000001,1.5312548000000001,0.91189396,-1
1114,1115,1583937162444,-1.0677999,0.75799996,0.94049996,8.637284,1.4109508999999998,1.4587488000000002,-1
1115,1116,1583937162454,-1.1665,0.5793,1.5483999,8.652712,1.2437207000000001,1.9569151000000002,-1
1116,1117,1583937162464,-1.0986,0.43179998,2.0828,8.726213000000001,1.1380503,2.3788118,-1
1117,1118,1583937162474,-1.06,0.3809,2.3562999,8.533078,1.1672596000000002,2.3693310000000003,-1
1118,1119,1583937162484,-1.3251,0.4434,2.3181,8.095342,1.3672616000000002,2.1666472000000003,-1
1119,1120,1583937162495,-1.7958,0.6297,2.1213999,7.5229936,1.5028213,2.0810783,-1
1120,1121,1583937162505,-2.4036999,0.7761,2.0871,6.859914999999999,1.6579273,2.4296072,-1
1121,1122,1583937162515,-2.9236,0.9047,2.432,6.3519893,1.9284146,3.2989898,-1
1122,1123,1583937162525,-3.4338998999999997,1.1837,3.2942,5.49182,1.9607936999999998,4.5686160000000005,-1
1123,1124,1583937162536,-4.2976,1.2234,4.5706,4.871434,1.7867736,5.4137783,-1
1124,1125,1583937162546,-4.917,1.0682,5.4241,4.738882,1.7418487,5.464928,-1
1125,1126,1583937162556,-5.1584,0.87469995,4.8382,4.636314,1.4445463,4.661386,-1
1126,1127,1583937162567,-5.0641,0.6056,3.948,4.7654476,1.1079792,3.6245244,-1
1127,1128,1583937162577,-4.8814,0.49899998,2.5911999,4.958133,0.9563398999999999,2.31639,-1
1128,1129,1583937162588,-4.7766,0.41009998,1.9886999,5.040197,0.7985333,1.9407591,-1
1129,1130,1583937162598,-4.6611,0.3701,2.1752,5.2266283,0.7795138,2.3677027,-1
1130,1131,1583937162608,-4.6134,0.5128,2.9849,5.018965000000001,0.83831537,3.3106925000000005,-1
1131,1132,1583937162619,-5.1926,0.6106,4.254699700000001,4.4641995,0.94203216,4.4750023,-1
1132,1133,1583937162629,-5.8594,0.8573,5.7989999999999995,3.6519809999999997,1.2048963,6.121112,-1
1133,1134,1583937162639,-6.5060997,0.9242,6.7303,3.1759756,1.0951174,6.514948400000001,-1
1134,1135,1583937162650,-6.5836997,0.6634,6.3445,3.5815629999999996,0.36623624,5.355417299999999,-1
1135,1136,1583937162660,-5.7388,-0.13,5.2847,4.7006416,-0.49536030000000003,4.441292,-1
1136,1137,1583937162670,-3.9710998999999996,-1.0842,3.9592998,6.725667,-1.4107403,2.8142116,-1
1137,1138,1583937162680,-1.8198999,-1.5144,2.1656,8.732612,-1.7866298999999999,0.8683482,-1
1138,1139,1583937162690,-0.0013,-1.4195,0.1513,10.609685,-1.5221089,-1.4149061,-1
1139,1140,1583937162700,1.1507,-0.8059,-1.2659999,11.090411,-1.0758202,-1.6738247,-1
1140,1141,1583937162711,1.1381,-0.28509998,-0.6771,10.421021000000001,-0.9730610000000001,-0.5840894,-1
1141,1142,1583937162721,0.094299994,-0.37939999,0.3117,9.1554365,-1.4232188000000001,0.34477463,-1
1142,1143,1583937162731,-0.9072,-0.9105,0.8822,8.894747,-2.3023124,0.13585658,-1
1143,1144,1583937162741,-0.51379997,-1.8608999,0.2233,10.147288,-3.5061263999999994,-0.91017973,-1
1144,1145,1583937162751,1.1084,-2.8406,-0.7653,11.957457000000002,-4.276609400000001,-1.7667484,-1
1145,1146,1583937162761,2.8803,-3.2187997999999998,-1.5918,13.424460999999999,-4.427539299999999,-2.7924724,-1
1146,1147,1583937162771,4.0848,-2.9663,-2.7846,14.048936999999999,-4.0409913,-4.1274695,-1
1147,1148,1583937162782,4.3775,-2.4434,-4.1815,13.772904,-3.8354440000000003,-5.2405725,-1
1148,1149,1583937162792,3.7682998,-2.2514,-5.0477,12.904622999999999,-4.1511817,-5.259314,-1
1149,1150,1583937162802,3.1697,-2.5558999,-4.8349,12.840286,-4.794705,-5.0762057,-1
1150,1151,1583937162812,3.2886998999999997,-3.0400999,-4.9167,13.426117999999999,-5.349825,-5.933445,-1
1151,1152,1583937162822,3.9496,-3.4943,-5.9419,14.198019,-6.116448,-6.920229400000001,-1
1152,1153,1583937162832,4.7597,-4.1668997,-6.922000000000001,14.928144,-6.8538046,-7.977939999999999,-1
1153,1154,1583937162843,5.5102997,-4.7335,-7.9312997,15.391211499999999,-7.0238886,-8.056087,-1
1154,1155,1583937162853,5.8356,-4.6949997,-7.6271996,14.796281,-7.2036357,-7.100359399999999,-1
1155,1156,1583937162863,5.0467997,-4.8721,-6.6421,13.515842000000001,-7.258041400000001,-6.4729443,-1
1156,1157,1583937162873,3.7331998,-4.8258,-6.1429,12.4186,-7.0693693,-6.5419264,-1
1157,1158,1583937162883,2.7612,-4.5973,-6.2957,12.128863,-6.760928599999999,-7.054620699999999,-1
1158,1159,1583937162894,2.7319,-4.1735,-6.8766,12.643855,-6.1941924,-7.597789,-1
1159,1160,1583937162904,3.2052999,-3.5899,-7.5365,12.673563,-5.898968,-8.498985000000001,-1
1160,1161,1583937162914,3.2094998,-3.2663,-8.4451,12.755761,-5.791823,-8.918228,-1
1161,1162,1583937162924,3.2923,-3.1429,-8.8819,12.639125,-5.833396,-8.783522,-1
1162,1163,1583937162935,3.1966,-3.1492999,-8.837299,12.211865,-5.9417763,-8.347383500000001,-1
1163,1164,1583937162945,2.6548,-3.2726,-8.305099499999999,11.189674,-6.0293849999999996,-7.2388973,-1
1164,1165,1583937162955,1.7536999,-3.3197,-7.3898997,10.24205,-5.810402,-6.213250599999999,-1
1165,1166,1583937162966,0.7985,-3.1093,-6.3781,9.324487,-5.475683,-5.199162,-1
1166,1167,1583937162976,-0.833,-2.2584,-4.6493998,8.498239,-4.7909794,-4.372971,-1
1167,1168,1583937162986,-1.3475,-1.7009,-4.4135,8.031953,-4.2329870000000005,-4.100137,-1
1168,1169,1583937162996,-1.5345,-1.3181,-4.4140997,7.94354,-3.8923303999999996,-4.1301513,-1
1169,1170,1583937163006,-1.2955999,-1.1959,-4.7486,8.240076,-3.8095772000000006,-4.3926992,-1
1170,1171,1583937163016,-1.2955999,-1.1959,-4.7486,8.543391999999999,-3.9482589,-4.420587,-1
1171,1172,1583937163026,-0.82009995,-1.7849,-4.5281997,8.684526,-4.5397706,-3.9883474999999997,-1
1172,1173,1583937163036,-0.3725,-2.2058,-4.2248,9.152956,-4.9355416,-3.7110126000000005,-1
1173,1174,1583937163047,-0.15269999,-2.4362,-3.9276,9.259394,-5.160051,-3.329128,-1
1174,1175,1583937163057,-0.44579998,-2.4996998,-3.0291,8.838828,-5.1906962,-2.3556838,-1
1175,1176,1583937163067,-1.1037999,-2.5024998,-2.1426,8.222609,-5.1941442,-1.5598607,-1
1176,1177,1583937163077,-1.4273,-2.3659,-1.6590999,7.9818664,-4.9757833,-1.0895916,-1
1177,1178,1583937163087,-1.3745999,-2.1504,-1.579,8.07207,-4.815736,-1.113074,-1
1178,1179,1583937163097,-1.3745999,-2.1504,-1.579,8.2578125,-4.6845717,-1.3952067,-1
1179,1180,1583937163108,-0.93289995,-1.966,-1.9545,8.571548,-4.830934,-1.4032704,-1
1180,1181,1583937163118,-0.5097,-2.3625998,-1.9418999,9.122703999999999,-5.347057,-1.3424577,-1
1181,1182,1583937163128,0.10229999599999999,-2.8172998,-1.8292999,9.695147500000001,-5.837121,-1.1459607,-1
1182,1183,1583937163138,0.5845,-3.1596,-1.4541,10.0054455,-6.099296,-0.802297,-1
1183,1184,1583937163149,0.64089996,-3.2680000000000002,-0.86869997,9.761132,-6.1987896,0.34049377,-1
1184,1185,1583937163159,0.104899995,-3.2222998,0.327,8.893932000000001,-6.061917299999999,1.5908608,-1
1185,1186,1583937163170,-0.805,-3.1337,1.5059999,8.384398,-6.061946400000001,2.5310736,-1
1186,1187,1583937163179,-0.93719995,-3.0781,2.2226,8.493441,-5.9567738,2.7836137,-1
1187,1188,1583937163189,-0.74079996,-2.8339999,2.1334,8.662939999999999,-5.7229849999999995,2.5647835999999997,-1
1188,1189,1583937163199,-0.5798,-2.6292999,1.8967999,8.765134,-5.6219589999999995,2.408433,-1
1189,1190,1583937163209,-0.5798,-2.6292999,1.8967999,9.291466,-5.4590955,2.474599,-1
1190,1191,1583937163219,0.43339998,-2.235,2.2698,9.924742,-5.2972574,3.2899203000000004,-1
1191,1192,1583937163229,0.9095,-2.0238,3.4736,10.263656,-5.112932700000001,4.573748999999999,-1
1192,1193,1583937163239,1.0688,-1.8102,4.5985,10.347452,-4.947733,5.5523643,-1
1193,1194,1583937163249,0.97959995,-1.5975,5.4167,10.180758,-4.7694316,6.155761,-1
1194,1195,1583937163259,0.5934,-1.4133999,6.0933,9.6425705,-4.577493,6.9833117,-1
1195,1196,1583937163269,0.1182,-1.2034,6.8802,9.248121000000001,-4.388131,7.873562,-1
1196,1197,1583937163279,-0.08109999400000001,-1.0297999,7.780999700000001,9.18073,-4.215816,8.661014999999999,-1
1197,1198,1583937163290,0.0761,-0.88619995,8.296,9.460669000000001,-4.17045,9.002122,-1
1198,1199,1583937163300,0.62,-0.7615,8.3647995,10.164717999999999,-4.044755,8.999747,-1
1199,1200,1583937163310,1.4705,-0.6303,8.1882,11.113367,-4.0082383,8.559147,-1
1200,1201,1583937163320,2.1729998999999998,-0.6288,7.7128,11.692333,-4.0947742,8.305236,-1
1201,1202,1583937163331,2.6741998,-0.6782,7.6249,11.885794,-4.1306686,8.297613,-1
1202,1203,1583937163341,2.7266998,-0.6947,7.6528997,11.840774,-4.17747,8.408072,-1
1203,1204,1583937163351,2.5760999,-0.7378,7.8792995999999995,11.539171000000001,-4.1573877,8.570055,-1
1204,1205,1583937163361,2.2147,-0.6659999999999999,7.9607,11.16198,-3.9850242,8.486564,-1
1205,1206,1583937163372,1.7924,-0.4842,7.8668,10.770719,-3.781536,8.452528,-1
1206,1207,1583937163382,1.4777,-0.30539998,7.8869996,10.67791,-3.5294652,8.362209,-1
1207,1208,1583937163392,1.5467,-0.047399998,7.6987996,11.007486,-3.2149725,7.7862982999999995,-1
1208,1209,1583937163402,1.8419999999999999,0.1338,7.0182,11.380674,-3.2090347,6.640012,-1
1209,1210,1583937163413,2.2449,0.0797,5.8332996,11.85103,-3.34175,5.7965636,-1
1210,1211,1583937163423,2.8611,-0.1454,4.9298997,12.433454,-3.4808724,5.3406405,-1
1211,1212,1583937163433,3.1982,-0.2436,4.8389,12.2350025,-3.5619593000000003,5.317158,-1
1212,1213,1583937163443,2.8437997999999998,-0.40559998,4.8136,11.695608,-3.5083196000000005,5.071599,-1
1213,1214,1583937163453,2.3387,-0.3354,4.5792,11.54894,-3.2380619999999998,4.755018700000001,-1
1214,1215,1583937163463,2.2154,-0.1625,4.2674,11.589373,-3.1643397999999996,4.400696,-1
1215,1216,1583937163474,2.2796,-0.1855,3.7681,11.764437,-3.2666487999999996,3.3532038,-1
1216,1217,1583937163484,2.3944,-0.37309998,2.9898,12.076822,-3.4932456,2.4696860000000003,-1
1217,1218,1583937163494,2.7949,-0.70519996,1.8989999,12.718602,-3.8032562999999993,1.7079756000000001,-1
1218,1219,1583937163504,3.4219999999999997,-1.1233,1.3252,13.200316,-4.300389,1.4861001,-1
1219,1220,1583937163514,3.8235997999999998,-1.6708,1.1322,13.296045999999999,-4.5750704,1.0301197,-1
1220,1221,1583937163524,3.8414998,-1.9415,0.73899996,12.846032000000001,-4.5141335,0.45198697,-1
1221,1222,1583937163534,3.3674,-1.9684,0.15079999,12.386258999999999,-4.359056,0.46914859999999997,-1
1222,1223,1583937163544,2.8819999999999997,-1.9174999,0.13589999,12.193774000000001,-4.1395845,0.9682246999999999,-1
1223,1224,1583937163554,2.6511998,-1.7659999,0.7928,12.076784,-3.9675657999999996,1.6532825,-1
1224,1225,1583937163564,2.4886,-1.7087,1.3079,11.8799715,-3.755612,1.3044665000000002,-1
1225,1226,1583937163574,2.2963,-1.6376,0.91279995,11.512653,-3.4768405,0.70548505,-1
1226,1227,1583937163584,1.9078,-1.4829999,0.3143,11.030710000000001,-3.4545937000000007,0.96951765,-1
1227,1228,1583937163595,1.4024,-1.5768,0.58379996,10.819512,-3.3426695,1.6856425,-1
1228,1229,1583937163605,1.1632999,-1.5931,1.3014,10.464653,-3.0440742999999997,2.1335783,-1
1229,1230,1583937163615,0.7884,-1.4147999,1.7429,10.128795,-2.788881,2.1815486,-1
1230,1231,1583937163626,0.4344,-1.2971,1.7964,10.043074,-2.4106642999999996,2.2671463,-1
1231,1232,1583937163636,0.3269,-1.0411999,1.902,9.796125,-2.2433958,1.4222133,-1
1232,1233,1583937163646,0.06399999599999999,-1.0,1.0867,9.624642,-2.1444674,0.604488,-1
1233,1234,1583937163656,-0.14800000000000002,-0.986,0.17989999,9.568562,-1.8041747,0.0012545617,-1
1234,1235,1583937163666,-0.14479999,-0.6953,-0.3062,9.593144,-1.5419233,-0.12572432,-1
1235,1236,1583937163676,-0.3321,-0.5987,-0.60249996,9.456408,-1.2944108,-0.5122443,-1
1236,1237,1583937163687,-0.2529,-0.34469998,-0.7256,9.560489,-0.9390251000000001,-0.57887965,-1
1237,1238,1583937163697,-0.2529,-0.34469998,-0.7256,9.504444,-0.8535999,-0.47757619999999995,-1
1238,1239,1583937163707,-0.2997,-0.3249,-0.54289997,9.177827,-1.1855321,-0.20189823,-1
1239,1240,1583937163717,-0.56439996,-1.0103999,-0.0932,9.3191805,-1.3237828,-0.17177919,-1
1240,1241,1583937163727,-0.2819,-1.0952,-0.1946,9.572842,-1.2275169,-0.41673476,-1
1241,1242,1583937163737,-0.027099999,-0.82589996,-0.28669998,9.915127,-0.6950175999999999,-0.49147213,-1
1242,1243,1583937163748,0.091699995,-0.48659998,-0.24399999,9.827278,-0.36723223,-0.5135084,-1
1243,1244,1583937163758,-0.5237,-0.3893,-0.20629999,8.961583000000001,-0.22743000000000002,-0.59426004,-1
1244,1245,1583937163768,-1.207,-0.4524,-0.5484,8.539428,-0.19066465,-0.9834040000000001,-1
1245,1246,1583937163778,-1.3599,-0.4549,-1.1825,8.462986,-0.08390239999999999,-1.7050642,-1
1246,1247,1583937163788,-1.0708,-0.48369998,-1.9281,8.897217999999999,-0.07072472,-2.4979856,-1
1247,1248,1583937163799,-0.69299996,-0.6802,-1.9922999,9.153789999999999,-0.36277902,-2.2374389999999997,-1
1248,1249,1583937163809,-0.6379,-1.3865,-1.3553,9.165157,-1.1271423,-1.6749357,-1
1249,1250,1583937163820,-0.8067,-2.0729,-1.0481,8.733779,-1.4519013,-1.6220908,-1
1250,1251,1583937163830,-1.3953999,-1.9798,-0.97929996,7.9619274,-0.9444934000000001,-1.5534825,-1
1251,1252,1583937163840,-2.0997999,-1.5659,-0.90349996,7.3341007,-0.52353525,-1.5586826999999999,-1
1252,1253,1583937163850,-2.9693,-1.1464,-0.8912,6.362888,0.05927086,-1.5807476999999999,-1
1253,1254,1583937163860,-3.6325,-0.8009999999999999,-0.8764,5.8954724999999994,0.46996266,-1.638084,-1
1254,1255,1583937163870,-3.9922,-0.4434,-1.0618,5.7011113,0.90372497,-2.158593,-1
1255,1256,1583937163881,-4.0190997,-0.278,-1.5796,5.4567976,0.94621724,-2.5242546000000003,-1
1256,1257,1583937163891,-4.4769998,-0.4583,-1.706,4.975266,0.74135023,-2.4364736000000002,-1
1257,1258,1583937163901,-4.687999700000001,-0.706,-1.4662,5.122835,0.7499501000000001,-2.1589377,-1
1258,1259,1583937163911,-4.5148997,-0.6004,-1.0409,4.9452715,1.067383,-1.7397802,-1
1259,1260,1583937163921,-4.9488,-0.34989998,-0.68799996,4.2634606,1.3887040000000002,-1.6613557,-1
1260,1261,1583937163932,-5.6868,-0.0618,-0.65029997,3.4656549,1.8359026000000003,-1.748677,-1
1261,1262,1583937163942,-6.4259,0.3296,-0.7399,2.947406,2.2354374,-2.0219321,-1
1262,1263,1583937163952,-6.7363,0.6547,-1.0064,2.7472412999999998,2.6555338,-2.0607849999999996,-1
1263,1264,1583937163962,-6.8725,0.9044,-0.885,2.6191225,2.6851833,-1.7995586,-1
1264,1265,1583937163972,-6.9702997,0.8602,-0.6091,2.7492520000000003,2.719411,-1.9153229999999999,-1
1265,1266,1583937163983,-6.7551,0.9054,-0.7859,3.0595312000000003,2.91246,-2.2609594,-1
1266,1267,1583937163993,-6.4529,1.0784999,-1.0861,3.1759565,2.9859717,-2.5051297999999997,-1
1267,1268,1583937164003,-6.4066,1.1891,-1.3471,3.0432603,3.2869422,-2.7761343,-1
1268,1269,1583937164013,-6.5382,1.4908999,-1.4358,2.8712225,3.5759508999999996,-2.582338,-1
1269,1270,1583937164023,-6.7109,1.7402999,-1.1574,2.7861612,3.5812085,-2.2730935000000003,-1
1270,1271,1583937164034,-6.758899700000001,1.7251999,-0.8368,2.7335844,3.5594788,-2.1052408,-1
1271,1272,1583937164044,-6.829799700000001,1.7422999,-0.67969996,2.6505153,3.5607812000000005,-2.2066877000000003,-1
1272,1273,1583937164054,-6.9038,1.7531999,-0.8703,2.80361,3.2453787,-2.4998052000000004,-1
1273,1274,1583937164064,-6.6667,1.4064,-1.1022999,3.3803065,2.4500822999999996,-2.7518954,-1
1274,1275,1583937164074,-6.1960998,0.7973,-1.305,3.5461385,2.0484216,-2.613003,-1
1275,1276,1583937164085,-6.0299,0.4673,-1.1463,3.0418427,1.6770425,-2.0963438,-1
1276,1277,1583937164095,-6.5504,0.1663,-0.6204,2.8900695,1.1977999,-1.4795114,-1
1277,1278,1583937164105,-6.7195,-0.2296,-0.017099998999999998,3.0585256000000003,1.3393643,-1.1796997999999999,-1
1278,1279,1583937164115,-6.5579,-0.0198,0.2568,3.138961,1.5213141000000001,-1.0896778,-1
1279,1280,1583937164126,-6.4969997,0.2607,0.3216,3.1804384999999997,1.2891244,-1.1899278,-1
1280,1281,1583937164136,-6.4084997,0.0764,0.1344,3.8367082999999997,0.9598929,-1.3830154,-1
1281,1282,1583937164146,-5.839699700000001,-0.0603,-0.0512,4.213364,0.43837833,-1.3918548000000002,-1
1282,1283,1583937164156,-5.4697,-1.0496,-0.22649999,4.2856307000000005,-0.4190236,-1.4266187,-1
1283,1284,1583937164166,-5.285599700000001,-1.1783999,0.52099997,4.4167943,-0.6466451,-0.54342633,-1
1284,1285,1583937164176,-5.5615,-1.3061999,1.1607,4.093089,-0.94084466,-0.056694694000000004,-1
1285,1286,1583937164186,-5.7296,-1.4664999,1.1068,4.0411057,-1.2673755,-0.12505394,-1
1286,1287,1583937164197,-5.4356,-1.5234,0.75619996,4.4055133,-1.4620146,-0.45815444,-1
1287,1288,1583937164207,-5.4356,-1.5234,0.75619996,4.920937,-1.7751952000000002,-0.6154918,-1
1288,1289,1583937164217,-4.6012,-1.9065,0.77709997,5.1760054,-2.2645223,-0.16804424,-1
1289,1290,1583937164227,-4.4897,-1.9612,0.94659996,5.327204,-2.43656,-0.06593632,-1
1290,1291,1583937164237,-4.1769,-1.8319999,0.79569995,5.632743,-2.5578022000000002,-0.180111,-1
1291,1292,1583937164247,-4.1345997,-1.8801,0.8481,5.5208373,-2.9646537,0.17058207,-1
1292,1293,1583937164257,-4.2251997,-2.2407,1.3677,5.502900599999999,-3.5055711000000005,0.6330651999999999,-1
1293,1294,1583937164268,-3.6915998,-2.6945999,1.4172,6.183112,-4.164034,0.5793394000000001,-1
1294,1295,1583937164278,-2.7770998,-2.9601998,0.4759,7.058834599999999,-4.679649400000001,-0.42883027,-1
1295,1296,1583937164288,-2.011,-3.0679,-0.4066,7.7868824000000005,-5.078753,-0.89588153,-1
1296,1297,1583937164298,-1.6494,-3.1536999,0.2052,7.846536599999999,-5.386149400000001,0.14912045,-1
1297,1298,1583937164309,-1.7821,-3.0119998,1.0382,7.719117,-5.3148313,0.6642569,-1
1298,1299,1583937164319,-1.8791,-2.4290000000000003,1.2919999,7.4360550000000005,-5.010193,1.1739249,-1
1299,1300,1583937164329,-2.2022,-2.4325,2.0403,7.1057224,-5.615562000000001,2.1120977,-1
1300,1301,1583937164339,-2.0115,-3.0149999,2.4547,7.641133,-6.412161,2.3021877,-1
1301,1302,1583937164349,-0.85109997,-3.3323,2.0965,8.855655,-6.9824494999999995,1.882829,-1
1302,1303,1583937164359,0.3863,-3.8355,0.9841,9.862627,-8.000666,0.6767738,-1
1303,1304,1583937164369,1.4199,-4.706,-0.15959999,10.794862,-9.087614,0.11308293,-1
1304,1305,1583937164379,2.5832,-4.9865,-0.4396,11.537628999999999,-9.245391999999999,-0.03541503,-1
1305,1306,1583937164389,2.8574,-4.3262,-0.47829998,11.297089,-8.513983,0.25046223,-1
1306,1307,1583937164399,2.1727,-3.135,0.3482,9.992469,-7.4694495,1.6654737000000002,-1
1307,1308,1583937164410,0.90129995,-2.3964,1.5941,8.442739999999999,-7.62264,2.650362,-1
1308,1309,1583937164420,-0.30609998,-2.9053,2.3539,7.8779580000000005,-8.73467,3.2520537,-1
1309,1310,1583937164430,0.261,-4.2042,2.8455,9.628454,-10.411291,3.6755687999999993,-1
1310,1311,1583937164440,2.6262,-5.2249,2.5888999,11.436613000000001,-11.409883500000001,3.1576552,-1
1311,1312,1583937164450,4.6464,-6.1176996,1.4764999,13.020531,-12.398795,1.9062058999999998,-1
1312,1313,1583937164460,5.8511996,-6.1287,0.3874,13.599085,-12.08842,1.2107669,-1
1313,1314,1583937164471,6.147599700000001,-5.4934998,-0.1761,12.960139,-11.560978,1.3383013000000001,-1
1314,1315,1583937164481,5.4213,-4.6439,0.2688,12.01373,-10.66341,1.970677,-1
1315,1316,1583937164491,4.7363,-3.5326,0.75159997,11.401945,-9.925642,2.5992412999999996,-1
1316,1317,1583937164501,4.379699700000001,-2.9617999,1.4569999999999999,11.064218499999999,-10.192778,3.022852,-1
1317,1318,1583937164511,4.3986998,-3.4847998999999996,1.5766,11.57065,-11.238919000000001,3.3609996,-1
1318,1319,1583937164522,5.2483997,-4.1775,1.9088,12.326624,-11.554618,3.3428419000000003,-1
1319,1320,1583937164532,6.3064,-4.2489,1.4481,12.97688,-11.463638000000001,2.2904754,-1
1320,1321,1583937164542,6.7785997,-4.0,0.52419996,12.671619,-11.42221,1.7356620999999999,-1
1321,1322,1583937164552,6.5325,-3.8435998,-0.049399998,12.276863,-11.218262,1.0972244,-1
1322,1323,1583937164562,6.3234997,-3.5609998999999997,-0.7779,12.065627000000001,-11.302586,0.83937836,-1
1323,1324,1583937164572,6.2407,-3.6397,-0.83199996,11.934626,-11.537371,1.2747973999999997,-1
1324,1325,1583937164582,6.1551,-3.8140998,-0.20879999,11.557118,-11.70372,1.9507093,-1
1325,1326,1583937164593,5.8989,-3.8119998,0.2776,11.1888895,-11.629241,2.5058289,-1
1326,1327,1583937164603,5.5903997,-3.6441,0.9116,10.534918,-11.404407,3.1329757999999996,-1
1327,1328,1583937164613,4.936899700000001,-3.3687,1.4426999,9.87703,-11.130271,3.0527606,-1
1328,1329,1583937164623,4.4223,-3.0138,1.1788,9.489984,-10.71729,2.4014416,-1
1329,1330,1583937164634,4.1286,-2.5567,0.5435,9.264372999999999,-10.387780000000001,2.2485287,-1
1330,1331,1583937164644,3.9578,-2.201,0.4579,8.855051,-9.931042999999999,2.1830716,-1
