,Seq,Time,ACCx,ACCy,ACCz,ADGx,ADGy,ADGz,Keydown
0,1,1583936109205,-0.028199999,0.2593,-1.7777,5.1650977,-8.63262,0.4069281,-1
1,2,1583936109215,0.4448,-1.6573,-0.8639,11.033764999999999,0.4101363,-0.84152365,-1
2,3,1583936109225,1.069,0.0376,-0.0299,10.439217999999999,0.29830796,0.07883627,-1
3,4,1583936109236,0.31379998,-0.1504,0.5401,9.621319999999999,0.08161355,0.5986845000000001,-1
4,5,1583936109246,-0.2847,-0.3279,0.8634,9.324113,-0.01703714,0.521256,-1
5,6,1583936109256,-0.5315,-0.37489998,0.45139998,9.4424925,-0.009624691,-0.2656702,-1
6,7,1583936109266,-0.2893,-0.2879,-0.32349998,9.878533000000001,0.050939035,-0.7368874,-1
7,8,1583936109276,0.1504,-0.2199,-0.7134,10.288210000000001,-0.04774996,-0.74685687,-1
8,9,1583936109287,0.57129997,-0.2764,-0.65669996,10.723399,-0.11124419,-0.43898165,-1
9,10,1583936109297,0.9533,-0.3053,-0.3014,10.75687,-0.1770177,-0.0981527,-1
10,11,1583936109307,0.8059999999999999,-0.43199998,0.1206,10.180012,-0.39177758,0.40409335,-1
11,12,1583936109317,0.25599998,-0.5446,0.4412,9.6935,-0.41435972,0.47166729999999996,-1
12,13,1583936109327,-0.17539999,-0.36389998,0.2656,9.527142,-0.19258958,0.09011775,-1
13,14,1583936109337,-0.28219998,-0.0569,-0.20979999,9.600222,0.09671617,-0.51807654,-1
14,15,1583936109348,-0.1647,0.2138,-0.74399996,9.8229685,0.3312426,-0.57825714,-1
15,16,1583936109357,0.0501,0.4328,-0.6289,10.018441000000001,0.47012547,-0.05929959,-1
16,17,1583936109367,0.2061,0.475,0.0033999997999999997,9.910683,0.49943048,0.63929015,-1
17,18,1583936109377,0.049399998,0.4152,0.6597,9.607308,0.39143282,0.99659127,-1
18,19,1583936109387,-0.2835,0.26549998,0.8854,9.384112,0.23155762,0.78674424,-1
19,20,1583936109397,-0.44,0.096499994,0.5861,9.440175,0.20272185,0.29778123,-1
20,21,1583936109408,-0.322,0.0793,0.0817,9.770133999999999,0.32310229999999995,-0.14335522,-1
21,22,1583936109418,-0.0372,0.17099999,-0.2644,9.988657,0.44324335,-0.24410322,-1
22,23,1583936109428,0.2182,0.2857,-0.37,10.1086645,0.56967634,-0.09753019,-1
23,24,1583936109438,0.2875,0.37849998,-0.1857,9.857331,0.70457524,0.22676921,-1
24,25,1583936109448,0.043199997000000004,0.4535,0.0717,9.528674,0.73018366,0.528113,-1
25,26,1583936109459,-0.35779998,0.4344,0.4412,9.135679,0.70947856,0.6984365,-1
26,27,1583936109469,-0.6806,0.39209998,0.5595,8.998205,0.6944716999999999,0.5967308000000001,-1
27,28,1583936109479,-0.8172,0.3471,0.4759,9.107735,0.6752989,0.378485,-1
28,29,1583936109489,-0.6990000000000001,0.3094,0.27399999999999997,9.558247,0.7118345,0.5143607,-1
29,30,1583936109500,-0.24749999,0.3347,0.41099998,9.78423,0.70408684,0.52764374,-1
30,31,1583936109510,-0.021399999,0.3102,0.4326,9.695482,0.76813656,0.3992954,-1
31,32,1583936109520,-0.4608,0.3333,0.21759999,9.251157000000001,0.76818436,0.30727184,-1
32,33,1583936109530,-0.8616,0.3442,0.35909998,8.874961,0.8265838,0.504238,-1
33,34,1583936109540,-1.1644,0.4148,0.5733,8.607308,0.93297255,0.69781405,-1
34,35,1583936109550,-1.2710999,0.43089998,0.8488,8.513522,0.9576710999999999,0.94094044,-1
35,36,1583936109560,-1.3095,0.40399998,1.0263,8.471528,0.9402988000000001,1.1185136,-1
36,37,1583936109570,-1.3384,0.38239998,1.1876999,8.429122,0.9363818000000002,1.275621,-1
37,38,1583936109580,-1.3384,0.38239998,1.1876999,8.356261,0.9212218000000001,1.441635,-1
38,39,1583936109591,-1.5732,0.4012,1.5406,8.180691,0.9384888000000001,1.5292052999999999,-1
39,40,1583936109601,-1.8282,0.32299998,1.3255,7.9518905,0.87514776,1.2880709,-1
40,41,1583936109611,-1.9557999,0.3263,1.0579,7.8282924,0.89539313,0.9785485,-1
41,42,1583936109622,-2.0346,0.4193,0.7190000000000001,7.760307000000001,1.0098072,0.6781911999999999,-1
42,43,1583936109632,-2.0642,0.67789996,0.65569997,7.7291822,1.3411263999999998,0.72826827,-1
43,44,1583936109642,-2.1427,0.92469996,0.894,7.5603433,1.4623687,1.0208972,-1
44,45,1583936109652,-2.427,0.8469,1.3179,7.2058672999999995,1.2903216,1.4566706,-1
45,46,1583936109662,-2.427,0.8469,1.3179,6.8862224,1.0720565,1.7355186000000002,-1
46,47,1583936109673,-3.2114,0.37579998,1.8241999,6.4211345,0.8559174999999999,1.5779798999999999,-1
47,48,1583936109683,-3.6136,0.2461,1.4798,6.033857299999999,0.7148033,1.1812418,-1
48,49,1583936109693,-3.9571998,0.1248,1.2824,5.7994747,0.59403974,1.0431824,-1
49,50,1583936109703,-3.9675,0.2251,1.1922,5.940034,0.8019618000000001,0.81332946,-1
50,51,1583936109713,-3.6443,0.6292,0.88869995,6.336800599999999,1.1984034,0.40327933,-1
51,52,1583936109724,-3.2229,0.94939995,0.42459998,6.6639156,1.2735046,-0.18805975,-1
52,53,1583936109734,-3.1829,0.79389995,-0.0949,6.433268,0.81061924,-0.7768419,-1
53,54,1583936109744,-3.5825998999999995,0.3357,-0.268,5.833185,0.23764847,-0.6268594,-1
54,55,1583936109754,-4.2748,-0.1721,0.1677,5.1906295,-0.25705108,-0.29681396,-1
55,56,1583936109764,-5.0931,-0.6890000000000001,0.6547,4.38432,-0.76867276,0.08648814,-1
56,57,1583936109774,-5.8226,-1.0551,1.0541999,3.5646405,-1.1700846999999999,0.33418268,-1
57,58,1583936109785,-6.3858,-1.1581,1.0913,3.3554928,-1.0166259,-0.02282153,-1
58,59,1583936109795,-6.3027997000000004,-0.62979996,0.6346,3.7393599,-0.28319573,-0.713338,-1
59,60,1583936109805,-5.8282,0.22049999,-0.1072,4.229337999999999,0.19649692,-1.3769628999999999,-1
60,61,1583936109815,-5.3127,0.5295,-0.44939998,4.679582,-0.009193734,-1.3620326999999999,-1
61,62,1583936109825,-5.0092,0.2008,-0.3626,4.638287,-0.902365,-1.4709879,-1
62,63,1583936109836,-5.2113,-0.8091,-0.6479,4.3945,-2.4760162999999995,-2.341309,-1
63,64,1583936109846,-5.3209,-1.944,-1.3892,4.447871,-3.3663626000000004,-3.0893342,-1
64,65,1583936109856,-5.2214,-2.6046999,-2.0008,4.598945,-3.892378,-3.3980330000000003,-1
65,66,1583936109866,-4.9632,-3.0344,-2.1829,4.9239726,-4.2210445,-3.4209502,-1
66,67,1583936109876,-4.6073,-2.9515,-2.0277998,5.0740795,-3.6389568,-2.995156,-1
67,68,1583936109887,-4.6267,-2.1111999,-1.5904,4.643602,-2.9027588,-2.4571214,-1
68,69,1583936109897,-5.0799,-1.2861999,-1.1069,4.1847296,-2.6358917,-2.0247571,-1
69,70,1583936109907,-5.4831,-0.9429,-0.8463,4.094171,-2.7448947,-2.244909,-1
70,71,1583936109917,-5.4386997,-0.9745,-1.2679,4.5532165,-3.5805094,-3.033827,-1
71,72,1583936109927,-4.8447,-1.7810999,-2.2214,5.482558999999999,-4.987189,-3.9612257000000004,-1
72,73,1583936109937,-3.7781,-2.9564998,-3.0628,6.577485,-6.132259400000001,-4.235543700000001,-1
73,74,1583936109948,-2.6832,-3.8046,-3.2338,7.504558,-6.833827,-4.315386,-1
74,75,1583936109958,-1.8792,-4.1096,-3.32,7.792379400000001,-6.78103,-4.452353,-1
75,76,1583936109968,-1.4887999,-3.7115998,-3.5347,7.483766999999999,-6.26599,-4.211784,-1
76,77,1583936109978,-1.9453,-3.1001,-3.2154,6.656617999999999,-6.119119599999999,-3.5523154999999997,-1
77,78,1583936109988,-2.7052999,-2.8154,-2.6431,6.2360430000000004,-6.1738610000000005,-2.8471847,-1
78,79,1583936109998,-2.9074,-2.7143998,-2.2154,6.744801,-6.778128999999999,-3.1331290000000003,-1
79,80,1583936110009,-2.3292,-3.0535997999999998,-2.6987,7.785484299999999,-7.5142690000000005,-3.8169894,-1
80,81,1583936110019,-1.2047,-3.5523,-3.5233,9.112044000000001,-8.366672,-4.140178,-1
81,82,1583936110029,0.23619999,-4.1633,-3.9782998999999997,10.171987,-9.002379,-4.4642186,-1
82,83,1583936110039,1.4189,-4.5657997,-4.433,10.774722,-9.484189,-4.960135,-1
83,84,1583936110049,2.1332,-4.8248,-5.0373,11.358246000000001,-9.923678,-5.177155,-1
84,85,1583936110059,2.8386,-5.0593,-5.393399700000001,11.951195,-10.064516000000001,-4.8248816,-1
85,86,1583936110070,3.5358,-5.0018,-5.1721997,12.095066000000001,-10.262611,-3.8674402000000003,-1
86,87,1583936110080,3.5821,-5.2998,-3.3971,11.666428,-10.811085,-2.6440415,-1
87,88,1583936110090,3.5821,-5.2998,-3.3971,11.422028,-11.219325,-2.5727037999999998,-1
88,89,1583936110100,3.3844,-5.6317997,-3.3191,11.887566,-11.905043,-3.4491252999999995,-1
89,90,1583936110110,3.9810000000000003,-6.1492996,-4.3501997,13.471770000000001,-12.49169,-4.7725824999999995,-1
90,91,1583936110120,7.7271,-6.7829,-6.5966,15.629062,-12.968098,-5.394405,-1
91,92,1583936110131,9.0133,-7.0042,-6.1356997,16.599239999999998,-13.323895000000002,-4.629428400000001,-1
92,93,1583936110141,9.385799,-7.0733,-5.0348,16.671076,-13.472939499999999,-3.5088844,-1
93,94,1583936110151,9.0071,-6.9839997,-4.4642,16.054942999999998,-13.551727,-3.0770376,-1
94,95,1583936110161,8.361899000000001,-7.1927,-4.5947,15.453651999999998,-13.797067000000002,-3.246729,-1
95,96,1583936110171,8.5084,-7.0523,-4.6101,15.670213,-13.680420999999999,-3.1771536,-1
96,97,1583936110182,9.0407,-6.8991,-4.2268,16.147617,-13.629855,-2.7460632,-1
97,98,1583936110192,9.4492,-6.830899700000001,-3.8786,16.456097,-13.609283999999999,-2.4581366,-1
98,99,1583936110202,9.4492,-6.830899700000001,-3.8786,16.517139999999998,-13.438597,-1.8048929,-1
99,100,1583936110212,9.4593,-6.579,-2.2918,16.211292,-13.582373,-0.45151769999999997,-1
100,101,1583936110222,9.2374,-7.0186996,-0.96669996,16.066166,-14.114154000000001,0.60193104,-1
101,102,1583936110232,9.3136,-7.805299799999999,0.0481,16.214884,-14.875214000000001,1.5162096,-1
102,103,1583936110243,9.4586,-7.9245,0.46809998,16.30957,-14.683294,1.7018751,-1
103,104,1583936110253,9.2666,-7.4203,0.5827,15.964432,-14.044014,1.8566651,-1
104,105,1583936110263,8.5603,-6.8034,1.0321,15.115706,-13.44669,2.3768866,-1
105,106,1583936110274,7.5895996,-6.3441,1.8111,14.492973999999998,-13.032147,3.0452616000000003,-1
106,107,1583936110284,7.1257997,-5.8406,2.8542,14.165332999999999,-12.294216,4.064512000000001,-1
107,108,1583936110294,6.8290997,-5.3492,3.455,13.831016,-11.639756,4.614115,-1
108,109,1583936110304,6.3066998,-4.9599,3.9698,13.380657000000001,-11.29367,4.909971,-1
109,110,1583936110314,5.5511,-4.7507,4.4728,12.627623,-11.001989,5.307226999999999,-1
110,111,1583936110325,4.8795,-4.68,4.7441998,12.217217999999999,-10.837345,5.411748,-1
111,112,1583936110335,4.4911,-4.6872,5.0097,12.226852000000001,-10.642188,5.712162999999999,-1
112,113,1583936110345,4.4835,-4.5382,5.5291,12.249675,-10.158397,6.226878,-1
113,114,1583936110355,4.0892,-4.1394,5.9754,11.685017,-9.661992,6.3142567000000005,-1
114,115,1583936110365,2.9638,-3.7877998,6.0151997,10.444236,-8.998809,6.222138,-1
115,116,1583936110376,1.9147999,-3.3323998,5.9203997,9.853806500000001,-8.227425,6.019435,-1
116,117,1583936110386,1.4190999,-2.7254,5.8466,9.730773,-7.457938700000001,6.1119275,-1
117,118,1583936110396,1.2824999,-2.2677999,6.1141996,9.749476,-6.8922076,6.393371,-1
118,119,1583936110406,1.0828,-1.9605999,6.4873,9.365993,-6.513042400000001,6.7676324999999995,-1
119,120,1583936110416,0.5451,-1.9623,6.8876,8.729939,-6.3265343000000005,6.852626299999999,-1
120,121,1583936110426,-0.22209999,-1.939,6.9989,8.210014,-5.8470235,6.6770744,-1
121,122,1583936110437,-0.7854,-1.6509,6.9139,7.962885000000001,-5.574774,6.638575,-1
122,123,1583936110447,-1.1736,-1.6628,6.9357996,7.718217,-5.4400477,6.4307300000000005,-1
123,124,1583936110457,-1.4261999,-1.7275,6.7363,7.4849358,-5.102015,5.772037,-1
124,125,1583936110467,-1.7399,-1.5494,6.0227,7.2286315000000005,-4.620129599999999,5.2844152,-1
125,126,1583936110477,-2.0962,-1.2671,5.6519,6.8205347000000005,-4.1390476000000005,5.342594,-1
126,127,1583936110488,-2.5939,-0.9809,5.7727,6.4521914,-3.7405763,5.2976117,-1
127,128,1583936110498,-3.0758,-0.7001,5.5429997,6.0960207,-3.3891647000000003,4.7360377,-1
128,129,1583936110508,-3.3844,-0.677,4.9793,6.0396514,-3.1758319999999998,3.900959,-1
129,130,1583936110518,-3.3930000000000002,-0.58,4.2135997000000005,6.252477,-2.5558197,3.7125160000000004,-1
130,131,1583936110528,-3.2786998999999994,-0.21519999,4.1615,6.010107,-2.2810422999999997,3.9664642999999997,-1
131,132,1583936110538,-3.5523,-0.125,4.4804,5.595661,-2.2096758,4.0059304,-1
132,133,1583936110548,-4.0964,-0.204,4.6068,5.0830245000000005,-2.0251116999999996,4.0846806,-1
133,134,1583936110558,-4.5478997,-0.2234,4.7402,4.560264599999999,-1.6434567,3.9594445,-1
134,135,1583936110568,-5.0929,-0.0019999999,4.6835,3.931059,-1.3026947,3.5462629999999997,-1
135,136,1583936110578,-5.7418,0.17109999,4.3273,3.4004559999999997,-0.9599983,2.9817099999999996,-1
136,137,1583936110589,-6.2889,0.3692,3.7986998999999995,3.2875165999999996,-0.6485221999999999,2.2133532000000002,-1
137,138,1583936110599,-6.4199996,0.5584,3.0655,3.5525546,-0.40273345,1.3982329,-1
138,139,1583936110609,-6.1646,0.6929,2.2798998,4.013486400000001,-0.19269493,0.45352885,-1
139,140,1583936110620,-5.6995997,0.8286,1.3607999,4.5850973,-0.15807477,-0.7416758000000001,-1
140,141,1583936110630,-4.5758,0.79209995,-0.51699996,5.25737,-0.062220514000000005,-1.6143528,-1
141,142,1583936110640,-4.3504,0.8264,-0.44579998,5.37143,-0.007910443,-1.4015082,-1
142,143,1583936110650,-4.5755,0.64519995,0.2983,5.036337400000001,-0.15964536,-0.70222896,-1
143,144,1583936110661,-5.3101997,0.5245,0.7184,4.226647,-0.13537775,-0.47664726,-1
144,145,1583936110671,-5.3101997,0.5245,0.7184,3.4276252,0.021614853,-0.8808077,-1
145,146,1583936110681,-6.4346,0.72639996,-0.22019999,3.3287449999999996,0.2988538,-1.6947883000000001,-1
146,147,1583936110691,-5.9509,1.0804,-1.0799999,3.9269410000000002,0.71068525,-2.5304222000000003,-1
147,148,1583936110701,-5.9509,1.0804,-1.0799999,4.653639,1.0691546,-2.8234534,-1
148,149,1583936110711,-4.7766,1.6504999,-1.5117999,4.976808,1.2443336,-2.9592332999999997,-1
149,150,1583936110722,-4.5484,1.4891,-1.7567999,5.2226156999999995,1.0011881999999999,-3.2086514999999998,-1
150,151,1583936110732,-4.0661,0.9467,-1.9327999,5.7717023,0.41715613,-3.3762076000000003,-1
151,152,1583936110742,-3.4376998,0.44939998,-2.0097,6.3746,-0.08785763,-3.4685949999999997,-1
152,153,1583936110752,-3.1334,-0.0381,-2.2470999,6.604271400000001,-0.5745222,-3.7371093999999996,-1
153,154,1583936110762,-2.8685,-0.2573,-2.4835,6.968592,-0.7199939000000001,-3.9620589999999996,-1
154,155,1583936110773,-2.5647,-0.0613,-2.6711,7.171017,-0.40533835,-4.2759867,-1
155,156,1583936110783,-2.5951,0.2668,-3.2649,7.007148299999999,-0.09982864,-4.8953667,-1
156,157,1583936110793,-2.8314,0.4441,-3.661,6.855375,-0.007431602,-4.976473,-1
157,158,1583936110804,-2.812,0.3558,-3.2572,7.0948910000000005,-0.18886422,-4.255244,-1
158,159,1583936110814,-2.3502,0.2007,-2.5618,7.728234,-0.2934142,-3.5659718999999996,-1
159,160,1583936110824,-1.7306,0.0977,-1.8425,8.2984085,-0.41125682,-2.9319012000000004,-1
160,161,1583936110834,-1.2285,-0.033299997000000005,-1.3079,8.573195,-0.5184117,-2.641475,-1
161,162,1583936110845,-1.1089,-0.1355,-1.1568999,8.501149,-0.5564508,-2.7368502999999995,-1
162,163,1583936110855,-1.2648,-0.11009999,-1.3349999,8.381812,-0.45898762,-2.8723526,-1
163,164,1583936110866,-1.3427,0.0053999997,-1.4485999,8.275424000000001,-0.33821452,-3.0901002999999996,-1
164,165,1583936110876,-1.5094,0.0857,-1.7235999,8.19789,-0.32494104,-3.3916836000000004,-1
165,166,1583936110886,-1.4116,0.1317,-2.0705,8.459624,-0.23179702,-3.6699471,-1
166,167,1583936110896,-0.89169997,0.2511,-2.3964,9.152716999999999,-0.15040375,-3.9934902,-1
167,168,1583936110907,-0.2832,0.3242,-2.5053,9.809035,-0.04861187,-3.7862669999999996,-1
168,169,1583936110917,0.1593,0.4337,-2.2456,9.902409,0.04111323,-3.3385993999999997,-1
169,170,1583936110927,0.1708,0.4976,-1.765,9.636422999999999,0.06779421,-2.8062534,-1
170,171,1583936110937,-0.15079999,0.5062,-1.1635,9.090008000000001,-0.042645518,-2.0783970000000003,-1
171,172,1583936110947,-0.70809996,0.4055,-0.4558,8.670688,-0.16512331,-1.6530526,-1
172,173,1583936110958,-1.0507,0.2811,-0.118999995,8.682458,-0.1915936,-1.8480077000000001,-1
173,174,1583936110968,-0.9528,0.31599998,-0.46789998,9.097267,-0.081824236,-2.4953327,-1
174,175,1583936110978,-0.47239998,0.4425,-1.1356,9.716283,-0.07824251,-3.0786273,-1
175,176,1583936110988,0.13599999,0.4398,-1.6747999,10.283805000000001,-0.30747297,-3.2625213,-1
176,177,1583936110998,0.7258,0.22109999,-1.7872,10.816457000000002,-0.42765230000000004,-3.0870261,-1
177,178,1583936111008,1.1983,0.18069999,-1.5313,10.921974,-0.46127650000000003,-2.566996,-1
178,179,1583936111018,1.1998999,0.15699999,-0.95879996,10.669922999999999,-0.5230277,-2.119759,-1
179,180,1583936111028,0.77889997,0.062299997,-0.4752,9.962541,-0.64898187,-1.6878068,-1
180,181,1583936111038,0.161,-0.039,-0.12109999,9.54552,-0.68603456,-1.361276,-1
181,182,1583936111048,-0.1725,-0.0721,0.1537,9.527496000000001,-0.6493361999999999,-1.3325936,d
182,183,1583936111058,-0.14289999,0.009000000000000001,0.1541,9.794382,-0.53965306,-1.3598875,-1
183,184,1583936111069,0.1131,0.0969,0.1373,9.970825,-0.5860335,-1.3943638999999999,-1
184,185,1583936111079,0.2911,0.062699996,0.1015,10.043705000000001,-0.6028983,-1.4150882,-1
185,186,1583936111089,0.38009998,0.0519,0.0686,10.090449000000001,-0.6460418000000001,-1.4542955,-1
186,187,1583936111099,0.4093,0.043399997,0.0286,10.116843,-0.75544727,-1.647182,-1
187,188,1583936111109,0.4382,-0.044000000000000004,-0.1707,10.139664,-0.8930756,-1.7770339,-1
188,189,1583936111120,0.4168,-0.2665,-0.12019999,10.090009,-1.0330979999999998,-1.513959,-1
189,190,1583936111131,0.4649,-0.326,0.0254,10.162343,-1.0620583000000001,-1.3886753,-1
190,191,1583936111141,0.51269996,-0.184,0.1814,10.180538,-0.91560024,-1.1828889,-1
191,192,1583936111151,0.2958,-0.0168,0.3199,9.918717,-0.7580425000000001,-1.0720853000000001,-1
192,193,1583936111161,-0.0285,-0.0189,0.25669998,9.55931,-0.80293864,-1.2208226,-1
193,194,1583936111172,-0.2052,-0.0685,0.0694,9.484783,-0.8331726,-1.350052,-1
194,195,1583936111182,-0.1654,-0.1337,0.091,9.530139,-0.9113098,-1.2799785,-1
195,196,1583936111192,-0.105799995,-0.2149,0.2401,9.628703,-0.97677684,-1.1435665000000002,-1
196,197,1583936111202,-0.105799995,-0.2149,0.2401,9.7332535,-0.92565584,-1.1964976,-1
197,198,1583936111212,0.1112,-0.11599999999999999,0.0618,9.837458999999999,-0.9036675,-1.437632,-1
198,199,1583936111222,0.2096,-0.1431,-0.22699999999999998,9.954842,-0.9976543,-1.7195061000000003,-1
199,200,1583936111233,0.42589998,-0.2497,-0.3965,10.23345,-1.1028363,-1.7646607,-1
200,201,1583936111243,0.6617,-0.3202,-0.22119999,10.360553999999999,-1.1515343999999998,-1.4192827,-1
201,202,1583936111253,0.54399997,-0.3184,0.3655,10.058454,-1.1253898,-0.81264955,-1
202,203,1583936111263,0.0625,-0.273,0.7532,9.548641,-1.0588692,-0.66864306,-1
203,204,1583936111274,-0.3604,-0.1387,0.5203,9.254614,-0.88056827,-1.0548853,-1
204,205,1583936111284,-0.3909,0.0316,0.049599998,9.348745,-0.7567976,-1.4192637,-1
205,206,1583936111294,0.0007,0.0923,-0.29479998,9.914724,-0.7541065,-1.7218716,-1
206,207,1583936111304,0.5205,0.039,-0.4219,10.336775,-0.83286613,-1.7229631999999997,-1
207,208,1583936111314,0.6775,-0.067,-0.2417,10.237347999999999,-0.9875029000000001,-1.4556075000000002,-1
208,209,1583936111324,0.3832,-0.1915,-0.028999999999999998,9.909985,-1.0647396999999998,-1.2838955,-1
209,210,1583936111335,-0.0095,-0.21509999,0.1858,9.499541,-1.0507289,-1.0184072,-1
210,211,1583936111345,-0.2358,-0.1723,0.4786,9.439782000000001,-0.99605495,-0.7135583000000001,-1
211,212,1583936111355,-0.19739999,-0.08800000000000001,0.68079996,9.576855,-0.88363284,-0.5958880999999999,-1
212,213,1583936111365,-0.13939999,-0.0381,0.7037,9.468847,-0.9117407,-0.70582026,-1
213,214,1583936111375,-0.2774,-0.091699995,0.5477,9.4040985,-0.9801575000000001,-0.91274625,-1
214,215,1583936111385,-0.2582,-0.14119999,0.2934,9.527524,-1.0272179,-1.2376395,-1
215,216,1583936111396,-0.07200000000000001,-0.15709999,-0.088599995,9.904583,-1.052989,-1.6177333999999999,-1
216,217,1583936111406,0.2812,-0.1626,-0.3714,10.195832000000001,-0.9874358,-1.8016846999999998,-1
217,218,1583936111417,0.5462,-0.0744,-0.5137,10.317592,-0.8738644,-1.6415031000000002,-1
218,219,1583936111427,0.6149,0.0255,-0.2694,10.073805,-0.9616455,-1.1787133,-1
219,220,1583936111437,0.2911,-0.1083,0.195,9.631269999999999,-1.0870347,-0.83187973,-1
220,221,1583936111447,-0.1504,-0.2277,0.5144,9.370666,-1.1163396,-0.70470935,-1
221,222,1583936111457,-0.3277,-0.2411,0.5956,9.473923,-1.0221709,-0.7876253000000001,-1
222,223,1583936111467,-0.1617,-0.1366,0.4649,9.771398,-0.89133257,-1.1241063999999998,-1
223,224,1583936111477,0.1116,0.01,0.0739,9.804065,-0.6996049,-1.4653951,-1
224,225,1583936111488,0.081,0.18769999,-0.2101,9.619347,-0.65695935,-1.4684693000000002,-1
225,226,1583936111498,-0.0959,0.1889,-0.1751,9.556303,-0.77193856,-1.3025031999999999,-1
226,227,1583936111508,-0.1345,0.0648,0.0036,9.640033,-0.9729556999999999,-1.267701,-1
227,228,1583936111518,-0.0546,-0.0945,0.019399998999999998,9.863095,-1.0632553999999999,-1.4667263000000001,-1
228,229,1583936111529,0.2511,-0.19299999,-0.2188,10.327896,-1.2140806,-1.6333818000000002,-1
229,230,1583936111539,0.6351,-0.3223,-0.3401,10.576176,-1.1350431,-1.623623,-1
230,231,1583936111549,0.89059997,-0.24139999,-0.3275,10.503852,-1.0225061,-1.5471332,-1
231,232,1583936111560,0.8117,-0.1293,-0.2487,10.009917999999999,-1.0499628,-1.4207097,-1
232,233,1583936111570,0.32,-0.1709,-0.123799995,9.492952,-1.0611103000000002,-1.1566676000000002,-1
233,234,1583936111580,-0.2016,-0.1946,0.1362,9.314996,-1.0192308,-0.96564853,-1
234,235,1583936111590,-0.2149,-0.0603,0.2259,9.5118475,-0.88749224,-1.0938821,-1
235,236,1583936111600,-0.2149,-0.0603,0.2259,9.694514999999999,-0.8050743,-1.2442474,-1
236,237,1583936111610,0.12629999,0.1443,-0.0596,9.820661999999999,-0.7008403,-1.3057306,-1
237,238,1583936111621,0.0473,0.1699,0.0201,9.709762,-0.7069694999999999,-1.195626,-1
238,239,1583936111631,-0.100099996,0.0778,0.100999996,9.580503,-0.8088666999999999,-1.1454436000000001,-1
239,240,1583936111641,-0.1593,-0.0036,0.034399997,9.55637,-0.9013498999999999,-1.2250077,-1
240,241,1583936111651,0.114599995,-0.0941,-0.3187,9.905636,-1.0113012,-1.6379883,-1
241,242,1583936111661,0.5647,-0.1767,-0.723,10.412345,-1.051246,-1.8870618000000001,-1
242,243,1583936111672,0.7887,-0.1103,-0.4599,10.488519,-0.97380805,-1.5433886,-1
243,244,1583936111682,0.6487,0.111499995,0.0284,10.291399,-0.6869921999999999,-1.1135719,-1
244,245,1583936111692,0.057,0.4046,0.11409999400000001,9.429353,-0.40610450000000003,-1.036335,-1
245,246,1583936111702,0.057,0.4046,0.11409999400000001,8.978064999999999,-0.33641407,-0.82631564,-1
246,247,1583936111712,-0.66429996,0.4597,0.25869998,8.864446000000001,-0.37141728,-0.5023896999999999,-1
247,248,1583936111722,-0.57809997,0.3357,0.70589995,9.352117,-0.56562537,-0.47392744,-1
248,249,1583936111733,0.0103,0.1337,0.59889996,9.965864,-0.7833445,-0.61241764,-1
249,250,1583936111743,0.5796,-0.0034999999,0.31379998,10.447252,-0.8410351,-1.0178901,d
250,251,1583936111754,0.8935,0.0442,-0.24839999,10.701095,-0.82921743,-1.6286413999999998,-1
251,252,1583936111764,1.0794,0.0162,-0.87899995,10.837373,-0.8616349,-2.139066,-1
252,253,1583936111774,1.0978999,0.0174,-0.988,10.780142999999999,-0.86816627,-1.9362099999999998,-1
253,254,1583936111784,0.95879996,-0.0026,-0.5744,10.570831,-0.89155287,-1.4386566,-1
254,255,1583936111794,0.6038,-0.0905,-0.0866,10.10083,-0.9566081,-0.76729375,-1
255,256,1583936111805,0.2782,-0.1232,0.5701,9.918632,-0.92136544,-0.24501303,-1
256,257,1583936111815,0.1195,-0.044999998,0.87289995,9.804361,-0.8394166999999999,-0.20932984,-1
257,258,1583936111825,0.059299998,-0.0189,0.7621,9.843253,-0.79992193,-0.41331583,-1
258,259,1583936111835,0.1858,-0.0050999997,0.60069996,10.090755,-0.8238448,-0.5554069,-1
259,260,1583936111846,0.47919998,-0.0733,0.4068,10.341562,-0.9374832000000001,-0.736332,-1
260,261,1583936111856,0.8315,-0.2471,0.1724,10.750444,-1.1160235,-1.0028545,-1
261,262,1583936111866,1.0952,-0.38369998,-0.034199997999999995,10.839058999999999,-1.2708135,-1.1427716,-1
262,263,1583936111877,1.1036,-0.54499996,-0.1718,10.767463000000001,-1.3496594,-1.2915568000000002,-1
263,264,1583936111887,1.0038999,-0.5455,-0.3462,10.773889,-1.2946981000000002,-1.5083183,-1
264,265,1583936111897,1.071,-0.5396,-0.58629996,10.932853999999999,-1.25709,-1.6791208,-1
265,266,1583936111907,1.2459999,-0.4973,-0.6573,11.10945,-1.1987002,-1.5030031000000001,-1
266,267,1583936111918,1.3719,-0.46769997,-0.41349998,11.047622,-1.2156128000000002,-1.0346304,-1
267,268,1583936111928,1.2619,-0.53029996,0.1117,10.756449,-1.3584318000000002,-0.21302649999999998,-1
268,269,1583936111938,0.93539995,-0.7044,0.9554,10.405161999999999,-1.4953418,0.3848727,-1
269,270,1583936111949,0.65749997,-0.8479,1.3511,10.4800625,-1.5569494,-0.46370900000000004,-1
270,271,1583936111959,0.7321,-0.92469996,0.48979998,11.037624000000001,-1.486081,-1.8307886000000002,-1
271,272,1583936111969,1.2867,-0.8645,-0.92329997,11.9253845,-1.3371617,-2.6603124,-1
272,273,1583936111979,2.1649,-0.7147,-1.7911999,12.488922,-1.1484507,-2.4418366000000002,-1
273,274,1583936111989,2.7291,-0.5463,-1.6154,12.282628,-1.0051912,-1.4591893,-1
274,275,1583936111999,2.5089998,-0.43739998,-0.6602,11.485465,-1.0479133,-0.50288767,-1
275,276,1583936112010,1.7106999,-0.5444,0.2895,10.820518,-1.1051252,0.122918315,-1
276,277,1583936112020,0.9888,-0.4732,1.0631,10.806583999999999,-0.78386164,0.30837318,-1
277,278,1583936112030,1.1338999,-0.3065,1.0237,10.931494,-0.62599754,0.23342510000000002,-1
278,279,1583936112040,1.26,-0.4842,0.77919996,11.084282,-0.78376585,-0.09006987,-1
279,280,1583936112050,1.5436,-0.6064,0.1739,11.397339,-0.81252503,-0.77770376,-1
280,281,1583936112060,1.5436,-0.6064,0.1739,11.646106,-0.8538681,-1.4205181999999998,-1
281,282,1583936112071,2.1606,-0.76919997,-1.1127,11.993580999999999,-0.9098540999999999,-1.8903755000000002,-1
282,283,1583936112081,2.3565,-0.7714,-0.6001,12.127042999999999,-0.8723896999999999,-1.2346514,-1
283,284,1583936112091,2.0721,-0.93189996,0.1972,11.751517,-0.9530742,-0.48065993,-1
284,285,1583936112101,1.3959,-0.96559995,0.7308,11.037375,-0.8832784,-0.0021930889,-1
285,286,1583936112111,0.7108,-0.8681,1.0514,10.385645,-0.68960667,0.28902802,-1
286,287,1583936112122,0.1347,-0.8587,0.97459996,9.836319,-0.6592578,0.06488287,-1
287,288,1583936112132,-0.0486,-0.9719,0.54469997,9.799946,-0.6322129,-0.37300706,-1
288,289,1583936112142,0.3073,-0.8039,0.3374,10.169305,-0.38521746,-0.5794255,-1
289,290,1583936112152,0.4473,-0.7891,0.064399995,10.180193,-0.3748841,-0.8138850000000001,-1
290,291,1583936112162,0.21499999,-0.8965,0.1706,9.799027,-0.42327570000000003,-0.5823273,-1
291,292,1583936112172,-0.3398,-0.9339,0.3355,9.200783,-0.285973,-0.5230180999999999,-1
292,293,1583936112182,-0.8149,-0.7141,0.3771,8.799572,0.10121727,-0.38598362,-1
293,294,1583936112193,-1.2192999,-0.4219,0.5739,8.418875,0.40791452,-0.25107515,-1
294,295,1583936112203,-1.2192999,-0.4219,0.5739,7.6849756,0.7584639,-0.21081425,-1
295,296,1583936112213,-2.3764,-0.042999998,0.6896,7.1268970000000005,1.0322361,-0.21119733,-1
296,297,1583936112223,-2.9434,0.1766,0.6825,6.4999413,1.3697898000000002,-0.2567542,-1
297,298,1583936112234,-3.5886,0.47869998,0.5649,5.7609377,1.8677838,-0.57718456,-1
298,299,1583936112244,-4.0966997,0.8074,0.3087,5.336752400000001,2.2462782999999997,-0.601184,-1
299,300,1583936112254,-4.5169997,1.0567,0.41329998,4.891995400000001,2.4589791,-0.5862921,-1
300,301,1583936112264,-4.9186997,1.1494,0.3895,4.6440334000000005,2.5689113,-0.68563235,-1
301,302,1583936112274,-5.017299700000001,1.2336,0.2883,4.7038402999999995,2.7274172,-0.75690293,-1
302,303,1583936112284,-4.8427997000000005,1.4370999,0.059899997,4.824507700000001,3.040598,-1.2191178999999999,-1
303,304,1583936112295,-4.8266,1.6201999,-0.33859998,4.7747273,3.1849298,-1.4491241000000001,-1
304,305,1583936112305,-4.9186997,1.7481999,-0.3928,4.616691599999999,3.3969796000000003,-1.4308228,-1
305,306,1583936112315,-5.1377,1.9941,-0.30519998,4.3335147,3.7328669999999997,-1.261093,-1
306,307,1583936112325,-5.4344997,2.2501,-0.0554,4.008411,3.8435268,-1.0771897,-1
307,308,1583936112335,-5.9761,2.2456,0.0346,3.2718873,3.8406824999999998,-1.2691376,-1
308,309,1583936112346,-6.5186996,2.2604,-0.2729,3.0079122000000003,3.9409419999999997,-1.7695258000000003,-1
309,310,1583936112357,-6.5825,2.3775,-0.8224,3.2112279999999997,4.0497727,-2.3331783,-1
310,311,1583936112367,-6.3355,2.4908,-1.0715,3.3844336999999998,4.0770097000000005,-1.8577857,-1
311,312,1583936112377,-6.268399700000001,2.4905,-0.4689,2.9569349999999996,3.7899926,-1.2525411,-1
312,313,1583936112387,-6.7830997,2.1680999,0.0936,2.3466432,3.0934427,-1.0467354,-1
313,314,1583936112397,-7.3494,1.4652,0.1968,2.354209,2.4509444,-1.5185463,-1
314,315,1583936112407,-7.1734995999999995,0.9941,-0.38369998,2.8595004,2.2613618,-2.0178906999999997,-1
315,316,1583936112418,-6.4412,0.9022,-0.9127,3.7922528,2.0076723000000003,-2.4543056,-1
316,317,1583936112428,-5.7584,0.7302,-1.2464,4.3051,1.8950871999999999,-2.3782084,-1
317,318,1583936112438,-5.3090997,0.8014,-1.0063,4.3411474000000005,2.1867776,-1.8030637999999999,-1
318,319,1583936112448,-5.4256997,1.2171,-0.4342,3.7829442,2.6696022,-1.1777844,-1
319,320,1583936112458,-6.0702,1.81,0.2464,2.74885,3.1108243,-0.29129773,-1
320,321,1583936112468,-6.9413,2.2065,0.9533,2.0082755,2.958266,-0.16977763,-1
321,322,1583936112478,-7.6973,2.1354,1.0558,1.8220450000000001,2.4211605,-0.039427716,-1
322,323,1583936112488,-7.8371,1.4904,1.2113999,2.3810048,1.0119046,0.2384625,-1
323,324,1583936112498,-7.153,0.1303,1.3814,3.8682157999999998,-0.71805936,-0.11555375,-1
324,325,1583936112508,-5.8782,-1.0971999,1.0321,4.838250599999999,-1.5502743,-0.48585054,-1
325,326,1583936112518,-4.9042997,-1.7531999,0.6591,5.357141,-2.0164638,-1.1636491000000002,-1
326,327,1583936112529,-4.3985,-2.0496,-0.044000000000000004,5.4172072,-1.2073002,-0.81382746,-1
327,328,1583936112539,-4.3431997,-1.0831,0.2716,4.6162790000000005,-0.04358405,0.5256518,-1
328,329,1583936112549,-5.1415,0.2471,1.5187,3.5868206,0.10332417,1.8055346,-1
329,330,1583936112559,-6.174299700000001,0.5205,2.7154999,3.4775972,-0.59074533,2.448914,-1
330,331,1583936112570,-6.2804,0.0266,3.2796998,4.448829,-1.8009664,2.0230238000000003,-1
331,332,1583936112580,-5.298899700000001,-0.98829997,2.8119,6.2280370000000005,-3.18923,1.2220485,-1
332,333,1583936112590,-3.5029,-2.1568,2.0051,7.4660687,-3.9508447999999996,0.30776983,-1
333,334,1583936112600,-1.7608999,-2.6348,0.45069999,7.769011999999999,-4.1417294,-0.43328348,-1
334,335,1583936112610,-2.7437,-2.602,0.60649997,6.6332699999999996,-4.377701999999999,-0.21991222,-1
335,336,1583936112621,-3.6957,-2.7948,1.0106,5.8123364,-4.7903767,0.19287689,-1
336,337,1583936112631,-3.7410997999999998,-2.9512,1.2599,5.8875337,-5.2018538,0.5124549,-1
337,338,1583936112641,-2.9726999,-3.3948998,1.4954,6.791306,-5.967193,0.80355155,-1
338,339,1583936112651,-1.2393999,-4.0111,1.6669999,8.569202,-6.8207070000000005,1.1120971000000002,-1
339,340,1583936112661,0.5378,-4.3761,1.7491,10.141196,-7.459173700000001,1.1998302,-1
340,341,1583936112672,1.5728999,-4.7860000000000005,1.5327,10.929751,-8.184809,1.0423876,-1
341,342,1583936112682,1.8237,-5.2693996,0.8856,10.909888,-9.129053,0.39985082,-1
342,343,1583936112692,1.8664,-5.7620997,0.7528,10.891367,-9.772212,0.54373276,-1
343,344,1583936112702,2.0356,-6.245899700000001,0.5126,11.066094999999999,-10.533491,0.20258777,-1
344,345,1583936112712,2.6899998,-6.1622996,0.2582,11.888494999999999,-10.352959,0.30980012,-1
345,346,1583936112722,3.7208,-5.3410997,0.5125,12.49305,-9.765786,0.66034955,-1
346,347,1583936112733,3.702,-4.4986997,0.8455,11.866085,-9.165664999999999,1.2884923000000001,-1
347,348,1583936112743,3.702,-4.4986997,0.8455,10.729769000000001,-8.997324,2.130878,-1
348,349,1583936112754,1.9137,-3.656,2.0642,10.025346,-8.744486,2.6587994,-1
349,350,1583936112764,1.5559,-3.2573,2.1346,9.572306,-8.746325500000001,2.7203016,-1
350,351,1583936112774,1.4345,-3.3572,1.7816999,9.501073,-9.30969,2.0881078,-1
351,352,1583936112784,1.7433,-3.7324,0.8088,10.03138,-9.603584,1.0773237,-1
352,353,1583936112794,2.6062999,-3.6209,-0.37939999,10.934817,-9.476796,0.08093359,-1
353,354,1583936112804,3.7238998,-3.1936998,-1.2570000000000001,11.506821,-9.116392,-0.2928013,-1
354,355,1583936112814,3.9617998999999995,-2.4668999,-1.4238,10.796491,-8.451053,-0.0025665842000000003,-1
355,356,1583936112825,2.9055998,-1.8543999,-0.9489,9.234752,-8.265559,0.7589523,-1
356,357,1583936112835,1.4932,-1.7226,-0.20639999,7.962703,-8.636882,1.6061166999999998,-1
357,358,1583936112845,0.6691,-2.2163,0.703,7.4929605,-9.532475,2.8112907000000003,-1
358,359,1583936112855,0.6581,-3.0347998,1.851,7.686403,-10.5578165,3.6824257000000005,-1
359,360,1583936112866,1.2545998999999999,-3.8374,2.2261,8.548114,-11.245134,3.4052059999999997,-1
360,361,1583936112876,2.2536,-4.0636,1.6216999,9.328691000000001,-11.146991,2.4526682,-1
361,362,1583936112886,3.1625997999999997,-3.7101,0.5284,9.683856,-10.860357,1.5716401000000002,-1
362,363,1583936112896,3.6088998,-3.3393,-0.36139998,9.654599000000001,-10.746058,1.1518121000000001,-1
363,364,1583936112907,3.7157998,-3.0884,-0.6217,9.412517,-10.659838,1.7667773,-1
364,365,1583936112917,3.5339,-2.9751,0.1442,8.731912,-11.215225,2.74025,-1
365,366,1583936112927,2.9494998,-3.5282998,1.0675,8.147909,-11.857724000000001,3.3094474999999997,-1
366,367,1583936112937,2.6253,-3.9722998,1.5338999,8.156749000000001,-11.963203,3.447459,-1
367,368,1583936112947,2.8783,-3.952,1.5203999,8.527811,-11.942211,3.0108619,-1
368,369,1583936112958,3.3739,-3.8393998,1.0423,8.963948,-11.906624,2.3581545,-1
369,370,1583936112968,3.9513,-3.7224998,0.3459,9.578588,-11.7522545,1.7922037,-1
370,371,1583936112978,4.5968,-3.5037,-0.0729,9.718380999999999,-11.487647,1.8344566000000002,-1
371,372,1583936112988,4.8374,-3.1648998,-0.021399999,9.197211,-11.398899,1.9495697,-1
372,373,1583936112998,4.4083,-3.0312,0.1086,8.657031,-11.394686,1.7748791000000002,-1
373,374,1583936113008,3.9410000000000003,-2.9743,-0.0638,8.518244000000001,-11.41543,1.6998448,-1
374,375,1583936113019,3.8916998,-2.9515998,-0.1462,8.545404,-11.404684,1.888211,-1
375,376,1583936113029,3.9943998,-2.9036,0.043199997000000004,8.244223,-11.2502,2.3841843999999996,-1
376,377,1583936113039,3.7438,-2.7136998,0.5306,7.8329377000000004,-11.13208,2.6340241,-1
377,378,1583936113049,2.8264,-2.3704998,0.8192,7.225346000000001,-10.951902,2.6668724999999998,-1
378,379,1583936113059,2.6062999,-1.9793999,0.4594,6.9769335,-10.575917,2.3076369999999997,-1
379,380,1583936113069,2.6062999,-1.9793999,0.4594,7.001842999999999,-10.200305,1.9302917000000002,-1
380,381,1583936113080,2.6657,-1.5904,0.0925,6.9624630000000005,-10.01506,1.7073052,-1
381,382,1583936113090,2.6515,-1.3797,-0.1231,6.7580557,-9.85668,1.6505147,-1
382,383,1583936113100,2.1159,-1.1606,-0.043399997,6.326822,-9.822557000000002,1.8270918999999999,-1
383,384,1583936113110,1.7435,-1.2109999999999999,0.2482,5.949792400000001,-9.883265,2.049245,-1
384,385,1583936113120,1.5453,-1.1946,0.2522,5.806178599999999,-9.863873,1.9659461,-1
385,386,1583936113131,1.6294999,-1.1214,-0.14109999,5.9270762999999995,-9.767892999999999,1.4965868,-1
386,387,1583936113141,1.7882999,-0.98139995,-0.66179997,6.0392209999999995,-9.6330805,0.9842468000000001,-1
387,388,1583936113151,1.7829,-0.81409997,-1.0579,6.022691,-9.464815,0.64726764,-1
388,389,1583936113161,1.5455999,-0.6684,-1.0064,5.7349562999999995,-9.311711,0.7536371999999999,-1
389,390,1583936113171,1.1464,-0.5049,-0.6374,5.2866464,-9.095381,1.2021191,-1
390,391,1583936113181,0.7642,-0.27449998,-0.2993,4.9092817,-8.843875,1.4263121,-1
391,392,1583936113192,0.3839,-0.044499997,-0.2034,4.626374,-8.624153999999999,1.4218206,-1
392,393,1583936113202,0.3839,-0.044499997,-0.2034,4.523259599999999,-8.472218,1.3710539,-1
393,394,1583936113212,0.13589999,0.1723,-0.2583,4.475299400000001,-8.55659,1.3855245,-1
394,395,1583936113222,0.192,-0.0256,-0.28059998,4.5973463,-8.777431,1.2735333,-1
395,396,1583936113232,0.35729998,-0.2039,-0.6004,4.7822455999999995,-8.879997999999999,0.90699065,-1
396,397,1583936113242,0.5597,-0.18689999,-0.8106,4.952262999999999,-8.81321,0.90818775,-1
397,398,1583936113253,0.5595,-0.1811,-0.5008,4.877707,-8.842706,1.257655,-1
398,399,1583936113263,0.1891,-0.30449998,0.0543,4.368403,-8.988542,1.8373869999999999,-1
399,400,1583936113273,-0.2434,-0.3608,0.3663,4.040608,-8.984051,2.0285208,d
400,401,1583936113283,-0.40829998,-0.35819998,0.4748,4.028742299999999,-8.959361,2.0537176,-1
401,402,1583936113294,-0.28239998,-0.3543,0.4351,4.245954,-8.944968,1.9702171999999998,-1
402,403,1583936113304,-0.043399997,-0.3296,0.2694,4.459239,-8.957742999999999,1.7516650000000002,-1
403,404,1583936113314,0.1195,-0.3832,-0.0678,4.6138663,-9.060482,1.4449391000000003,-1
404,405,1583936113324,0.2809,-0.5451,-0.2959,4.8589077000000005,-9.188151,1.308211,-1
405,406,1583936113334,0.4863,-0.5907,-0.2816,5.006889,-9.165099,1.424167,-1
406,407,1583936113346,0.4983,-0.47149998,-0.0721,4.770112,-8.997247,1.7038191999999999,-1
407,408,1583936113356,0.0919,-0.3744,0.1529,4.308979,-8.903193,1.9241625,-1
408,409,1583936113366,-0.2577,-0.3372,0.3493,4.223209,-8.916122,2.1351109,-1
409,410,1583936113376,-0.31849998,-0.3673,0.57989997,4.294834,-8.926082000000001,2.3485107000000003,-1
410,411,1583936113386,-0.2549,-0.3858,0.7327,4.420108,-8.953097,2.3052714,-1
411,412,1583936113396,-0.07809999599999999,-0.4227,0.6806,4.726566,-9.06508,2.3250382000000003,-1
412,413,1583936113407,0.2298,-0.5567,0.6921,5.1751437000000005,-9.198771,2.3219925999999997,-1
413,414,1583936113417,0.68549997,-0.69089997,0.61289996,5.542203400000001,-9.243102,2.06407,-1
414,415,1583936113427,0.98999995,-0.71959996,0.2976,5.66743,-9.222369,1.6099952,-1
415,416,1583936113438,1.101,-0.7028,-0.1522,5.8627769999999995,-9.218299,1.5225781999999999,-1
416,417,1583936113448,1.2635,-0.7374,-0.133,5.949984,-9.334484,1.8247073,-1
417,418,1583936113458,1.2829,-0.91099995,0.17809999,5.892686,-9.627603,2.2701821,-1
418,419,1583936113468,1.1712999,-1.263,0.6376,5.844102400000001,-10.089003,2.4264085,-1
419,420,1583936113479,1.157,-1.7342,0.71999997,6.5197945,-10.350287,2.3900259999999998,-1
420,421,1583936113489,1.7633,-1.9309,0.6579,7.416384700000001,-10.388001,2.0873897,-1
421,422,1583936113499,2.6265,-1.9907,0.32459998,8.197939,-10.508305,1.8756081000000002,-1
422,423,1583936113509,3.3795,-2.1411,0.0955,8.65297,-10.622221000000001,1.7215938999999998,-1
423,424,1583936113519,3.7926,-2.2858,-0.085099995,8.875047,-10.848396000000001,1.6362549,-1
424,425,1583936113529,3.9720998,-2.5333997999999998,-0.18599999,8.975795,-11.107238,1.9409026999999999,-1
425,426,1583936113540,4.0608,-3.2085998,0.36229998,9.146482,-11.50367,2.2456174,-1
426,427,1583936113550,4.0608,-3.2085998,0.36229998,9.514403999999999,-11.713966000000001,2.3376505,-1
427,428,1583936113560,4.4242,-3.5272,0.4802,10.061671,-11.899767,2.2193674999999997,-1
428,429,1583936113570,5.2618,-3.7998,-0.0117999995,10.575285000000001,-11.86937,1.8240560000000001,-1
429,430,1583936113580,5.3197,-3.8263998,-0.07369999599999999,10.668103,-11.8473625,1.8599116999999998,-1
430,431,1583936113591,5.1707997,-3.9301998999999994,0.21939999,10.648538,-11.887001,2.1654022,-1
431,432,1583936113601,5.2297997,-3.9928,0.415,10.831636,-11.844863,2.2721646,-1
432,433,1583936113611,5.2622,-4.053,0.3074,10.995745,-11.784184,2.202139,-1
433,434,1583936113621,5.2622,-4.053,0.3074,11.014649,-11.730458,2.3381293,-1
434,435,1583936113631,4.697,-4.1815,0.5416,10.586691,-11.725852,2.3911371,-1
435,436,1583936113641,4.697,-4.1815,0.5416,10.213875,-11.557817,2.4014132000000004,-1
436,437,1583936113651,3.6007,-3.8441,0.68909997,9.792199,-10.971085,2.5258634,-1
437,438,1583936113661,3.1383,-3.5031998,0.8617,9.495797,-10.561562,2.6728485,-1
438,439,1583936113671,2.6554,-3.2480998,1.0361999,9.211949,-10.166748,2.7653317000000004,-1
439,440,1583936113681,2.2928,-3.0081,1.0332,9.064945,-9.826378,2.7069897999999997,-1
440,441,1583936113691,2.0037,-2.9575,1.0576,8.934337,-9.654743,2.731746,-1
441,442,1583936113701,2.0037,-2.9575,1.0576,8.876896,-9.586364,2.6154356,-1
442,443,1583936113712,1.5543,-2.9287999,0.77459997,8.752349,-9.190995,2.2002618,-1
443,444,1583936113722,1.0957,-2.7691998,0.39859998,8.455641,-8.93404,1.8902988,-1
444,445,1583936113732,0.71389997,-2.5107,0.2074,8.320024,-8.449539999999999,1.743611,-1
445,446,1583936113742,0.5851,-2.1223,0.4398,8.333116,-7.744408999999999,2.1140802000000005,-1
446,447,1583936113752,0.326,-1.7415999,1.0856999,8.088447,-7.216201,2.6859972,-1
447,448,1583936113763,-0.3062,-1.5353999,1.7299,7.514881599999999,-6.861341499999999,3.1844222999999996,-1
448,449,1583936113773,-1.0620999,-1.4028,2.3056,6.972365400000001,-6.496101,3.5485709,-1
449,450,1583936113783,-1.6614,-1.3098999,2.583,6.613599300000001,-6.254641,3.5408902,-1
450,451,1583936113793,-1.8851999,-1.3119999,2.539,6.731087,-5.992476,3.2472174,-1
451,452,1583936113803,-1.8851999,-1.3119999,2.539,7.188313000000001,-5.604328,2.9194894000000002,-1
452,453,1583936113814,-1.2373999,-0.9899,2.2128,7.632782499999999,-5.300255,2.8168166,-1
453,454,1583936113824,-1.1728,-0.9309,2.1181,7.607969000000001,-5.0865293,2.5014813,-1
454,455,1583936113834,-1.5432999,-0.94149995,1.8147999,7.100637400000001,-4.889803,1.9864788,-1
455,456,1583936113844,-2.1734,-0.96349996,1.3105,6.644963300000001,-4.682330599999999,1.3288681999999998,-1
456,457,1583936113854,-2.6209,-0.8483,0.67579997,6.516873400000001,-4.2159405,0.80540943,-1
457,458,1583936113865,-2.6208,-0.5556,0.6888,6.67242,-3.722275,0.9419364,-1
458,459,1583936113875,-2.5066,-0.2041,1.2013999,6.828435400000001,-3.2649152000000004,1.6587794999999999,-1
459,460,1583936113885,-2.5238,-0.15789999,2.0637,6.698785000000001,-3.0609007000000004,2.2852752,-1
460,461,1583936113895,-2.8586,-0.1621,2.6218,6.279857,-2.9394763,2.372721,-1
461,462,1583936113905,-3.3342,-0.253,2.6101,5.939497,-2.7380283,2.0667036,-1
462,463,1583936113916,-3.6564,-0.1625,2.3855999,5.5399337,-2.3604915,1.7452101999999998,-1
463,464,1583936113926,-4.0998,-0.0532,2.2388,5.189278599999999,-2.2143972,1.8175918000000002,-1
464,465,1583936113936,-4.4982,-0.089899994,2.5277,5.076751,-2.0418133999999997,2.1817403,-1
465,466,1583936113946,-4.468899700000001,0.0050999997,2.8987,5.3134804,-1.6390322,2.227709,-1
466,467,1583936113956,-4.1884,0.3223,2.7775998,5.624057,-1.1618198999999998,1.544873,-1
467,468,1583936113967,-3.9914,0.54859996,2.1202,5.685664,-0.83064437,0.7905941,-1
468,469,1583936113977,-3.9766998,0.7231,1.4749999,5.767795,-0.98246545,0.45632526,-1
469,470,1583936113987,-3.8802998,0.3642,1.236,6.122874299999999,-1.4257089,0.4699818,-1
470,471,1583936113997,-3.4385998,-0.13,1.3433,6.639571000000001,-1.5399791999999999,0.6544885,-1
471,472,1583936114007,-2.8781998,-0.1882,1.5823,6.7389307,-1.3609983,0.6591429,-1
472,473,1583936114018,-3.0337,-0.14109999,1.4947,6.2672156999999995,-1.2583828000000001,0.28820443,-1
473,474,1583936114028,-3.5418,-0.110199995,1.1179999999999999,5.895693,-1.1336257,-0.06697061,-1
474,475,1583936114038,-3.8518999,-0.0712,0.8211,5.966245,-0.8580244,-0.54064906,-1
475,476,1583936114048,-3.6984,0.1586,0.3515,6.215798,-0.48963338,-1.2818268999999998,-1
476,477,1583936114058,-3.4935,0.4434,-0.3463,6.1298455999999995,-0.1822945,-1.7622473,-1
477,478,1583936114068,-3.6401,0.65309995,-0.63949996,5.9193377,-0.03552038,-1.4590935,-1
478,479,1583936114079,-3.8342998,0.69879997,-0.1644,5.787293,-0.082360536,-1.0121440000000002,-1
479,480,1583936114089,-3.9485,0.5435,0.3509,5.7866610000000005,-0.24995466,-0.53934664,-1
480,481,1583936114100,-3.9081998,0.2392,0.96339995,5.760497,-0.29672778,-0.46585420000000005,-1
481,482,1583936114110,-3.9081998,0.2392,0.96339995,5.624095,-0.29599994,-0.68761474,-1
482,483,1583936114120,-4.0678,0.18949999,0.7748,5.6286435,-0.16538188,-1.1228328,-1
483,484,1583936114130,-4.0603,0.2767,0.3946,5.883214499999999,0.08620083,-1.5207586000000002,-1
484,485,1583936114140,-3.7979998999999998,0.48279998,0.056599997,6.0871525,0.21482694,-1.8255979,-1
485,486,1583936114150,-3.5284,0.46289998,-0.55469996,6.1557894,0.07253474,-2.3242335,-1
486,487,1583936114161,-3.3929,0.3969,-1.0464,6.293456,0.03788585,-2.8832316000000002,-1
487,488,1583936114171,-3.1578999,0.3805,-1.7379999,6.531852,0.039782055,-3.6294660000000003,-1
488,489,1583936114181,-2.8625,0.44,-1.8635,6.843767999999999,0.12467087,-3.6104083,-1
489,490,1583936114191,-2.5368,0.574,-1.0735999,7.1330833,0.27257508,-2.7979312000000003,-1
490,491,1583936114201,-2.5368,0.574,-1.0735999,7.134032,0.21686679,-2.23538,-1
491,492,1583936114211,-2.4545,0.38979998,-0.100499995,7.16078,0.054942142,-2.1220480999999998,-1
492,493,1583936114221,-2.2776,0.1695,-0.1006,7.3856144,-0.23115538,-2.1747682,-1
493,494,1583936114232,-2.0140998,-0.0341,-0.032199997,7.635741,-0.36869746,-2.1253805,-1
494,495,1583936114242,-1.6638998999999999,0.0414,-0.2565,7.961678,-0.21683806,-2.5288708,-1
495,496,1583936114252,-1.3153,0.3347,-0.78319997,8.3357,0.0678421,-3.0233689999999998,-1
496,497,1583936114262,-0.93799996,0.5087,-0.98929995,8.689994,0.19692788,-3.165489,-1
497,498,1583936114272,-0.7364,0.4626,-0.93619996,8.7819605,0.04866933,-3.0778708,-1
498,499,1583936114283,-0.9544,0.2339,-0.7855,8.436391,-0.2202857,-2.999523,-1
499,500,1583936114293,-1.3083,0.049399998,-0.7461,8.181246,-0.30046275,-3.09192,-1
500,501,1583936114303,-1.2701,0.0824,-0.8655,8.443449000000001,-0.1598848,-3.2274892000000004,-1
501,502,1583936114314,-0.7427,0.3274,-0.96169996,9.060559,0.18863437,-3.3693025000000003,-1
502,503,1583936114324,-0.3739,0.53819996,-1.0163,9.179647000000001,0.21384051,-3.3847022000000004,-1
503,504,1583936114334,-0.3197,0.37919998,-0.9284,9.172312,-0.1395245,-3.224281,-1
504,505,1583936114347,-0.3542,0.1047,-0.72459996,9.107371,-0.45802036,-2.967546,-1
505,506,1583936114359,-0.4084,-0.1469,-0.51199996,9.180355,-0.72068346,-2.848631,-1
506,507,1583936114369,-0.28669998,-0.3953,-0.4006,9.443899,-0.91155875,-2.9249002999999996,d
507,508,1583936114380,0.27449998,-0.4055,-1.0351,9.868354,-0.7770524999999999,-3.6124767999999996,-1
508,509,1583936114390,0.7338,-0.1338,-1.6129,10.313101,-0.50509036,-4.0913267,-1
509,510,1583936114400,0.96739995,0.0611,-1.5236,10.462987,-0.37622485,-3.836622,-1
510,511,1583936114410,0.79969996,0.0098,-1.0854,10.17642,-0.450991,-3.3308709000000003,-1
511,512,1583936114420,0.33969998,-0.059899997,-0.413,9.727891,-0.51405424,-2.6055137999999998,-1
512,513,1583936114430,-0.0095,-0.113299996,0.21159999,9.416692999999999,-0.56141156,-2.1412782999999997,-1
513,514,1583936114441,-0.1609,-0.2315,0.382,9.329303999999999,-0.6589225999999999,-2.1030092000000002,-1
514,515,1583936114451,-0.0179,-0.2942,0.2871,9.516913,-0.6835063,-2.2110453,-1
515,516,1583936114462,0.2021,-0.2624,0.1463,9.769328999999999,-0.6515389,-2.5207496,-1
516,517,1583936114472,0.41959998,-0.19659999,-0.29909998,9.968584,-0.5952081,-2.8788457000000003,-1
517,518,1583936114482,0.6739,-0.0994,-0.4991,10.168548,-0.49533162,-3.0288663,-1
518,519,1583936114492,0.6739,-0.0994,-0.4991,10.05558,-0.49617434,-3.138377,-1
519,520,1583936114502,0.40379998,-0.0964,-0.76669997,9.865826,-0.5275095999999999,-3.1976001,-1
520,521,1583936114512,0.3538,-0.0685,-0.5154,9.837372,-0.5012595999999999,-2.7680705000000003,-1
521,522,1583936114522,0.2669,-0.1038,0.069299996,9.689794000000001,-0.57389015,-2.264436,-1
522,523,1583936114532,0.1334,-0.2288,0.3988,9.591871000000001,-0.69631046,-2.057548,-1
523,524,1583936114542,0.1396,-0.33179998,0.5211,9.644122,-0.75568664,-2.0007768,-1
524,525,1583936114552,0.3329,-0.42049998,0.45899999999999996,9.898923,-0.8618264000000001,-2.229318,-1
525,526,1583936114562,0.5448,-0.4465,0.1081,10.071976,-0.83937836,-2.6675619999999998,-1
526,527,1583936114573,0.69589996,-0.354,-0.3484,10.184138,-0.73165846,-3.089248,-1
527,528,1583936114583,0.6096,-0.2838,-0.7827,9.933867999999999,-0.7130124,-3.551913,-1
528,529,1583936114594,0.30629998,-0.3261,-1.0641999,9.66885,-0.75190383,-3.5749168,-1
529,530,1583936114604,0.1507,-0.3242,-0.9011,9.536699,-0.7413693,-3.2970169,-1
530,531,1583936114614,0.094399996,-0.3753,-0.4588,9.585081,-0.8170453000000001,-2.6510613,-1
531,532,1583936114625,0.1771,-0.4578,0.2254,9.668888,-0.8561281999999999,-2.2595517999999997,-1
532,533,1583936114636,0.2321,-0.48259997,0.21949999,9.686010000000001,-0.7898566999999999,-2.9894862,-1
533,534,1583936114646,0.2304,-0.3994,-0.7892,9.664703,-0.6574861,-4.285602,-1
534,535,1583936114656,0.25,-0.30789998,-1.7335,9.716954,-0.69470155,-4.940348999999999,-1
535,536,1583936114666,0.3099,-0.3969,-2.2329,9.766446,-0.75884706,-4.7888436,-1
536,537,1583936114677,0.37019998,-0.46399999999999997,-1.8582,9.515802,-0.72643906,-4.1527332999999995,-1
537,538,1583936114687,-0.0008,-0.461,-1.248,8.917386,-0.67550004,-4.2376122,-1
538,539,1583936114697,-0.5536,-0.46379998,-1.4557999,8.678751,-0.67594063,-4.9259453,-1
539,540,1583936114707,-0.6727,-0.5157,-2.1821,9.021792999999999,-0.69482607,-5.793805,-1
540,541,1583936114717,-0.24859999,-0.5541,-2.9877,9.455881,-0.85031515,-6.279225,-1
541,542,1583936114728,0.14729999,-0.7564,-3.3676,9.612355,-1.1163684,-6.2426796,-1
542,543,1583936114738,0.25759998,-1.0472,-3.2805998,9.626719999999999,-1.3025893,-6.4332395,-1
543,544,1583936114748,0.2695,-1.2031,-3.4694998,9.667614,-1.1791635,-6.9938082999999995,-1
544,545,1583936114758,0.3105,-1.1058999,-4.0223,9.694008,-1.0210695,-7.3909197,-1
545,546,1583936114768,0.33949998,-0.93359995,-4.4937997,9.641239,-0.9347347,-7.766014599999999,-1
546,547,1583936114778,0.2775,-0.90389997,-4.8075,9.48668,-0.9343899,-7.878236,-1
547,548,1583936114789,0.1153,-0.94079995,-4.9322,9.318272,-1.0352625,-7.496417999999999,-1
548,549,1583936114799,-0.0475,-1.0943999,-4.5697,9.095467,-1.2098763000000001,-6.904312599999999,-1
549,550,1583936114809,-0.28779998,-1.3232,-3.9987,8.855673,-1.406785,-6.3120255,-1
550,551,1583936114819,-0.59639996,-1.6412,-3.3004,8.496495,-1.6536560000000002,-5.9718575,-1
551,552,1583936114829,-0.8872,-1.8558999,-3.1090999,8.303408000000001,-1.5833621999999998,-6.4204063,-1
552,553,1583936114839,-1.0935,-1.8362999,-3.5971,8.365647000000001,-1.3854287,-6.963325,-1
553,554,1583936114849,-1.0490000000000002,-1.6625999,-4.1878,8.419622,-1.2951481000000002,-7.069014500000001,-1
554,555,1583936114859,-1.0069,-1.6053,-4.3568997000000005,8.34251,-1.2860215,-7.008987400000001,-1
555,556,1583936114869,-1.1406,-1.6322,-4.31,7.9677690000000005,-1.2187157,-6.5322059999999995,-1
556,557,1583936114879,-1.4987999,-1.6178,-3.9489,7.5330585999999995,-1.2281201000000002,-5.9055095,-1
557,558,1583936114889,-1.9451,-1.6766,-3.3746,7.0624356,-1.2410872,-5.61289,-1
558,559,1583936114900,-2.4313,-1.7256999,-3.1585,6.828914599999999,-1.1044644,-5.7983637,-1
559,560,1583936114909,-2.6741,-1.6424999,-3.4127,6.906295,-0.78377545,-5.589436,-1
560,561,1583936114919,-2.6148,-1.2908,-3.2066,6.828771000000001,-0.41786480000000004,-4.871942,-1
561,562,1583936114929,-2.7131998999999998,-1.026,-2.6743,6.508963,-0.23145227,-3.9734074999999995,-1
562,563,1583936114939,-3.0561,-0.88869995,-1.8698,6.072184,-0.19558713,-3.1851406000000004,-1
563,564,1583936114949,-3.5056998999999998,-0.88549995,-1.1819998999999999,5.8720956,-0.35302982,-2.2320279999999997,-1
564,565,1583936114959,-3.7282998999999997,-1.0713,-0.3234,5.841277,-0.7658381,-1.4530602,-1
565,566,1583936114969,-3.7833997999999998,-1.5008,0.37199998,6.052178,-1.1138593,-0.6615850000000001,-1
566,567,1583936114980,-3.5837998,-1.8599,1.0659,6.242891,-1.1160332,-0.06591716,-1
567,568,1583936114990,-3.4143,-1.8572999,1.5783,6.1873736,-0.89943457,0.25828648,-1
568,569,1583936115000,-3.4805998999999996,-1.6243,1.7705,6.073544,-0.47001052,0.19998288,-1
569,570,1583936115010,-3.5927,-0.7155,1.7996,6.1163425,0.098171845,0.64797634,-1
570,571,1583936115020,-3.6857998,-0.29659998,2.5688,5.9641,0.4797214,1.5705004999999999,-1
571,572,1583936115030,-4.1591,-0.0923,3.4763,5.4381900000000005,0.59696066,2.5527937,-1
572,573,1583936115041,-4.7676,-0.1095,4.1804,4.8891325,0.53334194,3.325297,-1
573,574,1583936115051,-4.8947997,-0.0872,4.9911,4.9003277,0.5739476,4.2123294,-1
574,575,1583936115061,-4.5414,0.1836,5.8039,5.293657,0.83327794,5.082995400000001,-1
575,576,1583936115071,-4.2572,0.4966,6.5706,5.55925,1.0663007,5.965211,-1
576,577,1583936115081,-4.0613,0.69229996,7.5555,5.7327247,1.1702858,7.019464500000001,-1
577,578,1583936115092,-3.9433,0.9557,8.123899,5.851218,1.3878422,7.5321679999999995,-1
578,579,1583936115102,-4.0888,1.12,7.8121996,5.6729746,1.4051474,7.127002,-1
579,580,1583936115112,-4.1835,1.1348,7.0983,5.6672096,1.2870654,6.4907765,-1
580,581,1583936115122,-4.0506,1.0498999,6.8981,5.8769800000000005,0.9831071,6.6229844,-1
581,582,1583936115133,-3.6706998,0.6678,7.3255,6.427368599999999,0.5250005999999999,7.286657300000001,-1
582,583,1583936115143,-2.9361,0.6037,8.0711,7.1323557,0.56183296,8.061,-1
583,584,1583936115153,-2.3962998,0.8743,8.691299,7.519182000000001,0.68020225,8.65842,-1
584,585,1583936115163,-2.3453999,0.9773,9.1758995,7.345985400000001,0.5718886,9.234455,-1
585,586,1583936115173,-2.6655,0.8936,9.6377,6.9400244,0.28547505,9.635685,-1
586,587,1583936115183,-3.1209,0.5773,9.557,6.5728784,-0.22878033,9.203694,-1
587,588,1583936115194,-3.2602,0.21859999,8.5191,6.550114,-0.6448639,8.164475999999999,-1
588,589,1583936115204,-3.2602,0.21859999,8.5191,7.003642999999999,-1.256161,7.399989,-1
589,590,1583936115214,-2.1883,-0.4486,7.2939997000000005,8.300908,-1.2545233999999998,7.4718347000000005,-1
590,591,1583936115224,-1.046,0.06839999599999999,7.4912996,8.955799,-0.76763856,7.7085924,-1
591,592,1583936115234,-0.69699997,0.8125,7.8371,8.815097,-0.25269362,8.272062,-1
592,593,1583936115244,-1.2593,1.107,8.243,7.8124046,-0.2815581,8.569997,-1
593,594,1583936115254,-2.35,1.0958999,8.3482,6.7675943,-0.6041241,8.482973,-1
594,595,1583936115264,-3.1929998,0.7216,8.1223,6.319735,-1.5394142,8.017827,-1
595,596,1583936115275,-3.2965,-0.33269998,7.4934997999999995,6.7499156000000005,-2.9025097,7.2239575,-1
596,597,1583936115285,-2.4636,-1.5479,6.7125998,7.891049400000001,-4.189671,6.1745124,-1
597,598,1583936115295,-1.224,-2.4893,5.4927998,9.171372999999999,-4.903938,4.849819,-1
598,599,1583936115305,0.1366,-2.8416997999999998,4.2860000000000005,10.3914,-5.162799400000001,3.8099220000000003,-1
599,600,1583936115315,1.2439,-2.6430000000000002,3.6346,11.044768,-4.7336144,3.779956,-1
600,601,1583936115326,1.4089999,-2.0167,4.1017,10.1566725,-4.531084,4.695633,-1
601,602,1583936115336,-0.0056,-2.0399,5.2222,8.050561,-5.261258,5.8392377,-1
602,603,1583936115346,-1.6441,-2.6425998,5.9151998,7.206116000000001,-6.2452654999999995,5.5438027000000005,-1
603,604,1583936115356,-2.129,-3.4965,5.3961997,7.923649,-7.087411400000001,4.424533,-1
604,605,1583936115366,-1.1347,-4.1173997,4.186899700000001,9.244357,-7.736776400000001,2.9785209999999998,-1
605,606,1583936115376,0.23889999,-4.6205997000000005,2.6699998,10.505163,-8.579258,1.5586923000000001,-1
606,607,1583936115387,1.5764999,-5.3115997,1.2961999,11.936733,-9.27261,0.72336495,-1
607,608,1583936115397,3.1295998,-5.6696,0.588,13.277648000000001,-8.948539,0.8867548000000001,-1
608,609,1583936115407,4.3550997,-5.0745997,0.94119996,13.304139000000001,-8.485855,1.9160413,-1
609,610,1583936115417,4.062999700000001,-4.5811996,2.0069999999999997,11.917589,-8.480827,2.8147192000000003,-1
610,611,1583936115427,2.6562,-4.5288997,2.7974,10.808508999999999,-8.761581,3.1140327,-1
611,612,1583936115438,1.7781,-4.786299700000001,2.8666,10.899996,-9.311922000000001,2.4594197,-1
612,613,1583936115448,2.1994998,-5.2528,2.0198998,12.239398,-10.012589,1.487757,-1
613,614,1583936115458,3.7656998999999995,-5.8859,0.8759,14.231623,-10.6589575,-0.8609645,-1
614,615,1583936115468,5.4716997,-6.2447,-1.2349,15.3678055,-10.598576,-2.4636815,-1
615,616,1583936115478,6.6534996,-6.0961,-2.9115,15.468325,-10.414212,-2.7111366,-1
616,617,1583936115489,6.803999999999999,-5.8322997,-3.2063,14.717656,-10.313416499999999,-1.9927131999999999,-1
617,618,1583936115499,5.8224998,-5.6426,-2.2273998,13.049846,-10.0167465,-0.3782743,-1
618,619,1583936115509,4.4281,-5.3451,-0.8856,11.668830999999999,-10.010674,0.15630306,-1
619,620,1583936115521,2.3086998,-5.3006997,-1.0982,10.916095,-9.989059,-0.8083878000000001,-1
620,621,1583936115531,2.8298,-5.2328,-2.8562999,11.608182000000001,-9.988552,-2.6280959,-1
621,622,1583936115541,3.984,-5.3329,-5.0372,12.765844,-10.132817,-4.69501,-1
622,623,1583936115551,4.8524,-5.4038,-6.2728,13.510375,-10.225252000000001,-5.6504216,-1
623,624,1583936115561,4.9557,-5.252000000000001,-6.2084,13.292531,-10.027625,-5.222711599999999,-1
624,625,1583936115571,4.0546,-5.0418,-5.3901997,12.149980000000001,-9.841192999999999,-4.409564,-1
625,626,1583936115581,2.602,-4.7928,-4.729,10.530925,-9.442319,-3.8448677000000004,-1
626,627,1583936115592,1.2505,-4.3803997,-4.5361,9.370532,-8.994203,-3.8877528,-1
627,628,1583936115602,0.3692,-3.9624,-4.8810997,8.8394985,-8.649331,-4.3046503,-1
628,629,1583936115612,0.1379,-3.5907998,-5.8188996,8.732181,-8.226247,-5.292019,-1
629,630,1583936115622,0.3901,-3.1845999,-6.8332,9.015281,-7.8133144,-6.25128,-1
630,631,1583936115632,0.4071,-2.7761,-7.5315,8.870077,-7.328709,-6.895272,-1
631,632,1583936115643,-0.0881,-2.3890000000000002,-7.6928997,8.243236999999999,-6.873255,-6.9623094,-1
632,633,1583936115654,-0.81189996,-1.9060999,-7.773699799999999,7.543966999999999,-6.3675137,-7.1734686000000005,-1
633,634,1583936115664,-1.3311,-1.5997,-8.0089,7.2144,-6.1836677,-7.461137,-1
634,635,1583936115674,-1.4383999,-1.6055,-7.9993,7.269303999999999,-6.254143,-7.2806144,-1
635,636,1583936115684,-1.3988999,-1.7488999,-7.6015997,7.259114299999999,-6.3040676,-6.739170599999999,-1
636,637,1583936115694,-1.5367,-1.7488999,-6.7696,6.9462595,-6.24494,-6.075938,-1
637,638,1583936115704,-1.5367,-1.7488999,-6.7696,6.1185455,-6.0948519999999995,-5.706848,-1
638,639,1583936115714,-3.0993998,-1.4669999999999999,-5.8974,5.3534255,-5.707652599999999,-5.668598,-1
639,640,1583936115725,-3.5089,-1.1769,-5.8585,5.2218113,-5.5492040000000005,-5.8207164,-1
640,641,1583936115734,-3.4398,-1.1666,-6.18,5.468165,-5.7118754,-6.197582700000001,-1
641,642,1583936115744,-2.9694998,-1.3849,-6.7493,6.012262000000001,-5.886432,-6.695452,-1
642,643,1583936115754,-2.3274,-1.5152999,-7.2153997,6.6518874000000014,-6.0572343,-7.1100607,-1
643,644,1583936115764,-1.7143999,-1.6256,-7.428499700000001,7.178947,-6.240908,-7.0097723,-1
644,645,1583936115774,-1.4777,-1.8302,-6.8378997,7.120777,-6.472437,-6.157905599999999,-1
645,646,1583936115785,-1.9042,-2.1138,-5.7943,6.415982,-6.880906599999999,-4.8862879999999995,-1
646,647,1583936115795,-2.5012,-2.4631998999999998,-4.7611,5.974424,-7.1301527,-4.1169543,-1
647,648,1583936115805,-2.8432,-2.5776,-4.2366,5.7268443,-7.0800757,-3.8954525,-1
648,649,1583936115815,-3.0058,-2.4721,-4.1162,5.6814504,-7.011841,-3.8694417000000003,-1
649,650,1583936115825,-2.9383,-2.3888,-4.1351,5.903115000000001,-6.867173700000001,-3.9268641000000004,-1
650,651,1583936115835,-2.6803,-2.23,-4.2859,6.1349599999999995,-6.7104588000000005,-3.8653142,-1
651,652,1583936115846,-2.4387999,-2.0463,-4.124399700000001,6.27187,-6.6733394,-3.5388982,-1
652,653,1583936115856,-2.3623,-2.0556,-3.8569,6.1834664,-6.8801217,-3.1430316,-1
653,654,1583936115866,-2.4515,-2.2393,-3.4908997999999998,6.145734,-7.078754400000001,-2.7676973,-1
654,655,1583936115876,-2.4614,-2.4208998999999998,-3.1467,6.129798,-7.302420599999999,-2.5609338,-1
655,656,1583936115887,-2.4313,-2.6210000000000004,-2.9857,6.2062116,-7.4517326,-2.5604357999999996,-1
656,657,1583936115897,-2.303,-2.6248999,-3.0295,6.383497,-7.359211,-2.3207476000000002,-1
657,658,1583936115908,-2.1354,-2.5405998,-2.6993,6.364324,-7.4145937,-1.6898276,-1
658,659,1583936115918,-2.2221,-2.5928,-2.0542,6.0066023,-7.5731955,-1.0428281,-1
659,660,1583936115928,-2.5526,-2.7215998,-1.4204999,5.875408999999999,-7.708084599999999,-0.32746932,-1
660,661,1583936115939,-2.5953999,-2.7869,-0.7716,6.0609503,-7.897686,0.5075612,-1
661,662,1583936115949,-2.3787,-2.9041997999999998,-0.0681,6.1110562999999996,-8.105186999999999,0.86984223,-1
662,663,1583936115959,-2.2862,-3.0667,0.2665,6.048424,-8.199288000000001,0.76679575,-1
663,664,1583936115969,-2.32,-3.1009,0.1475,6.0999565,-8.259068,0.402427,-1
664,665,1583936115979,-1.8188,-2.9936,-0.39729998,6.5651307,-8.197268,0.36399528,-1
665,666,1583936115990,-1.8188,-2.9936,-0.39729998,6.89306,-8.138485000000001,0.8643356,-1
666,667,1583936116000,-1.3736,-2.8822,0.1889,6.9878990000000005,-8.13226,1.7353461,-1
667,668,1583936116010,-1.4304999,-2.8932,2.4250998,6.706589699999999,-8.297364,3.3808712999999995,-1
668,669,1583936116020,-1.7227999,-3.0618,3.9299,6.415129,-8.488336,4.8942747,-1
669,670,1583936116030,-1.7459999,-3.0807998,5.1819997,6.387701,-8.511186,5.959848,-1
670,671,1583936116041,-1.5962,-2.8418,4.6889997,6.5801473,-8.278699000000001,5.1361084,-1
671,672,1583936116051,-1.5962,-2.8418,4.6889997,7.0905814,-7.9228252999999995,3.5433133000000003,-1
672,673,1583936116061,-0.2228,-1.9002999,1.3469,7.911017,-7.4438314,2.2130947,-1
673,674,1583936116071,0.2951,-1.7133,1.2224,8.28389,-7.3887463,2.4718792,-1
674,675,1583936116081,0.2643,-1.7789999,2.4427,8.094853,-7.4979309999999995,3.9066284,-1
675,676,1583936116091,-0.2579,-1.8619999999999999,3.9499,7.5247364,-7.618139299999999,5.3641133000000005,-1
676,677,1583936116101,-0.2579,-1.8619999999999999,3.9499,7.3017697,-7.587981699999999,6.4145164,-1
677,678,1583936116111,-0.4515,-1.6431999,6.2795997,7.4033985,-7.480961,7.5745645,-1
678,679,1583936116121,-0.3189,-1.7774999,6.8732,7.5412273,-7.5869284,8.044709,-1
679,680,1583936116131,-0.025799999,-1.6183,6.7044,7.8344309999999995,-7.4412746,7.790062,-1
680,681,1583936116142,0.3078,-1.2961,6.2267,8.1171,-7.107034700000001,7.376066000000001,-1
681,682,1583936116152,0.41239998,-0.8132,5.9421,8.108376,-6.6574800000000005,7.168125,-1
682,683,1583936116162,0.1765,-0.5129,5.6356997,7.8144064,-6.343839599999999,6.835848299999999,-1
683,684,1583936116173,0.0699,-0.23619999,5.4975,7.7857428,-6.1264267,6.873897,-1
684,685,1583936116182,0.074499995,0.0394,6.0983996,7.7422642999999995,-5.892628,7.5661179999999995,-1
685,686,1583936116192,-0.19,0.0393,6.8584,7.425625999999999,-5.946891,8.298342,-1
686,687,1583936116202,-0.19,0.0393,6.8584,7.363817,-5.8061023,8.164698,-1
687,688,1583936116212,-0.2778,0.2817,6.4582996,7.490978699999999,-5.6464276,7.1769547000000005,-1
688,689,1583936116222,-0.0739,0.4006,5.2372,7.7510843,-5.544119,5.9415083,-1
689,690,1583936116233,0.30089998,0.52169997,4.1377,8.085774,-5.455265,4.9665894999999995,-1
690,691,1583936116243,0.4711,0.5747,3.2098,8.146204,-5.4774737,4.110298,-1
691,692,1583936116253,0.47219998,0.5273,2.6085,8.072989,-5.5205693,3.7545009,-1
692,693,1583936116263,0.3421,0.51559997,2.5342,7.9407625,-5.555218,3.8355877,-1
693,694,1583936116273,0.21899999999999997,0.4224,2.7271,7.812912,-5.659184,3.9475693999999995,-1
694,695,1583936116284,0.0942,0.3753,2.5723999,7.730934599999999,-5.6133017999999995,3.6409199999999995,-1
695,696,1583936116294,0.0959,0.5024,2.1383997999999997,7.738682700000001,-5.480452,3.2868942999999997,-1
696,697,1583936116304,0.0475,0.6482,1.9809999999999999,7.5710497000000005,-5.325088,3.2195597,-1
697,698,1583936116314,-0.13949999,0.7155,1.9693999,7.393515,-5.3467215999999995,3.2572827,-1
698,699,1583936116324,-0.2584,0.6662,2.0052,7.404088000000001,-5.442595,3.1731887000000003,-1
699,700,1583936116334,-0.21859999,0.5513,1.8388,7.479141,-5.5685205,2.936316,-1
700,701,1583936116345,0.0199,0.31219998,1.4266,7.9562100000000004,-5.870161,2.2634208,-1
701,702,1583936116355,0.5645,0.1436,0.7463,8.536776,-5.939123599999999,1.6727712,-1
702,703,1583936116365,1.0799,0.1118,0.4159,8.855222999999999,-6.0266657,1.7626686999999999,-1
703,704,1583936116375,1.2003,-0.021599998999999998,0.68259996,8.662509,-6.129243,2.1979822999999996,-1
704,705,1583936116385,0.8559,-0.062299997,1.2415,8.182462,-6.0989322999999995,2.8406916,-1
705,706,1583936116395,0.3132,-0.0381,1.7954999,7.6123259999999995,-6.0915675,3.2067842,-1
706,707,1583936116406,-0.18859999,-0.042799998,1.979,7.2712193,-6.0973997,3.0047805,-1
707,708,1583936116416,-0.3624,-0.0526,1.6384,7.3669395,-6.165213,2.4562017999999997,-1
708,709,1583936116426,-0.0795,-0.1144,0.8267,8.037919,-6.255751999999999,1.3985201999999999,-1
709,710,1583936116436,0.5693,-0.2385,-0.061699998,8.634333999999999,-6.596122,0.7110683000000001,-1
710,711,1583936116446,1.147,-0.5670000000000001,-0.5736,9.145305,-6.751572,1.1017925,d
711,712,1583936116456,1.5989,-0.6254,0.1294,9.073861,-6.545153599999999,2.7056009999999997,-1
712,713,1583936116466,1.3342,-0.4288,1.9404999,8.122866,-6.582896000000001,4.4107037,-1
713,714,1583936116477,0.2582,-0.527,3.5314998999999996,7.1903243,-6.6605062,4.825207,-1
714,715,1583936116487,-0.5416,-0.5507,3.6506998999999998,7.095801,-6.415522,3.7547212,-1
715,716,1583936116497,-0.48,-0.24679999,2.36,7.696046400000001,-6.0149055,2.0589273,-1
716,717,1583936116507,0.19829999,0.093499996,0.68369997,8.490069,-5.986414,0.95812124,-1
717,718,1583936116517,1.0079,0.0654,-0.2881,9.175251,-6.09943,0.5404671,-1
718,719,1583936116527,1.6183,-0.0519,-0.5872,9.434113,-6.255857499999999,0.9823504999999999,-1
719,720,1583936116538,1.7702,-0.2434,0.0069999998,9.024761999999999,-6.58529,1.7768999,-1
720,721,1583936116548,1.3642,-0.5313,0.6665,8.627066000000001,-6.760536,2.1292497999999997,-1
721,722,1583936116558,0.94229996,-0.7284,1.0451,8.571816,-6.754943400000001,2.3285432,-1
722,723,1583936116568,0.8817,-0.7132,1.3191,8.680524,-6.6150837,2.390572,-1
723,724,1583936116579,0.95879996,-0.631,1.3363999,8.848682,-6.5325985,2.198193,-1
724,725,1583936116588,1.1049,-0.5894,1.1378,8.998673,-6.4392533,2.0337691,-1
725,726,1583936116598,1.2701,-0.5004,0.9845,9.1196,-6.4332769999999995,2.2116103,-1
726,727,1583936116608,1.3561,-0.5401,1.2047,9.286591,-6.4073910000000005,2.458663,-1
727,728,1583936116618,1.5491999,-0.5413,1.4367,9.58421,-6.477158,2.7602367,-1
728,729,1583936116628,1.8003999,-0.69089997,1.7572,9.995131,-6.6936803,2.978837,-1
729,730,1583936116638,2.1388,-0.8912,1.9002999,10.5768175,-6.7779945999999995,2.9466782000000005,-1
730,731,1583936116649,2.7015,-1.016,1.8527,11.141628,-6.7973490000000005,3.1780252,-1
731,732,1583936116659,3.2319999,-1.0773,2.075,11.381844000000001,-6.7807045,3.6679459000000003,-1
732,733,1583936116669,3.4436998,-1.1172999,2.5592,11.42897,-6.7499156000000005,4.064071,-1
733,734,1583936116679,3.4534,-1.1372,2.9329998,11.358888,-6.635644999999999,4.4230385000000005,-1
734,735,1583936116689,3.3406,-1.087,3.2658,11.301666,-6.5488787,4.755622,-1
735,736,1583936116700,3.2338998,-1.0727999,3.5800998,11.278203,-6.530051,4.877889,-1
736,737,1583936116710,3.1443,-1.1573,3.6880998999999997,11.409357,-6.4657717,4.78282,-1
737,738,1583936116720,3.2401998,-1.1643,3.5781,11.672241,-6.496743,4.654529,-1
738,739,1583936116730,3.4422,-1.2796999,3.4362998,11.901088,-6.4547195,4.5930653,-1
739,740,1583936116740,3.6919999999999997,-1.2925,3.2027,12.037424,-6.3030524,4.4247627,-1
740,741,1583936116751,3.531,-1.2139,3.0876,11.875776,-6.110787999999999,4.358912,-1
741,742,1583936116761,3.1392,-1.1740000000000002,3.1906,11.541211,-5.9522443,4.464937,-1
742,743,1583936116771,2.7145,-1.2099,3.2175,11.19929,-5.894793,4.421324299999999,-1
743,744,1583936116781,2.5044,-1.2300999,3.1369998,11.107439,-5.7613783,4.343446,-1
744,745,1583936116792,2.4613,-1.2334,3.221,11.176019,-5.5949526,4.445860400000001,-1
745,746,1583936116802,2.4092,-1.2585,3.3794,11.161137,-5.5380187,4.5373282,-1
746,747,1583936116812,2.3097,-1.3736,3.4914,11.071641,-5.5108013,4.4989443,-1
747,748,1583936116822,2.0846999,-1.4123,3.1522,10.875910000000001,-5.3672447,3.9387300000000005,-1
748,749,1583936116833,1.7537999,-1.4533,2.4778,10.621608,-5.3444614,3.1919591,-1
749,750,1583936116843,1.5037999,-1.5835999,1.8711,10.536298,-5.310387,2.604288,-1
750,751,1583936116853,1.4618,-1.7149999,1.4247,10.536499000000001,-5.349748,2.2657192000000004,-1
751,752,1583936116863,1.4214,-1.9167,1.2975,10.611647999999999,-5.393255,2.098604,-1
752,753,1583936116873,1.4898,-2.0149,1.1651,10.72157,-5.208231400000001,1.9304352999999999,-1
753,754,1583936116883,1.3628,-1.8054,1.2222998999999999,10.554063000000001,-4.7791615,2.0478277,-1
754,755,1583936116893,0.97249997,-1.5133,1.3568,10.073594,-4.38091,2.0224778999999997,-1
755,756,1583936116903,0.3403,-1.3795998999999999,1.2603999,9.462938000000001,-4.1879563,1.7964845,-1
756,757,1583936116913,-0.2579,-1.4877,0.8858,9.096147,-4.1724133000000005,1.373793,-1
757,758,1583936116923,-0.4192,-1.8029,0.3926,9.211299,-4.5298680000000004,0.8936023000000001,-1
758,759,1583936116933,0.0911,-2.3734999,0.5028,9.981552,-4.810909,1.163831,-1
759,760,1583936116944,0.5843,-2.4226,0.7877,10.177924,-4.472005,1.2551937,-1
760,761,1583936116954,0.4897,-1.9992,0.7926,9.961363,-3.8155146,1.053305,-1
761,762,1583936116964,0.0918,-1.4284999,0.5072,9.343113,-3.0533445,0.5137957000000001,-1
762,763,1583936116974,-0.5291,-1.0669,0.0041,8.825545,-2.6766026000000003,-0.16624379,-1
763,764,1583936116984,-1.0481,-0.937,-0.61039996,8.318491,-2.4769166,-0.8030056999999999,-1
764,765,1583936116995,-1.6122999,-0.9675,-1.1158999,7.816791,-2.4487799999999997,-1.2439027,-1
765,766,1583936117005,-2.2707,-1.0877,-1.6751,7.279694999999999,-2.3818572000000002,-1.944925,-1
766,767,1583936117015,-2.435,-1.0117999,-1.8601999,7.447030000000001,-1.9578153000000003,-1.5605120000000001,-1
767,768,1583936117025,-2.2230000000000003,-0.67939997,-1.1985999,7.6568007,-1.6412444,-0.7952005999999999,-1
768,769,1583936117035,-2.0081,-0.6415,-0.2305,7.895158,-1.7301077,0.2145013,-1
769,770,1583936117045,-1.8201,-0.97959995,0.79109997,7.951115,-2.0823617,0.66675645,-1
770,771,1583936117056,-1.8851999,-1.3349999,0.9271,7.787438000000001,-2.0635814999999997,0.3966618,-1
771,772,1583936117066,-2.1450999,-1.3284999,0.62689996,7.2944336,-2.0113689999999997,-0.019144038000000002,-1
772,773,1583936117076,-2.7079,-1.4197999,0.3642,6.6054015,-1.8914384999999998,-0.4449863,-1
773,774,1583936117086,-3.25,-1.3605,0.0026,6.453235,-1.548857,-0.8579094999999999,-1
774,775,1583936117096,-3.3005998,-1.0759,-0.36429998,6.648803,-1.3051271,-1.2954643,-1
775,776,1583936117106,-3.1243,-0.94549996,-0.76309997,6.7605553,-1.1808968999999998,-1.4610951,-1
776,777,1583936117117,-2.9764,-0.87299997,-0.7497,7.1282179999999995,-0.91696966,-1.0449636999999998,-1
777,778,1583936117127,-2.6115,-0.6245,-0.2794,7.1484447,-0.74045956,-0.9411128000000001,-1
778,779,1583936117137,-2.6574,-0.59389997,-0.1656,6.952704,-0.8700146000000001,-0.8881627000000001,-1
779,780,1583936117147,-2.859,-0.7942,-0.0945,6.896488000000001,-1.0764618000000001,-1.2053752,-1
780,781,1583936117157,-2.8534,-1.0489,-0.4369,7.156403,-1.1413541999999999,-1.8821491000000001,-1
781,782,1583936117167,-2.5625,-1.0661,-1.0620999,7.213203,-0.9418598,-2.457897,-1
782,783,1583936117178,-2.6145,-0.93789995,-1.5131999,6.796535,-0.9884414,-2.788929,-1
783,784,1583936117188,-3.235,-1.0996,-1.7717999,5.8533349999999995,-1.1200746000000001,-2.695766,-1
784,785,1583936117198,-3.8941998,-1.2063999,-1.5417999,5.761062,-0.93782794,-1.9294584,-1
785,786,1583936117208,-3.9808,-1.0845,-0.6896,6.170959,-0.48420334,-1.0792678999999998,-1
786,787,1583936117218,-3.5635,-0.6569,0.2023,6.3865422999999995,-0.014097058999999999,-0.7006679,-1
787,788,1583936117228,-3.3385,-0.2165,0.639,6.113067,0.18957289,-0.9029684000000001,-1
788,789,1583936117239,-3.5944,-0.0611,0.5027,5.7333183,-0.06649177,-1.5229516,-1
789,790,1583936117249,-4.0367,-0.4138,-0.2529,5.803248,-0.7689984000000001,-2.7810664000000003,-1
790,791,1583936117259,-3.8997998,-1.0088,-1.2595999,6.591544,-1.0776206,-3.602584,-1
791,792,1583936117269,-3.0955,-1.3005999,-2.0194,7.3750224,-1.1023,-3.8795934,-1
792,793,1583936117279,-2.3009999,-1.3191998999999999,-2.2324998,7.4605527,-0.8661934000000001,-4.0684379999999996,-1
793,794,1583936117290,-2.2029,-1.0734,-2.3618,7.0750766,-0.51449484,-4.196212,-1
794,795,1583936117300,-2.9325,-0.2574,-1.9448999,6.643077000000001,0.031565156000000004,-3.608828,-1
795,796,1583936117310,-3.0921,-0.26459998,-1.203,6.6147865999999995,-0.045346178,-2.889198,-1
796,797,1583936117320,-2.6819,-0.46289998,-0.5937,7.0510774000000005,-0.2061695,-2.4245985,-1
797,798,1583936117331,-2.2117999,-0.5365,-0.5474,7.4845424,-0.29927522,-2.4912627,-1
798,799,1583936117342,-2.1334999,-0.6861,-0.6368,7.470838499999999,-0.43295786,-2.5996912,-1
799,800,1583936117352,-2.2319,-0.738,-0.68939996,7.357678999999999,-0.44727520000000004,-2.8558135,-1
800,801,1583936117362,-2.1162,-0.6899,-0.9856,7.652414299999999,-0.38331172,-3.1049826,-1
801,802,1583936117373,-1.6392,-0.5791,-1.0538,8.161154,-0.24251348,-3.1337802000000003,-1
802,803,1583936117383,-1.2021998999999999,-0.3293,-1.0379,8.490845,0.07243896,-3.1396029999999997,-1
803,804,1583936117393,-1.0209,-0.0694,-1.1036999,8.544982000000001,0.24749342,-3.254381,-1
804,805,1583936117403,-1.3109,0.013499998999999999,-1.1820998999999999,8.09515,0.2558731,-3.3243012000000003,-1
805,806,1583936117413,-1.7077,-0.168,-1.0892998999999999,7.7830330000000005,-0.056340355,-3.1983947999999995,-1
806,807,1583936117423,-1.7301999,-0.5432,-0.89129996,8.046327999999999,-0.38481525,-3.0169623,d
807,808,1583936117434,-1.0551,-0.63989997,-0.69729996,8.8634205,-0.35496435,-2.897214,-1
808,809,1583936117444,-1.0551,-0.63989997,-0.69729996,9.5966215,-0.13244723,-2.8026621,-1
809,810,1583936117454,0.14199999,-0.23339999,-0.6878,9.636163999999999,0.037282508,-3.2034707,-1
810,811,1583936117464,-0.0482,-0.103599995,-1.0654,9.363407,0.23418166,-3.5320125,-1
811,812,1583936117474,-0.2184,0.0916,-1.2559999,9.249787,0.38478652,-3.7343802000000004,-1
812,813,1583936117484,-0.3511,0.1495,-1.4432,9.105102,0.31277849999999996,-3.6624388999999997,-1
813,814,1583936117494,-0.4642,0.0409,-1.0231999,8.996538000000001,0.21490355,-3.2426877,-1
814,815,1583936117505,-0.5178,-0.13329999,-0.6493,9.10355,0.053141702,-3.1559982000000004,-1
815,816,1583936117515,-0.23709999,-0.13599999,-0.85029995,9.601056,0.19212031,-3.5475845,-1
816,817,1583936117525,0.2792,0.0707,-1.2166,9.89739,0.32036334,-3.9385,-1
817,818,1583936117535,0.42319998,0.0791,-1.6121999,9.915146,0.16420393,-4.220996400000001,-1
818,819,1583936117549,0.42029998,-0.0567,-1.6643,9.885515,0.13781026,-3.8446474000000004,-1
819,820,1583936117560,0.4071,-0.0722,-1.288,9.771714,0.01967076,-2.8413522,-1
820,821,1583936117571,0.035299998,-0.26549998,0.5535,9.424957000000001,-0.035625722,-1.9928378,-1
821,822,1583936117581,-0.42279997,-0.2359,0.4059,8.979673,0.01625184,-2.322318,-1
822,823,1583936117591,-0.42279997,-0.2359,0.4059,8.850319,0.07985142,-2.8774377999999996,-1
823,824,1583936117601,-0.3268,-0.056199998,-0.82629997,9.260676,0.20121829,-3.4891756000000003,-1
824,825,1583936117611,0.2483,0.060999997,-1.0922999,9.805444,0.2901581,-3.6710296000000002,-1
825,826,1583936117622,0.5979,0.0696,-0.9465,10.086658,0.22709481,-3.4265239999999997,-1
826,827,1583936117632,0.4978,-0.1157,-0.6099,9.853806500000001,-0.018272547,-3.0410862,-1
827,828,1583936117642,0.2228,-0.3784,-0.22899999,9.662711,-0.27811047,-2.7004104,-1
828,829,1583936117652,0.1936,-0.5299,0.20279999,9.700692,-0.32162747,-2.2411835,-1
829,830,1583936117662,0.24249999,-0.39999998,0.38819999,9.669673,-0.2117049,-2.1732361,-1
830,831,1583936117673,0.064899996,-0.33069998,0.4032,9.478798,-0.15077725,-2.1557487999999996,-1
831,832,1583936117683,-0.16229999,-0.2223,0.396,9.255859,-0.0034763808,-2.2202964,-1
832,833,1583936117693,-0.1841,-0.1592,0.21069999,9.420925,0.11593682,-2.3781988999999997,-1
833,834,1583936117703,0.1082,-0.022599999,0.0177,9.768044999999999,0.25830564,-2.596167,-1
834,835,1583936117713,0.3827,0.048,-0.119799994,9.926283,0.25737667,-2.6787765,-1
835,836,1583936117724,0.3827,0.048,-0.119799994,9.928888,0.015447388999999999,-2.695373,-1
836,837,1583936117734,0.5139,-0.33899999999999997,-0.14479999,10.086024,-0.21046948,-2.7011957000000004,-1
837,838,1583936117744,0.7618,-0.3992,-0.21319999,10.331258,-0.14167927,-2.7742574,-1
838,839,1583936117754,0.8828,-0.3166,-0.19129999,10.302978,-0.09323022,-2.757948,-1
839,840,1583936117764,0.77779996,-0.239,-0.18159999,10.182272,0.12575305,-2.8361425,-1
840,841,1583936117774,0.62259996,0.0026999997999999996,-0.3333,9.911832,0.35470578,-3.1661785,-1
841,842,1583936117785,0.3092,0.13769999,-0.7448,9.557165,0.38093665,-3.611481,-1
842,843,1583936117795,0.0058,0.118499994,-1.2046,9.510449000000001,0.34973540000000003,-4.130324,-1
843,844,1583936117806,0.1252,0.015899998999999998,-1.7184999,9.779385000000001,0.11257536,-4.5508413,-1
844,845,1583936117816,0.4816,-0.2795,-2.0987,10.3018,-0.28004497,-5.0500419999999995,-1
845,846,1583936117826,0.91749996,-0.59529996,-2.5240998,10.568227,-0.556604,-5.3986087,-1
846,847,1583936117836,1.1377,-0.87799996,-2.7639,10.503372,-0.85929817,-5.2655389999999995,-1
847,848,1583936117846,0.9849,-1.2004,-2.5647,10.159267999999999,-1.0048082,-4.9723067,-1
848,849,1583936117856,0.62549996,-1.3066,-2.291,9.82522,-0.98204404,-5.0546765,-1
849,850,1583936117866,0.23529999,-1.2887,-2.572,9.461644999999999,-0.8213357,-5.6494827,-1
850,851,1583936117877,-0.0187,-1.1518999,-3.0825999,9.345316,-0.54702723,-6.224714,-1
851,852,1583936117887,-0.1166,-0.90489995,-3.7039999999999997,9.182214,-0.4369897,-6.991873700000001,-1
852,853,1583936117897,-0.2839,-0.8427,-4.4554,9.169582,-0.36233848,-7.3656754,-1
853,854,1583936117907,-0.2651,-0.8016,-4.718,9.211615,-0.35667858,-7.183064999999999,-1
854,855,1583936117917,-0.2269,-0.8642,-4.4434,9.144203,-0.5836106,-6.607010400000001,-1
855,856,1583936117927,-0.3455,-1.17,-3.8565,8.949066,-0.86792684,-6.1036152999999995,-1
856,857,1583936117938,-0.5232,-1.4620999,-3.4687997999999998,8.7709,-0.9216622999999999,-6.089154,-1
857,858,1583936117947,-0.7229,-1.5303999,-3.5224,8.407612,-0.85031515,-6.2456484,-1
858,859,1583936117957,-1.1611,-1.5095999,-3.7359,7.9350834,-0.8697655999999999,-6.460552,-1
859,860,1583936117967,-1.6027,-1.5653,-3.9633,7.723752,-0.772245,-6.334282,-1
860,861,1583936117977,-1.7827,-1.4908999,-3.8116,7.3848386,-0.5043721,-5.9699707,-1
861,862,1583936117987,-2.1897,-1.2592,-3.5411,7.053012,-0.31594843,-5.3981395,-1
862,863,1583936117998,-2.4984999,-1.1071,-2.9498,6.84485,-0.04609317,-4.6210580000000006,-1
863,864,1583936118008,-2.6791,-0.9245,-2.408,6.671213000000001,0.045978248,-4.432030999999999,-1
864,865,1583936118018,-2.9178998,-0.91459996,-2.2963,6.49115,0.064777516,-4.3915596,-1
865,866,1583936118028,-3.0582,-0.9191,-2.3308,6.502585,0.03655467,-4.189106,-1
866,867,1583936118038,-3.0321999,-0.9773,-2.1134999,6.61493,0.07153875,-3.6774745,-1
867,868,1583936118048,-2.9685,-0.9438,-1.6214,6.3757972999999994,0.2543217,-2.6186533,-1
868,869,1583936118059,-3.2201998,-0.80079997,-0.8174,6.020297,0.538274,-1.9860381999999999,-1
869,870,1583936118069,-3.5907,-0.537,-0.2987,5.8484983,0.75448,-1.345685,-1
870,871,1583936118079,-3.7853,-0.33399999999999996,0.233,5.8086495000000005,0.8737304,-0.7538288000000001,-1
871,872,1583936118089,-3.8418998999999996,-0.2197,0.7083,5.9294133,0.7606762,-0.09704178599999999,-1
872,873,1583936118099,-3.7303998,-0.3205,1.2606,5.954092500000001,0.50212157,0.29479328,-1
873,874,1583936118109,-3.7256,-0.5696,1.5367,6.184520200000001,0.4303338,0.37791038,-1
874,875,1583936118120,-3.5138,-0.6261,1.5330000000000001,6.6941977,0.7250121,0.88291454,-1
875,876,1583936118130,-3.0075998,-0.2967,1.9393,6.667631,0.78392863,2.3289647,-1
876,877,1583936118140,-3.2189999,-0.013599999,5.256,6.455553,1.0095679,4.778242,-1
877,878,1583936118150,-3.4566998,0.2994,6.7906,6.209592,1.2902066,6.306250599999999,-1
878,879,1583936118160,-3.4566998,0.2994,6.7906,5.7882223,1.4365785,7.0411649999999995,-1
879,880,1583936118171,-3.9687,0.5337,7.6647997000000005,5.412285,1.4963281000000002,7.681672,-1
880,881,1583936118181,-4.1191,0.889,8.7192,5.7757916,1.7088279999999998,8.442328999999999,-1
881,882,1583936118192,-3.3258,1.1625,9.0157995,6.898384599999999,1.9537835,8.917425,-1
882,883,1583936118202,-3.3258,1.1625,9.0157995,7.7309923,2.2926778999999997,9.324017999999999,-1
883,884,1583936118212,-1.8901,1.9023,9.5029,7.934413,2.4250102000000004,9.69917,-1
884,885,1583936118222,-1.9923999,1.9024999,10.0435,7.7224975,2.2157476000000003,10.420877,-1
885,886,1583936118233,-2.4461,1.584,11.069099000000001,7.165653999999999,1.6713346999999998,11.688637,-1
886,887,1583936118243,-2.8109,1.0308,12.001599,7.002417599999999,0.9967828000000001,12.339858999999999,-1
887,888,1583936118253,-2.5574,0.6221,12.162399,7.5802627000000005,0.6107416999999999,12.177425999999999,-1
888,889,1583936118263,-1.6362,0.5660000000000001,11.4788,8.62857,0.5679429,11.225819,-1
889,890,1583936118273,-0.6058,0.65239996,10.4734,9.646219,0.49002606,10.276966999999999,-1
890,891,1583936118284,0.0335,0.6789,9.986,9.973555000000001,0.41039490000000006,10.144396,-1
891,892,1583936118294,0.1343,0.6791,10.165199000000001,9.789488,0.26632142,10.407049,-1
892,893,1583936118304,-0.45049998,0.4955,10.3146,8.980038,-0.16406986,10.257506,-1
893,894,1583936118314,-1.2595999,-0.0044,10.0012,8.391417500000001,-1.0422726,9.653355,-1
894,895,1583936118324,-1.3406999,-0.7043,9.4890995,8.617374,-1.7379318,8.973094999999999,-1
895,896,1583936118335,-0.7025,-1.5696,8.4452,9.804888,-2.893144,7.3992424,-1
896,897,1583936118345,0.5668,-2.2884,7.1966,11.077885,-3.5256824,5.995474,-1
897,898,1583936118355,1.6822,-2.6922998,5.8778996,11.706909,-3.9530375,4.584178400000001,-1
898,899,1583936118365,1.9368999,-2.9469,4.7084,11.472995,-4.229271,3.7943117999999996,-1
899,900,1583936118375,1.5755,-3.0853,4.4263,11.017139,-4.5432467,3.7734628,-1
900,901,1583936118386,1.1276,-3.3693,4.5976,10.554656,-5.013114,3.5859203,-1
901,902,1583936118396,0.7697,-3.8241,4.2267,10.289015,-5.6568666,2.5751362,-1
902,903,1583936118406,0.6788,-4.4532,2.9782,10.721733,-6.55881,0.3600975,-1
903,904,1583936118416,1.287,-5.0164,1.1438999,11.746576,-6.9300265,-1.541138,-1
904,905,1583936118426,2.3983998,-5.2195,-0.58629996,12.509196000000001,-7.0213223,-2.6856337000000003,-1
905,906,1583936118437,3.1780999,-5.1303,-1.6926999,12.717971,-6.862739599999999,-3.4545742999999995,-1
906,907,1583936118448,3.1525998,-4.8666,-1.9916999,12.255526,-6.692817999999999,-3.5105317000000005,-1
907,908,1583936118457,2.6434,-4.6373997000000005,-1.979,11.610336,-6.69867,-3.9541199999999996,-1
908,909,1583936118467,2.0614,-4.6152,-2.5247,11.309185000000001,-6.9349394,-5.6049695,-1
909,910,1583936118477,1.8994,-4.8097,-4.4080997,11.75349,-7.247603,-8.227933,-1
910,911,1583936118487,2.5432,-5.0678997,-7.058799700000001,12.790515,-7.579305000000001,-10.742275,-1
911,912,1583936118497,3.6222,-5.3044,-9.392999999999999,13.609332,-7.754378999999999,-12.281163000000001,-1
912,913,1583936118507,4.3389,-5.3655,-10.6081,13.597016,-7.7237716,-12.893953999999999,-1
913,914,1583936118518,4.2764,-5.2832,-10.9767,13.187695000000001,-7.582552000000001,-12.481337,-1
914,915,1583936118528,3.7542998999999995,-5.0443997000000005,-10.3125,12.314509,-7.0605965,-11.675075999999999,-1
915,916,1583936118538,2.7723,-4.499399700000001,-9.530499,10.925193,-6.449721,-11.589746,-1
916,917,1583936118548,1.3812,-3.9318,-9.605599,9.989203,-6.031607,-12.4701805,-1
917,918,1583936118559,0.6157,-3.5819,-10.5611,9.692179,-5.905298,-13.917476,-1
918,919,1583936118569,0.41,-3.5469999999999997,-11.769099,9.839862,-5.8215494,-14.887366,-1
919,920,1583936118579,0.5478,-3.4743,-12.7209,9.816103,-5.778664599999999,-15.418821,-1
920,921,1583936118589,0.52639997,-3.4483,-13.2536,9.426565,-5.760382,-15.512425,-1
921,922,1583936118599,0.1277,-3.4485997999999998,-13.3483,8.802176,-5.492605,-15.149493,-1
922,923,1583936118609,-0.50119996,-3.2157998,-12.990299,8.137135,-5.0123377,-14.377631,-1
923,924,1583936118619,-1.1834999,-2.7805,-12.2452,7.390613,-4.6444735999999995,-13.322938,-1
924,925,1583936118629,-1.9562998999999999,-2.4635,-11.215899,6.623549499999999,-4.229989,-12.196562,-1
925,926,1583936118639,-2.7391999,-2.1131,-10.105599,5.952043,-3.9699885999999998,-11.1740265,-1
926,927,1583936118649,-3.4231,-1.9185,-9.0928,5.405418,-3.9081705,-10.711869,-1
927,928,1583936118659,-3.9882998,-1.9114,-8.653999,5.2455144,-3.7872632000000004,-10.691643,-1
928,929,1583936118669,-4.1610000000000005,-1.8233999,-8.6692,5.3720235999999995,-3.4815139999999998,-10.4305315,-1
929,930,1583936118680,-4.0594,-1.5496999,-8.4607,5.291866000000001,-3.3775864,-9.755597,-1
930,931,1583936118690,-4.5719,-1.7071999,-6.5396,4.775780999999999,-3.6723800000000004,-8.095744,-1
931,932,1583936118702,-5.0016,-2.0578,-5.1235,4.415262,-3.9526067000000005,-6.68622,-1
932,933,1583936118711,-5.257999999999999,-2.3062,-4.365999700000001,4.1967483,-4.276322,-6.0013440000000005,-1
933,934,1583936118722,-5.164,-2.4617,-4.1984,4.4927387,-4.280382,-5.7437377,-1
934,935,1583936118732,-5.164,-2.4617,-4.1984,4.6930666,-4.217635,-5.2107787000000005,-1
935,936,1583936118742,-4.9354,-2.4225,-3.0807998,4.553321400000001,-4.269149,-4.433468,-1
936,937,1583936118752,-5.0643,-2.4756,-1.9834,4.3860626,-4.330488,-2.8521072999999997,-1
937,938,1583936118762,-5.3079,-2.5142,-0.60139996,4.12905,-4.3947970000000005,-1.3658442,-1
938,939,1583936118772,-5.5288997,-2.5748,0.82729995,3.9706016,-4.4831424,-0.06366661,-1
939,940,1583936118782,-5.5701,-2.6620998,1.6603,4.085637999999999,-4.599003,0.75125265,-1
940,941,1583936118792,-5.1765,-2.6258,2.3439999,4.633853,-4.498207,1.3605673,-1
941,942,1583936118802,-4.5151,-2.4476,2.7178,5.225728500000001,-4.430460500000001,1.7381330000000002,-1
942,943,1583936118812,-4.1657,-2.359,2.9468,5.3397303,-4.379148000000001,2.0943422,-1
943,944,1583936118822,-4.3552,-2.1215,3.4206998,5.0174804,-4.1517854,2.7686357000000004,-1
944,945,1583936118833,-4.7406,-1.6883,4.2862,4.664317,-3.7183867,4.0826693,-1
945,946,1583936118843,-5.0168,-1.1949999,6.1361,4.413615,-3.3409839,6.383957,-1
946,947,1583936118853,-5.2211,-0.82369995,8.4998,4.195915,-3.118649,8.666263,-1
947,948,1583936118863,-5.4007,-0.6577,10.1991,4.0711865,-3.1215506,10.048752,-1
948,949,1583936118873,-5.309,-0.5642,10.8919,4.329779599999999,-3.10278,10.522814,-1
949,950,1583936118884,-4.7883997,-0.45229998,11.0803995,4.8774866999999995,-3.2034323,10.705625,-1
950,951,1583936118894,-4.2812,-0.4639,11.1114,5.221428400000001,-3.3497657999999997,10.740437,-1
951,952,1583936118904,-4.1323,-0.4888,11.0232,5.100751,-3.4622552000000004,10.648576,-1
952,953,1583936118914,-4.3336,-0.2784,10.8708,4.9460087,-3.218602,10.712234,-1
953,954,1583936118924,-4.0712,0.3913,11.1483,5.5357959999999995,-2.5607615000000004,11.1638365,-1
954,955,1583936118934,-3.1088998,1.2002,11.609799,6.4183183,-1.9937859,11.704678,-1
955,956,1583936118945,-2.5839999,1.5992998999999999,12.3612995,6.4747353,-2.1360012999999998,12.757475,-1
956,957,1583936118954,-2.7818,1.2333,13.2834,6.180852,-2.7402692,13.208571,-1
957,958,1583936118964,-2.9059,0.69589996,13.1953,6.167061299999999,-3.2817132000000004,12.669292,-1
958,959,1583936118974,-2.6592,0.33609998,12.2904,6.4913898,-3.9406166,11.572422,-1
959,960,1583936118984,-2.1006,-0.32799998,11.288,7.1827583,-4.904168,10.560077,-1
960,961,1583936118994,-1.3505,-0.80429995,10.8213,7.898385,-5.3706346,10.454108999999999,-1
961,962,1583936119005,-0.5396,-1.0110999,10.8296995,8.620955,-5.505898,10.218635,-1
962,963,1583936119015,0.15339999,-0.8828,10.387,8.92976,-5.592788,9.555622999999999,-1
963,964,1583936119025,0.5329,-0.93829995,9.290999000000001,9.265742,-5.940972299999999,7.916696000000001,-1
964,965,1583936119035,0.9149,-1.2128,7.9282,9.484639999999999,-6.6082554,6.642817999999999,-1
965,966,1583936119045,1.0950999,-1.9283999,6.8908,9.489161,-7.727171,5.761254,-1
966,967,1583936119056,1.2588999,-2.9580998,6.2362,9.651505,-8.823485,5.489157700000001,-1
967,968,1583936119066,1.5109,-3.8042,6.2035,9.74623,-9.46291,5.4931220000000005,-1
968,969,1583936119076,1.75,-4.146,6.1268,9.851681,-9.527074,5.255273000000001,-1
969,970,1583936119086,1.7584,-3.6618,5.7469997,9.489676,-8.732008,4.878971,-1
970,971,1583936119097,1.4785,-2.8316,5.4154,9.030047,-8.205542,4.8367949999999995,-1
971,972,1583936119107,1.0918,-2.2879,5.3244,8.458897,-8.386305,4.4555135,-1
972,973,1583936119117,0.61329997,-2.5153,4.6085997,8.313588000000001,-9.236543,2.994524,-1
973,974,1583936119127,0.741,-3.2579,2.9571,8.712232,-9.833781,1.5034726,-1
974,975,1583936119137,1.1991,-3.6257,1.3808,8.699974000000001,-10.283603999999999,0.09917741,-1
975,976,1583936119147,1.2264,-4.0183,0.0482,8.568072,-10.924445,-0.4465378,-1
976,977,1583936119157,1.2116,-4.5078998,-0.42819998,8.51539,-11.346112,-0.57231957,-1
977,978,1583936119167,1.2709999,-4.7615,-0.598,8.585137,-11.455738,-0.49438348,-1
978,979,1583936119177,1.4814999,-4.6619997,-0.47849998,8.522496,-11.259364999999999,-0.24872883,-1
979,980,1583936119187,1.4121,-4.4242,-0.37109998,8.186647,-11.184772,-0.16102444,-1
980,981,1583936119197,1.1231999,-4.2423,-0.3707,7.667019,-10.924397,-0.3506835,-1
981,982,1583936119207,0.6904,-3.8374,-0.7086,7.14651,-10.714253999999999,-0.58558345,-1
982,983,1583936119217,0.2516,-3.6729998999999998,-1.0476999,6.879317299999999,-11.050351,-1.0601908000000002,-1
983,984,1583936119228,0.1859,-4.0452,-1.8061999,7.30175,-11.7236395,-2.8242483,-1
984,985,1583936119238,0.8501,-4.6238,-3.9606998,8.435759,-12.270025,-5.2605114,-1
985,986,1583936119248,2.1989,-5.058399700000001,-6.382999999999999,9.86843,-12.655511,-6.3767166,-1
986,987,1583936119258,3.6248998999999995,-5.3331,-7.102999700000001,10.618572,-12.887872999999999,-5.7359230000000005,-1
987,988,1583936119268,4.277199700000001,-5.5025,-6.2518997,10.199127,-12.797085000000001,-3.9699216,-1
988,989,1583936119278,3.8574998,-5.3375,-4.7191,9.180106,-12.47154,-3.1419876,-1
989,990,1583936119289,2.5967,-4.8957,-3.7989,7.851210000000001,-11.725641,-3.0071557,-1
990,991,1583936119299,1.5473,-4.238,-3.8163998,7.4599210000000005,-11.141303,-3.4657218000000003,-1
991,992,1583936119309,1.1819998999999999,-3.6399,-4.3788,7.8441133,-10.86232,-3.8921099999999997,-1
992,993,1583936119319,1.6107999,-3.3539,-4.9526997,8.376172,-10.617461,-4.430364599999999,-1
993,994,1583936119329,2.1787,-3.0986998,-5.6345997,8.65595,-10.392750999999999,-4.5647087,-1
994,995,1583936119339,2.5102,-2.8402,-5.8356,8.490701,-10.252393,-4.0874004,-1
995,996,1583936119349,1.9532,-2.5648,-5.0122,7.9959826000000005,-9.950321,-3.4211898,-1
996,997,1583936119360,1.9532,-2.5648,-5.0122,7.635071000000001,-9.712653,-2.9846692000000004,-1
997,998,1583936119370,1.4344,-2.231,-4.3413997,6.997773,-9.622546,-2.047933,-1
998,999,1583936119380,0.2049,-2.0599,-2.8776,6.404049,-9.450028999999999,-1.5317813999999998,-1
999,1000,1583936119390,-0.07,-1.8058,-2.9173,6.2088933,-9.176477,-1.597373,-1
1000,1001,1583936119401,-0.019399998999999998,-1.5575,-3.2825,6.3153963,-8.899535,-2.0096833999999997,-1
1001,1002,1583936119411,0.1577,-1.3936,-3.8402998,6.494033,-8.758613,-2.4079542000000003,-1
1002,1003,1583936119421,0.3173,-1.2567999,-3.8242,6.612555,-8.623472999999999,-2.255137,-1
1003,1004,1583936119431,0.26899999999999996,-1.2171999,-3.6072,6.548822,-8.567249,-1.9825523,-1
1004,1005,1583936119441,0.2059,-1.0702,-3.1748998,6.4455934,-8.378413,-1.2432132,-1
1005,1006,1583936119452,-0.019199999,-1.0215,-2.3016,6.234961,-8.384245,-0.5162282,-1
1006,1007,1583936119462,-0.2872,-1.0711,-1.4454,5.968773400000001,-8.411999,0.33041897,-1
1007,1008,1583936119472,-0.546,-1.0325999,-0.69409996,5.6928754,-8.348772,1.1406934,-1
1008,1009,1583936119482,-0.8024,-0.9932,-0.331,5.5076220000000005,-8.294722,1.2914516000000003,-1
1009,1010,1583936119492,-0.81869996,-0.8833,-0.5366,5.6136274,-8.155446000000001,0.856406,-1
1010,1011,1583936119502,-0.4569,-0.73069996,-1.17,6.133926,-7.954026,0.17105135,-1
1011,1012,1583936119513,0.1713,-0.44779998,-1.8463,6.633806,-7.687839500000001,-0.30129594,-1
1012,1013,1583936119523,0.58019996,-0.2331,-1.9077,6.9309270000000005,-7.4926353,-0.08594226,-1
1013,1014,1583936119533,0.40399998,-0.20619999,-1.2936,6.584859,-7.5624213000000005,0.68120784,d
1014,1015,1583936119543,-0.060999997,-0.348,-0.327,6.1932540000000005,-7.673454799999999,1.629168,-1
1015,1016,1583936119553,-0.35959998,-0.46159998,0.5187,5.926214,-7.8176429999999995,2.2693392999999995,-1
1016,1017,1583936119563,-0.58599997,-0.64419997,0.84779996,5.8564086,-7.994910000000001,2.2558648999999997,-1
1017,1018,1583936119573,-0.43539998,-0.69949996,0.4227,6.086894,-7.890619,1.6870216,-1
1018,1019,1583936119583,-0.20369999,-0.461,-0.2898,6.28116,-7.656015400000001,0.94191724,-1
1019,1020,1583936119593,-0.0609,-0.233,-1.0907999,6.426679,-7.4551324999999995,0.26138937,-1
1020,1021,1583936119603,0.1382,-0.17119999,-1.4090999,6.6559095,-7.4593362999999995,0.23815604,-1
1021,1022,1583936119614,0.3053,-0.28489998,-1.0641999,6.722181299999999,-7.639284599999999,0.74424237,-1
1022,1023,1583936119624,0.1859,-0.5754,-0.4759,6.5151305,-7.940207000000001,1.3082684,-1
1023,1024,1583936119634,0.0064999997,-0.7209,-0.1374,6.40221,-7.991461999999999,1.4116691000000001,-1
1024,1025,1583936119644,-0.15169999,-0.7407,-0.16699999999999998,6.252601599999999,-7.9760246,1.3100209999999999,-1
1025,1026,1583936119654,-0.3075,-0.8009,-0.3888,6.1901703,-8.084061,0.8636077,-1
1026,1027,1583936119664,-0.24499999,-0.8806,-0.97309995,6.365607700000001,-8.104746,0.28954518,-1
1027,1028,1583936119674,0.0241,-0.9490000000000001,-1.4265,6.654827,-8.231208,0.07570466,-1
1028,1029,1583936119684,0.4191,-1.1919,-1.5888,7.261997,-8.533375,-0.15162958,-1
1029,1030,1583936119694,1.0069,-1.4139,-1.829,7.859685400000001,-8.63963,-0.49821424,-1
1030,1031,1583936119704,1.5285,-1.4518,-2.2258,8.216413000000001,-8.648259,-0.8750616,-1
1031,1032,1583936119715,1.6608,-1.5575999,-2.4146,8.121189,-9.009343,-0.8309795,-1
1032,1033,1583936119725,1.484,-2.1093,-2.1805,7.9964995,-9.534085000000001,-0.5015757000000001,-1
1033,1034,1583936119735,1.4855,-2.5642,-1.7932999,8.28955,-9.876696,-0.1875426,-1
1034,1035,1583936119745,1.4855,-2.5642,-1.7932999,8.680092,-9.995878,-0.3143204,-1
1035,1036,1583936119755,2.1841,-2.9062997999999998,-1.8776,8.928429,-10.01145,-0.57355493,-1
1036,1037,1583936119766,2.3785,-2.9155,-2.2796,9.181303999999999,-10.116019,-1.1105648000000001,-1
1037,1038,1583936119776,2.7405,-3.1518998,-2.9557998,9.760519,-10.403122,-1.8839111000000002,-1
1038,1039,1583936119786,3.5040998,-3.4187,-3.7998,10.758278,-10.553363000000001,-2.50535,-1
1039,1040,1583936119796,4.4895997,-3.5791,-4.2314,11.583530999999999,-10.802974,-2.524245,-1
1040,1041,1583936119807,5.1036997,-3.9705,-4.072,11.865846000000001,-11.371328,-1.8834227,-1
1041,1042,1583936119816,5.138,-4.4883,-3.4229998999999998,11.639411,-11.789825,-0.9880200000000001,-1
1042,1043,1583936119826,4.8568,-4.9287,-2.5061,11.570563,-11.885756,-0.19802920000000002,-1
1043,1044,1583936119837,4.723099700000001,-4.9969997,-1.6107,11.405996,-11.718276,0.633343,-1
1044,1045,1583936119847,4.5133,-4.8785,-1.0318999,11.33302,-11.391803999999999,0.99492484,-1
1045,1046,1583936119857,4.4049,-4.5811996,-0.7651,11.465669,-10.906537,1.0700644,-1
1046,1047,1583936119867,4.4969,-4.2009,-0.6859999999999999,11.569262,-10.601066000000001,1.2372755,-1
1047,1048,1583936119877,4.4557,-4.0011997,-0.5338,11.390357,-10.448632,1.3633926,-1
1048,1049,1583936119887,4.1621,-4.0032997,-0.3357,11.164383,-10.411646000000001,1.8314494,-1
1049,1050,1583936119898,3.8404998999999997,-4.0404,0.20989999,11.080519,-10.411760000000001,2.213813,-1
1050,1051,1583936119907,3.7261998999999997,-4.1231,0.60569996,11.270828999999999,-10.182569,2.4375846,-1
1051,1052,1583936119917,3.7998,-3.949,0.97679996,11.180021,-9.786069,3.150281,-1
1052,1053,1583936119927,3.4533,-3.6876,1.9196999,10.488002,-9.577860000000001,4.1697416,-1
1053,1054,1583936119937,2.5914,-3.6341998999999996,3.0611,9.783331,-9.156873,5.2363777,-1
1054,1055,1583936119947,1.9162999,-3.4034998,4.061,9.642388,-8.646191,5.5876546,-1
1055,1056,1583936119958,1.6487,-3.03,4.5266,9.6462,-8.149412,5.215701,-1
1056,1057,1583936119968,1.5238999,-2.5814,4.075,9.548679,-7.654684,4.241338,-1
1057,1058,1583936119978,1.3246,-2.2737,3.1832,9.525667,-7.3425474,3.500275,-1
1058,1059,1583936119988,1.1876,-2.106,2.6181,9.465735,-6.7291913,3.2624636000000002,-1
1059,1060,1583936119998,1.0332999,-1.7357999,2.5837,9.333086999999999,-6.106603,3.6462830000000004,-1
1060,1061,1583936120008,0.8023,-1.2824999,3.0816998,9.010875,-5.7113585,4.180362000000001,-1
1061,1062,1583936120018,0.26,-0.9914,3.883,8.297537,-5.4834595,5.1029534000000005,-1
1062,1063,1583936120029,-0.43519998,-0.9988,4.79,7.896996499999999,-5.438927,5.1583934000000005,-1
1063,1064,1583936120039,-0.9291,-1.1263,4.9851,7.905347999999999,-5.2147913,4.451864700000001,-1
1064,1065,1583936120049,-1.0045998999999999,-1.0868,4.4121,8.666455000000001,-4.87425,3.4797328000000003,-1
1065,1066,1583936120059,-0.3279,-0.9184,3.5653,9.774175,-4.283524,2.4707587,-1
1066,1067,1583936120069,0.71669996,-0.506,2.6627,10.064084,-3.7915056000000003,1.425546,-1
1067,1068,1583936120080,0.92969996,-0.19029999,1.7346,9.470456,-3.606635,1.0660328000000001,-1
1068,1069,1583936120090,0.26049998,-0.212,1.4918,8.452461,-3.4635384,1.2092346,-1
1069,1070,1583936120100,-1.7450999,-0.1365,2.1234999,7.4793330000000005,-3.0097318,1.5332755,-1
1070,1071,1583936120110,-2.0484,0.0629,2.4694998,7.406434,-2.5650327,1.7766701,-1
1071,1072,1583936120120,-1.8061999,0.3469,2.5124,7.7073565,-2.046008,1.6312367,-1
1072,1073,1583936120130,-1.8436999,0.7033,2.3132,7.574114999999999,-1.5493933000000002,1.404707,-1
1073,1074,1583936120141,-2.4062,0.9155,2.4675,7.0220118000000005,-1.226923,1.6275113,-1
1074,1075,1583936120151,-2.9429998,0.52709997,2.8855999,6.5427594000000004,-1.5251256000000002,1.9617993000000002,-1
1075,1076,1583936120161,-3.3655,-0.11409999400000001,2.8437,6.186234,-1.9479129000000002,1.7390428,-1
1076,1077,1583936120171,-3.5079,-0.2814,2.3279998,6.151202,-1.8413422,1.1766161,-1
1077,1078,1583936120182,-3.2735999,-0.1714,1.7056999,6.45585,-1.567072,0.46763545,-1
1078,1079,1583936120192,-2.8995,0.066199996,0.93289995,6.8752759999999995,-1.0326958000000002,-0.35524207,-1
1079,1080,1583936120202,-2.8995,0.066199996,0.93289995,6.974319500000001,-0.8238544,0.022294806,-1
1080,1081,1583936120212,-2.8137,0.0764,1.9821999,6.687226,-0.97029334,1.2569846000000002,-1
1081,1082,1583936120222,-3.4654998999999997,0.107499994,2.7387,6.0903415999999995,-0.71758056,1.7052939999999999,-1
1082,1083,1583936120232,-4.2041,0.3972,2.9101999,5.2848845,-0.21592827,1.8005451000000001,-1
1083,1084,1583936120243,-4.6951,0.53249997,2.7075,4.993079,-0.16148412,1.5613928999999998,-1
1084,1085,1583936120253,-4.703,0.2252,2.5447,5.17658,-0.4331494000000001,1.4214472,-1
1085,1086,1583936120263,-4.3062997,-0.083799995,2.2595,5.642846,-0.5914923000000001,0.96632856,-1
1086,1087,1583936120273,-3.7903998,-0.14549999,1.5466,6.0246544,-0.5038358000000001,0.3307159,-1
1087,1088,1583936120283,-3.6562997999999998,0.0233,0.7543,6.0194635000000005,-0.1573182,-0.49609774,-1
1088,1089,1583936120293,-3.8846998,0.3191,0.4125,5.8354550000000005,0.21445343,-0.57298034,-1
1089,1090,1583936120303,-3.9752998,0.5369,0.5222,5.750067700000001,0.38899076,-0.60232365,-1
1090,1091,1583936120314,-4.0555997,0.5141,0.29799998,5.7042813,0.44551307,-0.66788656,-1
1091,1092,1583936120324,-4.0182,0.52669996,0.5313,5.753927,0.36438790000000004,-0.24004266,-1
1092,1093,1583936120334,-4.0102,0.26999998,0.94689995,5.785138,0.14923538,0.16410816,-1
1093,1094,1583936120344,-3.8746,-0.0297,1.3704,6.0530014,-0.06835925,0.59484416,-1
1094,1095,1583936120354,-3.5823,-0.1081,1.6628,6.328632,-0.00036391866000000004,0.81700695,-1
1095,1096,1583936120364,-3.3297,-0.025899999,1.8406999,6.334435,0.18691054,0.93685114,-1
1096,1097,1583936120375,-3.6367,0.098799996,1.7452999,5.8267303,0.26931897,0.64878076,-1
1097,1098,1583936120386,-4.1008,0.1405,1.2729,5.584906,0.3433381,-0.045547295,-1
1098,1099,1583936120396,-4.1138,0.2016,0.38779998,6.132594,0.49129018,-1.103746,-1
1099,1100,1583936120406,-3.4891998999999996,0.324,-0.47419998,7.0661893,0.5082220000000001,-1.6179153,-1
1100,1101,1583936120417,-2.5305,0.2881,-0.94579995,7.8487964,0.28555164,-1.7890337,-1
1101,1102,1583936120427,-1.8456999,0.046,-1.0763,8.146023,0.046734817000000005,-1.6523057,-1
1102,1103,1583936120437,-1.6211,-0.1664,-0.87469995,8.087824000000001,-0.011683704,-1.0847266000000002,-1
1103,1104,1583936120447,-1.7486999,-0.2103,-0.2461,7.741871400000001,-0.048717215999999994,-0.5539704000000001,-1
1104,1105,1583936120457,-2.1111,-0.2742,0.1647,7.507805,-0.026566062,-0.5707201999999999,-1
1105,1106,1583936120468,-2.2865999,-0.2697,0.1165,7.569106,0.18047494,-0.6436381,-1
1106,1107,1583936120478,-2.1875,-0.0659,0.0106999995,7.796603,0.46249273,-0.7866485,-1
1107,1108,1583936120488,-1.9413999,0.1532,-0.114999995,7.967366999999999,0.5638441,-0.90828353,-1
1108,1109,1583936120498,-1.7836,0.2102,-0.21149999,8.166784,0.65027475,-0.87074244,-1
1109,1110,1583936120508,-1.6158999,0.27109998,-0.1567,8.346685,0.66326094,-0.79793,-1
1110,1111,1583936120518,-1.3987,0.2668,-0.0669,8.523847,0.6283918000000001,-0.694692,-1
1111,1112,1583936120529,-1.2401999,0.1971,0.0383,8.711475,0.46395797,-0.75048643,-1
1112,1113,1583936120539,-1.0716,0.0504,-0.0007,8.938445,0.4123294,-1.0486891,-1
1113,1114,1583936120549,-0.7855,-0.0072999996999999995,-0.385,9.218376,0.37800613,-1.6924517,-1
1114,1115,1583936120559,-0.5585,-0.0471,-0.90239996,9.326229,0.42611045,-1.9342374,-1
1115,1116,1583936120570,-0.4493,-0.021499999,-1.1381999,9.50815,0.67414016,-1.9040797999999999,-1
1116,1117,1583936120580,-0.2714,0.2162,-1.1014999,9.431431,0.8737304,-1.8048642,-1
1117,1118,1583936120590,-0.3486,0.3924,-0.99979997,9.166822999999999,1.0807905,-1.2957995,-1
1118,1119,1583936120600,-0.74759996,0.7098,0.2165,9.002294000000001,1.2511237,-0.44659525,-1
1119,1120,1583936120610,-0.74759996,0.7098,0.2165,8.944249000000001,1.1296897,-0.0035146879999999998,-1
1120,1121,1583936120620,-0.8243,0.5852,0.8153,9.1199255,0.86007386,-0.12884636,-1
1121,1122,1583936120630,-0.0082,0.093399994,-0.0526,9.904276,0.5996229999999999,-1.0856843,-1
1122,1123,1583936120640,-0.0082,0.093399994,-0.0526,10.358332,0.48804364,-1.7855381999999997,d
1123,1124,1583936120650,0.5901,-0.053099997,-0.9273,10.604168,0.36579570000000006,-2.1638892000000003,-1
1124,1125,1583936120660,0.84499997,-0.1538,-1.2957,10.655548,0.27981517,-1.954023,-1
1125,1126,1583936120670,0.88449997,-0.2427,-1.0968,10.321289,0.18159541,-1.4860619,-1
1126,1127,1583936120680,0.5516,-0.35889998,-0.6261,10.050601,0.21960576,-0.80982435,-1
1127,1128,1583936120691,0.1706,-0.1733,0.5786,9.945159,0.44267829999999997,-0.22580196,-1
1128,1129,1583936120701,0.1706,-0.1733,0.5786,9.919139999999999,0.6562124,0.0004596867400000001,-1
1129,1130,1583936120711,0.0736,0.16659999,0.84919995,9.804994,0.7566252,-0.036841977000000005,-1
1130,1131,1583936120721,-0.121999994,0.112799995,0.45929998,9.621913000000001,0.6778368,-0.49280329999999994,-1
1131,1132,1583936120731,-0.1607,0.024999999,-0.015199998999999999,9.63037,0.60064775,-0.9807895000000001,-1
1132,1133,1583936120741,0.065,-0.0392,-0.3624,9.893147,0.549996,-1.2864906999999999,-1
1133,1134,1583936120751,0.4278,-0.0339,-0.5654,10.336488000000001,0.56219685,-1.4946713,-1
1134,1135,1583936120762,0.75119996,-0.0029,-0.7136,10.531605,0.5993166,-1.5924219,-1
1135,1136,1583936120772,0.6631,0.1656,-0.5706,10.338986,0.80456674,-1.368631,-1
1136,1137,1583936120782,0.0559,0.3231,-0.0447,9.559855,0.96171254,-0.57020307,-1
1137,1138,1583936120792,0.0559,0.3231,-0.0447,8.998732,0.9900215,0.2110824,-1
1138,1139,1583936120802,-0.99939996,0.3317,1.2749,8.698317,0.9815173,0.46801856,-1
1139,1140,1583936120813,-1.1449,0.3651,1.3109,8.6102,1.0976553,0.3934248,-1
1140,1141,1583936120823,-1.095,0.50659996,1.0907,8.7053175,1.2430886,0.10853395,-1
1141,1142,1583936120833,-0.93799996,0.6073,0.8189,8.882163,1.3246448,-0.18594328,-1
1142,1143,1583936120843,-0.75229996,0.78169996,0.504,9.075863,1.544873,-0.49115613,-1
1143,1144,1583936120855,-0.68439996,0.97599995,0.2956,9.005244,1.631342,-0.56638193,-1
1144,1145,1583936120866,-0.8124,0.96989995,0.3617,8.607844,1.6066912,-0.3101928,-1
1145,1146,1583936120878,-1.2538999,0.9483,0.64269996,8.163480999999999,1.5683649,-0.12570517,-1
1146,1147,1583936120888,-1.7538999,0.8264,0.7685,8.022089,1.4499476999999998,-0.26906997,-1
1147,1148,1583936120898,-1.734,0.78499997,0.6034,8.269851,1.608463,-0.3211678,-1
1148,1149,1583936120908,-1.3412,1.0497999,0.54069996,8.4889,1.9439098000000001,0.02660437,-1
1149,1150,1583936120919,-1.2615,1.2731,0.8953,8.334495,1.9942743000000003,0.4300465,-1
1150,1151,1583936120929,-1.7888998999999999,1.3439,2.0709,7.149977000000001,1.9558425,2.1240973,-1
1151,1152,1583936120939,-2.6,1.2763,3.0361,6.661138,1.9619334,2.5891566000000004,-1
1152,1153,1583936120949,-3.0879,1.2748,3.5310998,6.546619000000001,2.127842,2.5812367999999997,-1
1153,1154,1583936120959,-3.1961,1.5558,2.9046,6.570158500000001,2.2035277,1.7445207999999999,-1
1154,1155,1583936120969,-3.1202,1.5689,1.8311,6.6644235,2.194937,0.69870466,-1
1155,1156,1583936120980,-3.1202,1.5689,1.8311,6.9410114,2.2255827999999998,0.36879325,-1
1156,1157,1583936120990,-2.3298,1.5705,1.9611,7.484610000000001,2.024537,1.2376681999999999,-1
1157,1158,1583936121000,-2.2401,1.0498999,3.5108,7.439934299999999,1.4580497,2.9145768,-1
1158,1159,1583936121011,-2.2401,1.0498999,3.5108,6.7449164,1.1053741000000001,4.832523999999999,-1
1159,1160,1583936121021,-3.7503,0.39479998,6.7482996,5.816282299999999,0.85148346,5.703668599999999,-1
1160,1161,1583936121031,-4.3554,0.5074,6.699,5.3087015,1.0055742,5.5943394,-1
1161,1162,1583936121041,-4.5232,0.7682,6.3271,5.2455044,1.1707742,4.978752,-1
1162,1163,1583936121051,-4.2332997,0.784,5.1454,5.610467,1.0521272,3.7675254000000002,-1
1163,1164,1583936121062,-3.5417,0.511,3.9982998,6.6059284,0.4968639,2.555935,-1
1164,1165,1583936121072,-2.4354,-0.086399995,3.2907,7.748786,-0.31853417,1.9821022000000001,-1
1165,1166,1583936121082,-1.5102999,-0.94909996,3.0788999,8.462996,-1.3028383,2.0409613,-1
1166,1167,1583936121092,-1.1586,-1.5584999,3.5683,8.494369500000001,-1.7253001000000001,2.5897697999999996,-1
1167,1168,1583936121102,-1.5193,-1.5271,4.2328,7.9917784,-1.533218,3.148902,-1
1168,1169,1583936121113,-2.076,-1.0058,4.8219,7.356846000000001,-0.96300536,3.6422224,-1
1169,1170,1583936121123,-2.7728,-0.366,5.2974,6.666347999999999,-0.5241099,3.8587922999999997,-1
1170,1171,1583936121133,-3.1783997999999998,-0.085999995,4.8925,6.636392,-0.45946646,2.9424644,-1
1171,1172,1583936121143,-2.5736,-0.20459999,3.4294,7.961831599999999,-1.0869388999999998,0.94673437,-1
1172,1173,1583936121154,-1.0909,-0.95659995,1.8666999,9.159392,-1.9640977,-0.17348386,-1
1173,1174,1583936121164,0.0657,-1.9333999,0.8055,9.981513,-3.2030494,-1.176798,-1
1174,1175,1583936121174,0.3656,-2.7101,0.38709998,9.902102000000001,-3.9021660000000002,-1.406852,-1
1175,1176,1583936121184,0.20799999,-3.1964,0.39249998,9.65773,-4.338514,-1.4395186000000002,-1
1176,1177,1583936121194,-0.0083,-3.2637,0.3529,9.527985000000001,-4.0400624,-1.7589147,-1
1177,1178,1583936121205,0.1162,-2.7538998,-0.0548,10.151109,-3.7681574999999996,-2.7511964,-1
1178,1179,1583936121215,1.0807999,-2.3876,-1.2735,11.214671000000001,-3.3433303999999997,-4.0828323,-1
1179,1180,1583936121225,1.9461998999999999,-1.8553,-2.4169,11.457136,-3.2064779,-4.79663,-1
1180,1181,1583936121235,1.7454,-1.9918,-2.8372,10.781808999999999,-4.0083246,-5.0506163,-1
1181,1182,1583936121245,1.1556,-2.7533998,-2.9692,10.403486000000001,-4.832572,-5.38138,-1
1182,1183,1583936121255,0.92149997,-3.4780998,-3.4678,10.372947,-5.571422599999999,-6.2606363,-1
1183,1184,1583936121266,1.0897,-4.0949,-4.5109,10.884242,-6.113881,-7.687676400000001,-1
1184,1185,1583936121276,1.9634,-4.2907,-6.0228,12.27149,-5.9823346,-9.641163,-1
1185,1186,1583936121286,3.1285,-3.9905998999999994,-7.6064,12.917638,-5.765477,-10.883649,-1
1186,1187,1583936121296,3.6311998,-3.7036,-8.6261,12.672385,-5.631842,-10.906967999999999,-1
1187,1188,1583936121306,3.2247,-3.5233998,-8.4439,11.888629,-5.604405,-10.230960000000001,-1
1188,1189,1583936121317,2.4489,-3.4947,-7.7074,11.305708000000001,-5.749771,-9.758142999999999,-1
1189,1190,1583936121327,1.8242999,-3.6766998999999996,-7.401799700000001,11.094539,-5.9990559999999995,-10.306282000000001,-1
1190,1191,1583936121337,1.8824999,-3.8263998,-8.2233,11.604619,-6.343571,-11.458582,-1
1191,1192,1583936121347,2.4594,-4.1503,-9.4459,12.272056,-6.5830207,-12.416272,-1
1192,1193,1583936121357,3.0644999,-4.2857,-10.3539,12.624606,-6.4807973,-12.635475999999999,-1
1193,1194,1583936121368,3.3411998999999994,-4.0383,-10.440599,12.138765,-5.62375,-11.744564,-1
1194,1195,1583936121378,2.8257,-3.2963,-9.691299,11.08637,-5.0808506,-10.589468,-1
1195,1196,1583936121388,1.4512,-2.6641998,-8.2704,9.370389,-4.808907,-8.896078,-1
1196,1197,1583936121398,0.0158,-2.5402,-6.9800997,8.613888000000001,-4.9385004,-8.436936,-1
1197,1198,1583936121408,-0.8402,-2.6922998,-6.5636997,8.620965,-4.774287,-8.492617,-1
1198,1199,1583936121418,-0.78279996,-2.5342,-6.7623,8.950080999999999,-4.7180614,-8.7858305,-1
1199,1200,1583936121428,-0.46859998,-2.4717999,-7.1703,9.130758,-4.8480476999999995,-8.949909,-1
1200,1201,1583936121439,-0.31,-2.6046,-7.4522,9.116143,-4.6336900000000005,-8.391409,-1
1201,1202,1583936121449,-0.3462,-2.3818998,-6.9972997,8.812971000000001,-4.5464263,-7.734574,-1
1202,1203,1583936121459,-0.7732,-2.2976,-6.2572,8.017128,-4.470377,-6.627744,-1
1203,1204,1583936121469,-1.4633,-2.2609,-5.3773,7.408531699999999,-4.220039,-5.6927031999999995,-1
1204,1205,1583936121479,-2.0927,-2.0297,-4.4934998,6.910145,-4.040311,-5.398408,-1
1205,1206,1583936121489,-2.5928,-1.8706,-4.2363,6.684218400000001,-3.8933932999999996,-5.406480999999999,-1
1206,1207,1583936121499,-2.8355,-1.7299999,-4.2959,6.6641073,-3.8045397000000003,-5.4497204,-1
1207,1208,1583936121509,-2.86,-1.6357,-4.4000998,6.7030754,-4.4160379999999995,-5.067721,-1
1208,1209,1583936121519,-2.8228998,-2.2358,-4.075599700000001,7.0960116,-5.2886095,-4.2846150000000005,-1
1209,1210,1583936121529,-2.4304,-3.0832999,-3.3467,7.520274000000001,-5.926108999999999,-3.6099582000000003,-1
1210,1211,1583936121539,-1.9774,-3.8553998,-2.1527,7.492702,-6.0868173,-2.8067036,-1
1211,1212,1583936121549,-1.9774,-3.8553998,-2.1527,7.187067999999999,-5.8327545999999995,-1.9873023999999997,-1
1212,1213,1583936121559,-2.3313,-3.5537998999999996,-1.2231,6.7208977,-5.4694867,-1.4851329,-1
1213,1214,1583936121569,-2.8037,-3.1766999,-0.789,6.765103999999999,-4.969338,-1.3043227,-1
1214,1215,1583936121579,-2.7551,-2.6489,-0.6716,6.9649625,-4.5845513,-1.2408093999999998,-1
1215,1216,1583936121589,-2.5569,-2.2405,-0.6724,7.384561,-4.755555,-1.5574186,-1
1216,1217,1583936121600,-2.1306,-2.3836,-1.0608,8.179991000000001,-5.066935,-2.0539471999999996,-1
1217,1218,1583936121610,-1.3291,-2.6585999,-1.6037999,8.740828500000001,-5.3727703,-1.7965993999999998,-1
1218,1219,1583936121620,-0.54829997,-3.1529,0.1017,8.90237,-5.705612,0.29380685,-1
1219,1220,1583936121630,-0.54829997,-3.1529,0.1017,8.627936,-5.7897067,1.485765,-1
1220,1221,1583936121640,-1.3905,-2.983,3.2131,7.905721000000001,-5.405246,3.1226807,-1
1221,1222,1583936121651,-1.6687,-2.5124,3.6492998999999995,7.8954735000000005,-4.967681,3.5611837,-1
1222,1223,1583936121661,-0.9129999999999999,-1.8908,4.1772,8.73265,-4.4037127,4.1438074,-1
1223,1224,1583936121671,-0.123399995,-1.55,4.4178,9.42623,-4.2073402,4.4576397000000005,-1
1224,1225,1583936121681,0.3258,-1.4977,4.744,9.797265,-4.235314,4.9187346,-1
1225,1226,1583936121691,0.44349998,-1.5616,5.2318,9.8802,-4.4168330000000005,5.5535426,-1
1226,1227,1583936121701,0.44349998,-1.5616,5.2318,10.206586999999999,-4.7379622,6.6399927,-1
1227,1228,1583936121713,1.3385999,-1.9556999,7.1951,10.986704,-4.8608136,7.954199000000001,-1
1228,1229,1583936121723,2.055,-1.8208,8.2463,11.6192045,-4.6850123,9.027367,-1
1229,1230,1583936121733,2.4162998,-1.4402,9.099999,11.690341,-4.2553296,9.905914,-1
1230,1231,1583936121743,2.177,-0.8936,9.87,11.110408,-3.6344843,10.758691,-1
1231,1232,1583936121754,1.5338999,-0.3845,10.3832,10.404108,-3.3218687000000005,11.267707000000001,-1
1232,1233,1583936121764,0.92029995,-0.16129999,10.759999,10.09135,-3.2170026000000003,11.58738,-1
1233,1234,1583936121774,0.857,-0.0325,10.901999,10.312832,-3.1846235000000003,11.572536999999999,-1
1234,1235,1583936121784,1.5689,-0.085099995,10.554999,11.562835,-3.386426,10.9288225,-1
1235,1236,1583936121794,2.8476999,-0.2547,9.8538,12.738828999999999,-3.5820227,10.293621,-1
1236,1237,1583936121804,3.7982,-0.3829,9.2864,13.201962,-3.7271593000000003,9.780257,-1
1237,1238,1583936121814,3.9478998,-0.5273,8.8182,13.118136999999999,-3.795729,9.392157000000001,-1
1238,1239,1583936121825,3.6697998,-0.4543,8.3972,12.661133,-3.5363029999999998,8.989154,-1
1239,1240,1583936121834,3.2310000000000003,-0.1883,8.2115,12.295748,-3.3397772000000003,8.8920555,-1
1240,1241,1583936121844,2.7412999,-0.067099996,7.9788,11.841061,-3.2965379999999995,8.483232000000001,-1
1241,1242,1583936121854,2.4527,-0.1858,7.2162,11.782642,-3.4128866,7.288544,-1
1242,1243,1583936121864,2.6620998,-0.2816,6.1519,12.243142,-3.4669190000000003,6.2605405,-1
1243,1244,1583936121874,3.1801999,-0.3505,5.1914,12.652801,-3.5008307,5.5950294000000005,-1
1244,1245,1583936121885,3.4603,-0.4737,4.6566,12.751843,-3.6359879999999998,5.2975926,-1
1245,1246,1583936121895,3.3741999,-0.66429996,4.6719,12.669186999999999,-3.7635894,5.2780275,-1
1246,1247,1583936121905,3.2956,-0.8246,4.6298,12.543347,-3.7471745000000003,5.044400700000001,-1
1247,1248,1583936121915,3.0785,-0.747,4.3612,12.241658000000001,-3.6521535000000003,4.441129,-1
1248,1249,1583936121925,2.7529,-0.7834,3.5296998,12.082406,-3.6628125,3.3879006,-1
1249,1250,1583936121935,2.7312,-0.8728,2.5149999,12.264921000000001,-3.7183962,2.575663,-1
1250,1251,1583936121946,2.9445999,-1.0332,1.8453,12.525554,-3.8214045,1.9636955000000003,-1
1251,1252,1583936121956,3.1766999,-1.2171,1.3813,12.61592,-4.018112,1.8596627000000001,-1
1252,1253,1583936121966,3.0744,-1.5918,1.5842999,12.413189,-4.617801999999999,2.4254794,-1
1253,1254,1583936121976,2.9419999999999997,-2.2368999,2.1039999,12.617069,-4.9193563,2.4929194,-1
1254,1255,1583936121986,3.1527998,-2.5537999,2.0691,12.865166,-5.032775,1.9684839,-1
1255,1256,1583936121997,3.3536,-2.7391999,1.5268999,12.969391,-5.0239644,1.4531558999999998,-1
1256,1257,1583936122007,3.4164,-2.8346999,1.0569,12.942461,-4.9898419999999994,1.1709083,-1
1257,1258,1583936122017,3.3216998999999996,-2.9083997999999998,0.9144,12.589986999999999,-4.898996400000001,1.2121269,-1
1258,1259,1583936122027,2.8643,-2.9304,1.0094,12.046196,-4.6846676,1.1228136,-1
1259,1260,1583936122037,2.2996,-2.7914999,0.87729996,11.596938,-4.3458304000000005,0.73567116,-1
1260,1261,1583936122047,1.8935,-2.5951,0.4482,11.490866,-4.0770574,0.07441179,-1
1261,1262,1583936122058,1.8422999,-2.4564,-0.1619,11.681722,-3.9007578,-0.5170422,-1
1262,1263,1583936122068,1.9986999,-2.4362,-0.6487,11.770288,-3.8409317,-0.47505748,-1
1263,1264,1583936122078,2.0386,-2.5298,-0.3881,11.540693,-3.741802,-0.26843790000000006,-1
1264,1265,1583936122088,1.6877999,-2.5146,-0.1531,10.985161999999999,-3.348435,-0.16859968,-1
1265,1266,1583936122098,1.1036,-2.2522,0.0643,10.395556,-2.8740474999999996,0.093220636,-1
1266,1267,1583936122108,0.6204,-2.0015,0.35349998,10.018269,-2.4640071,-0.021538239,-1
1267,1268,1583936122118,0.23809999,-1.7371,0.3364,9.606313,-2.0998776,-0.5172529,-1
1268,1269,1583936122129,-0.1806,-1.5157,-0.102199994,9.178757000000001,-1.8155903000000002,-1.4839836000000002,-1
1269,1270,1583936122139,-0.61649996,-1.3658999,-1.0047,9.371212,-1.5188816,-2.4874606,-1
1270,1271,1583936122149,-0.42200000000000004,-1.2005,-1.9409,9.699342,-1.2771438,-2.377337,-1
1271,1272,1583936122159,-0.0971,-1.0825,-1.7651999,9.604398,-1.3924295,-1.6800113999999997,-1
1272,1273,1583936122169,-0.19039999,-1.3349,-0.965,9.307822999999999,-1.5250968999999999,-1.4424393999999998,-1
1273,1274,1583936122180,-0.47599998,-1.6166999,-0.62229997,8.973094999999999,-1.2427726000000001,-1.5718222,-1
1274,1275,1583936122190,-0.7971,-1.4761,-0.652,8.4317465,-0.52394706,-2.0385956999999997,-1
1275,1276,1583936122200,-1.3219999,-0.9194,-1.0207,7.4178405,0.28806075,-2.3180182,-1
1276,1277,1583936122210,-3.0042,-0.0659,-1.2416999,6.601274,0.7559260999999999,-2.4071398,-1
1277,1278,1583936122220,-3.3665998,0.1149,-1.2906,6.325586299999999,0.9903184000000002,-2.589856,-1
1278,1279,1583936122230,-3.2059,-0.2409,-1.6876999,6.5381627,0.6987621,-3.141892,-1
1279,1280,1583936122241,-2.6694,-0.71559995,-2.2800999,7.1212754,0.33442208,-3.8001822999999995,-1
1280,1281,1583936122251,-2.0228999,-1.0722,-2.4915,7.689582000000001,0.18284039,-3.9523578,-1
1281,1282,1583936122261,-1.8944999,-0.9468,-1.9406999,7.5639057,0.53924125,-3.3983681000000003,-1
1282,1283,1583936122271,-2.8056,-0.57589996,-1.2274,6.502671,1.0430962,-2.6754917999999996,-1
1283,1284,1583936122281,-4.0008,-0.21759999,-0.117199995,5.2767057,1.5469128,-1.5961951,-1
1284,1285,1583936122291,-5.1467,0.1996,0.4621,4.1721067000000005,2.1016207000000002,-1.3392973,-1
1285,1286,1583936122302,-5.5677,0.5791,-0.1867,3.9285593,2.5597942000000002,-2.1381657000000005,-1
1286,1287,1583936122312,-5.1661997,0.7866,-1.1086999,4.5366387,2.7953262000000003,-3.2823547999999994,-1
1287,1288,1583936122322,-4.4927998,0.6701,-1.6859,5.027996,2.677905,-3.590546,-1
1288,1289,1583936122332,-4.076699700000001,0.38619998,-1.6219999999999999,5.4159045,2.4350276,-3.604375,-1
1289,1290,1583936122342,-3.8685,0.1927,-1.6861999,5.525568499999999,2.3819911,-3.5828269999999995,-1
1290,1291,1583936122352,-3.8976998,0.22369999,-1.3031,5.309286,2.515463,-3.0810215,-1
1291,1292,1583936122363,-4.4385,0.2528,-0.677,4.550458,2.5438967,-2.4759398,-1
1292,1293,1583936122373,-5.2636,0.1933,-0.1607,3.7976252999999995,2.56419,-2.0851965,-1
1293,1294,1583936122383,-5.7551,0.2382,0.0188,3.454718,2.6833541000000003,-2.0942657,-1
1294,1295,1583936122393,-5.7551,0.2382,0.0188,3.33949,2.6788435,-2.1230917000000002,-1
1295,1296,1583936122403,-5.8592997,0.1573,0.18079999,3.4547467000000003,2.620243,-1.8450102,-1
1296,1297,1583936122414,-5.7872,0.0995,0.4227,3.4214292,2.5438776,-1.7517896000000002,-1
1297,1298,1583936122424,-5.8848996,-0.0471,0.3963,3.3238894999999995,2.3939526,-1.8657535,-1
1298,1299,1583936122434,-5.9365997,-0.0301,0.3152,3.2440860000000002,2.6091914000000003,-1.9642701,-1
1299,1300,1583936122444,-6.0508,0.18859999,0.2155,3.0112832000000003,2.7972607999999997,-2.1209562,-1
1300,1301,1583936122454,-6.3538,0.39249998,0.0712,2.758762,3.0629885,-2.2761962000000002,-1
1301,1302,1583936122464,-6.4821,0.7877,-0.054899998,2.7274554,3.5748879999999996,-2.354726,-1
1302,1303,1583936122475,-6.5236998,1.2976999,-0.0433,2.6760855,3.8460934,-2.2543900000000003,-1
1303,1304,1583936122485,-6.6155996,1.4526,0.29479998,2.5686913,3.819604,-1.6991458,-1
1304,1305,1583936122495,-6.6994,1.3816998999999999,0.76309997,2.5390606,3.6969538,-1.4257375,-1
1305,1306,1583936122505,-6.7172,1.2246,0.9083,2.5388305,3.3641312000000005,-1.5522566999999998,-1
1306,1307,1583936122515,-6.6108,0.72779995,0.4447,2.9408555,2.7520103,-2.2734766,-1
1307,1308,1583936122525,-6.125,0.42949998,-0.1881,3.4304314,2.570549,-2.8443499,-1
1308,1309,1583936122536,-5.7697997,0.3453,-0.53459996,3.492604,2.334404,-2.8411992,-1
1309,1310,1583936122546,-5.9279,0.1575,-0.40289998,3.2512589,2.1063709999999998,-2.4976792000000003,-1
1310,1311,1583936122556,-6.0999,0.2014,0.1653,3.25304,2.3315023999999998,-1.5585679,-1
1311,1312,1583936122566,-6.0709,0.6195,1.2183,3.3559623,2.4601283,-0.3696935,-1
1312,1313,1583936122577,-6.0368,0.6987,1.9429,3.6090004,2.4226353,-0.46590206,-1
1313,1314,1583936122587,-5.7314997000000005,0.87299997,1.6367999,4.1838865,2.4939635,-1.0254557,-1
1314,1315,1583936122597,-5.1802,1.0124,0.9801,4.5530919999999995,2.0192792,-1.7682999,-1
1315,1316,1583936122607,-4.909,0.5925,0.1495,4.837676,1.1967847,-2.3407345,-1
1316,1317,1583936122617,-4.6519,-0.12539999,-0.3224,5.061888,0.13736972,-2.2575119,-1
1317,1318,1583936122628,-4.428499700000001,-0.9772,-0.1637,5.365157,-0.5598505,-1.9375316000000002,-1
1318,1319,1583936122638,-4.113,-1.3776,0.1856,5.7077865999999995,-0.4761205,-1.1140891000000002,-1
1319,1320,1583936122648,-3.8746,-1.0625,0.8897,5.3415313,-0.2605562,-0.24209210000000003,-1
1320,1321,1583936122658,-4.2757,-0.6878,1.7162,5.088569000000001,-0.35602736,0.42278728,-1
1321,1322,1583936122668,-4.5414,-0.6586,2.3804998,5.4370213,-0.9068374,0.16347609999999999,-1
1322,1323,1583936122678,-4.2158,-0.95909995,1.9617,6.46716,-1.7757411,-0.945681,-1
1323,1324,1583936122689,-3.185,-1.625,0.82129997,7.2352490000000005,-2.5708554,-1.5269834999999998,-1
1324,1325,1583936122699,-2.2897,-2.3892999,0.1206,7.6553354,-3.5354697999999996,-1.6732310000000001,-1
1325,1326,1583936122710,-1.9783,-2.9187,0.1051,7.694763000000001,-4.1847677,-1.3790697,-1
