,Seq,Time,ACCx,ACCy,ACCz,ADGx,ADGy,ADGz,Keydown
0,1,1583936066573,-8.3625,1.1314,2.4664,-0.88429356,-1.6118628000000002,7.148521400000001,-1
1,2,1583936066583,-10.2403,1.5394,3.7336998,10.431508000000001,0.9844096,-0.8524507,-1
2,3,1583936066594,1.2206,0.0949,-0.0861,11.213061,0.8353466,-0.6605124,-1
3,4,1583936066604,1.6014999,0.0646,0.2848,11.255535,0.76711184,-0.18679562,-1
4,5,1583936066614,1.3458999,-0.030499997999999997,0.64199996,10.725353,0.69720113,0.15738524,-1
5,6,1583936066624,0.6498,-0.051799998,0.9059,10.063079,0.7088465,0.29827923,-1
6,7,1583936066634,-0.23259999,-0.0709,1.0533999,9.195765,0.6672161,0.49514008,-1
7,8,1583936066644,-0.7040000000000001,-0.1871,1.1287999,8.981561,0.5803449,0.4076655,-1
8,9,1583936066655,-0.7162,-0.22559999,0.8411,9.323606,0.62202317,0.076614454,-1
9,10,1583936066665,-0.2294,-0.1261,0.43469998,9.863,0.8164994000000001,-0.26705885,-1
10,11,1583936066675,0.2872,0.1223,0.093899995,10.251358,1.0952514,-0.37291127,-1
11,12,1583936066685,0.5731,0.3715,0.1401,10.295536,1.2994194,-0.22274695,-1
12,13,1583936066695,0.38939998,0.44039997,0.2216,9.887650500000001,1.3076364,0.019699492,-1
13,14,1583936066705,-0.028299998,0.33069998,0.652,9.540865,1.1702092,0.54854995,-1
14,15,1583936066715,-0.3286,0.0924,0.9601,9.291542,0.997999,0.83509755,-1
15,16,1583936066725,-0.4789,-0.1249,0.9034,9.328164,1.0781568000000001,0.8352700000000001,-1
16,17,1583936066735,-0.4411,0.0433,0.65569997,9.223489,1.4051665,0.6779805,-1
17,18,1583936066745,-0.6513,0.3364,0.4781,8.853365,1.7083012999999998,0.69519,-1
18,19,1583936066755,-1.0181999,0.5313,0.5219,8.534506,1.8409591,0.81403816,-1
19,20,1583936066765,-1.2479,0.59,0.62329996,8.513877,1.8766998,0.9144796999999999,-1
20,21,1583936066776,-1.0955,0.5335,0.60499996,8.77722,1.8324358,0.7473835999999999,-1
21,22,1583936066786,-0.6782,0.43739998,0.3877,9.319766,1.7554,0.64189506,-1
22,23,1583936066796,-0.2897,0.29799998,0.3706,9.3244,1.6697737000000001,0.9359221999999999,-1
23,24,1583936066806,-0.4588,0.1998,0.8409,8.888435000000001,1.6160573999999999,1.9618185000000001,-1
24,25,1583936066816,-1.1263,0.1424,2.2951999,7.838664,1.7584263,3.6210193999999998,-1
25,26,1583936066827,-2.0479,0.1999,3.4168,7.073448700000001,1.7840058999999997,3.8385949999999998,-1
26,27,1583936066837,-2.8923,0.1387,3.4046,6.4922705,1.6588179,3.2879858,-1
27,28,1583936066847,-3.1706998,-0.0134,2.7991998,6.8864613,1.5078586,2.486934,-1
28,29,1583936066857,-2.5995,-0.1645,1.9547,7.8793755,1.6348472,1.545735,-1
29,30,1583936066867,-1.6093998999999999,0.013499998999999999,0.988,8.645519,1.900479,0.5571403,-1
30,31,1583936066877,-0.9241,0.29279998,0.1161,8.893138,2.0735223,0.5654720999999999,-1
31,32,1583936066887,-0.8064,0.3974,0.42589998,8.548353,2.0513616000000003,1.9962950000000002,-1
32,33,1583936066897,-1.2646998999999999,0.37919998,2.0807,7.366786,2.0975217999999995,3.6124384,-1
33,34,1583936066908,-2.6618,0.37559998,3.5312,5.5643735,2.0665023000000002,4.1959343,-1
34,35,1583936066918,-4.4007,0.3357,3.9801998,4.5197163,2.323362,4.125076,-1
35,36,1583936066928,-5.1994,0.60859996,3.7754,4.582157,2.6128880000000003,3.3797317000000002,-1
36,37,1583936066938,-5.0703,0.81509995,3.1311,5.2801056,2.5430062,2.5901813999999996,-1
37,38,1583936066948,-4.3668,0.7594,2.3521,5.559691,2.3915585999999998,1.9085714,-1
38,39,1583936066959,-4.0975,0.59,1.5185,5.216275700000001,2.094505,1.2164077,-1
39,40,1583936066969,-4.5944,0.3082,0.9424,4.2537975,1.6793601999999999,0.99075896,-1
40,41,1583936066980,-5.4151,-0.0109,0.8771,3.7910267999999996,1.4181241000000002,1.4866268999999999,-1
41,42,1583936066990,-5.981,-0.2877,1.6435,3.0819313999999998,1.4501104,2.508798,-1
42,43,1583936067000,-7.4565997,0.45819998,2.4531999,2.08127,2.1392192999999997,2.3188992,-1
43,44,1583936067010,-7.4565997,0.45819998,2.4531999,1.4273847,2.5298762000000004,1.7718146000000001,-1
44,45,1583936067020,-8.269999499999999,1.0286,1.8646,0.51515555,2.5498056,0.53107226,-1
45,46,1583936067030,-9.344399000000001,0.57269996,0.2051,0.40334636,1.6316868,-0.060247693,-1
46,47,1583936067041,-9.344399000000001,0.57269996,0.2051,0.749117,0.30731016,-0.39361632,-1
47,48,1583936067051,-8.2926,-2.4231,-0.5951,1.6159808999999998,-1.6611164,-1.1397549,-1
48,49,1583936067061,-7.7623997000000005,-3.1474,-1.4800999,2.031346,-2.3079817000000005,-2.2215319,-1
49,50,1583936067071,-7.7977996,-2.8725,-2.0746999,1.8991383000000002,-2.0569544,-2.7044330000000003,-1
50,51,1583936067081,-8.3907995,-2.1376,-1.5522,1.216015,-1.3842125,-2.061829,-1
51,52,1583936067092,-8.3907995,-2.1376,-1.5522,0.4702691,-0.8487062,-1.3128556999999998,-1
52,53,1583936067102,-9.991199499999999,-1.2752,-0.047,-0.28757235,-1.5217450000000001,-0.9052285,-1
53,54,1583936067112,-9.778999,-2.5003,-0.82559997,0.5431007,-3.2028387,-2.2736201,-1
54,55,1583936067122,-8.0596,-4.0621,-2.8025,2.1915374,-4.615781299999999,-3.9808679,-1
55,56,1583936067133,-5.7521996,-5.1822,-4.5801,4.692099,-6.068544999999999,-5.798019,-1
56,57,1583936067143,-4.5546,-5.6898,-5.2791,5.244671299999999,-6.612507300000001,-6.0543523,-1
57,58,1583936067153,-4.6078997,-5.7731,-4.5532,4.904876,-6.8481164,-4.781039,-1
58,59,1583936067163,-5.1499,-5.7103996,-2.9162,4.3957157,-7.089107,-3.2272307999999996,-1
59,60,1583936067173,-5.2002997,-5.7713,-2.1269999,4.698765,-7.402699,-3.1229486,-1
60,61,1583936067184,-4.3031,-5.8624997,-3.2187,5.95212,-7.7519364,-4.5914946,-1
61,62,1583936067194,-2.6371,-5.9691,-5.2601,7.893989,-8.423184,-6.641621000000001,-1
62,63,1583936067204,-2.6371,-5.9691,-5.2601,8.760757,-9.082854,-6.599176400000001,-1
63,64,1583936067214,-0.5667,-6.9083,-5.6366,8.743260000000001,-9.887852,-5.521612999999999,-1
64,65,1583936067224,-0.8174,-7.4652,-4.8104997,8.503889,-10.961086,-4.988051400000001,-1
65,66,1583936067234,-0.6983,-8.1186,-5.2026,8.867644,-11.647006,-5.9242606,-1
66,67,1583936067244,0.7356,-8.4172,-6.6912,10.9853735,-11.962800999999999,-6.9131713,-1
67,68,1583936067254,3.5375997999999997,-8.2101,-7.2099,13.757570999999999,-12.052642,-7.209094500000001,-1
68,69,1583936067264,5.3419,-8.0183,-7.5223,14.542304999999999,-12.126613,-6.948998,-1
69,70,1583936067274,5.5722,-7.9245996,-7.0607996,13.975903500000001,-12.318100999999999,-6.232337,-1
70,71,1583936067284,4.3712,-7.9908996,-6.6109,12.275311,-12.979743,-5.64343,-1
71,72,1583936067295,3.6636998999999997,-8.561299,-6.2581997000000005,12.818145,-13.901558999999999,-5.070057,-1
72,73,1583936067305,5.2019,-9.2499,-6.0643997,14.826754999999999,-14.591798,-5.24696,-1
73,74,1583936067315,7.6942,-9.562799,-6.6608,17.497114,-14.877829,-6.123439,-1
74,75,1583936067325,10.3166,-9.289,-7.7752,19.219416,-14.454820999999999,-6.765736,-1
75,76,1583936067335,11.4866,-8.686999,-8.1394,19.162271,-14.2358465,-6.4115,-1
76,77,1583936067345,10.9969,-8.4698,-7.5238,18.156918,-14.3295555,-5.440335,-1
77,78,1583936067356,10.054299,-8.4461,-6.6296,17.466103,-14.379346,-4.8451557,-1
78,79,1583936067366,9.746699000000001,-8.3208,-6.179199700000001,17.672953,-14.259109,-4.616203,-1
79,80,1583936067376,10.590099,-8.0475,-6.151,18.736582000000002,-14.027714000000001,-4.6467624,-1
80,81,1583936067386,11.642699,-7.6554,-6.2123,19.44833,-13.626781,-4.349977,-1
81,82,1583936067396,12.0835,-7.2576,-5.6868,19.080475,-13.52181,-3.158728,-1
82,83,1583936067406,11.6213,-7.1133,-4.3475,18.309467,-13.603213,-1.6769085,-1
83,84,1583936067416,10.8944,-7.2216,-2.8334,17.817495,-13.939129000000001,-0.645563,-1
84,85,1583936067427,10.536699,-7.5291996,-1.8039,17.949607999999998,-14.148669,0.20623654,-1
85,86,1583936067437,10.757899,-7.6917995999999995,-0.86249995,18.311228,-14.307940499999999,0.89961654,-1
86,87,1583936067447,11.123899,-7.7917,-0.1708,18.540592,-14.122017000000001,1.506652,-1
87,88,1583936067457,11.2564,-7.5793,0.5877,18.24785,-13.785517,2.599308,-1
88,89,1583936067467,10.7782,-7.2353997,1.8535,17.422089,-13.337628,3.6550171000000002,-1
89,90,1583936067477,9.8861,-6.8775,2.9241,16.930357,-12.971248,4.3904586,-1
90,91,1583936067488,9.3891,-6.5902,3.7201,16.657246,-12.582623,4.999955,-1
91,92,1583936067498,9.017099,-6.3019,4.4639,16.272488,-12.094147999999999,5.845022,-1
92,93,1583936067508,8.5857,-6.0127,5.286299700000001,15.554333999999999,-11.622738,6.664853999999999,-1
93,94,1583936067518,7.7430997,-5.6837,6.2110996,14.561028,-11.092078,7.6098647,-1
94,95,1583936067528,6.6289,-5.3139,7.263099700000001,13.654639000000001,-10.614732,8.110282000000002,-1
95,96,1583936067538,5.5901,-5.0168,7.8531,13.243862,-10.227598,7.7668095,-1
96,97,1583936067549,5.0513997,-4.7988,7.5895,13.219613,-10.018183,7.5828776,-1
97,98,1583936067559,4.9054,-4.7967997,7.4793,12.926822,-9.704121,7.866801,-1
98,99,1583936067569,4.4821,-4.6937,7.8507,12.151378,-9.267237,8.1471815,-1
99,100,1583936067579,3.5737,-4.4858,8.2389,11.10175,-8.619941,8.073622,-1
100,101,1583936067590,2.3887,-4.0947,8.2866,9.940391,-7.7046466,8.150274000000001,-1
101,102,1583936067600,1.0891,-3.4559,8.4844,8.863479,-7.1037784,8.369421,-1
102,103,1583936067610,-0.1043,-3.1289999999999996,8.8049,7.986778999999999,-6.675436500000001,8.165817,-1
103,104,1583936067620,-1.1007,-2.9882,8.7043,7.347556,-6.2474870000000005,7.571519,-1
104,105,1583936067630,-2.3997,-2.58,7.5941997,6.8432889999999995,-5.629956,6.859789999999999,-1
105,106,1583936067641,-2.6745,-2.2299,7.3178997,6.597184700000001,-5.009513,6.5363913,-1
106,107,1583936067650,-3.1357,-1.7113,6.7258997,6.1977835,-4.178792,5.923236,-1
107,108,1583936067660,-3.1357,-1.7113,6.7258997,5.801189,-3.4497093999999997,5.634859,-1
108,109,1583936067670,-3.6859,-1.0045,6.3448997,5.476851,-3.1636407,5.593564,-1
109,110,1583936067680,-4.061,-0.93369997,6.318,5.1615157,-3.1152012000000004,5.2977266,-1
110,111,1583936067690,-4.5952,-1.6228,5.7995,5.029155,-3.6741612,4.9903398,-1
111,112,1583936067701,-4.5952,-1.6228,5.7995,5.1512785,-4.2100887,4.6047587,-1
112,113,1583936067711,-4.4428,-2.501,4.8819,5.237794999999999,-3.7901456,3.926395,-1
113,114,1583936067721,-4.6755,-1.959,4.089299700000001,4.9393720000000005,-3.035273,3.1579422999999998,-1
114,115,1583936067731,-5.2576,-1.3799,3.6634998,4.348262999999999,-2.2149909,2.8235490000000003,-1
115,116,1583936067741,-6.0902,-0.6893,3.5691,3.4626187999999996,-1.3392686000000003,2.7281928,-1
116,117,1583936067752,-7.0943,-0.18429999,3.4852998,2.501443,-0.6801065,2.6487627000000002,-1
117,118,1583936067762,-7.7795997,0.31919998,3.3873,1.8643553,-0.0024612392,2.5028794,-1
118,119,1583936067772,-8.4211,0.8204,2.9248,1.2360879999999999,0.69349486,1.7849253,-1
119,120,1583936067782,-8.4312,0.8833,2.1389,1.6380649999999999,0.57767296,0.9019724,-1
120,121,1583936067792,-7.4778,0.27399999999999997,1.2824999,2.8361520000000002,-0.13790601,-0.057499148,-1
121,122,1583936067802,-6.0432,-0.3885,0.1109,4.2078385,-0.4861666,-1.3474758999999998,-1
122,123,1583936067813,-5.1094,-0.3676,-0.8756,4.736717,-0.2512092,-2.0679965,-1
123,124,1583936067823,-5.1952,-0.059699997000000005,-1.2551999,4.4530144,0.051389147,-2.3117932999999997,-1
124,125,1583936067834,-5.9666,0.1707,-1.5709,3.479915,0.3967671,-2.7622576000000003,-1
125,126,1583936067844,-6.5506997,0.355,-1.9417,3.2413852000000003,0.69400245,-3.1305432,-1
126,127,1583936067854,-6.2425,0.67179996,-2.0881,3.7746122000000004,1.0543873,-3.2049646000000003,-1
127,128,1583936067864,-5.6022,1.0076,-2.1275,4.326504,1.3597342,-3.3833902,-1
128,129,1583936067874,-5.3166,1.094,-2.6296,4.430039,1.3410403,-4.1613717,-1
129,130,1583936067884,-5.3364,1.0148,-3.2689998,4.4159136,1.2083343999999998,-4.629754,-1
130,131,1583936067894,-5.1312,0.7206,-3.8521998,5.1119943,0.64185673,-5.327194,-1
131,132,1583936067906,-4.1905,0.1707,-4.3933,6.67513,0.034083854,-5.550602400000001,-1
132,133,1583936067916,-2.7984,-0.2302,-4.3343,7.8181313999999995,-0.18974528,-4.828616,-1
133,134,1583936067926,-1.8472998999999999,-0.39589998,-3.5491,7.6625179999999995,-0.21210712,-4.212205,-1
134,135,1583936067936,-2.2783,-0.4139,-3.0269999999999997,6.7561979999999995,-0.11731588,-4.0801506000000005,-1
135,136,1583936067947,-3.1403,-0.2821,-2.9442,6.2106069999999995,0.26948178,-4.002368,-1
136,137,1583936067957,-3.5800998,0.0814,-2.8202999,6.238398999999999,0.5285153,-3.7378370000000003,-1
137,138,1583936067967,-3.4610000000000003,0.2473,-2.5483,6.6291423,0.5333994000000001,-3.5306620000000004,-1
138,139,1583936067977,-2.9987,0.20089999,-2.3613,7.2680492,0.33186507,-3.4668998999999996,-1
139,140,1583936067987,-2.35,-0.0185,-2.3179,7.969618,-0.07671022,-3.6528144,-1
140,141,1583936067997,-1.6327,-0.43379998,-2.4989,8.743376,-0.59704685,-3.6585317,-1
141,142,1583936068008,-0.8275,-0.9134,-2.4164999,9.378873,-0.75501627,-3.4844062000000005,-1
142,143,1583936068018,-0.3269,-0.9647,-2.2523,9.352422,-0.74361026,-3.2558367,-1
143,144,1583936068028,-0.45459998,-0.9659,-2.0075,8.964053999999999,-0.73495287,-2.9106312,-1
144,145,1583936068038,-0.83739996,-0.9277,-1.6575999,8.768084,-0.41390002,-2.6506493,-1
145,146,1583936068048,-0.97499996,-0.6289,-1.4550999,8.834882,-0.05544971,-2.7526617,-1
146,147,1583936068058,-0.9066,-0.2699,-1.5652,8.926436,0.13693877,-2.7945123,-1
147,148,1583936068069,-0.80789995,-0.104499996,-1.5996,9.075346000000001,0.14621869,-2.4849419999999998,-1
148,149,1583936068078,-0.66899997,-0.0933,-1.2723,9.119218,0.11781388,-2.0344682,-1
149,150,1583936068088,-0.62759995,-0.12889999,-0.70489997,9.093063,0.03548207,-1.7232698,-1
150,151,1583936068098,-0.64489996,-0.2201,-0.49949998,9.220301,-0.029812599,-1.9865171000000001,-1
151,152,1583936068108,-0.4475,-0.2076,-0.8204,9.721618,0.26180118,-2.5263232999999996,-1
152,153,1583936068119,-0.0061,0.0637,-1.2590000000000001,10.003635000000001,0.4818762,-2.5697925,d
153,154,1583936068129,0.26749998,0.2945,-1.3120999,9.940132,0.46695554,-2.1725178,-1
154,155,1583936068139,0.198,0.2844,-0.9156,9.677766,0.47042233,-1.8705898999999997,-1
155,156,1583936068149,-0.057299998,0.2977,-0.62409997,9.333135,0.46663950000000004,-1.7650055,-1
156,157,1583936068160,-0.46899998,0.2789,-0.48549998,9.143073,0.37331352,-1.5743023999999999,-1
157,158,1583936068170,-0.5956,0.20199999,-0.3217,9.293352,0.41472363,-1.5310728999999998,-1
158,159,1583936068180,-0.073,0.3655,-0.3858,9.716102000000001,0.53579366,-1.7119883000000002,-1
159,160,1583936068190,0.13409999,0.4279,-0.4728,9.866563000000001,0.57570016,-1.7579952,-1
160,161,1583936068201,0.13409999,0.4279,-0.4728,9.728082,0.45907380000000003,-1.5782481000000002,-1
161,162,1583936068211,-0.0212,0.2016,-0.115899995,9.72451,0.26318982,-1.3903033999999999,-1
162,163,1583936068221,0.0865,-0.0839,-0.0661,9.857465,-0.045279145,-1.3742238000000002,-1
163,164,1583936068231,0.34109998,-0.2214,-0.0969,10.111854,-0.19100942,-1.4500339,-1
164,165,1583936068242,0.56589997,-0.2807,-0.48439997,10.319383,-0.24997382,-1.8999043999999998,-1
165,166,1583936068252,0.73149997,-0.26549998,-1.0611,10.562863,-0.15751931,-2.3982143,-1
166,167,1583936068262,0.94659996,-0.0423,-0.91819996,10.681396000000001,-0.0033423058,-2.1368442,-1
167,168,1583936068272,0.7018,-0.024999999,-0.5432,10.236285,-0.041764453,-1.6247723,-1
168,169,1583936068282,0.1635,-0.0541,0.052699998,9.784758,-0.040270474,-1.1262228,-1
169,170,1583936068292,-0.3157,-0.0543,0.4737,9.289847,-0.0037828386,-0.84285474,-1
170,171,1583936068303,-0.5015,-0.0477,0.3401,9.278814,0.009394848,-1.087092,-1
171,172,1583936068314,-0.2276,-0.0011999999,0.1095,9.687304,0.07273584599999999,-1.2390186,-1
172,173,1583936068324,0.1726,0.0246,0.0088,10.017455,0.022610841,-1.2917484,-1
173,174,1583936068334,0.4156,-0.083,-0.0368,10.223978,-0.17372328,-1.39943,-1
174,175,1583936068344,0.5703,-0.2305,-0.3092,10.34072,-0.24943751,-1.6906223999999999,-1
175,176,1583936068354,0.5778,-0.22459999,-0.49449998,10.256606,-0.27453834,-1.7853084,-1
176,177,1583936068365,0.5072,-0.1964,-0.6279,10.257017999999999,-0.18536867,-1.8683870999999999,-1
177,178,1583936068375,0.5355,-0.058199997999999996,-0.6173,10.216547,-0.05104438,-1.7971165,-1
178,179,1583936068385,0.44689998,0.0233,-0.49179998,10.075108,-0.01274673,-1.5127428,-1
179,180,1583936068396,0.2219,0.0099,-0.1441,9.794880000000001,-0.030511707000000002,-1.0799382,-1
180,181,1583936068406,-0.0512,-0.026099999,0.29819998,9.545509,-0.10377428,-0.7446159000000001,-1
181,182,1583936068416,-0.275,-0.15879999,0.6163,9.306339,-0.23879768,-0.3990081,-1
182,183,1583936068426,-0.4696,-0.2478,0.90309995,9.268798,-0.2079891,-0.3087371,-1
183,184,1583936068436,-0.44919997,-0.21169999,0.9091,9.3811245,-0.08956230000000001,-0.7272053,-1
184,185,1583936068447,-0.3317,-0.0683,0.4175,9.573876,-0.026805482999999998,-1.2687066999999999,-1
185,186,1583936068457,-0.1069,-0.015099999499999999,-0.0985,9.842889,-0.025838224,-1.6529758999999997,-1
186,187,1583936068467,0.1371,-0.0069,-0.45,10.054805,-0.11114842400000001,-1.8095758999999998,-1
187,188,1583936068477,0.3618,-0.0969,-0.5652,10.204767,-0.21000022,-1.8108401,-1
188,189,1583936068487,0.47919998,-0.15269999,-0.56769997,10.199243,-0.21709663,-1.682664,-1
189,190,1583936068498,0.45979998,-0.1762,-0.38959998,10.092432,-0.33039024,-1.2652111000000001,-1
190,191,1583936068508,0.3328,-0.2945,0.0755,9.832737,-0.39583817,-0.89710736,-1
191,192,1583936068518,0.0879,-0.34739998,0.3524,9.62765,-0.3536236,-0.8285853000000001,-1
192,193,1583936068528,-0.1577,-0.2914,0.4165,9.370215,-0.27684635,-0.94661945,-1
193,194,1583936068538,-0.36479998,-0.2218,0.2895,9.446639,-0.19372922,-1.1243937,-1
194,195,1583936068549,-0.2974,-0.1366,0.0929,9.646392,-0.20558532,-1.6371455,-1
195,196,1583936068559,-0.0924,-0.1347,-0.42479998,9.970941,-0.24270502,-1.8524705000000001,-1
196,197,1583936068569,0.23089999,-0.1609,-0.64309996,10.209489,-0.29420906,-1.5152424999999998,-1
197,198,1583936068579,0.47619998,-0.2005,-0.30879998,10.099088,-0.42278728,-1.1475886999999998,-1
198,199,1583936068590,0.3585,-0.3242,0.062699996,9.800914,-0.4020535,-0.9983341999999998,-1
199,200,1583936068600,-0.113699995,-0.1116,0.2462,9.628914,-0.16120639999999997,-0.94493395,-1
200,201,1583936068610,-0.1248,0.0337,0.24579999,9.604493,-0.057508725999999996,-0.9180136000000001,-1
201,202,1583936068620,-0.22399999,0.0625,0.36409998,9.501217,-0.04631344,-0.79775757,-1
202,203,1583936068630,-0.22399999,0.0625,0.36409998,9.426872,-0.08897811,-0.82541543,-1
203,204,1583936068640,-0.47039998,-0.030499997999999997,0.16699999999999998,9.2569895,-0.11866622,-1.0506524,-1
204,205,1583936068650,-0.47039998,-0.030499997999999997,0.16699999999999998,9.351465,-0.05656062,-1.3048686999999999,-1
205,206,1583936068661,-0.0691,0.19659999,-0.4493,9.748097,0.13216951,-1.6156552,-1
206,207,1583936068671,0.1856,0.2695,-0.33499998,9.969791,0.14665923,-1.4357932,-1
207,208,1583936068681,0.2541,0.16309999,-0.0818,9.994106,0.015246276999999999,-1.1900332,-1
208,209,1583936068691,0.1953,0.1409,0.0836,9.908538,-0.0054970869999999995,-1.0579976999999998,-1
209,210,1583936068701,0.1953,0.1409,0.0836,9.771063,-0.006512228399999999,-1.0248811,-1
210,211,1583936068711,-0.0307,0.1192,0.0687,9.726349,-0.02930503,-1.1356752,-1
211,212,1583936068721,0.0372,0.2401,-0.3392,9.822728999999999,0.16597563,-1.5191401000000002,-1
212,213,1583936068732,0.174,0.4499,-0.43249997,9.908528,0.3257551,-1.5446431999999999,-1
213,214,1583936068742,0.0661,0.4718,-0.32529998,9.721541,0.2979632,-1.3753826999999998,-1
214,215,1583936068752,-0.0903,0.3663,-0.086799994,9.704761999999999,0.14969507,-1.1070597,d
215,216,1583936068763,0.1259,0.1864,0.1521,10.006509,-0.068569936,-0.9677555,-1
216,217,1583936068773,0.46949998,-0.0672,0.124699995,10.350354,-0.33854014,-1.0995419,-1
217,218,1583936068783,0.74399996,-0.22129999,-0.12329999,10.625975,-0.44146207,-1.4054347,-1
218,219,1583936068793,1.0764999,-0.2198,-0.4378,10.981849,-0.42255744,-1.6429013,-1
219,220,1583936068804,1.3888999,-0.22199999,-0.62799996,11.222754,-0.50210243,-1.7631188999999998,-1
220,221,1583936068814,1.6227,-0.3284,-0.6123,11.466569,-0.5923351,-1.6431981,-1
221,222,1583936068824,1.7487999,-0.4614,-0.53569996,11.504359,-0.7907474,-1.6497006,-1
222,223,1583936068834,1.7669,-0.6798,-0.5857,11.676206,-1.1027501,-1.700793,-1
223,224,1583936068844,2.0105999,-1.0705,-0.6261,11.910703,-1.3631723,-1.6562991999999999,-1
224,225,1583936068854,2.4696,-1.2703999,-0.5315,12.590648,-1.4180473,-1.4927368,-1
225,226,1583936068865,3.0165,-1.2513,-0.4123,12.908483,-1.3155086,-1.3490368000000001,-1
226,227,1583936068875,3.1022,-1.1840000000000002,-0.2269,12.650703,-1.2369117,-1.051476,-1
227,228,1583936068885,2.6678998,-1.1560999,0.07279999599999999,12.150324000000001,-1.2238296999999998,-0.80017096,-1
228,229,1583936068896,2.273,-1.2701,0.2518,12.0922985,-1.2545617,-0.6428719,-1
229,230,1583936068906,2.3783998,-1.2917,0.2827,12.392225,-1.083089,-0.73745245,-1
230,231,1583936068916,2.8465998,-1.0912,0.0844,12.910924000000001,-0.81308043,-1.0135995999999998,-1
231,232,1583936068926,3.2856998,-0.8591,-0.3592,13.184351999999999,-0.57017434,-1.5360049,-1
232,233,1583936068936,3.4411,-0.6906,-0.8283,13.218742,-0.33083078,-1.5955151,-1
233,234,1583936068946,3.4115,-0.5625,-0.6306,12.913807,-0.32336086,-0.7446541999999999,-1
234,235,1583936068957,3.0305,-0.6716,0.253,12.429929,-0.5124358,-0.0066846116,-1
235,236,1583936068967,2.5723999,-0.965,0.87799996,12.133230000000001,-0.62222433,0.25436956,-1
236,237,1583936068978,2.3404999,-1.1029999,1.0720999,12.078155,-0.5757768,0.19131587,-1
237,238,1583936068988,2.3244998,-1.0615,0.85889995,12.099260000000001,-0.32566887,-0.15424405,-1
238,239,1583936068998,2.3278,-0.9279999999999999,0.5693,12.029417,-0.12571475,-0.5470751,-1
239,240,1583936069009,2.2719998,-0.83169997,0.22219999,12.0592785,0.066328965,-1.1428770000000001,-1
240,241,1583936069019,2.3051,-0.7363,-0.3994,12.083957,0.16699079,-1.5503988000000002,-1
241,242,1583936069029,2.3301,-0.7048,-0.8156,11.710922,0.17050546,-1.2379459,-1
242,243,1583936069039,1.9654,-0.7924,-0.5042,10.955427,-0.04025132,-0.6066524,-1
243,244,1583936069049,1.2211,-1.0791,0.13069999,10.203676,-0.37339967,0.21513339999999997,-1
244,245,1583936069059,0.4886,-1.5202,0.94229996,9.581892,-0.43460506,0.9909121999999999,-1
245,246,1583936069070,-0.1251,-1.6895,1.7168,9.035822,-0.15928145,0.94624597,-1
246,247,1583936069080,-1.038,-1.1981,0.9359999999999999,8.544494,0.35229242,0.12831005,-1
247,248,1583936069090,-1.4837999,-1.1024,0.5225,8.11258,0.5330738,-0.23955424,-1
248,249,1583936069100,-1.6933999,-0.96389997,0.39839998,7.9273357,0.7581766,-0.27469155,-1
249,250,1583936069110,-1.6933999,-0.96389997,0.39839998,7.8346032999999995,0.9261538,-0.2992848,-1
250,251,1583936069121,-2.208,-0.9558,0.1819,7.3121410000000004,0.92606765,-0.54749644,-1
251,252,1583936069131,-2.7566,-1.0143,0.12109999,6.701035000000001,0.984716,-0.5646581,-1
252,253,1583936069141,-3.3127,-0.9790000000000001,0.5858,6.1405625,1.1072704,-0.0033997665000000004,-1
253,254,1583936069151,-4.0137997,-1.0059,0.96519995,5.3735943,1.208775,0.24779029,-1
254,255,1583936069161,-4.7525997,-0.87659997,0.9331,4.633776,1.4678754999999999,0.17361793,-1
255,256,1583936069172,-5.4321,-0.71459997,0.80249995,3.7929614000000003,1.8488791,-0.0032848446,-1
256,257,1583936069182,-6.0144,-0.3304,0.7173,3.3484251000000005,2.265116,-0.09402508,-1
257,258,1583936069192,-6.343499700000001,0.0545,0.4845,3.0791732999999994,2.7186353,-0.38692215,-1
258,259,1583936069202,-6.343499700000001,0.0545,0.4845,3.195656,3.3977745,-0.80154043,-1
259,260,1583936069212,-6.1134996,1.0487,-0.1601,3.2550895,4.049955000000001,-1.1412776000000002,-1
260,261,1583936069222,-6.3476996,1.7527,-0.2943,2.7190277999999997,4.8752556,-1.0604494,-1
261,262,1583936069233,-7.2681,2.3790998,-0.1239,1.6567779999999999,5.3449693,-1.0790666000000002,-1
262,263,1583936069243,-8.2295,2.6487,-0.243,0.8365245000000001,5.6747559999999995,-1.2330809999999999,-1
263,264,1583936069253,-8.6958,2.9533,-0.3486,0.631351,5.968917,-1.3169066999999999,-1
264,265,1583936069263,-8.6584,3.0033998,-0.3963,0.6332568000000001,5.848058,-1.5390886000000001,-1
265,266,1583936069274,-8.7743,2.6608,-0.9266,0.49623182,5.4246097,-2.1156986,-1
266,267,1583936069284,-8.8076,2.3353999,-1.1947,0.6115653,5.1995835,-2.2369986,-1
267,268,1583936069294,-8.6101,2.3386,-1.2372,1.0023181,5.3325477,-2.1413932,-1
268,269,1583936069305,-8.1809,2.5606,-0.9853,1.3778343000000002,5.5192194,-1.8208,-1
269,270,1583936069315,-7.8128,2.7417,-0.5182,1.6983701,5.432932,-1.1368628,-1
270,271,1583936069326,-7.711,2.5569,0.17600000000000002,1.4060190000000001,5.0456080000000005,-0.64558214,-1
271,272,1583936069335,-8.2076,2.2012,0.6224,0.7815249,4.4757586,-0.29869103,-1
272,273,1583936069345,-8.879499000000001,1.5661,0.82989997,0.27218243,3.6708474,-0.50690037,-1
273,274,1583936069355,-9.1657,0.9346,0.5607,0.45715845,3.1757076,-0.6283821999999999,-1
274,275,1583936069365,-8.8194,0.62189996,0.5372,0.7771579000000001,2.9036114,-0.8292461,-1
275,276,1583936069376,-8.655399000000001,0.6829,0.4342,0.7368011999999999,3.0353594,-0.5766387,-1
276,277,1583936069386,-8.966599,0.9363,0.7384,0.36673427,2.8881349999999997,-0.43170329999999996,-1
277,278,1583936069396,-9.0259,0.85359997,0.5634,1.5808818,2.3112571,-1.371686,-1
278,279,1583936069406,-7.6338,0.4012,-0.41,3.4552254999999996,1.0532188,-1.9788269,-1
279,280,1583936069416,-5.8831997000000005,-0.821,-0.7941,4.377032,-0.6085581999999999,-1.5801828000000002,-1
280,281,1583936069426,-5.3004,-2.1741,-0.21609999,3.7104285000000004,-1.7752430000000001,-1.0133219,-1
281,282,1583936069437,-6.2116,-3.0354,0.3105,2.5660768,-2.256602,-0.5999869000000001,-1
282,283,1583936069447,-7.3220997,-3.1183999,0.8104,1.6852593,-2.294268,0.045480255,-1
283,284,1583936069457,-8.1732,-3.0131997999999998,1.3611,1.241269,-2.5974407000000004,0.47493303,-1
284,285,1583936069467,-8.4053,-3.2761998,1.9911,2.2931855,-2.8912953999999997,1.4351133,-1
285,286,1583936069477,-7.0771,-2.9689999,2.5182,4.391665,-2.5929875,1.6708176,-1
286,287,1583936069488,-5.0144997,-2.4217,2.4248,6.2888207000000005,-2.6124475,0.7362841,-1
287,288,1583936069498,-3.4963,-2.1518,1.4085,6.530530000000001,-3.129509,0.15980819,-1
288,289,1583936069508,-3.3553,-2.6454,0.6976,5.7081885,-4.466182,0.29029217,-1
289,290,1583936069518,-4.1439,-3.6267,1.0119,5.2631354,-5.2931395,1.1449839,-1
290,291,1583936069528,-4.5417,-4.1154,1.8830999,4.6587334,-6.3762474000000005,1.7305769,-1
291,292,1583936069538,-5.0109997,-4.7746,2.2986,5.2184305,-7.533566499999999,1.7336509999999998,-1
292,293,1583936069549,-4.4024997,-5.631,2.2224998,7.0349884000000005,-8.3038,1.2163886000000002,-1
293,294,1583936069559,-2.5242999,-6.077999999999999,1.5695,9.499378,-9.129465,1.1358476,-1
294,295,1583936069569,0.0201,-6.5530996,1.3132,11.545185,-9.800809,0.95782435,-1
295,296,1583936069579,2.1708,-6.8766,0.97319996,11.987654,-10.435281,0.71258146,-1
296,297,1583936069589,2.7252,-7.1657,0.5936,11.249885,-10.981245,1.2585263999999998,-1
297,298,1583936069599,1.9999,-7.461199799999999,1.1322,10.164344,-11.294475,2.1459037999999997,-1
298,299,1583936069609,1.1503,-7.4276,1.8161,9.990428999999999,-11.016210000000001,2.046075,-1
299,300,1583936069619,1.1014999,-6.8782997,1.6012,10.6289625,-10.565679,1.0357509,-1
300,301,1583936069629,1.8763,-6.1594996,0.45569998,11.683053,-10.298601,0.5041327,-1
301,302,1583936069639,3.0737997999999997,-5.6196,-0.21100000000000002,12.233806,-10.678398,1.3113331,-1
302,303,1583936069650,3.8272,-5.8595,0.8484,11.689374,-11.337129,3.2374394,-1
303,304,1583936069660,2.3553,-6.3174996,3.0442,10.284360000000001,-11.799076,4.103891399999999,-1
304,305,1583936069671,1.8639,-6.1661997,3.5291997999999998,9.798461999999999,-11.863461000000001,4.6656002999999995,-1
305,306,1583936069681,2.2997,-6.1822,3.5986998,10.222897,-12.145717999999999,4.622380000000001,-1
306,307,1583936069691,3.6813,-6.1235,2.4034,11.552052,-12.247318,3.315864,-1
307,308,1583936069702,5.6148,-5.9105,0.35119998,13.303228,-12.374661,1.446165,-1
308,309,1583936069712,8.0234995,-6.1383,-0.7468,15.609820999999998,-12.812503,0.6880744000000001,-1
309,310,1583936069722,9.8573,-6.1707997,-0.88409996,16.84658,-12.992184,0.7083198,-1
310,311,1583936069732,9.5043,-6.1884,-0.4217,15.613643,-13.224373000000002,1.5061828000000002,-1
311,312,1583936069742,8.092299,-6.1414,0.51739997,14.141448,-13.23644,2.5269362999999996,-1
312,313,1583936069752,7.1631,-5.8058,1.5087999,13.293201000000002,-12.8737755,3.4094677000000004,-1
313,314,1583936069763,6.7342,-5.2358,2.1845,12.784156,-12.502474000000001,4.027468700000001,-1
314,315,1583936069773,6.2752,-4.7752,2.3767,12.073232,-12.139274,4.0256680000000005,-1
315,316,1583936069783,5.7054996,-4.2876997,1.9514999,11.49573,-11.733044,3.5047282999999996,-1
316,317,1583936069793,5.7583,-3.7719,1.2056999,11.643511,-11.36405,2.6737967,-1
317,318,1583936069803,6.154,-3.4415998,0.051999997,11.881408,-11.185126,1.6041918,-1
318,319,1583936069813,6.5508,-3.3056,-0.6249,12.174362,-11.240471000000001,1.5921059,-1
319,320,1583936069823,6.6403,-3.3641,0.2884,11.740169,-11.329181,2.8165292999999996,-1
320,321,1583936069833,5.586,-3.3265998,1.4958,10.325416,-11.287742,3.7640392999999994,-1
321,322,1583936069843,4.2015,-3.0656998,2.0065,9.056135000000001,-10.963873,3.9028647000000003,-1
322,323,1583936069853,3.4234998,-2.7624,1.9376999,8.570764,-10.848013,3.8759252999999996,-1
323,324,1583936069864,3.4468,-2.7259,1.9909999,8.670428,-10.8264265,3.8222473,-1
324,325,1583936069874,3.5842998,-2.5837998,1.4621998999999999,8.695875,-10.696057000000001,3.258298,-1
325,326,1583936069884,3.6710000000000003,-2.2014,0.461,8.772116,-10.224295,2.0004897,-1
326,327,1583936069894,3.8256997999999998,-1.9809999999999999,-0.2863,8.9226055,-10.083553,1.5854021,-1
327,328,1583936069904,4.0520997,-1.8044,-0.58849996,9.030709,-9.973957,1.4416255,-1
328,329,1583936069914,4.0141,-1.6034,-0.6095,8.696036999999999,-9.653124,1.687328,-1
329,330,1583936069924,3.4982,-1.2516999,-0.1628,7.84397,-9.242308,2.1948125,-1
330,331,1583936069935,2.4515,-0.89629996,0.3249,6.750145,-9.150946000000001,2.536628,-1
331,332,1583936069945,1.561,-0.9659,0.6836,6.363539,-9.301894,2.8629959,-1
332,333,1583936069955,1.5314,-1.0149,0.82129997,6.748775999999999,-9.290258,2.6803951,-1
333,334,1583936069965,2.0887,-1.0620999,0.5538,7.323518300000001,-9.259335499999999,2.4750586,-1
334,335,1583936069975,2.4887,-0.8951,0.3011,7.288342999999999,-8.936731,2.0584867,-1
335,336,1583936069986,2.3021998,-0.6637,-0.0576,6.952551400000001,-8.893722,2.0053546000000004,-1
336,337,1583936069996,1.9298999,-0.6035,0.0682,6.709166000000001,-8.748672000000001,2.407705,-1
337,338,1583936070006,1.5995,-0.46789998,0.4152,6.278315,-8.643164,2.508769,-1
338,339,1583936070016,1.1865,-0.4035,0.3793,5.997082700000001,-8.656361,2.247035,-1
339,340,1583936070026,0.98899996,-0.4676,-0.0221,6.127155,-8.708210000000001,1.8873588,d
340,341,1583936070037,1.2830000000000001,-0.5801,-0.2866,6.4478917000000004,-8.861265,1.8068273999999998,-1
341,342,1583936070047,1.4466,-0.72279996,-0.2716,6.3091044,-8.953826,1.9073455000000001,-1
342,343,1583936070057,1.1719998999999999,-0.82879996,-0.1525,6.0164375,-9.109324,2.203451,-1
343,344,1583936070068,0.88189995,-1.0060999,0.18679999,5.825303,-9.239875999999999,2.5687964,-1
344,345,1583936070078,0.6864,-1.1266,0.54679996,5.7683597,-9.245008,2.8518293,-1
345,346,1583936070088,0.5967,-1.1611,0.76699996,5.809980400000001,-9.317821499999999,2.594491,-1
346,347,1583936070098,0.62299997,-1.2573,0.3831,6.206882,-9.150131,1.9056984000000001,-1
347,348,1583936070108,0.95199996,-1.1208,-0.1927,6.3938975,-8.929272000000001,1.7431511999999998,-1
348,349,1583936070119,1.0831,-0.927,-0.3566,6.197687999999999,-9.034844999999999,1.9575664000000002,-1
349,350,1583936070129,0.7888,-1.1177,-0.037000000000000005,5.919271,-9.319631,2.3967009999999997,-1
350,351,1583936070139,0.5247,-1.3969999999999998,0.2908,6.3334875,-9.405353999999999,2.317482,-1
351,352,1583936070150,0.8936,-1.5081999,0.19,6.997370699999999,-9.427800999999999,2.3125593999999996,-1
352,353,1583936070160,1.8692,-1.5360999,0.57919997,7.419037299999999,-9.381162,2.8045583,-1
353,354,1583936070170,1.8075999,-1.7039,0.7037,7.3864284,-9.51788,2.8542142000000004,-1
354,355,1583936070180,1.8185999,-1.8575,0.47309998,7.5154952999999995,-9.613016,2.6261422999999997,-1
355,356,1583936070190,2.1409,-1.9748,0.4278,7.9465857,-9.710585,2.6486287,-1
356,357,1583936070201,2.1409,-1.9748,0.4278,8.426747,-10.085355,2.7546346,-1
357,358,1583936070211,2.9973998,-2.6952999,0.65059996,8.916285499999999,-10.323358,2.8797648,-1
358,359,1583936070221,3.6076,-2.918,0.46859998,9.689076,-10.458677,2.6503718,-1
359,360,1583936070231,4.6440997,-2.9973998,0.0557,10.815174,-10.480906,2.1846322999999996,-1
360,361,1583936070241,5.5141,-3.1506998999999998,-0.6102,11.732641000000001,-10.578081,1.5319444,-1
361,362,1583936070252,6.3132,-3.3495998,-1.1116999,12.644086,-10.762454,1.0931925,-1
362,363,1583936070262,7.0730996,-3.8790998,-1.0332999,13.571207000000001,-11.306531,1.37499,-1
363,364,1583936070272,7.5706997000000005,-4.3089,-0.3836,14.090816,-11.557195,2.0333669999999997,-1
364,365,1583936070282,7.7672,-4.5153,0.109799996,14.195634,-11.605577,2.4317236,-1
365,366,1583936070292,7.4955997000000005,-4.6776,0.7159,14.045498,-11.667203,3.2966626000000003,-1
366,367,1583936070302,7.331,-4.7876,1.6990999,14.064987,-11.577114,3.9505574999999995,-1
367,368,1583936070312,7.0371,-4.6405997,1.8671999,13.838917000000002,-11.289609,3.946085,-1
368,369,1583936070322,6.4361997,-4.7174997,1.4049,13.330157999999999,-11.123307,3.3356593,-1
369,370,1583936070332,5.9207,-4.547,0.93909997,12.954661,-10.666398,2.904789,-1
370,371,1583936070343,5.3265,-4.1282,0.75619996,12.491489,-9.980889999999999,2.8721322999999996,-1
371,372,1583936070352,5.3265,-4.1282,0.75619996,12.047661,-9.59325,3.0175464,-1
372,373,1583936070362,3.4805,-3.3544998,1.1804999,10.990122999999999,-8.850042,3.245532,-1
373,374,1583936070372,2.4821,-2.8752,1.6396998999999999,10.220435,-8.083677,3.6902692000000004,-1
374,375,1583936070382,1.6948999,-2.3021,2.194,9.568695,-7.213596000000001,4.016896,-1
375,376,1583936070393,0.9066,-1.7778,2.1952,8.95918,-6.50789,3.8101614,-1
376,377,1583936070403,0.9066,-1.7778,2.1952,8.535971,-6.009427,3.7533803,-1
377,378,1583936070413,-0.1768,-1.4474,2.5323,8.412372,-5.9994574,4.242861,-1
378,379,1583936070423,-0.3229,-1.8446,3.2126,8.453974,-6.0899205,4.6964755,-1
379,380,1583936070433,-0.3213,-1.9494,3.4408,8.641363,-5.818763,4.6477203000000005,-1
380,381,1583936070444,-0.4297,-1.6504999,3.3198,8.073736,-4.974433,4.2115636,-1
381,382,1583936070454,-1.4836999,-1.129,2.9972,6.833176,-4.237171599999999,3.7979413999999996,-1
382,383,1583936070464,-2.7654,-0.5839,2.6780999,6.0641875,-3.3223474000000004,3.493418,-1
383,384,1583936070474,-3.3686,0.027199998,2.405,5.765228,-2.6928735,3.1301029,-1
384,385,1583936070485,-3.7148,0.2893,2.1577,5.518453,-2.2888186000000004,2.9236746,-1
385,386,1583936070495,-3.9817998,0.4105,2.2168,5.4520574,-2.044696,3.1956751,-1
386,387,1583936070505,-4.0034,0.2832,2.7265,5.704549299999999,-2.344728,3.7843134,-1
387,388,1583936070515,-3.6634998,-0.3803,3.4452,6.145389,-2.6978345,4.1161404,-1
388,389,1583936070525,-3.3658,-0.70449996,3.5481,6.0222316,-2.4481669999999998,3.582214,-1
389,390,1583936070536,-3.7486,-0.5467,3.0900998,5.272386599999999,-2.0104783,3.1166666000000003,-1
390,391,1583936070546,-4.5874,-0.3392,2.6343,4.572188,-1.8009568,2.4316375,-1
391,392,1583936070556,-5.3524,-0.2434,1.7627,4.289959400000001,-1.5192838,1.6809881999999998,-1
392,393,1583936070566,-5.3862,-0.124,1.1919,4.582253,-1.2519473,1.2273348999999998,-1
393,394,1583936070576,-4.9838,-0.0175,0.9227,4.9802365,-0.9429898999999999,1.1343536,-1
394,395,1583936070586,-4.7544,0.1313,1.0207,5.0937980000000005,-0.5471229999999999,1.3677211999999999,-1
395,396,1583936070597,-4.7082,0.4186,1.29,4.997953400000001,-0.1439011,1.3703454,-1
396,397,1583936070607,-4.7963,0.659,1.3201,5.1383305,-0.10868718,1.1578742,-1
397,398,1583936070617,-4.6068997000000005,0.5311,1.1504999,5.329723,-0.285657,0.89060473,-1
398,399,1583936070627,-4.4253,0.20009999,1.0279,5.562075,-0.8201673,1.4129046,-1
399,400,1583936070637,-4.1932,-0.43609998,1.814,5.713226000000001,-1.2887030000000002,2.3379762000000004,-1
400,401,1583936070648,-4.1074,-0.9227,2.6255,5.459268,-1.5016241000000001,2.087179,-1
401,402,1583936070658,-4.4034,-1.1656,2.2338998,5.1768293,-1.4254215000000001,1.5403813999999998,-1
402,403,1583936070668,-4.6892,-1.0959999999999999,1.7264999,4.840214,-0.9976734,1.0103244,-1
403,404,1583936070678,-5.0333,-0.70159996,1.1935999,4.6859317,-0.38731479999999996,0.04330632,-1
404,405,1583936070688,-5.1217,-0.27249998,0.38689998,5.0828323,0.17079277,-0.73004955,-1
405,406,1583936070699,-4.7286,0.2058,-0.33319998,5.427416,0.49064854,-1.0646726999999998,-1
406,407,1583936070709,-4.2946,0.49589998,-0.58629996,5.773694,0.35059732,-0.61811584,-1
407,408,1583936070719,-4.0365,0.29029998,-0.0951,5.566002,-0.31306583,0.26068070000000004,-1
408,409,1583936070729,-4.2271,-0.40699998,0.8584,5.2764087,-0.8535233,1.4388290000000001,-1
409,410,1583936070740,-4.5143,-0.9988,2.1306,5.0615435,-0.90300673,2.0539377,-1
410,411,1583936070750,-5.0292,-0.70849997,2.4471998,4.653283999999999,-0.29881552,1.1791635,-1
411,412,1583936070760,-5.2693,-0.0972,0.85789996,4.4686145999999995,0.39408562,-0.68110245,-1
412,413,1583936070770,-5.2464,0.47529998,-1.031,4.5984282,0.8445786,-2.284509,-1
413,414,1583936070781,-4.6159,0.8208,-2.1753,5.3466835,1.149418,-3.2951492999999994,-1
414,415,1583936070791,-3.3858,0.98499995,-2.6371,6.6823125,1.1905981,-3.6937839999999995,-1
415,416,1583936070801,-1.9375999,0.4958,-2.5988,8.042487,0.5637579,-3.6747355,-1
416,417,1583936070811,-1.1536,-0.192,-2.0249999,8.631049,-0.1468699,-3.0183318,-1
417,418,1583936070821,-1.3284,-0.81369996,-0.8943,8.274225999999999,-0.73932946,-1.9252446,-1
418,419,1583936070831,-1.3284,-0.81369996,-0.8943,7.754139,-0.9984011999999999,-1.2204298999999998,-1
419,420,1583936070841,-2.3622,-0.9199,0.0433,7.3427773,-0.3877266,-1.5676945,-1
420,421,1583936070852,-2.2807999,-0.3029,-0.26029998,7.4218054,0.067018494,-1.8605915000000002,-1
421,422,1583936070862,-2.2779,-0.078,-0.5875,7.410830000000001,0.23210348,-2.2751906,-1
422,423,1583936070872,-2.2463999,-0.16219999,-0.90959996,7.4818993,0.088135354,-2.7182522000000002,-1
423,424,1583936070882,-2.0202,-0.34719998,-1.2991999,7.7463436,-0.1320546,-3.1640332000000004,-1
424,425,1583936070892,-1.2472,-0.6534,-1.9071,8.900272,-0.50855714,-3.9265866000000003,-1
425,426,1583936070902,0.0923,-0.8832,-2.2825,10.22396,-0.73179257,-4.1249027,-1
426,427,1583936070913,1.1559,-0.9234,-2.1965,11.028919,-0.6546896,-3.9175269999999998,-1
427,428,1583936070923,1.3485999,-0.77849996,-1.8973999,10.731224000000001,-0.5574468000000001,-3.6726384,-1
428,429,1583936070933,0.59389997,-0.7366,-1.6026,9.818132,-0.52467495,-3.5111449,-1
429,430,1583936070943,-0.3242,-0.7601,-1.4614999,9.051566000000001,-0.45447692,-3.3536540999999995,-1
430,431,1583936070953,-0.6999,-0.631,-1.0742999,8.861668,-0.27862763,-2.9808671,-1
431,432,1583936070963,-0.6134,-0.4391,-0.556,9.04857,-0.018473659,-2.3986549999999998,-1
432,433,1583936070974,-0.41939998,-0.27879998,0.1642,9.102727,0.11051635,-1.9466105,-1
433,434,1583936070984,-0.6002,-0.3139,0.3351,8.799361,-0.031469386,-1.9752164,-1
434,435,1583936070994,-0.86319995,-0.561,0.2066,8.816015,-0.2711673,-2.4044008,-1
435,436,1583936071004,-0.51269996,-0.59599996,-0.2716,9.323558,-0.2026165,-2.9576724,-1
436,437,1583936071014,-0.0285,-0.49049997,-0.802,9.698595,-0.14948438,-3.3818674,-1
437,438,1583936071024,0.4734,-0.3423,-1.3496,10.205477,0.00386903,-4.119808,-1
438,439,1583936071035,0.7597,-0.2681,-1.8685,10.360247,0.042635944,-4.2002435,-1
439,440,1583936071046,0.8323,-0.21589999,-1.5963999,10.291533,0.116482705,-3.4801637999999997,-1
440,441,1583936071055,0.6346,-0.1401,-0.731,9.813708,0.06967127,-2.839418,-1
441,442,1583936071065,0.057699997,-0.27249998,-0.25669998,9.182214,-0.08606677,-2.7279055,-1
442,443,1583936071075,-0.48709998,-0.38169998,-0.2056,8.778522500000001,-0.08322245,-2.8808951,-1
443,444,1583936071086,-0.7856,-0.3436,-0.3672,8.637533,-0.006847417,-3.009818,-1
444,445,1583936071096,-0.7317,-0.25149998,-0.4043,8.943972,0.17953639,-3.094927,-1
445,446,1583936071106,-0.318,-0.09219999599999999,-0.4032,9.417468,0.42077616,-3.0950900000000003,-1
446,447,1583936071116,0.022799998999999998,0.1328,-0.3574,9.461349,0.62668705,-2.9815473999999997,-1
447,448,1583936071126,-0.0131,0.30249998,-0.22809999,9.1144285,0.5694178000000001,-2.877993,-1
448,449,1583936071137,-0.39519998,0.1801,-0.1478,8.92569,0.40030092,-2.8743923,-1
449,450,1583936071147,-0.49289998,0.0514,-0.15519999,9.145247,0.30171728,-3.0645113,-1
450,451,1583936071157,-0.1866,-0.0148,-0.40109998,9.622066499999999,0.28275523,-3.4389260000000004,-1
451,452,1583936071167,0.2783,-0.0405,-0.7678,9.883312,0.14303918,-3.8033235,-1
452,453,1583936071178,0.4996,-0.17809999,-1.0716,10.035899,0.116731696,-3.8762510000000003,d
453,454,1583936071188,0.66209996,-0.1673,-1.0623,10.117763,0.17729543,-3.60901,-1
454,455,1583936071198,0.6958,-0.1251,-0.7152,9.917205000000001,0.2550208,-3.1394113999999997,-1
455,456,1583936071208,0.44509998,-0.0363,-0.25169998,9.469183000000001,0.35647747,-2.924594,-1
456,457,1583936071218,-0.0047999997999999995,0.042799998,-0.053,8.970633,0.2577023,-2.7827040000000003,-1
457,458,1583936071229,-0.4267,-0.08549999400000001,0.0332,8.852618,0.22503582,-2.8013406,-1
458,459,1583936071239,-0.49749997,-0.1269,0.015999998999999997,9.369489,0.12103169,-2.7708,-1
459,460,1583936071249,-0.029199999,-0.2173,0.028199999,9.960903,-0.05554548,-2.8777347,-1
460,461,1583936071259,0.55689996,-0.3516,-0.075399995,10.364902,-0.031210814,-3.0423598,-1
461,462,1583936071269,0.9575,-0.3206,-0.24599999,10.439275,0.05953901,-3.8882410000000003,-1
462,463,1583936071279,1.0339999,-0.24589999,-1.105,10.374611999999999,0.10807426,-4.655439,-1
463,464,1583936071290,0.91419995,-0.16929999,-1.9951999,10.1188545,0.27970022,-4.817584,-1
464,465,1583936071300,0.70669997,-0.035499997,-2.0509,9.843263,0.21997924,-4.329119,-1
465,466,1583936071312,0.1716,-0.37579998,-0.8368,9.547338499999999,-0.07480443,-3.4610867999999995,-1
466,467,1583936071322,0.2077,-0.5755,-0.0734,9.6193285,-0.26131275,-2.6491077,-1
467,468,1583936071332,0.1568,-0.67359996,0.22309999,9.491918,-0.24321258,-2.7129276,-1
468,469,1583936071342,0.0164,-0.71639997,-0.327,9.398477999999999,-0.31081527,-3.5704730000000002,-1
469,470,1583936071352,0.070099995,-0.7999,-1.4415,9.536584,-0.34438196,-4.7854247,-1
470,471,1583936071363,0.3186,-0.8193,-2.5797,9.752264,-0.3535853,-5.6390824,-1
471,472,1583936071373,0.53709996,-0.8685,-3.4352,9.980316,-0.40858490000000003,-6.588747,-1
472,473,1583936071383,0.5607,-0.8957,-4.2392,9.847466,-0.34865323,-7.4647570000000005,-1
473,474,1583936071393,0.3015,-0.7583,-4.8736997,9.521951,-0.16306429,-7.8193192,-1
474,475,1583936071404,-0.0731,-0.61399996,-4.7974997,9.070615,-0.06344634,-7.6029024000000005,-1
475,476,1583936071414,-0.6236,-0.74219996,-4.4964,8.385031,-0.21829373,-7.202851,-1
476,477,1583936071424,-1.1657,-0.988,-4.1122,7.9439135,-0.509716,-6.853910000000001,-1
477,478,1583936071434,-1.4749999,-1.3629999,-3.8135,7.9246545,-0.8686451,-6.6739999999999995,-1
478,479,1583936071445,-1.2879,-1.7825999,-3.8274998999999994,8.211106,-1.176798,-7.027164,-1
479,480,1583936071455,-0.8129,-1.9846,-4.7613,8.821713,-1.14937,-8.50409,-1
480,481,1583936071465,-0.4294,-1.8032,-6.2029,8.8702965,-0.8772641999999999,-9.831972,-1
481,482,1583936071475,-0.65,-1.5705,-7.3234,8.428165,-0.76020694,-10.263147,-1
482,483,1583936071485,-1.1927999,-1.5792999,-7.356,7.7916419999999995,-0.85050666,-9.637714,-1
483,484,1583936071495,-1.8391,-1.7624999,-6.4389997,7.303503,-1.0530274,-8.653611999999999,-1
484,485,1583936071506,-2.294,-2.0456,-5.6566997,7.024827,-1.1579126,-8.197392,-1
485,486,1583936071516,-2.2171,-2.0458,-5.4181,7.612728,-0.84256744,-7.6983547,-1
486,487,1583936071526,-1.7198,-1.7973,-4.8996,7.6430197,-0.6657029999999999,-7.1673303,-1
487,488,1583936071536,-2.0108,-1.6922,-4.4146,6.7143664,-0.4411556,-6.9059887,-1
488,489,1583936071546,-2.8363,-1.5016999,-4.3486,6.318327,-0.25436,-6.9625205999999995,-1
489,490,1583936071557,-3.1295998,-1.3829,-4.5399,6.5315356,-0.28259242,-7.192708500000001,-1
490,491,1583936071567,-2.8214998,-1.4591,-4.8491,7.1146865,-0.5409843000000001,-7.056679700000001,-1
491,492,1583936071577,-2.2709,-1.7662,-4.7454,7.425003500000001,-1.0136476,-6.8399944,-1
492,493,1583936071587,-1.9659,-2.4601,-4.5689,7.7730440000000005,-1.8669314,-6.244413,-1
493,494,1583936071597,-1.6985999,-3.0786,-4.0508,7.9458475,-2.3035476000000004,-5.0742135,-1
494,495,1583936071608,-1.6737,-3.5001,-2.9143,7.414747,-2.6569798,-3.3315413,-1
495,496,1583936071618,-2.1759,-3.7854,-1.5538,6.964972,-2.6651008,-2.1073188999999997,-1
496,497,1583936071628,-2.7639,-3.7835998999999996,-0.1933,6.304086,-2.5274727,-1.0631979999999999,-1
497,498,1583936071638,-3.4685998,-3.6632,0.58529997,5.6632066,-2.26706,-0.5197238000000001,-1
498,499,1583936071648,-3.9773998,-3.4383,0.8759,5.7949257,-1.7253671000000002,0.034533966,-1
499,500,1583936071658,-3.8685,-2.8999,1.2687,5.8633904,-1.2421597,0.50960106,-1
500,501,1583936071668,-3.8279998,-2.3239,1.7429999,5.4598236,-1.0384514,1.456776,-1
501,502,1583936071679,-4.2371,-2.1945,2.4126,5.049773,-1.0371586,2.5668043999999997,-1
502,503,1583936071689,-4.6635,-2.1812,3.3806998999999998,4.886000599999999,-0.8595567,4.4402194,-1
503,504,1583936071699,-4.8322,-1.9792999,5.1254,4.424456,-0.58716357,6.935446700000001,-1
504,505,1583936071709,-5.3138,-1.6948999,7.4916,3.6388896,-0.1283771,8.678742,-1
505,506,1583936071719,-6.2908998,-1.0904,9.497499000000001,2.6371653,1.0523281999999998,10.163234,-1
506,507,1583936071730,-7.1134996,-0.027199998,10.520599,1.9963810000000002,2.1129596,9.986723,-1
507,508,1583936071740,-8.144,1.8145,9.260799,1.6398654,2.8351657,9.062675,-1
508,509,1583936071750,-8.144,1.8145,9.260799,2.0925705000000003,2.8238842,8.566483,-1
509,510,1583936071760,-7.692199700000001,1.9886999,8.4529,3.7696992999999996,2.371859,9.137586,-1
510,511,1583936071770,-4.8719997,1.3634,9.9373,5.142305,1.8021634999999998,10.5806,-1
511,512,1583936071780,-4.2299,0.9227,11.0566,5.566002,1.2578177,11.555738999999999,-1
512,513,1583936071790,-4.2299,0.9227,11.0566,5.236445,1.0285778,11.839701,-1
513,514,1583936071800,-5.0417,0.5665,12.125999,4.7548943,0.68862987,12.692122999999999,-1
514,515,1583936071810,-4.7983,0.4386,12.874499,5.013707599999999,0.49585834,13.252049,-1
515,516,1583936071820,-4.1997,0.4964,12.5575,5.6074405,0.42091024,12.938084,-1
516,517,1583936071830,-3.6671998999999995,0.2395,11.477799000000001,6.282155,-0.151371,11.592801,-1
517,518,1583936071840,-2.75,-0.4021,9.9706,7.305121000000001,-0.8988790999999999,10.097833,-1
518,519,1583936071850,-1.4188,-0.6175,8.8877,8.6317005,-1.2385013,9.16915,-1
519,520,1583936071861,-0.3114,-0.7665,8.7441,9.643164,-1.5032713,9.206539,-1
520,521,1583936071871,0.1793,-0.5139,9.3977995,9.936378,-1.3051177,9.856019,-1
521,522,1583936071881,-0.3188,-0.242,10.0647,9.081217,-1.3657868,10.533175,-1
522,523,1583936071891,-0.3188,-0.242,10.0647,8.230949,-1.747997,10.622862,-1
523,524,1583936071901,-1.8980000000000001,-1.0489,9.440499,7.920344999999999,-2.4518254,9.25559,-1
524,525,1583936071911,-1.2311,-1.5611,7.9396996,8.710681,-3.1445252999999997,7.948424,-1
525,526,1583936071922,0.2436,-2.2798998,6.6801996,10.301857,-3.9836452000000007,6.685061,-1
526,527,1583936071932,2.1433,-2.6125,5.548899700000001,12.141179,-4.346348,5.7146626,-1
527,528,1583936071944,3.2594,-2.6201,5.4586997,12.782595,-4.663771,5.9593883000000005,-1
528,529,1583936071954,2.5300999,-3.0481,6.1756,11.613439999999999,-5.3074665,6.784439999999999,-1
529,530,1583936071964,1.4167,-3.5795,6.9009,10.764427,-5.9306197,7.240889500000001,-1
530,531,1583936071974,1.2853999,-3.7879998999999995,6.9814,11.035249,-6.1356397000000005,7.048961,-1
531,532,1583936071985,1.9326999,-3.9304,6.2476997,11.997976,-6.3581185,5.5939755,-1
532,533,1583936071995,2.8878999,-3.9389999999999996,4.6632,12.974744,-6.5264883000000005,4.138014,-1
533,534,1583936072005,3.807,-4.0051,3.3532998999999997,13.575545000000002,-6.8560553,2.9955103,-1
534,535,1583936072015,4.2555,-4.2943,2.1104998999999998,13.738064000000001,-7.3067779999999996,1.8917066999999999,-1
535,536,1583936072025,4.3289,-4.6747,1.2548,13.646901000000002,-7.8493710000000005,1.8171417,-1
536,537,1583936072035,4.2022,-5.1674,1.7469999999999999,13.289235999999999,-8.460898,3.0069547,-1
537,538,1583936072045,3.7177,-5.6558,3.0521998,12.576196000000001,-8.928332000000001,3.9227846,-1
538,539,1583936072055,2.9357,-5.9999,3.5528,11.946060000000001,-9.310839999999999,3.7102945,-1
539,540,1583936072065,2.6736,-6.2897997000000005,2.7818,12.318771,-9.485387,2.1877449,-1
540,541,1583936072075,3.4736,-6.155999700000001,0.86069995,13.416264000000002,-9.092133500000001,0.20530759,-1
541,542,1583936072085,4.5408,-5.6865,-1.0508,14.091103,-8.957455,-1.3394792,-1
542,543,1583936072095,4.9193997000000005,-5.6548,-2.3314,13.869774,-8.922414,-1.7378744,-1
543,544,1583936072105,4.3015,-5.4403996,-2.0574,12.569569,-8.667346,-0.45689988,-1
544,545,1583936072115,2.5981,-5.1633,-0.48079997,10.580608999999999,-8.566895,0.9321872,-1
545,546,1583936072126,0.7642,-5.1798997,0.3348,9.320196000000001,-8.767413000000001,0.54223883,-1
546,547,1583936072136,0.0709,-5.322,-0.83739996,9.576711,-8.640846,-1.342697,-1
547,548,1583936072146,0.87469995,-5.1073,-3.0902,10.984865,-8.796268,-3.9875333,-1
548,549,1583936072156,2.0657,-5.3020000000000005,-5.15,11.688808,-8.787275,-5.1776433,-1
549,550,1583936072166,2.5983999,-5.0832996,-6.2436,11.385530000000001,-8.403906,-5.7317184999999995,-1
550,551,1583936072176,2.1759999,-4.7131,-6.6681,10.553851,-8.090141000000001,-5.687014,-1
551,552,1583936072187,1.2784,-4.3029,-6.4251,9.352967999999999,-7.861399700000001,-5.0092635,-1
552,553,1583936072197,0.0845,-4.2127,-5.821399700000001,8.650375,-8.490337,-5.238293,-1
553,554,1583936072207,-0.3786,-4.8403,-6.2355,9.187424,-8.718955000000001,-6.0500135,-1
554,555,1583936072217,0.3746,-4.9302998,-7.1628,10.102477,-8.753633,-7.527619400000001,-1
555,556,1583936072227,1.2099999,-4.9491,-8.720699,10.572594,-8.75119,-9.038916,-1
556,557,1583936072238,1.5697,-4.915499700000001,-9.8617,10.442675,-8.563638000000001,-9.084693,-1
557,558,1583936072248,1.3149998999999999,-4.6667,-9.7428,9.413618,-8.21509,-7.8365383,-1
558,559,1583936072258,0.3978,-4.3603997,-8.5303,8.448152,-8.201309,-6.9609118,-1
559,560,1583936072268,-0.5599,-4.3540998,-7.5792,7.919473,-8.051422,-7.2102246,-1
560,561,1583936072278,-1.1022999,-4.2076,-7.7935,8.5220175,-7.860087400000001,-8.606552,-1
561,562,1583936072288,-0.491,-4.0025997,-9.1789,9.36265,-7.747560000000001,-10.079379,-1
562,563,1583936072298,0.35909998,-3.8797,-10.6663,9.689517,-7.727133,-10.483222999999999,-1
563,564,1583936072309,0.68799996,-3.8476,-11.0665,9.341973,-7.818946,-9.826483999999999,-1
564,565,1583936072319,0.3452,-3.932,-10.3909,8.616933,-7.801209399999999,-8.78695,-1
565,566,1583936072329,-0.98829997,-3.6629,-8.3984995,7.9247212,-7.4726862999999994,-7.7669630000000005,-1
566,567,1583936072340,-0.98829997,-3.6629,-8.3984995,7.7114844,-7.222061599999999,-7.500919000000001,-1
567,568,1583936072350,-1.2968,-3.3686,-8.0088,7.5923777,-6.9672613,-6.993328999999999,-1
568,569,1583936072360,-1.3987,-3.1546998,-7.6366997,7.4001327,-6.8612266,-6.537914,-1
569,570,1583936072370,-1.6245999,-3.0205,-7.0832,7.1165924,-6.7850337,-5.8611593,-1
570,571,1583936072380,-2.3178,-2.944,-6.0843997000000005,6.589638000000001,-6.795511,-5.4825974,-1
571,572,1583936072390,-2.616,-2.9268,-6.2004,6.429714700000001,-6.7334914,-5.6076125999999995,-1
572,573,1583936072400,-2.2433,-2.822,-6.4252,6.832573,-6.713207700000001,-5.7987757,-1
573,574,1583936072411,-1.9863,-3.2310000000000003,-6.6394,7.0532509999999995,-7.2356606,-5.9569464000000005,-1
574,575,1583936072421,-1.5457,-3.5637999,-6.4367,7.499339,-7.483049,-5.6233864,-1
575,576,1583936072432,-1.4433999,-3.5793998,-5.6782,7.305714599999999,-7.5409502999999996,-4.5644403,-1
576,577,1583936072442,-2.2680000000000002,-3.7113998,-4.4307,6.4479584999999995,-7.684036999999999,-3.5032055,-1
577,578,1583936072452,-3.6625,-4.0525,-3.0168,5.0550213,-8.043216000000001,-2.1636784,-1
578,579,1583936072462,-4.6305,-4.2873,-2.0023,4.201699700000001,-8.2212,-1.2326308000000001,-1
579,580,1583936072473,-4.746299700000001,-4.1138997,-1.739,4.3086433,-7.923141,-1.3332448000000001,-1
580,581,1583936072484,-4.4406,-3.7563998999999995,-2.5614998,4.673731,-7.727869999999999,-2.5177617000000003,-1
581,582,1583936072494,-3.8864,-3.7275,-3.9447,5.4922123,-8.009428,-3.5403347000000003,-1
582,583,1583936072504,-3.056,-4.0383997,-3.9153,6.0878706,-8.319248,-2.6398466,-1
583,584,1583936072514,-2.6820998,-4.3584,-2.2663,6.0301895,-8.628511,-0.76829934,-1
584,585,1583936072524,-3.2652,-4.3753,-0.4344,4.857998,-8.43032,0.9487934000000001,-1
585,586,1583936072534,-4.4221997,-3.9796,0.42769998,3.892838,-7.997026400000001,1.1935383,-1
586,587,1583936072545,-5.0489999999999995,-3.4650998,0.47,3.7149105000000002,-7.553362,1.1455585,-1
587,588,1583936072555,-4.875,-3.0855,0.4815,4.1986346,-7.437741,1.2631807,-1
588,589,1583936072565,-3.8983998,-2.9752998,0.6182,5.4383235,-7.480846400000001,1.0024043,-1
589,590,1583936072575,-2.8959,-2.9427998,0.0084,6.2644286,-7.464411999999999,0.17723796,-1
590,591,1583936072585,-2.0971,-2.8393998,-0.6597,6.866072,-7.477628,0.036305677,-1
591,592,1583936072595,-1.6425999,-2.8369999999999997,-0.38099998,6.9050503,-7.6341133,0.84468395,-1
592,593,1583936072606,-1.7788999,-2.9282,0.6096,6.4973083,-7.7954636,1.9217587,-1
593,594,1583936072616,-2.2113,-3.0047998,1.7771,6.0149145,-7.960462,3.0412107,-1
594,595,1583936072626,-2.6039,-3.141,2.7542999,5.9165893,-8.132164999999999,3.7006793,-1
595,596,1583936072636,-2.4041,-3.1555,3.1712,6.522275,-8.163289,4.1161213,-1
596,597,1583936072646,-1.5717,-3.0662,3.6266,7.326554300000001,-8.0114975,4.271974,-1
597,598,1583936072656,-0.8149,-2.7598999,3.6174998,7.9464607,-7.721386999999999,4.4121976,-1
598,599,1583936072667,-0.2348,-2.4278998,3.87,8.326689,-7.3918586,4.9309254000000005,-1
599,600,1583936072677,0.1374,-2.0426,4.2715,8.41423,-7.1587396,5.012730599999999,-1
600,601,1583936072687,0.2136,-1.7705,4.3052,8.392078999999999,-7.220836,5.568358,-1
601,602,1583936072697,0.239,-1.865,5.0481,8.275635000000001,-7.675015400000001,7.142919,-1
602,603,1583936072708,0.14289999,-2.256,6.6653,8.013815,-7.924511,8.649503999999999,-1
603,604,1583936072718,-0.1195,-2.3895,8.014299000000001,7.822441,-7.9702115000000004,9.422142,-1
604,605,1583936072728,-0.1885,-2.3882,8.6139,8.01573,-7.937075599999999,9.214957,-1
605,606,1583936072738,0.086399995,-2.2519999,8.031199,8.312401,-7.544608599999999,7.586612,-1
606,607,1583936072748,0.4491,-1.7471,6.2595,8.687188,-7.079712,6.264362,-1
607,608,1583936072758,0.86499995,-1.2581999,5.1026998,9.074924000000001,-6.635003599999999,6.57828,-1
608,609,1583936072769,1.2103,-0.8461,5.8466,8.830046000000001,-6.676069,8.668332000000001,-1
609,610,1583936072779,0.7971,-0.96309996,8.1614,7.727411,-7.23477,10.773361,-1
610,611,1583936072789,-0.15179999,-1.4496,9.8333,7.3713926999999995,-7.262706,10.343430499999998,-1
611,612,1583936072799,-0.5071,-1.4643999,9.439199,7.954169800000001,-6.807386,8.260810000000001,-1
612,613,1583936072810,0.9853,-0.3964,4.7358,8.932105,-6.122366400000001,5.321669,-1
613,614,1583936072820,0.9853,-0.3964,4.7358,9.333528,-5.6157055,4.4761133,-1
614,615,1583936072830,1.5588,0.34109998,4.1239,9.225931,-5.630252400000001,5.545077,-1
615,616,1583936072840,1.0412999,-0.1384,5.2657,8.726933,-6.1107783,6.6743635999999995,-1
616,617,1583936072850,1.0412999,-0.1384,5.2657,8.655595,-6.2968082,7.112196400000001,-1
617,618,1583936072861,1.1675,-0.4204,6.0063,8.958959,-6.3184133000000005,7.159238,-1
618,619,1583936072871,1.1413,-0.29979998,5.2349997,8.837966,-6.1629434000000005,6.2062306,-1
619,620,1583936072881,0.9589,0.081999995,4.2465,8.657663000000001,-5.746993499999999,5.3604355,-1
620,621,1583936072891,0.62079996,0.47219998,3.5577998,8.266814,-5.3847895,4.72739,-1
621,622,1583936072901,0.62079996,0.47219998,3.5577998,7.986942,-5.0956564,4.526516,-1
622,623,1583936072911,0.042,1.0953,3.1866,7.7007966,-4.802730599999999,4.5593166,-1
623,624,1583936072922,-0.062699996,1.0569,3.1532,7.707682000000001,-4.9268746,4.420204,-1
624,625,1583936072932,0.16399999,0.8642,2.6908,8.007848,-5.1767715999999995,3.7273601999999997,-1
625,626,1583936072943,0.5459,0.5656,2.0015,8.422744,-5.4570084,3.2139285,-1
626,627,1583936072953,0.8074,0.3347,1.796,8.470303,-5.665524,2.971597,-1
627,628,1583936072963,0.5362,0.198,1.3860999,8.136733,-5.7217875,2.5224542999999997,-1
628,629,1583936072974,0.2546,0.2347,1.1636,7.9193296,-5.610782599999999,2.2428977000000003,-1
629,630,1583936072985,0.1121,0.4375,0.789,7.818390400000001,-5.374149299999999,1.8414955000000002,-1
630,631,1583936072995,0.0218,0.6415,0.5083,7.6153235,-5.2694173,1.5838888999999998,-1
631,632,1583936073005,-0.2034,0.64129996,0.2111,7.5810002999999995,-5.312973,1.1260409,-1
632,633,1583936073015,-0.0437,0.5268,-0.2914,8.00349,-5.560983,0.7556388,-1
633,634,1583936073025,0.45069999,0.2685,-0.49249998,8.535291,-5.869405,0.7692091,-1
634,635,1583936073035,1.0216,-0.0682,-0.2383,8.922404,-6.1651077,1.3388183999999999,-1
635,636,1583936073046,1.0957999,-0.3123,0.40309998,8.421441,-6.38456,1.9024998,-1
636,637,1583936073056,0.5563,-0.4757,0.8488,7.995283000000001,-6.4628606,2.1146069,-1
637,638,1583936073066,0.1832,-0.54499996,1.012,7.911697,-6.344108,2.1071754,d
638,639,1583936073076,0.1573,-0.3497,0.96989995,7.872461,-6.213250599999999,1.9420519,-1
639,640,1583936073086,0.0875,-0.3101,0.7428,7.829451,-6.271783999999999,1.6819842,-1
640,641,1583936073096,0.0802,-0.4651,0.1467,8.140813,-6.423739,0.47354436,-1
641,642,1583936073106,0.52599996,-0.5302,-0.9795,8.849505,-6.3247914000000005,0.049014095,-1
642,643,1583936073117,1.2044,-0.42769998,-1.2009,9.073881,-6.3948746,0.78435004,-1
643,644,1583936073127,1.2564,-0.5735,-0.29639998,8.768716,-6.574526,1.9981049,-1
644,645,1583936073137,0.93689996,-0.7442,0.98929995,8.673571,-6.780753,3.1039197,-1
645,646,1583936073148,0.8788,-0.98719996,1.9866999,8.714329,-6.919482,3.3990864999999997,-1
646,647,1583936073158,0.92069995,-1.1050999,2.1671999,9.070481,-6.787762599999999,3.1585267000000004,-1
647,648,1583936073168,1.2416999,-0.9892,1.9096999,9.368817,-6.8347373,2.5900282999999997,-1
648,649,1583936073178,1.5871998999999999,-1.0907,1.0962,9.598939,-7.1102815,1.3436068,-1
649,650,1583936073188,1.7579,-1.3615999,-0.0396,10.312296,-7.008039,0.6569210999999999,-1
650,651,1583936073199,2.4562,-1.2818999,-0.7973,10.978525,-7.1132402,1.1717415,-1
651,652,1583936073209,3.1908,-1.5021,-0.0721,10.849592999999999,-7.476029,2.9579402999999997,-1
652,653,1583936073219,2.9589999,-1.8199999,1.4327999,10.723792,-7.77358,4.0530386,-1
653,654,1583936073229,2.7956,-2.1627998,2.5479,11.318292,-7.8718476,4.6325603,-1
654,655,1583936073239,3.3553998,-2.315,3.1190999,12.032587,-7.759502400000001,4.5780199999999995,-1
655,656,1583936073250,4.0327,-2.2769999999999997,3.0541,12.642103,-7.525904700000001,4.3696766,-1
656,657,1583936073260,4.6105,-2.1001,2.8148,13.072696,-7.196328599999999,4.2134314,-1
657,658,1583936073270,4.999,-1.8543999,2.6022,13.190347000000001,-6.994948,4.2968454000000005,-1
658,659,1583936073280,4.8998,-1.9670999,2.9352999,13.063272,-7.1462226,4.7122483,-1
659,660,1583936073290,4.8998,-1.9670999,2.9352999,13.034015,-7.136665,4.950232499999999,-1
660,661,1583936073301,4.7701,-1.9693999,3.3488,13.06537,-6.815239,5.1715045,-1
661,662,1583936073312,4.6833,-1.8075999,3.6968,13.0248785,-6.604022500000001,5.5279818,-1
662,663,1583936073322,4.4860997000000005,-1.8563999,4.3191,12.910110000000001,-6.616510400000001,6.375683,-1
663,664,1583936073332,4.4743,-2.0665,5.2102,13.018317999999999,-6.661023599999999,7.020842999999999,-1
664,665,1583936073342,4.5305,-2.1160997999999998,5.286299700000001,13.22194,-6.561836200000001,6.816982,-1
665,666,1583936073352,4.7436,-2.2028,4.7668,13.468371,-6.50789,6.0542083,-1
666,667,1583936073362,4.7697997,-2.2,3.8016998999999996,13.417403,-6.3073044000000005,5.097236,-1
667,668,1583936073372,4.391,-2.1581,3.0107,13.068692,-6.173296,4.5338902,-1
668,669,1583936073382,3.7628,-2.1457999,2.5407,12.568237,-5.940455,4.127612999999999,-1
669,670,1583936073392,3.4255998,-1.8873999,2.6297,12.264385,-5.416632,4.287048,-1
670,671,1583936073402,2.9789999,-1.7154,2.9016,11.758135000000001,-5.1134596,4.5046615999999995,-1
671,672,1583936073413,2.131,-1.6294999,3.1634998,10.914275,-4.845251599999999,4.5962734,-1
672,673,1583936073423,1.2473999,-1.4785,3.0941,10.230557000000001,-4.503474,4.2721944,-1
673,674,1583936073433,0.5074,-1.4527,2.6013,9.558017999999999,-4.442154,3.6981797,-1
674,675,1583936073443,0.0196,-1.7730000000000001,2.2753,9.263339,-4.502909,3.2371426,-1
675,676,1583936073453,-0.1479,-1.8111,1.9140999,9.247603999999999,-4.213163,2.6790736,-1
676,677,1583936073464,-0.26999998,-1.7049999,1.413,8.986771000000001,-4.123572,2.1614182,-1
677,678,1583936073474,-0.7101,-2.0351999,1.063,8.669394500000001,-4.429838,1.9270067,-1
678,679,1583936073484,-0.9299,-2.2845,0.93479997,8.587743,-4.0359635,1.5865896000000002,-1
679,680,1583936073494,-1.0574,-1.8168,0.5656,8.394655,-3.4242544,1.0694995,-1
680,681,1583936073504,-1.2796999,-1.4771999,0.048699997,8.292614,-3.0692995,0.567828,-1
681,682,1583936073514,-1.4897,-1.2257,-0.5185,7.8909535,-2.6776082999999997,-0.26581386,-1
682,683,1583936073524,-2.0298998,-1.1092,-1.1956999,7.3422884999999996,-2.4137,-0.96351296,-1
683,684,1583936073535,-2.5082,-0.9605,-1.5796,7.114667,-2.006724,-0.9981235,-1
684,685,1583936073545,-2.7277,-0.7078,-1.2221999,6.8848332999999995,-1.6422787,-0.33048603,-1
685,686,1583936073555,-3.0219,-0.5078,-0.401,6.4536953,-1.273744,0.09944557,-1
686,687,1583936073565,-3.4496,-0.3008,-0.1907,6.2746468,-1.2576742,-0.036066253,-1
687,688,1583936073575,-3.4027998,-0.66999996,-0.2805,6.6186940000000005,-1.6371838,-0.31453106,-1
688,689,1583936073586,-3.0293999,-1.0302,-0.5252,6.836183,-1.594682,-0.6010978,-1
689,690,1583936073596,-3.0753999,-1.0138,-0.75409997,6.361336,-1.4814075,-0.9702646,-1
690,691,1583936073606,-3.7867,-1.0669,-1.1514,5.4045653,-1.4120331,-1.570625,-1
691,692,1583936073616,-4.5259,-1.0590000000000002,-1.5747,5.246874,-1.0416023,-1.9914299,-1
692,693,1583936073626,-4.4789,-0.7366,-1.8791,5.8954059999999995,-0.55270624,-1.7468,-1
693,694,1583936073637,-3.8226998,-0.3718,-1.4824,6.175173,-0.3459813,-1.3933008999999998,-1
694,695,1583936073647,-3.6757,-0.3028,-1.1585,5.935255000000001,-0.33425927,-1.0103915,-1
695,696,1583936073657,-3.9299,-0.3868,-0.64699996,5.650210400000001,-0.44349235,-0.2206975,-1
696,697,1583936073667,-4.2227,-0.5823,0.1671,5.484771299999999,-0.67626625,0.19744502,-1
697,698,1583936073678,-4.2989999999999995,-0.91639996,0.45619997,5.707308,-1.100356,-0.16705781,-1
698,699,1583936073688,-4.0515,-1.4057,0.0657,5.909981299999999,-1.69724,-0.92481303,-1
699,700,1583936073698,-3.8630998,-2.0639,-0.7165,6.129243,-2.0747864,-1.9082075,-1
700,701,1583936073708,-3.6646998,-2.3657,-1.5079,6.379216,-1.6540582,-2.4106544999999997,-1
701,702,1583936073719,-3.4182,-1.9783,-2.0024,6.406845,-0.9451828999999999,-2.683977,-1
702,703,1583936073729,-3.3967,-1.3212999,-2.2763,5.946143599999999,-0.5232287999999999,-2.4927759999999997,-1
703,704,1583936073739,-3.8549,-0.95549995,-2.073,5.6033707,-0.25414929999999997,-1.9719028000000003,-1
704,705,1583936073749,-4.1843,-0.7495,-1.5245,5.865823000000001,-0.18600075,-1.8123243999999998,-1
705,706,1583936073760,-3.9239,-0.7352,-1.3158,6.2998056,-0.21689552,-1.6057911,-1
706,707,1583936073770,-3.4857,-0.8127,-1.0389999,6.6825523,-0.25388116,-1.1843063,-1
707,708,1583936073780,-3.1144,-1.2178999,-0.2573,6.6304927,-0.60829,-1.000987,-1
708,709,1583936073790,-3.1139997999999998,-1.4591,-0.2601,6.657671499999999,-0.70231515,-1.1726128999999998,-1
709,710,1583936073800,-3.1143,-1.3341,-0.4448,6.641161,-0.4903325,-1.4182101,-1
710,711,1583936073810,-3.1143,-1.3341,-0.4448,6.6860857000000005,-0.34417129999999996,-1.4973049999999999,-1
711,712,1583936073820,-2.9492998,-0.91429996,-1.0007,6.8268747,-0.0061866175,-2.2159584,-1
712,713,1583936073831,-2.6360997999999998,-0.6064,-1.839,7.1553397,0.3533746,-3.0772195,-1
713,714,1583936073842,-2.2537,-0.3123,-2.3097,7.5235395,0.64098525,-3.557458,-1
714,715,1583936073851,-1.9101,-0.2104,-2.5916,7.8745389999999995,0.6810929,-3.845222,-1
715,716,1583936073861,-1.4286,-0.4601,-2.3625998,8.356827000000001,0.41865969999999997,-3.527253,-1
716,717,1583936073872,-1.104,-0.8391,-1.5012,8.585809,0.052088253,-2.6850110000000003,-1
717,718,1583936073882,-1.0544,-1.0461,-0.56049997,8.585837,-0.12083057,-1.8821968999999998,-1
718,719,1583936073892,-1.3482,-1.0998,-0.2147,8.173038499999999,-0.03344221,-1.7646607,-1
719,720,1583936073902,-1.6230999,-0.83919996,-0.5424,7.953854,0.38539943,-2.3844237,-1
720,721,1583936073913,-1.7028999,-0.40579998,-1.3051,7.998558500000001,0.759163,-3.1510377,-1
721,722,1583936073923,-1.4602,-0.17009999,-1.7866,8.279169,0.92480356,-3.420864,-1
722,723,1583936073933,-1.111,-0.1426,-1.7715,8.655107000000001,0.8566358000000001,-3.3880155,-1
723,724,1583936073943,-0.8612,-0.34579998,-1.7719999999999998,8.809973,0.6258443,-3.4911964,-1
724,725,1583936073953,-0.6221,-0.42100000000000004,-1.8075,9.144146000000001,0.70049554,-3.4161906,-1
725,726,1583936073963,-0.3533,-0.2252,-1.6179999,9.236533,0.8792179,-3.2663517000000004,-1
726,727,1583936073974,-0.46589997,-0.1818,-1.3283,9.037728,0.8678693999999999,-2.8930382999999997,-1
727,728,1583936073984,-0.6552,-0.1636,-0.9151,8.893138,0.92534935,-2.5950944,-1
728,729,1583936073994,-0.79499996,-0.086899996,-0.8437,8.774107,1.0631213,-2.7750618,-1
729,730,1583936074004,-0.7496,0.0914,-1.1587,8.948147,1.2270763,-3.1522443,-1
730,731,1583936074014,-0.58709997,0.127,-1.3771,8.988339999999999,1.1222103,-3.2421896,-1
731,732,1583936074025,-0.57269996,-0.0298,-1.2751,9.022472,0.9692685999999999,-3.0476944,-1
732,733,1583936074035,-0.5493,-0.1642,-1.0971999,9.067771,0.9314880999999999,-2.927218,-1
733,734,1583936074045,-0.4287,-0.12889999,-0.9127,9.255792,1.0173345999999999,-2.6754439999999997,-1
734,735,1583936074055,-0.23009999,-0.0233,-0.6214,9.449521,1.10004,-2.507821,-1
735,736,1583936074065,-0.100499995,0.0536,-0.5866,9.485683,1.1502607,-2.59904,-1
736,737,1583936074076,-0.059699997000000005,0.091,-0.61399996,9.512834,1.1128441,-2.5248103,-1
737,738,1583936074086,-0.0288,-0.096999995,-0.45549998,9.572986,0.75429803,-2.3570917000000002,-1
738,739,1583936074096,0.0801,-0.392,-0.3766,9.836176,0.5471229999999999,-2.5853357000000003,-1
739,740,1583936074106,0.31579998,-0.49019998,-0.6545,10.041348,0.6646208,-2.9212422,d
740,741,1583936074116,0.4825,-0.34559998,-1.0037,9.965950999999999,0.769822,-3.087821,-1
741,742,1583936074127,0.34559998,-0.2263,-1.0598,9.54325,0.7945685,-2.7367833,-1
742,743,1583936074137,-0.094399996,-0.2214,-0.62509996,9.369632000000001,0.8847437,-2.2141290000000002,-1
743,744,1583936074147,-0.15089999,-0.1201,-0.1072,9.757225,1.0318339,-1.9339212,-1
744,745,1583936074157,0.2732,0.024899999,0.0901,10.074839,1.0489382,-2.0319016,-1
745,746,1583936074167,0.5602,-0.0021,-0.0437,10.173567,0.96911544,-2.3425827,-1
746,747,1583936074178,0.6314,-0.0874,-0.3928,10.163788,0.7957943000000001,-2.8317083999999997,-1
747,748,1583936074188,0.6339,-0.28219998,-0.8218,10.274822,0.6910432,-2.8877997000000004,-1
748,749,1583936074198,0.7346,-0.3247,-0.7916,10.2771015,0.71238995,-2.6121411,-1
749,750,1583936074208,0.6992,-0.31849998,-0.4181,9.964208,0.8496351000000001,-2.1612267000000003,-1
750,751,1583936074218,0.3482,-0.1708,-0.0404,9.661676,1.0184264,-2.2397277,-1
751,752,1583936074228,0.1269,-0.0499,-0.1375,9.63082,0.9895905999999999,-2.465252,-1
752,753,1583936074239,0.1019,-0.09219999599999999,-0.34919998,9.673897,0.9976638000000001,-2.5960042000000003,-1
753,754,1583936074249,0.156,-0.0914,-0.4685,9.819235,0.8459385,-2.6185482,-1
754,755,1583936074259,0.2988,-0.2538,-0.46629998,9.864447,0.7785561,-2.6609254,-1
755,756,1583936074269,0.3631,-0.3259,-0.5026,10.006623,0.7993856,-2.8995602000000003,-1
756,757,1583936074279,0.4953,-0.2995,-0.6993,10.135039,0.8774749,-3.3588638,-1
757,758,1583936074290,0.6365,-0.2355,-1.1456,10.019888,0.8690378000000001,-3.7012346,-1
758,759,1583936074300,0.52279997,-0.2545,-1.4763,9.820278,0.8508896999999999,-3.7729839999999997,-1
759,760,1583936074310,0.32259998,-0.2893,-1.5281,9.677067,0.73144776,-4.024183799999999,-1
760,761,1583936074320,0.17119999,-0.4922,-2.0115,9.678321,0.6883425999999999,-4.331829,-1
761,762,1583936074330,0.2864,-0.4894,-2.2939,9.737612,0.6837553000000001,-4.7211356,-1
762,763,1583936074340,0.2864,-0.4894,-2.2939,9.628321000000001,0.56280977,-5.187785,-1
763,764,1583936074350,0.1783,-0.6278,-3.2508,9.656303,0.61613345,-5.622007,-1
764,765,1583936074360,0.1783,-0.6278,-3.2508,9.718046000000001,0.65865445,-5.7708783,-1
765,766,1583936074370,0.2599,-0.5746,-3.4324,9.673552,0.48556325,-5.9718766,-1
766,767,1583936074380,0.1681,-0.91599995,-3.7997,9.600816,0.31745198,-6.1987896,-1
767,768,1583936074390,0.1681,-0.91599995,-3.7997,9.517861,0.27476814,-6.399529,-1
768,769,1583936074400,0.0848,-1.0206,-4.098799700000001,9.535177000000001,0.28200823,-6.4348383,-1
769,770,1583936074410,-0.0416,-1.0761,-4.1882,9.348907,0.25999114,-6.533872,-1
770,771,1583936074421,-0.3755,-1.1235,-4.3046,9.007188000000001,0.24278162,-6.6042905,-1
771,772,1583936074431,-0.75909996,-1.2121998999999999,-4.4151998,8.633655000000001,0.15755764,-6.732352000000001,-1
772,773,1583936074441,-0.75909996,-1.2121998999999999,-4.4151998,8.450355,0.075379044,-6.8018312000000005,-1
773,774,1583936074451,-1.2221,-1.4514999,-4.5228,8.172636,-0.037502777,-6.750605,-1
774,775,1583936074461,-1.4491,-1.5613999,-4.5106,7.98721,-0.11519941,-6.689839999999999,-1
775,776,1583936074471,-1.4518,-1.5629,-4.308,7.9906387,-0.05114015,-6.4151583,-1
776,777,1583936074482,-1.6522,-1.5637,-4.0934,7.6595397,-0.051149726,-6.124454,-1
777,778,1583936074491,-1.6522,-1.5637,-4.0934,7.360724,-0.1250348,-5.9054709999999995,-1
778,779,1583936074501,-2.2517,-1.7318,-3.4835,7.1818675999999995,-0.12009315,-5.393217,-1
779,780,1583936074511,-2.6403,-1.7308999,-3.0354997999999997,6.6811156,-0.106723934,-4.971531400000001,-1
780,781,1583936074521,-3.3044,-1.6596999,-2.9162,6.12523,0.043086052,-4.8188004,-1
781,782,1583936074531,-3.3718998,-1.3383,-2.9589999,6.1791089999999995,0.4901697,-4.8129964,-1
782,783,1583936074541,-3.1278,-1.0879999,-2.8823,6.4418774,0.6535883000000001,-4.614632,-1
783,784,1583936074552,-2.8260999,-0.97999996,-2.6046,6.7564660000000005,0.7327215,-4.185026000000001,-1
784,785,1583936074562,-2.79,-1.0666,-2.4019999999999997,6.6982484,0.5840032,-3.8935945,-1
785,786,1583936074572,-2.9205,-1.2329999,-1.8320999,6.594522,0.4879,-3.1352262000000004,-1
786,787,1583936074582,-3.1483,-1.2738999,-0.32369998,6.2507915,0.46979025,-1.0253216,-1
787,788,1583936074592,-3.5623998999999995,-1.2943,1.415,5.795558,0.49583918,0.67154485,-1
788,789,1583936074602,-4.0557,-1.1703,2.4742,5.348091,0.70956475,1.4097443,-1
789,790,1583936074613,-4.3554,-0.8756,2.6613998,5.19763,0.96338844,1.5498528,-1
790,791,1583936074623,-4.3341,-0.63339996,2.4775,5.4094496,1.2260228000000002,1.3609409,-1
791,792,1583936074633,-3.9224,-0.22,2.3432999,5.851525,1.6061742,1.5151944,-1
792,793,1583936074643,-3.6975,0.1637,2.4062,5.933636,1.8686744,1.755218,-1
793,794,1583936074654,-3.6773998999999997,0.3647,2.6689999999999996,6.090974,2.0126711999999998,2.5429199000000002,-1
794,795,1583936074664,-3.4785,0.57589996,4.0596,6.2140164,2.1039095000000003,5.078005999999999,-1
795,796,1583936074674,-3.6006,0.52129996,6.6712,5.8269887,1.6916854,8.285374000000001,-1
796,797,1583936074684,-4.132,0.035299998,9.6768,5.2269063,1.1828601,10.530389,-1
797,798,1583936074694,-4.6331997000000005,-0.2565,10.88,5.2452455,1.1521282,10.597857000000001,-1
798,799,1583936074704,-4.1857,-0.0251,10.3005,6.2463574,1.3867216999999998,9.915922,-1
799,800,1583936074715,-2.9398,0.2678,9.6755,7.604023,1.4689577,9.640301,-1
800,801,1583936074725,-1.754,0.39339998,9.319799,8.340613000000001,1.446481,9.467947,-1
801,802,1583936074735,-1.3698,0.4773,9.281199,8.243580999999999,1.4779598999999999,9.907331,-1
802,803,1583936074745,-1.6597998999999999,0.63019997,9.7304,7.891278999999999,1.5499678999999997,10.531241,-1
803,804,1583936074756,-1.9782,0.7363,10.4114,7.7148557,1.4387428,11.403583,-1
804,805,1583936074766,-2.0223,0.6543,11.222999999999999,7.9960113,1.1659283999999999,12.132043,-1
805,806,1583936074776,-1.6848999,0.4965,11.7034,8.506426,0.8508226999999999,12.193449000000001,-1
806,807,1583936074786,-1.2012,0.2268,11.6396,8.782957000000001,0.38233486,11.639823,-1
807,808,1583936074796,-0.92319995,-0.2826,10.7856,9.074427,-0.24182394,10.309433,-1
808,809,1583936074806,-0.6347,-0.6107,9.6924,9.501503999999999,-0.39576155,9.45726,-1
809,810,1583936074816,-0.089999996,-0.5911,8.7933,9.994164,-0.22168393,8.800329,-1
810,811,1583936074827,0.2306,-0.2575,8.4585,9.988064,-0.0027581202000000003,8.751372,-1
811,812,1583936074837,0.131,-0.0154,8.4636,9.750798,-0.21576546,8.634219,-1
812,813,1583936074847,-0.124299996,-0.31599998,8.2663,9.767653,-0.9915251,8.039833999999999,-1
813,814,1583936074857,0.0036,-0.93909997,7.6576996,10.224753999999999,-1.8591647,6.7679677,-1
814,815,1583936074867,0.56439996,-1.7236999,6.3701,11.161769,-2.7710202,5.300887,-1
815,816,1583936074877,1.5784,-2.4833,5.0864,12.286660000000001,-3.5028608,4.32932,-1
816,817,1583936074888,2.4775,-2.9492,4.47,12.5466795,-3.6620559999999998,4.280986,-1
817,818,1583936074898,2.7115,-3.0228999,4.5411,12.047738,-3.860296,4.328926999999999,-1
818,819,1583936074908,2.1028,-3.1578999,4.6679997,11.365391,-3.9255904999999998,4.002837,-1
819,820,1583936074918,1.5921999,-3.0934,4.3989,11.454435,-3.9229953,3.1206217,-1
820,821,1583936074928,1.7785,-3.0154,3.3076,11.919830000000001,-4.083723,1.884457,-1
821,822,1583936074939,2.2705998,-3.1359,2.0971,12.526196,-4.849273,0.15447389,-1
822,823,1583936074949,2.7845,-3.7419998999999997,0.7014,13.223626000000001,-5.7046356,-0.90679914,-1
823,824,1583936074959,3.4966,-4.4968,-0.26909998,13.606114000000002,-6.4207797,-1.6530526,-1
824,825,1583936074969,3.8960000000000004,-5.1226,-0.9368,13.571216,-6.584399,-1.8165287,-1
825,826,1583936074979,3.8523,-5.1651,-1.0386,13.249665,-5.9758224,-2.1352065,-1
826,827,1583936074990,3.5698998,-4.5371,-1.3130000000000002,12.778046,-5.246826,-2.887982,-1
827,828,1583936075000,3.1083998999999998,-3.7652,-2.041,12.185538000000001,-4.902654599999999,-3.6891968,-1
828,829,1583936075010,2.1977,-3.4413998,-4.843,11.947038000000001,-5.020593,-6.1626368,-1
829,830,1583936075020,3.1855998,-3.7192998,-5.7839,13.066365,-5.3826730000000005,-6.8788385,-1
830,831,1583936075030,3.1855998,-3.7192998,-5.7839,13.721429,-5.8176994,-6.9824494999999995,-1
831,832,1583936075041,3.8795998,-4.3747,-5.8851,13.340301,-6.0331779999999995,-7.2301636,-1
832,833,1583936075050,3.8795998,-4.3747,-5.8851,12.717023,-5.9176335,-7.5503163,-1
833,834,1583936075060,3.1252,-4.2566,-6.2037,11.883389999999999,-5.2947865,-8.130719000000001,-1
834,835,1583936075070,1.8647,-2.9422,-7.2093,11.384984,-4.5020857,-8.644964,-1
835,836,1583936075080,1.5328,-2.6806,-7.331,11.045669,-4.3064795,-8.780505,-1
836,837,1583936075090,1.5328,-2.6806,-7.331,10.700425,-4.467504,-9.159803,-1
837,838,1583936075101,0.66889995,-3.1539,-8.7078,10.210207,-4.7925982000000005,-10.4645,-1
838,839,1583936075111,0.83019996,-3.2136,-9.7577,10.504062,-4.77716,-11.46021,-1
839,840,1583936075121,1.3119999,-3.0551999,-10.3102,10.921888000000001,-4.6068273,-11.952745,-1
840,841,1583936075131,1.2297,-2.7656999,-10.6033,10.683914,-4.260155999999999,-12.17874,-1
841,842,1583936075141,0.447,-2.5377998,-10.5182,9.833426,-4.044180399999999,-11.962035,-1
842,843,1583936075152,-0.4351,-2.4385,-9.8921995,9.009716000000001,-3.9348322999999996,-11.22959,-1
843,844,1583936075162,-1.071,-2.5021,-9.1664,8.288333999999999,-3.9999926,-10.534516,-1
844,845,1583936075172,-1.5969,-2.5953999,-8.9971,7.90959,-3.9941318,-10.573523,-1
845,846,1583936075182,-1.6705999,-2.5570998,-9.2572,8.045418,-3.8535252,-10.873975999999999,-1
846,847,1583936075192,-1.3916,-2.3571,-9.446,8.264459,-3.5718807999999997,-10.963337,-1
847,848,1583936075203,-1.3916,-2.3571,-9.446,8.1430435,-3.2514791,-10.786185000000001,-1
848,849,1583936075213,-1.6790999,-1.7926999,-8.9949,7.8089759999999995,-2.9830987,-10.249214,-1
849,850,1583936075223,-2.0684,-1.7675999,-8.503,7.433287599999999,-3.0482593,-9.760605,-1
850,851,1583936075233,-2.3195,-2.0275,-7.9568996,7.264803,-3.3010583,-9.288727,-1
851,852,1583936075243,-2.3934999,-2.274,-7.7447996,7.2842535999999996,-3.4945192000000005,-9.198694999999999,-1
852,853,1583936075253,-2.3012,-2.4854,-7.6681,7.408838,-3.6336129,-8.902628,-1
853,854,1583936075264,-2.1519,-2.5746,-7.1861997,7.561281699999999,-3.6346277999999996,-8.28116,-1
854,855,1583936075274,-2.1225,-2.4764,-6.3392,7.355055,-3.2864823,-7.0373535,-1
855,856,1583936075284,-2.5361,-2.0965,-5.2111998,6.8560743,-2.9614935,-6.076608,-1
856,857,1583936075294,-3.2933,-1.8357999,-4.2746997,6.1340785,-2.7862282000000005,-5.26145,-1
857,858,1583936075304,-3.8237,-1.9030999,-3.7875,5.861322,-2.9908366,-4.901075,-1
858,859,1583936075315,-3.7142,-2.2324998,-3.7645998,6.3842344,-3.5221195,-4.925256,-1
859,860,1583936075325,-2.9847999,-2.8616998,-3.7282,7.181187599999999,-4.1373434,-4.479024400000001,-1
860,861,1583936075335,-2.3432,-3.3950998999999995,-3.1674,7.505822,-4.492106400000001,-3.784304,-1
861,862,1583936075345,-2.2417998,-3.6146998,-2.4808,7.329963,-4.508732,-2.584876,-1
862,863,1583936075356,-2.4747999,-3.4945,-1.4537,6.9174232,-4.268276999999999,-1.5907938,-1
863,864,1583936075366,-3.0899,-3.2078,-0.27429998,6.2313795,-4.0736669999999995,-0.46070188,-1
864,865,1583936075376,-3.7721,-3.1510000000000002,0.5176,5.887112,-4.2502830000000005,0.21101536,-1
865,866,1583936075386,-3.806,-3.3044998999999997,0.9216,6.3453045,-4.465129,0.83453256,-1
866,867,1583936075396,-3.3256997999999998,-3.4808998,1.4832,6.62965,-4.5034647,1.1789048999999998,-1
867,868,1583936075406,-3.0895,-3.4599998,1.7048,6.7247095,-4.3270025,1.2967763,-1
868,869,1583936075417,-2.9995,-3.1559,1.8330000000000002,6.776788000000001,-3.9622314,1.7211342,-1
869,870,1583936075427,-2.948,-2.6555,2.4854,6.7922254,-3.3114684000000003,2.9507866000000003,-1
870,871,1583936075437,-2.9629,-2.0232,3.5472,6.604913000000001,-2.8417354,4.255262999999999,-1
871,872,1583936075447,-3.2352998,-1.6055,4.825599700000001,5.962903,-2.7507843999999997,5.381514,-1
872,873,1583936075457,-3.9085,-1.5087999,5.8724,5.4237385,-2.6373377000000002,6.3349720000000005,-1
873,874,1583936075469,-4.3931,-1.2752,6.7044997,4.9591484,-2.3931002999999995,6.914952799999999,-1
874,875,1583936075479,-4.7674,-1.0202,7.0843997000000005,5.2373447,-2.1976092,7.5353284,-1
875,876,1583936075489,-4.4722,-0.74369997,7.6369,5.7326574,-1.8946372,7.824031,-1
876,877,1583936075499,-3.9684,-0.34919998,7.8789997000000005,6.218671,-1.6102443000000002,7.9582977,-1
877,878,1583936075509,-3.4626,0.021,7.986399700000001,6.49341,-1.5514523,8.71884,-1
878,879,1583936075520,-3.1613,0.1778,8.7328,6.1470838,-1.6931889,9.706812,-1
879,880,1583936075530,-4.133899700000001,-0.0657,10.1987,5.3590856,-2.0579793,10.209844,-1
880,881,1583936075540,-4.6219997,-0.1068,9.9237995,4.928818,-2.1342487,9.863881,-1
881,882,1583936075550,-4.4105,0.2534,9.543799,5.343341000000001,-1.8045672,9.600299,-1
882,883,1583936075561,-3.4799,0.9547,9.6748,6.1904955,-1.2354655,9.809849,-1
883,884,1583936075571,-3.1845,1.2366999,10.103499000000001,6.329378599999999,-1.1791443000000001,10.201089999999999,-1
884,885,1583936075581,-3.0843,1.1924,10.091499,6.4622188,-1.3873057,10.039759,-1
885,886,1583936075591,-2.658,0.98389995,9.7748995,6.872517599999999,-1.7792846000000002,9.651066,-1
886,887,1583936075601,-2.1886,0.43789998,9.3427,7.323288400000001,-2.5130787,9.205015,-1
887,888,1583936075612,-1.7155,-0.3585,9.223599,7.697713,-3.4484837,9.075883000000001,-1
888,889,1583936075622,-1.6517998999999999,-0.84059995,9.1747,7.611617,-3.9545987,9.021007,-1
889,890,1583936075632,-1.8224,-0.85469997,9.4622,7.441313,-4.008957,9.28818,-1
890,891,1583936075642,-1.8936,-0.46859998,9.1207,7.3980546,-3.5086644000000002,8.57288,-1
891,892,1583936075652,-1.7477,0.34739998,8.347999999999999,7.4624777,-2.9873602000000004,7.8412880000000005,-1
892,893,1583936075663,-1.6861999,0.4024,7.8306,7.5194693,-3.4745421000000003,7.4598154999999995,-1
893,894,1583936075673,-1.3349999,-0.292,7.7366996,7.931817999999999,-4.3813889999999995,7.450017999999999,-1
894,895,1583936075683,-0.8689,-1.0956,7.9291,8.172991,-5.516719999999999,7.6865559999999995,-1
895,896,1583936075694,-0.8772,-2.009,8.1601,7.9199424,-6.542242,7.748039200000001,-1
896,897,1583936075704,-1.2088,-2.9624,7.9735,7.451091,-7.5110803,7.0947759999999995,-1
897,898,1583936075714,-1.4685,-3.4248,6.5013,7.4403358,-7.800903,5.4358053,-1
898,899,1583936075724,-0.7159,-3.1106,4.9698,8.627525,-7.2813993,4.2406387,-1
899,900,1583936075734,0.3351,-2.4062,4.2093,9.2123995,-7.1587973,3.846333,-1
900,901,1583936075745,0.7488,-2.4777,3.8500997999999997,9.343755,-7.7148647,3.7224760000000003,-1
901,902,1583936075755,0.98319995,-3.0428998,3.7387,9.586585000000001,-8.6197195,3.5740643,-1
902,903,1583936075766,1.2736,-3.7665,3.4959,9.495135000000001,-9.410658999999999,3.2021968,-1
903,904,1583936075776,1.1308,-4.2532,3.2145998,9.159047,-9.880938,3.0834637000000003,-1
904,905,1583936075786,0.7905,-4.5792,3.3502998,8.57966,-10.177541,3.5227612999999995,-1
905,906,1583936075796,0.22559999,-4.8578,3.6941998,8.10467,-10.695043,3.5399995000000004,-1
906,907,1583936075806,0.0664,-5.0768,3.0779,8.602424000000001,-10.55841,1.538083,-1
907,908,1583936075816,0.8858,-4.7342997,0.7859,9.894392999999999,-10.444217,-1.1962293,-1
908,909,1583936075826,2.3878999,-4.5204,-2.0131,11.502913000000001,-10.348085000000001,-2.700832,-1
909,910,1583936075837,4.0255,-4.2846,-3.2296,12.112687,-10.380081,-1.9908171000000001,-1
910,911,1583936075847,4.3564,-4.339299700000001,-2.2489998,11.322313000000001,-10.833093,-0.7680312,-1
911,912,1583936075857,3.1306,-4.8167995999999995,-0.87899995,9.598728,-11.187157000000001,0.36152443,-1
912,913,1583936075867,1.8644999,-4.8978,-0.19119999,8.764655,-11.200161999999999,0.5837351,-1
913,914,1583936075877,1.176,-4.8682,-0.3164,8.49751,-11.209928999999999,-0.7594695,-1
914,915,1583936075888,1.1379,-4.8125,-2.0012999,9.137883,-11.215513,-2.8040697999999997,-1
915,916,1583936075898,2.0259,-4.7563,-4.1454,10.567671,-11.225454,-4.4742746,-1
916,917,1583936075908,3.2961,-4.7198,-5.5418997,11.013241,-11.242836,-4.710534,-1
917,918,1583936075918,3.8235,-4.6882997,-5.7881,10.770105000000001,-11.265111,-4.1269813,-1
918,919,1583936075929,3.5942,-4.6663,-5.2928,10.290747999999999,-11.386297,-3.5281053,-1
919,920,1583936075938,3.0518,-4.8114,-4.5998,9.616311,-11.513428999999999,-2.907509,-1
920,921,1583936075949,2.5133997999999997,-4.8581,-4.1756,9.018048,-11.083267,-2.6807303,-1
921,922,1583936075959,1.9324,-4.4142,-4.0322,8.656639,-10.733101,-2.9015234,-1
922,923,1583936075969,1.5945,-4.0568,-4.3514,8.733761,-10.1612215,-3.5573432,-1
923,924,1583936075979,1.6941998999999999,-3.4986,-5.1204,8.980400999999999,-9.540118,-3.4587116,-1
924,925,1583936075990,1.9636999,-2.8738,-5.0973,8.497711,-9.409414,-2.7575936000000003,-1
925,926,1583936076000,1.4872,-2.7412,-4.4270997,7.76408,-9.350613000000001,-2.0904157,-1
926,927,1583936076010,0.2015,-2.6964998,-3.4082,7.186953,-9.337521,-1.6734703999999998,-1
927,928,1583936076020,0.2183,-2.5746,-3.3299,7.2945485,-9.182664,-1.7071807,-1
928,929,1583936076031,0.3375,-2.2858,-3.9845,7.359584299999999,-8.857416,-2.4228554,-1
929,930,1583936076041,0.311,-2.0765998,-4.6782,7.338822,-8.6972065,-3.000854,-1
930,931,1583936076051,0.39159998,-1.8769999999999998,-4.8377,7.4627360000000005,-8.414384,-2.9969373,-1
931,932,1583936076062,0.5489,-1.4697,-4.4049997,7.5480466,-8.047247,-2.4853442,-1
932,933,1583936076073,0.2616,-1.3657,-4.0256,7.111871000000001,-7.9532795,-2.1231972999999997,-1
933,934,1583936076083,-0.0876,-1.1639,-3.8504,6.8551455,-7.600345,-1.9749674,-1
934,935,1583936076093,-0.2111,-0.7737,-3.5899,6.852962,-7.293418400000001,-1.6313708,-1
935,936,1583936076104,-0.1065,-0.6349,-3.0713,6.942734700000001,-7.313510400000001,-1.1433461999999999,-1
936,937,1583936076114,-0.087699994,-0.88589996,-2.6905,6.999678599999999,-7.667833,-0.76695853,-1
937,938,1583936076124,0.0013,-1.1360999,-2.4794,7.1347594,-7.781127000000001,-0.765953,-1
938,939,1583936076134,0.26929998,-1.1989,-2.5781999,7.489675999999999,-7.8564677,-1.0141839,-1
939,940,1583936076144,0.5882,-1.173,-2.8299,7.6930394,-7.7332716,-1.1382322,-1
940,941,1583936076154,0.68119997,-0.9422,-2.79,7.5327425,-7.4720545,-0.81283146,-1
941,942,1583936076165,0.3209,-0.7621,-2.2767,7.012569,-7.3621507,-0.034313697000000004,-1
942,943,1583936076175,-0.198,-0.7593,-1.3371998999999999,6.598841,-7.4919553,1.0380205,-1
943,944,1583936076185,-0.49089998,-0.8734,-0.38729998,6.526086299999999,-7.553132000000001,1.5045258999999997,-1
944,945,1583936076195,-0.3989,-0.9377,-0.2584,6.891221000000001,-7.666598,1.2745293,-1
945,946,1583936076205,0.040599998,-1.0494,-0.6703,7.275193700000001,-7.6888255999999995,0.6750308,-1
946,947,1583936076215,0.40579998,-1.0188999,-1.2543,7.603869400000001,-7.5705905,0.30728143,d
947,948,1583936076226,0.6094,-0.9034,-1.4297999,7.6122875,-7.511406,0.47661853,-1
948,949,1583936076236,0.5299,-0.87079996,-1.0189999,7.361356,-7.5600843,1.3340013000000002,-1
949,950,1583936076246,0.2974,-0.9201,-0.18439999,7.1960315999999995,-7.6720467,1.8407581000000002,-1
950,951,1583936076256,0.1131,-1.0696,0.17449999,7.0892982,-7.8533550000000005,1.5771469,-1
951,952,1583936076267,0.050699997999999996,-1.2398,-0.1453,7.398581,-7.862663700000001,1.1136293,-1
952,953,1583936076277,0.4042,-1.2535,-0.70879996,7.9757943,-7.7761183,0.2880129,-1
953,954,1583936076287,1.0518,-1.1798999,-1.5604,8.747656,-7.753622,-0.41139090000000006,-1
954,955,1583936076297,1.8131,-1.2157999,-2.1852999,9.504539999999999,-8.101146,-0.91325384,-1
955,956,1583936076307,2.4967,-1.6286,-2.6899998,9.883341,-8.517583,-1.319799,-1
956,957,1583936076318,2.7872999,-2.0676,-2.8999,10.055609,-8.923822,-1.2806966999999998,-1
957,958,1583936076328,2.8369,-2.5606,-2.9555,10.048473,-9.65798,-2.275497,-1
958,959,1583936076338,2.8873,-3.3228,-4.1482,10.761123,-9.948406,-3.5961006,-1
959,960,1583936076348,3.6862998,-3.5093,-5.2676997000000005,11.524202,-9.845915,-3.6067883999999997,-1
960,961,1583936076359,4.2177997000000005,-3.4743,-5.173899700000001,11.725267,-9.790465,-3.0052595,-1
961,962,1583936076369,4.3859,-3.4766998,-4.4139,11.696833999999999,-10.037796,-2.4527732999999996,-1
962,963,1583936076379,4.2876997,-3.7819,-3.9743,11.828564,-10.245114,-2.6176,-1
963,964,1583936076389,4.3589,-4.0441,-4.0773997,12.312767,-10.295163,-3.4663062000000004,-1
964,965,1583936076400,4.7211,-4.2138,-4.8241997,13.171241,-9.99741,-4.1205263,-1
965,966,1583936076410,5.3925,-4.0060997,-5.4115,13.537045499999998,-10.028708,-3.927075,-1
966,967,1583936076420,5.7822,-4.5102997,-4.4418,13.535553,-10.527161999999999,-3.079384,-1
967,968,1583936076430,5.8387,-5.1124997,-3.7458,13.772376999999999,-10.981292999999999,-2.4677997000000005,-1
968,969,1583936076441,6.4525,-5.2198997,-3.1502,14.507043,-10.897458,-1.9391310000000002,-1
969,970,1583936076451,6.8854,-5.1001,-2.6088998,14.87643,-10.700654,-1.3847393,-1
970,971,1583936076461,6.6429,-5.1017,-1.7890999,14.511592000000002,-10.594477000000001,-0.5690729999999999,-1
971,972,1583936076471,5.8817997,-5.0397,-0.8749,13.878756,-10.374699,0.14499286,-1
972,973,1583936076482,5.126,-4.8616,-0.33049998,13.283107999999999,-9.994681,0.61553967,-1
973,974,1583936076491,5.126,-4.8616,-0.33049998,13.301878,-9.823831,0.8778771000000001,-1
974,975,1583936076501,4.9302,-4.671,0.6199,13.369442000000001,-9.590684,1.2554715,-1
975,976,1583936076511,4.5397997000000005,-4.5717,1.1198,12.979617999999999,-9.377006,1.6626869999999998,-1
976,977,1583936076521,3.7772,-4.777,1.5424,12.2523365,-9.419183,1.932954,-1
977,978,1583936076531,2.9759998,-4.7081,1.7469999999999999,11.637075,-9.093121,2.1317779999999997,-1
978,979,1583936076541,2.6076999,-4.2845,2.4680998,11.391057,-8.425541,2.9485167999999997,-1
979,980,1583936076552,2.2509,-3.9466,3.6615,11.133803,-7.990418400000001,4.0685625,-1
980,981,1583936076562,1.895,-3.7659998,4.5952,10.687219,-7.502346000000001,4.7988040000000005,-1
981,982,1583936076572,1.1796,-3.6697998,4.500099700000001,10.037767,-7.2596793,4.276772,-1
982,983,1583936076582,0.63699996,-3.6732,4.2142,9.790828999999999,-7.1645335999999995,4.1823835,-1
983,984,1583936076593,0.8082,-3.9582,4.7774997,10.357614,-7.2417134999999995,4.847004,-1
984,985,1583936076603,1.5340999,-4.0582,5.5200996,11.080528,-6.927345,5.4401526,-1
985,986,1583936076613,1.7615999,-3.6000997999999997,5.8503,11.018777,-6.051517,5.3289566,-1
986,987,1583936076623,0.93969995,-2.7375998,5.3293,9.80236,-4.9357996,4.6818323,-1
987,988,1583936076633,-0.6152,-1.9781,4.7871,8.348946,-4.003144,4.2463755999999995,-1
988,989,1583936076643,-1.9381,-1.5047,4.5778,7.1315417000000005,-3.3154044000000003,4.1349015,-1
989,990,1583936076653,-2.7031999,-1.2284,4.6489997,6.874280000000001,-2.7267852,4.4269266,-1
990,991,1583936076664,-2.6454,-0.858,5.0916,7.331141499999999,-2.3073306000000002,4.636218,-1
991,992,1583936076674,-2.1873999,-0.78419995,4.9435,7.6330504,-2.0970812,4.1512585,-1
992,993,1583936076684,-1.9684,-0.54109997,4.3503,7.762662400000001,-1.5190061000000001,3.7602854,-1
993,994,1583936076694,-2.1272,-0.40899998,4.355,7.123756,-1.4481663999999999,3.8896105000000003,-1
994,995,1583936076704,-3.0793,-0.6078,4.4416,6.0777,-1.2291448999999999,4.0297766,-1
995,996,1583936076715,-4.0118,-0.35599998,4.6959,5.346826999999999,-0.69372475,4.2177696,-1
996,997,1583936076725,-4.6789,-0.034199997999999995,4.7584,4.8644724,-0.30764535,3.9805998999999996,-1
997,998,1583936076735,-5.0193,0.1662,4.3001,4.6766996,0.14971422,3.3355062000000006,-1
998,999,1583936076745,-5.1513,0.5825,3.5779,4.5649576,0.8979501,2.6327024,-1
999,1000,1583936076755,-5.3301997000000005,1.2258999,2.9501,4.228773,1.3775088,2.3102994,-1
1000,1001,1583936076766,-5.7430997,1.3023,2.8823,3.8652182,1.2885593000000002,2.5349903,-1
1001,1002,1583936076776,-5.8996997,1.1442,3.0210998,4.4706163,1.0342185,2.4523616,-1
1002,1003,1583936076786,-5.1239,0.6857,2.8476,5.6338344000000005,0.22164561,1.7071711999999999,-1
1003,1004,1583936076796,-3.9164999,-0.1486,2.0402,6.5452876,-0.12836753,0.8234809000000001,-1
1004,1005,1583936076807,-3.1799998,-0.3662,1.1564,6.576096000000001,-0.027983429,0.18662323,-1
1005,1006,1583936076817,-3.4341,-0.3029,0.39589998,5.6095095,0.31833306,-0.52687764,-1
1006,1007,1583936076827,-4.4231997000000005,0.015899998999999998,-0.0515,4.544961,0.77949464,-0.3392584,-1
1007,1008,1583936076837,-5.460099700000001,0.3723,0.19739999,3.7399538,1.1156405,0.31614953,-1
1008,1009,1583936076847,-6.1231,0.61359996,0.8896,3.3823269999999996,1.340571,0.7967042,-1
1009,1010,1583936076858,-6.4525,0.74149996,1.1920998999999999,3.3429856,1.5100517,0.23760056,-1
1010,1011,1583936076868,-6.4098,0.8222,0.4549,3.6923760999999997,1.3773938000000001,-0.62773097,-1
1011,1012,1583936076878,-5.9171,0.6096,-0.26029998,5.026387000000001,0.8354232,-0.7980066,-1
1012,1013,1583936076888,-4.4054,-0.0407,-0.3284,6.6857123,0.22806208,-0.92194957,-1
1013,1014,1583936076898,-2.8248,-0.5682,-0.5238,7.351176299999999,0.4568137,-1.1448976999999998,-1
1014,1015,1583936076908,-2.4192998,-0.3346,-0.6662,6.277826999999999,0.9149777,-0.2646455,-1
1015,1016,1583936076918,-3.4921,0.055299997000000004,0.2166,4.769087,0.9560526,0.68130356,-1
1016,1017,1583936076928,-5.3672,0.0050999997,1.2874,3.3819633000000002,1.131902,1.3566886999999999,-1
1017,1018,1583936076938,-6.4674,0.1946,1.8722,3.5468373,1.6285167999999999,1.2422459,-1
1018,1019,1583936076948,-5.9809,0.6157,1.5,5.4892244,1.9373497,-0.103755124,-1
1019,1020,1583936076959,-4.2521,0.8253,0.35209998,7.254622500000001,1.8910648999999997,-1.3738313,-1
1020,1021,1583936076969,-2.4864,0.7733,-0.91899997,7.9944882,1.5000726999999998,-2.1671164000000003,-1
1021,1022,1583936076979,-1.7508999,0.3821,-1.712,8.049517,0.8049881,-2.0993512,-1
1022,1023,1583936076990,-1.6711999,-0.2252,-1.7166,7.940035000000001,0.50123096,-1.6495858,-1
1023,1024,1583936077000,-1.9368999,-0.7114,-0.504,7.7825823000000005,0.5121581000000001,-0.826737,-1
1024,1025,1583936077010,-1.9497,-0.5435,0.42659998,7.764348,0.7675428000000001,0.07217082,-1
1025,1026,1583936077022,-2.168,-0.2302,0.8939,7.4698615,1.1378683,0.38289029999999996,-1
1026,1027,1583936077032,-2.4364998,0.13,0.74649996,7.3286414,1.5741014,0.050929457000000004,-1
1027,1028,1583936077042,-2.0994,0.34919998,0.21859999,7.838875,1.7594031000000003,-0.5967308000000001,-1
1028,1029,1583936077052,-1.5099,0.36929998,-0.52169997,8.424392,1.640823,-1.2801126,-1
1029,1030,1583936077062,-1.0593,0.0471,-1.0259,8.775966,1.2297195,-1.6561458999999998,-1
1030,1031,1583936077073,-0.736,-0.47739998,-1.1764,9.058107000000001,0.7580521,-1.7001705000000003,-1
1031,1032,1583936077082,-0.15689999,-1.0924,-1.0418999,9.822806,0.08715851599999999,-1.4590265,-1
1032,1033,1583936077092,0.4236,-1.3525,-0.7545,10.198897,0.059749699999999996,-1.2788963,-1
1033,1034,1583936077102,0.5255,-1.1154,-0.6153,10.094069500000002,0.43853155,-1.1726226,-1
1034,1035,1583936077112,0.0802,-0.7845,-0.62409997,9.581767999999999,0.76287884,-1.2395931,-1
1035,1036,1583936077122,-0.3342,-0.49179998,-0.6042,9.301014,1.0321882,-1.2039674999999999,-1
1036,1037,1583936077132,-0.43449998,-0.2376,-0.46409997,9.290001,1.2966038999999998,-1.1263762,-1
1037,1038,1583936077143,-0.3487,-0.2529,-0.49449998,9.376536,1.2679693,-1.1849096000000001,d
1038,1039,1583936077153,-0.18439999,-0.2242,-0.49679998,9.5677185,1.3731799999999998,-1.210288,-1
1039,1040,1583936077163,0.028999999999999998,-0.21169999,-0.4445,9.816581,1.3945363000000002,-1.1924369,-1
1040,1041,1583936077173,0.3701,-0.16899999999999998,-0.41189998,10.074897,1.48022,-1.230457,-1
1041,1042,1583936077183,0.5047,0.049599998,-0.51669997,10.142614,1.8236251,-1.4096198,-1
1042,1043,1583936077193,0.4527,0.3444,-0.5536,9.97729,2.1607192000000004,-1.3868749,-1
1043,1044,1583936077204,0.4527,0.3444,-0.5536,9.727038,2.3185257999999997,-1.1390175,-1
1044,1045,1583936077214,-0.1422,0.6653,-0.0191,9.265714,2.4113729999999998,-0.7455257,-1
1045,1046,1583936077224,-0.6473,0.68829995,0.2572,8.838215,2.454325,-0.66953367,-1
1046,1047,1583936077234,-0.802,0.7019,0.0245,8.946183,2.4527639999999997,-1.1619538999999999,-1
1047,1048,1583936077244,-0.5872,0.6696,-0.5507,9.2425,2.436876,-1.7101113000000001,-1
1048,1049,1583936077254,-0.2171,0.6846,-0.95229995,9.566789,2.4264946,-1.7741417000000002,-1
1049,1050,1583936077265,0.0743,0.5829,-0.87219995,9.779088,2.2457802000000004,-1.5536838,-1
1050,1051,1583936077274,0.16149999,0.4461,-0.6584,9.771158,2.2145696,-1.3305538000000001,-1
1051,1052,1583936077284,0.1237,0.5258,-0.34559998,9.526873,2.354142,-0.7879605,-1
1052,1053,1583936077294,-0.3818,0.58559996,0.25349998,8.755117,2.3796546000000003,-0.31975043,-1
1053,1054,1583936077304,-1.1503,0.5801,0.6735,8.176074,2.46326,0.11157937,-1
1054,1055,1583936077314,-1.5756999,0.6647,1.1438999,7.9043035999999995,2.4952848,0.5126655999999999,-1
1055,1056,1583936077325,-1.7380999,0.6199,1.4534999,7.9091015,2.4392319,0.7031291999999999,-1
1056,1057,1583936077335,-1.6380000000000001,0.5949,1.6209999,7.948759,2.4199345,0.74692386,-1
1057,1058,1583936077345,-1.6969,0.51019996,1.5985,7.8510947,2.294239,0.62270314,-1
1058,1059,1583936077355,-1.8161999,0.43179998,1.4052,7.772498,2.2634976000000004,0.35493562,-1
1059,1060,1583936077365,-1.8191998999999999,0.4366,1.089,7.873543,2.280726,0.008858547,-1
1060,1061,1583936077375,-1.6269,0.45389998,0.7793,8.251357,2.3077998,-0.25535598,-1
1061,1062,1583936077386,-1.1889,0.5768,0.58709997,8.544389,2.3795395,-0.32335132,-1
1062,1063,1583936077396,-1.0339,0.5654,0.5341,8.372561,2.2904465,0.04388093,-1
1063,1064,1583936077406,-1.3368,0.49379998,1.1087999,7.747598599999999,2.1618682999999996,1.1245181999999998,-1
1064,1065,1583936077416,-2.0189,0.2843,2.2178,6.8995533,1.6872323,1.9497900000000001,-1
1065,1066,1583936077426,-2.866,-0.24249999,2.9539999999999997,6.358578,1.3834273000000001,2.2561712000000003,-1
1066,1067,1583936077436,-3.2923,-0.4407,3.2194998,6.384723,1.5651567,2.2752578,-1
1067,1068,1583936077447,-3.1325998,-0.17819999,3.2533998,6.776836,2.1713397999999997,2.1952243,-1
1068,1069,1583936077457,-2.7798998,0.44689998,3.1167998,6.722727000000001,2.6205112999999995,2.0033817,-1
1069,1070,1583936077467,-2.9494,0.8619,3.0054,6.4282975,2.8998573,2.2708044,-1
1070,1071,1583936077477,-3.2177,1.1708,3.3708,6.070719,3.1082485,2.6037614,-1
1071,1072,1583936077487,-3.6520998,1.3148,3.5584,5.447517400000001,2.96496,2.4592762,-1
1072,1073,1583936077498,-4.2908998,1.1567999,3.4505,4.718483,2.8059373,2.7585034,-1
1073,1074,1583936077508,-5.045099700000001,1.0497999,3.9162998,4.1118884,2.8839405,3.4575720000000003,-1
1074,1075,1583936077518,-5.5722,1.2315999,4.7229,3.9283202000000004,3.3316946000000005,4.310463400000001,-1
1075,1076,1583936077528,-5.6988997,1.7275,5.6349,3.7962844,3.5446732000000005,5.152226000000001,-1
1076,1077,1583936077538,-5.8496,1.9246999,6.4895,3.6269760000000004,3.5990214,5.5637608,-1
1077,1078,1583936077548,-5.9853,2.0328,6.7797,3.6188262000000004,3.3021597999999996,5.151144,-1
1078,1079,1583936077559,-6.0072,1.8233999,6.389199700000001,3.9124322,2.4575617000000003,4.3971524,-1
1079,1080,1583936077569,-5.7256,1.1101,5.6814,4.3025720000000005,1.3755358,3.3334758,-1
1080,1081,1583936077579,-5.343,0.1636,4.6789,4.910201,0.13789643,2.0896208,-1
1081,1082,1583936077590,-4.7401,-0.91349995,3.5247,6.160874400000001,-1.1169525,0.92307967,-1
1082,1083,1583936077600,-3.7407,-1.8449,2.5964,7.0634217,-1.2587466999999999,0.65922904,-1
1083,1084,1583936077610,-1.944,-1.5758,2.5295,7.657021,-0.995873,1.0048177,-1
1084,1085,1583936077621,-2.4026,-1.3544999,3.1141999,7.0803537,-0.98973423,1.4460307,-1
1085,1086,1583936077631,-3.2028,-1.2308999,3.3681997999999997,6.3053217,-1.0949354,1.5033767,-1
1086,1087,1583936077642,-3.5693,-1.6247,2.5495,6.1127706,-1.7754825,0.39601052,-1
1087,1088,1583936077652,-2.7344,-2.517,0.835,7.200083,-2.9333568,-1.4754506,-1
1088,1089,1583936077662,-1.0389,-3.4956,-1.0741,9.288392,-4.3320203,-3.7656769999999997,-1
1089,1090,1583936077672,0.7418,-4.2311,-2.5964,10.961249,-5.020938,-5.056133,-1
1090,1091,1583936077682,2.1534,-4.2314,-3.2331998,12.0797825,-4.9084296,-5.217358,-1
1091,1092,1583936077693,2.699,-3.5096998,-2.6504,12.010982499999999,-4.2679615,-4.4447779999999995,-1
1092,1093,1583936077703,1.9396,-2.8718,-1.7104,11.005618,-4.161112999999999,-3.5276551,-1
1093,1094,1583936077713,0.96029997,-3.0589999999999997,-1.2838,10.235211999999999,-4.6338434,-3.7569047999999996,-1
1094,1095,1583936077723,0.6949,-3.6527998,-2.6504,10.386477000000001,-5.5187306,-5.561051,-1
1095,1096,1583936077734,1.4959999,-4.455,-4.765,11.3412285,-6.5636177,-7.645548,-1
1096,1097,1583936077744,2.4415,-5.2576,-6.6169,12.122456,-7.3994913,-9.169189,-1
1097,1098,1583936077754,2.9471998,-5.6963,-7.6176996,12.390329,-7.88696,-9.914772,-1
1098,1099,1583936077764,3.2626998,-5.7058,-8.089499,12.96149,-7.6628245999999995,-10.210811,-1
1099,1100,1583936077774,3.8737998,-5.0627,-8.1833,13.461141,-7.171927,-10.148781,-1
1100,1101,1583936077784,4.2228,-4.606,-8.2479,13.443232,-6.973658,-10.161107000000001,-1
1101,1102,1583936077795,3.931,-4.4224997,-8.2449,12.701516999999999,-7.09333,-10.054651,-1
1102,1103,1583936077805,3.06,-4.5951,-8.2533,11.930547,-7.463895,-10.222485,-1
1103,1104,1583936077815,2.4935,-4.9093,-8.6406,11.629814999999999,-7.879107,-10.783503999999999,-1
1104,1105,1583936077825,2.2809,-5.3198,-9.4334,11.451208,-8.423444,-11.542877,-1
1105,1106,1583936077835,2.1267,-5.7311997,-10.1257,11.3647585,-8.771367999999999,-12.036418,-1
1106,1107,1583936077846,2.2059,-5.8447,-10.6192,11.618658,-8.729144,-12.343863,-1
1107,1108,1583936077856,2.4778,-5.6359997,-10.8631,11.822013,-8.318174,-11.908597,-1
1108,1109,1583936077866,2.5679,-5.1617,-10.3132,11.524097,-7.832698,-10.917761,-1
1109,1110,1583936077876,1.9451,-4.5443,-8.9291,10.207507000000001,-7.3549679999999995,-9.178315,-1
1110,1111,1583936077886,0.7187,-4.249399700000001,-7.7208,9.206318,-7.0788693,-8.152888,-1
1111,1112,1583936077896,-0.1855,-3.9506997999999998,-6.7598,8.639036,-6.831787599999999,-7.256212,-1
1112,1113,1583936077907,-0.7442,-3.7540998,-6.1040998,8.196588,-6.8624716,-7.2645154000000005,-1
1113,1114,1583936077917,-1.2599,-3.8801,-6.4722,7.9412127,-7.1387815,-8.014667,-1
1114,1115,1583936077927,-1.281,-4.0641,-7.1947,8.309201,-7.098952000000001,-8.281841,-1
1115,1116,1583936077937,-0.92679995,-3.9489,-7.4249997,8.072855,-7.2341857,-7.9911656,-1
1116,1117,1583936077947,-1.3183,-4.1716,-7.082000000000001,7.522601,-7.605009,-6.9184575,-1
1117,1118,1583936077957,-1.8489,-4.5116997,-5.937599700000001,7.151221799999999,-7.8165702999999995,-5.3522186,-1
1118,1119,1583936077968,-2.1746,-4.6591,-4.3942,6.976435700000001,-7.822575,-4.0161777,-1
1119,1120,1583936077978,-2.3235,-4.6391,-3.2663,6.885188,-7.673599,-3.0574242999999997,-1
1120,1121,1583936077988,-2.4029999,-4.4009,-2.5189,6.7749395,-7.170002,-2.7219965,-1
1121,1122,1583936077998,-2.5396,-3.8467,-2.4287,6.569795,-6.744294,-2.9054117,-1
1122,1123,1583936078008,-2.7224998,-3.4951,-2.7251,6.7357516,-6.762758,-2.7129178,-1
1123,1124,1583936078018,-2.5293999,-3.5207998999999996,-2.6052,7.3304996,-6.9635167000000004,-1.9797462,-1
1124,1125,1583936078028,-1.9214,-3.688,-1.9196,7.9408197,-7.1880926999999994,-1.0688195,-1
1125,1126,1583936078039,-1.3018,-3.8804998,-1.0260999,8.536344,-7.1705766,-0.44905645,-1
1126,1127,1583936078049,-0.6913,-3.8267,-0.4015,8.987267999999998,-7.120433,0.6990494,-1
1127,1128,1583936078059,-0.22819999,-3.7445,0.7151,8.968163,-7.144269,2.0184653000000004,-1
1128,1129,1583936078069,-0.2366,-3.7336998,2.0307999,8.656456,-7.174100999999999,3.2919316,-1
1129,1130,1583936078079,-0.54969996,-3.7443,3.2733998,8.800203999999999,-6.7281949999999995,4.150023,-1
1130,1131,1583936078089,-0.3904,-3.2610997999999998,4.0948,9.410131,-5.997887,4.5529194,-1
1131,1132,1583936078100,0.1838,-2.5941,4.4389,9.644016,-5.689131,4.622399,-1
1132,1133,1583936078110,0.6717,-2.2014,4.786299700000001,9.876733999999999,-5.8609290000000005,5.208844,-1
1133,1134,1583936078120,1.1328,-2.6746,5.7177,10.365371000000001,-6.459843,6.2421050000000005,-1
1134,1135,1583936078131,1.8379999,-3.2480998,7.0452,11.105169,-6.996796000000001,7.689697,-1
1135,1136,1583936078141,2.823,-3.3506,8.808499000000001,12.051817,-7.0205364,9.478549000000001,-1
1136,1137,1583936078151,3.2126,-2.8318,10.355,12.26153,-6.4322243,10.894219999999999,-1
1137,1138,1583936078162,2.7127,-2.1432,11.1591,11.605835,-5.767201,11.523475,-1
1138,1139,1583936078172,1.9151,-1.4839,11.578199,10.869102,-4.9512954,12.062352,-1
1139,1140,1583936078182,1.8542,-0.91099995,11.832,11.020549,-4.556166,12.096732000000001,-1
1140,1141,1583936078192,2.5131,-0.6541,11.445399,11.902257,-4.325805,11.448269,-1
1141,1142,1583936078202,2.5131,-0.6541,11.445399,12.561878,-4.0483365,10.598939999999999,-1
1142,1143,1583936078212,3.7951998999999996,-0.1646,9.6684,13.073893,-3.8306174,9.747608999999999,-1
1143,1144,1583936078223,4.2931,-0.0053,8.9955,13.518935999999998,-3.660457,9.390778,-1
1144,1145,1583936078233,4.5292,0.18969999,9.1655,13.574223499999999,-3.3888202000000005,9.832058,-1
1145,1146,1583936078243,4.2476997,0.4953,9.8677,13.067783,-3.0848044999999997,10.424813,-1
1146,1147,1583936078253,3.4996998,0.6498,10.2933,12.361934,-2.9377239,10.637821,-1
1147,1148,1583936078263,2.9559999,0.7194,10.0831995,12.061261,-2.784418,10.027242999999999,-1
1148,1149,1583936078273,3.0514,0.7514,9.0365,12.461667,-2.8399062,8.464853,-1
1149,1150,1583936078284,3.4234998,0.47379997,7.6099,12.686195,-3.0804372000000004,7.5903377999999995,-1
1150,1151,1583936078293,3.7858998999999995,0.0775,6.2388997,13.087069999999999,-3.4268785000000004,6.013976,-1
1151,1152,1583936078303,3.9404,-0.19749999,5.2125998,13.161548999999999,-3.6205977999999996,5.162167,-1
1152,1153,1583936078314,3.8555998999999996,-0.41599998,4.6947,13.078748,-3.6813917000000003,4.867134,-1
1153,1154,1583936078324,3.6583997999999998,-0.4134,4.6324,12.7054825,-3.6250129,4.619804,-1
1154,1155,1583936078334,3.2126,-0.5704,4.3013,12.369796000000001,-3.6880763,4.2122245000000005,-1
1155,1156,1583936078344,2.9815998,-0.7546,4.0126,12.352491,-3.7985157999999997,3.9135910000000003,-1
1156,1157,1583936078354,2.9972,-1.0670998999999999,3.6887999,12.441612,-4.138483,3.2434156,-1
1157,1158,1583936078365,3.1229,-1.4664999,2.9571,12.728026,-4.2863492999999995,2.438351,-1
1158,1159,1583936078375,3.3874,-1.5817,2.3593,12.883333,-4.184595,2.005594,-1
1159,1160,1583936078385,3.3481,-1.6021,1.9975,12.606161,-4.1798453,1.5742833999999999,-1
1160,1161,1583936078395,2.975,-1.7658999,1.4926,12.464741,-4.2073884,0.99952173,-1
1161,1162,1583936078405,2.9847999,-1.8752999,0.97639996,12.707149000000001,-4.181933,0.53661716,-1
1162,1163,1583936078415,3.2603,-2.0575,0.6306,12.838408,-4.482204,0.27008513,-1
1163,1164,1583936078425,3.1639,-2.5405998,0.38439998,12.624281,-4.696581,0.045336604,-1
1164,1165,1583936078436,2.9115999,-2.7187997999999998,0.324,12.382217,-4.5200133000000005,-0.13772406,-1
1165,1166,1583936078445,2.6313999,-2.6289999999999996,0.16149999,12.154615,-4.13267,-0.32296824,-1
1166,1167,1583936078455,2.3839,-2.3858,0.1453,11.841175999999999,-3.6919644,-0.42870575,-1
1167,1168,1583936078465,1.9792999,-2.083,-0.0771,11.487437,-3.4853065,-1.0438144,-1
1168,1169,1583936078475,1.7350999,-2.092,-0.7859,11.540311,-3.425078,-1.7802135,-1
1169,1170,1583936078485,1.9253,-2.2642999,-1.329,11.738311999999999,-3.5295992,-2.0451558000000003,-1
1170,1171,1583936078496,1.9609999999999999,-2.4989998,-1.3342999,11.2785,-3.4782197,-1.6753571,-1
1171,1172,1583936078506,1.3419999999999999,-2.5500998,-0.857,10.484401,-3.263814,-1.4870291000000002,-1
1172,1173,1583936078516,0.3435,-2.34,-0.6332,9.568321000000001,-2.5708458,-1.3932339,-1
1173,1174,1583936078526,-0.2883,-1.9096999,-0.4942,9.201042,-1.9468116999999998,-1.5957066999999998,-1
1174,1175,1583936078536,-0.6127,-1.4578999,-0.70159996,9.025910000000001,-1.3371998999999999,-1.9297363,-1
1175,1176,1583936078547,-0.7571,-1.0489,-0.92429996,8.761619999999999,-1.1076629999999998,-2.0165498,-1
1176,1177,1583936078556,-1.1055,-1.0727,-0.90449995,8.188092999999999,-1.1889223,-1.9489664,-1
1177,1178,1583936078566,-1.6583999,-1.324,-0.77019995,7.923667999999999,-1.1444379999999998,-1.7675912,-1
1178,1179,1583936078577,-1.8174,-1.3999,-0.61289996,8.11237,-1.0290278,-2.0650756,-1
1179,1180,1583936078587,-1.5819999999999999,-1.4190999,-0.8957,8.172311,-1.0873985000000002,-2.18265,-1
1180,1181,1583936078597,-1.54,-1.6499,-0.8584,7.951594,-1.2582008999999998,-1.9591178,-1
1181,1182,1583936078607,-1.8289,-1.969,-0.62119997,7.461817,-1.5189295,-2.0219226000000003,-1
1182,1183,1583936078617,-2.3116999,-2.3379,-0.6677,7.1992784,-1.4575803999999999,-2.0323803,-1
1183,1184,1583936078627,-2.4503,-2.313,-0.5549,7.2990303,-1.153239,-1.8071626,-1
1184,1185,1583936078638,-2.3042,-2.0393999,-0.23529999,7.1903334,-0.6798671,-1.5729713,-1
1185,1186,1583936078648,-2.5297,-1.8036,-0.086799994,6.745462400000001,-0.33016998,-1.6112211,-1
1186,1187,1583936078658,-2.9285997999999998,-1.5784,-0.0581,6.340028,-0.15384182,-1.592125,-1
1187,1188,1583936078668,-3.3335,-1.5778999,-0.065799996,5.8295650000000006,-0.101676956,-2.2640338,-1
1188,1189,1583936078678,-3.7266998,-1.6614,-0.6293,5.532694,0.07307104,-2.7864772999999996,-1
1189,1190,1583936078688,-3.9917,-1.6316998999999999,-1.097,5.3850574,0.36124673,-2.7899919,-1
1190,1191,1583936078699,-4.1096,-1.4509,-1.0602,5.064636699999999,0.69978684,-2.4163241,-1
1191,1192,1583936078709,-4.3982,-1.2393,-0.63879997,4.665083,1.2381566000000002,-2.113151,-1
1192,1193,1583936078719,-4.7669997,-0.79469997,-0.295,4.099150700000001,1.6961962,-2.3754122000000004,-1
1193,1194,1583936078729,-5.3064,-0.4339,-0.5313,3.870543,2.085934,-2.6069791,-1
1194,1195,1583936078739,-5.5028996,-0.1437,-0.71779996,3.7834230000000004,2.2909636000000004,-2.4554262000000002,-1
1195,1196,1583936078750,-5.5629,-0.0128999995,-0.53249997,3.2857738,2.3117647,-2.1517553,-1
1196,1197,1583936078760,-6.0344996,-0.074599996,-0.17979999,2.5761514,2.473871,-2.3040168,-1
1197,1198,1583936078770,-6.7216,0.0037999998,-0.29709998,1.9883558999999997,2.9413152,-2.1384529999999997,-1
1198,1199,1583936078780,-7.9023,0.7008,0.48889998,1.219501,3.3494785000000005,-1.5080118,-1
1199,1200,1583936078790,-8.3397,0.9058,0.6671,0.86136675,3.6370988,-1.5043248,-1
1200,1201,1583936078800,-8.1954,1.2595999,0.3899,1.0854545,4.004676,-1.8488887999999999,-1
1201,1202,1583936078810,-7.8420000000000005,1.4674,-0.096599996,1.4027723,4.181253,-2.4014132000000004,-1
1202,1203,1583936078821,-7.5523,1.5131999,-0.5567,1.6575633,4.193071,-2.8783956,-1
1203,1204,1583936078831,-7.4705,1.4494,-1.0648999,1.7078415,4.1018133,-3.3994122000000004,-1
1204,1205,1583936078843,-7.5253,1.4182,-1.1356,1.5648886,4.034086,-3.3955047,-1
1205,1206,1583936078854,-7.7454,1.3887,-0.9052,1.2455882999999999,3.997953,-3.0635917,-1
1206,1207,1583936078864,-7.9964,1.3655,-0.5179,1.0492350000000001,3.8898597,-2.6581194,-1
1207,1208,1583936078874,-8.164,1.2770000000000001,-0.146,1.0593098,3.708264,-2.5850961,-1
1208,1209,1583936078884,-7.9561996,1.1,-0.24249999,1.5117947,3.4909567999999997,-2.9641652,-1
1209,1210,1583936078894,-7.482199700000001,1.0605,-0.63699996,1.9196806,3.5776076,-3.1233318,-1
1210,1211,1583936078904,-7.2699,1.2694,-0.5568,1.8336041,3.4789665000000003,-2.87603,-1
1211,1212,1583936078915,-7.5031,1.0438,-0.40129998,1.6419723000000002,3.0024054000000002,-3.0148077,-1
1212,1213,1583936078925,-7.5599,0.7364,-0.706,1.9088875,2.8082166,-3.2441432,-1
1213,1214,1583936078935,-6.9385996,0.653,-0.66969997,2.824047,2.5031474,-2.8204846000000003,-1
1214,1215,1583936078946,-6.178,0.4279,-0.0876,3.4589896,2.0849283,-2.0228705000000002,-1
1215,1216,1583936078956,-5.8187,0.16749999,0.7492,3.3927178,1.7983233,-1.3605386,-1
1216,1217,1583936078966,-6.0994,-0.0075999996999999994,1.3686,3.0251122,1.2512481000000002,-0.5934268,-1
1217,1218,1583936078977,-6.393399700000001,-0.3773,1.9057,3.2220304,0.7235373,-0.53993076,-1
1218,1219,1583936078988,-6.0832,-0.6904,1.7819999999999998,3.8745364999999996,0.47487554,-1.0993886999999998,-1
1219,1220,1583936078998,-5.4909,-0.7382,1.1273999,4.3316946,0.22942199,-1.5320114,-1
1220,1221,1583936079008,-5.1643,-0.76119995,0.75439996,4.607507,0.12793656,-1.6283348999999998,-1
1221,1222,1583936079018,-4.8359,-0.6394,0.6182,4.9906654,0.0853102,-0.84933823,-1
1222,1223,1583936079028,-4.5703998,-0.5058,1.31,4.904005000000001,-0.7028131,0.6707691,-1
1223,1224,1583936079038,-4.6675997,-1.0708,2.7707999,5.0391912,-1.86538,0.83776945,-1
1224,1225,1583936079049,-4.5492,-2.0233998,2.9127998,6.30401,-2.5015001,-0.21200177,-1
1225,1226,1583936079059,-3.2863,-2.4404,1.8794999,7.679603,-3.3127708,-1.5816193,-1
1226,1227,1583936079069,-1.9118998999999999,-3.0059,0.49359998,8.405458,-4.1304193,-2.3482428,-1
1227,1228,1583936079079,-1.1844,-3.5816998,-0.3126,8.21284,-4.4647746,-2.3689284,-1
1228,1229,1583936079089,-1.3772,-3.6778,-0.3979,7.586803999999999,-4.619181,-1.2920358,-1
1229,1230,1583936079100,-1.9923999,-3.5844,0.5902,6.773321000000001,-4.688268,0.28134745,-1
1230,1231,1583936079110,-2.7366,-2.7108,3.4341,6.928953599999999,-3.9991980000000003,2.2696362,-1
1231,1232,1583936079121,-2.5851,-2.0188,4.2258997,6.948921,-3.7786730000000004,2.904023,-1
1232,1233,1583936079131,-2.5851,-2.0188,4.2258997,7.002828999999999,-3.8839028,2.774918,-1
1233,1234,1583936079142,-2.0486999,-2.1204998,3.1076999,7.642857000000001,-4.775044,1.472932,-1
1234,1235,1583936079151,-1.3248999,-2.8292,1.9158,8.254738,-5.5382004,0.8283075999999999,-1
1235,1236,1583936079161,-0.7838,-3.4724,1.7364998999999999,8.532561,-6.4580817,0.89569956,-1
1236,1237,1583936079171,-1.3716999,-4.0701,2.0377998,7.727324,-7.334550999999999,1.2770289,-1
1237,1238,1583936079181,-1.7281,-4.5162997,2.3195999,7.5696807,-7.928264599999999,1.6258928999999998,-1
1238,1239,1583936079191,-0.85139996,-4.2086997,2.0102,8.456819,-7.7639747,1.2471302,-1
1239,1240,1583936079201,-0.85139996,-4.2086997,2.0102,9.730045,-7.414996,0.27843606,-1
1240,1241,1583936079212,1.7917,-3.1434999,0.0285,11.104365,-7.305217,-0.34336683,-1
1241,1242,1583936079222,2.5765998,-3.0793,0.1503,11.33575,-7.6052966,0.055334787999999996,-1
1242,1243,1583936079232,2.0728,-3.8277,0.9701,10.337397,-9.027137,1.3920654,-1
1243,1244,1583936079242,1.263,-4.9021,2.2900999,9.559989999999999,-10.152038000000001,2.6886022,-1
1244,1245,1583936079253,0.90709996,-5.5299997,3.2429,9.182932000000001,-10.9351425,3.4851246,-1
1245,1246,1583936079263,1.0166,-5.7419996,3.5140998,9.330587,-11.110446000000001,3.6515503,-1
1246,1247,1583936079273,1.5121,-5.5063,3.1092,9.858145,-11.159967,3.110403,-1
1247,1248,1583936079283,2.7619998,-5.1844997,1.4659,11.315973,-10.807962,1.1726226,-1
1248,1249,1583936079294,4.5827,-4.3312,-0.8662,12.884195,-10.122015,-0.5868475999999999,-1
1249,1250,1583936079304,6.0418,-3.7526,-1.6814,13.738887,-10.182951,-0.6158557,-1
1250,1251,1583936079314,6.3831997000000005,-4.1184,-0.9018,13.406303,-10.756862,0.97139466,-1
1251,1252,1583936079324,5.8417997,-4.1429,0.49429998,12.3702755,-10.53173,1.8642212,-1
1252,1253,1583936079334,4.7606,-3.6634998,0.9766,11.098628999999999,-10.331641000000001,1.8941487000000001,-1
1253,1254,1583936079345,3.7494998,-3.5059998,0.93579996,10.386315,-10.422649,1.9553063000000002,-1
1254,1255,1583936079355,3.4857,-3.4761998999999997,0.81799996,10.372305,-10.598192,1.7305577,-1
1255,1256,1583936079365,4.0902,-3.8562999,0.3443,11.3376465,-11.4480095,1.2456553,-1
1256,1257,1583936079376,5.2019997,-4.4663997,-0.31559998,12.430859,-11.699639,-0.025713727000000002,-1
1257,1258,1583936079386,6.1994,-4.255,-1.7327,12.811019,-11.303419,-0.9980948000000001,-1
1258,1259,1583936079396,6.5898,-3.6766,-2.5469,12.404962,-11.018289,-0.16298766,-1
1259,1260,1583936079406,6.1031,-3.5038,-1.3278999,11.350691000000001,-11.124734,1.7327317,-1
1260,1261,1583936079416,5.1068,-3.5372999,0.5373,10.398306,-11.274171,3.1415086,-1
1261,1262,1583936079426,4.3185997,-3.6462998,1.7594999,10.074226,-11.370495,3.4762852,-1
1262,1263,1583936079437,4.2201,-3.6906,1.8592999,10.133794,-11.775938,2.910315,-1
1263,1264,1583936079447,4.4318,-4.061899700000001,1.1329,10.423846000000001,-12.008453999999999,2.1851497,-1
1264,1265,1583936079457,4.8089,-4.1457,0.41759998,10.397569,-11.752064,1.6642957999999999,-1
1265,1266,1583936079467,4.7335,-3.7782,-0.2175,9.904917999999999,-11.429899,1.003611,-1
1266,1267,1583936079477,4.2978997,-3.4211998,-0.84959996,9.466186,-10.862703999999999,1.0326861999999999,-1
1267,1268,1583936079487,3.9027998,-2.7967,-0.7084,9.031628,-10.505709,1.3359646,-1
1268,1269,1583936079498,3.4833998999999998,-2.4701,-0.42,8.608831,-10.134818,1.6155595,-1
1269,1270,1583936079508,3.1227999,-2.0581,-0.1136,8.090621,-9.7291355,1.9059186000000001,-1
1270,1271,1583936079518,2.5721998,-1.6477,0.1871,7.4420023,-9.365064,2.0250733,-1
1271,1272,1583936079528,2.0619,-1.3363,0.2852,7.310465,-9.2974415,1.8747460999999999,-1
1272,1273,1583936079539,1.9582,-1.2501999,0.1354,7.464824,-9.440767999999998,1.2219048000000001,-1
1273,1274,1583936079549,2.1320999,-1.3707,-0.51629996,7.7264814,-9.399569,0.6433603,-1
1274,1275,1583936079560,2.4196,-1.3282,-1.1036,7.571528999999999,-9.174657,0.7523251999999999,-1
1275,1276,1583936079570,2.2744,-1.0953,-0.99719995,6.82268,-8.870335,0.6964445,-1
1276,1277,1583936079580,0.821,-0.37219998,-1.3161,6.0510097,-8.373319,0.38068765,-1
1277,1278,1583936079590,0.5945,-0.06,-1.2709,5.901161,-8.099115,0.5053489000000001,-1
1278,1279,1583936079601,0.5945,-0.06,-1.2709,5.7453566,-8.062216000000001,0.9757617000000001,-1
1279,1280,1583936079611,0.0771,-0.066599995,0.0458,5.32141,-8.172244000000001,1.8170363,-1
1280,1281,1583936079621,0.0771,-0.066599995,0.0458,5.04624,-8.302833,2.185475,-1
1281,1282,1583936079631,-0.21149999,-0.4425,0.68119997,5.209955,-8.593105,2.234633,-1
1282,1283,1583936079641,0.1854,-0.6847,0.1803,5.575981,-8.778082000000001,1.5776353,d
1283,1284,1583936079652,0.39319998,-0.5086,-0.8671,5.7251496,-8.575225999999999,0.52269256,-1
1284,1285,1583936079662,0.3784,-0.3845,-1.4757999,5.6973863,-8.441228,0.14055879999999998,-1
1285,1286,1583936079672,0.27879998,-0.3793,-1.0293,5.6113195,-8.477006,0.6908517,-1
1286,1287,1583936079682,0.1366,-0.46269998,-0.3281,5.4472976,-8.537608,1.4321731000000002,-1
1287,1288,1583936079692,-0.0537,-0.42859998,0.0659,5.257437,-8.517660000000001,1.5655876,-1
1288,1289,1583936079702,-0.0537,-0.42859998,0.0659,5.269954,-8.578559,1.7008888,-1
1289,1290,1583936079713,0.0773,-0.5929,0.36769998,5.6163087,-8.728003999999999,1.9729085,-1
1290,1291,1583936079723,0.3994,-0.8203,0.5502,5.9267125,-9.046242,2.1142335,-1
1291,1292,1583936079733,0.78069997,-1.2448,0.4799,6.3458505,-9.442052,1.7750037,-1
1292,1293,1583936079744,1.2276,-1.4667,-0.21419999,6.921330499999999,-9.540797999999999,0.99674445,-1
1293,1294,1583936079753,1.6696,-1.6135,-0.66319996,7.137623,-9.715192,0.9330779,-1
1294,1295,1583936079763,1.8794999,-1.9792999,-0.2429,7.338717,-10.174064999999999,1.6299726,-1
1295,1296,1583936079773,1.9763998999999999,-2.2986999,0.37759998,7.499013000000001,-10.375158,2.0917470000000002,-1
1296,1297,1583936079783,2.2371,-2.4247,0.4658,7.996997400000001,-10.478242999999999,1.9614736000000002,-1
1297,1298,1583936079794,2.7124999,-2.592,0.2635,8.577582000000001,-10.77046,1.7114711999999999,-1
1298,1299,1583936079804,3.3332998999999996,-2.9965,-0.078999996,9.184244,-11.109392,1.367319,-1
1299,1300,1583936079814,4.2344,-3.4234998,-0.54789996,10.341965,-11.654649000000001,0.83799934,-1
1300,1301,1583936079824,5.0499,-3.9917998,-0.92249995,11.0519705,-12.282351,0.6698881,-1
1301,1302,1583936079834,5.6394997,-4.6547,-0.9773,11.515651,-12.752964,0.6902866999999999,-1
1302,1303,1583936079845,6.1698,-5.2174997,-1.1000999,12.293939,-13.160485999999999,0.48943228,-1
1303,1304,1583936079855,6.7574997,-5.3877997,-1.3139,12.755751,-13.121317000000001,0.056225434000000005,-1
1304,1305,1583936079865,7.0276,-5.3334,-1.8291,13.067965,-12.974227,-0.39422923,-1
1305,1306,1583936079875,7.1843996,-5.3187,-2.0657,13.295777,-12.880738000000001,-0.3572532,-1
1306,1307,1583936079885,7.3142,-5.3436,-1.8743,13.45005,-12.920272,-0.13210247,-1
1307,1308,1583936079895,7.2907,-5.5168,-1.5122,13.446554999999998,-12.94178,0.12731408,-1
1308,1309,1583936079906,7.1179,-5.5452,-1.4327999,13.49443,-12.714322,-0.19350895,-1
1309,1310,1583936079916,7.0167,-5.3304,-1.8168999,13.4048195,-12.381642,-0.6046891,-1
1310,1311,1583936079926,6.7139997000000005,-5.245,-1.9318,12.957544,-12.170599000000001,-0.19888155,-1
1311,1312,1583936079936,5.994,-5.1614,-1.4268999,12.317488,-11.770288,0.040404547,-1
1312,1313,1583936079947,5.2601,-4.8529,-1.1624,11.921305,-11.301782000000001,0.271196,-1
1313,1314,1583936079957,4.7001,-4.5731997,-0.83769995,11.263272,-10.967742,0.47238556,-1
1314,1315,1583936079967,3.8042,-4.4307,-0.58599997,10.793732,-10.693664,0.7160960999999999,-1
1315,1316,1583936079977,3.2996,-4.3468,-0.1426,10.826207,-10.389197,1.1272093,-1
1316,1317,1583936079987,3.1583997999999998,-4.2037997,0.33319998,10.482878,-9.914016,1.3336565,-1
1317,1318,1583936079997,2.5075998,-3.9169,0.6838,9.568944,-9.305401,1.8475958,-1
1318,1319,1583936080008,1.3884,-3.4763,1.3673999,8.561866,-8.477284,2.568538,-1
1319,1320,1583936080018,0.4233,-3.0232,2.0627,8.198551,-7.791681,2.6895602000000003,-1
1320,1321,1583936080028,-0.0985,-2.5498998,2.2573,8.057772,-7.210914,2.2038912999999996,-1
1321,1322,1583936080038,-0.42049998,-2.0606,1.6322,7.768859,-6.6036677,0.86982304,-1
1322,1323,1583936080048,-0.7883,-1.7883999,0.5506,7.8916816999999995,-6.391398000000001,0.5679717,-1
1323,1324,1583936080059,-0.7718,-1.7819999999999998,0.3199,8.443124000000001,-6.3229237000000005,1.3260334999999999,-1
1324,1325,1583936080069,-0.3251,-1.9079,1.1542,9.109115,-6.6970325,2.5181255,-1
1325,1326,1583936080079,0.2436,-2.4785,2.4366,9.274658,-6.633375,2.5844352,-1
