,Seq,Time,ACCx,ACCy,ACCz,ADGx,ADGy,ADGz,Keydown
0,1,1583938176517,-0.1969,-0.4306,0.2147,6.757194,-6.427857,3.5962152,-1
1,2,1583938176527,-0.2385,-0.0365,0.0365,9.373894,1.0279074000000001,-0.60985106,-1
2,3,1583938176538,-0.1205,-0.8825,2.1674,9.635694500000001,0.2877639,1.5165545,-1
3,4,1583938176548,0.1275,-1.2507,2.8997,9.966746,0.41153455,0.9817089,-1
4,5,1583938176558,0.3304,-0.8724,1.8363999,9.979693,0.9574604,-0.34839466,-1
5,6,1583938176568,0.2595,-0.22289999,0.3741,9.784517999999998,1.3625498,-0.76433456,-1
6,7,1583938176578,0.0075,0.20879999,-0.0853,9.525436000000001,1.5479184,-0.5773761,-1
7,8,1583938176589,-0.2771,0.3531,-0.0049,9.184664999999999,1.4494784,-0.16360058,-1
8,9,1583938176599,-0.5455,0.2491,0.2683,9.156346000000001,1.2837901000000003,0.30743465,-1
9,10,1583938176609,-0.5669,0.0435,0.74439996,9.277091,1.1828889,0.5323939,-1
10,11,1583938176619,-0.43089998,-0.0315,0.7974,9.509252,1.1812991000000002,0.39712146,-1
11,12,1583938176629,-0.16759999,-0.029299999,0.5299,9.884892,1.3642162,0.23292710000000003,-1
12,13,1583938176639,0.1513,0.0932,0.0611,10.019178,1.4322019,0.34988865,-1
13,14,1583938176650,0.2905,0.1494,0.1591,9.76953,1.3668402,0.69389707,-1
14,15,1583938176660,0.048499997999999996,0.0624,0.46719998,9.31808,1.2942479,0.67306757,-1
15,16,1583938176671,-0.8009,0.0695,-0.0506,8.900196000000001,1.5260546,0.27066928,-1
16,17,1583938176681,-0.6405,0.4107,-0.267,9.161777,1.9110806,0.022965182999999997,-1
17,18,1583938176691,-0.4015,0.6232,-0.6085,9.325157,2.0225258000000004,-0.24011928,-1
18,19,1583938176701,-0.4271,0.529,-0.5636,9.244108,1.9368134,-0.10279745,-1
19,20,1583938176711,-0.5606,0.3367,-0.28919998,9.127827,1.7690182,0.16265248,-1
20,21,1583938176722,-0.5606,0.3367,-0.28919998,9.293821000000001,1.6256533000000002,0.674686,-1
21,22,1583938176732,-0.15169999,0.0667,0.82799995,9.572526,1.563519,1.339939,-1
22,23,1583938176742,-0.118599996,0.0639,1.1358,9.528463,1.586082,1.5670625,-1
23,24,1583938176752,-0.118599996,0.0639,1.1358,9.296158,1.6184133,1.4676839,-1
24,25,1583938176762,-0.7075,0.092999995,0.6925,8.928887,1.6980828000000001,1.0747476,-1
25,26,1583938176773,-0.8892,0.22839999,0.40269998,8.7679405,1.8417253,0.84296966,-1
26,27,1583938176783,-0.9342,0.2313,0.2012,8.754972,1.8300512,0.6938300999999999,-1
27,28,1583938176793,-0.76449996,0.1416,0.2977,8.943338,1.7499316999999999,0.8903749,-1
28,29,1583938176803,-0.5761,0.076299995,0.60289997,9.108559,1.6963971999999998,1.2107956,-1
29,30,1583938176813,-0.58419997,0.0033,0.94949996,9.01642,1.6127248,1.5984074,-1
30,31,1583938176823,-0.7888,-0.0884,1.1518999,8.765326,1.5234976,1.7938317,-1
31,32,1583938176834,-0.99369997,-0.1497,1.3267,8.647655499999999,1.4895573999999998,2.0136194,-1
32,33,1583938176843,-1.0516,-0.131,1.5495,8.609942,1.5272229,2.172489,-1
33,34,1583938176853,-1.1094998999999999,-0.0818,1.4746,8.5078535,1.5633562,2.030666,-1
34,35,1583938176863,-1.3335999,-0.0133,1.2178999,8.261442,1.6792452000000002,1.8136845000000001,-1
35,36,1583938176873,-1.5964999,0.1621,1.1723,7.983782000000001,1.8573643,1.8298308999999997,-1
36,37,1583938176884,-2.0945,0.3658,1.3327999,7.4452586,2.0507006999999997,2.169463,-1
37,38,1583938176894,-2.6324,0.40399998,1.6867,6.837352,2.0331082,2.5615275,-1
38,39,1583938176905,-3.0639,0.3295,2.1487,6.464583999999999,1.8750046000000002,3.0763576,-1
39,40,1583938176915,-3.3699,0.105,2.6701999,6.1904383,1.6696302,3.5145922,-1
40,41,1583938176925,-3.5303998,-0.06399999599999999,2.7881,6.1622252,1.5124748,3.3122727999999997,-1
41,42,1583938176937,-3.4761998999999997,-0.0413,2.4484,6.240803,1.5937434,2.7709918,-1
42,43,1583938176946,-3.4227998,0.0735,1.7881,6.3019986,1.7064146,2.1286082000000004,-1
43,44,1583938176956,-3.3604,0.1907,1.3995999,6.248426,1.7540305,2.044045,-1
44,45,1583938176966,-3.5442998,0.2128,1.4667,6.005577,1.5631647,2.0570310000000003,-1
45,46,1583938176976,-3.7396998,-0.074099995,1.3887,5.890770400000001,1.0998961999999999,1.6229719,-1
46,47,1583938176986,-3.78,-0.5388,0.9284,5.978858,0.5561826,0.9879243000000001,-1
47,48,1583938176997,-3.7231998,-1.0424,0.285,6.05733,0.027753586,0.14969507,-1
48,49,1583938177007,-3.5781,-1.4978,-0.3778,6.331437599999999,-0.45767559999999996,-0.43245029999999995,-1
49,50,1583938177018,-3.2656999,-1.7705,-0.7744,6.695116499999999,-0.53425175,-0.665454,-1
50,51,1583938177028,-3.0405998,-1.6175,-0.72859997,6.5574694000000004,-0.31234756,-0.3229778,-1
51,52,1583938177038,-3.2849,-1.3475,-0.2933,5.910076999999999,-0.21663694,0.21069932,-1
52,53,1583938177048,-4.0576,-1.2071999,0.2802,4.8083134,-0.40262812,0.5508579,-1
53,54,1583938177058,-5.1927,-1.4186,0.53209996,3.8840462999999996,-0.9389868,0.35567304,-1
54,55,1583938177068,-6.0239,-1.9045,0.285,3.4700794000000004,-1.6297618,-0.28887478,-1
55,56,1583938177078,-6.3486,-2.4902,-0.38439998,3.6947896,-2.4272606,-1.2388843999999999,-1
56,57,1583938177088,-5.9610996,-3.1722999,-1.3122,4.6970882000000005,-2.8325033,-1.9808571,-1
57,58,1583938177099,-4.8505,-3.3488,-1.9253,5.885944,-2.8118079,-2.169798,-1
58,59,1583938177109,-3.7089999,-3.0832,-1.9247999,6.753976,-2.13965,-1.7517607,-1
59,60,1583938177119,-3.0558999,-2.3293998,-1.5548999,6.8565054000000005,-1.2637745,-1.2346706,-1
60,61,1583938177129,-2.96,-1.3096,-1.0637,5.656799299999999,-0.8968105,-0.6937439000000001,-1
61,62,1583938177139,-4.1568,-0.8168,-0.55189997,3.7461882000000006,-1.8924631999999997,-0.8873677,-1
62,63,1583938177150,-6.0677,-1.6895,-0.7575,3.2221072,-3.0216262,-1.3878325,-1
63,64,1583938177160,-6.5246997,-2.9464,-1.4290999,4.6620946,-4.5506687,-2.2433765,-1
64,65,1583938177170,-5.1439,-4.0243,-2.1174,6.6721897,-5.5771017,-3.240284,-1
65,66,1583938177180,-3.1207,-4.8531,-3.1028,8.251884,-5.668876,-4.608589,-1
66,67,1583938177190,-0.78749996,-4.7226,-5.4465,9.009793,-5.745222,-5.560313,-1
67,68,1583938177201,-0.7464,-3.6067998,-4.2033997,8.931981,-4.6772356,-3.9385288,-1
68,69,1583938177211,-0.7464,-3.6067998,-4.2033997,8.312285000000001,-3.8380587,-2.5413783,-1
69,70,1583938177221,-1.402,-2.3757,-2.4287,6.49501,-3.3213227,-1.1180921999999998,-1
70,71,1583938177231,-2.8574,-1.6624999,-1.2011,5.49228,-3.8190486000000003,-1.4477068000000002,-1
71,72,1583938177241,-3.9117,-2.9266,-3.0593998,5.9973220000000005,-5.1234574,-3.3741677000000005,-1
72,73,1583938177251,-1.7687,-4.2455,-4.3991,8.354078,-6.659395699999999,-4.548284,-1
73,74,1583938177261,0.9138,-4.9056,-5.0959,10.894575,-7.425932400000001,-5.1763887,-1
74,75,1583938177272,2.7108998,-5.3471,-5.8051996,12.360478,-8.014801,-5.845137,-1
75,76,1583938177282,3.3130998999999997,-5.139199700000001,-5.8803997,12.741549000000001,-7.8528666,-5.6199574,-1
76,77,1583938177292,3.1897,-4.2943,-5.0825,12.393642,-7.2196964999999995,-4.687196,-1
77,78,1583938177303,2.3702,-4.015,-4.2998,11.305047,-7.266134,-3.7333937000000006,-1
78,79,1583938177313,1.857,-3.9096,-4.0043,11.125175,-7.327684,-3.7822928,-1
79,80,1583938177323,2.4098,-4.1198,-4.9632998,12.139953,-7.977192999999999,-5.05551,-1
80,81,1583938177333,4.2258,-4.6226,-6.376,14.094167,-8.612575999999999,-6.2230473,-1
81,82,1583938177343,6.2332997,-4.9749,-7.1197996,15.816709,-9.074197,-6.6365933,-1
82,83,1583938177353,7.4374,-5.1117,-7.0895,16.391365,-9.352125,-6.31124,-1
83,84,1583938177363,7.5094,-5.2197,-6.6088,16.270632,-9.626616499999999,-5.8924847,-1
84,85,1583938177374,7.3813,-5.4535,-6.3949,16.087925,-9.883149000000001,-5.648630000000001,-1
85,86,1583938177384,7.5351,-5.1995997,-6.325599700000001,16.262145999999998,-9.725449000000001,-5.646198,-1
86,87,1583938177394,7.7271,-5.0511,-6.6461,16.289076,-9.816294000000001,-5.9275837,-1
87,88,1583938177405,7.8581996,-5.0376,-6.7415,16.508078,-9.853997999999999,-5.7725352999999995,-1
88,89,1583938177415,8.172,-4.8557,-6.5600996,16.752651,-9.627047,-5.623663400000001,-1
89,90,1583938177425,8.4512,-4.4296,-6.5063996,16.843420000000002,-9.263836999999999,-5.5056389999999995,-1
90,91,1583938177435,8.4374,-4.0864997,-6.3113,16.519436,-9.289876,-5.061218,-1
91,92,1583938177445,8.049,-4.1429,-5.6436996,15.993162,-9.386592,-4.2390875999999995,-1
92,93,1583938177455,7.5301,-4.1191998,-4.8187,15.443731,-9.298026,-3.517839,-1
93,94,1583938177466,6.9508996,-3.9550998,-4.0994997,14.717551,-9.119285000000001,-2.9085147,-1
94,95,1583938177476,6.1661997,-3.6876998,-3.4836998,13.950534,-8.931799,-2.432413,-1
95,96,1583938177486,5.5224,-3.5774998999999994,-2.9645998,13.621906,-8.893769,-1.9317377,-1
96,97,1583938177496,5.4340997,-3.5412998,-2.4333,13.841656,-8.737112,-1.5333617,-1
97,98,1583938177506,5.7647,-3.3135,-2.0079,14.096093,-8.621836,-1.091325,-1
98,99,1583938177517,5.8556,-3.3379998,-1.3261,13.856117000000001,-8.891625,0.28621244,-1
99,100,1583938177528,5.518399700000001,-3.6474,0.0348,13.367441,-9.252938,1.6393003000000002,-1
100,101,1583938177538,5.0280000000000005,-4.0161,1.4126999,13.117304999999998,-9.4760685,2.6334112000000003,-1
101,102,1583938177549,4.8171,-4.2272,2.3030999,13.187876000000001,-9.281735000000001,2.824861,-1
102,103,1583938177559,4.8954,-3.9575,2.4085,13.313839999999999,-8.616014,2.6347232000000003,-1
103,104,1583938177569,4.9972997,-3.365,2.2333,13.435829,-8.227721,2.5687869,-1
104,105,1583938177579,5.0432,-3.1378,2.2373,13.506391,-8.044192,2.7959871,-1
105,106,1583938177590,5.0627,-2.9819999,2.5707,13.383818,-7.709061599999999,3.3505797,-1
106,107,1583938177600,4.8889,-2.7912998,3.0921,12.92708,-7.204574000000001,3.6986778,-1
107,108,1583938177611,4.3649,-2.4001,3.4840998999999995,12.188421,-6.771271700000001,4.051419999999999,-1
108,109,1583938177621,3.5616,-2.09,3.8860997999999998,11.405613,-6.5141344000000005,4.9840574,-1
109,110,1583938177631,2.707,-1.9652,4.8529,10.904678,-6.424898000000001,5.889286,-1
110,111,1583938177641,2.1375,-2.0011,5.8029,10.864714999999999,-6.388525,6.4180980000000005,-1
111,112,1583938177652,2.2733,-2.031,6.4486,11.246466,-6.130047,6.4092970000000005,-1
112,113,1583938177663,2.5669,-1.8470999,6.1032,11.584019999999999,-5.798612599999999,5.9689746,-1
113,114,1583938177673,2.6459,-1.6265999,5.3357997,11.624779,-5.3971148,4.988367,-1
114,115,1583938177683,2.5187,-1.4613999,4.5407,11.642525,-5.106315,4.266314,-1
115,116,1583938177693,2.6559,-1.3328999,3.9461,11.86686,-4.907739599999999,3.5924612999999996,-1
116,117,1583938177703,2.6657,-1.4476,3.2261,11.7664385,-4.928761,2.9319968,-1
117,118,1583938177714,2.1845,-1.7114999,3.0196,11.181573,-5.0663800000000005,2.9587543,-1
118,119,1583938177724,2.1845,-1.7114999,3.0196,10.735984,-5.037209,3.8447718999999996,-1
119,120,1583938177734,1.1179,-1.9372,4.9068,10.240001,-4.7336907,4.9764919999999995,-1
120,121,1583938177744,0.261,-1.8137,5.8904,9.2541065,-4.4047849999999995,5.5773697,-1
121,122,1583938177754,-0.91569996,-1.5426999,6.0933,8.066237,-3.8541955999999997,5.389166,-1
122,123,1583938177765,-2.0586,-1.1072,5.5256,7.180728,-3.1405416,4.435210700000001,-1
123,124,1583938177775,-2.6178,-0.784,4.6407,6.872336,-2.7625544,3.4918663999999997,-1
124,125,1583938177785,-2.6613998,-0.5708,3.6487,7.010194,-2.4757578,2.3123007,-1
125,126,1583938177795,-2.5233,-0.53,2.5182998,7.261843700000001,-2.392114,1.5852583999999998,-1
126,127,1583938177805,-2.0772998,-0.5427,1.8635999,7.760326400000001,-2.228504,1.2995344,-1
127,128,1583938177815,-1.6876,-0.40199998,1.9871999,7.9216375,-1.9464284,1.5357941000000002,-1
128,129,1583938177826,-1.9727999,-0.4691,2.2231,7.215175599999999,-1.965812,1.7092493000000002,-1
129,130,1583938177836,-2.8346999,-0.5904,2.5469999999999997,6.4900199999999995,-1.7573537000000001,2.1679304,-1
130,131,1583938177846,-3.4878,-0.46559998,3.097,5.7653913,-1.4266282,2.5197632000000003,-1
131,132,1583938177856,-4.2848,-0.28300000000000003,3.4564998,4.9709277,-1.0932403999999998,2.7221115,-1
132,133,1583938177866,-5.0397,-0.1251,3.7752998,4.267558999999999,-0.80344623,3.0188298,-1
133,134,1583938177877,-5.7228,-0.0036,3.9959,3.7148626000000005,-0.5381208000000001,2.8923582999999997,-1
134,135,1583938177887,-6.1875,0.098,3.7554998,3.4245608,-0.40451473,2.33201,-1
135,136,1583938177897,-6.3556,0.0479,3.0182998,3.5017211,-0.35193807,1.0281469,-1
136,137,1583938177907,-6.1692,0.0526,1.8916998999999999,4.1453977,0.078884155,0.10810299999999999,-1
137,138,1583938177917,-5.4042997,0.4818,1.1144,4.8789425,0.57769215,-0.27838817,-1
138,139,1583938177927,-4.5917997,0.9866,0.7004,5.396530599999999,0.8281351999999998,-0.5742636999999999,-1
139,140,1583938177937,-4.2317,1.0185,0.5858,5.5713267,0.7739401,-0.32422280000000003,-1
140,141,1583938177948,-4.2055,0.8761,0.8961,5.440823,0.5154238,-0.11990162,-1
141,142,1583938177958,-4.3559,0.55939996,0.89059997,5.3711233,0.17072573,-0.66402704,-1
142,143,1583938177968,-4.388499700000001,0.2258,0.20709999,5.5546435999999995,0.10405201,-1.6236901000000001,-1
143,144,1583938177978,-4.1466,0.19899999999999998,-0.8419,5.943376,0.23748566,-2.4918087000000004,-1
144,145,1583938177988,-3.5224,0.42769998,-1.8262,6.831931,0.7532063,-3.2518046000000003,-1
145,146,1583938177998,-2.8398,0.87049997,-2.4236999,7.054448,1.1944002,-3.6421552000000004,-1
146,147,1583938178009,-2.7457,1.2287999,-2.7405999,6.7993603,1.3608643,-2.9078538,-1
147,148,1583938178019,-3.1016,1.3029,-1.7748,6.0807166,1.3064584,-1.6328168,-1
148,149,1583938178029,-3.8581998,1.1552,-0.6107,5.555055599999999,1.0121057,-0.71010107,-1
149,150,1583938178039,-4.2215,0.8538,0.103199996,5.852999700000001,0.84504783,-0.56559664,-1
150,151,1583938178049,-3.77,0.6332,0.1994,6.9783125,0.84387946,-1.4044003,-1
151,152,1583938178059,-2.8084,0.63449997,-0.5837,7.6524243,0.85277635,-2.1777467999999995,-1
152,153,1583938178070,-2.0042,0.62729996,-1.5064,8.0888,0.7649187,-2.625041,-1
153,154,1583938178080,-1.6909999999999998,0.5442,-1.8187,7.9993534,1.0015136999999998,-2.5213625,-1
154,155,1583938178090,-1.7806,0.77269995,-1.7287999,7.7250447,1.1799008999999998,-2.3616214,-1
155,156,1583938178100,-2.0568,0.95059997,-1.5955,7.594360000000001,1.3123577,-1.9098929,-1
156,157,1583938178111,-1.9801999,0.9338,-0.83779997,7.916973599999999,1.1075386,-1.5383034,-1
157,158,1583938178121,-1.9801999,0.9338,-0.83779997,8.500269,0.7990217,-1.4772032,-1
158,159,1583938178131,-1.2838,0.5719,-0.7348,9.206424,0.25772142,-1.5680968000000002,-1
159,160,1583938178141,-0.5765,0.0427,-0.8013,9.469364,-0.4051564,-1.8919651999999998,-1
160,161,1583938178151,-0.1311,-0.7647,-1.4552,9.714349,-0.58544934,-2.3556932999999995,-1
161,162,1583938178161,0.23259999,-0.40039998,-1.8529999,10.075385,-0.17485334,-2.7793137999999997,-1
162,163,1583938178172,0.2906,-0.0191,-2.1532,10.064199,0.21055567,-2.9545022999999997,-1
163,164,1583938178182,0.0738,0.1608,-2.0571,9.741519,0.22623292,-2.8283951000000003,-1
164,165,1583938178192,0.0738,0.1608,-2.0571,9.4687805,-0.022084115,-2.6751182,-1
165,166,1583938178202,-0.6325,-0.5183,-1.5093,9.120645,-0.5014702999999999,-2.2341924,-1
166,167,1583938178213,-0.5925,-0.7151,-0.9690000000000001,9.249414,-0.65120375,-1.7005631,-1
167,168,1583938178223,-0.21869999,-0.6331,-0.6016,9.719664,-0.45130699999999996,-1.4307079,-1
168,169,1583938178233,0.0466,-0.2713,-0.5161,9.820986999999999,-0.08048348,-1.3494008,-1
169,170,1583938178244,-0.0902,-0.0079,-0.44219998,9.62267,0.07965988,-1.2994578,-1
170,171,1583938178254,-0.4039,0.097799994,-0.41059998,9.274141,0.15876429999999997,-1.2967284,-1
171,172,1583938178264,-0.5609,0.0901,-0.4707,9.2272625,0.10220368,-1.3584222,-1
172,173,1583938178274,-0.4434,0.0308,-0.5409,9.377378,0.03610456,-1.4049653999999998,d
173,174,1583938178284,-0.1884,0.0072999996999999995,-0.5997,9.695339,-0.07344454,-1.5514331000000001,-1
174,175,1583938178294,0.0863,-0.0817,-0.863,9.975059,-0.16348568,-1.8410167000000002,-1
175,176,1583938178304,0.36139998,-0.07279999599999999,-1.1632,10.228575,-0.16505626,-2.096133,-1
176,177,1583938178314,0.5973,-0.0287,-1.2279,10.458036,-0.120524116,-2.052118,-1
177,178,1583938178324,0.7446,0.0482,-1.0802,10.514894,-0.06551494,-1.8508807,-1
178,179,1583938178334,0.6365,0.117199995,-0.6731,10.316185,0.005679046700000001,-1.2551745,-1
179,180,1583938178345,0.3317,0.100899994,0.052699998,9.895082,-0.14949396,-0.42661800000000005,-1
180,181,1583938178355,-0.042099997,-0.074599996,0.5485,9.621472,-0.24159410000000003,-0.23574267,-1
181,182,1583938178365,-0.3182,-0.13059999,0.51989996,9.405161999999999,-0.26068070000000004,-0.48347554,-1
182,183,1583938178375,-0.3786,-0.07369999599999999,0.1859,9.432887,-0.21304564,-0.8601218,-1
183,184,1583938178385,-0.2817,-0.0497,-0.2043,9.666829,-0.22704694,-1.0701125,-1
184,185,1583938178396,0.0313,-0.07,-0.285,10.027194,-0.28089732,-0.96621364,-1
185,186,1583938178408,0.3058,-0.1274,-0.1541,10.172063,-0.49557102,-0.85959506,-1
186,187,1583938178418,0.4042,-0.3143,-0.0677,10.190086,-0.6705584,-0.74991184,-1
187,188,1583938178428,0.4145,-0.4561,0.0524,10.261797999999999,-0.7467802,-0.6419716999999999,-1
188,189,1583938178438,0.5033,-0.5135,0.1338,10.315639,-0.7167378000000001,-0.7297048,-1
189,190,1583938178448,0.5132,-0.44689998,0.0155,10.166393,-0.5865123999999999,-0.7986003,-1
190,191,1583938178458,0.3168,-0.2958,-0.0288,9.856182,-0.5335718,-0.6820889,-1
191,192,1583938178469,0.0221,-0.265,0.1113,9.630485,-0.46016556,-0.61437136,-1
192,193,1583938178479,-0.1744,-0.156,0.114999995,9.552731,-0.31408095,-0.73059547,-1
193,194,1583938178489,-0.2333,-0.024799999,-0.0047,9.674664,-0.22716185,-0.8032642,-1
194,195,1583938178499,-0.076,0.0709,-0.051,9.832201,-0.17490123,-0.8182328000000001,-1
195,196,1583938178509,0.0425,0.1116,-0.0629,9.923689,-0.28794587,-0.9028533999999999,-1
196,197,1583938178519,0.1418,0.0075999996999999994,-0.1313,9.995830999999999,-0.41212829999999995,-0.8663850000000001,-1
197,198,1583938178530,0.2312,-0.1139,-0.0634,10.091569,-0.62598795,-0.79637855,-1
198,199,1583938178540,0.31059998,-0.2934,-0.0186,10.174619999999999,-0.78666764,-0.84622586,-1
199,200,1583938178550,0.45859998,-0.40879998,-0.1296,10.270005000000001,-0.7580809000000001,-0.9105245000000001,-1
200,201,1583938178560,0.4488,-0.3275,-0.1356,10.202200999999999,-0.67084575,-0.93852705,-1
201,202,1583938178571,0.3013,-0.2197,-0.2339,10.039999,-0.5872498,-1.0030268,-1
202,203,1583938178581,0.3013,-0.2197,-0.2339,9.914159,-0.53242254,-1.0298324,-1
203,204,1583938178591,0.134,-0.133,-0.27539998,9.851527,-0.45662215,-1.0531902,-1
204,205,1583938178601,0.0647,-0.0356,-0.31309998,9.843683,-0.47137043,-1.0461034,-1
205,206,1583938178611,0.0061999997,-0.121999994,-0.29569998,9.75348,-0.57027966,-1.0174495000000001,-1
206,207,1583938178621,0.0061999997,-0.121999994,-0.29569998,9.70526,-0.6459939,-0.89549845,-1
207,208,1583938178632,-0.0805,-0.2626,0.1104,9.696162,-0.7155503000000001,-0.58965355,-1
208,209,1583938178642,-0.1485,-0.2777,0.2377,9.607615,-0.7538191999999999,-0.49344498,-1
209,210,1583938178652,-0.22639999,-0.2236,0.21599999,9.57742,-0.6908517,-0.5428708999999999,-1
210,211,1583938178662,-0.0001,-0.15789999,0.0477,9.853663000000001,-0.661154,-0.7086166,-1
211,212,1583938178672,0.39299998,-0.1205,-0.0893,10.221996,-0.6452565,-0.85654,-1
212,213,1583938178683,0.5409,-0.1743,-0.1183,10.353783,-0.7654167,-0.8320424999999999,-1
213,214,1583938178693,0.5413,-0.2917,0.027199998,10.297787,-0.85586965,-0.6668809,-1
214,215,1583938178703,0.2961,-0.3448,0.1105,10.009066,-0.8882680000000001,-0.6216114,-1
215,216,1583938178713,0.0603,-0.2242,0.0924,9.819386999999999,-0.6736709,-0.69268084,-1
216,217,1583938178723,0.0603,-0.2242,0.0924,9.877059,-0.52106446,-0.93428457,-1
217,218,1583938178733,0.1775,0.096499994,-0.253,9.998981,-0.44761038,-0.914585,-1
218,219,1583938178743,0.2268,0.120299995,-0.1147,10.002027,-0.4963659000000001,-0.77160335,-1
219,220,1583938178754,0.27629998,0.0164,-0.032899998,10.106691,-0.55690086,-0.7340909000000001,-1
220,221,1583938178764,0.44349998,-0.0187,0.0099,10.236036,-0.6210654999999999,-0.69320756,-1
221,222,1583938178774,0.4339,-0.124,0.0993,10.137357000000002,-0.72236896,-0.6062885,-1
222,223,1583938178784,0.2965,-0.1733,0.12619999,9.997948,-0.7245524999999999,-0.5440583999999999,-1
223,224,1583938178794,0.08,-0.107099995,0.2464,9.767308,-0.61915976,-0.438838,-1
224,225,1583938178805,-0.1169,0.046,0.2262,9.611887,-0.47352520000000003,-0.5349795999999999,-1
225,226,1583938178815,-0.2061,0.1317,0.0488,9.581529,-0.37541083,-0.68145686,-1
226,227,1583938178825,-0.138,0.2688,-0.0273,9.660326,-0.22808124,-0.72703284,-1
227,228,1583938178835,-0.098799996,0.3207,-0.070199996,9.721646,-0.30272287,-0.75131965,-1
228,229,1583938178845,-0.0103,0.24749999,-0.0705,9.795972,-0.31229009999999996,-0.71926606,-1
229,230,1583938178856,0.0391,0.2251,-0.020299999,9.865423,-0.40239826,-0.6689879,-1
230,231,1583938178865,0.13769999,0.13409999,0.059899997,9.996175,-0.5509824000000001,-0.5415206,-1
231,232,1583938178875,0.2461,0.0021,0.2003,10.026533,-0.63879216,-0.42759484,-1
232,233,1583938178885,0.1778,-0.1037,0.27179998,9.845053,-0.73117965,-0.32190523,-1
233,234,1583938178895,0.0208,-0.1444,0.40899998,9.741211999999999,-0.69672227,-0.3304573,-1
234,235,1583938178906,-0.0188,-0.058799997,0.2674,9.807752,-0.55655617,-0.45843217,d
235,236,1583938178916,0.0394,0.086399995,0.1528,9.796642,-0.379548,-0.6393285,-1
236,237,1583938178926,-0.0101,0.242,-0.060799997,9.691958,-0.2747969,-0.8513780999999999,-1
237,238,1583938178936,-0.15779999,0.3101,-0.2644,9.587974,-0.29382600000000003,-0.9865069,-1
238,239,1583938178946,-0.1679,0.2421,-0.2992,9.721100999999999,-0.43840706,-0.7579180999999999,-1
239,240,1583938178956,0.047799997000000004,0.1078,0.022599999,9.945476,-0.5387624,-0.5138436,-1
240,241,1583938178967,0.2443,0.022599999,0.1716,10.107592,-0.61964816,-0.43704715,-1
241,242,1583938178977,0.3917,-0.1319,0.2636,10.287598,-0.9174294,-0.26000074,-1
242,243,1583938178987,0.5585,-0.3478,0.40129998,10.510995,-0.9442826999999999,-0.42719263,-1
243,244,1583938178997,0.76379997,-0.3215,0.1504,10.578599,-0.80554354,-0.7985715999999999,-1
244,245,1583938179007,0.792,-0.20109999,-0.2447,10.526414,-0.7370215,-1.0264038,-1
245,246,1583938179017,0.7413,-0.094799995,-0.4667,10.488758,-0.5336867,-1.0380492000000001,-1
246,247,1583938179027,0.69949996,0.0614,-0.40129998,10.427983,-0.38883752,-0.8676969999999999,-1
247,248,1583938179037,0.62979996,0.14999999,-0.23349999,10.385463,-0.5495842,-0.65645176,-1
248,249,1583938179047,0.6185,-0.0709,-0.0405,10.567144,-0.7168623000000001,-0.6355552,-1
249,250,1583938179058,0.8329,-0.23969999,-0.1213,10.935947,-0.9425493,-0.6352583,-1
250,251,1583938179069,1.2533,-0.47379997,-0.009099999000000001,11.432898,-1.0622785,-0.44990882,-1
251,252,1583938179079,1.7224,-0.56119996,0.058199997999999996,11.68042,-1.0039846,-0.49633715,-1
252,253,1583938179089,1.8869999999999998,-0.5146,0.0095999995,11.581194,-0.94143844,-0.41072053,-1
253,254,1583938179100,1.7866,-0.47379997,0.0574,11.509502000000001,-0.96991026,-0.75193256,-1
254,255,1583938179109,1.7056999,-0.52419996,-0.31849998,11.676474,-1.0790285,-1.0262219000000001,-1
255,256,1583938179120,1.8799,-0.6538,-0.6257,11.915224,-1.1970530000000001,-1.29081,-1
256,257,1583938179130,2.2115,-0.83339995,-1.0117999,12.669867,-1.558338,-1.772734,-1
257,258,1583938179140,2.8673,-1.1815,-1.4035,13.405844,-1.9219979999999999,-1.5920867,-1
258,259,1583938179150,3.6018999,-1.5754,-1.2209999999999999,13.821754,-2.00048,-1.5009346000000001,-1
259,260,1583938179160,4.061899700000001,-1.6858,-1.0704,13.7617655,-1.8349642,-1.0563886999999998,-1
260,261,1583938179171,3.4122999,-1.4109,0.023,13.093113,-1.5340705,-0.25176468,-1
261,262,1583938179181,2.8227,-1.2249,0.3621,12.628791,-1.3240798,-0.040806774,-1
262,263,1583938179191,2.5177,-1.1868,0.1621,12.326614,-1.2035748,-0.2235897,-1
263,264,1583938179202,2.6545,-1.1056,0.1428,12.491498,-1.0364883,-0.22679794,-1
264,265,1583938179212,2.7036998,-1.1297,0.046,12.492235,-1.0208781,-0.32328427,-1
265,266,1583938179223,2.7036998,-1.1297,0.046,12.220935,-1.0845542,-0.37909790000000004,-1
266,267,1583938179233,2.3534,-1.3572999,0.1192,12.144119,-1.0997333999999999,-0.17909586,-1
267,268,1583938179243,2.2680000000000002,-1.486,0.2131,12.053513,-1.13964,-0.13101071,-1
268,269,1583938179253,2.1445,-1.6006,0.1855,11.890477,-1.1604024,-0.18654661,-1
269,270,1583938179263,1.9337,-1.6829,0.1848,11.697475,-1.0653622999999999,-0.11078450000000001,-1
270,271,1583938179274,1.8123,-1.4879999,0.3118,11.422756,-0.71274424,-0.03553953,-1
271,272,1583938179284,1.2508,-1.3012999,0.23369999,10.690771,-0.44528320000000005,-0.13662273,-1
272,273,1583938179294,0.44599998,-1.1419,0.2807,9.901403,-0.19463903,0.01562935,-1
273,274,1583938179304,-0.21939999,-1.1136,0.43199998,9.33526,-0.095136,0.25460900000000003,-1
274,275,1583938179314,-0.6088,-1.0737,0.8186,9.036166999999999,0.16329412,0.5939151999999999,-1
275,276,1583938179324,-0.85999995,-0.8814,0.96639997,8.753881,0.45346179999999997,0.61132586,-1
276,277,1583938179335,-1.0811,-0.6834,0.8583,8.618053,0.7823485,0.42272025,-1
277,278,1583938179345,-1.1257,-0.45,0.578,8.540127,1.1534593,0.11371500000000001,-1
278,279,1583938179355,-1.2191,-0.1838,0.41700000000000004,8.346312,1.4756519,0.19494548,-1
279,280,1583938179365,-1.4390999,-0.0742,0.5952,7.996298299999999,1.6195722,0.25268406,-1
280,281,1583938179375,-1.8637999,-0.074599996,0.4886,7.494895,1.7789589,-0.040500317,-1
281,282,1583938179385,-2.3360999,0.0605,0.1857,7.0034614,2.036757,-0.20624611,-1
282,283,1583938179396,-2.8365,0.2342,0.12079999599999999,6.426707700000001,2.3670132,-0.16514246,-1
283,284,1583938179406,-3.4043998999999996,0.49679998,0.22739999,5.9196824999999995,2.7262392,0.04912902,-1
284,285,1583938179416,-3.8346,0.6943,0.4777,5.555008,2.9254656000000003,0.41561425,-1
285,286,1583938179426,-4.1376,0.76159996,0.9596,5.198875,3.0597706000000002,0.9848309000000001,-1
286,287,1583938179436,-4.4907,0.78849995,1.4541998999999999,4.914128,3.1001272,1.125361,-1
287,288,1583938179446,-4.6105,0.79649997,1.3860999,4.849082,3.3291662000000004,0.63966364,-1
288,289,1583938179457,-4.6640997,0.96239996,0.8896,4.6162124,3.5007059999999997,0.03968629,-1
289,290,1583938179467,-4.9354997,1.0583,0.268,4.4292445,3.6123238,-0.44658566,-1
290,291,1583938179477,-5.0518,1.1319,-0.113699995,4.4483690000000005,3.7089440000000002,-0.5084518,-1
291,292,1583938179488,-4.9536,1.2308999,-0.29009998,4.538880000000001,3.8871589,-0.8524412,-1
292,293,1583938179498,-4.9635997000000005,1.3812,-0.6069,4.364122,4.1531835,-0.7419248,-1
293,294,1583938179508,-5.1294,1.5690998999999999,-0.2732,4.0481834,4.369935,-0.124804944,-1
294,295,1583938179518,-5.4902,1.7263998999999999,0.3796,3.5509841,4.4512043,0.6365512,-1
295,296,1583938179528,-5.9786,1.7876999,1.1573,3.0556238,4.6586566,0.88563436,-1
296,297,1583938179538,-6.468999999999999,1.9742998999999999,1.2579,2.6574202000000002,4.869854,0.4473805,-1
297,298,1583938179548,-6.797000000000001,2.1267,0.81259996,2.5093055,4.732695,0.051417875999999994,-1
298,299,1583938179559,-6.8954,1.9154999,0.44039997,2.8698816000000003,4.2273273,-0.45582727,-1
299,300,1583938179569,-6.5585,1.5093,0.0569,3.4068339999999995,3.8002303,-0.8240459000000001,-1
300,301,1583938179579,-5.9028,0.99369997,-0.4308,3.9732065000000003,2.9503557999999996,-1.7319751,-1
301,302,1583938179589,-5.475,0.3313,-1.1682999,4.1368933,2.4041327999999997,-2.1195867,-1
302,303,1583938179599,-5.3311996,-0.1523,-1.5265,4.21097,2.0432116999999996,-1.9084468999999997,-1
303,304,1583938179609,-5.205899700000001,-0.51989996,-1.1635,4.4814,1.9037542,-0.8962455,-1
304,305,1583938179620,-5.0011997,-0.55619997,-0.22379999,4.3218502999999995,1.9179088,-0.32351409999999997,-1
305,306,1583938179630,-5.169699700000001,-0.48479998,0.3682,3.8183494,2.1438064999999997,-0.39275444,-1
306,307,1583938179640,-5.6933,-0.2137,0.2924,3.276628,2.1148462,-0.4894227,-1
307,308,1583938179651,-6.4844,-0.45399999999999996,-0.1594,3.051841,1.6434279999999999,-0.91284204,-1
308,309,1583938179661,-6.4844,-0.45399999999999996,-0.1594,3.2725003,0.9969456,-1.1394868,-1
309,310,1583938179671,-5.462000000000001,-2.0523999,-0.9443,4.390928,-0.2020419,-1.7277803,-1
310,311,1583938179681,-5.462000000000001,-2.0523999,-0.9443,5.350562,-0.37121618,-2.2450047000000004,-1
311,312,1583938179691,-3.4203,-2.1341,-1.6588999,6.361164,-0.28988037,-2.1055949000000003,-1
312,313,1583938179701,-3.352,-1.5051,-0.7672,6.1007514,0.40039673,-1.0624701,-1
313,314,1583938179711,-3.352,-1.5051,-0.7672,5.287786,0.94934887,-0.32973903,-1
314,315,1583938179721,-4.3803,-0.6023,0.2712,3.8550286,1.1422927,0.39405686,-1
315,316,1583938179731,-5.8469,-0.2658,0.9237,3.3562589999999997,0.82893014,0.45100054,-1
316,317,1583938179741,-5.8683996,-1.0668,0.682,4.0276510000000005,-0.08116343599999999,0.13633542,-1
317,318,1583938179751,-4.8192997,-2.2454,-0.005,5.188953,-1.5002354,-0.6494416000000001,-1
318,319,1583938179762,-3.5228,-3.1943998,-0.8674,6.552001000000001,-2.4830554,-1.5028787000000001,-1
319,320,1583938179771,-2.1743,-3.3655998999999994,-1.9758999,7.835887400000001,-2.6936111,-2.5859964,-1
320,321,1583938179782,-2.1743,-3.3655998999999994,-1.9758999,8.394042,-2.4705288,-2.6207409999999998,-1
321,322,1583938179792,-1.5466,-2.0347,-0.7237,8.104909,-1.5105593000000002,-0.6621404000000001,-1
322,323,1583938179802,-2.6211998,-0.99909997,1.4396,6.8917003,-0.7443668999999999,1.5093238000000002,-1
323,324,1583938179812,-3.8702,-1.0591,2.8128998,5.7941694,-1.1875623,2.7070475,-1
324,325,1583938179822,-4.0866,-1.7448,2.8065999,5.8002887,-2.0214244999999997,2.4660373,-1
325,326,1583938179833,-3.2593,-2.5084999,1.5315,6.83988,-3.0560548,1.0420332,-1
326,327,1583938179842,-1.6225,-3.4257998,-0.19209999,8.550011,-4.1609406,-0.5465770999999999,-1
327,328,1583938179852,0.2553,-3.7389,-0.9133,10.349329,-4.531869400000001,-0.9772556999999998,-1
328,329,1583938179862,1.4805,-3.4361,-0.88659996,11.325705000000001,-4.2853335999999995,-0.87833685,-1
329,330,1583938179872,1.6980000000000002,-2.8206,-0.3782,11.231822,-3.7978837,0.1395245,-1
330,331,1583938179883,1.0248,-2.1732,1.0203,10.341084,-3.4888977999999997,1.6550349999999998,-1
331,332,1583938179893,-0.0473,-2.1667,2.1422,9.255927,-3.9444760999999997,2.5620735,-1
332,333,1583938179903,-0.7019,-2.6011999,2.5658998,8.978477,-4.4177237,2.7970787999999995,-1
333,334,1583938179913,-0.0632,-3.0456,2.4498,9.808671,-5.1061716,2.6099575,-1
334,335,1583938179924,1.4670999,-3.4645998,1.1902,11.642888000000001,-5.7842765,1.0478655000000001,-1
335,336,1583938179934,2.8572,-3.6653,-0.2417,12.780833,-6.1182099999999995,-0.1681783,-1
336,337,1583938179944,3.8571,-3.4958,-1.1249,13.542207999999999,-5.8935957000000005,-0.59856,-1
337,338,1583938179954,4.2469,-2.8957,-0.8843,13.545454999999999,-5.5287385,0.13979265,-1
338,339,1583938179964,4.2469,-2.8957,-0.8843,12.665939,-5.2746463,1.8327519,-1
339,340,1583938179974,2.6374,-2.0599,2.2566,11.494658,-5.163977,3.5736809999999997,-1
340,341,1583938179985,1.7200999,-2.0676,3.3081,10.736825999999999,-5.401664,3.8158595999999996,-1
341,342,1583938179995,1.5375999,-2.0569,2.4817,10.817377,-5.474467,2.6963307999999997,-1
342,343,1583938180005,2.2005,-1.9832,0.9206,12.082014,-5.7167983,1.2533263000000001,-1
343,344,1583938180015,3.6095998,-2.1044,-0.022499999,13.327429,-6.005903,0.8850885000000001,-1
344,345,1583938180025,4.7191997,-2.1956,-0.22739999,13.938362,-6.2487035,0.947127,-1
345,346,1583938180035,5.1691,-2.1511,-0.25149998,13.958378,-6.1311865,1.0617806,-1
346,347,1583938180045,5.0737,-1.8288,-0.0206,13.636377,-6.0846624,1.5605311000000002,-1
347,348,1583938180055,4.5418997,-1.7271999,0.92469996,12.812014999999999,-6.126608999999999,2.7250134999999998,-1
348,349,1583938180066,3.8418998999999996,-1.6657,1.6974,11.982289999999999,-6.350639299999999,3.4219367999999997,-1
349,350,1583938180076,3.2443,-1.7651999,2.1450999,11.640752,-6.502326,3.788757,-1
350,351,1583938180086,3.2433,-1.8140999,2.3042,12.188786,-6.746659299999999,3.4152424,-1
351,352,1583938180097,4.0249,-1.8515999,1.6342,13.110822,-6.7825820000000006,2.7018661,-1
352,353,1583938180107,5.0056,-1.7436,0.79069996,13.564810000000001,-6.804925,1.8248701,-1
353,354,1583938180117,5.4217,-1.6638,-0.118999995,13.567003,-6.725954,1.6153773999999999,-1
354,355,1583938180127,5.4726996,-1.4380000000000002,-0.2078,13.499295000000002,-6.705537,1.9484589,-1
355,356,1583938180137,5.4038,-1.3785,0.30769998,13.126554999999998,-6.7935853,2.6824636,-1
356,357,1583938180147,5.1008997,-1.3765999,0.91029996,12.809678,-7.0139,3.2153264999999998,-1
357,358,1583938180157,4.7671,-1.5672,1.5857999,12.327228,-7.278612599999999,3.680654,-1
358,359,1583938180168,4.4082,-1.7229999,1.7748,11.9786415,-7.5435452000000005,3.7015029999999998,-1
359,360,1583938180178,4.1851,-1.9113,1.7707,12.059134,-7.7219515,3.877132,-1
360,361,1583938180188,4.4508,-1.9839,1.7663,12.532008,-7.6694803,3.2934928,-1
361,362,1583938180198,5.0533,-1.7864,0.9338,12.879264,-7.344166,2.4232577999999996,-1
362,363,1583938180208,5.3554,-1.4002,0.0243,12.707417,-7.2333336,2.1982793999999997,-1
363,364,1583938180218,5.1709,-1.3173,-0.0356,12.225493,-7.3853273,2.9898026,-1
364,365,1583938180228,4.7107,-1.4001,0.8181,11.850264,-7.4233375,3.4911675000000004,-1
365,366,1583938180239,4.3199,-1.3795998999999999,1.2607,11.461436,-7.441514,3.695364,-1
366,367,1583938180249,4.0048,-1.4072,1.3328999,11.057839999999999,-7.617803599999999,3.2818568,-1
367,368,1583938180259,3.6564998999999996,-1.5593,0.8505,10.980939999999999,-7.539005800000001,2.4710653,-1
368,369,1583938180269,3.6418998,-1.4318999,0.1783,10.935400999999999,-7.348293300000001,2.082333,-1
369,370,1583938180280,3.5793998,-1.1711,-0.2624,10.441774,-7.1295399999999995,2.0723252,-1
370,371,1583938180290,3.1334999,-0.993,-0.2504,9.905474,-7.091808,2.013945,-1
371,372,1583938180300,2.6069999,-0.9465,-0.3205,9.603688,-7.0318084,1.849904,-1
372,373,1583938180310,2.3133,-0.88339996,-0.5079,9.335423,-6.800241499999999,1.8746311999999998,-1
373,374,1583938180320,2.0542,-0.6563,-0.5021,8.993398,-6.643066999999999,1.8737406000000003,-1
374,375,1583938180330,1.7104,-0.49179998,-0.50589997,8.641134,-6.4029956,1.8445792,-1
375,376,1583938180340,1.3507999,-0.2615,-0.5282,8.270118,-6.2090845,1.7419446,-1
376,377,1583938180350,0.96739995,-0.0721,-0.62049997,7.884891499999999,-6.070641999999999,1.8039352,-1
377,378,1583938180361,0.5721,0.0579,-0.5305,7.5692306,-6.171917,1.9289221999999997,-1
378,379,1583938180371,0.24659999,-0.046499997,-0.3834,7.4912753,-6.211661,2.1452622000000003,-1
379,380,1583938180381,0.16059999,-0.0906,-0.1565,7.4152255,-6.29269,2.146986,-1
380,381,1583938180391,0.0802,-0.1822,-0.1591,7.589313000000001,-6.3862844,1.806473,-1
381,382,1583938180401,0.575,-0.12889999,-0.8548,7.943339,-6.215041,1.4663719,-1
382,383,1583938180411,0.6622,-0.0047,-0.6541,7.9723754,-6.089221,1.7783267,-1
383,384,1583938180422,0.4587,0.019399998999999998,-0.2522,7.763075,-6.087162,2.1879939999999998,-1
384,385,1583938180432,0.22219999,0.003,0.2066,7.5440245,-6.094546,2.5701563,-1
385,386,1583938180442,0.0637,-0.0925,0.35079998,7.366499,-6.254373,2.643438,-1
386,387,1583938180452,-0.0422,-0.25669998,0.22929999,7.316613,-6.358319799999999,2.4057994,-1
387,388,1583938180463,0.0343,-0.32189998,-0.1244,7.4419546,-6.3798485000000005,2.1820946,-1
388,389,1583938180473,0.3029,-0.4048,0.0278,7.726528999999999,-6.528864,2.4068909,-1
389,390,1583938180483,0.6426,-0.6247,0.085599996,8.144356,-6.714472,2.3643028999999998,-1
390,391,1583938180493,0.9799,-0.65059996,-0.0994,8.452364999999999,-6.6518774,2.2548017999999996,-1
391,392,1583938180503,1.1820998999999999,-0.49409997,-0.19219999,8.526327,-6.4243803,2.2521489,d
392,393,1583938180514,1.0404,-0.26389998,0.0098,8.243658,-6.24675,2.5628588,-1
393,394,1583938180524,0.5959,-0.2135,0.5151,7.832123299999999,-6.2526207000000005,3.1550887000000003,-1
394,395,1583938180534,0.276,-0.3992,1.3225,7.6457679999999995,-6.518607,3.9379447,-1
395,396,1583938180544,0.2051,-0.7017,1.7479,7.7915564,-6.7046075,3.8056984,-1
396,397,1583938180554,0.50519997,-0.7485,1.2272999,8.322514,-6.7024913,3.188119,-1
397,398,1583938180565,1.0981,-0.8041,0.69269997,8.905367,-6.836892,2.8827624,-1
398,399,1583938180575,1.6559999,-0.99649996,0.489,9.320646,-6.9747405,2.9005466,-1
399,400,1583938180585,2.1638,-1.1804999,0.551,9.829031,-7.1588544999999995,2.9683697,-1
400,401,1583938180595,2.6167998,-1.3869999999999998,0.5359,10.320724,-7.437664,2.9905014,-1
401,402,1583938180605,2.9722,-1.6479,0.55689996,10.64508,-7.583452,3.1278617000000004,-1
402,403,1583938180615,3.3957998999999996,-1.8863,1.1718998999999999,11.054623,-7.7629504,4.0225077,-1
403,404,1583938180626,3.5753,-2.0446,2.1286,11.172772,-7.89238,4.822018,-1
404,405,1583938180636,3.6906,-2.1928,2.7768998,11.517547,-7.919253,5.480711,-1
405,406,1583938180647,4.0719,-2.2382998,3.2148,12.194014,-7.921877,5.523586,-1
406,407,1583938180657,4.6551,-2.2766,2.9930000000000003,12.747534,-7.8516026,5.052867,-1
407,408,1583938180667,5.3705,-2.1996,2.3019,13.512433999999999,-7.695261,4.282833999999999,-1
408,409,1583938180677,6.1649,-2.1353,1.5368998999999999,14.341641000000001,-7.643652,3.5783737,-1
409,410,1583938180687,6.7865,-2.2324998,0.8128,14.769974,-7.8971976999999995,3.2173665000000002,-1
410,411,1583938180698,6.9802,-2.6239,0.6392,14.871134,-8.195707,3.4577348,-1
411,412,1583938180708,6.9888,-2.9494998,1.0389,14.8601675,-8.268241,4.304373,-1
412,413,1583938180718,6.8532996,-3.1037998,1.986,14.628927,-8.181073,5.0704308,-1
413,414,1583938180728,6.454,-3.1664,2.7707999,14.282886999999999,-8.062244,5.410828599999999,-1
414,415,1583938180738,6.0801,-3.1115,3.0107,14.168138500000001,-7.731547999999999,4.8534393,-1
415,416,1583938180748,5.8820996,-2.8787,2.3169999999999997,14.042902,-7.212188,3.9369199999999998,-1
416,417,1583938180758,5.6176,-2.4987,1.5031999,13.653644,-6.847397999999999,3.5223017,-1
417,418,1583938180768,4.8724,-2.2651,1.1588,12.616303,-6.3443375,3.3419127,-1
418,419,1583938180778,3.8618,-1.9900999,1.0547,11.805588,-5.814654,3.0956069999999998,-1
419,420,1583938180788,3.0193,-1.6301999,0.8408,11.322725,-5.387193,3.0248055,-1
420,421,1583938180799,2.5332,-1.4058,0.9501,11.212996,-4.786622,3.5066245000000005,-1
421,422,1583938180808,2.325,-0.932,1.5048,10.984377,-4.327088400000001,3.7171513999999997,-1
422,423,1583938180818,1.9031999,-0.7017,1.7507,10.357978,-4.363260299999999,4.171676000000001,-1
423,424,1583938180828,1.1803,-1.05,2.3393,9.513561,-4.5478724999999995,4.3914447,-1
424,425,1583938180838,0.2642,-1.3511,2.4929,8.855818,-4.581133,3.7225623,-1
425,426,1583938180848,-0.4116,-1.5252,1.8225,8.547645,-4.36145,2.9904442,-1
426,427,1583938180858,-0.7786,-1.3952999,1.2607,8.301817,-3.7583029999999997,2.5516827,-1
427,428,1583938180869,-1.0727999,-0.9227,0.9273,7.9343076,-3.0088603,2.118313,-1
428,429,1583938180879,-1.5590998999999999,-0.3533,0.5966,7.346597999999999,-2.3022165,1.8010718000000001,-1
429,430,1583938180889,-2.2373,0.1682,0.45839998,6.51423,-1.5905831,1.6904404,-1
430,431,1583938180899,-2.9787998,0.57,0.4766,5.96885,-1.5130683999999999,1.7793037,-1
431,432,1583938180909,-3.5760998999999996,0.5061,0.6884,5.9819510000000005,-1.6618441000000002,2.4467687999999996,-1
432,433,1583938180919,-3.6072,0.22549999,1.4951,6.673186,-2.006159,3.2010669999999997,-1
433,434,1583938180930,-2.9549,-0.2445,2.3825,7.1488276,-2.1537473,3.2373822,-1
434,435,1583938180940,-2.5037,-0.4917,2.5486999,7.205675599999999,-2.2287334999999997,2.481226,-1
435,436,1583938180950,-2.4710999,-0.68439996,1.8974999,7.011189999999999,-1.8232037,1.3421991000000002,-1
436,437,1583938180960,-2.6912,-0.4051,0.85709995,6.669499000000001,-1.1778419,0.18909405,-1
437,438,1583938180970,-3.0562,0.11199999599999999,-0.21679999,6.1700015,-0.6905069,-0.5727314,-1
438,439,1583938180980,-3.576,0.45749998,-0.87439996,5.7033525,-0.35405454,-0.9423674000000001,-1
439,440,1583938180991,-4.0541,0.6652,-1.1687,5.5846,-0.21626346,-1.2383673000000002,-1
440,441,1583938181001,-4.186,0.7021,-1.4365,5.755718,-0.07578127,-0.9931053,-1
441,442,1583938181011,-3.7737,0.5487,0.39569998,6.0508275000000005,-0.1490151,0.7000358,-1
442,443,1583938181021,-3.6911,0.1686,2.0857,6.0800085,-0.42891645,2.2208617000000004,-1
443,444,1583938181031,-3.9496998999999997,-0.0889,2.9733,5.7776875,-0.5548419,2.8021162,-1
444,445,1583938181043,-4.4126997,-0.1362,2.7222998,5.313002,-0.45498452,2.2634687000000002,-1
445,446,1583938181053,-4.6684,0.010799999,1.5986999,5.131914,-0.19928376,1.0168462,-1
446,447,1583938181063,-4.4914,0.14989999,0.4881,5.371784,-0.028088775,-0.09238746,-1
447,448,1583938181073,-4.1959,0.114599995,-0.25329998,5.638479,-0.007383718,-0.8164802,-1
448,449,1583938181083,-4.0661,-0.011399999,-0.65749997,5.822201000000001,-0.13809755,-1.3188028,-1
449,450,1583938181094,-3.7099,-0.1717,-0.78279996,6.330001,-0.12718,-1.3238306999999998,-1
450,451,1583938181104,-3.0978,-0.0442,-0.5523,6.8573575,0.08619126,-1.0331459,-1
451,452,1583938181114,-2.8874998,0.1318,-0.0902,6.828061999999999,0.30086496,-0.6147640000000001,-1
452,453,1583938181124,-3.1575,0.17729999,0.4046,6.477570500000001,0.3598102,-0.1432403,-1
453,454,1583938181135,-3.5156,0.24239999,0.94229996,6.092937,0.53581274,0.37218344,-1
454,455,1583938181145,-3.9522,0.2737,1.4175,5.641678,0.35681266,0.8159630999999999,-1
455,456,1583938181155,-4.1728997,-0.12539999,1.7267,5.6061,0.058045026,0.79664665,-1
456,457,1583938181166,-4.06,-0.2651,1.2830000000000001,5.8955493,0.10339121,-0.45890144,-1
457,458,1583938181175,-3.7017998999999997,-0.1841,-0.1087,6.24516,0.1922927,-1.7189793999999998,-1
458,459,1583938181185,-3.2159998,-0.0039999996999999995,-1.5077,6.758064999999999,0.42445365,-2.9955964,-1
459,460,1583938181195,-2.6806997999999997,0.2119,-2.3343,7.488824,0.5936471,-3.7719116,-1
460,461,1583938181205,-1.9684,0.31149998,-2.7184,8.038255,0.6073994,-3.8331741999999998,-1
461,462,1583938181215,-1.3924999,0.19039999,-2.1973999,8.503476,0.2689263,-2.5994804,-1
462,463,1583938181226,-1.3238,-0.22659999,-0.5916,8.085554,-0.25210944,-0.75271785,-1
463,464,1583938181236,-1.9251,-0.7685,1.2408,7.3700905,-0.83311516,0.6085007,-1
464,465,1583938181246,-2.5944998,-1.3054999,2.1808999,6.8924375,-1.1160427,0.752737,-1
465,466,1583938181256,-2.8546999,-1.3642,1.8871,6.847264,-0.8116248,-0.21682848,-1
466,467,1583938181267,-2.7644,-0.92899996,0.5979,7.218681299999999,-0.26816016,-1.8064443,-1
467,468,1583938181277,-2.283,-0.3148,-0.9715,7.7420154000000005,0.28114632,-3.166619,-1
468,469,1583938181287,-1.7527,0.1311,-2.0402,8.263644000000001,0.56496453,-3.7081013,-1
469,470,1583938181297,-1.2213,0.3143,-2.2489998,8.802647,0.4365013,-3.6856055,-1
470,471,1583938181307,-0.8448,0.14029999,-2.161,9.048846000000001,-0.03943729,-3.2156332,-1
471,472,1583938181318,-0.6222,-0.3667,-1.4778,9.12776,-0.7158184,-2.0177374,-1
472,473,1583938181328,-0.5534,-1.0719,-0.1311,9.239799,-1.358834,-0.6660573000000001,-1
473,474,1583938181339,-0.4344,-1.6496998999999999,1.2181,8.93201,-1.4732193999999998,-0.055976436,-1
474,475,1583938181349,-0.8662,-1.6564,1.6723,8.273184,-1.138577,-0.45350012,-1
475,476,1583938181359,-1.4975,-1.2722,1.1056,7.763007000000001,-0.18661366,-1.6123128999999998,-1
476,477,1583938181369,-1.8877,-0.45029998,0.1445,7.697108999999999,0.36207992,-2.1213488999999996,-1
477,478,1583938181379,-1.9469999,0.1769,-0.46559998,7.8545523,0.84116924,-2.7500854,-1
478,479,1583938181389,-1.801,0.56159997,-0.99939996,8.26352,0.87382615,-2.9275436000000004,-1
479,480,1583938181399,-1.2623999,0.59419996,-1.1673,9.148072,0.6366470000000001,-2.6272054,-1
480,481,1583938181409,-0.5058,0.4155,-0.8613,9.520677000000001,0.36854425,-2.5460993999999997,-1
481,482,1583938181420,-0.1281,0.174,-0.743,9.522344,0.109568246,-2.523661,-1
482,483,1583938181429,-0.1193,-0.1466,-0.60679996,9.569413,-0.15053783,-1.9499911,-1
483,484,1583938181439,-0.0594,-0.35189998,0.057499997000000004,9.501591000000001,-0.20035636,-1.5820118,-1
484,485,1583938181449,-0.1564,-0.36069998,0.41509998,9.26716,0.08202535,-1.5439249,d
485,486,1583938181459,-0.3933,-0.0312,0.3954,8.916419,0.63147545,-2.1396022,-1
486,487,1583938181469,-0.6824,0.40739998,-0.120699994,8.707003,0.7862366999999999,-2.3908978,-1
487,488,1583938181479,-0.9442,0.57769996,-0.38189998,8.669385,0.7416854,-2.3719832999999997,-1
488,489,1583938181490,-0.9317,0.5227,-0.32909998,9.0213995,0.5741392,-2.3377752,-1
489,490,1583938181500,-0.5748,0.3617,-0.28039998,9.735858,0.48679867,-2.3299127,-1
490,491,1583938181510,0.1462,0.29889998,-0.2439,10.393201,0.38368517,-2.4421717999999997,-1
491,492,1583938181520,0.8102,0.24,-0.3277,10.747332,-0.0074507557,-2.542652,-1
492,493,1583938181531,1.1712999,-0.1166,-0.37829998,10.898435000000001,-0.46249273,-2.6771772,-1
493,494,1583938181541,1.3367,-0.55039996,-0.47700000000000004,10.952697,-0.5377377,-2.9277830000000002,-1
494,495,1583938181551,1.3934,-0.6216,-0.68869996,10.721829,-0.41322964,-3.2908206,-1
495,496,1583938181561,0.6565,-0.31219998,-0.7029,10.098733,-0.17722839,-2.893201,-1
496,497,1583938181571,0.24759999,-0.1902,-0.4849,9.668199000000001,-0.022572534,-2.7572775000000003,-1
497,498,1583938181581,-0.052899998,-0.0647,-0.4224,9.497463,0.09810481,-2.6959476,-1
498,499,1583938181592,0.1188,-0.0786,-0.44079998,9.756899,0.050287813,-2.786257,-1
499,500,1583938181603,0.1188,-0.0786,-0.44079998,10.234973,-0.0046160207,-2.9108512,-1
500,501,1583938181614,1.2235999,-0.4484,-0.72679996,10.856076,-0.57657164,-3.3465192000000004,-1
501,502,1583938181624,1.4879999,-1.0394,-1.3363,11.097317,-1.0735025,-4.0299683,-1
502,503,1583938181634,1.7017,-1.2149,-1.9431,11.251234,-1.035655,-4.646360400000001,-1
503,504,1583938181644,1.6962999,-0.9988,-2.5346,11.066938,-0.8150916,-5.1898922999999995,-1
504,505,1583938181655,1.2949,-0.8052,-2.8272998,10.648403,-0.6151565999999999,-5.18858,-1
505,506,1583938181665,0.89199996,-0.8192,-2.4404,10.298074,-0.6331131,-4.647835,-1
506,507,1583938181675,0.70559996,-0.7619,-1.7773999,10.178192,-0.48827349999999997,-4.0418625,-1
507,508,1583938181685,0.66929996,-0.7445,-1.5545,10.179091,-0.5347784000000001,-4.2243485,-1
508,509,1583938181695,0.75369996,-0.96779996,-2.3693,10.322256,-0.8277043,-5.5812,-1
509,510,1583938181705,0.8592,-1.1947,-3.4824998,10.447694,-1.0454234,-6.4558883,-1
510,511,1583938181715,1.081,-1.4976,-4.1893997,10.74625,-1.1860013,-7.050808999999999,-1
511,512,1583938181726,1.3593,-1.5698,-4.701699700000001,10.82772,-1.1180443000000002,-7.464383,-1
512,513,1583938181736,1.2409999,-1.4951,-5.0313,10.483472,-1.0184072,-7.559835400000001,-1
513,514,1583938181746,0.8351,-1.4289,-4.8882,10.004688,-0.84691536,-6.918496,-1
514,515,1583938181756,0.2812,-1.3051,-4.0757,9.420944,-0.73102635,-6.014436,-1
515,516,1583938181766,-0.2722,-1.3230000000000002,-3.2649,9.002151,-0.7981598000000001,-5.471632,-1
516,517,1583938181776,-0.5496,-1.5813999,-3.0960999,9.099642999999999,-1.1498872,-5.790367,-1
517,518,1583938181786,-0.3161,-1.8874999,-3.491,9.436008000000001,-1.2663698,-6.188053599999999,-1
518,519,1583938181797,0.0837,-2.0475,-4.0425,9.68853,-1.3594948,-6.7732253,-1
519,520,1583938181807,0.1785,-2.1562,-4.4811,9.593672,-1.3828143,-6.919291,-1
520,521,1583938181817,-0.032199997,-2.1813,-4.6444,9.283441,-1.2303516,-6.894189999999999,-1
521,522,1583938181827,-0.4105,-2.0091999,-4.5316,8.728769999999999,-0.9274180000000001,-6.37981,-1
522,523,1583938181837,-0.9062,-1.8266,-4.0411,8.088255,-0.6997773,-5.825926,-1
523,524,1583938181848,-1.5770998999999999,-1.7005999,-3.5712998,7.4091825,-0.6218125,-5.376621,-1
524,525,1583938181858,-2.2275999,-1.7053,-3.142,7.046978500000001,-0.574551,-4.7137237,-1
525,526,1583938181868,-2.5047,-1.7472,-2.4868,6.973553,-0.5198195,-3.9171150000000003,-1
526,527,1583938181878,-2.5762,-1.7054,-1.7749,6.8959618,-0.30944577,-3.5725799,-1
527,528,1583938181889,-2.6383997999999997,-1.5891998999999999,-1.6337,6.888884,-0.14095144,-3.6012814,-1
528,529,1583938181899,-2.6325998,-1.4287,-1.6723,6.8374186,0.1653723,-3.2922860000000003,-1
529,530,1583938181909,-2.7345,-1.2068,-1.3686,6.401492,0.39385575,-2.629025,-1
530,531,1583938181919,-3.1401,-1.0727999,-0.85029995,5.905059,0.5880447,-1.8666154,-1
531,532,1583938181929,-3.6436,-0.93719995,-0.1475,5.349480000000001,0.744635,-1.1169908000000002,-1
532,533,1583938181940,-4.2068,-0.8257,0.5315,4.860938,0.7777229,-0.41441718,-1
533,534,1583938181950,-4.6935,-0.8226,1.1653,4.735501,0.8230787,0.0971184,-1
534,535,1583938181960,-4.8297,-0.8066,1.5770998999999999,4.9430785,1.019384,0.4279875,-1
535,536,1583938181971,-4.2736998,-0.4111,2.2786999,5.370779,1.224366,1.0796605,-1
536,537,1583938181981,-4.2736998,-0.4111,2.2786999,5.3977947,1.1546372999999999,1.4810148,-1
537,538,1583938181991,-4.2295,-0.4446,2.83,5.3927283,1.1993513999999998,1.6630604,-1
538,539,1583938182001,-4.1928997,-0.2288,2.7034,5.440345,1.402782,1.6179057,-1
539,540,1583938182012,-4.1928997,-0.2288,2.7034,5.269025,1.5924027,1.7871854,-1
540,541,1583938182022,-4.3294,0.0023,2.6891,4.9799013,1.8133588,2.4563074,-1
541,542,1583938182032,-4.6222,0.23600000000000002,3.1624,4.820572,1.8740086999999999,3.5813713,-1
542,543,1583938182042,-5.0394998,0.3716,5.9486,4.564364,1.8497888999999998,5.366996,-1
543,544,1583938182052,-5.4031997,0.2304,6.8054,4.221064,1.6089323,6.138168,-1
544,545,1583938182062,-5.4651,-0.098799996,7.1298,4.358395,1.1046177,6.291876,-1
545,546,1583938182073,-5.049299700000001,-0.3689,6.3947997,4.8035635999999995,0.90397394,5.445535,-1
546,547,1583938182083,-4.3115,-0.2022,4.9883,5.580998999999999,1.0994365,4.224789,-1
547,548,1583938182093,-3.6323,0.43039998,4.216,6.267809400000001,1.6993372,3.4984267,-1
548,549,1583938182103,-3.4218998,0.93259996,3.8493,6.323384,1.9980474999999998,3.5291873999999996,-1
549,550,1583938182113,-3.5126,1.3978,5.1015,6.1633167,2.3921810000000003,5.6472707,-1
550,551,1583938182123,-3.8846,1.642,7.1705,5.680167,2.354161,7.4947515,-1
551,552,1583938182134,-4.4316,1.1839,8.2717,5.274024,1.7143058999999998,8.116363,-1
552,553,1583938182144,-4.625099700000001,0.1909,8.5455,5.264044999999999,0.34449688,8.143676,-1
553,554,1583938182154,-4.200999700000001,-0.7617,8.036099,5.91138,-0.5922393,7.4123144,-1
554,555,1583938182164,-3.3646998,-1.0986,6.9869,6.7971387000000005,-0.7121313,6.300313,-1
555,556,1583938182174,-2.4287999,-0.634,5.8981,7.869434399999999,-0.102845326,5.540662,-1
556,557,1583938182185,-1.3921,0.45659998,5.5687,8.746564999999999,1.0477601,5.6307983,-1
557,558,1583938182195,-0.9801,1.4318999,5.7690997,8.75913,1.5030415000000001,5.9262333,-1
558,559,1583938182205,-1.4287,1.6818999,5.9852,7.7985086,1.0088017,6.1912236,-1
559,560,1583938182215,-2.3855999,0.82809997,6.1886997,7.052973700000001,-0.5177509,6.6075463,-1
560,561,1583938182225,-2.7705,-0.66099995,6.7551,7.2501793,-2.085225,7.3366766000000005,-1
561,562,1583938182235,-2.1948,-2.036,7.5337,8.345507000000001,-3.4034822,8.146453,-1
562,563,1583938182246,-0.80039996,-2.8695,8.172299,10.036541,-3.7382107,8.479017,-1
563,564,1583938182256,0.8721,-2.7064,8.267000000000001,11.265868,-3.462274,8.192614,-1
564,565,1583938182266,1.8125,-2.1445,7.6436,11.647762,-2.9393997000000005,7.414086,-1
565,566,1583938182276,1.7444998999999999,-1.5252,6.7693,10.988974,-2.7742857999999995,6.773005,-1
566,567,1583938182287,0.91239995,-1.5340999,6.1914,10.190671,-3.376332,6.4399239999999995,-1
567,568,1583938182296,0.4443,-2.2026,5.9084,10.446907000000001,-4.3543825,6.143033,-1
568,569,1583938182306,1.2433,-3.0712,5.4393,11.766889,-5.2753267,5.3271370000000005,-1
569,570,1583938182316,2.7510000000000003,-3.7384998999999994,4.3159,13.377975,-5.753419999999999,4.007817299999999,-1
570,571,1583938182326,4.25,-3.7633,3.3148,14.622816,-5.6128993,3.8158977,-1
571,572,1583938182336,5.316,-3.4113998,3.6422,14.673545,-5.5702443,4.9292784,-1
572,573,1583938182347,4.9175997,-3.4438,4.676,13.739567999999998,-5.9094739999999994,5.838414,-1
573,574,1583938182357,3.6833,-3.8369,5.7374997,12.464118,-6.6371484,6.4731455,-1
574,575,1583938182367,2.8323998,-4.3715997,5.8724,12.181736,-7.048673,5.429896,-1
575,576,1583938182377,2.741,-4.6068997000000005,4.5372,12.564886,-7.1144276,4.1632676,-1
576,577,1583938182387,3.4496,-4.5618,2.9085999,13.518620499999999,-7.032431,2.8575087000000003,-1
577,578,1583938182398,4.5052,-4.2914,1.5961,14.277554,-6.8461337,1.8830779999999998,-1
578,579,1583938182407,5.2265997,-3.9610000000000003,0.1554,14.988268,-6.185497,0.5062492000000001,-1
579,580,1583938182417,5.6485996,-3.2445,-0.5432,14.775088,-5.713589700000001,0.6730006,-1
580,581,1583938182427,5.0525,-2.8504999,-0.080699995,13.60869,-5.8325624000000005,1.6618633000000003,-1
581,582,1583938182437,3.7624998,-3.1401,1.0626999,12.427487,-6.388219,2.9131112,-1
582,583,1583938182447,2.8321998,-3.7224,2.2034,11.889271,-7.021733800000001,3.6122375,-1
583,584,1583938182458,2.5108,-4.3062,2.3144999,11.926352,-7.478557,2.3743777,-1
584,585,1583938182468,2.7315,-4.4873,0.7694,12.44463,-7.161795,0.36960727,-1
585,586,1583938182478,3.2970998,-4.0705,-1.2751,12.834789,-6.699167999999999,-1.240685,-1
586,587,1583938182488,3.5865998,-3.6165998,-2.7515,12.643626,-6.368519,-1.8577759999999999,-1
587,588,1583938182498,3.2930998999999996,-3.2756,-3.2747,11.94926,-6.132968,-2.0276110000000003,-1
588,589,1583938182508,2.5635998,-3.0572999,-3.4157998999999997,11.183517,-6.0482707,-2.2865872000000005,-1
589,590,1583938182519,1.8216,-2.9887998,-3.7396,10.763297,-6.128342,-2.8797363999999996,-1
590,591,1583938182529,1.5189999,-3.0965998,-4.3745,10.941424000000001,-6.2825675,-3.5973837,-1
591,592,1583938182539,1.8113999,-3.2329,-5.053499700000001,11.413246000000001,-6.162311,-4.376218,-1
592,593,1583938182549,2.2855,-3.0661,-5.7984,11.740466,-6.0948519999999995,-5.1922956,-1
593,594,1583938182559,2.4803998,-3.0010000000000003,-6.4332,11.465564,-6.001229299999999,-5.446713,-1
594,595,1583938182569,2.0839,-2.8844,-6.534,10.737812,-5.9002323,-5.755498,-1
595,596,1583938182580,1.2859,-2.7933,-6.7538,9.802522999999999,-5.749733,-5.9840007,-1
596,597,1583938182590,0.52129996,-2.6741,-6.8415,9.338392,-5.6687703,-5.7598652999999995,-1
597,598,1583938182600,-0.0077,-2.5040998,-6.4024,9.300514999999999,-5.5421557,-5.613043,-1
598,599,1583938182610,-0.0077,-2.5040998,-6.4024,9.531892,-5.5321574,-6.198224,-1
599,600,1583938182620,0.2563,-2.4397,-7.0924997,10.237262,-5.654367,-7.305964,-1
600,601,1583938182630,0.9647,-2.5453,-8.2484,11.114583,-5.7513227,-8.070739,-1
601,602,1583938182640,1.8587999,-2.6086,-9.0435,11.494697,-6.0117254,-7.7020993,-1
602,603,1583938182650,2.2477999,-2.8542,-8.6809,10.916955999999999,-6.158816000000001,-6.8713493,-1
603,604,1583938182660,1.6685,-2.9961,-7.8237996,9.827825,-6.173449,-6.116879,-1
604,605,1583938182671,0.57409996,-3.0149,-7.040499700000001,8.840944,-6.1512402999999996,-5.3499203,-1
605,606,1583938182681,-0.41369998,-3.0103998,-6.2454996,8.5271225,-6.141136599999999,-4.9794703,-1
606,607,1583938182691,-0.2893,-2.8479,-6.0167,9.089031,-5.928465,-5.124894,-1
607,608,1583938182701,-0.2893,-2.8479,-6.0167,9.56902,-5.738423,-5.296683,-1
608,609,1583938182712,0.5711,-2.4986,-6.2938,9.884988,-5.5913615,-5.283467,-1
609,610,1583938182722,0.5711,-2.4986,-6.2938,9.778083,-5.393724400000001,-5.0594273,-1
610,611,1583938182732,0.021499999,-2.1908,-5.6811,9.103272,-5.3257294,-4.592280000000001,-1
611,612,1583938182743,-0.738,-2.28,-5.0443997000000005,8.415849,-5.4169483,-3.9418807,-1
612,613,1583938182753,-1.0945,-2.3571,-4.3823,8.139510000000001,-5.475281,-3.266371,-1
613,614,1583938182763,-1.1342,-2.3609998,-3.8107998,8.1338215,-5.432099299999999,-2.7754352000000004,-1
614,615,1583938182773,-1.2203,-2.214,-3.8511,7.9932914,-5.2941065,-2.9428666,-1
615,616,1583938182783,-1.2944,-2.1519,-4.0278,7.949152000000001,-5.2278066,-2.986776,-1
616,617,1583938182794,-1.2988,-2.1058,-3.9176,7.9834369999999995,-5.2227879999999995,-2.7098916,-1
617,618,1583938182804,-1.2346,-2.1734,-3.4819,8.004353,-5.335861,-2.2511243999999997,-1
618,619,1583938182814,-1.2983999,-2.3664,-3.1913,7.872652499999999,-5.6186357000000005,-2.084392,-1
619,620,1583938182825,-1.4312999,-2.5777,-3.2459998,7.8324776,-5.803095,-2.5075526000000004,-1
620,621,1583938182835,-1.2694,-2.6487,-3.8665,8.184693,-5.884047499999999,-3.0477133,-1
621,622,1583938182846,-0.9404,-2.7475,-4.0827,8.3115,-5.946479,-2.9622884,-1
622,623,1583938182856,-0.98609996,-2.7612997999999997,-3.2798,8.013929,-5.8971295,-1.3231891000000002,-1
623,624,1583938182866,-1.4467,-2.6145,-1.6841999,7.3716702000000005,-5.619517299999999,0.22687456,-1
624,625,1583938182876,-2.1151,-2.2556998999999998,-0.3471,6.745989,-5.3143519999999995,1.0147297,-1
625,626,1583938182887,-2.6351,-1.9927,0.18239999,6.572371,-5.0305433,1.2851979,-1
626,627,1583938182897,-2.5812,-1.6891999,0.3665,6.796171000000001,-4.9006243,1.3098486999999999,-1
627,628,1583938182907,-2.2654998,-1.6272999,0.2861,7.177022,-4.913936,1.030608,-1
628,629,1583938182917,-1.8064,-1.5645,-0.109299995,7.8082576,-4.7423773,0.67952234,-1
629,630,1583938182927,-1.255,-1.3579999,-0.36049998,8.1526785,-4.694292,0.6278651,-1
630,631,1583938182937,-0.8495,-1.287,-0.33879998,8.63148,-4.672025700000001,0.9979033000000002,-1
631,632,1583938182947,-0.4258,-1.1984999,0.007999999,8.812281,-4.752203,1.5170428999999999,-1
632,633,1583938182959,-0.29,-1.2622,0.5852,8.632352000000001,-4.839965,2.5822616000000003,-1
633,634,1583938182969,-0.5305,-1.2930000000000001,1.7633,8.186245,-4.875897,3.8160126000000005,-1
634,635,1583938182979,-0.9881,-1.2887,2.9608998,7.741594,-4.814778,4.7101803,-1
635,636,1583938182989,-1.4046999,-1.1858,3.7342,7.4538584000000006,-4.728357,4.996019,-1
636,637,1583938182999,-1.6111,-1.0490000000000002,3.8423,7.6564083,-4.699425,4.5436487,-1
637,638,1583938183010,-1.3606,-0.9923,3.3734998999999997,8.0586815,-4.855939,4.142983999999999,-1
638,639,1583938183020,-0.81079996,-1.1534,2.8170998,8.901249,-5.037228,3.7045962999999995,-1
639,640,1583938183030,-0.0534,-1.2131,2.4212,9.650424000000001,-4.8481913,4.0035744,-1
640,641,1583938183040,0.7205,-0.98179996,2.6993,9.818918,-4.767593,5.036146,-1
641,642,1583938183050,0.9091,-0.8483,3.7041,9.226975,-4.753371700000001,6.114226,-1
642,643,1583938183061,0.3351,-0.80609995,4.7924,8.457747,-4.700278,6.7156972999999995,-1
643,644,1583938183071,-0.80969995,-0.43699998,5.6138997,8.033686999999999,-4.3736706,6.9561806,-1
644,645,1583938183081,-0.80969995,-0.43699998,5.6138997,8.064715,-4.217645,6.85458,-1
645,646,1583938183091,-0.7841,-0.19579999,5.4879,8.346503,-4.018648600000001,6.2604256,-1
646,647,1583938183101,-0.0861,0.2774,4.1119,8.812425,-3.7662612999999996,5.474122,-1
647,648,1583938183112,0.3356,0.4752,3.7468,9.220099000000001,-3.6137697999999996,5.1992197,-1
648,649,1583938183122,0.7829999999999999,0.52349997,3.7422998,9.629106,-3.6185007000000007,5.28316,-1
649,650,1583938183132,0.9317,0.47939998,4.076699700000001,9.700386,-3.7546157999999994,5.6900406,-1
650,651,1583938183142,0.7729,0.1258,4.6717,9.481622999999999,-4.136309,6.241588,-1
651,652,1583938183152,0.60319996,-0.1248,4.7791,9.328768,-4.340936699999999,6.228391,-1
652,653,1583938183162,0.5816,-0.1237,4.3915,9.343832,-4.32956,5.8032580000000005,-1
653,654,1583938183173,0.73719996,-0.10529999400000001,3.9936,9.533797,-4.328305,5.4630513,-1
654,655,1583938183183,0.93149996,-0.030499997999999997,3.6218,9.689928,-4.249373,5.0924864,-1
655,656,1583938183193,1.0754,0.0315,3.2015,9.846097,-4.143233,4.6683197,-1
656,657,1583938183203,1.2268,0.1891,2.9837,9.999613,-3.9649989999999997,4.6002282999999995,-1
657,658,1583938183213,1.2472,0.36339998,3.0613,9.853231,-3.826825,4.740759,-1
658,659,1583938183224,1.2472,0.36339998,3.0613,9.524517999999999,-3.7717392,4.853775,-1
659,660,1583938183234,0.5252,0.4382,3.2358,9.180327,-3.7566748,4.7510056,-1
660,661,1583938183244,0.3841,0.46879998,2.7924,9.116076,-3.7511203,4.09691,-1
661,662,1583938183254,0.49899998,0.44059998,2.011,9.307603,-3.7352898000000003,3.3443932999999997,-1
662,663,1583938183264,0.71129996,0.4809,1.3791,9.534027,-3.682895,2.8955379,-1
663,664,1583938183274,0.8333,0.5394,1.2062,9.528414999999999,-3.624582,2.7691145,-1
664,665,1583938183285,0.6584,0.5361,1.1086,9.181208,-3.6280584000000005,2.8164814,-1
665,666,1583938183295,0.2762,0.53069997,1.2978,8.893386999999999,-3.5824344,2.9842477,-1
666,667,1583938183305,-0.0464,0.5451,1.4942,8.639448,-3.5638745000000003,3.1537862000000003,-1
667,668,1583938183315,-0.1902,0.5617,1.6147,8.5332985,-3.5540773999999997,3.2084124,-1
668,669,1583938183325,-0.2821,0.5227,1.5116999,8.448592,-3.6262195,2.8322543999999996,-1
669,670,1583938183335,-0.3125,0.4477,0.99069995,8.556771000000001,-3.695661,2.2059982000000002,-1
670,671,1583938183346,-0.1256,0.4053,0.2638,8.785657,-3.7716339,1.4728649999999999,-1
671,672,1583938183356,0.0806,0.2962,-0.3197,8.934022,-3.8808190000000002,1.1889893,-1
672,673,1583938183366,0.2061,0.18699999,-0.44,8.958730000000001,-3.9598181000000006,1.2109107,-1
673,674,1583938183376,0.1522,0.1148,-0.27539998,8.812031,-3.9578067999999997,1.6041056,-1
674,675,1583938183386,-0.0805,0.1964,0.22819999,8.526834,-3.7929137,2.0879833999999997,-1
675,676,1583938183396,-0.41200000000000003,0.32479998,0.7202,8.161767,-3.7414,2.4960895,-1
676,677,1583938183407,-0.7421,0.32569999,1.0375999,7.979271000000001,-3.7454221,2.6078315,-1
677,678,1583938183416,-0.853,0.3005,1.0891,7.993377000000001,-3.8169703,2.5466740000000003,-1
678,679,1583938183426,-0.7244,0.21169999,0.8364,8.261499,-3.9859436,1.9936038,-1
679,680,1583938183436,-0.34719998,-0.0289,0.1064,8.732496000000001,-4.269790599999999,1.2193956,d
680,681,1583938183446,0.1489,-0.2669,-0.5844,9.292146,-4.3810635,0.7868879,-1
681,682,1583938183456,0.67219996,-0.27089998,-0.84419996,9.583203999999999,-4.3318195,0.74701965,-1
682,683,1583938183467,0.8675,-0.2314,-0.7018,9.458121,-4.2268195,1.297303,-1
683,684,1583938183477,0.56799996,-0.12109999,-0.1419,8.899123,-4.1003003,1.9504700000000001,-1
684,685,1583938183488,-0.028199999,-0.0167,0.5154,8.408236,-3.9367955,2.4056077,-1
685,686,1583938183498,-0.4669,0.15529999,0.9112,8.255868,-3.844389,2.6634536,-1
686,687,1583938183508,-0.529,0.1848,1.1493,8.451417,-3.9386246,2.7097862,-1
687,688,1583938183519,-0.2723,0.0447,1.0835999,9.07413,-4.327979599999999,2.2371995,-1
688,689,1583938183529,0.26229998,-0.2857,0.6404,9.737985,-4.599175499999999,1.9005556000000001,-1
689,690,1583938183539,0.93549997,-0.55439997,0.287,10.29228,-4.8854546999999995,1.6126288999999998,-1
690,691,1583938183549,1.6269999999999998,-0.8933,-0.0629,10.955886,-4.9160237,1.6000259,-1
691,692,1583938183559,2.167,-0.8667,-0.033999998,11.155132,-4.6057544,1.9509294999999998,-1
692,693,1583938183569,2.3476999,-0.5075,0.4138,10.838704,-4.3173394,2.8536777,-1
693,694,1583938183580,2.0232,-0.306,1.207,10.458735,-4.2390685,3.461642,-1
694,695,1583938183590,1.6380000000000001,-0.25759998,1.8091999,10.319678999999999,-4.224396700000001,3.822659,-1
695,696,1583938183600,1.4804,-0.27789998,2.156,10.529776,-4.303625599999999,4.003919000000001,-1
696,697,1583938183611,2.3236,-0.6569,2.2396998,11.336718,-4.608168,3.9338267,-1
697,698,1583938183621,2.3236,-0.6569,2.2396998,12.058474,-4.8035254,3.9317388999999996,-1
698,699,1583938183632,4.151799700000001,-1.1445999,2.2554,13.167353,-5.0084877,4.063946700000001,-1
699,700,1583938183642,4.781399700000001,-1.1345999,2.4768999,13.701404,-4.964185700000001,4.3725877,-1
700,701,1583938183652,4.9442997,-1.1783999,3.0296,13.801356,-4.988884400000001,4.989191,-1
701,702,1583938183662,4.7778,-1.1898,3.6273,13.6004925,-4.877592,5.551205599999999,-1
702,703,1583938183672,4.7778,-1.1898,3.6273,13.258581,-4.7313356,5.3973737,-1
703,704,1583938183683,4.0374,-0.83599997,2.7868,12.964276,-4.324205999999999,4.5347137,-1
704,705,1583938183693,3.9455,-0.53999996,2.167,12.890947,-3.8623165999999998,4.1303043,-1
705,706,1583938183704,3.8291,-0.3654,2.3727,12.829004,-3.6904415999999998,4.411814700000001,-1
706,707,1583938183714,3.6304,-0.3206,2.9322,12.571330999999999,-3.5047089999999996,5.1388955,-1
707,708,1583938183724,3.6304,-0.3206,2.9322,12.135586,-3.3853533,5.8085537,-1
708,709,1583938183734,2.6815999,-0.3355,4.1602,11.562184,-3.4523718,5.939066400000001,-1
709,710,1583938183744,2.2312999,-0.54109997,3.9115998999999997,11.313676,-3.5003898,5.447221,-1
710,711,1583938183755,2.04,-0.71639997,2.9454,11.35159,-3.5997013999999994,3.9801784,-1
711,712,1583938183765,2.2437,-0.8803,1.5720999,11.702092,-3.5902489999999996,2.8889873,-1
712,713,1583938183775,2.6838,-0.83769995,0.3879,12.088065,-3.36257,1.9461700000000002,-1
713,714,1583938183785,2.8479,-0.6617,-0.052899998,12.059833,-2.9636099999999996,1.8673816000000003,-1
714,715,1583938183795,2.5591,-0.3953,0.248,11.56906,-2.5879982000000004,2.3499662999999997,-1
715,716,1583938183805,1.9552,-0.1753,0.77059996,10.926849,-2.313814,2.8222563,-1
716,717,1583938183815,1.2918999,-0.0863,1.1056,10.465669,-2.1361356,2.865371,-1
717,718,1583938183825,0.90349996,-0.073199995,1.0797,10.236917,-2.150357,2.6463015,-1
718,719,1583938183835,0.71129996,-0.37539998,0.8193,10.283114999999999,-2.4099077999999996,2.3899016,-1
719,720,1583938183845,0.95019996,-0.7078,0.8976,10.724242,-2.5416462,2.6295326,-1
720,721,1583938183855,1.3652999,-0.8304,1.2808,11.067753,-2.6062515,2.7356724999999997,-1
721,722,1583938183865,1.4179,-1.0752,1.3400999,10.74445,-2.7806544,2.552085,-1
722,723,1583938183875,0.9127,-1.3813,1.1819998999999999,10.229600999999999,-2.8996656,1.9543675999999999,-1
723,724,1583938183886,0.39999998,-1.5404999,0.5276,9.836367999999998,-2.9260592,1.2187061000000001,-1
724,725,1583938183896,-0.17899999,-1.7070999,-0.51989996,9.301033,-2.8149588,-0.10671435,-1
725,726,1583938183906,-0.5306,-1.6230999,-1.2644,9.100705,-2.5104450000000003,-0.7421833000000001,-1
726,727,1583938183916,-0.6638,-1.4401,-1.5837,9.082653,-2.1399182999999997,-0.79631144,-1
727,728,1583938183926,-0.6659,-1.1271,-1.2378,9.041358,-1.4172332,-0.28356925,-1
728,729,1583938183937,-0.7912,-0.6356,-0.6202,8.552932,-0.8680705,0.2581141,-1
729,730,1583938183947,-1.4320998999999999,-0.2514,0.0169,7.717105999999999,-0.52734685,0.6169762,-1
730,731,1583938183957,-2.5595,-0.0219,0.49789998,6.545441,-0.31319988,0.6486466999999999,-1
731,732,1583938183967,-3.6636998999999997,0.0018,0.36200000000000004,5.806753,-0.32586044,0.15862066,-1
732,733,1583938183977,-4.0195,-0.2095,0.061499998,6.0584316,-0.65816605,-0.31220388,-1
733,734,1583938183987,-3.6179,-0.63229996,-0.3157,7.054295,-0.817074,-0.8228870999999999,-1
734,735,1583938183998,-2.4991999,-0.76019996,-0.73289996,8.205293,-0.5623022,-1.2566781999999999,-1
735,736,1583938184008,-1.4289,-0.5326,-1.0699999,8.750855,-0.29779079999999997,-1.4114107,-1
736,737,1583938184019,-1.0841,-0.3348,-1.1012,8.243275,-0.17128119,-1.1492360000000001,-1
737,738,1583938184029,-1.7590000000000001,-0.32189998,-0.73829997,7.026033999999999,-0.28611666,-0.7442711,-1
738,739,1583938184039,-2.7863,-0.473,-0.3764,6.339290599999999,-0.2664938,-0.76259154,-1
739,740,1583938184050,-3.4699,-0.5139,-0.35819998,6.470206,-0.09149681,-1.167499,-1
740,741,1583938184060,-3.3293998,-0.3888,-0.7209,7.374610400000001,0.10609186400000001,-1.7253383000000002,-1
741,742,1583938184071,-2.4238,-0.2516,-1.2353,8.169792,0.22652021,-1.9200061999999998,-1
742,743,1583938184081,-1.4453,-0.22469999,-0.95049995,8.332157,0.18082927,-1.3435303,-1
743,744,1583938184091,-1.8134999,-0.4685,0.33359998,7.8120503,-0.033212364,0.019689914,-1
744,745,1583938184101,-2.8281999,-0.7308,1.6934999,6.7162337,-0.23888387,1.2293843,-1
745,746,1583938184111,-3.9306997999999997,-0.9938,2.0916997999999998,5.6971755,-0.46368983,1.3979936000000002,-1
746,747,1583938184121,-4.3276997,-1.0188,1.8499999,5.459162999999999,-0.34550247,1.028367,-1
747,748,1583938184132,-4.0001,-0.69,0.96959996,5.900069,0.030224402,-0.048487373,-1
748,749,1583938184142,-3.2914999,-0.37039998,-0.5007,6.596064,0.30853600000000003,-1.5961568000000002,-1
749,750,1583938184152,-2.7208,-0.36139998,-1.7552999,7.1331315,0.24613352,-2.7362278,-1
750,751,1583938184163,-2.2872999,-0.8106,-2.1341,7.6209354000000005,-0.44072464,-2.8831743999999997,-1
751,752,1583938184173,-1.9511,-1.3639,-1.7353,7.8768663,-0.84662807,-2.41438,-1
752,753,1583938184183,-1.8492,-1.3792,-1.0795,7.8312135,-0.61960024,-1.6018933000000002,-1
753,754,1583938184193,-2.1288,-1.0547999,-0.0219,7.443639999999999,-0.29097209999999996,-0.6545364,-1
754,755,1583938184203,-2.6629,-0.7887,0.5512,6.953461,-0.055143252000000004,-0.44347322,-1
755,756,1583938184213,-3.2168999,-0.66929996,0.4824,6.394089,0.10096828,-0.59215313,-1
756,757,1583938184223,-3.3579,-0.6145,0.2487,6.531909,0.12446976,-0.9612719999999999,-1
757,758,1583938184233,-2.7653,-0.62009996,-0.060599997999999995,7.149977000000001,0.15739483,-1.2260036,-1
758,759,1583938184243,-1.9451,-0.5189,-0.6416,8.066621000000001,0.23980324,-2.1536419999999996,-1
759,760,1583938184253,-1.3196,-0.445,-1.4477999,8.562585,0.30535647,-2.9385185000000003,-1
760,761,1583938184264,-0.9677,-0.3858,-1.8996998999999999,8.803441000000001,0.4364438,-3.2188892000000005,-1
761,762,1583938184274,-0.9492,-0.1494,-1.7811999,8.637264,0.71829885,-2.9689922,-1
762,763,1583938184284,-1.2849,0.1092,-1.2167,8.307277000000001,0.91107035,-2.4729419999999998,-1
763,764,1583938184294,-1.8185999,0.101399995,-0.5202,7.628348399999999,0.7372991999999999,-1.6457646000000001,-1
764,765,1583938184304,-2.1087,-0.1652,-0.076799996,7.6942554,0.49784073,-1.5372976999999999,-1
765,766,1583938184315,-1.8015,-0.38059998,-0.21229999,8.120921000000001,0.3420548,-1.8325411,-1
766,767,1583938184325,-1.1321,-0.5252,-0.56119996,8.796928,0.2533736,-2.1940557999999997,-1
767,768,1583938184335,-0.5309,-0.4481,-0.97429997,9.326853,0.32939425,-2.6703873,-1
768,769,1583938184345,-0.14479999,-0.37219998,-1.2369,9.575609,0.39411432,-2.7338240000000003,d
769,770,1583938184355,-0.081599995,-0.2931,-1.0577999,9.529881,0.5084423,-2.5533395,-1
770,771,1583938184366,-0.1454,-0.18159999,-0.90919995,9.547512,0.6131646,-2.5008872,-1
771,772,1583938184376,-0.0229,-0.044299997,-0.8506,9.723073,0.7124378,-2.5400374,-1
772,773,1583938184386,0.118499994,0.0132,-0.9734,9.756382,0.74327517,-2.7128797000000002,-1
773,774,1583938184396,0.0234,-0.037699997,-1.0752,9.495213,0.61880535,-2.676593,-1
774,775,1583938184406,-0.33799999999999997,-0.1387,-0.91169995,9.022453,0.6006382,-2.530518,-1
775,776,1583938184416,-0.75979996,-0.1117,-0.8249,8.706917,0.7167857,-2.5421345,-1
776,777,1583938184426,-0.9765,0.0368,-0.9184,8.773342,0.85606116,-2.6990411,-1
777,778,1583938184437,-0.74219996,0.1805,-1.0394,9.161000999999999,0.9879146999999999,-2.701148,-1
778,779,1583938184447,-0.2913,0.3477,-0.9772,9.603545,1.0443987,-2.614382,-1
779,780,1583938184457,0.1118,0.2996,-0.86789995,9.978209,0.8803959000000001,-2.2877269,-1
780,781,1583938184467,0.37919998,0.141,-0.47709998,10.123844,0.69371516,-1.9858083999999998,-1
781,782,1583938184477,0.4904,-0.0307,-0.30949998,10.02074,0.61384463,-2.5327396,-1
782,783,1583938184487,0.3468,-0.08779999599999999,-0.9465,9.783187,0.6001401999999999,-3.3124547,-1
783,784,1583938184498,0.1344,-0.08800000000000001,-1.6929,9.736769,0.66894954,-3.9769318,-1
784,785,1583938184508,0.1179,-0.010199999,-2.3040000000000003,9.818516,0.7504769,-4.2603383,-1
785,786,1583938184518,0.1987,0.077,-2.4385,9.877988,0.7958900999999999,-4.0161967,-1
786,787,1583938184528,0.2498,0.124,-2.1439,9.921227,0.794942,-3.6922038,-1
787,788,1583938184538,0.3102,0.0722,-1.7737,10.031015,0.6628012,-3.1490647999999997,-1
788,789,1583938184549,0.42909998,-0.0676,-1.2385,10.088026,0.44184512,-2.8397433999999997,-1
789,790,1583938184559,0.4895,-0.3252,-1.0059,10.27079,0.10461704,-2.88078,-1
790,791,1583938184570,0.7168,-0.6803,-1.0659999999999998,10.563917,-0.2471678,-3.3898256,-1
791,792,1583938184580,0.95419997,-0.93729997,-1.5366,10.579249,-0.41731894,-4.3729324,-1
792,793,1583938184590,0.9658,-1.1085,-2.5194,10.604648,-0.40237913,-5.1958585,-1
793,794,1583938184600,0.99679995,-1.117,-3.3386,10.630054,-0.27275705,-5.649186,-1
794,795,1583938184610,1.0274,-0.95449996,-3.8672998,10.600931,-0.06589801,-5.9602118,-1
795,796,1583938184621,0.98999995,-0.7998,-4.1019998,10.381852,0.017745823,-6.320242400000001,-1
796,797,1583938184631,0.77739996,-0.7808,-4.4509,10.157468,-0.033681627,-6.697291000000001,-1
797,798,1583938184641,0.55689996,-0.8373,-4.8231997,9.990391,-0.30905312,-6.4252806,-1
798,799,1583938184651,0.2778,-1.6899998999999999,-3.6095998,9.809667,-0.90348554,-5.3364363,-1
799,800,1583938184661,0.0298,-2.1675,-2.9106998,9.540338,-1.2615336000000001,-4.7549324,-1
800,801,1583938184671,-0.2715,-2.2774,-2.8402998,9.259231,-1.2691854,-4.836737,-1
801,802,1583938184681,-0.2715,-2.2774,-2.8402998,9.114946,-1.0121919,-5.3843584,-1
802,803,1583938184691,-0.47100000000000003,-2.0263999,-3.503,9.010702,-0.61929375,-6.0674148,-1
803,804,1583938184701,-0.5870000000000001,-1.661,-4.2465997,8.805883,-0.28164429999999996,-6.1541805,-1
804,805,1583938184711,-1.2129999,-1.3206999,-4.3775997,8.301588,-0.26522009999999996,-6.0358496,-1
805,806,1583938184721,-1.2129999,-1.3206999,-4.3775997,8.041108,-0.41724232,-5.811647,-1
806,807,1583938184731,-1.5741999,-1.5449,-4.1861,8.080603,-0.58211666,-5.5026703,-1
807,808,1583938184742,-1.4429,-1.9636999,-3.5288,8.157467,-0.81351143,-4.936135299999999,-1
808,809,1583938184752,-1.4429,-1.9636999,-3.5288,7.994220299999999,-0.8966764000000002,-4.346568,-1
809,810,1583938184762,-2.0261,-2.0045,-2.1243,7.495872,-0.66056985,-3.3936660000000005,-1
810,811,1583938184772,-2.6763,-1.6460999,-1.4203,6.794735,-0.22541888,-2.6208272,-1
811,812,1583938184782,-3.5238,-1.2577,-0.7802,5.90526,0.22100396,-1.9492537,-1
812,813,1583938184792,-4.4613,-0.9208,-0.4581,5.0152206,0.6138637,-1.5801444,-1
813,814,1583938184803,-5.0868998,-0.5884,-0.4278,4.540192,0.92578036,-1.4761018999999997,-1
814,815,1583938184812,-4.8219,-0.561,-0.2032,4.9889225999999995,0.9297546999999998,-1.0691355,-1
815,816,1583938184822,-3.9596998999999995,-0.6234,0.106,5.870784,0.84746116,-0.6974214,-1
816,817,1583938184832,-3.2638,-0.7349,0.3164,6.494205,0.6904974,-0.4094947,-1
817,818,1583938184842,-2.9487997999999997,-0.83739996,0.3884,6.769873599999999,0.6197343000000001,-0.24619098,-1
818,819,1583938184852,-2.9257,-0.6235,0.9569,6.623827,0.9715766,0.9566655000000001,-1
819,820,1583938184863,-3.5375997999999997,-0.2821,2.5613,5.761732599999999,1.2175951999999999,2.8359032,-1
820,821,1583938184873,-4.579799700000001,-0.17009999,4.3834,4.909167,1.2921314,4.2133255,-1
821,822,1583938184883,-5.4563,-0.0695,5.2853,4.0624337,1.4627998,5.0685825,-1
822,823,1583938184893,-5.6882997,0.1986,5.4294,4.0975227,1.6918291,5.204669,-1
823,824,1583938184903,-5.4133997,0.2767,5.3564,4.4409375,1.5157212,5.145666,-1
824,825,1583938184914,-5.0715,-0.0736,5.1382,4.8609767,1.035339,5.123582,-1
825,826,1583938184924,-4.5337,-0.5162,5.3845997,5.450573,0.44839567,5.803631299999999,-1
826,827,1583938184934,-3.8964,-1.0196999,6.3090997,6.1125693,-0.023204602,6.9968247,-1
827,828,1583938184944,-3.2463,-1.0828,7.4298,6.7703904999999995,-0.080904864,8.22822,-1
828,829,1583938184954,-2.7103,-0.91719997,8.4084,7.1691113,0.15267345,9.176237,-1
829,830,1583938184965,-2.4752998,-0.4585,8.8393,7.298551,0.5520933000000001,9.54957,-1
830,831,1583938184975,-2.5232,-0.030199998999999998,9.0294,7.1134796,0.7490882,9.792811,-1
831,832,1583938184985,-2.8457,-0.1688,9.3453,6.800433,0.49209464,10.493748,-1
832,833,1583938184995,-2.9829,-0.21169999,10.2741995,6.8130937000000005,0.49539864,11.350365,-1
833,834,1583938185005,-2.8262,-0.1232,10.5152,7.255379,0.5001296,11.13932,-1
834,835,1583938185016,-2.1492,0.061199997,10.1321,8.2728195,0.85727745,10.986905,-1
835,836,1583938185026,-1.0112,0.5185,10.0174,9.349358,1.0538701000000001,10.918096,-1
836,837,1583938185036,-0.110599995,0.5574,9.8799,9.95332,0.73469436,10.84218,-1
837,838,1583938185046,0.306,0.14479999,9.930099499999999,10.087471,-0.02510081,10.910885,-1
838,839,1583938185056,0.249,-0.6527,9.7659,9.902225999999999,-0.8558121999999999,9.948319999999999,-1
839,840,1583938185067,0.113,-1.1495,8.5821,9.968086,-1.0256281999999999,8.645904,-1
840,841,1583938185077,0.2527,-1.1162,7.5151997,10.293064999999999,-0.9784431999999998,7.8565826,-1
841,842,1583938185087,0.7186,-0.9712,6.9578,10.981935,-0.87654597,7.126628999999999,-1
842,843,1583938185097,1.3242999,-0.7919,6.3381,11.67839,-0.7243225999999999,6.1858225,-1
843,844,1583938185107,2.0298,-0.5283,5.3603,12.165322,-0.69622433,5.2923636,-1
844,845,1583938185117,2.6087,-0.5301,4.3486,12.702322,-1.2197978,4.33068,-1
845,846,1583938185128,2.9225,-0.97599995,3.6753,12.758548,-1.6609056,3.9153241999999997,-1
846,847,1583938185138,2.9317,-1.5346,3.258,12.641414,-2.6504388,3.4346832999999997,-1
847,848,1583938185148,2.8041,-2.3264,2.995,12.610289,-3.441818,3.0257826,-1
848,849,1583938185158,2.8739,-3.0058,2.5734,13.100411,-4.025380999999999,1.7286136000000003,-1
849,850,1583938185168,3.455,-3.445,1.1953,13.921823499999999,-3.9309442000000003,0.35909194,-1
850,851,1583938185179,4.2921,-3.1053998,-0.0089,14.476914,-3.2504065,-0.502361,-1
851,852,1583938185189,4.7076,-2.3351,-0.73569995,14.183797,-2.5037602999999997,-0.8100063,-1
852,853,1583938185199,4.24,-1.5971999,-0.9195,12.800361,-2.1832342000000002,-0.66085714,-1
853,854,1583938185209,3.0167,-1.3403,-0.76309997,11.642313,-2.320767,-0.5835914000000001,-1
854,855,1583938185219,1.8619,-1.4583,-0.6612,11.209222,-2.56736,-1.0848702,-1
855,856,1583938185230,1.395,-1.7172999,-1.3713,11.590636,-3.139402,-2.8398678,-1
856,857,1583938185240,1.8204,-2.1861,-2.8774,12.574798,-3.7886424,-4.610609999999999,-1
857,858,1583938185250,2.8169999999999997,-2.7710000000000004,-4.5977,13.464512,-4.2694077,-5.8658996,-1
858,859,1583938185260,3.7064,-3.1894,-5.7903,13.731925,-4.361708999999999,-6.0177974999999995,-1
859,860,1583938185271,3.9675,-3.2106,-5.8241,13.111607000000001,-4.034632,-5.6142592,-1
860,861,1583938185280,3.3634998999999994,-2.8918998,-5.4024997,11.708259,-3.5076587,-5.2095814,-1
861,862,1583938185290,1.9627999,-2.3588998,-4.9402,10.230635000000001,-3.0372939999999997,-5.573768599999999,-1
862,863,1583938185300,0.48209998,-1.8939999,-5.2837996,9.655136,-2.8861048,-6.902531,-1
863,864,1583938185310,-0.0859,-1.7343998999999999,-6.5945,10.562394,-2.9725737999999997,-8.747589999999999,-1
864,865,1583938185321,1.6284,-1.8687999,-9.134399,11.532305000000001,-3.1258411,-9.557269999999999,-1
865,866,1583938185331,1.6284,-1.8687999,-9.134399,12.058769999999999,-3.4565473,-9.844948,-1
866,867,1583938185341,2.3308,-2.198,-9.4868,12.208274000000001,-3.9830227,-9.310217,-1
867,868,1583938185351,2.5421,-2.6157,-9.1952,11.867272,-3.9645586,-8.552807000000001,-1
868,869,1583938185361,1.0835999,-2.4038,-7.0199,10.417076,-3.5948269999999996,-7.178899,-1
869,870,1583938185372,-0.14479999,-2.1199,-6.4501995999999995,9.404089,-3.3274230000000005,-6.900079700000001,-1
870,871,1583938185382,-0.7359,-1.9022,-6.9609,8.997879,-3.136165,-7.550239599999999,-1
871,872,1583938185392,-0.384,-1.8876,-7.8167,9.497941,-3.134805,-8.376066,-1
872,873,1583938185402,0.4698,-1.9871999,-8.4129,10.382617999999999,-3.284768,-8.894297,-1
873,874,1583938185412,1.1776,-2.2082999,-8.9759,11.069381,-3.582262,-9.58805,-1
874,875,1583938185422,1.4733,-2.4131,-9.4261,11.238717999999999,-3.7165193999999997,-9.762597,-1
875,876,1583938185433,1.5230000000000001,-2.4306997999999997,-9.023,11.164795,-3.7418404,-9.105628,-1
876,877,1583938185442,1.5230000000000001,-2.4306997999999997,-9.023,10.913642999999999,-3.7536006,-8.51401,-1
877,878,1583938185452,0.5205,-2.3889,-6.864,10.132041000000001,-3.6232316,-7.080775,-1
878,879,1583938185462,-0.0801,-2.2738,-5.9742,9.529258,-3.5114703,-6.3072944,-1
879,880,1583938185472,-0.5437,-2.1854,-5.5393996,9.091781,-3.3605110000000002,-5.805795,-1
880,881,1583938185483,-0.5437,-2.1854,-5.5393996,8.932105,-3.3064692000000004,-5.7018775999999995,-1
881,882,1583938185493,-1.0090000000000001,-2.1251,-5.3863,8.675869,-3.3373163,-5.789122,-1
882,883,1583938185503,-1.1280999,-2.2312999,-5.371299700000001,8.581288,-3.4805276,-5.5597672,-1
883,884,1583938185513,-1.1975,-2.2841,-4.9192,8.481133,-3.469936,-4.871942,-1
884,885,1583938185524,-1.3941,-2.2676,-4.0164,8.210848,-3.4977275999999997,-3.793718,-1
885,886,1583938185533,-1.7965,-2.2724,-2.9062997999999998,7.854782000000001,-3.4803553,-2.869374,-1
886,887,1583938185543,-2.2282999,-2.269,-1.8707999,7.357947,-3.4937725,-1.6251363,-1
887,888,1583938185553,-2.5519,-2.2161,-0.9881,7.097314,-3.3703557999999996,-0.774122,-1
888,889,1583938185563,-2.7475,-2.023,-0.3285,6.88718,-3.188981,-0.21226993,-1
889,890,1583938185573,-3.0503,-1.9038,0.0252,6.620332,-3.133397,0.07612604,-1
890,891,1583938185583,-3.3913998999999997,-1.8187,0.1585,6.2225204000000005,-3.0212622000000002,0.21272004,-1
891,892,1583938185594,-3.6039,-1.5993998999999999,0.1872,6.085955599999999,-2.7933726,0.35033876,-1
892,893,1583938185604,-3.7465,-1.3337,0.4964,5.887226999999999,-2.5623607999999995,0.8934873999999999,-1
893,894,1583938185614,-4.0153,-1.1796,1.3262,5.541571,-2.532098,2.0569928,-1
894,895,1583938185624,-4.3712,-1.1567999,2.7192,5.321285700000001,-2.579398,3.2649345000000003,-1
895,896,1583938185634,-4.4609,-1.2541,4.0969999999999995,5.22434,-2.7046053,4.8343143,-1
896,897,1583938185644,-4.4607997,-1.1575999,4.9764,5.260004,-2.6130412,5.35444,-1
897,898,1583938185655,-4.3413997,-0.8778,4.8831997000000005,5.5091157,-2.2246252999999996,4.9272957,-1
898,899,1583938185665,-4.0534,-0.5032,4.2492,5.739783,-2.0959415,4.4250307,-1
899,900,1583938185675,-3.6755998,-0.39749998,3.7551,6.174703599999999,-2.1680837000000004,4.338514,-1
900,901,1583938185685,-3.3853,-0.4267,4.0969,6.282711,-2.2317023,5.013294999999999,-1
901,902,1583938185695,-3.3702,-0.3793,4.8294997,6.1467013,-2.2779583999999997,5.830264,-1
902,903,1583938185705,-3.5323,-0.3148,5.7079,5.988454,-2.1968237999999998,6.8220095999999995,-1
903,904,1583938185716,-3.6747,-0.102199994,6.745899700000001,5.880532700000001,-2.0666463,7.651074,-1
904,905,1583938185726,-3.7006997999999998,0.108799994,7.4606,5.9348906999999995,-1.9414678,8.202908500000001,-1
905,906,1583938185736,-3.5516,0.2314,7.9179997,6.205962,-2.0684752,8.603392,-1
906,907,1583938185746,-3.1647,0.0879,8.3331995,6.664413499999999,-2.3319522999999998,8.874252,-1
907,908,1583938185756,-2.6755,-0.036199998,8.300799000000001,6.9551463,-2.535565,8.50521,-1
908,909,1583938185766,-2.3983,-0.19389999,7.3304996,7.235498,-2.876729,7.035285000000001,-1
909,910,1583938185777,-2.0298,-0.31939998,5.9691997,7.827008999999999,-3.0034685000000003,5.9896417,-1
910,911,1583938185787,-1.2286999,-0.23979999,5.3408,8.775601,-2.890443,6.463004,-1
911,912,1583938185797,-0.5273,-0.0002,6.0694,8.849649000000001,-2.8077377999999995,7.3774743,-1
912,913,1583938185807,-0.65389997,0.1777,7.1773996,8.445394,-2.7749946,8.112934,-1
913,914,1583938185817,-1.2935,0.2376,7.8485,7.577073599999999,-2.8847065,8.629478,-1
914,915,1583938185827,-1.7853999,0.257,8.1259,7.397441400000001,-2.9725737999999997,8.74259,-1
915,916,1583938185837,-1.851,0.19579999,8.1038,7.525627,-3.521861,8.175031,-1
916,917,1583938185848,-1.6348,-0.3141,7.5403,7.8405795,-4.1195974,8.112964,-1
917,918,1583938185858,-1.2644,-0.76559997,7.4968,8.192267999999999,-4.5052075,7.826291,-1
918,919,1583938185868,-0.68219995,-1.026,6.7212996,8.970881,-4.636735400000001,6.495182,-1
919,920,1583938185878,0.0502,-0.8756,5.4723,9.65277,-4.36123,5.447489,-1
920,921,1583938185889,0.7913,-0.4678,4.4209,10.306311,-3.8965727999999995,4.965669999999999,-1
921,922,1583938185899,1.4396,0.1162,4.042,10.352432,-3.5336502,5.554931,-1
922,923,1583938185909,1.4338,0.48319998,4.6080000000000005,9.628283,-3.8176599,6.256384400000001,-1
923,924,1583938185919,0.5295,0.17289999,5.444,8.475847,-4.6582737000000005,6.768006,-1
924,925,1583938185929,-0.3557,-0.48299998,5.822,8.423243,-5.3689113,6.790741400000001,-1
925,926,1583938185940,-0.37199998,-1.1029999,5.8374996,8.830419000000001,-5.9224120000000005,6.3085585,-1
926,927,1583938185950,0.2189,-1.7142998999999999,5.133899700000001,9.735044,-6.560534,5.1613050000000005,-1
927,928,1583938185961,1.0533,-2.1052,4.0744,10.294474000000001,-6.79258,4.2073975,-1
928,929,1583938185971,2.4449,-2.2488,1.9772999,11.097814999999999,-6.833779300000001,3.1779580000000003,-1
929,930,1583938185981,2.8442,-1.8642999,1.7235999,11.354703,-6.5416584,3.0846894,-1
930,931,1583938185992,2.5763,-1.6011,1.7702,10.870901,-6.3774543,3.2166674,-1
931,932,1583938186001,2.5763,-1.6011,1.7702,10.134808999999999,-6.4429115999999995,3.3915687000000005,-1
932,933,1583938186011,1.7200999,-1.5955,1.9557999,9.154191,-6.845147,3.7267089999999996,-1
933,934,1583938186021,0.8789,-1.8612,2.2475998,9.053741,-7.422648,3.3851235,-1
934,935,1583938186031,0.6587,-2.362,1.9935,9.705232,-7.673771,2.3168306,-1
935,936,1583938186041,2.072,-2.7161,-0.3532,10.492906,-7.806888000000001,0.98365295,-1
936,937,1583938186051,2.6074998,-2.8181998999999998,-1.3835,10.881091,-7.925976299999999,0.15210843,-1
937,938,1583938186062,2.6780999,-2.7508,-1.7041998999999999,10.814378999999999,-7.8859449999999995,-0.0448003,-1
938,939,1583938186072,2.2424998,-2.5453,-1.7447,10.278729,-7.6802545,-0.0078050974,-1
939,940,1583938186082,1.7136999,-2.3372998,-1.6736,9.741481,-7.5469832,0.18398005,-1
940,941,1583938186092,1.4175999,-2.3488998,-1.3934,9.490853999999999,-7.617392,0.51227295,-1
941,942,1583938186102,1.4244,-2.2845,-1.2512,9.529086,-7.5179563,0.5810248,-1
942,943,1583938186112,1.5681,-2.0266,-1.6811999,9.616455,-7.2138925,0.01301488,-1
943,944,1583938186122,1.6118,-1.6927999,-2.5204,9.627334,-6.967969999999999,-0.7200131,-1
944,945,1583938186133,1.6529,-1.6042999,-3.1325998,9.649503999999999,-6.929155000000001,-1.2134006000000002,-1
945,946,1583938186143,1.7121998999999999,-1.5630000000000002,-3.4782998999999997,9.704179,-6.921369,-1.5301343,-1
946,947,1583938186154,1.7709999,-1.6083,-3.5231,9.716828999999999,-7.084232000000001,-1.4265515,-1
947,948,1583938186164,1.7608999,-1.8700999,-3.3716,9.676827000000001,-7.3912168000000005,-1.3623103,-1
948,949,1583938186174,1.7494999,-2.1058,-3.5277,9.669013,-7.581996000000001,-1.5768691000000001,-1
949,950,1583938186184,1.775,-2.1207,-3.8730998,9.712405,-7.5226869999999995,-1.9666548,-1
950,951,1583938186194,1.837,-1.9729999,-4.1891,9.721809,-7.3443575,-2.0845644,-1
951,952,1583938186204,1.778,-1.7106999,-4.0394,9.587111,-7.0543814,-1.7177057,-1
952,953,1583938186215,1.5295,-1.4599999,-3.4707,9.267965,-6.8556337,-1.0954239,-1
953,954,1583938186225,1.1243,-1.3745999,-2.8400998,8.814167,-6.8639850000000004,-0.42016324,-1
954,955,1583938186235,0.76659995,-1.4077,-2.1468,8.4905,-6.9003190000000005,0.26047954,-1
955,956,1583938186245,0.58989996,-1.4655,-1.8600999,8.436266999999999,-7.1135850000000005,0.17224844,-1
956,957,1583938186255,0.6829,-1.7269,-2.1539,8.674327,-7.31646,-0.099244446,-1
957,958,1583938186265,1.1617,-1.8104999,-2.5152,9.206586999999999,-7.221400699999999,-0.66634464,-1
958,959,1583938186276,1.4927,-1.6116999,-3.1822,9.321978,-7.083897,-1.4147242,-1
959,960,1583938186286,1.495,-1.4569,-3.8818998,9.230903,-6.808727,-1.7685393,-1
960,961,1583938186296,1.3816998999999999,-1.0902,-3.9754998999999995,9.023937,-6.3323282999999995,-1.4696759,-1
961,962,1583938186306,1.0738,-0.61759996,-3.3792998999999995,8.7833395,-6.088320700000001,-0.9226583,-1
962,963,1583938186316,0.5931,-0.4007,-2.0272,8.060108999999999,-5.9438642999999995,1.045634,-1
963,964,1583938186327,0.0431,-0.4274,-0.65819997,7.6502213,-6.094622599999999,2.0244508000000003,-1
964,965,1583938186337,-0.23629999,-0.65639997,0.141,7.6225442999999995,-6.3763623,2.4689487999999997,-1
965,966,1583938186347,-0.0947,-0.9691,0.3302,8.101883,-6.704167,1.9306363999999998,-1
966,967,1583938186357,0.41959998,-1.1410999,-0.4104,8.5560055,-6.7071548,1.0615507,-1
967,968,1583938186367,0.9698,-1.0968,-1.5842999,8.98294,-6.642186,-0.15006855,-1
968,969,1583938186378,1.2455,-1.0055,-2.4682,9.045907000000001,-6.51582,-0.49819508,-1
969,970,1583938186388,1.2889999,-0.8785,-2.7098,8.943847,-6.3671017,-0.12163503,-1
970,971,1583938186398,1.1646,-0.71599996,-2.2158,8.6289425,-6.2523813,0.59777474,-1
971,972,1583938186408,0.7926,-0.6161,-1.4732,8.13454,-6.2011356,1.3052708999999998,-1
972,973,1583938186419,0.25509998,-0.5496,-0.6893,7.6251106,-6.076857599999999,1.8632540000000002,-1
973,974,1583938186429,-0.2366,-0.4463,-0.1432,7.3341007,-6.073572599999999,2.0536887999999998,-1
974,975,1583938186439,-0.4802,-0.4606,0.050699997999999996,7.331160499999999,-6.0561047,2.0836546,-1
975,976,1583938186449,-0.4522,-0.4524,0.0905,7.567870599999999,-6.0471883,1.7334498999999999,-1
976,977,1583938186459,-0.25059998,-0.4414,-0.22219999,7.746736500000001,-5.88649,1.1060159,-1
977,978,1583938186470,-0.0733,-0.2723,-0.8461,7.8532494999999995,-5.800461299999999,0.79116875,-1
978,979,1583938186480,0.047,-0.162,-1.2129999,7.9130087,-5.6579585,0.5953901,d
979,980,1583938186490,0.0984,-0.0422,-1.3634,7.881510700000001,-5.575617,0.58453,-1
980,981,1583938186500,0.059499998,0.037499998,-1.3706,7.7862982999999995,-5.5508227,0.82540584,-1
981,982,1583938186511,-0.030599998,0.0676,-1.1256,7.6701603,-5.61198,1.1771811,-1
982,983,1583938186521,-0.1513,0.0095,-0.7579,7.571471000000001,-5.6915727,1.6055613000000002,-1
983,984,1583938186531,-0.2523,-0.077,-0.3101,7.598171000000001,-5.800231500000001,1.6059827,-1
984,985,1583938186541,0.063099995,-0.29209998,-0.4917,7.968526,-5.968869000000001,1.3190136000000001,-1
985,986,1583938186551,0.4712,-0.4976,-1.0548999,8.3615675,-6.1799425999999995,0.7081378,-1
986,987,1583938186561,0.93149996,-0.6813,-1.4776,8.845168,-6.348905599999999,0.42103472,-1
987,988,1583938186572,1.383,-0.6787,-1.0314,9.229714,-6.333315,1.0736653999999999,-1
988,989,1583938186581,1.383,-0.6787,-1.0314,9.24633,-6.2305746,1.8624015999999999,-1
989,990,1583938186591,1.4593999,-0.55289996,-0.0387,8.80436,-6.1742919999999994,2.3002245,-1
990,991,1583938186602,0.513,-0.4766,0.1213,8.210398,-6.1645330000000005,2.014309,-1
991,992,1583938186612,0.2839,-0.6652,-0.82049996,8.095036,-6.3784695,0.9602473,-1
992,993,1583938186622,1.0444,-0.8577,-2.0123,9.028908,-6.570494,-0.070561916,-1
993,994,1583938186633,2.4259999,-1.0239,-2.8613,10.6860695,-6.765842,-0.8402210999999999,-1
994,995,1583938186643,3.7317,-1.1308,-3.0734,11.772386000000001,-6.8895645000000005,-0.7032345,-1
995,996,1583938186653,4.3343997000000005,-1.3233,-2.4615,11.962772,-7.1761117,0.26616818,-1
996,997,1583938186663,3.9578998,-1.7922,-1.0525,11.321404,-7.722909,1.7442718000000001,-1
997,998,1583938186673,3.1998,-2.379,0.32369998,10.793042,-8.278307,2.9008529999999997,-1
998,999,1583938186683,3.0442998,-2.8523998,0.9285,10.817155999999999,-8.543287,3.0639174,-1
999,1000,1583938186694,3.4485,-2.8369,0.2377,11.323808,-8.411453,2.2029433,-1
1000,1001,1583938186704,4.3426,-2.596,-1.1715,12.549408999999999,-8.091567999999999,0.6131838000000001,-1
1001,1002,1583938186714,5.4946,-2.4146,-2.1777,13.600129,-7.970670699999999,0.07249643,-1
1002,1003,1583938186724,5.4946,-2.4146,-2.1777,14.231748000000001,-8.093618,0.3906954,-1
1003,1004,1583938186734,6.5761,-2.701,-1.6465,14.310354,-8.306453,1.1486901000000003,-1
1004,1005,1583938186744,6.3504,-3.0312997999999998,-0.7026,13.92937,-8.675427,2.2850068,-1
1005,1006,1583938186755,5.9716997,-3.3334,0.2697,13.620508,-8.778724,3.0625,-1
1006,1007,1583938186765,5.593899700000001,-3.4015,0.93719995,13.367594,-8.72607,3.4344822999999995,-1
1007,1008,1583938186775,5.3016,-3.4312,1.2317,13.18935,-8.630312,3.5807297,-1
1008,1009,1583938186786,5.0882,-3.4017,1.4104999,13.067886999999999,-8.478767999999999,3.5648897000000006,-1
1009,1010,1583938186796,4.8634,-3.2349,1.1077,12.854852000000001,-8.117416,3.0250642000000005,-1
1010,1011,1583938186806,4.575599700000001,-2.9989998,0.67829996,12.572087,-7.694380000000001,2.8041656,-1
1011,1012,1583938186816,4.1428,-2.6244,0.74829996,12.095919,-7.269141,3.2591214,-1
1012,1013,1583938186826,3.5152997999999998,-2.4138,1.4930999,11.401073,-6.9163795,4.1605287,-1
1013,1014,1583938186836,2.8634999,-2.2575998,2.2791,10.923344,-6.5945125,4.4466934,-1
1014,1015,1583938186846,2.2905,-2.0267,2.5421999,10.600595,-6.2263417,4.278064700000001,-1
1015,1016,1583938186856,1.8784,-1.778,2.3602998,10.324927,-6.068842,3.9204576,-1
1016,1017,1583938186867,1.5302,-1.8623999,2.1539,10.188314,-5.982028,4.1367016,-1
1017,1018,1583938186877,1.3915,-1.7989998999999999,2.8911998,9.988006,-5.7556605,5.0892777,-1
1018,1019,1583938186887,1.0397,-1.8147999,3.5835,9.59619,-5.761819,4.866272400000001,-1
1019,1020,1583938186897,0.46539998,-1.9126999,3.0446,9.034894,-5.447029,3.4682887000000004,-1
1020,1021,1583938186907,-0.0359,-1.6687,1.8787999,8.837956,-4.8883852999999995,2.461153,-1
1021,1022,1583938186917,-0.2377,-1.2365999,0.9975,8.85621,-4.408185,1.8653896,-1
1022,1023,1583938186927,-0.2193,-0.7334,0.5442,9.135871,-3.5129452000000003,2.1186004,-1
1023,1024,1583938186938,-0.0131,-0.1214,1.1539,9.232827,-3.1186202,3.2501671,-1
1024,1025,1583938186948,-0.0336,0.057,2.4712,8.938388,-3.0494661,4.3812169999999995,-1
1025,1026,1583938186958,-0.47759998,-0.0736,3.6523,8.436735,-3.1838477000000003,4.709461699999999,-1
1026,1027,1583938186968,-1.1366999,-0.46519998,3.9048,8.035639999999999,-3.577828,3.9654875,-1
1027,1028,1583938186978,-1.3880999,-0.9349,3.2805,8.212332,-3.611385,2.9783487,-1
1028,1029,1583938186989,-1.2003,-1.0486,2.5053,8.435251,-3.4595256,1.8710973999999998,-1
1029,1030,1583938186999,-1.0839,-1.0529,1.7394999,8.328000999999999,-3.1536329,1.1836358,-1
1030,1031,1583938187009,-1.2767,-0.82379997,1.0079,7.963842999999999,-2.5702043,0.34215057,-1
1031,1032,1583938187019,-1.6417999,-0.53639996,0.4481,7.7533064,-1.8014261999999999,0.09881349,-1
1032,1033,1583938187029,-1.8596,0.1704,0.21599999,7.4440136,-1.3454743999999998,0.29360574,-1
1033,1034,1583938187040,-2.201,0.4901,0.4287,6.897657000000001,-1.3137081,0.8970690999999998,-1
1034,1035,1583938187050,-2.7647998,0.38329998,1.0467,6.526919400000001,-1.5240147,1.1179006,-1
1035,1036,1583938187060,-3.1581,0.0411,1.3046,6.729736999999999,-1.8402792000000001,0.6348465,-1
1036,1037,1583938187070,-2.9786,-0.3858,0.8681,7.640271,-1.9343522000000002,-0.26116910000000004,-1
1037,1038,1583938187081,-2.0799,-0.57589996,0.033099998,8.707768,-1.4898733999999998,-0.8835754000000001,-1
1038,1039,1583938187091,-1.0228,-0.2333,-0.54249996,9.193083,-0.76160514,-0.71107787,-1
1039,1040,1583938187101,-1.0179,0.81729996,-0.2747,8.538671,-0.1558338,-0.71547365,-1
1040,1041,1583938187111,-2.0986,0.76559997,-0.35200000000000004,7.4713554,-0.14882357,-0.7707510000000001,-1
1041,1042,1583938187121,-3.138,0.3351,-0.0583,6.465389,-0.48767972,-0.50459236,-1
1042,1043,1583938187131,-3.138,0.3351,-0.0583,6.0860324,-0.7532925,-0.2492364,-1
1043,1044,1583938187142,-3.3730998,-0.3213,0.773,6.538105000000001,-0.747872,0.18503347,-1
1044,1045,1583938187152,-2.698,-0.047799997000000004,0.62439996,7.2211422999999995,-0.29215005,-0.15717456,-1
1045,1046,1583938187162,-2.199,0.5083,0.0942,7.640185000000001,0.40943724,-0.63997006,-1
1046,1047,1583938187172,-2.2393,0.9748,0.069,7.461846,0.9067225,-0.61361474,-1
1047,1048,1583938187182,-2.8574,1.037,0.2272,6.7765007,0.97463167,-0.43692267,-1
1048,1049,1583938187192,-3.5525,0.5938,0.49749997,6.1419992,0.5306029999999999,-0.18595286,-1
1049,1050,1583938187202,-3.7268,-0.1391,0.7423,6.1329107,-0.13131717,-0.0135799125,-1
1050,1051,1583938187213,-3.1165,-0.6361,0.5997,6.8555474,-0.48953763,-0.24109611,-1
1051,1052,1583938187223,-2.0753999,-0.7352,0.0234,8.030928999999999,-0.371446,-1.0386716999999999,-1
1052,1053,1583938187233,-1.5359,-0.4592,-0.6466,8.312438,-0.0056503164,-1.540573,-1
1053,1054,1583938187243,-1.5464,0.0718,-0.71029997,7.9823356,0.72679347,-1.0911525,-1
1054,1055,1583938187253,-2.4289,0.6081,0.27899998,7.0910606,1.1085058,-0.18792568,-1
1055,1056,1583938187263,-3.7809,0.63729995,0.9583,5.639724299999999,1.110584,0.35913026,-1
1056,1057,1583938187274,-4.73,0.4281,0.7808,4.9754,1.0106308000000002,0.01550485,-1
1057,1058,1583938187284,-4.5417,0.3463,0.3286,5.572514,0.9855013000000001,-0.45228383,-1
1058,1059,1583938187294,-3.6085,0.2943,-0.1906,6.513368,0.94650453,-1.02106,-1
1059,1060,1583938187305,-2.734,0.2225,-0.8071,7.4272732999999995,0.92382663,-1.5317624,-1
1060,1061,1583938187315,-1.8391998999999999,0.1977,-0.914,8.128765,0.9963040000000001,-1.3034608,-1
1061,1062,1583938187325,-1.5900999,0.4073,-0.099,7.8411255,1.2926870000000001,0.06643431,-1
1062,1063,1583938187335,-2.2807,0.53319997,1.2119,6.821089999999999,1.3395176000000002,1.2545998999999999,-1
1063,1064,1583938187345,-3.3825,0.4646,2.2416,5.9568505,1.4243777,1.817496,-1
1064,1065,1583938187355,-4.2994,0.58,2.4719,5.169196,1.5534251000000001,1.4711603000000002,-1
1065,1066,1583938187365,-4.5913997,0.64779997,1.7156999,5.2614207,1.6248488,0.63879216,-1
1066,1067,1583938187375,-4.0825,0.7028,0.6253,6.0580680000000005,1.6240636,-0.4092361,-1
1067,1068,1583938187385,-3.017,0.5252,-0.33269998,7.226678,1.3339916,-1.272748,-1
1068,1069,1583938187395,-1.8052,0.3098,-1.0727,8.629287,1.0972817,-1.9130725,-1
1069,1070,1583938187405,-0.7202,0.1417,-1.4131,9.53712,0.94465625,-1.8824363000000002,-1
1070,1071,1583938187416,-0.0257,0.0385,-1.1373,9.787736,0.82290626,-1.4512118,-1
1071,1072,1583938187426,-0.1723,-0.1639,-0.3929,9.159995,0.6163058000000001,-0.46678314,-1
1072,1073,1583938187436,-0.8759,-0.2877,0.3644,8.500862,0.6315616999999999,0.06896259,-1
1073,1074,1583938187446,-1.4318999,-0.2147,0.6938,8.091626,0.9068374,0.14360422,-1
1074,1075,1583938187457,-1.7234,0.054899998,0.6536,7.953825,1.1704965,0.24277204,-1
1075,1076,1583938187466,-1.8291998999999999,0.1937,0.8082,7.786786599999999,1.1116853,0.39708313,-1
1076,1077,1583938187476,-2.0241,-0.00029999999,0.91539997,7.7519464000000005,0.77649707,0.35467702,-1
1077,1078,1583938187486,-1.8378999,-0.3663,0.7305,8.414517,0.5169176999999999,-0.044407655,-1
1078,1079,1583938187496,-0.8883,-0.5506,0.25059998,9.551266,0.45274353,-0.53952855,-1
1079,1080,1583938187507,0.22659999,-0.49049997,-0.1876,10.460861,0.6130976,-0.76261073,-1
1080,1081,1583938187517,0.8709,-0.2963,-0.3403,10.669473,0.7060022,-0.8553908000000001,-1
1081,1082,1583938187527,0.82989997,-0.25259998,-0.41079998,10.27012,0.6498917,-0.7495288,-1
1082,1083,1583938187537,0.2706,-0.39029998,-0.26569998,9.632458,0.51909167,-0.5371823,d
1083,1084,1583938187547,-0.1893,-0.47919998,-0.116299994,9.445097,0.6137104999999999,-0.36658102,-1
1084,1085,1583938187557,-0.3446,-0.35549998,0.019299998999999998,9.329025999999999,0.7479774,-0.19323123,-1
1085,1086,1583938187568,-0.4996,-0.2217,0.2697,9.171152000000001,0.8617976999999999,0.07956411,-1
1086,1087,1583938187578,-0.5956,-0.1735,0.42229998,9.196081,0.9718544,0.16986382,-1
1087,1088,1583938187588,-0.50549996,-0.0711,0.47689998,9.507375,1.0999728000000002,0.09162131,-1
1088,1089,1583938187598,-0.1708,0.0286,0.3913,9.860165,1.0937767,0.058255713,-1
1089,1090,1583938187608,0.1437,-0.003,0.436,9.95059,1.0089357,0.21825543,-1
1090,1091,1583938187619,0.1933,-0.1116,0.703,9.883992,0.89544106,0.65176874,-1
1091,1092,1583938187629,0.09559999400000001,-0.1918,1.0914999,9.717174,0.86767787,0.67723346,-1
1092,1093,1583938187639,-0.0316,-0.2233,0.94229996,9.768123,0.91538954,0.06302497,-1
1093,1094,1583938187649,0.0661,-0.16499999,0.3062,10.101559,0.9268625,-0.7694101999999999,-1
1094,1095,1583938187659,0.3502,-0.1651,-0.40899998,10.282924000000001,0.98555875,-1.1368148,-1
1095,1096,1583938187670,0.556,-0.078,-0.8373,10.307756,1.0304834999999999,-1.1548193000000002,-1
1096,1097,1583938187680,0.55649996,-0.0634,-0.79929996,10.148571,0.9974915000000001,-0.9036386999999999,-1
1097,1098,1583938187690,0.35200000000000004,-0.1033,-0.43969998,9.78041,1.0407307,-0.01361822,-1
1098,1099,1583938187700,0.0404,-0.0792,0.3678,9.403065,1.0436804,0.7508024999999999,-1
1099,1100,1583938187711,-0.33929998,-0.0964,1.1321,9.071582000000001,0.94874555,1.2458467,-1
1100,1101,1583938187721,-0.66999996,-0.2007,1.6434,8.874310000000001,0.88610363,1.2127781000000002,-1
1101,1102,1583938187731,-0.83339995,-0.22919999,1.2472,8.90915,0.9754265,0.7217848000000001,-1
1102,1103,1583938187742,-0.7157,-0.0143,0.71599996,9.052152,1.1962007,0.1829266,-1
1103,1104,1583938187752,-0.6278,0.23089999,0.3354,9.092699,1.4598308999999998,-0.14778927,-1
1104,1105,1583938187762,-0.8143,0.51309997,0.2945,8.839949,1.7411208999999999,-0.089140914,-1
1105,1106,1583938187772,-1.2748,0.7129,0.4348,8.388009,1.8910936999999999,0.0989763,-1
1106,1107,1583938187782,-1.5286,0.6841,0.78029996,8.227903999999999,1.8782226000000002,0.48961425,-1
1107,1108,1583938187793,-1.3892,0.72209996,1.4635999,8.386122,1.9282517,1.3311666000000002,-1
1108,1109,1583938187803,-1.3662,0.67759997,2.0365999,8.273375,1.8521831000000002,1.6075915,-1
1109,1110,1583938187813,-1.7047,0.5588,1.9233999,7.803268400000001,1.7999129,1.2701719,-1
1110,1111,1583938187823,-2.2677,0.5712,1.6624999,7.236254,1.8749856,1.0258006,-1
1111,1112,1583938187834,-2.7421,0.69699997,1.5223999,6.798824300000001,2.1544939999999997,1.0616752,-1
1112,1113,1583938187844,-3.2066,1.1816,2.1948,6.1811967,2.7329621,2.123791,-1
1113,1114,1583938187854,-4.1314,1.5741,3.6285,5.1025324,3.0291247,3.5986290000000003,-1
1114,1115,1583938187864,-5.2137,1.7626,5.1054997,4.1097145,3.2798936000000003,4.9551739999999995,-1
1115,1116,1583938187874,-6.0923,1.9066999,5.9884996,3.3575807,3.3086624,5.3253846,-1
1116,1117,1583938187885,-6.553,1.7423999,5.7226996,3.0930212000000004,3.0776220000000003,4.803142,-1
1117,1118,1583938187895,-6.4487,1.5098,4.9136,3.6761339,2.7573254,3.6564248,-1
1118,1119,1583938187905,-5.6120996,1.3343999,4.0151997,4.709098,2.5353353,2.9818632999999997,-1
1119,1120,1583938187915,-4.6296,1.2063999,3.5956,5.371544999999999,2.409017,2.901102,-1
1120,1121,1583938187925,-4.029,1.1136,3.987,5.754971,2.1516309,3.5787761,-1
1121,1122,1583938187935,-4.0056,0.7937,4.9712996,5.482032299999999,1.5498816999999998,4.518261,-1
1122,1123,1583938187946,-4.4419,0.2972,5.3996,4.988960700000001,0.92144203,4.294910400000001,-1
1123,1124,1583938187957,-4.8389,-0.26899999999999996,4.896,5.0520625,0.14124832,3.21231,-1
1124,1125,1583938187967,-4.5503,-0.7603,3.9157,6.036836,-0.16570748,2.050806,-1
1125,1126,1583938187977,-3.4585,-0.8595,2.77,7.3685384,-0.36063382,1.0473483000000001,-1
1126,1127,1583938187987,-2.1118999,-0.91499996,1.9063,8.509376,-0.44555137,0.5496896,-1
1127,1128,1583938187998,-1.0291,-0.82199997,1.4555,9.328164,-0.48979620000000007,0.26075729999999997,-1
1128,1129,1583938188008,-0.3459,-0.7664,1.2609,9.615267999999999,-0.63022095,0.33129045,-1
1129,1130,1583938188018,-0.1299,-0.81219995,1.3942,9.426298,-1.1647695,0.67595977,-1
1130,1131,1583938188028,-0.39749998,-1.2670000000000001,1.8964,9.007524,-2.1237621,1.0263845999999999,-1
1131,1132,1583938188038,-0.7966,-2.2759,2.1364,9.008002000000001,-3.1811852000000003,0.43016145,-1
1132,1133,1583938188048,-0.63769996,-3.0609999,1.3912,9.773859,-3.5381991999999998,-0.82121116,-1
1133,1134,1583938188059,0.2487,-3.2569999999999997,0.18239999,10.849401,-3.4771376000000003,-1.8129566000000004,-1
1134,1135,1583938188069,1.3205999,-2.9801,-0.6821,11.59985,-2.9692217999999997,-1.9140302,-1
1135,1136,1583938188079,1.9387,-2.3128,-0.6087,11.718803,-2.469102,-1.179786,-1
1136,1137,1583938188089,1.9670999,-1.7494999,0.0901,11.348957,-2.2639859,-0.47319004,-1
1137,1138,1583938188099,1.6230999,-1.5051,0.5722,10.80666,-2.6238534,-0.44990882,-1
1138,1139,1583938188110,1.0753,-1.7518,0.5298,10.860913,-3.3930434999999997,-1.1467843,-1
1139,1140,1583938188120,1.2771,-2.6578,-0.523,12.328483,-4.5977006,-3.2109597,-1
1140,1141,1583938188130,2.6111999,-3.4935,-2.3322,13.914152,-4.845491,-4.887715,-1
1141,1142,1583938188140,4.2029,-3.6123998,-4.034,14.726897,-4.4793887,-5.869462,-1
1142,1143,1583938188150,5.0292997,-3.1394,-5.0299997,14.318006,-4.0341535,-5.457343,-1
1143,1144,1583938188161,4.6366997,-2.6152,-4.6452,13.064853,-3.5958803,-3.6472692,-1
1144,1145,1583938188171,3.3973,-2.1178,-2.8692,11.906806,-3.489894,-2.8317468,-1
1145,1146,1583938188181,2.2342,-1.9661,-2.0932999,11.666925,-3.7610322999999997,-3.8626614000000004,-1
1146,1147,1583938188191,2.0033998,-2.1804,-3.1706,12.373254,-4.157780000000001,-5.5478635,-1
1147,1148,1583938188201,3.8091998,-2.7744,-6.6921,13.651623,-4.579093,-7.5896196,-1
1148,1149,1583938188211,4.5782,-3.0218,-7.7518997,14.255335999999998,-4.852214,-8.402288,-1
1149,1150,1583938188222,4.5782,-3.0218,-7.7518997,14.037473,-4.896564,-8.122684,-1
1150,1151,1583938188232,3.9348,-3.2057998,-7.1499996,13.430169,-5.2045345,-7.5810575,-1
1151,1152,1583938188242,3.4419999999999997,-3.1618998,-6.8185,12.968472,-5.100464,-7.309086,-1
1152,1153,1583938188252,3.2119,-2.9541,-6.883599799999999,12.773247999999999,-4.954868,-7.3575163,-1
1153,1154,1583938188262,2.951,-2.8542,-6.8873997000000005,12.460824,-4.8907413,-7.356644599999999,-1
1154,1155,1583938188272,2.6304998,-2.8685,-7.1545997,12.171949,-4.919491000000001,-7.6952133,-1
1155,1156,1583938188282,2.4859,-2.6984,-7.4954996,12.077503,-4.725072,-7.9508185,-1
1156,1157,1583938188292,2.4095,-2.4494998,-7.27,11.946042,-4.4967127,-7.5762978,-1
1157,1158,1583938188302,2.0972,-2.2309,-6.624399700000001,11.59962,-4.307503700000001,-6.875859700000001,-1
1158,1159,1583938188313,1.696,-2.1606998,-6.0283,11.204184,-4.2732095999999995,-6.279205999999999,-1
1159,1160,1583938188323,1.4025999,-2.1308,-5.660599700000001,10.935725999999999,-4.280832299999999,-5.942973599999999,-1
1160,1161,1583938188333,1.1682,-2.3377,-5.7535996,10.686049,-4.6037436,-6.083158999999999,-1
1161,1162,1583938188343,1.0708,-2.5974998,-5.8581,10.675295,-4.782561299999999,-6.0928984,-1
1162,1163,1583938188353,1.0903,-2.7056,-5.6823997,10.613649,-4.869854,-5.8080172999999995,-1
1163,1164,1583938188363,0.8339,-2.7619,-5.3441,10.25451,-4.8678527,-5.5329809999999995,-1
1164,1165,1583938188373,0.2228,-2.7272,-5.075599700000001,9.520543,-4.835416,-5.2221465,-1
1165,1166,1583938188384,-0.76199996,-2.6777,-4.5263,8.430050999999999,-4.7491864999999995,-4.408519999999999,-1
1166,1167,1583938188394,-1.6583999,-2.6174998,-3.4606,7.6975117,-4.698219,-3.3536922999999996,-1
1167,1168,1583938188404,-2.1907,-2.5602,-2.7340999,7.328699,-4.601675,-2.916607,-1
1168,1169,1583938188415,-2.2991,-2.4926999,-2.748,7.3415704,-4.513827,-3.1405317999999998,-1
1169,1170,1583938188425,-2.0131,-2.3655,-3.2143998,7.751601700000001,-4.420472,-3.5487718999999998,-1
1170,1171,1583938188435,-0.94049996,-2.2293,-3.7791,9.342031500000001,-4.1620035,-4.1943445,-1
1171,1172,1583938188445,0.093499996,-1.9722998999999999,-3.9731998,9.845369,-4.0390760000000006,-3.8016953,-1
1172,1173,1583938188455,0.14549999,-1.9868,-3.2187,9.431852000000001,-4.2596583,-2.9270074,-1
1173,1174,1583938188465,-0.6975,-2.3662,-1.9383999,8.310111000000001,-4.679716,-1.1125184,-1
1174,1175,1583938188476,-1.6206,-2.5469999999999997,-0.39499998,7.529994,-4.560389,0.020733787,-1
1175,1176,1583938188487,-2.2788,-2.3743,0.1774,7.0833892999999994,-4.4203,-0.047778692000000005,-1
1176,1177,1583938188497,-2.5527,-2.2133,-0.1231,7.2375565,-4.222414,-0.46947423,-1
1177,1178,1583938188507,-2.2349,-2.0772,-0.48,7.5427217,-4.235907599999999,-0.5705286999999999,-1
1178,1179,1583938188518,-1.6394999,-2.0456998,-0.47779998,8.557155,-4.04871,-0.21394587,-1
1179,1180,1583938188528,-0.87509996,-1.7602999,-0.1326,9.100744,-3.7117883999999997,0.32036334,-1
1180,1181,1583938188538,-0.37469998,-1.3946999,0.3707,9.252191999999999,-3.4637108,1.0577775,-1
1181,1182,1583938188548,-0.3356,-1.1501,1.1058999,8.833235,-3.52777,2.2790022,-1
1182,1183,1583938188559,-0.6994,-1.1951,2.0980000000000003,8.570859,-3.753888,3.2948809999999997,-1
1183,1184,1583938188569,-0.9557,-1.3794,3.0783,8.61905,-3.7266037000000005,3.9566865,-1
1184,1185,1583938188579,-0.90779996,-1.3277,3.7147,8.890637,-3.5059730000000005,4.0627017,-1
1185,1186,1583938188589,-0.6139,-1.0774,3.7963998,9.197795,-3.3362913,3.9567633,-1
1186,1187,1583938188599,-0.2307,-0.80429995,3.6697,9.572421,-3.086193,4.4720817,-1
1187,1188,1583938188609,0.0848,-0.57699996,4.1412,9.796536999999999,-3.1865294,5.178744999999999,-1
1188,1189,1583938188621,0.32299998,-0.6317,4.8174,10.015875,-3.4457445,5.713858,-1
1189,1190,1583938188631,0.5525,-0.84099996,5.3220997,10.342941,-3.6751285000000005,6.284253,-1
1190,1191,1583938188641,1.3357999,-1.0347998999999999,6.4814997000000005,10.832852,-3.7098348,7.0394034,-1
1191,1192,1583938188651,1.6028,-0.8397,6.8827996,11.033267,-3.5206928,7.4553145999999995,-1
1192,1193,1583938188661,1.6317999,-0.54499996,7.2518997,11.025117,-3.2469206,7.799524000000001,-1
1193,1194,1583938188671,1.6317999,-0.54499996,7.2518997,10.965003,-3.1269712000000003,8.034836,-1
1194,1195,1583938188682,1.4778999,-0.2312,7.6590996,10.858682,-3.045214,8.163241000000001,-1
1195,1196,1583938188692,1.3948,-0.37469998,7.422999999999999,10.807742,-3.2126547999999997,7.9154990000000005,-1
1196,1197,1583938188703,1.5762,-0.44169998,7.1327,11.096847,-3.2282743,7.564222,-1
1197,1198,1583938188713,1.8941,-0.35349998,6.790199799999999,11.369087,-3.1115909,7.347479300000001,-1
1198,1199,1583938188724,1.8941,-0.35349998,6.790199799999999,11.347002999999999,-2.9141743,7.563963,-1
1199,1200,1583938188734,1.8584,0.087699994,7.0657997,11.12732,-2.6598816000000003,7.6484976,-1
1200,1201,1583938188744,1.6122999,0.2521,6.9126997,10.869925,-2.5737574,7.2912729999999994,-1
1201,1202,1583938188754,1.4049,0.21779999,6.2743998,10.799294999999999,-2.6668724999999998,6.6261735,-1
1202,1203,1583938188764,1.6976999,0.054899998,5.5422997,11.302481,-2.8467439999999997,5.9332438,-1
1203,1204,1583938188774,2.2935,-0.1013,5.1435,11.875182,-2.9397159,5.708112,-1
1204,1205,1583938188785,2.6021,-0.1779,5.0538,11.94244,-3.0032674999999998,5.6161075,-1
1205,1206,1583938188795,2.2984,-0.1889,5.052,11.479269,-2.8846203999999998,5.737655999999999,-1
1206,1207,1583938188805,1.7651999,-0.015199998999999999,5.2661,11.0366955,-2.592451,5.9477910000000005,-1
1207,1208,1583938188815,1.6037999,0.20359999,5.4632998,11.10471,-2.3184013,6.0122137,-1
1208,1209,1583938188825,1.6982,0.38509998,5.3448997,11.22804,-2.2436062999999997,5.594809,-1
1209,1210,1583938188835,1.8629999,0.2662,4.844599700000001,11.443968,-2.516124,4.961849,-1
1210,1211,1583938188846,2.0981,-0.104899995,4.0761,11.8074465,-2.9216347000000003,4.1214747,-1
1211,1212,1583938188856,2.5003,-0.5247,3.2851998999999994,12.227753,-3.2467866,3.44359,-1
1212,1213,1583938188866,2.9013,-0.8698,2.7073998,12.637746,-3.4855843,3.0529422999999998,-1
1213,1214,1583938188876,3.2408,-1.1348,2.4668999,12.817435000000001,-3.6209620000000005,2.9404626,-1
1214,1215,1583938188886,3.322,-1.2249,2.4773998,12.755962,-3.5140274,3.0655932,-1
1215,1216,1583938188897,3.1355999,-1.1694,2.6462998,12.521463,-3.4298663,3.1320853,-1
1216,1217,1583938188907,2.9285997999999998,-1.1808,2.7861,12.351907,-3.4414830000000003,3.2802095000000002,-1
1217,1218,1583938188917,2.7317998,-1.3320999,2.8622,12.165638000000001,-3.6741996,2.8373779999999997,-1
1218,1219,1583938188927,2.5558999,-1.6794,2.34,12.217783,-3.8441398,1.950087,-1
1219,1220,1583938188937,2.6559,-1.8780999,1.4207,12.544372000000001,-3.8678327000000006,0.9563111999999999,-1
1220,1221,1583938188948,2.9821,-1.9883,0.4951,12.815108,-3.8997330000000003,0.18355866,-1
1221,1222,1583938188958,3.2001998,-2.0929,-0.2051,12.809878999999999,-3.9100568,-0.18290745,-1
1222,1223,1583938188968,3.1136,-2.1952999,-0.39229998,12.597648,-3.9603639999999998,-0.26891676,-1
1223,1224,1583938188978,2.8987,-2.347,-0.43629998,12.62226,-3.8774002,-0.39852923,-1
1224,1225,1583938188988,2.9585,-2.3406,-0.46989998,12.708642999999999,-3.7672190000000003,-0.50059885,-1
1225,1226,1583938188999,2.9896998,-2.3813,-0.4811,12.561332,-3.6270239999999996,-0.48141649999999997,-1
1226,1227,1583938189009,2.7472,-2.3428,-0.4278,11.92324,-3.3364446000000005,-1.0859812,-1
1227,1228,1583938189019,2.1724,-2.215,-0.9368,11.291725,-2.8884606,-1.6407943,-1
1228,1229,1583938189029,1.5302999,-1.9081999,-1.4340000000000002,10.630016,-2.4826052000000005,-1.9551626,-1
1229,1230,1583938189039,0.8512,-1.6531,-1.7034999,10.16353,-2.3306402999999998,-2.1656609,-1
1230,1231,1583938189050,0.38099998,-1.6529,-1.8439,10.463169,-2.0879736,-2.0849187,-1
1231,1232,1583938189060,0.6694,-1.5504,-1.6746,10.806975999999999,-2.044763,-2.0276878000000003,-1
1232,1233,1583938189070,1.01,-1.6491,-1.5394,10.84287,-2.014443,-2.138472,-1
1233,1234,1583938189080,1.0491999,-1.7595999,-1.5622,10.546737,-1.5885528,-2.0902913,-1
1234,1235,1583938189090,0.7571,-1.4745,-1.4358,9.890303999999999,-0.99167836,-1.4917697,-1
1235,1236,1583938189100,0.0945,-1.0295,-0.7708,8.884863000000001,-0.4579629,-1.3809756000000002,-1
1236,1237,1583938189110,-1.9108,-0.4331,-0.741,7.720132400000001,-0.033605012999999996,-1.5564992,-1
1237,1238,1583938189121,-1.9108,-0.4331,-0.741,7.3310075,0.07784028,-1.6299341999999999,-1
1238,1239,1583938189131,-2.4304,-0.424,-0.7635,7.2767644,-0.032858025,-2.1960669999999998,-1
1239,1240,1583938189141,-2.202,-0.86759996,-1.4884,7.6324086,-0.1811836,-2.4772232000000005,-1
1240,1241,1583938189151,-2.202,-0.86759996,-1.4884,8.0113535,-0.18840453,-2.6019992999999997,-1
1241,1242,1583938189161,-1.5662,-0.93399996,-1.4548999,8.152792999999999,0.025531767,-2.4328537,-1
1242,1243,1583938189171,-1.6568999,-0.71209997,-0.7644,7.9649534,0.44411483,-1.6734416,-1
1243,1244,1583938189182,-2.2161999,-0.2042,0.38259998,7.2750497,1.0545405,-0.56492627,-1
1244,1245,1583938189192,-3.3523,-0.1291,0.8813,6.0590353,1.1296322,-0.40518513,-1
1245,1246,1583938189202,-3.3523,-0.1291,0.8813,5.2865887,0.9727833,-0.786208,-1
1246,1247,1583938189212,-4.5243,-0.6744,0.0638,5.157015,0.7988398,-1.3524463,-1
1247,1248,1583938189222,-4.5243,-0.6744,0.0638,5.748076,0.58868635,-2.0077776999999997,-1
1248,1249,1583938189233,-3.4001,-1.2429999,-0.84739995,6.2422104,0.36638945,-2.3307362,-1
1249,1250,1583938189243,-3.2184,-1.5323,-1.0166,6.3054557,0.2046468,-2.6332482999999995,-1
1250,1251,1583938189253,-3.3393,-1.4356999,-1.2799,6.125546,0.42056546,-2.9330979999999998,-1
1251,1252,1583938189263,-3.7928998,-1.2487999,-1.1925,5.3488765,0.77152675,-2.6457078,-1
1252,1253,1583938189273,-4.6962,-1.0505999,-0.4669,4.550994,1.0069534,-2.0087066000000005,-1
1253,1254,1583938189283,-5.736000000000001,-0.8146,0.4016,3.4918091,1.3440282,-1.2422938000000001,-1
1254,1255,1583938189294,-6.7376,-0.6378,0.72029996,2.4008672000000004,1.61917,-1.1923125,-1
1255,1256,1583938189304,-7.0266,-0.4127,0.294,2.556002,2.0619438000000003,-1.8481609,-1
1256,1257,1583938189314,-6.3318996,0.1513,-0.384,3.3606453000000003,2.6530723999999997,-2.5628877,-1
1257,1258,1583938189324,-5.6632,0.5493,-1.0711,3.7623441,2.9126325,-3.2831303999999997,-1
1258,1259,1583938189335,-5.6261997,0.5349,-1.8851,3.6984382000000005,2.8324845,-4.014224,-1
1259,1260,1583938189345,-5.6509,0.4536,-2.6032,3.8187995000000003,2.9654965,-4.4779425,-1
1260,1261,1583938189355,-5.4214997,0.73179996,-2.3393,3.9499922,3.2027044,-4.0363464,-1
1261,1262,1583938189365,-5.475,1.0128,-1.5766,3.6518376000000004,3.5108669000000003,-3.0260699,-1
1262,1263,1583938189375,-6.1433,1.276,-0.2606,2.7795148,3.743775,-1.6221003999999999,-1
1263,1264,1583938189386,-7.0264997000000005,1.3728,1.0303,1.9712421000000002,3.9425225,-0.545696,-1
1264,1265,1583938189396,-7.4427,1.5636,1.3607,1.8299842,4.067414,-1.0515813,-1
1265,1266,1583938189406,-7.3671,1.6050999,0.3129,2.3860996,3.9376477999999997,-2.6511664,-1
1266,1267,1583938189416,-6.496,1.4291999,-1.2906,3.2534041,3.7398772000000005,-3.679821,-1
1267,1268,1583938189426,-5.4433,1.2214999,-2.0643,4.409736,3.2961644999999997,-3.8489187000000005,-1
1268,1269,1583938189437,-4.7342,0.76989996,-1.5647,4.6557746,2.6480827000000002,-2.7256262,-1
1269,1270,1583938189447,-4.8849,0.1514,-0.2886,4.0373135,1.9654863,-1.5594872,-1
1270,1271,1583938189457,-5.621299700000001,-0.5244,0.63699996,3.5471535000000003,1.2929742,-1.1600865,-1
1271,1272,1583938189467,-5.8082,-1.0606999,0.66319996,3.7459488,0.89605397,-1.4891456,-1
1272,1273,1583938189477,-5.5667995999999995,-1.2817999,0.23449999,3.9488239999999997,0.7371843000000001,-1.827906,-1
1273,1274,1583938189487,-5.4372997000000005,-1.3936,0.0898,3.9252553,0.40946594,-1.7115861,-1
1274,1275,1583938189498,-5.5176,-1.5939,0.1885,3.8765379999999996,0.3665427,-1.3404657,-1
1275,1276,1583938189508,-5.6022997000000005,-1.5007,0.5933,3.6305578,0.4369418,-0.755792,-1
1276,1277,1583938189518,-5.9746,-1.3888999,1.0329,3.1153831000000003,0.09389102,-0.7814196,-1
1277,1278,1583938189528,-6.4375,-1.6602,0.8427,3.5047379000000003,-0.014346056999999999,-1.2224315000000001,-1
1278,1279,1583938189538,-5.8525,-1.5661,0.2839,4.660102999999999,-0.058016295999999995,-1.4695035,-1
1279,1280,1583938189549,-4.6776,-1.5303999,0.1321,5.480643700000001,-0.28208485,-0.8298399,-1
1280,1281,1583938189559,-4.0861998,-1.6146,0.8005,5.444740299999999,-0.39400896,-0.17975667,-1
1281,1282,1583938189569,-4.2647,-1.6084,1.3248,5.0070896,-0.3870562,0.36263537,-1
1282,1283,1583938189579,-4.6566997,-1.4769999999999999,1.7247,4.632646,-0.28475678,0.64814866,-1
1283,1284,1583938189590,-5.1561,-1.2423999,1.9635999,4.0203624,-0.6358520999999999,0.21766166,-1
1284,1285,1583938189600,-5.6773,-1.4742,1.4676,4.45515,-1.1853215,0.060898915,-1
1285,1286,1583938189610,-5.2597,-1.8701999,1.2185,5.841928500000001,-1.1605366000000001,-0.3153738,-1
1286,1287,1583938189620,-3.9011,-1.6724,0.7514,7.192794999999999,-1.4251534,-0.66874844,-1
1287,1288,1583938189631,-2.5681998999999998,-1.7318,0.27989998,8.370599,-1.8550944,-0.09629479,-1
1288,1289,1583938189641,-1.4044,-1.9647,0.7561,8.823303999999998,-2.4076285,0.48076528,-1
1289,1290,1583938189651,-0.9587,-2.3316998,1.2556,8.374276,-2.769622,0.89529735,-1
1290,1291,1583938189661,-1.41,-2.5128,1.6265999,7.9454837,-2.9670098,0.9762693000000001,-1
1291,1292,1583938189672,-1.8034999,-2.5251,0.6981,8.006719,-3.2169642000000005,-0.17334022,-1
1292,1293,1583938189681,-1.8034999,-2.5251,0.6981,8.521424,-3.4718318,-0.70341647,-1
1293,1294,1583938189691,-1.2448,-2.6324,-0.16399999,9.568877,-3.7816322,-0.21533449999999998,-1
1294,1295,1583938189701,0.58889997,-2.8012,0.6896,10.424259,-4.150799,0.49116567,-1
1295,1296,1583938189711,0.9323,-2.9387999,0.98399997,10.637572,-4.4936004,0.7741699000000001,-1
1296,1297,1583938189721,0.9323,-2.9387999,0.98399997,10.61091,-4.534915,0.5135371,-1
1297,1298,1583938189731,0.983,-2.7201,0.6423,10.427217500000001,-4.4088364,0.60965955,-1
1298,1299,1583938189742,0.5919,-2.1735,1.1288999,10.12166,-4.356269,1.3127311000000002,-1
1299,1300,1583938189752,0.4371,-2.3716,1.6789,9.966296,-4.896679,1.8997895,-1
1300,1301,1583938189762,0.8692,-3.0426,2.1347,10.529546,-5.8107657,2.4263318,-1
1301,1302,1583938189772,2.0764,-3.4194,2.069,11.960972,-6.332884,2.1865861,-1
1302,1303,1583938189782,3.1938999,-3.3823,1.3323,12.744144,-6.511252,1.596559,-1
1303,1304,1583938189793,3.6090998999999995,-3.1689,0.7561,12.810310000000001,-6.329187,1.100739,-1
1304,1305,1583938189803,3.5038998,-2.5792,0.0223,12.584355,-5.965757,0.5437901999999999,-1
1305,1306,1583938189813,3.2414,-2.0005999,-0.0967,12.181726,-5.677562,0.8994824,-1
1306,1307,1583938189823,3.0497,-2.0237,0.8231,12.018309,-6.1469593,1.8715858,-1
1307,1308,1583938189833,3.1578999,-2.4666997999999998,1.3936,12.162486999999999,-6.870315,2.1903593999999997,-1
1308,1309,1583938189843,3.6869,-3.1392,1.2577,12.844279,-7.7760797,1.7907863000000002,-1
1309,1310,1583938189854,4.9027,-3.7965,0.5959,14.130359,-8.534064,1.2396314,-1
1310,1311,1583938189864,6.2528996,-3.9562998,0.0748,15.268560999999998,-8.6252365,0.7698795,-1
1311,1312,1583938189874,7.1514997000000005,-3.6504998,-0.6135,15.717379000000001,-8.364861999999999,0.062019399999999995,-1
1312,1313,1583938189884,7.2089,-2.9772,-1.2283,15.364828,-7.7481537,0.012497733,-1
1313,1314,1583938189895,6.6372,-2.2493,-0.5458,14.53834,-7.2908325,1.0703614,-1
1314,1315,1583938189905,5.8217998,-2.0170999,0.65489995,13.708251,-7.4126015,2.3925259999999997,-1
1315,1316,1583938189915,5.2874,-2.1643999,1.9173,13.330848000000001,-7.6235886,3.3646385999999997,-1
1316,1317,1583938189925,5.3022,-2.2949998,2.4106998,13.426558499999999,-7.841920399999999,3.4394910000000003,-1
1317,1318,1583938189936,5.5731997,-2.1736,1.8017,13.536710999999999,-7.798814999999999,2.3847973,-1
1318,1319,1583938189946,5.6960998,-2.0291,0.4908,13.541757999999998,-7.723924,1.3690236999999998,-1
1319,1320,1583938189956,5.7275996,-1.7363,-0.3924,13.487649,-7.519966999999999,1.1358285,-1
1320,1321,1583938189966,5.7448,-1.5597,-0.1945,13.234285,-7.468444,1.437565,-1
1321,1322,1583938189977,5.4309998,-1.4329,0.0285,12.764265,-7.439264,1.6497294999999998,-1
1322,1323,1583938189987,5.0301,-1.4437,0.2915,12.355086,-7.7852254,2.6182609,-1
1323,1324,1583938189997,4.7991,-1.7264999,1.2605,12.098647999999999,-8.004419,3.2100213,-1
1324,1325,1583938190007,4.5814,-1.8009,1.6164,11.799995,-7.881808,2.7349446,-1
