,Seq,Time,ACCx,ACCy,ACCz,ADGx,ADGy,ADGz,Keydown
0,1,1583938255342,0.5866,-0.2906,-0.32099998,7.160089999999999,-5.8122215,4.574189700000001,-1
1,2,1583938255352,1.2952,-1.0171,-1.6233,10.401829,-0.12736195,-0.008513781,-1
2,3,1583938255362,0.2996,-0.0087,-0.0049,10.055953,-0.35526124,-0.12553278,-1
3,4,1583938255373,0.1619,-0.2032,0.2911,9.983467,-0.5018630000000001,0.22755450000000002,-1
4,5,1583938255383,0.23009999,-0.1245,0.2765,10.081974,-0.32251814,0.15739483,-1
5,6,1583938255393,0.3965,0.14559999,0.1814,10.239397,-0.10980766,0.11682746599999999,-1
6,7,1583938255403,0.4256,0.1671,0.1848,10.205208,-0.1880406,0.22087947,-1
7,8,1583938255413,0.3076,-0.0863,0.43379998,10.0474205,-0.46635216,0.6509643,-1
8,9,1583938255423,0.1309,-0.2888,1.0655999,9.877279,-0.57746226,1.2906088,-1
9,10,1583938255433,0.0426,-0.2635,1.4674,9.909744,-0.46076888,1.5535879,-1
10,11,1583938255444,0.2879,-0.0231,1.2911999,10.15833,-0.20728041,1.2918823999999998,-1
11,12,1583938255454,0.57199997,0.3099,0.6928,10.410641,0.22693200000000002,0.55171025,-1
12,13,1583938255464,0.5225,0.5232,0.0433,10.191483999999999,0.36029859999999997,0.08205408,-1
13,14,1583938255474,0.12019999,0.48529997,-0.0981,9.763842,0.35545275,0.20407218,-1
14,15,1583938255484,-0.3012,0.37559998,0.1619,9.389666,0.32461545,0.5186224,-1
15,16,1583938255495,-0.53429997,0.2522,0.2843,9.25403,0.33670140000000004,0.6138637,-1
16,17,1583938255504,-0.4772,0.0651,0.2505,9.418511,0.32713416,0.75138664,-1
17,18,1583938255514,-0.17099999,0.0678,0.3075,9.789785,0.39684373,0.74814016,-1
18,19,1583938255524,0.2144,0.067099996,0.1769,10.119705999999999,0.38153997,0.67232054,-1
19,20,1583938255535,0.44039997,0.118999995,0.1148,10.255036,0.5396913000000001,0.55651784,-1
20,21,1583938255545,0.4015,0.2792,-0.0287,10.005973,0.66878676,0.44156742,-1
21,22,1583938255555,0.0198,0.28039998,-0.0796,9.592226,0.6200791,0.5124549,-1
22,23,1583938255565,-0.44869998,0.2641,0.1805,9.199786999999999,0.7034355999999999,0.8683578000000002,-1
23,24,1583938255575,-0.7683,0.3074,0.46589997,8.974637,0.774438,1.1091666,-1
24,25,1583938255586,-0.8147,0.281,0.67969996,9.145008,0.6213145,1.3091973999999997,-1
25,26,1583938255596,-0.4592,0.0481,0.62689996,9.601092999999999,0.36788344,1.1899565,-1
26,27,1583938255606,0.023599999,-0.2065,0.5604,10.0797615,0.10819876,1.3657868,-1
27,28,1583938255616,0.4288,-0.42639998,0.74799997,10.297414,0.0042329486,1.5419139,-1
28,29,1583938255627,0.5118,-0.4452,0.76019996,10.242280000000001,0.025378538,1.5535591999999998,-1
29,30,1583938255637,0.35979998,-0.35,0.7768,9.909487,0.2998594,1.6895403000000002,-1
30,31,1583938255647,0.069,-0.098799996,0.7935,9.527994,0.5917892,1.5573229,-1
31,32,1583938255657,-0.3277,0.1498,0.593,9.103867,0.77132565,1.5668708999999998,-1
32,33,1583938255667,-0.7272,0.3013,0.72099996,8.859734,0.9454894,2.0645487,-1
33,34,1583938255678,-0.91139996,0.3935,1.219,8.798088,0.96080273,2.4842236,-1
34,35,1583938255688,-0.9781,0.36089998,1.8075999,8.794334,1.0402615,3.2618987999999995,-1
35,36,1583938255698,-0.95659995,0.45819998,2.4345,8.74259,1.2319221000000002,3.8036682999999996,-1
36,37,1583938255709,-1.0618,0.6162,2.9064,8.345516,1.3481271000000001,3.8994172,-1
37,38,1583938255719,-1.5093,0.69839996,2.9057999,7.9662942999999995,1.4896913999999999,3.6471066,-1
38,39,1583938255730,-1.7994,0.84239995,2.5867,8.014466,1.6871556,3.1455789000000003,-1
39,40,1583938255740,-1.726,0.9772,2.1174998,8.213395,1.564946,2.792913,-1
40,41,1583938255750,-1.5261999,0.85529995,1.7330999,8.415302,1.2854469,2.6061556,-1
41,42,1583938255761,-1.318,0.5707,1.5261999,8.583414,0.8100638000000001,2.7965617000000003,-1
42,43,1583938255771,-1.1007999,-0.23969999,1.8406999,8.632236500000001,0.4827764,2.9347932,-1
43,44,1583938255781,-1.3745999,-0.1567,2.0397,8.354624000000001,0.57733774,3.1252855999999998,-1
44,45,1583938255791,-1.3745999,-0.1567,2.0397,7.522457000000001,0.7734708,3.4459746,-1
45,46,1583938255801,-3.4006,0.1336,2.8351,6.1077237,0.9420992,4.013304,-1
46,47,1583938255811,-4.3595,0.1865,3.1971998,5.2184405,1.0302248999999999,4.296175,-1
47,48,1583938255821,-4.9177,0.3374,2.7215,4.749052,1.2191563,3.5771672999999997,-1
48,49,1583938255831,-4.9177,0.3374,2.7215,4.80794,1.4494497,2.6811228,-1
49,50,1583938255841,-4.9091997,0.6192,1.6077,4.955959,1.5792825000000001,2.0108132,-1
50,51,1583938255851,-4.776,0.75689995,0.97139996,4.8857327,1.3509045,1.5107700000000002,-1
51,52,1583938255861,-5.0666,0.4849,0.1081,4.627073,1.2594362,0.9755988999999999,-1
52,53,1583938255872,-5.3891,0.47959998,0.1751,4.282853599999999,1.2597618,1.056657,-1
53,54,1583938255882,-5.9749,0.70739996,0.4486,3.6309697999999995,1.4965483999999998,1.2460767,-1
54,55,1583938255892,-5.9749,0.70739996,0.4486,2.9239047,1.579656,1.4118031999999998,-1
55,56,1583938255902,-7.7611,0.55579996,0.74579996,1.8846101999999998,1.1183412,1.4170035,-1
56,57,1583938255913,-8.1396,0.0262,0.76669997,1.6763241999999998,0.56031024,1.3824408000000001,-1
57,58,1583938255923,-7.7244997,-0.4006,0.6261,2.3333411,-0.052203175,1.0504608,-1
58,59,1583938255933,-7.0548,-0.77599996,0.113699995,2.863331,-0.42160934,0.49877927,-1
59,60,1583938255943,-6.4632998,-0.9909,-0.8831,3.5780292,-0.69598484,-0.93635315,-1
60,61,1583938255953,-5.870899700000001,-0.91419995,-2.0997999,4.080064299999999,-0.691388,-1.9578441000000002,-1
61,62,1583938255963,-5.5316,-0.8253,-2.7424,4.325728400000001,-0.82521427,-2.391338,-1
62,63,1583938255974,-5.5239,-1.1568999,-2.4290000000000003,4.2207193,-1.4557034,-1.7150528000000003,-1
63,64,1583938255984,-5.7893,-2.0346,-0.99439996,3.88352,-2.5950463,-0.24409366,-1
64,65,1583938255994,-6.1215997,-2.8867998,-0.2816,3.5772245000000003,-3.4835825,-0.021356279,-1
65,66,1583938256004,-6.3436,-3.5519998,-0.43289998,3.4647930000000002,-4.228208,-0.3889237,-1
66,67,1583938256014,-6.1115,-3.9294,-0.9273,3.9306373999999997,-4.595153,-1.0482198,-1
67,68,1583938256025,-5.3654,-4.0074997,-1.7974,4.835923,-4.794523000000001,-1.8918982,-1
68,69,1583938256035,-4.3006997,-3.9048,-2.4326,5.857548,-4.72896,-2.5408897,-1
69,70,1583938256045,-3.4566,-3.392,-3.3606,6.5161166,-4.288542,-3.5926432999999998,-1
70,71,1583938256055,-2.8723,-2.9338,-4.4378,7.124273,-4.361479,-4.1708336,-1
71,72,1583938256065,-2.1863,-3.3762999,-4.0228,7.7191076,-5.5848393,-2.7984004000000002,-1
72,73,1583938256075,-1.8909999,-4.4421,-2.447,7.7865663,-6.776184599999999,-1.0459023,-1
73,74,1583938256086,-1.9480000000000002,-5.3029,-0.7696,7.4310083,-7.729287599999999,-0.06146395,-1
74,75,1583938256096,-2.2770998,-6.0803,-0.2959,7.4446454,-8.651515,-0.38411614,-1
75,76,1583938256106,-1.8161,-6.6851997,-1.0820999,8.537369,-8.8442,-1.8112231,-1
76,77,1583938256116,-0.30699998,-6.159,-2.8097,10.195841999999999,-8.033916,-3.6261620000000003,-1
77,78,1583938256126,1.2014999,-5.0648,-4.723,10.787469,-6.761934299999999,-4.957482,-1
78,79,1583938256137,1.3845999,-4.099,-6.034,11.010905000000001,-7.3931704,-6.153778599999999,-1
79,80,1583938256147,1.7619,-4.3233,-6.8672,11.188449,-6.873811,-5.1185446,-1
80,81,1583938256157,2.0286,-3.6301,-5.124399700000001,11.210811999999999,-7.62898,-3.23064,-1
81,82,1583938256167,1.8858,-4.5045,-4.2211,10.930652,-8.671052,-2.8847642000000002,-1
82,83,1583938256177,1.9157,-5.249399700000001,-4.014199700000001,11.281881,-9.532753999999999,-2.7132244,-1
83,84,1583938256187,2.425,-5.9705,-4.0703998,11.927405,-10.016555,-2.9838936,-1
84,85,1583938256198,3.4312,-6.1369,-4.4233,12.807753,-9.398305,-2.9650752999999996,-1
85,86,1583938256208,4.0494,-5.2099,-4.374399700000001,12.947766,-9.742659,-3.4400082000000003,-1
86,87,1583938256218,4.331,-5.7304997,-5.2913,13.167679000000001,-9.758842,-4.127269,-1
87,88,1583938256228,4.6165,-5.1562,-5.8334,13.281001000000002,-9.360438,-3.4563080000000004,-1
88,89,1583938256238,4.7499,-4.9185,-5.4126997,12.942116,-9.632515,-3.5961773,-1
89,90,1583938256249,4.5203,-4.9577,-5.651,13.086094000000001,-9.956987,-2.725205,-1
90,91,1583938256259,4.8321,-5.1407,-4.9968,13.498269,-10.680036999999999,-2.1858487,-1
91,92,1583938256269,5.4902997000000004,-5.812599700000001,-4.4096,14.066557999999999,-11.047891,-1.655399,-1
92,93,1583938256279,6.1075,-5.9979,-4.0281,14.265813,-11.461533,-1.7616249,-1
93,94,1583938256289,6.3399997,-6.2042,-4.1959,14.442773,-11.436221000000002,-1.8820148999999997,-1
94,95,1583938256299,6.6029,-6.0715,-4.335,14.408085999999999,-11.260075,-1.8129278000000002,-1
95,96,1583938256310,6.6464996,-5.7738,-4.2834997,14.123835999999999,-10.960148,-1.5425075000000001,-1
96,97,1583938256320,6.4459995999999995,-5.3768,-4.0499997,13.915455,-10.655978,-1.0372353,-1
97,98,1583938256330,6.2976,-4.9144,-3.4433,13.756977,-10.431939,-0.4274512,-1
98,99,1583938256340,6.2598996,-4.6466,-3.0005999,13.891359,-10.769617,0.15891753,-1
99,100,1583938256350,6.4867,-4.8754,-2.4634,14.418783,-11.58445,1.0074513,-1
100,101,1583938256360,7.0901,-5.5831,-1.6043999,14.999425,-12.511274,1.5820597,-1
101,102,1583938256371,7.7509,-6.4136996,-0.99359995,15.393501,-13.086476,1.7984668000000001,-1
102,103,1583938256381,8.498,-6.9382,-0.1135,15.637834,-13.123625,2.493561,-1
103,104,1583938256391,8.1671,-6.357599700000001,0.66249996,15.194581,-12.516522,3.206267,-1
104,105,1583938256401,7.5214,-5.5944,1.3729,14.559639,-11.751479,3.8199870000000002,-1
105,106,1583938256411,6.9901,-4.9262,2.042,14.103179,-11.147824,4.4122357,-1
106,107,1583938256422,6.7169,-4.6117,2.6072,13.902957,-10.884481,4.8549147,-1
107,108,1583938256432,6.5673,-4.5017,2.7811,13.787335999999998,-10.776444999999999,4.9221725,-1
108,109,1583938256442,6.4419,-4.4491997,2.8221,13.7261305,-10.699611,4.913687,-1
109,110,1583938256452,6.4354,-4.426,3.0333997999999998,13.756029000000002,-10.640991,5.11752,-1
110,111,1583938256462,6.4641,-4.3185,3.4626,13.877127999999999,-10.414002,5.5183287000000005,-1
111,112,1583938256472,6.4546,-3.9060998,4.2142,13.906568,-9.916707,6.262839,-1
112,113,1583938256483,5.9353,-3.5161,5.1394,13.303170999999999,-9.457288,7.054390400000001,-1
113,114,1583938256493,4.6857,-3.2956998,5.98,11.855081,-9.111374,7.914378599999999,-1
114,115,1583938256503,3.391,-3.2187,6.657099700000001,11.029523,-8.936923,8.28163,-1
115,116,1583938256513,2.8063,-3.0296,6.7699,10.740064,-8.544925,8.115376,-1
116,117,1583938256523,2.9357998,-2.8295,6.388,11.137127,-8.208483,7.5418887,-1
117,118,1583938256534,3.2961,-2.6101,5.7233996,11.51881,-7.86908,6.857242599999999,-1
118,119,1583938256544,3.3528,-2.5242,5.4094,11.517814999999999,-7.671069999999999,6.716578500000001,-1
119,120,1583938256554,3.003,-2.4313998,5.589699700000001,11.087271000000001,-7.355677,6.899562400000001,-1
120,121,1583938256564,2.246,-2.1088,5.7851,10.404865,-6.7932024,6.944315,-1
121,122,1583938256575,1.4656,-1.7717999,5.8394,9.689938,-6.254469,6.935264999999999,-1
122,123,1583938256585,0.85139996,-1.5831,5.9483,9.360696,-5.950051,6.97182,-1
123,124,1583938256595,0.4552,-1.3522999,5.9967,9.118806,-5.5481124,6.849485400000001,-1
124,125,1583938256605,0.0638,-1.2717999,5.8842998,8.712461,-5.313902,6.655124000000001,-1
125,126,1583938256616,-0.4288,-1.3396,5.9165998,8.295219,-5.139853,6.582752,-1
126,127,1583938256626,-0.93359995,-1.3189,5.879699700000001,7.946805499999999,-4.833443,6.5079765,-1
127,128,1583938256636,-1.2835,-1.1204,5.9323997,7.796459700000001,-4.3359375,6.567697,-1
128,129,1583938256647,-1.4596,-0.8323,6.039,7.804341,-3.8603148000000003,6.459556,-1
129,130,1583938256657,-1.4821,-0.7084,5.8553,7.855807,-3.7658877,5.9312325,-1
130,131,1583938256667,-1.4499999,-0.85709995,5.1429,7.9080577000000005,-3.8426362999999997,5.1111417,-1
131,132,1583938256677,-1.5208,-1.1908,4.3364997,7.847724,-3.95864,4.088425,-1
132,133,1583938256688,-1.6753999,-1.3296,3.303,7.757088700000001,-3.6208184,3.3986077000000003,-1
133,134,1583938256699,-1.9441998999999999,-0.8366,3.0563998,7.2012032999999995,-2.7207325,3.877965,-1
134,135,1583938256709,-2.7491,-0.331,3.9866,5.9385395,-1.9027487,4.9313946,-1
135,136,1583938256719,-3.6873998999999995,-0.0061,4.6709,5.3421917,-1.4639298,5.1230459999999995,-1
136,137,1583938256729,-4.4407997,0.2724,4.9101996,4.807921,-1.0391027,4.4107227,-1
137,138,1583938256740,-4.888099700000001,0.4518,4.2846,4.60111,-0.9625553,3.6314964,-1
138,139,1583938256750,-5.1292995999999995,0.35689998,3.5804,4.6521254,-0.8414756999999999,3.0559494,-1
139,140,1583938256760,-5.0997,0.3319,3.0721,4.819662,-0.7265062,2.4413962000000002,-1
140,141,1583938256770,-4.9378,0.3058,2.5174,5.1815885999999995,-0.5269255,1.8101985,-1
141,142,1583938256780,-4.5863,0.38079998,1.9418,5.5918117,-0.13093410000000003,1.1176133999999998,-1
142,143,1583938256790,-4.1933,0.6692,1.2889999,5.4207790000000005,0.23963086,0.42544964,-1
143,144,1583938256801,-4.3676,0.9111,0.6292,4.952569,0.36987543,0.18485153,-1
144,145,1583938256811,-5.0014,0.95809996,0.3994,4.086998,0.34770513,0.013828908999999999,-1
145,146,1583938256821,-5.9891996,0.6939,0.0799,3.8392171999999998,0.35890043,-0.29773334,-1
146,147,1583938256832,-5.7061996,0.8849,-0.053099997,4.1738024,0.6607900999999999,-0.4591121,-1
147,148,1583938256842,-5.451699700000001,1.1122,-0.1813,4.3923354,0.9103521000000001,-0.5772229,-1
148,149,1583938256852,-5.2651997,1.2356,-0.0466,4.587721299999999,1.0503267,-0.4430231,-1
149,150,1583938256862,-4.9017,1.0684,0.0394,5.015364,0.84001046,-0.47433925,-1
150,151,1583938256872,-4.2928,0.62839997,-0.5329999999999999,5.6209917,0.42751822,-1.2125483,-1
151,152,1583938256882,-3.7624998,0.3218,-1.5927,6.2023044,0.10522038,-2.4914925,-1
152,153,1583938256893,-3.409,0.10349999,-2.5513,6.4313235,-0.106187634,-3.4425557,-1
153,154,1583938256903,-3.3695998,-0.030499997999999997,-3.4266,6.416279,-0.14732002,-4.0347567,-1
154,155,1583938256913,-3.3890998,0.1039,-3.5188,6.3731349999999996,0.18894082,-3.902223,-1
155,156,1583938256923,-3.5361,0.49879998,-3.1009,6.1304492999999995,0.6442318,-3.4426992,-1
156,157,1583938256933,-3.8104,0.893,-2.6227,5.941690400000001,1.0118854,-2.937015,-1
157,158,1583938256943,-3.898,1.1352999,-2.1183,5.9651629999999995,1.1502416000000002,-2.4745892999999994,-1
158,159,1583938256954,-3.6908998,1.0344,-1.5392,6.196443,0.8835562,-1.9303012,-1
159,160,1583938256965,-3.4638,0.43469998,-1.1594,6.4708185,0.1301488,-1.7258459,-1
160,161,1583938256975,-3.1188,-0.2738,-1.2386,6.867078299999999,-0.44927675,-2.0633519000000002,-1
161,162,1583938256985,-2.6757998,-0.49629998,-1.8102,7.253531,-0.49449840000000006,-2.7474422,-1
162,163,1583938256995,-2.3903,-0.3938,-2.4125,7.466739,-0.34966835,-3.1749032,-1
163,164,1583938257006,-2.3016999,-0.1274,-2.4661999,7.469583500000001,-0.053160854,-3.0364318,-1
164,165,1583938257016,-2.3802,0.0778,-2.0557,7.4162407,0.07315723,-2.5335157,-1
165,166,1583938257026,-2.3212,0.0885,-1.662,7.6900034,-0.07757214,-2.2231026000000003,-1
166,167,1583938257036,-2.3212,0.0885,-1.662,8.103578,-0.43738234,-1.985253,-1
167,168,1583938257046,-1.5443,-0.5083,-1.1551,8.502125999999999,-0.880281,-1.6967803,-1
168,169,1583938257057,-1.1014999,-0.861,-0.9119,8.958787,-0.9841414,-1.6234506000000002,-1
169,170,1583938257067,-0.79569995,-0.7887,-0.93039995,9.089625,-0.834341,-1.9196229999999999,-1
170,171,1583938257077,-0.7058,-0.63339996,-1.3925999,9.059975999999999,-0.71886384,-2.4494502999999996,-1
171,172,1583938257087,-0.69449997,-0.4655,-1.8176,9.244348,-0.50779104,-2.6442617999999998,-1
172,173,1583938257098,-0.43809998,-0.2541,-1.8202,9.611006,-0.38459498,-2.3535385,-1
173,174,1583938257108,-0.1422,-0.18329999,-1.4469,9.590549000000001,-0.3209092,-1.8341022,-1
174,175,1583938257118,-0.2285,-0.106199995,-0.91319996,9.284734,-0.22278526,-1.5118426,-1
175,176,1583938257128,-0.56979996,-0.0295,-0.61469996,9.006039,-0.13669933,-1.3315591999999998,-1
176,177,1583938257139,-0.8135,0.0824,-0.42200000000000004,8.835208,-0.0627185,-1.0621637,-1
177,178,1583938257149,-0.96,0.15619999,-0.1148,8.729307,-0.10708785,-0.8981225,-1
178,179,1583938257159,-1.0971,0.0572,-0.051599998,8.819472,-0.45990699999999995,-1.0982203000000001,-1
179,180,1583938257169,-0.8222,-0.2638,-0.29459998,9.717481,-0.82578886,-1.3499755,-1
180,181,1583938257180,0.1496,-0.5457,-0.5257,10.754983,-1.0803021000000002,-1.6721966000000001,-1
181,182,1583938257190,0.9851,-0.6996,-0.8095,11.079867,-1.1782249,-2.2029240000000003,-1
182,183,1583938257200,1.3011,-0.7662,-1.3428,11.062917,-1.0493404,-2.3210349999999997,d
183,184,1583938257210,1.2937,-0.6024,-1.4459,10.754381,-0.9422908000000001,-2.3301043999999997,-1
184,185,1583938257220,0.982,-0.48229998,-1.4381,10.406186,-0.7057340999999999,-2.0209648999999996,-1
185,186,1583938257230,0.64089996,-0.2446,-1.1127,10.062083,-0.5047648,-1.3849787,-1
186,187,1583938257240,0.2985,-0.0401,-0.4554,9.649495,-0.48734453,-0.7190075,-1
187,188,1583938257250,-0.112399995,-0.0218,0.2118,9.19,-0.5760641,-0.48542917,-1
188,189,1583938257260,-0.4155,-0.2403,0.1979,9.464250999999999,-0.7577457,-0.7867155,-1
189,190,1583938257271,0.3005,-0.353,-0.0638,10.201502,-0.89819914,-1.0268826,-1
190,191,1583938257281,0.3005,-0.353,-0.0638,10.622411999999999,-1.0349464,-1.1944098,-1
191,192,1583938257291,0.8692,-0.47869998,-0.3041,10.682028,-1.2192136999999998,-1.4726542999999999,-1
192,193,1583938257301,0.91789997,-0.62659997,-0.60749996,10.510928999999999,-1.2459713,-1.6001694,-1
193,194,1583938257311,0.66209996,-0.4935,-0.7758,10.41767,-1.1280424999999998,-1.585632,-1
194,195,1583938257322,0.7211,-0.41849998,-0.81689996,10.497512,-1.0531423,-1.6316963,-1
195,196,1583938257333,0.82979995,-0.34129998,-0.8929,10.619922,-0.9988322000000001,-1.6856521,-1
196,197,1583938257343,0.9095,-0.26209998,-0.67179996,10.678054,-0.8761055,-1.303662,-1
197,198,1583938257353,0.8129,-0.112399995,-0.168,10.514654,-0.7608486,-0.9305399999999999,-1
198,199,1583938257364,0.39229998,-0.0863,0.3838,9.890112,-0.7278852,-0.17708473,-1
199,200,1583938257374,-0.22489999,-0.0711,1.1162,9.309997000000001,-0.71408504,0.3679505,-1
200,201,1583938257384,-0.6857,-0.1461,1.0828999,8.98815,-0.8342165000000001,-0.009787496,-1
201,202,1583938257394,-0.7154,-0.2173,0.5256,9.219966000000001,-0.8444444999999999,-0.56860375,-1
202,203,1583938257404,-0.1466,-0.097799994,0.049,9.865049,-0.7060118000000001,-0.938077,-1
203,204,1583938257414,0.4226,0.0011,-0.2836,10.346878,-0.71007234,-1.2598577,-1
204,205,1583938257424,0.77629995,-0.0764,-0.6247,10.62496,-0.85050666,-1.5422585,-1
205,206,1583938257434,0.9535,-0.17019999,-0.7949,10.69534,-0.9603718000000001,-1.5888018999999998,-1
206,207,1583938257444,0.8657,-0.2647,-0.6551,10.508018,-1.0829643999999998,-1.3632585,-1
207,208,1583938257455,0.54219997,-0.3604,-0.4105,10.121630999999999,-1.1194042,-1.1021469,-1
208,209,1583938257465,0.081199996,-0.3764,-0.16049999,9.65752,-1.1603068,-0.88790405,-1
209,210,1583938257475,-0.26209998,-0.41509998,0.0909,9.416386,-1.1323329,-0.48560157,-1
210,211,1583938257485,-0.3505,-0.3241,0.4098,9.432532,-0.96149224,-0.42427170000000003,-1
211,212,1583938257495,-0.3017,-0.1299,0.3003,9.512422,-0.7821281999999999,-0.62801826,-1
212,213,1583938257505,-0.16499999,0.0795,0.0849,9.6471,-0.58188677,-0.81842434,-1
213,214,1583938257516,-0.0773,0.19489999,-0.027199998,9.677881,-0.5781997,-0.81372213,-1
214,215,1583938257526,-0.0777,0.106599994,-0.0618,9.69983,-0.7859111,-0.94823796,-1
215,216,1583938257536,-0.0093,-0.0892,-0.19229999,9.880228,-0.932034,-0.9356253000000001,-1
216,217,1583938257546,0.19659999,-0.2082,-0.141,10.027386,-1.0641078000000002,-0.85066944,-1
217,218,1583938257556,0.29459998,-0.3216,-0.058399998,9.949555,-1.0856268,-0.7092391,-1
218,219,1583938257567,0.1468,-0.28399998,0.0614,9.624701,-1.0604014,-0.62041426,-1
219,220,1583938257577,-0.1968,-0.2863,0.1364,9.431718,-1.0569444,-0.5380633,-1
220,221,1583938257587,-0.3252,-0.2617,0.2179,9.513284,-0.9318136999999999,-0.54313904,-1
221,222,1583938257597,-0.2572,-0.13599999,0.1511,9.5214815,-0.8552663,-0.74336135,-1
222,223,1583938257607,-0.22839999,-0.0764,-0.0339,9.613543,-0.84838057,-0.71766675,-1
223,224,1583938257617,-0.110999994,-0.074099995,0.0084999995,9.775306,-0.8925776,-0.6301346999999999,-1
224,225,1583938257628,0.0554,-0.118999995,0.0994,9.819061,-0.91306233,-0.53227895,-1
225,226,1583938257638,0.0748,-0.12529999,0.2295,9.742141,-0.9474718000000001,-0.41061518,-1
226,227,1583938257648,-0.0431,-0.1821,0.2911,9.635244,-1.0527303999999997,-0.29918903,-1
227,228,1583938257658,-0.1415,-0.29889998,0.3927,9.673466000000001,-1.1446486999999999,-0.31372663,-1
228,229,1583938257668,-0.0634,-0.3667,0.3576,9.80077,-1.1036121,-0.37181953,-1
229,230,1583938257679,0.053799997999999995,-0.297,0.27269998,9.836922999999999,-1.0048368,-0.51587385,-1
230,231,1583938257689,0.073,-0.16849999,0.0497,9.817894,-0.8183669,-0.8361127,-1
231,232,1583938257699,0.053,0.0187,-0.2122,9.747781,-0.6925468000000001,-0.8723801,-1
232,233,1583938257709,-0.045199998,0.098699994,-0.198,9.561436,-0.7973075,-0.6661244000000001,-1
233,234,1583938257719,-0.2021,-0.0063,-0.0156,9.574508999999999,-0.88921607,-0.4015555,-1
234,235,1583938257729,-0.192,-0.0787,0.24689999,9.703364,-0.9351369,-0.38144422,-1
235,236,1583938257740,-0.024799999,-0.1312,0.2368,9.907522,-0.883288,-0.6790435,-1
236,237,1583938257751,0.1425,-0.0638,-0.028199999,9.978257000000001,-0.7063278000000001,-0.9559377,-1
237,238,1583938257761,0.21169999,0.119399995,-0.3031,9.871572,-0.6465301999999999,-0.94695467,-1
238,239,1583938257771,0.1043,0.1814,-0.2906,9.694476,-0.6059629,-0.83368975,-1
239,240,1583938257781,-0.16929999,0.2304,0.0756,9.571137,-0.6026971999999999,-0.5308328,-1
240,241,1583938257792,-0.22739999,0.1344,0.2417,9.531307,-0.7163068,-0.46862188,-1
241,242,1583938257802,-0.1972,0.1691,-0.009000000000000001,9.57898,-0.6463866,-0.7395881,-1
242,243,1583938257812,-0.1972,0.1691,-0.009000000000000001,9.661408,-0.52719367,-0.97096366,-1
243,244,1583938257822,-0.0095,0.354,-0.44239998,9.754591,-0.5130391,-1.1181591999999998,-1
244,245,1583938257832,0.0011,0.33519998,-0.2868,9.745483,-0.5518921999999999,-0.9060041999999999,-1
245,246,1583938257842,-0.0664,0.2086,0.0187,9.686316999999999,-0.7109534000000001,-0.61506087,d
246,247,1583938257852,-0.0455,0.0339,0.1303,9.742332000000001,-0.9102563,-0.54775506,-1
247,248,1583938257862,0.112799995,-0.13849999,0.0845,9.944633,-1.0735025,-0.6658371,-1
248,249,1583938257872,0.33969998,-0.21249999,-0.1796,10.112677,-1.1285405000000002,-0.9150256,-1
249,250,1583938257882,0.4093,-0.13159999,-0.40699998,10.14587,-1.0404434999999999,-1.0926178999999998,-1
250,251,1583938257893,0.4093,-0.13159999,-0.40699998,10.074924000000001,-0.9466960999999999,-1.082093,-1
251,252,1583938257903,0.3023,-0.0392,-0.2577,10.083879,-1.0019926,-0.8678024,-1
252,253,1583938257913,0.4003,-0.1236,-0.0674,10.233536,-1.0912771,-0.67761654,-1
253,254,1583938257923,0.5961,-0.16059999,-0.0665,10.41722,-1.0873218999999998,-0.81797427,-1
254,255,1583938257933,0.7129,-0.111499995,-0.3042,10.445165,-1.0315658,-0.9721895,-1
255,256,1583938257944,0.6921,-0.0457,-0.3198,10.445030000000001,-0.97422945,-0.95885867,-1
256,257,1583938257954,0.6317,0.0369,-0.2572,10.374392,-0.87932324,-0.78368926,-1
257,258,1583938257964,0.5615,0.0502,-0.0559,10.291638,-0.8700625,-0.6244365,-1
258,259,1583938257974,0.4622,0.0752,-0.0316,10.213857,-0.88652503,-0.611776,-1
259,260,1583938257985,0.5396,-0.0626,0.0106,10.382389,-1.0394762,-0.4920755,-1
260,261,1583938257995,0.82339996,-0.1661,0.1302,10.72114,-1.1502798,-0.45563576,-1
261,262,1583938258005,1.2447,-0.2959,0.031799997999999996,11.187836,-1.2870462999999999,-0.5288503999999999,-1
262,263,1583938258015,1.6366,-0.377,-0.0661,11.569338,-1.3187166000000001,-0.7193523000000001,-1
263,264,1583938258025,1.8713,-0.3351,-0.4177,11.683857000000001,-1.278724,-1.1265773000000001,-1
264,265,1583938258035,1.9583999,-0.2999,-0.89489996,11.757484,-1.2500798,-1.4293864,-1
265,266,1583938258046,1.9861,-0.3306,-0.9479,11.722624,-1.2735333,-1.3134208,-1
266,267,1583938258056,1.9546,-0.3866,-0.74369997,11.7587,-1.4197041000000001,-1.0135421999999998,-1
267,268,1583938258066,2.0111,-0.6027,-0.46949998,11.872272,-1.6601968999999996,-0.6978619,-1
268,269,1583938258076,2.1755,-0.8893,-0.0958,12.073269999999999,-1.8683679,-0.3990847,-1
269,270,1583938258086,2.3889,-1.0791,0.082899995,12.255822,-2.0614843,-0.18140388,-1
270,271,1583938258097,2.5042,-1.3097,0.4085,12.295739,-2.2022060000000003,0.25028983,-1
271,272,1583938258107,2.5212,-1.3866,0.7248,12.291802,-2.1679687999999997,0.17218141,-1
272,273,1583938258117,2.5283,-1.4074999,0.3168,12.425237,-2.1038616,-0.6874710999999999,-1
273,274,1583938258127,2.6922998,-1.3519,-0.4052,12.634441,-2.110939,-1.0170377,-1
274,275,1583938258137,2.9738998,-1.4362,-0.68439996,12.890314,-2.2401302000000003,-1.0617326,-1
275,276,1583938258147,3.1083,-1.6136999,-0.659,12.815194,-2.3189569,-1.0693654,-1
276,277,1583938258157,2.9970999,-1.7019,-0.6748,12.726686,-2.2143778999999997,-0.94762504,-1
277,278,1583938258168,2.8757,-1.5841,-0.45479998,12.449236,-2.060019,-0.5459833000000001,-1
278,279,1583938258178,2.5779,-1.5643,-0.1039,12.088402,-2.0251593999999997,-0.20660044,-1
279,280,1583938258188,2.202,-1.6107,0.2525,11.685724,-1.9526151000000003,0.1493982,-1
280,281,1583938258198,1.8168999,-1.6219,0.555,11.431806,-1.9656586999999999,0.33024663,-1
281,282,1583938258208,1.5992998999999999,-1.7500999,0.73179996,11.354799,-2.089008,0.31044176,-1
282,283,1583938258218,1.4999,-1.9261999,0.6512,11.169535,-2.0156113999999996,0.27345616,-1
283,284,1583938258228,1.3026999,-1.9305999,0.7226,10.924158,-1.9192974999999999,0.4528393,-1
284,285,1583938258238,1.0573,-1.8814,0.84819996,10.642839,-1.6663644,0.35703292,-1
285,286,1583938258248,0.78279996,-1.6574,0.69409996,10.372438,-1.1510171999999999,0.021231782,-1
286,287,1583938258258,0.5092,-1.2228999,0.312,9.964361,-0.5833712,-0.5627236,-1
287,288,1583938258268,0.050499998,-0.726,-0.2825,9.368903999999999,0.063293114,-0.76031226,-1
288,289,1583938258279,-0.5634,-0.2549,-0.30969998,8.630503,0.37107253,-0.20697396,-1
289,290,1583938258288,-1.3227,-0.121,0.34289998,8.045007,0.420508,0.5054255999999999,-1
290,291,1583938258298,-1.8253,-0.2109,1.0561,7.7134279999999995,0.36886030000000003,1.1505193,-1
291,292,1583938258308,-2.1011999,-0.3831,1.6772,7.5797553,0.31296048,1.256161,-1
292,293,1583938258318,-2.2001,-0.4694,1.6681,7.5381727,0.6727611,0.87939984,-1
293,294,1583938258329,-2.2598999,-0.1182,1.2743,7.1373353,1.2613709,0.32089007,-1
294,295,1583938258339,-2.7317998,0.36389998,0.7298,6.4391193,1.7217662,0.036880285,-1
295,296,1583938258349,-3.4487,0.70199996,0.5029,5.982267,1.9553158,-0.36987543,-1
296,297,1583938258359,-3.7731,0.85889995,0.063,5.864348000000001,2.236194,-0.93035805,-1
297,298,1583938258370,-3.8616998,1.0012,-0.40789998,5.6729364,2.1356375,-1.4766575000000002,-1
298,299,1583938258380,-4.0372,0.8282,-0.9382,5.3851247,2.01587,-0.8692006,-1
299,300,1583938258390,-4.3184,0.6286,-0.2899,5.068688,2.096133,0.21055567,-1
300,301,1583938258400,-4.7145,0.6268,1.056,4.354622,2.2907627,1.6239774,-1
301,302,1583938258410,-5.3146,0.7191,2.2677,3.5494902,2.6943482999999997,2.2599158,-1
302,303,1583938258420,-6.1008997,1.0310999,2.9356,2.7419066,3.2514791,1.6126481000000001,-1
303,304,1583938258430,-6.8897,1.5137999,2.3257,2.4707587,3.8848697999999997,0.65467054,-1
304,305,1583938258440,-7.1631,2.0874,1.3783,2.7659256,4.3446620000000005,-0.115946405,-1
305,306,1583938258451,-6.8536,2.5203,0.62729996,3.1985002000000002,4.3792152,-0.75910556,-1
306,307,1583938258462,-5.8051,2.3608,-0.6705,3.9633327000000005,4.127527,-1.5674264,-1
307,308,1583938258472,-5.1122,2.0307999,-1.344,4.6347528,3.7503927000000004,-2.2112942,-1
308,309,1583938258482,-4.703,1.5838,-1.5582,4.966264,3.2466812000000003,-2.2794046000000003,-1
309,310,1583938258492,-4.7528,1.0703,-0.84529996,4.7798705,2.7168252,-1.4663144,-1
310,311,1583938258502,-5.4484,0.627,-0.0365,4.0190790000000005,2.3220406000000002,-0.781659,-1
311,312,1583938258512,-6.1842,0.5462,0.2598,3.3277297,2.3181236000000003,-0.58426183,-1
312,313,1583938258523,-6.4625998,0.8397,0.048899997,3.1822963,2.634235,-0.88172704,-1
313,314,1583938258533,-6.285,1.1820998999999999,-0.3956,3.3787165,2.8944366,-1.3075885,-1
314,315,1583938258543,-6.1011996,1.1908,-1.005,3.7176301,2.6392627,-1.9017047999999999,-1
315,316,1583938258553,-5.5757,0.6265,-0.9605,4.3584814000000005,1.8092983,-1.433648,-1
316,317,1583938258563,-5.0204,-0.25169998,-0.2232,4.7688,0.7980257,-0.8521059999999999,-1
317,318,1583938258573,-4.7875,-1.1467,-0.063099995,4.9643197,0.07720821,-0.79556453,-1
318,319,1583938258584,-4.4456,-1.5136,0.23619999,5.3764195,-0.21075679999999997,-0.33982342,-1
319,320,1583938258594,-4.3296,-1.2145,0.6096,5.257293,0.22133915,-0.17324443,-1
320,321,1583938258604,-4.6959,-0.5901,0.36159998,4.8316903,0.8160493000000001,-0.5654720999999999,-1
321,322,1583938258615,-5.1625,0.1994,-0.1836,4.40717,1.4438089,-0.85839796,-1
322,323,1583938258625,-5.5997996,0.61939996,-0.21849999,3.9501742999999996,1.3432524,-0.5705956999999999,-1
323,324,1583938258635,-5.9084997,0.2297,0.1182,3.9479141,0.37854245,0.042894515999999994,-1
324,325,1583938258645,-5.6461997,-0.78319997,0.7084,4.6644893,-0.84124583,0.40892008,-1
325,326,1583938258655,-4.6748,-1.8345,0.7162,5.793346,-1.927907,0.07600154,-1
326,327,1583938258666,-3.5728,-2.6267,0.4184,6.745184399999999,-2.593658,-0.12593502,-1
327,328,1583938258676,-2.8306,-2.9624999,0.19219999,7.107791000000001,-2.8129763999999997,-0.693198,-1
328,329,1583938258686,-2.6945999,-2.826,-0.523,7.1161613,-2.3489225,-1.2043121,-1
329,330,1583938258697,-2.7640998,-1.9296999,-0.6339,6.724891,-1.446864,-0.7257208,-1
330,331,1583938258707,-3.3632998,-0.98319995,0.0674,5.803985,-0.80833995,0.6002168000000001,-1
331,332,1583938258717,-4.177,-0.44099998,1.1589,4.96318,-0.8600068000000001,1.7434193,-1
332,333,1583938258727,-4.9567,-0.45009997,2.0899,4.695317,-1.5341183,1.9469457,-1
333,334,1583938258737,-4.9103,-1.3965,1.8528999,5.6407394,-2.7438126,1.1507969999999998,-1
334,335,1583938258747,-3.4936,-2.3161,0.8795,7.628894,-3.8930580000000004,0.21391714,-1
335,336,1583938258758,-1.8262999,-2.9619,0.1744,8.745138,-4.3398733,-0.18294574,-1
336,337,1583938258768,-0.9009,-3.1173,-0.2025,8.717365,-4.3567095,-0.6325576999999999,-1
337,338,1583938258778,-1.1213,-2.9076998,-0.6202,8.049603,-4.139143499999999,-0.39293638,-1
338,339,1583938258788,-1.7722,-2.4473999,-0.2104,7.393161,-3.6048538999999997,0.5499673,-1
339,340,1583938258798,-2.3615,-1.7536999,0.6896,6.9334354000000005,-3.2652314,1.4913193999999999,-1
340,341,1583938258808,-2.7292,-1.3052,1.5217999,6.727802799999999,-3.3528687999999995,2.6644015,-1
341,342,1583938258819,-2.8525999,-1.2204,2.3899,6.715103599999999,-4.0687065,3.0146924999999998,-1
342,343,1583938258829,-2.7696,-1.9318,2.6059,7.1429279999999995,-4.992332,2.9292483,-1
343,344,1583938258839,-2.1375,-2.6204998,2.4069998,8.303704,-5.928637,2.5194857,-1
344,345,1583938258849,-0.80109996,-3.2833997999999998,1.6276,10.009679,-6.665303999999999,0.30648655,-1
345,346,1583938258859,0.69629997,-3.636,-0.39069998,11.093419,-6.815689,-1.0810107,-1
346,347,1583938258870,2.1255,-3.5589999999999997,-1.9993,12.145795,-6.5836334,-1.4262834999999998,-1
347,348,1583938258880,3.0721998,-3.0776,-2.1390998,11.9635,-6.295515,-0.45236048,-1
348,349,1583938258890,2.8695998,-2.6826,-1.2499,10.815365,-6.41105,1.5435514,-1
349,350,1583938258900,1.7951,-2.6336,0.6767,9.679605,-6.6971855,3.8627954,-1
350,351,1583938258910,0.8566,-2.6722,2.6227,9.640139,-6.923973599999999,4.316573,-1
351,352,1583938258921,0.7978,-2.7961,3.2066,10.12552,-7.022844999999999,3.8116263999999997,-1
352,353,1583938258931,1.5227,-2.7208,2.3216,10.863154,-7.2806524999999995,2.561202,-1
353,354,1583938258941,3.3003,-3.0911,0.37849998,11.971774,-7.895061999999999,1.9879823,-1
354,355,1583938258951,3.3003,-3.0911,0.37849998,12.886273,-8.057868,1.8832407,-1
355,356,1583938258961,5.4879999999999995,-2.9094,0.021399999,13.762321,-7.9812913,1.9200348000000003,-1
356,357,1583938258971,5.5318,-2.7273998,0.6854,13.488626000000002,-7.9862905,2.7877126,-1
357,358,1583938258981,4.9221,-2.6187,1.5713999,12.673343,-7.973611,3.693219,-1
358,359,1583938258992,4.2683,-2.4101999,2.0500998,11.908989,-8.034787,4.1695886,-1
359,360,1583938259002,3.7752,-2.6834,2.511,11.450691,-8.473214,4.723664299999999,-1
360,361,1583938259013,3.8474,-2.9844,2.6162999,11.609283,-9.024080999999999,4.85388,-1
361,362,1583938259023,4.5801997000000005,-3.3732,2.4792,12.359664,-9.426432,4.6532555,-1
362,363,1583938259033,5.4319,-3.4824998,1.5975,12.942518,-9.701526,3.5864854,-1
363,364,1583938259043,6.1450996,-3.6799998,0.4423,13.531108999999999,-9.964141,2.9857419,-1
364,365,1583938259054,6.718899700000001,-3.6731,0.62979996,13.761861999999999,-9.998436,3.4117854,-1
365,366,1583938259064,6.5512,-3.3869998,1.2224,13.157719,-9.680418,4.040072,-1
366,367,1583938259074,5.6783,-2.8904,1.5095999,12.095717,-9.238832,4.2721653,-1
367,368,1583938259084,4.7303,-2.4429998,1.7253,11.176066,-8.961725999999999,4.418298200000001,-1
368,369,1583938259095,4.013,-2.1656,1.7276,10.523914999999999,-8.787228,4.442154,-1
369,370,1583938259105,3.7396,-2.2505999,1.93,10.328769,-9.204642,4.8509398,-1
370,371,1583938259115,4.0081,-2.7082999,2.207,10.758135000000001,-9.610066999999999,4.826155,-1
371,372,1583938259125,4.7237,-2.7207,1.209,11.364125999999999,-9.469892,3.3718307000000003,-1
372,373,1583938259135,5.2776,-2.2635,-0.5715,11.637266,-8.931205,2.012681,-1
373,374,1583938259146,5.2268,-1.6198,-1.1371,10.918268,-8.351828999999999,2.3173382,-1
374,375,1583938259156,4.2914,-1.3055999,-0.2559,9.766322,-8.40339,3.663368,-1
375,376,1583938259167,3.2609,-1.4259,1.0557,8.830554,-8.530627,4.619535400000001,-1
376,377,1583938259177,2.4995,-1.4994,1.6383,8.347632,-8.629373,4.701465,-1
377,378,1583938259187,2.3803,-1.5156,1.5328,8.881731,-8.430271000000001,4.1705556,-1
378,379,1583938259197,3.0709,-1.2185,0.8574,9.44616,-8.149144,3.2264645,-1
379,380,1583938259207,3.5848,-0.9431,-0.0954,9.508026,-8.045800999999999,2.8733485,-1
380,381,1583938259218,3.5507,-0.83849996,-0.2556,9.168614,-8.089481,3.241548,-1
381,382,1583938259228,3.1634,-0.9065,0.2122,8.556877,-8.162676,3.6035513999999997,-1
382,383,1583938259238,2.6553,-0.9174,0.387,7.969282000000001,-8.113385000000001,3.3788697999999995,-1
383,384,1583938259248,2.0516999,-0.84,0.0672,7.493114,-8.041271,3.0913167,-1
384,385,1583938259258,1.6703,-0.7671,-0.1387,7.399405000000001,-7.972078999999999,3.1619744,-1
385,386,1583938259269,1.6428,-0.7333,-0.042,7.568646,-7.970766499999999,3.2485008,-1
386,387,1583938259279,1.8500999,-0.66029996,-0.0030999999,7.696075,-7.7034492,3.165623,-1
387,388,1583938259289,1.9365,-0.38259998,-0.0986,7.4122477,-7.516941,3.1586416,-1
388,389,1583938259299,1.6549,-0.24499999,-0.102699995,6.8782825,-7.3935533,3.1570612999999996,-1
389,390,1583938259309,1.1352,-0.1294,-0.1074,6.608035000000001,-7.420857000000001,3.4072553999999995,-1
390,391,1583938259319,0.861,-0.1515,0.13149999,6.602241,-7.357841499999999,3.559795,-1
391,392,1583938259330,0.8526,-0.104499996,0.28149998,6.5858645000000005,-7.4592979999999995,3.258403,d
392,393,1583938259341,0.8013,-0.4342,-0.3164,6.581353999999999,-7.720745,2.9886630000000003,-1
393,394,1583938259351,0.8013,-0.4342,-0.3164,6.7147107,-7.8097520000000005,3.149486,-1
394,395,1583938259361,1.0444,-0.6461,0.40469998,6.810632000000001,-7.916283999999999,3.6968486000000005,-1
395,396,1583938259371,1.0162,-0.6425,0.50189996,6.7987576,-7.82563,3.7594137,-1
396,397,1583938259382,0.9174,-0.5151,0.585,6.684247,-7.725227,3.8654482000000003,-1
397,398,1583938259393,0.78069997,-0.5277,0.6206,6.6290173999999995,-7.764472500000001,3.8427896,-1
398,399,1583938259403,0.78529996,-0.61039996,0.5672,6.6883464,-7.838932499999999,3.7857212999999996,-1
399,400,1583938259413,0.9697,-0.6554,0.4165,6.902799000000001,-7.9101076,3.4508873999999996,-1
400,401,1583938259423,1.1557,-0.8199,-0.2314,7.167521499999999,-8.008432,2.7943493999999998,-1
401,402,1583938259433,1.5248,-0.8383,-0.6203,7.569259,-8.021360000000001,2.658397,-1
402,403,1583938259444,1.8647,-0.9740000000000001,-0.5791,7.862108,-8.15059,2.7581394,-1
403,404,1583938259453,2.0349998,-1.1486,-0.1707,8.012866,-8.314929,3.2462885,-1
404,405,1583938259463,2.0152,-1.3835,0.99609995,7.9462600000000005,-8.544369,4.4474597000000005,-1
405,406,1583938259473,1.7159,-1.8862,2.1378999,7.708544,-9.203387,5.417714,-1
406,407,1583938259483,1.7865,-2.3734999,2.1694,8.006986999999999,-9.438326,5.184989,-1
407,408,1583938259493,2.6257,-2.3042,1.5622,9.2207985,-9.261223,4.4150324,-1
408,409,1583938259504,3.7968998,-2.2563999,0.9546,10.419412,-9.279466000000001,3.8927517,-1
409,410,1583938259514,4.9367,-2.3878999,0.5119,11.519271,-9.412919,3.64205,-1
410,411,1583938259524,5.7485,-2.6116998,0.6382,12.180214,-9.616138000000001,3.9794025,-1
411,412,1583938259534,6.0789,-2.9394,1.1272,12.411273,-9.876321,4.402439,-1
412,413,1583938259544,6.1370997,-3.4792,2.2774,12.485178,-10.574442,5.911044599999999,-1
413,414,1583938259554,6.0674996,-4.1734,3.5442998,12.625354,-11.149098,6.979835499999999,-1
414,415,1583938259565,6.280999700000001,-4.4263,4.14,13.069832,-11.016651,7.0886183,-1
415,416,1583938259575,6.2313,-3.1801,4.1924,12.984473,-10.087806,6.431573,-1
416,417,1583938259585,6.5632997,-4.0216,2.6527,13.989838,-10.803825,4.511643,-1
417,418,1583938259595,7.424299700000001,-3.8509998,1.3383,14.743034,-9.605039,4.5421457,-1
418,419,1583938259605,8.0079,-3.2935,1.5871998999999999,14.653816,-10.040467999999999,3.7362763999999995,-1
419,420,1583938259615,7.285,-3.9113,0.2888,14.04771,-9.968948,2.8957295,-1
420,421,1583938259626,6.5232997,-3.4183998,0.3369,13.263629000000002,-9.264488,3.6291788,-1
421,422,1583938259636,5.5692,-3.2526999,1.2975,12.541796000000001,-9.176333,4.424628299999999,-1
422,423,1583938259646,4.5497,-3.2175999,2.5154,11.582487,-8.659914,5.5936213,-1
423,424,1583938259656,3.5881998999999998,-2.7633997999999997,3.1754,10.805032,-7.964723599999999,5.3938203,-1
424,425,1583938259666,3.5881998999999998,-2.7633997999999997,3.1754,10.223989,-7.2400947,4.712603,-1
425,426,1583938259676,2.0414999,-1.8047999,2.2335,9.879261999999999,-6.7462089999999995,4.2155857,-1
426,427,1583938259687,1.6784999,-1.5569998999999999,1.8557999,9.744927,-6.395716999999999,3.8983924,-1
427,428,1583938259697,1.3708999,-1.4252,1.7468,9.471347,-6.1043715,3.7714999,-1
428,429,1583938259707,0.9324,-1.3628,1.6430999,9.110781,-5.8117714000000005,3.2450723999999997,-1
429,430,1583938259717,0.5304,-1.2627,1.2734,8.939096000000001,-5.402534999999999,3.1132188,-1
430,431,1583938259727,0.2305,-1.0852,1.3707,8.601303999999999,-4.912624,3.4125419999999997,-1
431,432,1583938259737,-0.29009998,-0.75189996,1.7969998999999999,7.990275,-4.5030913,3.7388427,-1
432,433,1583938259748,-1.0325,-0.5578,2.1663,7.419592999999999,-4.2504263,3.8810010000000004,-1
433,434,1583938259758,-1.8070998999999999,-0.4622,2.3542,6.751917,-4.0357330000000005,3.7825417999999997,-1
434,435,1583938259768,-2.4069998,-0.5402,2.2431997999999997,6.4528813,-3.8678327000000006,3.4078875,-1
435,436,1583938259778,-2.7052999,-0.5254,1.9353,6.4714794,-3.599079,2.9156779999999998,-1
436,437,1583938259788,-2.7322,-0.42659998,1.4645,6.5837865,-3.2664957,2.199122,-1
437,438,1583938259798,-2.6843,-0.2635,0.8609,6.6766047,-2.8072975,1.8964663,-1
438,439,1583938259809,-2.6903,0.0407,0.80469996,6.5239987,-2.3402555,2.3201632,-1
439,440,1583938259819,-2.9866998,0.3275,1.4180000000000001,5.960413,-1.9338255000000002,2.808293,-1
440,441,1583938259829,-3.6611998,0.5287,1.9232999,5.2783050000000005,-1.7308546000000002,2.8012064,-1
441,442,1583938259839,-4.3297,0.48079997,1.9714999,5.000041,-1.9019251,2.6739017999999994,-1
442,443,1583938259849,-4.5601997,0.16899999999999998,1.9438,5.199631,-1.9715198,2.35147,-1
443,444,1583938259860,-4.3234,-0.0338,1.7321,5.729507,-1.8978645,2.0423307,-1
444,445,1583938259870,-3.8068,-0.053099997,1.4979,6.127337000000001,-1.5854883,1.4719839,-1
445,446,1583938259880,-3.5412998,0.076699995,1.1442,5.6596246,-1.2780919,1.2675382,-1
446,447,1583938259890,-4.038,0.25149998,1.0597,4.967787,-0.9951068000000001,1.449689,-1
447,448,1583938259900,-4.7572,0.39409998,1.3765,4.3078203,-0.831851,1.1928296,-1
448,449,1583938259911,-5.5044,0.4693,0.65669996,4.3154626,-0.5757671999999999,0.38785112,-1
449,450,1583938259921,-5.5044,0.4693,0.65669996,4.689149400000001,-0.2473306,0.16902106,-1
450,451,1583938259931,-5.0713,0.7801,0.4632,5.017442,-0.078912884,0.08632534,-1
451,452,1583938259941,-4.6477,0.561,0.9032,5.112837,-0.3726527,0.5072260000000001,-1
452,453,1583938259951,-4.6884,0.2084,1.1379,5.059887000000001,-0.66696715,0.6091807,-1
453,454,1583938259962,-4.8654,-0.1274,1.2011,4.8639264,-0.94275045,0.5986845000000001,-1
454,455,1583938259971,-4.8654,-0.1274,1.2011,4.877860500000001,-1.1402242,0.32115820000000006,-1
455,456,1583938259981,-4.8842998,-0.4274,0.97889996,5.381869,-1.3549361,-0.36833355,-1
456,457,1583938259991,-4.3922,-0.6695,0.3631,5.990245,-1.2865098999999998,-1.4342035,-1
457,458,1583938260001,-3.7717998,-0.6292,-0.638,6.521528,-1.0146818000000002,-2.6027652999999997,-1
458,459,1583938260013,-3.1181,-0.22399999,-1.9835999,6.621213000000001,-0.77429444,-2.9034197,-1
459,460,1583938260023,-3.3892,-0.0155,-1.6689,6.1747513,-0.51385313,-2.3750672,-1
460,461,1583938260033,-3.8648998999999997,0.0025,-0.72279996,5.750757,-0.58767116,-1.2807256,-1
461,462,1583938260043,-4.0864997,-0.3154,0.5848,5.675714,-0.9059275999999999,-0.08599973,-1
462,463,1583938260053,-3.9526,-0.53749996,1.4585999,5.936528,-1.0274572,0.34868196,-1
463,464,1583938260064,-3.573,-0.6703,1.26,6.2382364,-1.1212716999999999,-0.123081125,-1
464,465,1583938260074,-3.1445,-0.8407,0.5129,6.702998599999999,-1.2433473,-1.0273902,-1
465,466,1583938260085,-2.9527,-0.71989995,-0.0618,6.7351766,-1.0185796,-1.6203477,-1
466,467,1583938260095,-3.1641998,-0.4691,-0.69629997,6.444989700000001,-0.7809406999999999,-2.4522085,-1
467,468,1583938260105,-3.3274,-0.2067,-1.5436,6.460121,-0.3555198,-3.300819,-1
468,469,1583938260115,-3.1278,0.18769999,-1.9906,6.7851872,-0.048985365999999995,-3.4374702000000004,-1
469,470,1583938260126,-2.7603998,0.3913,-1.9714999,7.2631559999999995,-0.013895946999999999,-3.2101743,-1
470,471,1583938260135,-2.1949,0.3236,-1.4502,7.7223444,-0.2256583,-2.5800972,-1
471,472,1583938260145,-1.7442,-0.1158,-0.5103,8.054563499999999,-0.80442303,-1.8244966,-1
472,473,1583938260155,-1.4972999,-0.7643,0.078,8.280192999999999,-1.4383023000000001,-1.2187923,-1
473,474,1583938260165,-1.3671,-1.1032,0.612,8.257152,-1.6416658,-0.93347055,-1
474,475,1583938260175,-1.4735,-1.2283,0.85209996,8.074896,-1.6043258,-1.0434984,-1
475,476,1583938260186,-1.642,-1.037,0.5516,7.864300999999999,-1.1704103000000001,-1.5872408000000002,-1
476,477,1583938260196,-1.9323,-0.486,-0.0578,7.494809,-0.6585108000000001,-2.2915572999999996,-1
477,478,1583938260206,-2.1963,-0.0042,-0.7553,7.486496000000001,-0.30642909999999995,-2.9583907000000003,-1
478,479,1583938260216,-2.0001,0.2735,-1.4109,7.9471025,-0.23059992,-3.5391760000000003,-1
479,480,1583938260226,-1.4193,0.28509998,-1.9368,8.686959,-0.45731170000000004,-4.058737000000001,-1
480,481,1583938260237,-0.62229997,-0.0594,-2.4219,9.580801,-1.0063021,-4.225048,-1
481,482,1583938260247,0.0809,-0.4518,-2.2992,9.966631,-1.3022829,-3.7284330000000003,-1
482,483,1583938260257,0.4626,-0.70559996,-1.5432,10.074572,-1.4121864,-2.7732806,-1
483,484,1583938260267,0.4032,-0.73679996,-0.691,9.608832000000001,-1.2306293,-1.7603607,-1
484,485,1583938260277,-0.1374,-0.5628,0.4276,8.972788000000001,-1.0605547,-0.9026235999999999,-1
485,486,1583938260287,-0.9923,-0.39049998,1.3399,8.01955,-0.76599133,-0.752603,d
486,487,1583938260298,-1.6607,-0.1187,1.1728,7.7760797,-0.47540227,-1.657477,-1
487,488,1583938260308,-1.7785,0.1268,0.26139998,8.077759,-0.36287478,-2.5178096,-1
488,489,1583938260318,-1.3749,0.1829,-0.4811,8.764453999999999,-0.31859165,-2.9125175,-1
489,490,1583938260328,-0.6272,0.233,-0.7635,9.481633,-0.3191375,-3.1093017999999994,-1
490,491,1583938260338,0.070099995,0.24149999,-0.8387,9.984117999999999,-0.39141366,-2.7467623,-1
491,492,1583938260348,0.51,0.1809,-0.2978,10.121439,-0.58136964,-1.8522502,-1
492,493,1583938260359,0.575,-0.0115,0.6164,9.8711405,-0.7801458,-1.1539382,-1
493,494,1583938260369,0.2447,-0.1982,1.2353,9.361011999999999,-0.90730673,-1.1335108,-1
494,495,1583938260379,-0.22549999,-0.2665,1.0770998999999999,9.136072,-0.85924065,-1.8318133,-1
495,496,1583938260389,-0.4039,-0.1805,0.2999,9.332397,-0.81093526,-2.8027005000000003,-1
496,497,1583938260399,-0.1909,-0.1449,-0.523,9.953864999999999,-0.70978504,-3.349153,-1
497,498,1583938260409,0.4245,-0.0156,-1.0816,10.561638,-0.49394298,-3.7679273999999996,-1
498,499,1583938260420,1.0314,0.2399,-1.5172,10.680045,-0.45191990000000004,-4.0422072,-1
499,500,1583938260430,1.1496998999999999,0.299,-1.8054,10.320847500000001,-0.46318224,-3.8821117999999997,-1
500,501,1583938260440,0.78889996,0.29459998,-1.632,9.961314999999999,-0.49518797,-3.7384023999999996,-1
501,502,1583938260450,0.4393,0.25759998,-1.4677,10.055655999999999,-0.5630491999999999,-3.3591895,-1
502,503,1583938260461,0.54219997,0.1733,-1.0598999,10.225578,-0.6560783,-2.9897068,-1
503,504,1583938260471,0.9068,-0.1845,-0.067499995,10.427629,-0.9145466999999998,-2.3537877000000003,-1
504,505,1583938260481,0.91209996,-0.3078,0.117699996,10.400508,-0.9716245000000001,-2.3175392,-1
505,506,1583938260491,0.7887,-0.3112,-0.41889998,10.257813,-0.9342940999999999,-2.9994560000000003,-1
506,507,1583938260501,0.7226,-0.2609,-1.3158,10.2430935,-0.8408245000000001,-4.059924,-1
507,508,1583938260512,0.872,-0.1461,-2.2354998999999998,10.456617999999999,-0.7309019,-4.87176,-1
508,509,1583938260522,1.2282,-0.1955,-2.9168,10.785333,-0.83361316,-5.5129175,-1
509,510,1583938260532,1.4689,-0.63909996,-3.6385,11.006289500000001,-1.3414233999999998,-6.2374315000000005,-1
510,511,1583938260542,1.7127,-1.3338,-4.1611,11.231286,-2.0403004,-6.766617299999999,-1
511,512,1583938260552,1.9792999,-1.9792,-4.5629,11.495289999999999,-2.616901,-7.226495699999999,-1
512,513,1583938260562,2.2075,-2.3032,-5.0680000000000005,11.672347,-2.8114152000000003,-7.74552,-1
513,514,1583938260572,2.1503,-2.3952,-5.0861,11.546756,-2.8165004000000002,-7.676232000000001,-1
514,515,1583938260582,2.1503,-2.3952,-5.0861,10.98068,-2.722035,-7.051365,-1
515,516,1583938260592,0.9963,-2.3920999,-3.9236,10.259575,-2.6958039,-6.617372500000001,-1
516,517,1583938260602,0.26049998,-2.3716,-4.0945,9.558467,-2.6109536,-6.958489,-1
517,518,1583938260613,-0.3423,-2.4301999,-4.9986997,9.024014,-2.6212485,-7.896039,-1
518,519,1583938260623,-0.44849998,-2.4891,-5.6129,9.06212,-2.6321947999999997,-8.357803,-1
519,520,1583938260633,-0.026899998999999997,-2.5437,-5.646,9.505048,-2.6323385,-8.264555,-1
520,521,1583938260643,0.1583,-2.6332,-5.6050997,9.598813999999999,-2.6970107999999997,-8.213587,-1
521,522,1583938260653,-0.12719999,-2.8351998,-5.370899700000001,9.116708000000001,-2.7884693,-7.65568,-1
522,523,1583938260663,-0.8433,-2.7316,-4.6257997,8.290307,-2.5398936,-6.904380000000001,-1
523,524,1583938260674,-1.6667,-2.6694999,-4.0397,7.5972233,-2.4031081000000003,-6.3014145,-1
524,525,1583938260684,-2.2157,-2.6388,-3.5379998999999995,7.148703,-2.3158060000000003,-5.815363,-1
525,526,1583938260694,-2.4322999,-2.6418998,-3.1420999,7.038982000000001,-2.1978388,-5.3721,-1
526,527,1583938260704,-2.5716999,-2.5867,-2.8716,6.926962,-2.0828788,-5.225258999999999,-1
527,528,1583938260714,-2.6248999,-2.5225,-3.1030998,6.9043894,-1.8625644000000001,-5.46646,-1
528,529,1583938260724,-2.6248999,-2.5225,-3.1030998,6.842887400000001,-1.6731734,-5.646571,-1
529,530,1583938260734,-2.8337,-2.1533,-3.5872998,6.6787405,-1.4170226000000001,-5.570330599999999,-1
530,531,1583938260744,-3.0351999,-2.0829,-3.3588,6.4707136,-1.2841061000000003,-5.0641099999999994,-1
531,532,1583938260754,-3.2835,-2.0176,-2.5506,6.1763415,-1.1817302,-3.9270557999999998,-1
532,533,1583938260764,-3.7454998,-2.0654,-1.2901,5.6030736,-1.1939023000000002,-2.4810060000000003,-1
533,534,1583938260775,-4.4119997,-2.1748,0.09559999400000001,4.96839,-1.1982788,-0.9917741,-1
534,535,1583938260785,-4.9214,-2.1722999,1.4555,4.5867157,-1.0025097,0.30072132,-1
535,536,1583938260795,-5.138,-1.8438,2.1478999,4.4768124,-0.43218213,0.7202908,-1
536,537,1583938260805,-5.2002,-1.3806,1.9616,4.4059916,0.124690026,0.40736863,-1
537,538,1583938260816,-5.3426,-0.84349996,1.5064,4.152829,0.75872254,0.11891521,-1
538,539,1583938260827,-5.6024,-0.19759999,1.1249,4.017844,1.3809563999999999,0.22375251,-1
539,540,1583938260837,-5.7131,0.3286,1.3786,3.918858,1.7600255,1.2200468999999998,-1
540,541,1583938260847,-5.7911997,0.51699996,2.2522,3.847549,1.7550552,2.4969704,-1
541,542,1583938260858,-5.9056997,0.46499997,3.5168998,3.5500362,1.4848742,4.017135,-1
542,543,1583938260868,-6.2441998,0.16489999,4.9723997,3.1874773999999997,1.2074918,5.617487000000001,-1
543,544,1583938260878,-6.6025,-0.0559,6.4884996,2.982294,1.1274393,6.626825,-1
544,545,1583938260889,-6.7767,-0.0733,7.3213,3.0106319999999998,1.1462959,6.9659395,-1
545,546,1583938260899,-6.66,0.028199999,7.3722997,3.6017509,1.4111617,6.698392,-1
546,547,1583938260909,-6.1436996,0.3375,7.0274997,4.098289,1.7754825,6.400697,-1
547,548,1583938260919,-5.5392,0.8979,6.607,4.722841000000001,2.3727305,6.8690796,-1
548,549,1583938260929,-5.0502996,1.4876,6.9045997,4.8183312,2.6219957000000003,7.331371300000001,-1
549,550,1583938260939,-4.9607,1.8368,7.2338,4.629936,2.4669855,7.461529700000001,-1
550,551,1583938260950,-5.2321,1.7184,7.2994,4.241423999999999,1.6442994,7.903097,-1
551,552,1583938260960,-5.5618,1.0766,7.6684,4.407677,0.53934664,8.846441,-1
552,553,1583938260970,-5.3912997,0.102199994,8.6018,5.460905599999999,-0.2599241,10.554704,-1
553,554,1583938260980,-4.3469999999999995,-0.5475,10.3214,6.656234700000001,-0.54822433,11.558612,-1
554,555,1583938260990,-2.4083997999999998,-0.2995,10.3397,7.4064727,-0.29847077,10.635859,-1
555,556,1583938261001,-1.8657,0.3245,9.0529995,7.991270500000001,0.3056438,9.25426,-1
556,557,1583938261011,-1.8657,0.3245,9.0529995,7.8325059999999995,0.5830456,8.811572,-1
557,558,1583938261021,-2.8135,0.6629,7.9553,6.827526,0.07517793,8.420925,-1
558,559,1583938261031,-3.188,-0.23279999,7.9605,6.645969,-1.0383079,8.514959,-1
559,560,1583938261041,-2.6101,-1.3321999,8.451799000000001,7.378153999999999,-2.2946315,9.092996000000001,-1
560,561,1583938261051,-1.3333,-2.1585,9.4011,8.710412,-3.1632001,10.042422,-1
561,562,1583938261062,0.1136,-2.2182,9.9878,10.129226,-3.2419791,10.392569,-1
562,563,1583938261072,0.1136,-2.2182,9.9878,10.990468,-2.9517729999999998,10.028756,-1
563,564,1583938261082,1.4290999,-1.2854999,8.7644,11.118309,-2.5922215,8.965299,-1
564,565,1583938261092,1.1097,-0.86399996,7.3774996,10.694755,-2.3710928,7.628894,-1
565,566,1583938261102,0.60569996,-1.012,6.1991,10.217945,-2.8526626,6.525464,-1
566,567,1583938261112,0.6525,-1.9404999,5.2734,10.404223,-3.9983934999999997,5.6627946,-1
567,568,1583938261123,1.6234,-2.9401999,4.700999700000001,11.503172,-5.1014023,5.136233,-1
568,569,1583938261133,2.9199998,-3.635,4.4530997,12.883592,-6.0158052,4.8602962,-1
569,570,1583938261143,3.7268999,-3.9957,4.4607997,13.392082,-6.3358235,4.906141000000001,-1
570,571,1583938261153,4.1998997000000005,-3.8718,4.8034,13.681253,-6.136837,5.244451000000001,-1
571,572,1583938261163,3.9171998999999995,-3.3513,4.8528,13.052853,-5.78306,5.206775700000001,-1
572,573,1583938261173,3.0175,-3.0953999,4.7412,12.11514,-5.751303,5.165576000000001,-1
573,574,1583938261184,2.3367,-3.1348999,4.4586997,11.67633,-6.001622,4.8291144,-1
574,575,1583938261194,2.4359999,-3.4131,3.9032998,12.062801,-6.508111,4.2367024,-1
575,576,1583938261204,3.2654998,-4.0278,2.6455,13.00042,-7.419047,2.6639612,-1
576,577,1583938261215,4.3996,-4.8485,0.7863,14.334898999999998,-8.244903,0.7751371,-1
577,578,1583938261225,5.4967,-5.0575,-0.3956,15.021422,-8.253292,0.39275444,-1
578,579,1583938261235,5.7222,-4.8868,-0.2941,14.413028,-8.131485000000001,1.2111691999999998,-1
579,580,1583938261245,4.6948,-4.7377,0.9129999999999999,12.939099,-8.0705385,2.6369736,-1
580,581,1583938261255,3.3281,-4.6394,2.0744,11.723554,-7.949553999999999,3.1423992999999997,-1
581,582,1583938261266,2.188,-4.4405,1.925,10.987556,-7.807482,2.0134087,-1
582,583,1583938261276,1.8587999,-4.2756,0.2462,11.2180605,-7.6624894,0.09747274,-1
583,584,1583938261286,2.4192998,-4.1581,-1.8283999,12.053522000000001,-7.816178,-1.9136183999999998,-1
584,585,1583938261296,3.3653998,-4.3553,-3.8004,12.9094305,-8.115616000000001,-3.2727876,-1
585,586,1583938261307,4.0822,-4.5323997,-4.7938,13.165465,-8.340747,-3.6975477,-1
586,587,1583938261317,4.1033998,-4.6998,-4.9227,12.79222,-8.587245,-3.2650018,-1
587,588,1583938261327,3.4664,-4.9140997,-4.1102,11.575209,-8.530617,-2.2485576000000003,-1
588,589,1583938261337,2.3207,-4.7249,-3.3981,10.490808,-8.353436,-2.32205,-1
589,590,1583938261347,1.015,-4.5789,-3.9501998,9.624461,-8.1576,-3.8289607000000005,-1
590,591,1583938261357,0.61359996,-4.2587,-6.0348,9.895197,-7.627036,-6.317398000000001,-1
591,592,1583938261368,1.2265999,-3.6555998,-8.4784,10.872846000000001,-7.128803,-8.395374,-1
592,593,1583938261378,1.9978,-3.3488998,-9.7611,11.124083500000001,-7.081023700000001,-8.263655,-1
593,594,1583938261388,2.0986,-3.2974,-9.3323,10.838493,-7.0023985,-7.4377116999999995,-1
594,595,1583938261399,1.5662,-3.1848,-8.1592,9.528234,-6.871110000000001,-6.00483,-1
595,596,1583938261409,0.5301,-3.1101,-7.1819,8.641775,-7.0792713,-5.5984,-1
596,597,1583938261419,-0.3581,-3.3237,-6.7504,8.484093,-6.996671000000001,-5.6525664,-1
597,598,1583938261429,-0.46789998,-3.1815999,-6.8791,8.872586,-6.6280410000000005,-6.3007345,-1
598,599,1583938261439,-0.0229,-2.8160000000000003,-7.6538997,9.35722,-6.361461,-7.189922,-1
599,600,1583938261449,0.37629998,-2.6018,-8.3869,9.31831,-6.290994599999999,-7.7355220000000005,-1
600,601,1583938261460,0.34559998,-2.5125,-8.965099,9.07638,-6.264611,-8.017396000000002,-1
601,602,1583938261470,0.100099996,-2.481,-9.2815,9.031198,-6.161593,-7.9350357,-1
602,603,1583938261480,0.061499998,-2.3488,-9.1549,8.9326515,-6.1284957,-7.3039145,-1
603,604,1583938261490,-0.106,-2.3371,-7.8574996,8.817634,-6.175173,-6.408981,-1
604,605,1583938261501,-0.106,-2.3371,-7.8574996,8.708056,-6.229598,-6.042754,-1
605,606,1583938261511,-0.3692,-2.5159,-6.678999999999999,8.525427,-6.399979,-5.158729,-1
606,607,1583938261521,-0.3692,-2.5159,-6.678999999999999,8.348198,-6.470196,-4.389577,-1
607,608,1583938261531,-0.5787,-2.5997,-5.7188,8.169764,-6.5454597,-3.8414872000000004,-1
608,609,1583938261541,-0.7445,-2.6125,-5.2201,8.166679,-6.518846,-3.8568672999999993,-1
609,610,1583938261551,-0.7445,-2.6125,-5.2201,8.151394999999999,-6.5363620000000004,-3.7780025,-1
610,611,1583938261562,-0.7891,-2.7767,-5.1137,8.081896,-6.788614999999999,-3.6302513999999997,-1
611,612,1583938261572,-0.7211,-2.9729997999999997,-5.0222,8.145323,-7.006114500000001,-3.5471152999999997,-1
612,613,1583938261582,-0.4772,-3.0997,-4.9814,8.40926,-7.163700599999999,-3.4620059999999997,-1
613,614,1583938261592,-0.2066,-3.2275,-4.7202997,8.617413,-7.281706,-3.11364,-1
614,615,1583938261602,-0.2936,-3.2124999,-3.9531,8.436898,-7.2889365999999995,-2.2120507000000003,-1
615,616,1583938261613,-0.7863,-3.3107,-2.7179,7.897226299999999,-7.419238000000001,-0.9842371999999999,-1
616,617,1583938261622,-1.3780000000000001,-3.3054,-1.7441,7.3028326,-7.407488000000001,-0.1278408,-1
617,618,1583938261632,-1.8195,-3.1339998,-1.4369999,6.8478475,-7.182805999999999,0.11790965,-1
618,619,1583938261642,-2.1182,-2.9008,-1.5056,6.630501700000001,-6.988722999999999,-0.0004405331,-1
619,620,1583938261653,-2.0284998,-2.7301998,-1.7669,6.7974358,-6.866158500000001,-0.22235429999999998,-1
620,621,1583938261663,-1.7093999,-2.6799998,-1.8801999,7.159496300000001,-6.9148474,-0.16178098,-1
621,622,1583938261673,-1.3026999,-2.7721999,-1.7016,7.5383067,-7.035055000000001,0.16648321,-1
622,623,1583938261684,-0.99869996,-2.697,-1.3883,7.648909,-6.9222884,0.43397298,-1
623,624,1583938261694,-1.112,-2.5949,-0.9453,7.394692999999999,-6.9229970000000005,1.1118768,-1
624,625,1583938261704,-1.5318999,-2.6225998,0.0849,6.9292507,-6.9048869999999996,2.198787,-1
625,626,1583938261714,-1.9703,-2.4354,1.0099,6.54433,-6.7055077999999995,2.8437083,-1
626,627,1583938261725,-2.1650999,-2.1518,1.1395998999999999,6.485079,-6.472188,2.6221585,-1
627,628,1583938261735,-1.9501,-1.9853,0.57,6.821186,-6.365215,2.147599,-1
628,629,1583938261745,-1.5019999999999998,-1.8268,0.3967,7.30695,-6.2135854,2.3017279999999998,-1
629,630,1583938261755,-1.1543,-1.6762999,0.7802,7.4425583,-6.267608,2.9711087000000003,-1
630,631,1583938261765,-1.1057999,-1.8017,1.5691998999999999,7.3640666,-6.398696,3.8605449999999997,-1
631,632,1583938261775,-1.2197,-1.8319999,2.4864,7.2397594,-6.421268,4.630481700000001,-1
632,633,1583938261786,-1.2971,-1.7657,3.2296,7.1556273,-6.354374,5.1252675000000005,-1
633,634,1583938261796,-1.3355,-1.6309999,3.6418,7.234099400000001,-6.165989,5.2520546999999995,-1
634,635,1583938261806,-1.1557,-1.319,3.6529,7.502116,-5.7981243,5.186425,-1
635,636,1583938261816,-0.86399996,-0.9657,3.7386,7.7288084,-5.5497309999999995,5.3411290000000005,-1
636,637,1583938261826,-0.6768,-0.6906,3.9262,7.730867999999999,-5.4158373,5.6941394999999995,-1
637,638,1583938261837,-0.7237,-0.5257,4.3937,7.550565,-5.183974,6.3138065,-1
638,639,1583938261846,-0.927,-0.19669999,5.0284,7.353225699999999,-4.969204,6.8552313,-1
639,640,1583938261856,-1.0713,-0.0652,5.4044,7.2649083,-4.9438252,6.9604135,-1
640,641,1583938261866,-1.0584999,0.0079,5.3601,7.391456,-4.8300815,6.831931,-1
641,642,1583938261876,-0.8296,0.1621,5.1668997,7.6996474,-4.8586974000000005,6.7226024,-1
642,643,1583938261886,-0.46359998,0.0537,5.1981,8.08746,-5.024405000000001,6.949008,-1
643,644,1583938261896,-0.049399998,-0.0145,5.5713,8.406004,-5.089843,7.35335,-1
644,645,1583938261907,0.1576,-0.0163,5.8181996,8.440337,-5.0248165,7.2766779999999995,-1
645,646,1583938261917,0.19699999999999998,0.104899995,5.6935997,8.44977,-4.950663,7.082498599999999,-1
646,647,1583938261927,0.2555,0.2218,5.4308,8.538499,-4.7607837,6.7444754,-1
647,648,1583938261937,0.3527,0.43359998,5.0723,8.610105,-4.5871949999999995,6.3341956,-1
648,649,1583938261948,0.4479,0.6526,4.5894,8.682381,-4.599817,6.061898,-1
649,650,1583938261958,0.49049997,0.5463,4.4834,8.649772,-4.9421206,6.131771,-1
650,651,1583938261968,0.4818,0.2242,4.5847,8.727296,-5.084528,6.2547083,-1
651,652,1583938261978,0.6386,0.13699999999999998,4.7114997,8.821686,-5.179625499999999,6.102246,-1
652,653,1583938261988,0.6576,0.0771,4.4807997,8.732008,-5.1403413,5.5123143,-1
653,654,1583938261998,0.56839997,0.1801,3.8172998,8.720765,-4.935043299999999,4.7691636,-1
654,655,1583938262009,0.60679996,0.3974,3.0934,8.799006,-4.757489,4.1808505,-1
655,656,1583938262019,0.7040000000000001,0.56409997,2.4910997999999998,8.89352,-4.675195700000001,3.679103,-1
656,657,1583938262029,0.81,0.62189996,1.9696,8.969752,-4.837724,3.5336406000000005,-1
657,658,1583938262039,0.86399996,0.47239998,1.969,8.88992,-4.974222,3.7236924,-1
658,659,1583938262049,0.787,0.3506,2.1669,8.739621000000001,-5.0640817,3.7571537000000004,-1
659,660,1583938262059,0.6292,0.2653,2.2213,8.640282000000001,-5.1764846,3.6867928999999995,-1
660,661,1583938262070,0.5006,0.119399995,2.1236,8.578424,-5.276543,3.2178645,-1
661,662,1583938262080,0.47100000000000003,0.0504,1.7018,8.491132,-5.2780275,2.6465316000000003,-1
662,663,1583938262090,0.384,0.0392,1.1116999,8.320234,-5.331696,2.4616032000000003,-1
663,664,1583938262100,0.2113,-0.0008,0.9023,8.181236,-5.3453617,2.4765238999999997,-1
664,665,1583938262110,0.0805,-0.0201,0.87939996,8.073047,-5.3070835999999995,1.8028626,-1
665,666,1583938262121,-0.0179,0.0106,0.1697,8.12139,-5.2220889999999995,0.6662106,-1
666,667,1583938262131,0.0512,0.1004,-1.0135,8.366194,-4.982056,0.08708189999999999,-1
667,668,1583938262141,0.2737,0.38779998,-1.1538,8.267811,-4.9506917,0.736083,-1
668,669,1583938262151,0.2737,0.38779998,-1.1538,7.831098599999999,-5.0626254,1.5285636999999999,-1
669,670,1583938262161,-0.253,0.2683,-0.1453,7.168411999999999,-5.2137,2.312071,-1
670,671,1583938262172,-1.2586,0.1942,1.0099,6.832496000000001,-5.1023407,2.6402779,-1
671,672,1583938262182,-1.1401,0.217,1.0164,7.02883,-5.1216574,2.6392147999999995,-1
672,673,1583938262192,-0.77919996,0.19669999,1.0073,7.4437169999999995,-5.1913857000000005,2.5277312000000003,-1
673,674,1583938262203,-0.4529,0.0525,0.6629,7.6788177,-5.322483,2.2202964,-1
674,675,1583938262213,-0.0853,-0.0708,-0.01,8.154449000000001,-5.4655795,1.2292885,-1
675,676,1583938262223,-0.0853,-0.0708,-0.01,8.533164999999999,-5.515475,0.4222893,d
676,677,1583938262233,0.8939,-0.1487,-1.6079999,8.990371000000001,-5.5499225,0.15433982,-1
677,678,1583938262243,1.0475,-0.3014,-0.88809997,9.015058999999999,-5.8079886,1.291959,-1
678,679,1583938262253,0.87049997,-0.6058,0.37019998,8.776665,-6.1149344,2.4488182000000003,-1
679,680,1583938262264,0.5232,-0.8073,1.3368,8.467880000000001,-6.279014,3.1795285,-1
680,681,1583938262274,0.35279998,-0.8947,1.7895,8.407259,-6.318221599999999,3.466153,-1
681,682,1583938262284,0.4901,-0.86539996,1.8283,8.6648655,-6.272224,3.2554342999999997,-1
682,683,1583938262294,0.9363,-0.79649997,1.2947999,9.219717,-6.1288114,2.5879597999999997,-1
683,684,1583938262305,1.3465999,-0.6392,0.67719996,9.536642,-6.033254599999999,2.0950606,-1
684,685,1583938262315,1.7775999,-0.5710000000000001,0.1218,9.985248,-6.000837000000001,1.7750133000000001,-1
685,686,1583938262325,2.2654998,-0.60179996,0.102699995,10.438680999999999,-6.0761199999999995,2.0281186,-1
686,687,1583938262335,2.6301,-0.76269996,0.65099996,10.78561,-6.2821937000000005,2.947588,-1
687,688,1583938262345,2.8488,-0.9295,1.5346999,10.914553,-6.3906126,3.8514947999999998,-1
688,689,1583938262355,2.9219999999999997,-1.0841,2.4522998,10.997421000000001,-6.5981326000000005,4.669544999999999,-1
689,690,1583938262365,2.9996998,-1.295,3.1768,11.1468,-6.713495,5.1468534,-1
690,691,1583938262375,3.3413,-1.4711,3.7545,11.788686,-6.9117440000000006,5.62216,-1
691,692,1583938262385,4.0185,-1.6308999,3.9108998999999995,12.493807,-6.916436999999999,5.633499,-1
692,693,1583938262395,4.7269998,-1.6189,3.8100998,13.278108999999999,-6.8226130000000005,5.452555,-1
693,694,1583938262405,5.4349,-1.5553,3.4961998,13.959326,-6.697050999999999,5.1319040000000005,-1
694,695,1583938262415,6.0102997,-1.3843,3.2075,14.319203,-6.3767357,5.149066,-1
695,696,1583938262426,6.1443,-1.1862999,3.3439998999999996,14.180627,-6.276189,5.4723597,-1
696,697,1583938262436,5.7949,-1.3151,3.7199998,13.741779000000001,-6.5024986,5.9949856,-1
697,698,1583938262446,5.337000000000001,-1.6699,4.3545,13.57746,-6.735004400000001,6.710756,-1
698,699,1583938262456,5.3145,-1.9819,5.0533,13.862983999999999,-6.838213400000001,7.0953507,-1
699,700,1583938262466,5.6133,-2.1053998,5.2121,14.151819,-6.731087,6.9538054,-1
700,701,1583938262476,5.6647997000000005,-2.0542998,4.9473,13.860369,-6.5115870000000005,6.450248,-1
701,702,1583938262487,5.2037,-1.9791,4.4618998,13.360526,-6.269351,6.0105095,-1
702,703,1583938262497,4.5049,-1.8003999,3.8485,12.747342999999999,-5.948155,5.249086,-1
703,704,1583938262507,3.8335,-1.6226,2.9989998,12.078699,-5.513847,4.1593604,-1
704,705,1583938262517,3.2293,-1.4212999,2.0811,11.666179,-5.155463,3.4813898,-1
705,706,1583938262527,2.77,-1.2413,1.5106,11.407749,-4.9229956,3.4043059999999996,-1
706,707,1583938262537,2.4555,-1.1782,1.6075,11.160705,-4.654644,3.72895,-1
707,708,1583938262548,2.1006,-1.0753,1.9964,10.727383999999999,-4.439951000000001,3.8687427000000003,-1
708,709,1583938262558,1.5604999,-1.0515,2.2236,10.314049,-4.331608999999999,4.162626,-1
709,710,1583938262568,1.1031,-1.0859,2.6696,10.055973,-4.147734,4.54793,-1
710,711,1583938262578,0.78779995,-1.0511,3.0849,9.744372,-3.8779267999999996,4.425318,-1
711,712,1583938262588,0.4294,-0.9575,2.9589,9.408112,-3.5201086999999998,3.6746972,-1
712,713,1583938262599,0.0088,-0.736,2.1102,8.987594,-3.492968,2.6400766,-1
713,714,1583938262609,-0.4843,-0.9528,1.1528,8.718792,-3.5094782999999996,1.6791015999999999,-1
714,715,1583938262619,-0.7188,-1.0774,0.228,8.879375999999999,-3.4085292999999997,0.6244557,-1
715,716,1583938262629,-0.5373,-1.1266999,-0.73109996,9.167743,-3.415999,-0.12676819,-1
716,717,1583938262639,-0.3031,-1.2962999,-1.35,9.465246,-3.271619,-0.4234481,-1
717,718,1583938262649,-0.096099995,-1.2867,-1.4397999,9.454291,-2.979584,0.24629632,-1
718,719,1583938262660,-0.1426,-1.1316998999999999,-0.7058,8.967435,-2.7088094,1.1106223,-1
719,720,1583938262670,-0.6583,-1.0009,0.2509,8.206078999999999,-2.4787076,2.022267,-1
720,721,1583938262680,-1.4653,-0.9123,1.2638999,7.645701400000001,-2.3781607000000005,2.3891833,-1
721,722,1583938262692,-2.1355,-0.7213,0.9698,7.637848399999999,-1.8754259999999998,0.9727163000000001,-1
722,723,1583938262703,-2.0079,-0.6184,-0.514,7.756141,-1.7473842000000002,-0.28978459999999995,-1
723,724,1583938262713,-1.7987,-0.7496,-1.6718,8.01098,-1.8361227999999998,-1.4554543,-1
724,725,1583938262723,-1.5698,-1.0402,-2.4659998,8.350621,-1.9613874,-2.2895176,-1
725,726,1583938262733,-1.0494,-0.99249995,-2.37,9.020461,-1.6525642,-1.7532740000000002,-1
726,727,1583938262743,-0.4612,-0.5247,-1.3838999,9.349358,-1.0249194,-0.9684546,-1
727,728,1583938262754,-0.6756,-0.0905,-0.82659996,8.812549,-0.5827486999999999,-0.5497949000000001,-1
728,729,1583938262764,-1.7220999,0.0343,-0.38419998,7.666598,-0.48685613,-0.26831338,-1
729,730,1583938262774,-2.8648999,-0.1627,-0.1601,6.5983334000000005,-0.7469621999999999,-0.23424868,-1
730,731,1583938262785,-3.5642998,-0.7012,-0.3383,6.2154055,-1.1547427,-0.75781274,-1
731,732,1583938262795,-3.4283,-0.9474,-0.81409997,6.830139999999999,-1.1779473,-1.2760042,-1
732,733,1583938262805,-2.6046,-1.0205,-1.3289,7.7275925,-1.3073204,-2.073197,-1
733,734,1583938262815,-1.7996,-1.2617999,-2.0485,8.242863999999999,-1.5017773,-2.4003596000000003,-1
734,735,1583938262825,-1.5526999,-1.4976,-1.913,8.096635000000001,-1.54811,-1.7972313999999998,-1
735,736,1583938262836,-1.923,-1.4799,-0.946,7.472772999999999,-1.2441517,-0.80335045,-1
736,737,1583938262846,-2.6160997999999998,-1.1486,-0.0352,6.7210984,-0.7094594,-0.31176338,-1
737,738,1583938262856,-3.4071,-0.6318,0.1845,5.886528,-0.103008136,-0.60024554,-1
738,739,1583938262866,-4.2374997,-0.2126,-0.3259,5.167578,0.09796116,-1.2808883,-1
739,740,1583938262876,-4.7447,-0.24489999,-0.9106,5.0667915,-0.13686216,-1.6135004,-1
740,741,1583938262887,-4.6444,-0.71309996,-1.0540999,5.4505053,-0.87102973,-1.7064816000000003,-1
741,742,1583938262897,-4.064,-1.5717,-1.0485,6.375683,-1.7285561999999999,-1.6145252,-1
742,743,1583938262907,-2.9050999,-2.2052,-0.95159996,7.7148457,-1.7498933,-1.8274654,-1
743,744,1583938262917,-1.9616,-1.9721999,-1.2256,7.9091973,-1.1662636,-2.4053970000000002,-1
744,745,1583938262927,-1.949,-1.4057,-1.8051,7.4246300000000005,-0.7273968000000001,-2.7207708,-1
745,746,1583938262937,-2.7396998,-0.9209,-1.8574,6.1288214000000005,-0.26786327,-2.0308669999999998,-1
746,747,1583938262948,-3.8822,-0.67609996,-1.0927,5.1218010000000005,-0.19414102,-1.1877443,-1
747,748,1583938262958,-4.7886,-0.706,-0.2059,4.6318417,-0.21883962,-0.2699606,-1
748,749,1583938262968,-5.1456,-0.7722,0.7346,4.8550963,-0.21950041,0.26151386,-1
749,750,1583938262978,-4.7777,-0.79639995,1.1298,5.754703,-0.19106688,0.023597252000000003,-1
750,751,1583938262989,-3.7739999999999996,-0.7559999999999999,0.8340000000000001,6.7406354,-0.07969819,-0.8083208000000001,-1
751,752,1583938262999,-2.8508,-0.59889996,-0.080699995,7.431133,0.08246588,-1.8610991000000001,-1
752,753,1583938263010,-2.224,-0.44309998,-1.0820999,7.7794604000000005,0.23414336,-2.536743,-1
753,754,1583938263020,-1.9807999,-0.2884,-1.5777,7.71293,0.19262789,-2.734044,-1
754,755,1583938263031,-2.0411,-0.3083,-1.7883999,7.674489,0.10173442,-2.8251007,-1
755,756,1583938263041,-2.0799,-0.3942,-1.8656,7.9967483999999995,-0.076873034,-2.7875595,-1
756,757,1583938263051,-1.8326999,-0.5212,-1.8449,8.359413,-0.09648633,-2.3925927000000002,-1
757,758,1583938263061,-1.0641999,-0.5082,-0.4955,8.672919,0.0253115,-1.4707581,-1
758,759,1583938263071,-1.1337,-0.3974,-0.1257,8.563322,0.16126385,-1.2822483,-1
759,760,1583938263082,-1.3307999,-0.30089998,-0.096099995,8.348371499999999,0.32513259999999994,-1.3378128999999999,-1
760,761,1583938263092,-1.5974,-0.085999995,-0.24399999,8.052054,0.5671289,-1.5265526000000003,-1
761,762,1583938263102,-1.9434999,0.0053,-0.1449,7.690319500000001,0.6331034999999999,-1.4102423000000002,-1
762,763,1583938263112,-2.1924,-0.1117,0.18509999,7.5035906,0.49766833,-1.0876284,-1
763,764,1583938263122,-1.9912,-0.3256,0.345,7.797244500000001,0.29578924,-1.0689918999999999,-1
764,765,1583938263133,-1.3399,-0.37039998,0.0030999999,8.529152,0.31240502,-1.4907257999999999,-1
765,766,1583938263142,-1.3399,-0.37039998,0.0030999999,9.144893,0.3954072,-1.8814210999999998,-1
766,767,1583938263152,-0.2651,-0.41419998,-0.78929996,9.455133,0.11703815,-2.3174148,-1
767,768,1583938263162,-0.2139,-0.6113,-0.9284,9.504817999999998,-0.025206156,-2.4414822999999997,-1
768,769,1583938263172,-0.1241,-0.6372,-1.1223999,9.56226,-0.03868072,-2.691983,-1
769,770,1583938263183,-0.0931,-0.6779999999999999,-1.4657999,9.607232000000002,-0.07974607,-2.9976556,-1
770,771,1583938263193,-0.0414,-0.63549995,-1.3823999,9.642617999999999,-0.029611487000000002,-2.8185213,d
771,772,1583938263203,0.0117,-0.6265,-0.7819,9.72724,0.022112846000000002,-2.1207263,-1
772,773,1583938263213,0.2131,-0.4141,0.2364,9.8899975,0.3992571,-1.0961325000000002,-1
773,774,1583938263223,0.2131,-0.4141,0.2364,9.775037,0.8951633,-1.3048016000000002,-1
774,775,1583938263233,-0.0933,0.5618,-0.248,9.465812,1.4133451000000001,-2.2233515,-1
775,776,1583938263244,-0.3293,0.93649995,-1.1772,9.293553,1.7015686999999997,-3.050979,-1
776,777,1583938263254,-0.3504,0.99149996,-1.6194998999999999,9.29862,1.5905256,-3.1128068,-1
777,778,1583938263264,-0.3116,0.7245,-1.2504,9.400239,1.2962784,-2.5706642000000004,-1
778,779,1583938263274,-0.16309999,0.4075,-0.7036,9.547205,1.043393,-2.2178736,-1
779,780,1583938263284,0.114199996,0.1972,-0.49249998,9.845791,0.8561187,-2.1160624,-1
780,781,1583938263295,0.2554,0.1422,-0.6383,9.961584,0.86151993,-2.4643424,-1
781,782,1583938263305,0.28939998,0.1629,-0.9774,9.905750999999999,0.8886798,-2.7856824000000002,-1
782,783,1583938263315,0.22559999,0.1909,-1.1991999,9.787937,0.97986054,-2.9348412,-1
783,784,1583938263325,0.053799997999999995,0.2958,-1.2166,9.570764,1.0222476,-2.8642216,-1
784,785,1583938263335,-0.1575,0.2348,-1.2164999,9.4482,0.9189138000000001,-3.0874189999999997,-1
785,786,1583938263346,-0.17369999,0.0999,-1.4555,9.536536,0.7612412,-3.2107107999999998,-1
786,787,1583938263355,-0.0341,-0.08800000000000001,-1.4725,9.70345,0.5267531,-3.1825932999999997,-1
787,788,1583938263365,0.12459999,-0.3213,-1.4613,9.831952000000001,0.299869,-3.289394,-1
788,789,1583938263375,0.2631,-0.5035,-1.6291,10.008682,0.15242445,-3.6670358,-1
789,790,1583938263385,0.4797,-0.6455,-2.2012,10.232138,0.07286993,-4.4905167,-1
790,791,1583938263395,0.6665,-0.6798,-3.1083998999999998,10.375952999999999,-0.0027198129999999997,-5.3316383,-1
791,792,1583938263406,0.79429996,-0.77599996,-3.7435,10.488921000000001,-0.17237294,-5.6287394,-1
792,793,1583938263416,0.8928,-0.93759996,-3.8509,10.521636,-0.27955657,-5.475683,-1
793,794,1583938263426,0.87369996,-1.0486,-3.5491,10.349110000000001,-0.31923327,-5.145417,-1
794,795,1583938263436,0.58,-1.0799,-3.3105998,9.887516999999999,-0.39877823,-5.048911599999999,-1
795,796,1583938263446,0.1876,-1.2152,-3.3040998,9.634881,-0.43269929999999995,-5.05574,-1
796,797,1583938263457,-0.0098,-1.2242,-3.3543,9.554732000000001,-0.3694349,-5.2759295,-1
797,798,1583938263467,-0.090799995,-1.2027,-3.6376,9.5436325,-0.3276034,-5.481486299999999,-1
798,799,1583938263477,-0.1039,-1.1709,-3.8564,9.438422000000001,-0.26961586,-5.6711454,-1
799,800,1583938263488,-0.23399999999999999,-1.1503999,-4.0933,9.279696000000001,-0.19755037,-5.903843,-1
800,801,1583938263498,-0.38329998,-1.0838,-4.3013997,9.059908,-0.027983429,-5.815477400000001,-1
801,802,1583938263508,-0.6502,-0.97239995,-4.1689,8.632610000000001,0.067621835,-5.230152599999999,-1
802,803,1583938263519,-1.1130999,-0.9345,-3.5312997999999998,8.099938,0.11356177,-4.2790989999999995,-1
803,804,1583938263529,-1.5957999,-0.9478,-2.7017999,7.7382894,0.097568505,-3.68641,-1
804,805,1583938263539,-1.9619999,-1.0065,-2.1842,7.5678606,0.17776470000000003,-3.626593,-1
805,806,1583938263549,-2.1341999,-0.94879997,-2.3346999,7.366834,0.15621687,-4.278745,-1
806,807,1583938263559,-2.2985,-1.0008,-2.9771,7.337299300000001,0.18967824,-4.605457299999999,-1
807,808,1583938263569,-2.3264,-0.9892,-3.3808,7.2634050000000006,0.23314735,-4.71811,-1
808,809,1583938263579,-2.4127,-0.95729995,-3.5809,7.043684,0.23389435,-4.2707195,-1
809,810,1583938263590,-2.6441,-0.97919995,-3.2061,6.959886599999999,0.27652073,-3.5375192,-1
810,811,1583938263600,-2.7354998999999998,-0.9291,-2.3281999,6.8016396,0.5045253,-2.2418442,-1
811,812,1583938263610,-2.8831,-0.7775,-1.2990999,6.2316475,0.63493276,-0.9766044,-1
812,813,1583938263620,-3.4601998,-0.6792,-0.0639,5.5404606,0.5800097,0.46443683,-1
813,814,1583938263630,-4.1451,-0.7751,1.3093,5.0087085,0.53654057,1.1580658000000001,-1
814,815,1583938263640,-4.6756,-0.83849996,1.9562998999999999,4.9376483,0.5083752,0.7945398,-1
815,816,1583938263651,-4.7589999999999995,-0.87119997,1.5257,5.5447702,0.7573339,0.28020778,-1
816,817,1583938263661,-3.6014,-0.0981,0.4145,6.165471599999999,1.3189848999999998,-0.19390161,-1
817,818,1583938263671,-3.6014,-0.0981,0.4145,6.293341000000001,1.6800496999999999,-0.034936193,-1
818,819,1583938263681,-3.5904998999999997,0.76919997,1.2031,6.07091,2.076692,1.0869101,-1
819,820,1583938263691,-4.0287,0.9069,2.1488,5.592032,2.1631994,2.167557,-1
820,821,1583938263702,-4.0287,0.9069,2.1488,4.9945726,1.9862106,3.7192678,-1
821,822,1583938263712,-5.1584,0.4809,4.9607,4.539972,1.5700504,5.231685,-1
822,823,1583938263722,-5.1584,0.4809,4.9607,4.531658599999999,1.3238212,6.399682,-1
823,824,1583938263732,-5.0632997,0.2259,7.4757,4.757039499999999,1.2636405000000002,7.851746,-1
824,825,1583938263742,-4.5787997,0.4446,8.2711,5.3331895,1.4506564,8.760307000000001,-1
825,826,1583938263753,-4.0136,0.8551,8.5682,5.9421697,1.8111081999999998,9.060042,-1
826,827,1583938263763,-3.5233998,1.1898,8.2457,6.388765,1.9221034,8.787448,-1
827,828,1583938263773,-2.8139,1.3081,7.5527997000000004,7.0906773,1.8481512999999998,8.274341999999999,-1
828,829,1583938263783,-2.0328999,1.0002,7.0297,7.899247,1.349305,7.892457,-1
829,830,1583938263793,-1.0435,0.5815,6.2879996,9.091042,0.7362841,6.984394,-1
830,831,1583938263803,-0.0716,0.4067,5.4709997,10.071009,0.57664824,6.8657184,-1
831,832,1583938263814,0.8124,0.50769997,6.5969,10.693012,0.70729506,8.924722000000001,-1
832,833,1583938263824,0.8394,0.6924,9.1282,10.164286,0.65626985,11.361187,-1
833,834,1583938263834,-0.44309998,0.4903,10.819799,8.629632,0.32961452,12.494083999999999,-1
834,835,1583938263844,-1.849,0.24499999,11.2483,7.584112599999999,0.16699079,12.449925,-1
835,836,1583938263855,-2.2189,0.3189,10.6174,7.5687995,0.21407995,11.676578999999998,-1
836,837,1583938263865,-1.5487,0.225,9.4682,8.688692,-0.04606444,10.395067999999998,-1
837,838,1583938263875,-0.1507,0.053099997,8.7831,10.221671,-0.34340516,9.588136,-1
838,839,1583938263885,1.328,-0.2227,7.5989,11.786004,-0.8559367,7.691105,-1
839,840,1583938263895,2.4164,-0.5553,5.8812,12.517767999999998,-1.3353325,6.154544400000001,-1
840,841,1583938263905,2.8968,-0.9341,4.7774997,12.693425999999999,-1.6973740000000002,5.636238,-1
841,842,1583938263915,2.8953998,-1.2968,4.6984997,12.356849,-2.0680156000000003,6.122194,-1
842,843,1583938263925,2.3037999,-1.4879999,5.5291,11.519195,-2.4480138,6.754349700000001,-1
843,844,1583938263935,1.4468,-1.8583,5.888,10.9951515,-2.7466376,6.5647573,-1
844,845,1583938263945,1.2083,-2.1137,5.2078,11.104461,-3.0222967,5.3643622,-1
845,846,1583938263955,1.7268,-2.3425999,3.4736,11.825738000000001,-3.2888286,3.4185083,-1
846,847,1583938263965,2.5904999,-2.5728,2.0500998,12.816908,-3.7203786,2.3251432999999997,-1
847,848,1583938263976,3.3281998999999995,-2.8786,1.6929,13.251714999999999,-3.9977133,2.0559106,-1
848,849,1583938263986,3.5077998999999997,-2.9931,1.4463999,13.177935999999999,-3.9738002,1.7519236,-1
849,850,1583938263996,3.3049,-2.7549999,1.2206,12.714437,-3.6552756,1.3803914,-1
850,851,1583938264006,2.6701999,-2.4496999,0.8208,11.962294,-3.6595948,0.7128399999999999,-1
851,852,1583938264016,1.9856999,-2.615,-0.0138,11.569032,-3.9647883999999998,-0.62745327,-1
852,853,1583938264026,1.8501999,-2.8909,-1.6341,12.013089,-4.303702400000001,-2.9992836,-1
853,854,1583938264037,2.4308999,-3.1055999,-3.4928,12.527727,-4.3547273,-3.9442269999999997,-1
854,855,1583938264047,3.4045,-3.016,-4.6811,13.789673,-4.1204786,-4.9324864999999996,-1
855,856,1583938264057,4.3588,-2.7203,-4.6126,13.908273000000001,-3.7743535,-3.6280105000000002,-1
856,857,1583938264067,3.9592,-2.4559,-3.0347,12.456399000000001,-3.7235584000000004,-2.014941,-1
857,858,1583938264077,2.3718,-2.4694,-1.3793,11.1053705,-3.7401261,-1.2625104999999999,-1
858,859,1583938264087,0.8132,-2.4917,-0.69479996,9.736625,-3.609403,-2.0417082,-1
859,860,1583938264098,-0.1273,-2.3865,-1.9302,9.488767999999999,-3.420845,-5.040005000000001,-1
860,861,1583938264108,-0.16399999,-2.1591,-5.1677,10.264144,-3.1616392,-8.470983,-1
861,862,1583938264118,0.79219997,-1.9042,-8.4199,11.444657000000001,-3.0815961,-10.806497,-1
862,863,1583938264128,1.9366,-1.8103,-10.451799000000001,12.331786,-3.0931554,-11.43442,-1
863,864,1583938264138,2.7280998,-1.7664,-10.670799,12.546526,-3.0754287000000002,-10.518341,-1
864,865,1583938264148,2.7821999,-1.7590000000000001,-9.6407995,11.905762,-3.267664,-9.65368,-1
865,866,1583938264159,2.0391,-1.9420998999999999,-8.8211,11.063931,-3.305454,-9.242902,-1
866,867,1583938264169,1.2251999,-1.9603,-8.472199,10.506312,-3.3606932,-9.201406,-1
867,868,1583938264179,0.7445,-2.0679998,-8.4228,10.316797,-3.415597,-9.413762,-1
868,869,1583938264189,0.618,-2.1396,-8.5557995,10.105953999999999,-3.1058638,-9.722901,-1
869,870,1583938264199,0.4139,-1.936,-8.9121,9.832171,-3.2480888,-10.289254,-1
870,871,1583938264209,0.073199995,-1.9552,-9.2992,9.466892999999999,-2.8462555,-9.942210000000001,-1
871,872,1583938264220,-0.2295,-1.6676999,-8.9221,9.153953,-2.6750414,-9.262564,-1
872,873,1583938264230,-0.5437,-1.5196999,-8.217299,8.93178,-2.6282492000000004,-8.850616,-1
873,874,1583938264240,-0.7603,-1.4787999,-7.8043,9.04086,-2.8150833,-8.927863,-1
874,875,1583938264250,-0.65419996,-1.6704999,-7.8935,9.513409,-3.0004612999999996,-9.019715,-1
875,876,1583938264260,-0.18509999,-1.8562,-7.9883,9.831071000000001,-3.2400062000000003,-9.027855,-1
876,877,1583938264270,0.1266,-2.1016,-8.016399,9.778494,-3.4922303999999995,-8.735992,-1
877,878,1583938264280,-0.1841,-2.5686,-7.152199700000001,9.422486,-3.6988022000000003,-7.818332700000001,-1
878,879,1583938264291,-0.1841,-2.5686,-7.152199700000001,9.151136,-3.6698132000000006,-7.031244,-1
879,880,1583938264301,-0.5624,-2.5860999,-6.0905,8.647972,-3.4899127,-5.8675947,-1
880,881,1583938264311,-1.0696,-2.4343,-4.9577,7.9820004,-3.204639,-5.0010085,-1
881,882,1583938264321,-1.744,-2.1871998,-4.1351,7.5165005,-2.9346304,-4.296471599999999,-1
882,883,1583938264331,-2.5716,-1.8170998999999999,-2.8618,7.1479273,-2.7773982999999998,-3.5143049,-1
883,884,1583938264342,-2.5960999,-1.9221,-2.3255,7.17638,-2.8910463,-2.9605644,-1
884,885,1583938264352,-2.4331,-2.0465,-1.8967999,7.367025999999999,-2.9977512,-2.4812453,-1
885,886,1583938264362,-2.2006,-2.0949,-1.3328999,7.559108,-3.0256867,-1.8537346000000001,-1
886,887,1583938264372,-2.3307,-2.1605,-0.8585,7.354978,-3.118965,-1.3648770000000001,-1
887,888,1583938264383,-2.7059,-2.1288,-0.3866,6.96661,-3.0408852000000004,-0.83860266,-1
888,889,1583938264393,-3.1497,-1.8815998999999999,0.063,6.443266,-2.7062426,-0.1781286,-1
889,890,1583938264403,-3.5834,-1.5928999,0.8028,6.080679,-2.4880834,0.5505419,-1
890,891,1583938264413,-4.0752,-1.3771,1.6669999,5.584715,-2.3043714,1.4492006000000002,-1
891,892,1583938264423,-4.4481,-1.2204,2.1176,5.287585,-2.1815486,1.8300990000000001,-1
892,893,1583938264434,-4.3779,-1.1962999,1.9787999,5.4535317,-2.2041787999999998,1.7061752000000001,-1
893,894,1583938264444,-4.0311,-1.1094998999999999,2.0860999,5.845155999999999,-2.1580472,2.121167,-1
894,895,1583938264454,-3.8100998,-1.1125,2.6399,5.973179,-2.2846238999999997,2.7679079,-1
895,896,1583938264465,-3.7745998,-1.0943,3.2287998,5.9661593,-2.1477044,3.3907258999999996,-1
896,897,1583938264475,-3.8465,-0.71419996,3.8253998999999994,5.692952,-1.7285084,4.2064114,-1
897,898,1583938264486,-4.173,-0.3256,4.518399700000001,5.330623,-1.3802955,4.9177669999999996,-1
898,899,1583938264496,-4.5379,0.066,5.1092997,5.0825260000000005,-1.2319604,5.324475,-1
899,900,1583938264506,-4.5873,0.1723,5.3991,5.358492,-1.375622,5.5910068,-1
900,901,1583938264516,-4.1535,-0.0209,5.6015997,5.798115,-1.7372901,5.721117,-1
901,902,1583938264526,-3.7658,-0.3091,5.6453,6.143962,-2.1898422,5.672725700000001,-1
902,903,1583938264536,-3.4836998,-0.5699,5.5399,6.217080999999999,-2.4177701000000003,5.580644599999999,-1
903,904,1583938264547,-3.4152,-0.6892,5.4705,6.282184,-2.5623798,5.786393,-1
904,905,1583938264557,-3.2961,-0.71819997,5.8711,6.4828663,-2.686208,6.6266046,-1
905,906,1583938264567,-2.9893,-0.73749995,6.9048996,6.866685400000001,-2.7787967,7.903566400000001,-1
906,907,1583938264577,-2.5348,-0.68039995,8.1949,7.3637314,-2.8338442,9.003406,-1
907,908,1583938264587,-2.0212,-0.70449996,8.890699,7.820775,-3.0697017000000004,8.808976,-1
908,909,1583938264597,-1.5859,-0.7715,8.1756,8.1067,-3.0067823,7.4785857,-1
909,910,1583938264608,-1.4056,-0.607,7.0730996,7.991701600000001,-3.098346,6.7004223,-1
910,911,1583938264618,-1.5587,-0.61329997,6.500099700000001,7.745185,-3.2744443,6.937257000000001,-1
911,912,1583938264628,-1.7504,-0.7291,6.9294,7.7023864,-3.4493169999999997,7.867519000000001,-1
912,913,1583938264638,-1.7147,-0.7539,7.8791,7.94625,-3.3768682,8.528136,-1
913,914,1583938264648,-1.3726,-0.5489,8.4185,8.439274000000001,-3.1439507,8.728924000000001,-1
914,915,1583938264658,-0.8513,-0.2313,8.5188,8.7438545,-3.069357,8.567124,-1
915,916,1583938264669,-0.55329996,-0.0678,8.282,8.928294000000001,-3.1171165000000003,7.8935966,-1
916,917,1583938264679,-0.3909,-0.0699,7.4756,8.8414135,-3.4371831,6.857185,-1
917,918,1583938264689,-0.4428,-0.3073,6.3764,8.862396,-3.8534007000000003,5.827687999999999,-1
918,919,1583938264699,-0.32639998,-0.6123,5.3991,9.189664,-4.2017856,5.1357446,-1
919,920,1583938264709,0.066599995,-0.86609995,4.7669,9.616522,-4.527263,4.882553,-1
920,921,1583938264719,0.5493,-1.0127,4.5772,10.029819,-4.6697372999999995,4.8318725,-1
921,922,1583938264730,0.97209996,-1.0232999,4.5048,10.337024000000001,-4.585222,4.6072674000000005,-1
922,923,1583938264740,1.26,-0.8448,4.2897997000000005,10.311012,-4.3439727,4.786871,-1
923,924,1583938264750,1.2714,-0.51269996,4.4542,9.929310000000001,-4.524476,4.974012,-1
924,925,1583938264760,0.93079996,-0.5933,4.6233,9.488748,-4.9607863,4.7601805,-1
925,926,1583938264770,0.5347,-0.9352,4.3855,9.41788,-5.458598,4.178342,-1
926,927,1583938264780,0.5172,-1.3188,3.7436,9.73445,-6.097131299999999,3.4484741999999997,-1
927,928,1583938264790,0.8982,-1.8525,2.9449,10.304491,-6.6176887,2.3340116,-1
928,929,1583938264800,1.5191,-2.2559,1.7428,10.992067,-6.755911,1.0992354,-1
929,930,1583938264810,2.2784998,-2.2802,0.4224,11.45997,-6.740070299999999,0.59906757,-1
930,931,1583938264821,2.7993999,-2.1569,-0.151,11.383432,-6.4990315,1.2212726999999999,-1
931,932,1583938264831,2.3097,-1.8231,1.1804999,10.707464,-6.631345,2.2103653,-1
932,933,1583938264841,1.5668,-2.0679998,1.8551999,9.976342,-6.933378,2.781143,-1
933,934,1583938264851,1.3047,-2.2077,1.9431,9.779442999999999,-7.136378,2.8116548,-1
934,935,1583938264861,1.4769999999999999,-2.2194,1.3196,9.936311,-7.1557135999999995,2.0861828,-1
935,936,1583938264871,1.6908,-2.0848,0.19319999,10.086484,-7.1017866,1.0242778000000001,-1
936,937,1583938264882,1.6908,-2.0848,0.19319999,10.143572,-7.16575,0.21694339999999998,-1
937,938,1583938264892,2.0104,-2.1146998,-1.6708,10.322275,-7.252103999999999,-0.58458745,-1
938,939,1583938264902,2.1908,-1.9969,-1.5677999,10.415668,-7.2203856,-0.26625440000000006,-1
939,940,1583938264912,2.0228999,-2.1885,-0.9964,10.180681,-7.5266614,0.32433772,-1
940,941,1583938264922,1.7902,-2.3878999,-0.7586,9.94017,-7.6523,0.36717477,-1
941,942,1583938264933,1.8370999,-2.2117,-1.4678,10.0803175,-7.4869084,-0.782473,-1
942,943,1583938264943,2.1455998,-1.9909999,-2.8894,10.397051,-7.2742167,-2.0782247,-1
943,944,1583938264953,2.4308,-1.7342,-3.7607,10.514663,-7.090965,-2.6512816000000003,-1
944,945,1583938264963,2.2805998,-1.6472,-3.8534,10.288650500000001,-7.1027154999999995,-2.5665748,-1
945,946,1583938264973,1.8831999,-1.6410999,-3.4617998999999995,9.784164,-7.0942397,-2.0344584,-1
946,947,1583938264984,1.4776,-1.6642,-2.9810998,9.3973465,-7.232558,-1.61962,-1
947,948,1583938264994,1.2341,-1.8511,-2.5698,9.241225,-7.394558999999999,-1.1959803,-1
948,949,1583938265004,1.2521,-1.8187,-2.3501,9.276305,-7.353847999999999,-1.1108234,-1
949,950,1583938265014,1.2752,-1.8245,-2.5962,9.221172,-7.451292,-1.5673977,-1
950,951,1583938265024,1.3886,-1.8515999,-3.5331,9.477075,-7.4503245,-2.6160772,-1
951,952,1583938265034,1.8722999,-1.7336999,-4.7153,9.92885,-7.376296000000001,-3.5307962999999996,-1
952,953,1583938265045,2.3102,-1.6978999,-5.3622,10.268846,-7.311978,-3.881681,-1
953,954,1583938265055,2.3753998,-1.5308,-4.9894,10.056815,-7.200686,-3.0504045,-1
954,955,1583938265065,1.7161,-1.5669999,-3.8521,9.038044000000001,-7.337739999999999,-1.7472596000000002,-1
955,956,1583938265075,0.9158,-1.5979999,-2.8901,8.485453,-7.1874223,-1.0896491000000001,-1
956,957,1583938265085,0.5208,-1.3736,-2.4919999,8.211164,-7.006239,-0.98367214,-1
957,958,1583938265096,0.31939998,-1.273,-2.4805999,8.096788,-7.051882000000001,-0.9141349,-1
958,959,1583938265106,0.32189998,-1.3247,-2.3727,8.24815,-7.120298399999999,-0.75574416,-1
959,960,1583938265117,0.5754,-1.3928,-2.4357,8.479382000000001,-7.2107224,-0.9399253000000001,-1
960,961,1583938265127,0.7912,-1.4419,-2.623,8.583921,-7.1812162,-0.77469665,-1
961,962,1583938265137,0.8757,-1.3771,-2.4499,8.535616000000001,-7.113135000000001,-0.45425668,-1
962,963,1583938265147,0.7856,-1.2981,-2.1792,8.271393,-7.00055,0.06754522,-1
963,964,1583938265157,0.49969998,-1.1563,-1.6114998999999999,7.8325830000000005,-6.804713700000001,0.9826378,-1
964,965,1583938265168,0.0491,-0.9598,-0.69049996,7.361232000000001,-6.696084,1.499479,-1
965,966,1583938265178,-0.4331,-0.8429,-0.2934,7.0502343,-6.475626,1.6373658000000002,-1
966,967,1583938265188,-0.6673,-0.6353,-0.19469999,7.098693400000001,-6.461126999999999,1.6201563,-1
967,968,1583938265198,-0.5135,-0.65749997,-0.24919999,7.527159700000001,-6.5058794,1.4257951000000002,-1
968,969,1583938265208,-0.0594,-0.6545,-0.4581,7.9278816999999995,-6.472389,1.3209865,-1
969,970,1583938265219,0.3284,-0.639,-0.551,8.202812,-6.6137815,1.2735333,-1
970,971,1583938265229,0.6015,-0.7568,-0.6328,8.382043,-6.5918407000000006,1.0977607,-1
971,972,1583938265239,0.76269996,-0.6723,-0.81759995,8.435635000000001,-6.3759604,0.81423926,-1
972,973,1583938265249,0.7827,-0.4508,-1.105,8.298475,-6.1054535,0.7183084,-1
973,974,1583938265259,0.64989996,-0.2235,-1.1064,7.9984817999999995,-5.80751,1.2804286,-1
974,975,1583938265269,0.3475,0.0801,-0.5237,7.830878299999999,-5.603476000000001,1.7727627000000001,-1
975,976,1583938265280,0.1635,0.27539998,0.0058999998,7.570810300000001,-5.751686599999999,2.032141,-1
976,977,1583938265290,-0.0946,0.1389,0.287,7.462296,-5.9964695,2.0244987,-1
977,978,1583938265300,-0.2004,-0.112799995,0.2789,7.730063400000001,-6.2087874,1.8990330000000002,-1
978,979,1583938265310,0.0814,-0.312,0.1422,8.205169,-6.424965,1.7555915000000002,d
979,980,1583938265320,0.5523,-0.51879996,-0.0185,8.739918,-6.4280105,1.1675563999999998,-1
980,981,1583938265330,1.1012,-0.5202,-0.61969995,9.031331,-6.487386,0.45815444,-1
981,982,1583938265341,1.4009,-0.57379997,-1.3419,9.073335,-6.576536999999999,0.18203595,-1
982,983,1583938265351,1.3328999,-0.6863,-1.3276,8.928495,-6.605785000000001,0.52287453,-1
983,984,1583938265361,1.095,-0.8023,-0.8304,8.697894999999999,-6.72673,1.0395719,-1
984,985,1583938265371,1.095,-0.8023,-0.8304,8.542713000000001,-6.749704400000001,1.5189581,-1
985,986,1583938265381,0.84489995,-0.86039996,-0.098799996,8.541247,-6.7287216,1.5379874,-1
986,987,1583938265392,1.0447999,-0.83809996,-0.5473,8.806994,-6.714204,1.0127665000000001,-1
987,988,1583938265401,1.4656,-0.852,-1.2832999,9.243927000000001,-6.752961,0.29433358,-1
988,989,1583938265411,1.9089999,-0.9226,-1.8585,9.671416,-6.819998700000001,-0.24057896,-1
989,990,1583938265421,2.2828,-1.0329,-2.2247,10.05921,-6.921139200000001,-0.6150800000000001,-1
990,991,1583938265431,2.5349,-1.1563,-2.5254998,10.250736,-7.092286,-0.8387368000000001,-1
991,992,1583938265441,2.6643999,-1.4896,-2.504,10.392864999999999,-7.394472599999999,-0.74689513,-1
992,993,1583938265451,2.9271998,-1.7281,-2.2798,10.722682,-7.6110334,-0.5331024999999999,-1
993,994,1583938265462,3.4134998,-1.9297999,-2.1520998,11.233775999999999,-7.7886157,-0.44202709999999995,-1
994,995,1583938265472,3.9259,-2.0667999,-2.0911,11.768688000000001,-7.8987107000000005,-0.38871300000000003,-1
995,996,1583938265482,4.3746,-2.1604,-1.9684,12.19909,-7.936194400000001,-0.2808303,-1
996,997,1583938265492,4.5642,-2.2205,-1.9329,12.363151,-8.020489999999999,-0.26548824,-1
997,998,1583938265502,4.504699700000001,-2.4233,-1.7591,12.334745,-8.147239,-0.09138189,-1
998,999,1583938265513,4.6387,-2.4229998999999998,-1.6112,12.524902,-8.092114,0.07506301,-1
999,1000,1583938265523,4.7911997,-2.4239,-1.3514999,12.755789,-8.076993,0.36379415,-1
1000,1001,1583938265533,5.0401,-2.5530999,-1.1726999,13.159825,-8.210187,0.43888590000000005,-1
1001,1002,1583938265543,5.5705,-2.7826,-1.0041,13.666707,-8.3802805,0.6162963,-1
1002,1003,1583938265553,6.1453,-2.9679,-0.5602,14.299331,-8.472419,1.1009209999999998,-1
1003,1004,1583938265563,6.3406,-3.0551,-0.0712,14.30592,-8.482877,1.5742738,-1
1004,1005,1583938265574,5.8993998,-3.0389999999999997,0.42999998,13.713679999999998,-8.375262,1.851532,-1
1005,1006,1583938265584,5.0295,-2.9391,0.5155,12.852189,-8.112446,1.8368028000000003,-1
1006,1007,1583938265594,4.0193,-2.4559,0.66359997,11.932281,-7.432684,2.0482779,-1
1007,1008,1583938265604,3.2818,-2.2877998,0.9456,11.570688,-7.433067299999999,2.2567362999999996,-1
1008,1009,1583938265614,3.1726,-2.314,1.6273999,11.683110000000001,-7.172022999999999,3.642864,-1
1009,1010,1583938265625,3.4385,-2.2753,2.9615998,11.989195,-7.2749352,4.3781524,-1
1010,1011,1583938265635,3.5105998999999994,-2.5804,3.3549,11.888916,-7.445297,4.3664303,-1
1011,1012,1583938265645,3.2382998,-2.6668,3.1791,11.634613,-7.319122999999999,4.174434,-1
1012,1013,1583938265655,2.747,-2.508,2.9793,10.916122999999999,-6.943136999999999,4.1387415,-1
1013,1014,1583938265665,1.9476,-2.3107,3.2737,10.184694,-6.5371184,4.583948,-1
1014,1015,1583938265675,1.2134,-1.926,3.577,9.765479,-6.07182,4.4755197,-1
1015,1016,1583938265686,0.8217,-1.5166,3.1232,9.522200999999999,-5.504087999999999,3.4957452000000004,-1
1016,1017,1583938265696,0.6069,-1.2269,1.9854,9.473645,-5.181369,2.1813571,-1
1017,1018,1583938265706,0.5779,-1.1355,1.0289,9.588069,-5.031683,1.9179758000000002,-1
1018,1019,1583938265716,0.55689996,-1.0972998999999999,1.3048999,9.414748,-4.8975024000000005,2.152301,-1
1019,1020,1583938265726,0.1867,-1.1859,1.4857,9.072224,-4.7385564,1.8093461,-1
1020,1021,1583938265737,-0.20349999,-1.0958999,1.1737,8.738855000000001,-4.5467234,1.3922762,-1
1021,1022,1583938265747,-0.51699996,-1.1622,1.0834,8.548028,-4.443178700000001,1.317826,-1
1022,1023,1583938265758,-0.7671,-1.1949999,1.1769,8.327963,-4.217827,1.3090633,-1
1023,1024,1583938265768,-1.1697999,-0.9975,1.3055999,7.805768,-3.6784801,1.179719,-1
1024,1025,1583938265778,-1.6861999,-0.7446,1.1645,7.3645744,-3.2668786,0.4741956,-1
1025,1026,1583938265789,-2.1490998,-0.5111,0.5067,7.135698,-2.7745830000000002,0.017439365,-1
1026,1027,1583938265799,-2.3525,-0.2744,0.2383,7.1454277,-2.2004247,0.34369245,-1
1027,1028,1583938265809,-2.375,0.27989998,0.7452,7.056881,-1.2646462,1.1380215,-1
1028,1029,1583938265819,-2.5207,0.8976,1.4533,6.5441675,-0.86506337,1.4613056999999998,-1
1029,1030,1583938265829,-3.0641,1.1384,1.8159999999999998,5.9611025,-0.9026235999999999,1.0427994,-1
1030,1031,1583938265839,-3.6708,0.9493,1.4374,5.883358,-1.2463927,-0.20134279,-1
1031,1032,1583938265850,-3.7714999,0.4737,0.2608,6.8274493000000005,-1.5067668,-1.1387686000000001,-1
1032,1033,1583938265860,-2.8469,0.09559999400000001,-0.6193,8.28299,-1.4335809,-1.1803128,-1
1033,1034,1583938265870,-1.4095,0.0707,-0.62259996,9.394685,-0.88652503,-0.68790203,-1
1034,1035,1583938265881,-0.3645,0.40359998,-0.1681,8.989144999999999,-0.51347965,-0.32180944,-1
1035,1036,1583938265891,-0.7234,0.7606,0.2925,7.792475,-0.39137536,0.19957107,-1
1036,1037,1583938265901,-3.9204,0.40539998,1.0375999,5.588057,-0.6373939999999999,0.31813195,-1
1037,1038,1583938265911,-3.9204,0.40539998,1.0375999,5.2121487,-0.80334085,-0.0894378,-1
1038,1039,1583938265921,-4.0056,-0.0994,0.2889,5.9717709999999995,-0.87184376,-0.44825202,-1
1039,1040,1583938265931,-2.7547998,-0.127,0.1309,7.275136,-0.8493287,-0.59005576,-1
1040,1041,1583938265942,-1.6409999,-0.1339,-0.0389,8.274725,-0.7872996999999999,-0.7588756999999999,-1
1041,1042,1583938265952,-1.0476999,-0.096,-0.2613,8.80822,-0.6356605,-0.99565274,-1
1042,1043,1583938265962,-0.9852,0.1537,-0.5837,8.685205999999999,-0.31947270000000005,-1.2766075000000001,-1
1043,1044,1583938265972,-1.6287,0.111899994,-0.84679997,7.992065400000001,-0.38486314,-1.5235742,-1
1044,1045,1583938265982,-2.379,-0.36339998,-1.1277,7.315675,-0.7924711999999999,-1.7762295,-1
1045,1046,1583938265992,-2.5976,-0.9072,-1.1678,7.2719088,-1.1799104999999999,-1.7339287,-1
1046,1047,1583938266002,-2.0005,-1.0526999,-0.7751,7.9369035000000006,-1.1281094999999999,-1.2594076,-1
1047,1048,1583938266013,-1.5294,-0.74549997,-0.0513,8.274486,-0.69380134,-0.5597069,-1
1048,1049,1583938266023,-1.6952,-0.3272,0.46949998,8.000914999999999,-0.15970284,-0.10820834,-1
1049,1050,1583938266033,-2.3511,0.071899995,0.65169996,7.0827,0.48029602,0.07685387,-1
1050,1051,1583938266043,-2.3511,0.071899995,0.65169996,6.197841,0.8760001000000001,0.24140257,-1
1051,1052,1583938266053,-4.0435,0.4772,0.9863,5.580195,0.9210110999999999,0.5737178,-1
1052,1053,1583938266063,-4.1877,0.4037,1.2166,5.7430673,0.94620764,0.6560208000000001,-1
1053,1054,1583938266074,-3.7240998999999997,0.33089998,1.0517,6.195514,0.94454134,0.5013171,-1
1054,1055,1583938266084,-3.0647,0.2277,0.7714,6.9756884999999995,0.8788636000000001,0.16278656,-1
1055,1056,1583938266094,-2.4345999,0.1547,0.3708,7.4727440000000005,0.9270636,-0.31322859999999997,-1
1056,1057,1583938266104,-2.2454998,0.1928,-0.16239999,7.496743700000001,1.0221709,-0.71516716,-1
1057,1058,1583938266114,-2.3988,0.19759999,-0.3198,7.2799726,1.0613304,-0.66835576,-1
1058,1059,1583938266125,-2.5904,0.23529999,-0.1611,7.1409173,1.2430886,-0.36259705,-1
1059,1060,1583938266135,-2.6146,0.3682,0.1757,7.2202516,1.3777195,-0.031919498,-1
1060,1061,1583938266145,-2.4714,0.36479998,0.5870000000000001,7.27255,1.2832153999999998,0.41326794,-1
1061,1062,1583938266155,-2.4752,0.080699995,0.8272,7.3026886,1.0708307,0.55648905,-1
1062,1063,1583938266165,-2.3515,-0.0317,1.0128,7.4263639999999995,1.2042068000000001,0.6168899999999999,-1
1063,1064,1583938266175,-2.3360999,0.087699994,0.86719996,7.332396000000001,1.4082121,0.34972584,-1
1064,1065,1583938266185,-2.4780998,0.2618,0.583,7.192766000000001,1.6110106000000002,0.11185710000000001,-1
1065,1066,1583938266196,-2.5128,0.4122,0.445,7.372111,1.7869267,0.18976443,-1
1066,1067,1583938266206,-2.2052999,0.6001,0.60969996,7.822603999999999,1.9941689999999999,0.25095063,-1
1067,1068,1583938266216,-1.7421,0.70879996,0.4955,8.180585,1.9191154,-0.13607684,-1
1068,1069,1583938266226,-1.3971,0.5046,-0.0513,8.58125,1.6013091,-0.7587704000000001,-1
1069,1070,1583938266237,-1.0926,0.2146,-0.4711,8.806774,1.3317508,-0.77558726,-1
1070,1071,1583938266247,-0.83699995,-0.10669999599999999,-0.355,8.958260000000001,1.1962007,-0.4011437,-1
1071,1072,1583938266257,-0.7672,-0.11699999999999999,-0.0212,8.795061,1.3697515,0.039303213,-1
1072,1073,1583938266267,-0.98109996,0.0541,0.43269998,8.430483,1.5773383,0.62740535,-1
1073,1074,1583938266277,-1.3417,0.2529,1.0062,8.170702,1.7485143,0.78411067,-1
1074,1075,1583938266287,-1.5654,0.3762,1.0115,8.157658999999999,1.7947702,0.37813064,-1
1075,1076,1583938266298,-1.4275999,0.38169998,0.36229998,8.75481,1.6632328,-0.4740232,-1
1076,1077,1583938266308,-0.82049996,0.23249999,-0.3202,9.526097,1.4114585,-1.1676426000000002,-1
1077,1078,1583938266318,-0.0185,-0.0064,-0.96129996,10.111978,1.2209567,-1.4142646,-1
1078,1079,1583938266329,0.4305,-0.1671,-1.0936999,10.037011,1.0520219,-1.0606505,d
1079,1080,1583938266339,0.3218,-0.2979,-0.7497,9.815624,1.1206397,-0.6089986999999999,-1
1080,1081,1583938266349,0.0378,-0.1846,-0.17729999,9.4835,1.3831208000000002,0.21883003,-1
1081,1082,1583938266359,-0.3139,0.0778,0.68259996,8.929587,1.6642957999999999,0.94052863,-1
1082,1083,1583938266370,-0.7829999999999999,0.2785,1.1948999,8.583778,1.6979296000000001,0.62259775,-1
1083,1084,1583938266380,-1.1251,0.3071,0.86359996,8.740599000000001,1.5715731000000002,-0.010362105,-1
1084,1085,1583938266390,-0.97849995,0.19029999,0.2341,9.366739,1.4095621999999999,-0.62562406,-1
1085,1086,1583938266400,-0.34309998,0.037299998,-0.3892,10.007427999999999,1.207166,-0.8521347,-1
1086,1087,1583938266410,0.2814,-0.1378,-0.6084,10.1935625,1.1342866000000003,-0.6086923000000001,-1
1087,1088,1583938266420,0.475,-0.19829999,-0.3777,10.082941,1.1757636999999999,-0.24106738,-1
1088,1089,1583938266431,0.3069,-0.1113,0.074499995,9.78358,1.418459,0.20814233,-1
1089,1090,1583938266441,0.061699998,0.0927,0.3945,9.520553,1.533668,0.13133633,-1
1090,1091,1583938266451,-0.20199999,0.2013,0.30069998,9.411847,1.5119288,0.01931642,-1
1091,1092,1583938266461,-0.2188,0.1294,0.1252,9.528636,1.4949491000000001,-0.06834967,-1
1092,1093,1583938266471,-0.109799996,0.0232,0.0278,9.630436999999999,1.3349303,-0.15923357,-1
1093,1094,1583938266481,0.0088,-0.18959999,0.060599997999999995,9.751373,1.1560641999999999,-0.09375694,-1
1094,1095,1583938266491,0.0088,-0.18959999,0.060599997999999995,9.784307499999999,1.1740016000000002,0.08040687,-1
1095,1096,1583938266501,0.068799995,-0.20699999,0.2408,9.62018,1.2741941,0.37748897,-1
1096,1097,1583938266511,-0.0964,-0.1191,0.5441,9.35133,1.3509906999999999,0.79554534,-1
1097,1098,1583938266521,-0.3594,-0.053299997,0.96,9.215933999999999,1.4784674999999998,1.0240767,-1
1098,1099,1583938266531,-0.42549998,0.2785,0.8551,9.282914,1.7321858,0.6063746999999999,-1
1099,1100,1583938266542,-0.4739,0.341,0.305,9.223509,1.7695928,0.11381078,-1
1100,1101,1583938266552,-0.4739,0.341,0.305,9.162696,1.7565587,0.003083732,-1
1101,1102,1583938266562,-0.5804,0.28059998,0.26229998,9.12572,1.7016933,0.26186820000000005,-1
1102,1103,1583938266572,-0.5804,0.28059998,0.26229998,9.167580000000001,1.620415,0.40731117,-1
1103,1104,1583938266582,-0.39139998,0.0576,0.6856,9.3508415,1.4905246,0.64650154,-1
1104,1105,1583938266593,-0.3108,-0.0334,0.84889996,9.408974,1.4294437,0.78033733,-1
1105,1106,1583938266603,-0.30769998,-0.0312,1.1417,9.360764,1.4928709,1.0408074,-1
1106,1107,1583938266613,-0.67649996,0.2496,1.3291998999999999,8.761294,1.9196229999999999,1.2268656,-1
1107,1108,1583938266623,-1.4077,0.606,1.5146998999999999,8.131378999999999,2.2481074,1.379836,-1
1108,1109,1583938266633,-2.1299,0.907,1.6984999,7.284876,2.547469,1.6075628,-1
1109,1110,1583938266645,-2.6771,1.0509,1.8561,6.958153200000001,2.6625726000000003,1.7558403999999999,-1
1110,1111,1583938266655,-2.7361,1.1195998999999999,2.0036,6.9920073,2.6954974999999997,1.9984401000000003,-1
1111,1112,1583938266665,-2.6597,1.083,2.2457,7.0786869999999995,2.554594,2.2190323,-1
1112,1113,1583938266676,-2.6053998,0.8677,2.3947,7.1567473,2.2602031000000005,2.0659566000000003,-1
1113,1114,1583938266686,-2.4998,0.68729997,2.1216,7.2451034,2.1942859,1.9155337,-1
1114,1115,1583938266696,-2.5133,0.7428,2.2296,6.992553,2.3881779,2.401231,-1
1115,1116,1583938266706,-2.8889,1.038,2.8646998,6.4297724,2.7611659,3.0009212000000005,-1
1116,1117,1583938266716,-3.5876,1.4346,3.3901,5.5944834000000006,3.0955112000000002,3.3980906,-1
1117,1118,1583938266727,-4.4927,1.6859,3.5259,4.649655,2.9877722,3.2065926,-1
1118,1119,1583938266737,-5.388,1.3707,3.1494,4.13154,2.3679516,2.6512816000000003,-1
1119,1120,1583938266747,-5.5411997,0.66859996,2.5212998,4.5734234,1.6434662,1.976653,-1
1120,1121,1583938266757,-4.6084,0.1085,1.9696,6.117923,1.2707656999999999,1.5910524,-1
1121,1122,1583938266767,-2.9413,0.0167,1.7619999999999998,7.5765185,1.1851491000000003,1.5227601999999998,-1
1122,1123,1583938266777,-1.8621999,0.024,1.7801,7.932594,1.3563823999999998,1.5341756000000002,-1
1123,1124,1583938266788,-1.9677,0.3876,1.9196,6.6779646999999995,1.9202935,2.5465496,-1
1124,1125,1583938266799,-3.4733998999999995,1.0126,3.1035,4.4663067000000005,2.4813123,4.326868,-1
1125,1126,1583938266809,-5.2917,1.4851999,4.5628,3.6228771,2.7301368999999998,5.4402776,-1
1126,1127,1583938266819,-6.2279,1.7975999,5.8419,3.5870314,2.4307467999999997,5.65316,-1
1127,1128,1583938266829,-6.1853,1.5379,5.8403997,4.2991147000000005,1.7192762,4.725158,-1
1128,1129,1583938266839,-5.2327,0.7065,4.6691,6.1745887,0.20770179,3.2956092000000003,-1
1129,1130,1583938266850,-3.6237998,-0.45459998,3.5121998999999997,7.733233500000001,-0.97801226,1.8614631999999998,-1
1130,1131,1583938266860,-2.0625,-1.4708999,2.1232,8.901546000000002,-1.5604641000000001,0.6780571,-1
1131,1132,1583938266870,-0.9009,-1.8985,0.97639996,9.917856,-1.363019,0.51376694,-1
1132,1133,1583938266880,0.1061,-1.5647,0.8368,10.12914,-0.9733196,1.1238096000000002,-1
1133,1134,1583938266890,0.3206,-1.0572,1.4699,9.391879,-0.7006679,1.9676986,-1
1134,1135,1583938266901,-0.4145,-0.701,2.3355,8.380453,-0.7933044,2.3979175,-1
1135,1136,1583938266911,-1.4373,-1.4848,2.1269999,8.525752,-1.8224854,1.3651068000000002,-1
1136,1137,1583938266921,-0.37019998,-2.1213,0.6659,9.678858,-2.5697637,-0.26386017,-1
1137,1138,1583938266931,0.75879997,-2.7080998,-0.57519996,10.819647,-3.3573892,-1.6969813999999999,-1
1138,1139,1583938266941,1.4483,-3.2756,-1.7782999,11.330511999999999,-3.9594924,-2.7973182,-1
1139,1140,1583938266951,1.4483,-3.2756,-1.7782999,11.731463,-4.0758986,-2.858715,-1
1140,1141,1583938266961,2.6564,-2.9943,-1.3045,12.484421000000001,-3.75475,-1.9892081000000001,-1
1141,1142,1583938266972,2.7628999,-2.5391,-1.1182,12.462385000000001,-3.4251735,-1.9748526000000002,-1
1142,1143,1583938266982,2.4974,-2.3206,-1.8036,12.202316999999999,-3.3917887,-2.780923,-1
1143,1144,1583938266992,2.6648998,-2.4294999,-2.8916,12.491297,-3.6487634,-3.8259343999999995,-1
1144,1145,1583938267002,3.1680999,-2.6666,-3.7777998,12.955035,-4.037285,-4.678807,-1
1145,1146,1583938267013,3.4668,-3.1146998,-4.3272,13.265017000000002,-4.651818799999999,-5.2211504,-1
1146,1147,1583938267022,3.707,-3.4257,-4.5734997,13.414520000000001,-4.9363747,-5.389645,-1
1147,1148,1583938267032,3.707,-3.4257,-4.5734997,13.513879999999999,-4.9659095,-5.5168056,-1
1148,1149,1583938267042,3.9868,-2.9564998,-4.736799700000001,13.6271925,-4.439645,-5.5203489999999995,-1
1149,1150,1583938267052,3.6229,-2.3727999,-4.888099700000001,13.099109,-3.96,-5.760516,-1
1150,1151,1583938267062,2.6692,-2.1425,-5.3422,12.134274000000001,-3.8751303999999998,-6.213375,-1
1151,1152,1583938267073,2.0887,-2.3552,-5.8080997000000005,11.74107,-4.247314,-6.855557000000001,-1
1152,1153,1583938267083,2.4421,-2.6201,-6.4309998,12.2034,-4.43863,-7.377110000000001,-1
1153,1154,1583938267093,3.1799,-2.7221,-7.2137,13.019191000000001,-4.6849833,-8.307516,-1
1154,1155,1583938267103,3.6239998,-2.9043,-7.7373,13.225809,-4.8330025999999995,-8.675649,-1
1155,1156,1583938267113,3.5665998,-2.9668,-7.9086,13.120388,-4.898728,-8.815278,-1
1156,1157,1583938267124,3.4673,-2.8628,-7.883599799999999,12.922522,-4.7847643,-8.687380000000001,-1
1157,1158,1583938267134,3.0507998,-2.6123998,-7.6191998,12.398439999999999,-4.5574875,-8.355074,-1
1158,1159,1583938267144,2.5233998,-2.4196,-7.2405996,11.875863,-4.4022955999999995,-7.951871400000001,-1
1159,1160,1583938267154,1.9451,-2.3394,-6.9307,11.2516365,-4.411585,-7.7196436,-1
1160,1161,1583938267164,1.3168,-2.4180999,-6.7957997,10.762185,-4.480346,-7.581144,-1
1161,1162,1583938267175,0.81589997,-2.5444999,-6.6067,10.303964,-4.6767955,-7.2982163,-1
1162,1163,1583938267185,0.6591,-2.6859999,-6.3722,10.189579,-4.856466,-6.9917583,-1
1163,1164,1583938267195,0.5913,-2.8042998,-6.210099700000001,10.079503,-4.9074626,-6.7784257,-1
1164,1165,1583938267205,0.4156,-2.7473,-5.9596995999999995,9.8207855,-4.771682299999999,-6.34587,-1
1165,1166,1583938267215,0.1312,-2.5886998,-5.5368,9.635973,-4.676278,-6.074789,-1
1166,1167,1583938267226,-0.1149,-2.4348,-5.165499700000001,9.358522,-4.465282,-5.5270529999999995,-1
1167,1168,1583938267236,-0.2823,-2.3177,-4.8231,9.119045,-4.4133754000000005,-5.176628,-1
1168,1169,1583938267246,-0.5682,-2.3327,-4.4265,8.802196499999999,-4.579791999999999,-4.6834607,-1
1169,1170,1583938267256,-0.903,-2.5554,-3.9145,8.512805,-4.7644134000000005,-4.2606444,-1
1170,1171,1583938267266,-1.1101999,-2.7377,-3.5704,8.494533,-4.8943133,-3.983626,-1
1171,1172,1583938267276,-1.0425,-2.7798998,-3.2726,8.576661999999999,-4.838058999999999,-3.5951044999999997,-1
1172,1173,1583938267287,-0.9848,-2.7034,-2.8437997999999998,8.569155,-4.734342,-3.032582,-1
1173,1174,1583938267297,-1.0356,-2.5207,-2.3302,8.367074,-4.397957,-2.8046922999999997,-1
1174,1175,1583938267307,-1.3810999,-2.2231,-2.3467999,8.021438,-4.2387809999999995,-2.9356837000000002,-1
1175,1176,1583938267317,-1.6384,-2.0918999,-2.4642,7.9135740000000006,-4.220805,-2.8178123999999998,-1
1176,1177,1583938267327,-1.6396998999999999,-2.1622999,-2.2967,8.227253,-4.410282,-2.4091606,-1
1177,1178,1583938267338,-1.2674,-2.3955998,-1.8039,8.575006,-4.673865,-1.4918653999999998,-1
1178,1179,1583938267348,-0.95379996,-2.6385,-0.8192,8.792753999999999,-4.7084660000000005,-0.67993414,-1
1179,1180,1583938267358,-0.7585,-2.4921,0.059699997000000005,8.686441,-4.344499,-0.013455413999999999,-1
1180,1181,1583938267368,-0.96599996,-2.2314,0.40699998,8.330250999999999,-4.220039,-0.16388789,-1
1181,1182,1583938267378,-1.3208,-2.1169,0.17449999,8.165215,-4.0555959999999995,-0.18506221,-1
1182,1183,1583938267389,-1.4391999,-1.9275999,0.21589999,8.2467985,-3.926395,0.014920665,-1
1183,1184,1583938267399,-1.2421,-1.828,0.3184,8.849478,-3.8700737999999997,0.20652384,-1
1184,1185,1583938267409,-0.5922,-1.7307999,0.53249997,9.440883,-3.6628220000000002,0.8185584,-1
1185,1186,1583938267419,-0.0687,-1.5027,1.1883999,9.640866,-3.5485518,1.9035628,-1
1186,1187,1583938267429,0.0625,-1.3543,2.2803,9.479392,-3.2227007999999997,2.9433455000000004,-1
1187,1188,1583938267439,-0.1495,-1.0216,3.1931998999999998,9.343017999999999,-3.0805235,3.6107150000000003,-1
1188,1189,1583938267450,-0.2234,-0.8825,3.6894998999999995,9.531519,-3.058928,4.2360706,-1
1189,1190,1583938267460,-0.0309,-0.8354,4.2781,9.710969,-3.1302272999999996,5.1497555,-1
1190,1191,1583938267470,0.1628,-0.8714,5.1644,9.854859,-3.2445647999999996,5.7708306,-1
1191,1192,1583938267480,0.30859998,-0.95299995,5.7553,10.253974000000001,-3.2050316000000003,5.7581987,-1
1192,1193,1583938267490,0.7108,-0.8731,5.7128997,11.000667,-2.8286439999999997,5.456376000000001,-1
1193,1194,1583938267501,1.4771,-0.4558,5.3726997,11.622192,-2.7512155,5.6531987,-1
1194,1195,1583938267510,2.1069999,-0.33069998,5.5414,11.813939,-2.9990728,6.5189330000000005,-1
1195,1196,1583938267520,2.3149,-0.5317,6.3718,11.775881,-3.3107789,7.365493300000001,-1
1196,1197,1583938267530,2.2865,-0.7959999999999999,7.1871996,11.825911,-3.3503692000000003,7.775333,-1
1197,1198,1583938267540,2.5895,-0.68119997,7.7836,12.107066,-3.229079,8.052888000000001,-1
1198,1199,1583938267550,2.7639,-0.616,7.9438996,12.221164,-3.2400444,8.225462,-1
1199,1200,1583938267561,2.7639,-0.616,7.9438996,12.167803,-3.175353,8.078994,-1
1200,1201,1583938267571,2.7110999,-0.55759996,7.7984995999999995,12.155534,-2.99959,7.7109,-1
1201,1202,1583938267581,2.8065,-0.27399999999999997,7.0536,12.277141,-2.9008529999999997,7.357392,-1
1202,1203,1583938267591,2.9150999,-0.2253,6.933399700000001,12.386546000000001,-2.8740666,7.296167,-1
1203,1204,1583938267601,3.0311,-0.3408,6.8241997,12.516245,-2.9977129000000002,7.1248380000000004,-1
1204,1205,1583938267612,3.0311,-0.3408,6.8241997,12.733878,-3.0768362999999996,6.856141,-1
1205,1206,1583938267622,3.5298998,-0.45799997,6.2658,12.998284,-3.0285884999999997,6.6208963,-1
1206,1207,1583938267632,3.3339999,-0.42279997,6.3588,12.708126,-2.9593866,6.729277000000001,-1
1207,1208,1583938267642,2.7533,-0.4076,6.357199700000001,12.146197,-2.9042146,6.671309,-1
1208,1209,1583938267652,2.4168,-0.3005,6.0982,11.904287,-2.7199855,6.326754599999999,-1
1209,1210,1583938267663,2.5613,-0.214,5.2486997,12.15019,-2.631314,5.392355,-1
1210,1211,1583938267673,3.0298,-0.2355,4.1891,12.753424,-2.5652149,4.228687,-1
1211,1212,1583938267683,3.37,-0.22119999,3.5117,12.979906,-2.5417897999999997,3.7242286,-1
1212,1213,1583938267693,3.4926,-0.27339998,3.2459,13.04772,-2.4392989,3.6387748999999996,-1
1213,1214,1583938267704,3.3876998,-0.17799999,3.2217,12.850141,-2.3014982,3.5557727999999997,-1
1214,1215,1583938267714,3.3876998,-0.17799999,3.2217,12.681024,-2.3483574000000003,3.329396,-1
1215,1216,1583938267724,3.1046999,-0.26479998,3.0419998,12.890353,-2.234834,2.824162,-1
1216,1217,1583938267734,3.4332,-0.2472,1.8924999,13.133738500000002,-2.2000607999999997,1.9488035,-1
1217,1218,1583938267744,3.5623998999999995,-0.3883,1.273,13.208151,-2.2153451,1.6290339,-1
1218,1219,1583938267754,3.4362998,-0.43789998,1.3528999,12.927567999999999,-2.1752757999999996,1.8630146,-1
1219,1220,1583938267765,2.9078,-0.6022,1.6029999,12.3179,-2.2815976000000004,2.0203613999999996,-1
1220,1221,1583938267775,2.2523,-0.8103,1.7465998999999999,11.777883000000001,-2.3917787,2.1390085,-1
1221,1222,1583938267785,1.9116,-1.078,1.7078999,11.594755000000001,-2.5480628,1.9944084,-1
1222,1223,1583938267795,1.9253,-1.3040999,1.4317,11.776925,-2.645526,1.5989245,-1
1223,1224,1583938267806,2.2639,-1.4892,0.9963,12.159816000000001,-2.6951146,0.9764608,-1
1224,1225,1583938267815,2.4366,-1.6178,0.44129997,12.124965,-2.6938887,0.50888276,-1
1225,1226,1583938267825,2.1194,-1.7041,0.0685,11.689231,-2.62348,0.24381591,-1
1226,1227,1583938267835,1.607,-1.6403999,0.1503,11.023594000000001,-2.3398437999999997,0.56053054,-1
1227,1228,1583938267845,0.98819995,-1.5313,0.60749996,10.390769,-2.1326494,0.9774568000000001,-1
1228,1229,1583938267855,0.32209998,-1.4519,0.9266,9.739421,-1.9167308999999997,1.0057274999999999,-1
1229,1230,1583938267866,-0.2828,-1.3771,0.81949997,9.294406,-1.8201104,0.64069796,-1
1230,1231,1583938267876,-0.5819,-1.4409,0.385,9.200477000000001,-1.7017026999999998,-0.030703242999999998,-1
1231,1232,1583938267886,-0.59499997,-1.3579,-0.3945,9.2674,-1.481331,-0.9550470999999999,-1
1232,1233,1583938267896,-0.5086,-1.2681999,-1.1626999,9.259134,-1.3227485,-1.3734481,-1
1233,1234,1583938267908,-0.6074,-1.2163,-1.1863999,9.085641,-1.1575677,-0.90690446,-1
1234,1235,1583938267919,-0.7833,-1.1467999,-0.6757,8.721942,-1.0262314000000001,-0.77885294,-1
1235,1236,1583938267929,-1.0947,-1.1596,-0.5502,8.510085,-0.90429956,-1.0420426999999999,-1
1236,1237,1583938267939,-1.2961999,-1.1352999,-0.7147,8.475722,-0.94022214,-0.9950302,-1
1237,1238,1583938267949,-1.2995,-1.3145,-0.5132,8.594878,-1.0407596,-0.7138359999999999,-1
1238,1239,1583938267959,-1.2034,-1.4708999,-0.2127,8.447366,-0.7859111,-0.8263348,-1
1239,1240,1583938267969,-1.4107,-1.2530999,-0.32209998,7.906946700000001,-0.43149263,-1.2045708000000002,-1
1240,1241,1583938267980,-1.8729999,-1.054,-0.59,7.526776299999999,-0.05588067,-1.4608845,-1
1241,1242,1583938267990,-2.2468998,-0.76339996,-0.81,7.371,0.0865456,-1.9711462,-1
1242,1243,1583938268000,-2.3946,-0.73109996,-1.2836,7.500325,0.19552967,-2.3819244,-1
1243,1244,1583938268010,-2.247,-0.7029,-1.6487,7.751161,0.32934640000000004,-2.6287951,-1
1244,1245,1583938268021,-1.9478999,-0.8251,-1.7277,7.756342,0.19854635,-2.5498729,-1
1245,1246,1583938268031,-1.9478999,-0.8251,-1.7277,7.565753999999999,0.26699179999999995,-2.1385584,-1
1246,1247,1583938268042,-2.1390998,-0.86759996,-1.2232,7.0835614,0.46156379999999997,-1.5017295,-1
1247,1248,1583938268052,-3.2136998,-0.6719,-0.14729999,6.3342915,0.65866405,-1.158401,-1
1248,1249,1583938268063,-3.6285,-0.6685,-0.1804,5.968314,0.8372619000000001,-1.4062104,-1
1249,1250,1583938268073,-3.6427998999999995,-0.5079,-0.44759998,6.0080480000000005,1.0873506000000002,-1.7029191000000004,-1
1250,1251,1583938268083,-3.5805,-0.40399998,-0.8779,6.081368,1.1046847,-2.2976964,-1
1251,1252,1583938268093,-3.5191998,-0.4976,-1.6337,6.1135077,1.0913153999999998,-2.972756,-1
1252,1253,1583938268104,-3.3792,-0.51949996,-2.2682,6.3263426,1.1287704,-3.5563663999999995,-1
1253,1254,1583938268114,-3.1783997999999998,-0.4951,-2.247,6.390038,1.2430695,-3.3594095999999998,-1
1254,1255,1583938268124,-3.4259998999999994,-0.4879,-1.7391,5.912749,1.2270666000000001,-2.7351360000000002,-1
1255,1256,1583938268134,-4.0439,-0.6059,-0.8172,5.2610474,1.2851692,-1.7172077000000001,-1
1256,1257,1583938268144,-4.6419997,-0.4793,0.1981,4.5954976,1.4880347,-0.98128754,-1
1257,1258,1583938268155,-5.3405,-0.3838,0.48729998,3.935742,1.5685661,-1.0332033999999999,-1
1258,1259,1583938268165,-5.7004,-0.4012,0.2038,3.9414306000000003,1.6743323,-1.4978892,-1
1259,1260,1583938268175,-5.3494,-0.2446,-0.32549998,4.3976793,1.9324368000000003,-2.1006632,-1
1260,1261,1583938268185,-4.8353,0.101799995,-1.1157,4.741209,2.3054533,-2.9712427000000003,-1
1261,1262,1583938268195,-4.8025,0.3241,-1.6804999,4.5505157,2.5057907000000004,-3.2517185,-1
1262,1263,1583938268205,-5.0038,0.5243,-1.8392998999999999,4.334003,2.7658009999999997,-3.4168897000000005,-1
1263,1264,1583938268216,-5.2531,0.7626,-1.9832,4.1469297,2.9621543999999997,-3.3984449999999997,-1
1264,1265,1583938268226,-5.3325996,0.9562,-1.6935999,4.225297,3.1954740000000004,-2.7209048,-1
1265,1266,1583938268236,-5.2212,1.1357,-0.877,4.219809,3.2474568,-2.018724,-1
1266,1267,1583938268246,-5.3262997,1.0442,-0.33409998,4.048681299999999,3.0013714,-1.6494997,-1
1267,1268,1583938268256,-5.4258,0.7879999999999999,-0.0277,4.119587999999999,2.8217103,-1.5034341999999998,-1
1268,1269,1583938268266,-5.3143997,0.7133,-0.054199997,4.253089,2.8064642,-1.8485631,-1
1269,1270,1583938268277,-5.1977,0.6633,-0.5595,4.3906403,2.517436,-2.3951402,-1
1270,1271,1583938268287,-5.0053997,0.3707,-1.1371,4.804033,2.1129215,-2.9148831000000004,-1
1271,1272,1583938268297,-4.6184,0.106,-1.4297999,5.0922184,1.9253116999999997,-2.7334218,-1
1272,1273,1583938268307,-4.3872,-0.0289,-1.1083,5.099975,1.7495773000000001,-2.338072,-1
1273,1274,1583938268317,-4.4876,-0.18599999,-0.6814,4.8486705,1.4184496000000002,-1.5969613,-1
1274,1275,1583938268327,-4.7727,-0.41329998,0.0061999997,4.535221,1.1604887,-0.98617166,-1
1275,1276,1583938268337,-5.1854,-0.6383,0.72279996,4.217281,0.9254643,-0.46502098,-1
1276,1277,1583938268348,-5.4431996,-0.8251,1.0117999,4.171303,0.5333228,-0.56917834,-1
1277,1278,1583938268358,-5.3803997,-1.1151,0.81229997,4.3961277,0.27683675,-1.0533242,-1
1278,1279,1583938268368,-5.1442,-1.2231,0.18079999,4.8115025000000005,0.042281599999999996,-2.0242019,-1
1279,1280,1583938268379,-4.7037,-1.3388,-0.8207,5.5721498,0.013953407,-2.6685293,-1
1280,1281,1583938268389,-4.0769997,-1.222,-1.3167,5.92541,0.23870191,-2.262875,-1
1281,1282,1583938268399,-3.6947,-0.8009,-0.7506,5.7755613,0.5079634,-0.8294280999999999,-1
1282,1283,1583938268410,-3.9097,-0.491,0.4357,4.9167805,0.23533086,0.06019023,-1
1283,1284,1583938268420,-4.79,-0.6527,1.2481999,4.107416000000001,-0.415892,0.5754416,-1
1284,1285,1583938268430,-5.619,-1.1624,1.7257999,4.263039,-0.91225785,0.7322522,-1
1285,1286,1583938268440,-5.4655,-1.5289999,1.8513,5.0541983,-1.1344111000000001,0.60933393,-1
1286,1287,1583938268450,-3.4492,-1.7528,1.0545,6.58257,-1.5050048,-0.36311420000000005,-1
1287,1288,1583938268461,-3.4492,-1.7528,1.0545,7.1078773,-1.5648215,-1.3625785,-1
1288,1289,1583938268471,-2.6545,-1.68,-0.35099998,7.602663000000001,-1.4580688,-2.2582686,-1
1289,1290,1583938268481,-2.1706998,-1.3909,-1.3033999,7.7261367,-1.2586126,-1.4813404,-1
1290,1291,1583938268491,-2.0468,-1.0091,-0.5961,7.140735,-1.308776,0.17801368,-1
1291,1292,1583938268501,-2.6358,-0.8867,0.96849996,6.444205,-1.3583839,1.3227293,-1
1292,1293,1583938268512,-3.5470998,-0.9564,1.9934,6.23837,-1.9337393,1.2335118,-1
1293,1294,1583938268522,-3.5470998,-0.9564,1.9934,6.643364,-2.875216,0.44572374,-1
1294,1295,1583938268532,-1.6272999,-2.5728,-0.043199997000000004,8.478452,-3.9250352,-0.7237958999999999,-1
1295,1296,1583938268542,0.4429,-3.0326998,-0.4556,10.56838,-4.570607,-1.0233583,-1
1296,1297,1583938268552,2.372,-2.8188999,-0.89019996,12.284036,-4.4073519999999995,-1.5293586000000001,-1
1297,1298,1583938268562,3.0284,-2.1311998,-1.2444998999999999,12.581644,-3.9504135000000002,-1.6176184,-1
1298,1299,1583938268573,3.0284,-2.1311998,-1.2444998999999999,11.837019999999999,-3.8777065000000004,-0.8840638000000001,-1
1299,1300,1583938268583,0.87039995,-1.7116,0.92389995,9.917089,-4.1018133,1.2039674999999999,-1
1300,1301,1583938268593,-0.2032,-1.9842999,1.9719,9.011114,-4.680109,1.8617887,-1
1301,1302,1583938268603,-0.5726,-2.2638,1.9964998999999999,8.952246,-5.083158,1.6972592,-1
1302,1303,1583938268614,-0.0389,-2.4182,1.3762,9.751028,-5.4358144,0.9720651,-1
1303,1304,1583938268624,1.2705,-2.5307999,0.36200000000000004,10.876503999999999,-5.732629,0.27042988,-1
1304,1305,1583938268634,2.8525999,-2.7105,-0.2922,12.623208,-6.1551480000000005,-0.290024,-1
1305,1306,1583938268644,4.0741,-2.6383997999999997,-0.5761,13.473695999999999,-6.1529737,-0.37927985,-1
1306,1307,1583938268655,4.379699700000001,-2.355,-0.50659996,13.277917,-6.111305000000001,0.03325067,-1
1307,1308,1583938268665,3.7075998999999995,-2.1664999,0.3715,11.793158,-6.004304,1.3591883,-1
1308,1309,1583938268675,2.2152998,-1.9706999,1.4322,10.547694,-6.1330733,2.2154791,-1
1309,1310,1583938268685,0.9576,-2.0786,2.3616,9.583999,-6.3422112,3.1510854,-1
1310,1311,1583938268696,0.7849,-1.9963,3.1450999,9.888771,-6.271918,3.745853,-1
1311,1312,1583938268706,1.4266,-1.6898999,2.9724998,10.359088,-6.1839933,3.2514122000000003,-1
1312,1313,1583938268716,2.0577,-1.4782,1.9202,10.915797999999999,-6.075641,2.0908659,-1
1313,1314,1583938268727,2.6055,-1.1711,0.89479995,11.373033,-5.901170700000001,1.6069978,-1
1314,1315,1583938268737,3.0462,-0.9385,0.5004,11.479968,-5.959398,1.3934063,-1
1315,1316,1583938268747,3.1299,-0.9305,0.2267,11.410306,-6.12545,1.4639778,-1
1316,1317,1583938268757,3.0711,-1.0688,0.569,11.0708275,-6.621682000000001,2.2763016,-1
1317,1318,1583938268767,2.7538998,-1.4685,1.3313,10.686663000000001,-6.990188000000001,2.7002957000000003,-1
1318,1319,1583938268777,2.5439,-1.6373999,1.3912,10.737822999999999,-7.459614299999999,2.83235,-1
1319,1320,1583938268787,2.8472998,-1.9943999,1.607,11.163616000000001,-7.7593393,3.2860322,-1
1320,1321,1583938268797,3.4789,-2.1562997999999998,1.8682,11.679433,-7.9439516,2.948306,-1
1321,1322,1583938268807,3.9462,-2.1676,1.3263999,11.775651,-7.9263306,2.326283,-1
1322,1323,1583938268817,4.0702,-2.0305,0.6042,11.702647,-7.872777,2.0093768,-1
1323,1324,1583938268827,4.0657,-1.8899,0.19579999,11.658068,-7.8522444,1.8518096999999998,-1
1324,1325,1583938268838,4.1967998,-1.8398999,0.0764,11.818766,-8.042238000000001,1.9862201000000002,-1
1325,1326,1583938268848,4.5218,-2.0644,0.1953,12.25836,-8.695377,2.3603572999999995,-1
1326,1327,1583938268858,5.0193996,-2.5646,0.54179996,12.647447999999999,-9.131160000000001,3.0551355,-1
1327,1328,1583938268868,5.4115996,-2.8555,1.2372999,12.499821,-9.23887,3.3514992999999995,-1
1328,1329,1583938268878,5.2153997,-2.8551,1.2967,11.9396925,-9.200515,2.9207826,-1
