,Seq,Time,ACCx,ACCy,ACCz,ADGx,ADGy,ADGz,Keydown
0,1,1583937993802,0.0,0.0,0.0,0.0,0.0,0.0,-1
1,2,1583937993812,0.0,0.0,0.0,9.61678,0.86844397,-0.33853054,-1
2,3,1583937993822,-0.225,-0.0168,-0.005,9.598508,0.7216411,0.23293668,-1
3,4,1583937993832,0.0295,-0.0109,-0.0285,9.941951,0.74903077,0.20158220000000002,-1
4,5,1583937993842,0.3428,0.0546,-0.0565,10.274285,0.80941254,0.13694833,-1
5,6,1583937993853,0.57769996,0.0796,-0.2126,10.380425,0.7849246999999999,-0.062076862999999996,-1
6,7,1583937993863,0.5481,-0.0338,-0.12889999,10.292836,0.64809126,0.19706196,-1
7,8,1583937993873,0.3126,-0.2066,0.1698,10.084482000000001,0.5027536,0.43967122,-1
8,9,1583937993883,0.2341,-0.2135,0.2927,9.941500999999999,0.50022537,0.483849,-1
9,10,1583937993893,0.037699997,-0.2093,0.0752,9.8261,0.52353525,0.23116496,-1
10,11,1583937993903,0.096099995,-0.116799995,-0.225,9.955886,0.6622840999999999,-0.052614975999999994,-1
11,12,1583937993913,0.2625,0.0424,-0.2764,10.07076,0.76072407,-0.062603585,-1
12,13,1583937993924,0.3313,0.0832,-0.2008,10.080001,0.7966083,-0.028385654,-1
13,14,1583937993934,0.2531,0.036000000000000004,-0.12079999599999999,9.972309,0.7519901,0.100537315,-1
14,15,1583937993944,0.067,-0.029399997999999997,0.0605,9.809619,0.6784114,0.2550208,-1
15,16,1583937993954,0.0475,-0.1197,0.14469999,9.880104,0.5805651999999999,0.32073686,-1
16,17,1583937993964,0.2925,-0.1369,0.31509998,10.269210000000001,0.6164590999999999,0.608788,-1
17,18,1583937993975,0.5476,-0.0764,0.5054,10.352988,0.7439934,0.6787274999999999,-1
18,19,1583937993985,0.50909996,0.08549999400000001,0.45619997,10.138745,0.9018,0.5199249,-1
19,20,1583937993995,0.19659999,0.1908,0.2592,9.760423,0.9690675,0.49204674,-1
20,21,1583937994005,-0.14469999,0.2023,0.3236,9.528702000000001,0.99606454,0.5838979000000001,-1
21,22,1583937994015,-0.2993,0.23959999,0.2965,9.452960000000001,1.0393803,0.46719494,-1
22,23,1583937994026,-0.33589998,0.2748,0.0736,9.485118,1.1014956,0.32377267,-1
23,24,1583937994036,-0.2253,0.2794,0.0515,9.645999,1.1320839,0.4430231,-1
24,25,1583937994046,-0.065799996,0.2846,0.1908,9.825766,1.1930403,0.67315376,-1
25,26,1583937994056,0.122999996,0.34899998,0.41189998,9.958615,1.3007506000000002,0.8870995999999999,-1
26,27,1583937994066,0.1846,0.44059998,0.7141,9.820805,1.3999854,1.3507991000000001,-1
27,28,1583937994076,-0.0765,0.4192,1.1396998999999999,9.44775,1.2997546,1.7601978999999999,-1
28,29,1583937994087,-0.49339998,0.2545,1.5008,9.029578,1.1977904,2.0298616999999997,-1
29,30,1583937994097,-0.8003,0.1639,1.5748,8.9571495,1.2221538,1.9126225,-1
30,31,1583937994107,-0.7707,0.16849999,1.3139,9.00873,1.2560173000000001,1.827475,-1
31,32,1583937994117,-0.7143,0.16899999999999998,1.2052,9.056557000000002,1.3513545,1.8613578000000002,-1
32,33,1583937994127,-0.6906,0.2571,1.2055,8.937776,1.4454561000000001,2.0751026,-1
33,34,1583937994137,-0.8438,0.3251,1.4805,8.665056,1.4727788,2.4114782999999997,-1
34,35,1583937994147,-1.2231,0.28419998,1.8719999999999999,8.074435000000001,1.3882155,2.8532085,-1
35,36,1583937994157,-1.75,0.1952,2.2122,7.706801400000001,1.3273647,3.0254377999999997,-1
36,37,1583937994167,-2.1207,0.1099,2.3309999,7.476718400000001,1.3379756999999999,2.925207,-1
37,38,1583937994177,-2.2863,0.1475,2.1487,7.354767999999999,1.4518438999999999,2.7111842999999998,-1
38,39,1583937994187,-2.3837,0.2855,2.0575,7.2807865000000005,1.6013761999999998,2.906733,-1
39,40,1583937994197,-2.5302,0.4134,2.3802,7.001890700000001,1.6237668,3.1930509999999996,-1
40,41,1583937994208,-2.8827,0.3728,2.5981998,6.4210577,1.5400176,3.1482794,-1
41,42,1583937994217,-3.4023,0.2642,2.4304,5.9236474,1.3418542,2.6628408,-1
42,43,1583937994227,-3.8746,0.0532,1.966,5.6841607000000005,1.2446401000000002,2.2267895,-1
43,44,1583937994237,-4.0424,0.0039999996999999995,1.5625,5.6387279999999995,1.32249,1.9987370999999998,-1
44,45,1583937994247,-4.1342,0.1708,1.2774999,5.514737,1.4514513,1.7154741999999998,-1
45,46,1583937994257,-4.2759,0.25439999,1.189,5.135304,1.6794368000000002,1.8277335,-1
46,47,1583937994268,-4.7023997,0.53569996,1.4228,4.5006585,1.9520118000000002,1.7718338,-1
47,48,1583937994278,-5.364,0.7897,1.2814,4.055662600000001,2.0494939999999997,1.2018988000000002,-1
48,49,1583937994288,-5.712000000000001,0.9033,0.79069996,3.9116372999999998,2.0146728,0.9280021,-1
49,50,1583937994298,-5.8457,0.83519995,0.57589996,3.9389790000000002,1.4529643,0.6457545,-1
50,51,1583937994309,-5.8043,0.2139,0.40739998,3.9021752,0.56508905,0.6217454000000001,-1
51,52,1583937994321,-5.9403,-0.6003,0.4687,3.2291939999999997,-0.52057606,0.64371467,-1
52,53,1583937994331,-6.5376997,-1.4199,0.5829,2.6812856,-1.1795944999999999,0.35712868,-1
53,54,1583937994341,-7.0330997,-2.0727,0.0438,2.8569531,-1.3496594,-0.21836078,-1
54,55,1583937994351,-7.0330997,-2.0727,0.0438,3.5629745,-1.1068681,-0.6005807,-1
55,56,1583937994362,-5.2991,-1.2164999,-0.8027,4.605075,-0.7283257,-1.2256302,-1
56,57,1583937994372,-5.0674,-1.1443,-1.2610999,4.7003736,-0.877676,-1.7627358,-1
57,58,1583937994382,-5.401799700000001,-1.3428999,-1.88,4.270862999999999,-1.2595991000000002,-2.4400362999999996,-1
58,59,1583937994392,-6.0176,-1.7050999,-2.2639,3.6830387000000004,-1.8048258000000001,-2.8006124,-1
59,60,1583937994403,-6.0176,-1.7050999,-2.2639,3.3266379999999995,-2.3848069,-2.754577,-1
60,61,1583937994413,-6.1626,-2.8281,-1.6782999,3.8651803,-3.2693303,-2.2848442,-1
61,62,1583937994423,-5.2809,-3.0484,-2.0402,4.786641,-3.5883527,-3.0231776000000004,-1
62,63,1583937994433,-4.2792997,-3.1137,-3.0451,5.925324,-3.8740196000000005,-4.059369,-1
63,64,1583937994443,-4.2792997,-3.1137,-3.0451,6.6871777,-3.824699,-4.538899,-1
64,65,1583937994454,-3.0398,-2.6705,-3.7967,6.623050999999999,-3.7809424,-4.3118134,-1
65,66,1583937994464,-3.5958997999999998,-2.8037,-3.1680999,5.832189,-4.4029465,-3.5926912000000004,-1
66,67,1583937994474,-4.1482997,-3.4299,-2.9931997999999997,5.477617700000001,-5.2054160000000005,-3.6672082,-1
67,68,1583937994484,-3.9701,-3.9492998,-3.5395,6.0802283,-5.953517400000001,-4.343340400000001,-1
68,69,1583937994495,-2.5980000000000003,-4.6278996,-4.3589,7.804513,-6.908603,-5.217137999999999,-1
69,70,1583937994505,-0.57019997,-5.0762,-5.4191,9.989882000000001,-7.2827210000000004,-6.158663,-1
70,71,1583937994515,0.9837,-4.905999700000001,-5.9126,10.833188,-7.338725999999999,-6.127509,-1
71,72,1583937994525,1.3635,-4.8108,-5.7311,10.532285,-7.473386,-5.719298,-1
72,73,1583937994535,0.33069998,-4.6507998,-5.251,9.204997,-7.3719864,-5.058096,-1
73,74,1583937994546,-0.7603,-4.281399700000001,-4.6928997,8.1989155,-7.2262564,-4.575118,-1
74,75,1583937994556,-1.188,-3.9699998,-4.897,8.2100725,-7.0905814,-5.156009,-1
75,76,1583937994566,-0.7496,-3.753,-5.8492,9.123163,-7.354450999999999,-5.83398,-1
76,77,1583937994576,0.5767,-3.9524,-6.5249996,10.591776,-7.7663116,-6.0052900000000005,-1
77,78,1583937994586,2.1399,-4.0374,-6.653,11.8849325,-7.9706135,-5.478633,-1
78,79,1583937994596,3.2656999,-4.0505,-6.0323,12.296619999999999,-8.359430999999999,-4.6962075,-1
79,80,1583937994607,3.4378998,-4.4226,-5.5095997,12.061423,-9.06395,-4.518242,-1
80,81,1583937994617,3.1764,-4.9577,-5.7699,11.6860695,-9.886703500000001,-5.025075,-1
81,82,1583937994627,3.1143,-5.4504,-6.309,12.323779,-10.572987,-5.2283525,-1
82,83,1583937994637,4.12,-5.9309998,-6.5513997,13.884406,-10.889777,-5.0121655,-1
83,84,1583937994647,5.8315997,-5.9667997,-6.3567995999999996,15.065179,-10.890217999999999,-4.3842335,-1
84,85,1583937994658,6.9487996,-5.8016996,-5.8156,15.401162,-11.026841000000001,-3.9590042000000003,-1
85,86,1583937994668,7.2479997,-5.809,-5.631,15.268495000000001,-11.262411,-3.9683797,-1
86,87,1583937994678,7.2662997,-5.9402,-5.6919,15.378791,-11.583464,-3.7227824000000003,-1
87,88,1583937994688,7.5428,-6.111799700000001,-5.5481997000000005,15.797307,-11.869677000000001,-3.6183953,-1
88,89,1583937994698,8.125,-6.2535,-5.4681,16.315844,-12.124132000000001,-3.0323808,-1
89,90,1583937994708,8.6673,-6.3657,-4.7627,16.329538,-12.194034,-1.7407283,-1
90,91,1583937994719,8.655399000000001,-6.3538,-3.4008,15.878413,-12.521818,-0.41016507,-1
91,92,1583937994729,8.232999999999999,-6.6137,-2.0839,15.334382999999999,-12.890947,1.1815289,-1
92,93,1583937994739,7.8349,-6.8584,-0.746,15.355711,-13.023528,2.1350532,-1
93,94,1583937994750,7.9076,-6.9214997,0.19209999,15.892595000000002,-12.959402,2.3253922,-1
94,95,1583937994760,8.498099,-6.8071,0.3683,16.483072,-12.425601,2.3585951,-1
95,96,1583937994770,9.130199000000001,-6.2237,0.38189998,16.984533,-12.260813,2.6468380000000002,-1
96,97,1583937994780,9.6591,-6.0376997,0.6508,16.825512,-11.6480875,3.7405477,-1
97,98,1583937994790,9.498,-5.4101,1.7493,15.980617,-11.291236999999999,4.956132,-1
98,99,1583937994800,7.2685,-5.1495,3.9742,14.397867000000002,-11.4066,5.974156,-1
99,100,1583937994810,7.2685,-5.1495,3.9742,13.822501999999998,-11.68379,6.648851400000001,-1
100,101,1583937994820,6.3694,-5.5367,4.9189,13.894213,-11.924608000000001,7.5039454,-1
101,102,1583937994831,6.3668,-5.8226,5.9073997,14.186872,-11.646326,7.741230000000001,-1
102,103,1583937994841,6.6991,-4.6668,6.1938996,14.392878,-10.432486,7.4687314,-1
103,104,1583937994851,6.4904,-3.8502,5.9424,14.180446,-9.582055,7.125939,-1
104,105,1583937994861,6.4904,-3.8502,5.9424,13.684395,-9.032174000000001,6.4919357,-1
105,106,1583937994871,5.4925,-3.202,5.2830997,13.428589,-8.857713,6.4375485999999995,-1
106,107,1583937994882,5.4925,-3.202,5.2830997,13.515795,-8.86093,6.927593700000001,-1
107,108,1583937994892,5.1127996,-3.4204998,6.496,13.144138,-8.806506,7.3606186000000005,-1
108,109,1583937994902,4.0727997,-3.3091998,6.6772,12.127943,-8.4651785,7.4060993,-1
109,110,1583937994912,2.7535,-3.1297,6.7625,10.912887,-8.122501,7.3500457,-1
110,111,1583937994922,1.5331,-2.9245,6.8013,9.862876,-7.691239,7.243016000000001,-1
111,112,1583937994932,0.7197,-2.6862,6.5966,9.295736999999999,-7.273517599999999,6.8830423,-1
112,113,1583937994943,0.5518,-2.4966,6.1991,9.415563,-6.7891035,6.4334690000000005,-1
113,114,1583937994953,0.7147,-2.2865999,6.0955,9.575667,-6.4290733,6.2947392,-1
114,115,1583937994963,0.41169998,-1.8737999,5.77,9.123306,-5.6897725999999995,5.813572,-1
115,116,1583937994973,-0.3287,-1.545,5.4258,8.417142,-5.239375,5.385307,-1
116,117,1583937994983,-1.1226,-1.5122,5.025,7.795655,-5.1840215,5.001698,-1
117,118,1583937994994,-1.4291999,-1.8893,5.035,7.939000599999999,-5.352621,5.212550599999999,-1
118,119,1583937995004,-1.0425999,-2.1661,5.3817997,8.375703,-5.345773,5.322272,-1
119,120,1583937995014,-0.9158,-2.2184,5.2172,8.402633,-5.160759400000001,5.074836,-1
120,121,1583937995025,-1.4233999,-2.0811,4.6777,7.8807545,-4.7685794999999995,4.471727,-1
121,122,1583937995035,-2.1432,-1.7150999,4.0456,6.9264927,-3.8628432999999998,3.8090599999999997,-1
122,123,1583937995046,-2.8384,-1.2631999,3.8553998,6.393361,-3.2290408999999998,3.8600084999999997,-1
123,124,1583937995056,-3.3902997999999998,-0.8692,3.9499,5.974567400000001,-2.7440138,3.9379062999999994,-1
124,125,1583937995066,-3.7491,-0.8215,3.9987998,5.957990000000001,-2.7311327000000003,3.6624486000000003,-1
125,126,1583937995076,-3.5024998,-0.97919995,3.5902998,6.630397,-2.4941452,3.1775748999999998,-1
126,127,1583937995087,-2.8279,-0.8132,3.1404,6.9778910000000005,-2.0311258000000003,2.6701764999999997,-1
127,128,1583937995097,-2.8939998,-0.5471,2.7347,6.3536267,-1.5949309999999999,2.4102333,-1
128,129,1583937995107,-3.8486998,-0.42319998,2.6506998999999998,5.150243799999999,-1.4752496000000002,2.4782189999999997,-1
129,130,1583937995117,-5.0931,-0.58529997,2.9164999,4.1417966,-1.3928508999999998,2.7717384999999997,-1
130,131,1583937995127,-5.8712,-0.5327,3.2343,3.6498934999999997,-0.8606868000000001,2.7065206,-1
131,132,1583937995137,-6.2914,-0.0087,3.0449998,3.3705955000000003,0.05995081,1.9959502,-1
132,133,1583937995148,-6.4330997000000005,0.5615,2.2677999,3.4088163000000002,0.52403325,1.1707071000000002,-1
133,134,1583937995158,-6.3069997,0.93659997,1.2930000000000001,3.846419,0.75929713,0.16981593,-1
134,135,1583937995168,-5.7668,0.84,0.6554,5.014885400000001,0.09693644,-0.03608541,-1
135,136,1583937995178,-4.5385,0.083799995,0.5827,5.748182,-0.21150379,-0.3645603,-1
136,137,1583937995189,-4.0842,-0.1055,0.24489999,4.559757,0.3307446,-1.1036598999999998,-1
137,138,1583937995199,-5.227999700000001,0.26899999999999996,-0.355,3.360128,0.48177084,-1.3458477,-1
138,139,1583937995209,-6.6847,0.31849998,-0.5764,2.4570541,0.63098705,-1.4373637,-1
139,140,1583937995219,-7.3657,0.4613,-0.5913,2.6228766,1.1674702,-1.64768,-1
140,141,1583937995230,-7.0058,0.96169996,-0.8469,3.483171,1.8901361,-2.2281687000000003,-1
141,142,1583937995241,-5.6148,2.0699,-1.9283999,4.1747985,2.5002169999999997,-2.9473484,-1
142,143,1583937995251,-5.4927998,1.6899998999999999,-2.0038,4.3177031999999995,2.0053642,-2.9724207000000002,-1
143,144,1583937995261,-5.0759,1.0231,-1.8058,4.8027014999999995,1.3584412000000001,-2.7900397999999997,-1
144,145,1583937995271,-5.0759,1.0231,-1.8058,5.4539919999999995,0.9289886,-2.6852120999999998,-1
145,146,1583937995281,-3.2596998,0.318,-1.5241,6.5940337,0.8435539000000001,-2.6809119999999997,-1
146,147,1583937995292,-3.0194,0.47669998,-1.8419,6.664030599999999,1.0120099,-3.0707169,-1
147,148,1583937995301,-3.0194,0.47669998,-1.8419,6.305255000000001,1.0685513999999998,-3.4051199999999997,-1
148,149,1583937995311,-3.4280998999999994,0.5329999999999999,-2.2364,6.0364723,1.0495413999999998,-3.6743143,-1
149,150,1583937995321,-3.3667,0.4781,-2.5358,6.4882197,1.0500011,-3.6846955,-1
150,151,1583937995331,-3.3667,0.4781,-2.5358,6.966264999999999,1.1058626,-3.3819442000000004,-1
151,152,1583937995341,-2.1315,0.5412,-1.5906999,7.700528,1.1166462,-2.6255295,-1
152,153,1583937995351,-1.8181,0.5442,-1.2888,7.927594,1.1095401000000003,-2.4862156000000004,-1
153,154,1583937995362,-1.8181,0.5442,-1.2888,7.9679704,1.0311923,-2.7151875,-1
154,155,1583937995371,-1.5830000000000002,0.139,-2.0482,8.218403,0.6240918000000001,-3.3198477999999993,-1
155,156,1583937995381,-1.5830000000000002,0.139,-2.0482,8.664022000000001,0.45706270000000004,-3.6048632000000005,-1
156,157,1583937995391,-1.0725,-0.0931,-2.4298,9.237998,0.3123667,-3.5426717000000005,-1
157,158,1583937995401,-0.3056,-0.1916,-2.1692,9.4114065,0.34227508,-3.347496,-1
158,159,1583937995411,-0.3056,-0.1916,-2.1692,9.12142,0.3847578,-3.2487402000000003,-1
159,160,1583937995422,-0.8236,-0.059000000000000004,-1.9609999999999999,8.874089999999999,0.50555,-3.1182466,-1
160,161,1583937995432,-0.94079995,0.0831,-1.4498999,8.743778,0.63250977,-2.5159612,-1
161,162,1583937995442,-1.1465,0.0506,-0.7725,8.547281,0.55039823,-1.8943881999999999,-1
162,163,1583937995452,-1.0873,-0.0743,-0.55289996,8.70572,0.46176490000000003,-1.8041363999999998,-1
163,164,1583937995462,-0.6558,-0.0139,-0.85139996,9.288565,0.568575,-2.2949479,-1
164,165,1583937995473,-0.1072,0.20989999,-1.2309999999999999,9.821456,0.7944344,-2.4790907000000004,-1
165,166,1583937995482,0.30359998,0.3373,-1.2415,10.059660000000001,0.8267273999999999,-2.4533672,-1
166,167,1583937995492,0.3419,0.324,-1.0755,10.033726,0.794128,-2.2608447,-1
167,168,1583937995502,0.0969,0.2945,-0.9723,9.749305,0.7288812,-2.252618,-1
168,169,1583937995512,0.0969,0.2945,-0.9723,9.428011999999999,0.6154727,-2.4247037999999996,-1
169,170,1583937995523,-0.43969998,0.08800000000000001,-0.97789997,9.3026705,0.54021806,-2.1236759999999997,-1
170,171,1583937995533,-0.322,0.155,-0.6902,9.539227499999999,0.6419142,-1.8698139999999999,-1
171,172,1583937995543,0.0491,0.345,-0.5498,9.83969,0.8359595,-1.8244966,d
172,173,1583937995553,0.1348,0.5097,-0.71129996,9.817711,0.92998457,-2.00976,-1
173,174,1583937995563,0.013999999499999999,0.50909996,-0.9167,9.71137,0.8805395,-2.2002903999999996,-1
174,175,1583937995573,-0.077,0.44079998,-1.0021,9.656734,0.76857704,-2.1384053,-1
175,176,1583937995583,-0.0106999995,0.3436,-0.7007,9.821236,0.6324715,-1.6933613999999997,-1
176,177,1583937995594,0.2034,0.2163,-0.1594,9.981014,0.5032515999999999,-1.1657368000000001,-1
177,178,1583937995604,0.1827,0.1458,0.2581,9.8229885,0.41803720000000005,-0.84249085,-1
178,179,1583937995614,-0.0339,0.014599998999999999,0.2545,9.720678,0.2729007,-1.0246321,-1
179,180,1583937995625,0.102,-0.0563,-0.0067999995999999995,9.966047,0.25830564,-1.2535753,-1
180,181,1583937995635,0.3551,0.0613,-0.1848,10.149711,0.34143229999999997,-1.4322402,-1
181,182,1583937995645,0.41189998,0.0902,-0.29639998,10.137175,0.29091468,-1.4384458999999998,-1
182,183,1583937995655,0.3513,0.0286,-0.24939999,10.03478,0.25540385,-1.2759274999999999,-1
183,184,1583937995665,0.2716,0.0543,-0.120299995,9.966085000000001,0.23339637,-1.2290778,-1
184,185,1583937995675,0.2119,0.0013,-0.1153,9.971658,0.13341449,-1.1440166,-1
185,186,1583937995686,0.27989998,-0.089999996,0.0484,10.152909,0.022926876000000002,-0.9049125,-1
186,187,1583937995696,0.5146,-0.1994,0.38869998,10.390787,-0.15768214,-0.5712469,-1
187,188,1583937995706,0.68039995,-0.35729998,0.49069998,10.445777,-0.29533914,-0.79665625,-1
188,189,1583937995716,0.69839996,-0.41759998,0.18419999,10.494131,-0.2596081,-1.0169610999999998,-1
189,190,1583937995726,0.745,-0.30589998,-0.0412,10.438585,-0.21197304,-1.2615432,-1
190,191,1583937995737,0.6167,-0.3071,-0.20529999,10.359749,-0.26611072,-1.1467459,-1
191,192,1583937995747,0.6055,-0.3627,-0.060399997999999996,10.462077,-0.34436283,-1.0267582,-1
192,193,1583937995757,0.7416,-0.38889998,0.027099999,10.613889,-0.33026576,-0.976231,-1
193,194,1583937995767,0.8777,-0.38509998,0.0556,10.752378,-0.40976283,-1.041449,-1
194,195,1583937995777,1.0037,-0.43159997,-0.0358,10.767615,-0.4665054,-1.0807618,-1
195,196,1583937995787,0.98249996,-0.46109998,-0.08109999400000001,10.574164,-0.40688979999999997,-1.0810298999999999,-1
196,197,1583937995798,0.75509995,-0.4062,-0.0795,10.396726,-0.36931040000000004,-0.9339877000000001,-1
197,198,1583937995808,0.6062,-0.3642,0.078999996,10.282214999999999,-0.3327653,-0.7668436,-1
198,199,1583937995818,0.5067,-0.3331,0.2314,10.249635000000001,-0.33028492,-0.5787456,-1
199,200,1583937995828,0.4764,-0.3317,0.41799998,10.200286,-0.3277662,-0.33779309999999996,-1
200,201,1583937995839,0.41709998,-0.3303,0.6292,10.080681,-0.39999446,-0.25510700000000003,-1
201,202,1583937995849,0.2793,-0.4064,0.6925,9.998961,-0.49052405,-0.32460585,-1
202,203,1583937995859,0.2295,-0.47919998,0.60569996,10.037135000000001,-0.5141213,-0.504736,-1
203,204,1583937995869,0.26749998,-0.4901,0.41599998,10.053291,-0.46182236,-0.7046231,-1
204,205,1583937995879,0.2758,-0.43129998,0.1933,9.959764,-0.42722136,-0.86304265,-1
205,206,1583937995890,0.17600000000000002,-0.38349998,0.0179,9.879375999999999,-0.40699515,-0.8398476999999999,-1
206,207,1583937995900,0.096,-0.36769998,0.029299999,9.909055,-0.31350634,-0.866136,-1
207,208,1583937995910,0.12419999400000001,-0.2663,-0.0148,9.800857,-0.21679017,-0.8235766999999999,-1
208,209,1583937995920,-0.21069999,-0.1519,0.25169998,9.496955,-0.23528299,-0.47515327,-1
209,210,1583937995930,-0.21069999,-0.1519,0.25169998,9.336774,-0.24900654,-0.23685358,-1
210,211,1583937995941,-0.44619998,-0.2166,0.5936,9.369765,-0.18430565,0.06669289,-1
211,212,1583937995951,-0.4265,-0.1244,0.8390000000000001,9.352594,-0.13231316,0.013244724,-1
212,213,1583937995961,-0.4265,-0.1244,0.8390000000000001,9.271824,-0.060659494,-0.22760239,-1
213,214,1583937995971,-0.4764,0.0267,0.38799998,9.335844999999999,0.017812861,-0.46856442,-1
214,215,1583937995981,-0.28079998,0.0624,0.23349999,9.540817,0.03652594,-0.6316670999999999,-1
215,216,1583937995992,-0.11449999,0.0398,-0.124299996,9.696373,-0.018847156,-0.9888628,-1
216,217,1583937996003,0.081599995,-0.0438,-0.2217,9.922932000000001,-0.16418476,-1.001121,-1
217,218,1583937996013,0.1995,-0.1418,-0.013599999,9.962724,-0.20155348,-0.6674268,-1
218,219,1583937996023,0.0524,-0.1469,0.3595,9.726761,-0.17443196,-0.32348537,-1
219,220,1583937996033,-0.29099998,-0.057699997,0.58239996,9.422439,-0.086938255,-0.21402247,-1
220,221,1583937996043,-0.5855,0.0901,0.5391,9.166182000000001,0.12464214,-0.29256186,-1
221,222,1583937996053,-0.6447,0.3109,0.47689998,9.177328999999999,0.37613866,-0.31408095,-1
222,223,1583937996063,-0.5564,0.40969998,0.4667,9.242422999999999,0.37939477,-0.34712094,-1
223,224,1583937996073,-0.4876,0.2786,0.3997,9.324065,0.19932209,-0.44470859999999995,-1
224,225,1583937996083,-0.35979998,0.1514,0.2461,9.514558000000001,0.11990162,-0.65477586,-1
225,226,1583937996093,-0.12419999400000001,0.14549999,-0.0256,9.727412,0.10573752,-0.88325936,-1
226,227,1583937996103,0.1406,0.1308,-0.2511,10.032845,0.060918067,-1.0912676000000001,-1
227,228,1583937996113,0.1406,0.1308,-0.2511,10.096617,0.074976824,-1.0379822,d
228,229,1583937996124,0.18949999,0.15869999,0.0103,9.909342,0.057930104,-0.70547545,-1
229,230,1583937996134,-0.0064,0.110999994,0.1988,9.667912,0.04441723,-0.56899637,-1
230,231,1583937996144,-0.2216,0.100999996,0.2444,9.558458,0.061387334,-0.6118526,-1
231,232,1583937996154,-0.1818,0.1814,0.0457,9.636078,0.13809755,-0.88742524,-1
232,233,1583937996164,-0.0637,0.27609998,-0.1757,9.759446,0.23121284,-1.0406636999999999,-1
233,234,1583937996174,0.0345,0.3148,-0.28219998,9.829329,0.20085438,-1.1311837,-1
234,235,1583937996185,0.093399994,0.2863,-0.29209998,9.936253,0.12921028,-1.1012178999999997,-1
235,236,1583937996195,0.21139999,0.17999999,-0.2902,10.058961,0.031478964,-1.1878976,-1
236,237,1583937996205,0.3493,0.1523,-0.3832,10.203628,0.011195287,-1.1904066,-1
237,238,1583937996215,0.41849998,0.1335,-0.3094,10.106327,-0.044551305,-1.055479,-1
238,239,1583937996226,0.2719,0.1343,-0.1973,10.005349,-0.05011543,-1.0492445,-1
239,240,1583937996236,0.14459999,0.1204,-0.13759999,9.894843,-0.027753586,-0.81382746,-1
240,241,1583937996246,0.1349,0.1378,0.0678,9.988045,-0.07356903,-0.81645155,-1
241,242,1583937996256,0.233,0.0679,-0.0802,10.073527,-0.18409495,-1.0883275,-1
242,243,1583937996266,0.36069998,-0.0011,-0.3154,10.250487,-0.23029347,-1.1350143999999998,-1
243,244,1583937996276,0.4886,-0.042,-0.2827,10.30044,-0.27176106,-1.0690013999999999,-1
244,245,1583937996287,0.5086,-0.0661,-0.1024,10.193524,-0.29079017,-0.79526764,-1
245,246,1583937996297,0.3618,-0.092999995,0.10529999400000001,10.117666999999999,-0.30976182,-0.6869539000000001,-1
246,247,1583937996307,0.3813,-0.091,0.15359999,10.282302,-0.29444852,-0.7915135,-1
247,248,1583937996317,0.6261,-0.0477,-0.107499994,10.735419,-0.27171317,-1.3984244,-1
248,249,1583937996327,1.0372,-0.043199997000000004,-0.6178,11.091484,-0.28750529999999996,-1.4911567,-1
249,250,1583937996337,1.36,-0.09219999599999999,-0.69629997,11.240557,-0.40457222,-1.5473918,-1
250,251,1583937996348,1.4569999999999999,-0.2276,-0.5793,11.259184,-0.56053054,-0.71299326,-1
251,252,1583937996358,1.4850999,-0.38189998,0.17369999,11.243707,-0.58530575,-0.5164006,-1
252,253,1583937996368,1.4538,-0.40449998,0.2828,11.243066,-0.57816136,-0.40914991,-1
253,254,1583937996378,1.4712,-0.4193,0.37719998,11.41065,-0.4906294,-0.36639905,-1
254,255,1583937996389,1.6846,-0.3452,0.3205,11.809600999999999,-0.35379595,-0.7825688000000001,-1
255,256,1583937996399,2.1433,-0.19919999,-0.1686,12.445453,-0.1837885,-1.046927,-1
256,257,1583937996409,2.6513,-0.1003,-0.36949998,12.678993,-0.24339455,-0.93981993,-1
257,258,1583937996419,2.9145,-0.21769999,-0.2348,12.720642999999999,-0.41590157,-0.77936053,-1
258,259,1583937996429,2.9129999,-0.40539998,-0.1281,12.700541000000001,-0.732166,-0.681476,-1
259,260,1583937996440,2.9020998,-0.7118,-0.0672,12.824933999999999,-0.9841700999999999,-0.77646834,-1
260,261,1583937996450,3.4011,-1.3353,-0.0074,13.277343,-1.3915674999999998,-0.5435890999999999,-1
261,262,1583937996460,3.4011,-1.3353,-0.0074,13.496116,-1.7784418000000002,-0.12715127,-1
262,263,1583937996471,3.5688,-2.1877,0.82479995,13.268847000000001,-2.1453387999999998,0.24467784,-1
263,264,1583937996481,3.0303,-2.2765,0.6422,12.7173195,-2.1092439,-0.009241618,-1
264,265,1583937996491,2.5407999,-2.1764997999999998,0.39339998,12.267746,-1.9215863000000002,-0.28886524,-1
265,266,1583937996501,2.2573,-1.9327999,0.1006,12.021507000000001,-1.6198115,-0.5417504,-1
266,267,1583937996511,2.1117,-1.7225,0.0148,11.888159,-1.3858405,-0.538274,-1
267,268,1583937996521,1.9476999,-1.6667999,0.3874,11.663583000000001,-1.2688121,-0.1570309,-1
268,269,1583937996532,1.5302,-1.6493,0.63159996,11.19613,-1.1385195,0.14861289,-1
269,270,1583937996542,0.89839995,-1.6304,1.0485,10.535992,-1.0509108,0.51048213,-1
270,271,1583937996552,0.1503,-1.6076,1.1027,9.779557,-0.9233287,0.44981304,-1
271,272,1583937996563,-0.4499,-1.4683,0.96709996,9.223891,-0.63777703,0.30764535,-1
272,273,1583937996573,-0.8045,-1.1402,0.8267,8.87476,-0.20666750000000003,0.16583198,-1
273,274,1583937996584,-1.0800999,-0.8196,0.7639,8.61475,0.21512379999999998,0.12112745,-1
274,275,1583937996594,-1.4135,-0.5171,0.53819996,8.165416,0.65189326,-0.32773748,-1
275,276,1583937996604,-1.8931999,-0.3114,-0.0088,7.6234927,0.9142306999999998,-0.89608264,-1
276,277,1583937996615,-2.372,-0.1934,-0.3978,7.117310499999999,1.1712531000000002,-0.96728617,-1
277,278,1583937996625,-2.7323,-0.0652,-0.0301,6.6995125,1.4154617,-0.31148562,-1
278,279,1583937996635,-3.1697998,0.13059999,0.6156,6.1572260000000005,1.745555,0.112029485,-1
279,280,1583937996645,-3.8316998,0.43429998,0.9708,5.337365,2.2220013,0.31897470000000006,-1
280,281,1583937996655,-4.6597,0.84779996,1.0416,4.6413226,2.6411397,0.21058442,-1
281,282,1583937996665,-5.2334,1.1705999,0.8362,4.121379,3.0016298,-0.33043814,-1
282,283,1583937996675,-5.7011,1.3784,0.15429999,3.7239603999999997,3.268344,-0.9345144000000001,-1
283,284,1583937996686,-6.0046,1.5896,-0.1226,3.5451328999999996,3.449221,-0.8936502000000001,-1
284,285,1583937996696,-6.1046,1.6859,-0.031799997999999996,3.4849906,3.6412745,-0.8070184,-1
285,286,1583937996706,-6.1970997,1.8719999999999999,-0.0121,3.3219642999999994,3.8105922,-0.8780111999999999,-1
286,287,1583937996716,-6.3989,2.1064,-0.17629999,3.1559792,4.185898,-1.1643099,-1
287,288,1583937996726,-6.4237,2.4122999,-0.3978,3.2280830000000003,4.3908033,-1.1981734,-1
288,289,1583937996736,-6.3532996,2.4868999,-0.34719998,3.2098007,4.260175,-1.1837796,-1
289,290,1583937996747,-6.4196,2.3009,-0.3099,3.0329268,4.024615,-1.1739728,-1
290,291,1583937996757,-6.6144,2.0923998,-0.2996,2.8036485,3.6908727,-1.3261675,-1
291,292,1583937996767,-6.8018,1.7373999,-0.4411,2.840998,3.1885595,-1.4598308999999998,-1
292,293,1583937996777,-6.7268,1.2477,-0.5446,2.971568,2.6773303,-1.5608183,-1
293,294,1583937996787,-6.6049,0.6325,-0.5614,2.9772568,2.064769,-1.3882825,-1
294,295,1583937996797,-6.7195,0.14289999,-0.2633,2.8091934,1.6699172999999998,-1.067996,-1
295,296,1583937996807,-6.8055997,-0.0352,-0.0528,3.0056617,1.7363133000000002,-1.0638205,-1
296,297,1583937996818,-6.5404,0.18899999999999997,-0.033,3.4954769999999997,2.1997828,-1.2482698,-1
297,298,1583937996828,-6.0421996,0.7873,-0.28800000000000003,3.8796506,2.7481603999999997,-1.6197253,-1
298,299,1583937996838,-5.7518997,1.3665999,-0.6114,3.9223440000000003,2.719143,-1.7912651000000002,-1
299,300,1583937996848,-5.7661,1.2768999,-0.7809,3.8690875,2.016138,-1.6769179,-1
300,301,1583937996858,-5.809,0.55649996,-0.52349997,3.8538699999999997,0.75878954,-1.0400506999999999,-1
301,302,1583937996869,-5.8606,-0.69619995,0.1244,3.7203786,-0.6825103,-0.6342623000000001,-1
302,303,1583937996879,-6.0192,-1.9236,0.46019998,3.8416019999999995,-1.5279891,-0.61091405,-1
303,304,1583937996889,-5.8742,-2.4088,0.46089998,4.2650120000000005,-1.0963718999999998,-0.5116409000000001,-1
304,305,1583937996899,-5.4663997,-1.8459999999999999,0.5334,4.2729316,-0.28415343,-0.31819898,-1
305,306,1583937996909,-5.4726,-0.8922,0.66029996,4.202006,0.29385474,0.1346116,-1
306,307,1583937996919,-5.5674,-0.1867,1.0160999,4.2763124,0.6417993000000001,0.10341994,-1
307,308,1583937996930,-5.4442,0.38079998,0.90669996,4.4299054,0.26685770000000003,0.21983561,-1
308,309,1583937996940,-5.3547997,0.1081,0.9449,4.1127887,-1.3247118,-0.03512773,-1
309,310,1583937996950,-5.6802998,-1.281,0.708,3.9499160000000004,-2.9433455000000004,-0.18599117,-1
310,311,1583937996960,-5.8331,-2.7073,0.5726,4.342191000000001,-3.9325433,-0.26436773,-1
311,312,1583937996971,-5.2750998,-3.718,0.5281,5.2213902,-5.0007589999999995,0.06541917,-1
312,313,1583937996981,-4.5376,-4.3441,0.8211,5.6134357,-4.924144999999999,0.6656647,-1
313,314,1583937996991,-3.9998998999999995,-2.0793,3.0218,5.689782,-2.903161,2.7104661,-1
314,315,1583937997001,-4.4126997,-1.0612,3.8576,5.237201,-2.369254,3.4303547999999995,-1
315,316,1583937997011,-4.2861,-1.1212,2.9120998,5.5546145,-2.8186553,2.2854762,-1
316,317,1583937997021,-3.225,-1.7024,0.9352,6.6448100000000005,-3.7257512000000004,0.37710592,-1
317,318,1583937997032,-2.1329,-2.7333,-0.60359997,7.845463799999999,-5.327050700000001,-1.1163971000000001,-1
318,319,1583937997042,-0.88689995,-4.0072,-1.4152,8.877786,-6.5850315,-1.7328561999999998,-1
319,320,1583937997052,-0.88689995,-4.0072,-1.4152,9.114668,-6.8404546,-1.4709017,-1
320,321,1583937997062,-0.7798,-4.1050997,-0.1829,8.388421000000001,-6.908181699999999,-0.07377014,-1
321,322,1583937997072,-2.1069,-4.1261997,1.8371998999999999,6.9737160000000005,-7.210876,1.8896762999999999,-1
322,323,1583937997082,-2.7101,-4.0359,2.9608,6.806696400000001,-7.089174000000001,2.832896,-1
323,324,1583937997093,-1.5495,-3.2203999,2.5741,8.231993,-6.474056,2.3311957999999997,-1
324,325,1583937997103,-0.061899997000000005,-2.5851,1.6136,9.463101,-6.3875575,1.5691597,-1
325,326,1583937997113,0.9923,-2.6101,0.7879999999999999,10.079618,-7.0019383,1.0069629,-1
326,327,1583937997123,1.2590000000000001,-3.2742,0.2905,9.978611,-8.103328999999999,0.90679914,-1
327,328,1583937997133,1.3087,-4.0959,0.43269998,10.055772,-8.961181,1.341998,-1
328,329,1583937997144,1.8168999,-4.3588,0.8836,10.552722,-9.278432,1.6103208999999998,-1
329,330,1583937997154,2.425,-4.2232,0.634,10.902341999999999,-9.270645,1.3869419,-1
330,331,1583937997164,3.0576,-3.7631,0.44829997,11.496554,-8.859829,1.5390791000000001,-1
331,332,1583937997174,3.5203,-3.2789998,0.9593,11.465573,-8.844813,2.1769903,-1
332,333,1583937997184,3.0879998,-3.5252,1.3652999,10.708344,-9.469911,2.6852696,-1
333,334,1583937997194,2.4486,-3.8927998999999995,1.7612,9.974741999999999,-9.981561,3.1180453,-1
334,335,1583937997204,2.1936998,-4.2811,1.7524998999999999,9.834461,-10.639334,2.9704285,-1
335,336,1583937997214,2.9010000000000002,-4.6128,1.1307,10.901433,-10.965672999999999,2.1551549999999997,-1
336,337,1583937997225,4.897,-4.4125,-0.2049,12.862121,-10.867175999999999,1.0091368,-1
337,338,1583937997235,6.8032,-4.0895,-0.91709995,14.053207,-10.752245,0.7720534,-1
338,339,1583937997245,7.6607,-4.1186,-0.3845,14.468304999999999,-11.171671,1.6608865000000002,-1
339,340,1583937997255,7.4319997,-4.616699700000001,0.36319998,13.593060500000002,-11.968786999999999,2.3930717,-1
340,341,1583937997265,6.6218996,-5.0436,0.8109,12.615413,-12.312000000000001,2.6979206000000002,-1
341,342,1583937997275,5.888499700000001,-5.1094,1.0426999,11.961412,-12.3510065,2.8887002,-1
342,343,1583937997286,5.5133,-5.0252,1.2070999,11.664876,-12.367211,3.0806577,-1
343,344,1583937997296,5.4282,-4.9178,1.1615,11.546315,-12.367028,2.78234,-1
344,345,1583937997306,5.6288,-4.7878,0.6249,11.708144,-12.191514999999999,2.2642922000000003,-1
345,346,1583937997316,5.9308,-4.3522,0.1555,11.792392,-11.804803,2.1605369999999997,-1
346,347,1583937997326,6.1103,-3.9847,0.090399995,11.789883,-11.580332,2.2254009999999997,-1
347,348,1583937997336,6.1854997,-3.6950998,0.1151,11.603326,-11.355679499999999,2.1057482000000003,-1
348,349,1583937997347,6.0406,-3.4441998,-0.0648,11.23144,-11.151627000000001,2.1322472,-1
349,350,1583937997357,5.6103,-3.1432,0.0907,10.492494,-10.967972,2.7211537,-1
350,351,1583937997367,5.0641,-2.977,0.6461,10.152182,-10.912915,2.9894483,-1
351,352,1583937997377,4.6123,-2.8463,0.8591,9.527562,-10.816975,3.108957,-1
352,353,1583937997387,4.3155,-2.7602,0.84529996,9.3796015,-10.70575,3.06069,-1
353,354,1583937997397,4.2879,-2.5618,0.7108,9.273471,-10.408696,2.8335953,-1
354,355,1583937997408,4.1503997,-2.1145,0.37829998,8.981455,-9.881310000000001,2.6279907000000002,-1
355,356,1583937997418,3.9480998999999994,-1.6724,0.2496,8.672891,-9.468695,2.7707043,-1
356,357,1583937997428,3.612,-1.2737,0.4551,8.192555,-9.226507000000002,2.8953368999999998,-1
357,358,1583937997439,3.1457,-1.0260999,0.5168,7.6011880000000005,-8.950503,2.7792659,-1
358,359,1583937997449,2.5456,-0.7424,0.42369998,7.062837599999999,-8.76702,2.7040498,-1
359,360,1583937997459,2.1315,-0.5977,0.37489998,6.960489999999999,-8.857656,2.8715959,-1
360,361,1583937997469,2.0340000000000003,-0.6791,0.534,6.8966804,-8.758086,2.9388634999999996,-1
361,362,1583937997480,1.9964,-0.5758,0.597,6.7476935,-8.634708,2.2803624,-1
362,363,1583937997490,1.8488,-0.44599998,-0.061499998,6.768475,-8.582284,1.9222183999999998,-1
363,364,1583937997500,1.8719999999999999,-0.4064,-0.4308,6.613628,-8.610727,1.9371677999999999,-1
364,365,1583937997510,1.7109999999999999,-0.4265,-0.4041,6.354833999999999,-8.668992,2.3697712,-1
365,366,1583937997520,1.4434999,-0.48709998,0.0473,5.928685,-8.622985,2.8456907000000005,-1
366,367,1583937997531,1.0037,-0.44189999,0.5529999999999999,5.568980000000001,-8.616579,2.8338728,-1
367,368,1583937997541,0.6198,-0.44259998,0.1116,5.6146617,-8.630139,2.3132585999999997,d
368,369,1583937997551,0.9062,-0.6332,-0.1709,5.948059,-8.836414,2.0729957,-1
369,370,1583937997561,1.2430999,-0.76559997,-0.22399999,6.2712955,-8.889355,2.0825627,-1
370,371,1583937997572,1.3206999,-0.6069,-0.1313,6.276821,-8.731845,2.1495335,-1
371,372,1583937997582,1.3206999,-0.6069,-0.1313,5.989565,-8.680303,2.1326400000000003,-1
372,373,1583937997592,0.57989997,-0.6339,-0.2086,5.575933,-8.75278,2.1099143,-1
373,374,1583937997602,0.5721,-0.6974,0.19299999,5.6594714999999995,-8.827689,2.5795128,-1
374,375,1583937997613,0.5559,-0.72099996,0.6235,5.5974135,-8.816006,2.8932395,-1
375,376,1583937997623,0.434,-0.7558,0.42659998,5.6585236,-8.862214,2.591848,-1
376,377,1583937997633,0.9338,-0.83949995,0.1433,6.449433999999999,-8.953932,2.296729,-1
377,378,1583937997643,1.9468,-1.0591,-0.11229999,7.479199,-9.294464,2.0648935,-1
378,379,1583937997653,2.7904,-1.5927,-0.3919,8.218949,-9.910511,1.7711633000000002,-1
379,380,1583937997664,3.4290998,-2.3351,-0.5244,8.93019,-10.600797,1.7943488,-1
380,381,1583937997674,4.1739999999999995,-2.7979,-0.2839,9.689009,-10.873516,2.2054334,-1
381,382,1583937997684,4.7111,-3.0212998,0.19999999,10.131236999999999,-11.080777000000001,2.5714686,-1
382,383,1583937997694,4.9098997,-3.3123,0.5528,10.355477,-11.412269,3.1116672000000003,-1
383,384,1583937997705,5.0343,-3.6025,1.2378,10.701708,-11.623733999999999,3.6894263999999994,-1
384,385,1583937997715,5.4003,-3.852,1.5589,11.04088,-11.692524,3.6470108,-1
385,386,1583937997725,5.9392,-3.8801,1.3255999,12.021583999999999,-11.515391000000001,3.3547553999999997,-1
386,387,1583937997735,6.4764,-3.8160000000000003,1.3287,12.3375025,-11.64761,3.2929180000000002,-1
387,388,1583937997745,6.468,-4.1927,1.1428,12.381145,-11.954498,2.9596259999999996,-1
388,389,1583937997755,6.4715,-4.4540997,1.0845,12.705712,-11.934512,3.2178838,-1
389,390,1583937997766,6.6447,-4.4323,1.3432,12.86303,-11.758786,3.1416812000000003,-1
390,391,1583937997776,6.5055,-4.3258,1.1536,12.651125,-11.399934,2.8581789,-1
391,392,1583937997786,6.1208,-4.0964,0.95369995,12.358429,-10.999049000000001,2.8082743,-1
392,393,1583937997796,5.598,-3.8126998,1.0652,12.037721000000001,-10.568888000000001,3.0436144,-1
393,394,1583937997806,5.116699700000001,-3.5412998,1.3443999,11.781455000000001,-10.206271000000001,3.1195586,-1
394,395,1583937997816,4.7303,-3.3978998999999996,1.2673,11.605654,-9.87229,2.6931515,-1
395,396,1583937997827,4.4122,-3.2056,0.8386,11.544764,-9.297748,2.322998,-1
396,397,1583937997837,4.1538,-2.875,0.6978,11.234447,-8.883494,2.478353,-1
397,398,1583937997849,3.6223,-2.6898,1.0146998999999999,10.809888,-8.621282,3.1151438,-1
398,399,1583937997859,3.0349,-2.6687,1.7899,10.393182000000001,-8.448179,3.9563800000000002,-1
399,400,1583937997870,2.5304,-2.7422,2.5493,9.997928,-8.20787,3.8810394,-1
400,401,1583937997880,1.9620999,-2.7154,2.5424,9.529017999999999,-7.84238,3.6517897000000006,-1
401,402,1583937997890,1.3416,-2.5677,2.3820999,9.098234,-7.4887853,3.2741666,-1
402,403,1583937997900,0.57919997,-2.1631,1.4539,9.097468,-6.842293300000001,2.5124942999999997,-1
403,404,1583937997911,0.57919997,-2.1631,1.4539,9.23773,-6.3518267,2.2561138,-1
404,405,1583937997921,0.625,-1.7725999,1.1262,9.27237,-5.662028299999999,2.5847514,-1
405,406,1583937997931,0.5979,-1.4034,1.4296,8.691594,-5.305005,2.9912389999999998,-1
406,407,1583937997941,-1.2791,-1.4477999,2.7461998,7.5016947,-5.368738700000001,3.7463799,-1
407,408,1583937997951,-2.1735,-1.9541998999999999,3.1132998,6.8163977,-5.627178,3.923656,-1
408,409,1583937997962,-2.1735,-1.9541998999999999,3.1132998,6.7809824999999995,-5.769461,4.019798000000001,-1
409,410,1583937997972,-1.8197999,-2.6004999,3.3655998999999994,7.617698700000001,-5.6942353,3.8976645,-1
410,411,1583937997982,-1.3185999,-2.1931,3.1195,8.05081,-4.988741,3.5446443999999997,-1
411,412,1583937997992,-1.6445999,-1.6999999,2.8219,7.6348313999999995,-4.294288,3.1963456000000003,-1
412,413,1583937998002,-2.6218998,-1.2591,2.7035,6.6509295,-3.6531398,3.0404735,-1
413,414,1583937998013,-2.6218998,-1.2591,2.7035,5.84031,-3.241203,3.0429251,-1
414,415,1583937998023,-4.3571,-0.96529996,2.4117,5.1636415,-2.9011786,2.3371142999999996,-1
415,416,1583937998033,-4.3385997000000005,-0.7532,1.6747999,5.542098,-2.4284675,1.5339651,-1
416,417,1583937998043,-3.5270998,-0.31149998,1.0615,6.487329,-1.7690566000000003,0.96719044,-1
417,418,1583937998054,-2.9054,0.1178,0.80689996,6.7809534,-1.3050411,0.8351166999999999,-1
418,419,1583937998063,-3.0839999,0.2689,1.1723,6.540164,-1.1668286,1.266006,-1
419,420,1583937998073,-3.5930998,-0.13859999,2.1367,5.9036610000000005,-1.5729426000000002,2.3319619,-1
420,421,1583937998083,-4.2664,-0.6059,2.8233,5.170728700000001,-1.8131098,2.4831990000000004,-1
421,422,1583937998093,-5.0151997,-0.8746,2.3471,4.591274299999999,-1.9458921999999998,1.6271281000000002,-1
422,423,1583937998104,-5.104,-1.0673,1.2070999,4.864788,-1.7602075000000001,0.2586887,-1
423,424,1583937998114,-4.4644,-0.6034,-0.1064,5.621317400000001,-0.9894278000000001,-0.9991866,-1
424,425,1583937998124,-3.8521998,0.16129999,-1.0054,5.990226,-0.18270631,-1.6349428999999998,-1
425,426,1583937998134,-3.8758998,0.6195,-0.97389996,5.7433453000000005,0.3532118,-1.2628361000000001,-1
426,427,1583937998144,-4.495899700000001,0.96459997,-0.20899999,5.0998507,0.6672064999999999,-0.62080693,-1
427,428,1583937998154,-5.3876,0.8487,0.9504,4.1735435,0.44614512,0.6755384,-1
428,429,1583937998165,-5.7952,0.2985,1.7161,3.9343053999999995,0.03800077,1.0366799,-1
429,430,1583937998175,-5.8856997,-0.051599998,1.7974999,3.9412483999999997,-0.21414697,0.6376046,-1
430,431,1583937998185,-5.7384,-0.4251,1.0394,4.3881984,-0.5015182,-1.1477226999999999,-1
431,432,1583937998195,-5.0499997,-0.5922,-0.8767,5.161601999999999,-0.24553017,-2.9219793999999997,-1
432,433,1583937998206,-4.3114,-0.23709999,-2.1986,5.735272,0.23390393,-3.5723119,-1
433,434,1583937998216,-3.885,0.029099998999999998,-2.1304998,5.843375,0.46403462,-2.6981215,-1
434,435,1583937998227,-3.9817,0.1003,-0.561,5.388362,0.705667,-0.6662296999999999,-1
435,436,1583937998237,-4.5634,0.2717,1.5107,4.6724668,0.92837566,0.7905270999999999,-1
436,437,1583937998247,-5.295099700000001,0.3053,2.6160997999999998,3.9615898,0.9629191999999999,1.0875517,-1
437,438,1583937998257,-5.8794,0.1944,2.4833,3.8145857000000003,0.89637953,-0.004510676,-1
438,439,1583937998267,-5.700599700000001,0.057099998,1.53,4.6573834000000005,0.7737677,-1.1260792,-1
439,440,1583937998277,-4.7012997,-0.0757,0.5884,5.634256,0.5939151999999999,-1.7645266,-1
440,441,1583937998287,-3.4606,-0.38889998,-0.14039999,6.965317,0.23059992,-2.5240822,-1
441,442,1583937998298,-2.4493,-0.6218,-0.6498,7.57942,0.07006392,-3.2029438,-1
442,443,1583937998308,-1.9110999,-0.7576,-1.2710999,7.801573299999999,0.1429913,-3.5474217000000006,-1
443,444,1583937998319,-1.7563,-0.6179,-1.4892,7.722938,0.48497906,-3.4051678,-1
444,445,1583937998329,-1.8263999,-0.33249998,-1.2876999,7.5927896,0.7855472,-2.787703,-1
445,446,1583937998339,-1.9534999,-0.035499997,-0.6407,7.332501400000001,0.89218485,-2.237324,-1
446,447,1583937998349,-2.2556998999999998,0.0255,0.060999997,7.0676928,0.64033407,-1.9650267,-1
447,448,1583937998359,-2.4508,-0.2188,0.271,7.206058500000001,0.40511808,-2.0106316000000004,-1
448,449,1583937998369,-2.2658,-0.48839998,0.2006,7.66518,0.17311037,-2.7073345,-1
449,450,1583937998380,-1.8388,-0.65599996,-0.3979,8.378853999999999,0.1884907,-3.2699146,-1
450,451,1583937998390,-1.1294,-0.6188,-0.9436,8.883331,0.17858829,-3.6349058,-1
451,452,1583937998401,-0.2733,-0.4068,-1.3939999,9.260226,0.38573462,-3.7520301,-1
452,453,1583937998411,-0.2733,-0.4068,-1.3939999,9.224821,0.55150914,-3.5083196000000005,-1
453,454,1583937998421,-0.69449997,-0.114,-0.7754,8.705528,0.6119866999999999,-3.0974362,-1
454,455,1583937998431,-1.1351,-0.1467,-0.6139,8.312113,0.54795617,-2.9708118,-1
455,456,1583937998443,-1.1351,-0.1467,-0.6139,8.163739,0.3966426,-2.9045400000000003,-1
456,457,1583937998453,-1.1994,-0.3798,-0.47239998,8.440814999999999,0.32283416,-2.9329832000000002,-1
457,458,1583937998463,-0.7545,-0.303,-0.718,8.952523,0.41624632,-3.23358,-1
458,459,1583937998474,-0.2512,-0.1542,-0.8666,9.370215,0.5572265000000001,-3.3114492999999996,-1
459,460,1583937998484,-0.0142,-0.046299997999999995,-0.8257,9.470744,0.59353215,-3.251441,-1
460,461,1583937998494,-0.092,-0.0696,-0.7698,9.291035,0.5062300000000001,-3.2109787,-1
461,462,1583937998504,-0.3365,-0.20439999,-0.73499995,9.057408,0.3539013,-3.1806970000000003,-1
462,463,1583937998514,-0.4432,-0.27269998,-0.6886,9.091282000000001,0.36024114,-3.0874572,-1
463,464,1583937998524,-0.2838,-0.1751,-0.48099998,9.271125,0.44605893,-2.8835478,-1
464,465,1583937998535,-0.1822,-0.0975,-0.3672,9.309776,0.51636225,-2.859347,-1
465,466,1583937998545,-0.1586,-0.0011,-0.3308,9.267571,0.5838213000000001,-2.7782795,-1
466,467,1583937998555,-0.1944,-0.0018999999,-0.1096,9.354558,0.5252017,-2.510263,-1
467,468,1583937998565,-0.0448,-0.058599997,0.10789999,9.476576,0.45476425,-2.34491,-1
468,469,1583937998575,0.034399997,-0.1205,0.242,9.54368,0.36456987,-2.2961736,-1
469,470,1583937998585,0.1321,-0.2967,0.2349,9.611504,0.15239573,-2.4121772999999997,d
470,471,1583937998596,0.14109999,-0.3533,0.020399999,9.611849000000001,0.21054609,-2.6840532,-1
471,472,1583937998605,0.1407,-0.20449999,-0.2223,9.596525,0.30902442,-2.8611,-1
472,473,1583937998615,0.1313,-0.0576,-0.4037,9.652464,0.41996214,-3.0110917,-1
473,474,1583937998625,0.35819998,0.078,-0.3956,10.016114,0.57732826,-2.9609475,-1
474,475,1583937998635,0.67399997,0.1828,-0.44419998,10.194453,0.61441916,-3.1553278,-1
475,476,1583937998645,0.72569996,0.19579999,-0.6678,10.148092,0.53792924,-3.2663424,-1
476,477,1583937998656,0.6409999999999999,0.0663,-0.5164,10.000456,0.36338237,-2.8716532999999997,-1
477,478,1583937998666,0.45929998,-0.107,-0.12629999,9.8162365,0.18082927,-2.673653,-1
478,479,1583937998676,0.33679998,-0.23259999,0.0092,9.818593,0.16932751,-2.6055906,-1
479,480,1583937998686,0.3899,-0.19909999,0.0343,9.917971000000001,0.23075315,-2.7631865,-1
480,481,1583937998697,0.5493,-0.1611,-0.22989999,10.101272,0.21428105,-3.2139860000000002,-1
481,482,1583937998707,0.7170000000000001,-0.1681,-0.7643,10.248362,0.16527654,-3.7586093000000003,-1
482,483,1583937998717,0.8346,-0.23349999,-1.4002999,10.350764999999999,-0.01247858,-4.5033307,-1
483,484,1583937998727,1.0302,-0.4165,-2.0084999,10.767396000000002,-0.29858568,-4.601397,-1
484,485,1583937998737,1.3737999,-0.662,-1.8599999,10.847878,-0.50790596,-4.1369886,-1
485,486,1583937998747,1.3661,-0.8631,-1.3151,10.411789,-0.67534685,-3.5108763999999995,-1
486,487,1583937998758,0.8397,-1.0770998999999999,-0.8074,9.814475,-0.6640079000000001,-3.7725148,-1
487,488,1583937998768,0.32279998,-0.99289995,-1.2337999,9.674930999999999,-0.19684169,-4.585068700000001,-1
488,489,1583937998778,0.2358,-0.5043,-2.0876,9.665967,0.32745975,-5.769307599999999,-1
489,490,1583937998789,0.24509999,-0.1092,-3.4076998,9.891442999999999,0.2813283,-7.374840299999999,-1
490,491,1583937998799,0.53859997,-0.2705,-5.0032997,10.652781,0.006282385400000001,-8.844401,-1
491,492,1583937998809,1.2164999,-0.51339996,-6.171,11.0406885,-0.38854063,-9.055761,-1
492,493,1583937998819,1.6143999,-0.93539995,-6.3648996,10.863499000000001,-0.78816164,-8.219142,-1
493,494,1583937998829,1.4476999,-1.3969999999999998,-5.5097,10.297863000000001,-0.98184294,-6.5503540000000005,-1
494,495,1583937998839,0.89059997,-1.6603999,-3.8109998999999997,9.501475,-1.0732535,-5.7550955,-1
495,496,1583937998850,0.1056,-1.8398999,-3.0061998,8.677621,-1.0086197000000001,-6.4301553,-1
496,497,1583937998860,-0.7161,-1.8413999,-3.7066,8.479813,-0.8095562,-7.544110300000001,-1
497,498,1583937998870,-0.9209,-1.6945,-4.861000000000001,8.681682,-0.59325445,-8.41492,-1
498,499,1583937998880,-0.7432,-1.499,-5.8099,8.809762,-0.48649222,-8.453265,-1
499,500,1583937998890,-0.63879997,-1.4116,-5.9417,8.714817,-0.7981024,-7.887036999999999,-1
500,501,1583937998900,-0.7585,-1.7576,-5.4649,8.596084,-1.0846692,-7.355208,-1
501,502,1583937998910,-0.89169997,-2.0737997999999997,-5.0202,8.213539,-1.2638416000000001,-7.083188499999999,-1
502,503,1583937998920,-1.2831,-2.2838,-4.7918997,7.8752475,-1.3398431999999998,-6.409211,-1
503,504,1583937998930,-1.6208999,-2.4182,-4.1695,7.438602400000001,-1.0814321000000002,-5.5640197,-1
504,505,1583937998941,-2.8044,-1.9527999,-2.9257998,6.5630336,-0.653301,-4.977257700000001,-1
505,506,1583937998951,-3.3688,-1.6535,-2.4294999,6.068382,-0.29177657,-4.4039807,-1
506,507,1583937998961,-3.8181,-1.4116,-2.0788,5.6152267,-0.031804577,-4.035973,-1
507,508,1583937998971,-3.8181,-1.4116,-2.0788,5.3099084,0.009050082,-3.9602969,-1
508,509,1583937998981,-4.4674,-1.4498,-2.0874999,5.073706,-0.07392337,-3.894533,-1
509,510,1583937998991,-4.2158,-1.5888,-1.7050999,5.4495190000000004,-0.17918205,-3.3605110000000002,-1
510,511,1583937999002,-3.6801998999999994,-1.4937999,-1.1356,5.960049,-0.053141702,-2.7033505,-1
511,512,1583937999012,-3.4189,-1.3759999,-0.45729998,6.1662474000000005,0.07458418,-1.9301574000000001,-1
512,513,1583937999022,-3.5981998,-1.2883999,-0.0244,5.9320083,0.17400101,-1.5147538999999999,-1
513,514,1583937999032,-3.8855,-1.1894,0.1595,5.673358,0.27229732,-1.2393249,-1
514,515,1583937999042,-4.1931,-1.0659999999999998,0.47599998,5.3693995,0.37918407,-0.80356115,-1
515,516,1583937999053,-4.4719999999999995,-0.9952,0.89629996,5.1271157,0.41879377,-0.27637708,-1
516,517,1583937999063,-4.5060997,-0.9845,1.5024998999999999,5.174789,0.41706994,0.6433603,-1
517,518,1583937999073,-4.4030000000000005,-0.9745,2.2882,5.3103584999999995,0.3615532,1.5874611,-1
518,519,1583937999083,-4.29,-0.98539996,3.1364,5.4251747,0.31163886,2.3963277,-1
519,520,1583937999093,-4.2065,-1.0363,3.4958,5.550162,0.17352216,2.6609635,-1
520,521,1583937999104,-4.133,-1.0986,3.7077,5.5521917,0.108648874,2.9518209,-1
521,522,1583937999114,-4.4316998,-1.0964,3.9492,5.079529,-0.035166036,3.2617552000000005,-1
522,523,1583937999124,-4.8280997,-1.1673,4.1212,4.845453,-0.11197203,3.6319656000000005,-1
523,524,1583937999135,-4.7634,-1.0142,4.6727,5.231205999999999,0.15531665,4.5079845999999995,-1
524,525,1583937999145,-4.080899700000001,-0.5463,5.6794996,5.889928,0.5248186,5.6421566,-1
525,526,1583937999155,-3.8193998,-0.1683,6.5902,5.919711599999999,0.6872795,6.3111825,-1
526,527,1583937999165,-4.0371,-0.1092,7.0164,5.682896599999999,0.47138959999999996,7.0102224,-1
527,528,1583937999175,-4.1352,-0.3588,7.3803,5.6453266,-0.058169525,7.428020500000001,-1
528,529,1583937999186,-4.1724997,-0.8279,7.757999999999999,5.5868983,-0.44795513,7.739803,-1
529,530,1583937999196,-4.463,-1.3922,8.2582,5.3391366,-1.0881072,8.416806,-1
530,531,1583937999206,-4.1338,-1.5331999,9.406199,6.154966,-1.118188,10.059804,-1
531,532,1583937999216,-3.3421998,-1.0986,10.2432995,6.835235000000001,-0.5375749,10.4281845,-1
532,533,1583937999226,-2.8425,-0.249,10.1332,7.101834299999999,0.14451401,9.892564,-1
533,534,1583937999236,-2.6836998,0.41459998,9.4214,7.142678999999999,0.3904081,9.51245,-1
534,535,1583937999247,-2.758,0.5944,9.1645,6.707853999999999,0.20152475,9.672317,-1
535,536,1583937999257,-3.2233,0.42049998,9.3209,6.138312,-0.66437185,9.831741000000001,-1
536,537,1583937999267,-3.7175,-0.4285,9.4671,6.110309,-1.9109848000000003,9.881062,-1
537,538,1583937999277,-3.5832998999999996,-1.5363,9.4908,7.193235400000001,-3.080696,10.001759,-1
538,539,1583937999287,-2.4073,-2.4092999,9.7149,8.924233000000001,-3.4984553,10.115723,-1
539,540,1583937999297,-0.4928,-2.5224,9.734799,10.294444,-2.8054779,9.433566,-1
540,541,1583937999308,0.6595,-1.5311999,8.965,10.330664,-1.8925397000000002,8.6066,-1
541,542,1583937999318,0.4405,-0.5793,8.1673,9.208328999999999,-1.6964834,8.096587,-1
542,543,1583937999328,-0.7581,-0.40899998,7.8041,8.109821,-2.2173085,8.448171,-1
543,544,1583937999338,-1.7294999,-0.9504,8.2153,7.6963053,-3.5425184,8.361653,-1
544,545,1583937999348,-1.9420998999999999,-2.2431,7.8838,8.397088,-5.097629,6.937361999999999,-1
545,546,1583937999358,-0.94409996,-3.5326,6.3553996,10.130605000000001,-5.875218,5.202782,-1
546,547,1583937999369,0.9111,-4.0014,4.7837996,12.009182000000001,-6.2467690000000005,4.4897795,-1
547,548,1583937999379,2.7491999,-4.2002,4.3596,13.511218,-6.6447144,4.131961,-1
548,549,1583937999390,3.9503998999999994,-4.3726,4.1138,13.9260845,-6.531257599999999,3.9902723,-1
549,550,1583937999400,4.4056997,-4.1272,4.0165,13.245853,-6.370444,3.8568482000000004,-1
550,551,1583937999410,3.7616,-3.8448,3.8806998999999998,12.004814,-6.620025,3.3244447999999998,-1
551,552,1583937999422,2.0925999,-4.381,1.3527,11.597791,-7.2357087,0.9792285,-1
552,553,1583937999432,3.1603,-4.5411997,-0.36969998,12.934742,-7.4680032999999995,-0.3371132,-1
553,554,1583937999442,5.4068,-4.7981,-0.42929998,15.1314125,-7.9390583,-0.27862763,-1
554,555,1583937999452,6.9427,-5.0333,-0.4055,16.384844,-8.113719999999999,-0.2355703,-1
555,556,1583937999462,7.0274997,-4.4951,0.046699997,15.825166000000001,-7.4979309999999995,0.46990517,-1
556,557,1583937999473,7.0274997,-4.4951,0.046699997,13.880528,-7.2601295,1.1336257,-1
557,558,1583937999483,3.5158,-3.7958,1.0835,12.124974,-7.0218296,1.1432027,-1
558,559,1583937999493,2.2453,-3.6813998,0.7082,11.276978,-7.029653999999999,0.6827496999999999,-1
559,560,1583937999503,2.0602,-3.7510000000000003,-0.30159998,11.38078,-7.15782,-0.21818839,-1
560,561,1583937999513,3.1173,-3.8802998,-2.1822999,13.017868,-7.291216,-2.6459184,-1
561,562,1583937999523,4.8724,-3.7252998,-4.4613,14.579357,-7.1868476999999995,-4.4273868,-1
562,563,1583937999534,6.0141,-3.6982,-5.4749,15.264817,-7.2259974,-4.7952699999999995,-1
563,564,1583937999544,5.9075,-3.6641998,-4.8599997,14.5610075,-7.204813499999999,-3.6702442000000004,-1
564,565,1583937999554,4.5039,-3.6743,-3.6202998,12.943658000000001,-7.2905645,-2.5385242000000003,-1
565,566,1583937999564,2.7905998,-3.7675998,-2.8288,11.316003,-7.320243400000001,-2.17971,-1
566,567,1583937999574,1.4420998999999999,-3.8513,-3.3114998,10.293669,-7.351511,-2.9993026,-1
567,568,1583937999584,0.96349996,-3.7989998,-4.5441,10.234819,-7.3496246,-5.1079144,-1
568,569,1583937999594,1.4132999,-3.8344998,-6.979099799999999,10.972665,-7.2893289999999995,-7.266928699999999,-1
569,570,1583937999605,2.5417,-3.6376,-9.7534,12.099252,-7.0707580000000005,-9.6061125,-1
570,571,1583937999615,3.4108,-3.4724998,-10.9101,12.491384,-6.987410499999999,-9.749083500000001,-1
571,572,1583937999625,3.0834,-3.4199998,-10.25,11.741644,-6.8917384,-8.839843,-1
572,573,1583937999635,1.7560999,-3.3079,-8.8513,10.280289999999999,-6.740520500000001,-7.471978,-1
573,574,1583937999646,0.30719998,-3.0698,-7.7187,8.827488,-6.233486,-6.466394,-1
574,575,1583937999656,-0.6186,-2.6332998,-7.2177,8.265244500000001,-5.9314237,-6.616797999999999,-1
575,576,1583937999666,-1.0173,-2.4789999,-7.767299700000001,8.204479,-5.8871503,-7.336342,-1
576,577,1583937999676,-0.7611,-2.4759998,-8.3559,8.839027999999999,-5.832821400000001,-7.5154952999999995,-1
577,578,1583937999686,-0.058599997,-2.3632,-8.409699,9.275913000000001,-5.738825,-7.500592999999999,-1
578,579,1583937999697,0.0755,-2.2979998999999998,-8.4801,8.956412,-5.7032084,-7.442826299999999,-1
579,580,1583937999707,-0.4008,-2.3058999,-8.355,8.527026,-5.709568,-7.1960125,-1
580,581,1583937999718,-0.703,-2.2184,-8.0987,8.390805,-5.5008025,-6.8545419999999995,-1
581,582,1583937999728,-0.8007,-1.9548999,-7.7532997,8.17641,-5.179482,-6.3393097,-1
582,583,1583937999738,-1.0366,-1.7296,-7.2492,7.8127785,-5.1504449999999995,-5.723358599999999,-1
583,584,1583937999748,-1.4102,-1.7285999,-6.5705,7.446264299999999,-5.200982,-4.934785,-1
584,585,1583937999759,-1.7325,-1.801,-5.817199700000001,7.3676960000000005,-5.3063936,-4.570167,-1
585,586,1583937999768,-1.7563,-1.8556,-5.536299700000001,7.369697599999999,-5.178849700000001,-4.4252987,-1
586,587,1583937999778,-1.7652999,-1.7054,-5.4460998,7.242939,-5.228592,-4.443581,-1
587,588,1583937999788,-1.9073999,-1.7734,-5.4656,7.168671000000001,-5.297343700000001,-4.0892296,-1
588,589,1583937999798,-1.9585999,-1.7471,-5.0836,6.931195,-5.341809,-3.6817362,-1
589,590,1583937999809,-2.2244,-1.7951,-4.7155,6.569373599999999,-5.554663,-3.2227200000000003,-1
590,591,1583937999819,-2.4995,-1.9467,-4.345,6.5700054,-5.672649,-2.6234417000000003,-1
591,592,1583937999829,-2.47,-2.0142,-3.7336998,6.689907000000001,-5.7087154,-1.8203976999999998,-1
592,593,1583937999839,-2.3315,-1.9973999,-2.9227998,6.974117999999999,-5.737733,-1.5117181999999998,-1
593,594,1583937999849,-2.0249,-1.9568,-2.5858998,7.241589,-5.372225,-1.566689,-1
594,595,1583937999859,-1.7272999,-1.5228,-2.6194,7.075967299999999,-5.295418700000001,-0.88450426,-1
595,596,1583937999870,-1.8812,-1.3942,-1.9052999,6.383353700000001,-5.443141000000001,0.09780793,-1
596,597,1583937999880,-2.5455,-1.4837999,-0.91709995,5.7432300000000005,-5.669096,0.8071333,-1
597,598,1583937999890,-3.1678998,-1.6493,-0.1832,5.6667595,-6.227309,0.53543925,-1
598,599,1583937999900,-3.2054,-2.1392999,-0.4662,6.4663653,-6.648085000000001,0.24441926,-1
599,600,1583937999910,-2.3627,-2.4805999,-0.76049995,7.343907400000001,-6.9783125,0.49112737,-1
600,601,1583937999921,-1.4462999,-2.7158,-0.5277,7.856113400000001,-7.43345,1.2409722,-1
601,602,1583937999931,-0.89269996,-3.0888,0.2128,7.9306493,-7.705058,2.1784267,-1
602,603,1583937999941,-0.90349996,-3.2463,1.611,7.744007000000001,-7.71701,2.6615862999999997,-1
603,604,1583937999952,-0.8677,-2.8525999,1.7465,7.762241400000001,-7.3355083,2.710131,-1
604,605,1583937999961,-0.8677,-2.8525999,1.7465,7.898873299999999,-7.041366,2.617581,-1
605,606,1583937999971,-0.431,-2.0879,1.4627,8.1613455,-6.760248700000001,2.4104822,-1
606,607,1583937999981,-0.20799999,-1.8845999,1.3837,8.360130999999999,-6.6251679999999995,2.4141884,-1
607,608,1583937999991,-0.20799999,-1.8845999,1.3837,8.520016,-6.49953,2.8117793,-1
608,609,1583938000001,-0.0127,-1.7609999,2.8376,8.398074000000001,-6.7137723,4.0810889999999995,-1
609,610,1583938000011,-0.1963,-2.0461,4.0984,8.21918,-7.1089115000000005,5.245734,-1
610,611,1583938000021,-0.19229999,-2.4105,4.7205,8.2429495,-7.492203999999999,5.693852,-1
611,612,1583938000032,-0.19229999,-2.4105,4.7205,8.599389,-7.5198526,5.5878366999999995,-1
612,613,1583938000042,0.6975,-2.2468998,4.4002,9.07527,-7.3157034,5.3123984,-1
613,614,1583938000052,0.6975,-2.2468998,4.4002,9.106748,-7.1052246,5.1398244,-1
614,615,1583938000063,0.8907,-1.4003999,4.0471997,9.146435,-6.556713,5.191558000000001,-1
615,616,1583938000073,0.9036,-1.0813,4.6993,9.054497,-6.281897,6.1733055,-1
616,617,1583938000083,0.6459,-0.9733,5.6459,8.72517,-6.2445188,7.0286674,-1
617,618,1583938000093,0.3172,-0.8394,6.3606,8.362994,-6.1197996,7.612622999999999,-1
618,619,1583938000104,-0.00029999999,-0.7155,6.7897997000000005,8.118077,-6.0092835,7.894775,-1
619,620,1583938000114,-0.029399997999999997,-0.59889996,6.6898,8.182883,-5.9513435,7.660363,-1
620,621,1583938000125,0.3964,-0.5001,5.8462996,8.678645,-5.8153242999999994,6.3704824,-1
621,622,1583938000135,0.8218,-0.2461,4.617,9.11938,-5.569641000000001,5.392891400000001,-1
622,623,1583938000145,1.0454,-0.1152,4.0814,9.197115,-5.6071243,5.090925,-1
623,624,1583938000155,1.1816,-0.1291,4.0348,9.287338,-5.4480634000000006,5.325116,-1
624,625,1583938000165,1.1338,0.0761,4.3556,9.06485,-5.391972,5.563148,-1
625,626,1583938000175,0.8267,0.1487,4.5176,8.6587925,-5.243474,5.501119,-1
626,627,1583938000186,0.43069997,0.22839999,4.4955,8.408849,-5.3017970000000005,5.454547,-1
627,628,1583938000196,0.3022,0.162,4.2707,8.4441,-5.2148012999999995,4.677092,-1
628,629,1583938000206,0.45209998,0.3524,3.2508,8.656533,-4.976128,3.6276370000000004,-1
629,630,1583938000216,0.6429,0.5733,2.2912,8.852369,-4.951104,2.891123,-1
630,631,1583938000226,0.8333,0.47079998,1.7192999,9.062935000000001,-5.097294000000001,2.6223595,-1
631,632,1583938000236,1.069,0.3847,1.6992999,9.189655,-5.166898000000001,2.8043761000000003,-1
632,633,1583938000247,1.0458,0.3051,1.8894,8.911496000000001,-5.2497277,2.956887,-1
633,634,1583938000257,0.7547,0.2015,2.0614,8.552769,-5.3446527,3.14623,-1
634,635,1583938000267,0.3748,0.1251,2.2261999,8.232913,-5.354268,3.0929349999999998,-1
635,636,1583938000277,0.0953,0.12789999,2.1390000000000002,8.24792,-5.352908,2.8108215,-1
636,637,1583938000287,0.2022,0.1239,1.8004999,8.649178,-5.3004847,2.3010669999999998,-1
637,638,1583938000298,0.6552,0.2012,1.2184,9.075738000000001,-5.1552334,1.6764392,-1
638,639,1583938000308,1.0196,0.3369,0.58849996,9.222158,-5.062214,1.2778908000000002,-1
639,640,1583938000318,1.1243,0.4089,0.3144,9.015021,-5.061534,1.5079545,-1
640,641,1583938000329,0.821,0.3768,0.5654,8.590607,-5.203951,1.6850679,-1
641,642,1583938000339,0.39609998,0.1927,0.7529,8.359614,-5.247276,1.8500667000000002,-1
642,643,1583938000350,0.2162,0.1645,0.8883,8.298581,-5.077575,1.8983529,-1
643,644,1583938000360,0.1461,0.31399998,0.9357,8.140899000000001,-5.0227957000000005,2.1526362999999997,-1
644,645,1583938000370,-0.0106,0.35639998,1.1711999,7.8961825,-5.182183,2.1154878,-1
645,646,1583938000380,-0.1241,-0.034199997999999995,0.6671,8.127069,-5.4007635,1.5840996999999999,d
646,647,1583938000391,-0.1241,-0.034199997999999995,0.6671,8.567287,-5.482894,1.2892202,-1
647,648,1583938000401,0.3911,-0.14029999,0.27809998,8.956652,-5.591706299999999,1.0685226,-1
648,649,1583938000411,0.7787,-0.2555,0.0616,8.8605,-5.6805496,1.0458161,-1
649,650,1583938000421,0.38709998,-0.44039997,0.1369,8.535894,-5.752519599999999,1.2133909999999999,-1
650,651,1583938000431,0.1783,-0.40109998,0.47079998,8.331639,-5.6768339999999995,1.5106742,-1
651,652,1583938000441,-0.118999995,-0.461,0.43919998,8.087221000000001,-5.7356453,1.3919411,-1
652,653,1583938000451,-0.013599999,-0.4219,0.25,8.309460000000001,-5.6445985,1.228848,-1
653,654,1583938000461,-0.013599999,-0.4219,0.25,8.603899,-5.6738653,1.0999441,-1
654,655,1583938000471,0.3489,-0.4482,0.0902,8.947237,-5.7834625,1.075868,-1
655,656,1583938000481,0.6932,-0.561,0.065299995,9.321824000000001,-5.9797487,1.2010368,-1
656,657,1583938000491,1.1852,-0.80899996,0.2138,9.490079,-5.966016000000001,1.2415180000000001,-1
657,658,1583938000502,1.37,-0.6825,0.0936,9.737755,-5.821175599999999,1.1050103,-1
658,659,1583938000511,1.37,-0.6825,0.0936,10.077645,-5.7798615,1.0811065,-1
659,660,1583938000521,2.1236,-0.7141,0.4308,10.487072,-5.880418,1.5965973,-1
660,661,1583938000531,2.3483999,-1.0985,1.0873,10.746978,-6.278478,2.2969202999999996,-1
661,662,1583938000541,2.6601,-1.7504,1.9303,11.102152,-6.9213595,3.0928106,-1
662,663,1583938000552,3.2085998,-2.3344998,2.4545999,11.744010000000001,-7.3892727,3.5743226999999997,-1
663,664,1583938000562,4.014199700000001,-2.5372999,2.7711,12.581425,-7.5403943,3.8730044,-1
664,665,1583938000572,4.652199700000001,-2.6186,2.6771,13.148066,-7.5285,3.7454221,-1
665,666,1583938000582,5.0698,-2.3873,2.5348,13.607435,-7.1799617,3.736305,-1
666,667,1583938000593,5.4309998,-2.0516,2.6524,14.007976999999999,-6.781586,3.9119148,-1
667,668,1583938000603,5.7925,-1.7399,3.0614,14.35774,-6.3625526,4.5341773000000005,-1
668,669,1583938000613,5.8009,-1.6189,3.6,14.351573000000002,-6.244701,5.055691700000001,-1
669,670,1583938000624,5.6640997,-1.7169,4.0578,14.249206,-6.2267155999999995,5.4875393,-1
670,671,1583938000634,5.473799700000001,-1.7272999,4.4818,14.122275,-6.033455,5.770256,-1
671,672,1583938000644,5.2328997,-1.5016999,4.4983,13.915101000000002,-5.718388,5.679401,-1
672,673,1583938000654,4.6976,-1.3041999,4.1507998,13.255239499999998,-5.370855000000001,5.0757265,-1
673,674,1583938000664,4.0551,-1.2505,3.2461998,12.769006,-5.176637599999999,4.1177588,-1
674,675,1583938000674,3.6687999,-1.1703,2.3932,12.566139,-4.895003,3.38973,-1
675,676,1583938000685,3.4977998999999995,-0.9938,1.9011999,12.489391,-4.560839,3.0227466,-1
676,677,1583938000695,3.5017,-0.9569,1.8477,12.794029,-4.5532355,3.315749,-1
677,678,1583938000705,3.8079,-1.1589999,2.4191,13.07916,-4.602393,3.8812785000000005,-1
678,679,1583938000715,3.8772,-1.321,3.0256998999999998,12.973202,-4.46284,4.312216,-1
679,680,1583938000725,3.8772,-1.321,3.0256998999999998,12.534709,-4.2942495,4.2392597,-1
680,681,1583938000735,2.6719,-1.3283,3.1805,11.312411,-4.267942400000001,3.645603,-1
681,682,1583938000746,1.4093,-1.6854,2.4796999,10.131886999999999,-4.520071,2.9983833,-1
682,683,1583938000756,0.26,-2.1125,2.1059,9.345239999999999,-4.6337953,2.7359214,-1
683,684,1583938000766,-0.2936,-2.2676,1.9824,9.238745,-4.373239,2.633306,-1
684,685,1583938000777,-0.2509,-2.0277998,1.9377999,9.487646,-3.6096613,2.3799036,-1
685,686,1583938000786,-0.113199994,-1.5417999,1.6758,9.450096,-3.1656423,1.8922908,-1
686,687,1583938000796,-0.2741,-1.2055,0.9529,9.2177725,-2.8259435,1.1855799999999999,-1
687,688,1583938000806,-0.7053,-1.0684999,0.24659999,8.701228,-2.744981,0.49569553,-1
688,689,1583938000816,-1.0841,-1.3944,-0.1468,8.503697,-3.1413843999999997,0.35381514,-1
689,690,1583938000826,-1.2736,-1.9785999,-0.020299999,8.266172000000001,-3.4364169,0.6886203000000001,-1
690,691,1583938000837,-1.5296999,-2.238,0.3031,8.136694,-3.1855714,0.6330939999999999,-1
691,692,1583938000847,-1.617,-2.0384,0.2608,8.099344,-2.5726178,0.42232759999999997,-1
692,693,1583938000857,-1.7217,-1.537,0.085599996,7.7605944000000004,-1.8638860000000002,0.094609275,-1
693,694,1583938000867,-2.0886,-0.9772,-0.1444,7.431918,-1.3441813999999999,-0.07623138,-1
694,695,1583938000877,-2.4232,-0.6705,-0.18069999,7.319946300000001,-0.93205315,-0.31984618,-1
695,696,1583938000887,-2.4802,-0.368,-0.456,7.3146887000000005,-0.51856494,-1.1993897,-1
696,697,1583938000898,-2.5146,-0.116299994,-1.2994,7.214342599999999,-0.2550591,-1.8180323,-1
697,698,1583938000907,-2.6051,-0.0341,-1.6635,7.162446000000001,-0.29369193,-1.809145,-1
698,699,1583938000917,-2.7031,-0.28939998,-1.5259,7.0974383,-0.5469027,-1.5651567,-1
699,700,1583938000927,-2.7105,-0.6281,-1.1042,7.1272706999999995,-0.79603374,-1.075169,-1
700,701,1583938000937,-2.6768,-0.95379996,-0.5751,7.2874419999999995,-0.89010674,-0.99096006,-1
701,702,1583938000947,-2.4745998,-1.1005,-0.513,7.306337400000001,-0.6624277,-1.4117458999999999,-1
702,703,1583938000958,-2.5167,-0.9305,-0.94479996,6.898672,-0.33126175,-1.8699002,-1
703,704,1583938000968,-2.98,-0.6989,-1.2662,6.448246,0.012880805,-1.8976346000000002,-1
704,705,1583938000978,-3.4138,-0.50049996,-1.2263,6.103787400000001,0.27969065,-2.0591953000000003,-1
705,706,1583938000988,-3.6906998,-0.3103,-1.4083999,6.224550700000001,0.61939913,-2.239115,-1
706,707,1583938000998,-3.487,-0.009699999,-1.51,6.3720145,0.8034941,-2.4505036000000002,-1
707,708,1583938001010,-3.4103,-0.0037999998,-1.7025,6.149651,0.53232676,-2.5827117000000004,-1
708,709,1583938001020,-3.5972998,-0.3067,-1.7373999,6.168057,0.18373103,-2.358413,-1
709,710,1583938001030,-3.5672998,-0.7036,-1.4580000000000002,6.610151299999999,-0.029831752000000003,-2.1204392999999997,-1
710,711,1583938001040,-3.115,-0.94839996,-1.1449,7.3609543,0.059989117,-2.2480211,-1
711,712,1583938001051,-2.3492,-0.9246,-1.2112,7.321488,0.39282146,-2.0273142,-1
712,713,1583938001061,-2.3790998,-0.625,-0.9501,6.4506593,0.53697157,-1.8397332,-1
713,714,1583938001071,-3.2431997999999997,-0.5356,-0.73289996,5.2150984000000005,0.6073994,-1.6633381999999999,-1
714,715,1583938001081,-5.279,-0.44399998,-0.4915,4.3559722999999995,0.72133464,-1.68502,-1
715,716,1583938001091,-4.9416,-0.44129997,-0.74909997,4.964607,0.7488201,-1.9572504000000002,-1
716,717,1583938001101,-3.6353,-0.26839998,-0.9916,6.3035692999999995,0.9350411,-2.2792227,-1
717,718,1583938001111,-2.5166,-0.26569998,-1.6108999,7.3491364,0.81623125,-2.9378290000000002,-1
718,719,1583938001122,-1.7892,-0.6448,-2.1057,7.978495,0.42313206,-3.4272997000000003,-1
719,720,1583938001132,-1.4814,-0.7114,-2.292,8.187614,0.39853883,-3.5988013999999997,-1
720,721,1583938001142,-1.7802,-0.73429996,-2.2264,7.7682076,0.3496970999999999,-3.4679818,-1
721,722,1583938001153,-2.421,-0.9978,-1.4598,7.0430803,0.034323275,-2.3436747,-1
722,723,1583938001163,-2.7770998,-1.1692,-0.3534,6.778799,-0.053429004,-1.3030969,-1
723,724,1583938001173,-2.8501,-1.1488999,0.50229996,6.845434700000001,0.08481219999999999,-0.80960405,-1
724,725,1583938001183,-2.6309,-0.93119997,0.5981,7.107638000000001,0.36041355,-0.9532083,-1
725,726,1583938001193,-2.4238,-0.64169997,0.1592,7.302918400000001,0.6328545999999999,-1.6003515,-1
726,727,1583938001203,-2.1402,-0.42949998,-0.7744,7.6532860000000005,0.77457213,-2.6637888,-1
727,728,1583938001213,-1.6617,-0.3766,-1.7109,8.220338,0.67521274,-3.3961751000000002,-1
728,729,1583938001223,-1.6617,-0.3766,-1.7109,8.69893,0.46127650000000003,-3.5748591,-1
729,730,1583938001234,-0.45709997,-0.69979995,-1.5929999,9.295555,0.37164715,-2.6599677,-1
730,731,1583938001244,-0.434,-0.8376,-0.5898,9.065836000000001,0.22629994,-1.7371657999999999,-1
731,732,1583938001254,-0.8795,-0.8613,0.1418,8.544245,0.34173876,-1.2847956,-1
732,733,1583938001264,-1.4038999,-0.556,0.2399,8.120892999999999,0.75096536,-1.3497839,-1
733,734,1583938001274,-1.5773,-0.1573,0.1418,8.039911,1.1566868000000001,-1.5003505,-1
734,735,1583938001285,-1.5663999,0.094299994,-0.06,8.087872500000001,1.3041886999999999,-1.7170736,-1
735,736,1583938001295,-1.4196,0.1602,-0.33069998,8.35088,1.2789825000000001,-1.9577005,-1
736,737,1583938001305,-1.0568,0.0867,-0.4773,8.680599,1.1140317,-2.0597413,-1
737,738,1583938001315,-0.732,-0.1797,-0.5362,9.166115,0.75165486,-2.1740310000000003,-1
738,739,1583938001325,-0.2391,-0.4283,-0.5875,9.578358999999999,0.62268394,-2.2360024,-1
739,740,1583938001335,0.17600000000000002,-0.3775,-0.59959996,9.864877,0.7945398,-2.0695095,-1
740,741,1583938001345,0.1989,-0.24589999,-0.19469999,9.608573,0.90878147,-1.5012313999999998,-1
741,742,1583938001356,-0.2588,-0.15079999,0.3505,8.899305,0.95392656,-1.2899767,-1
742,743,1583938001366,-1.0024998999999999,-0.105,0.3284,8.35427,0.9951164,-1.4767915,-1
743,744,1583938001377,-1.2380999,-0.021699998999999998,0.124299996,8.658525,1.1205535,-1.6759028000000002,-1
744,745,1583938001386,-0.6809,0.053999998,-0.081199996,9.305141,1.1265965,-1.9764326,-1
745,746,1583938001396,-0.0852,0.0994,-0.5406,9.847256,1.1167418,-2.6419634999999997,-1
746,747,1583938001406,0.4034,0.086399995,-1.1516,10.210302,1.0639448999999999,-2.9492924,-1
747,748,1583938001417,0.66889995,0.0368,-1.2148,10.32441,1.0176985,-2.727762,d
748,749,1583938001427,0.61359996,0.014599998999999999,-0.84779996,10.045391,0.95263374,-2.3086138,-1
749,750,1583938001437,0.295,-0.0874,-0.36089998,9.752981,0.8891011999999999,-1.6844835999999999,-1
750,751,1583938001447,0.0357,-0.08779999599999999,0.39859998,9.409011999999999,0.96896213,-1.1440933,-1
751,752,1583938001457,-0.23429999,-0.0285,0.64309996,9.270301,1.0595204,-1.3797976,-1
752,753,1583938001468,-0.31039998,0.0859,0.3302,9.35179,1.2250556000000001,-1.9968983,-1
753,754,1583938001478,-0.2223,0.23879999,-0.32459998,9.511167,1.3304292,-2.550093,-1
754,755,1583938001488,-0.0676,0.3604,-0.7996,9.575313000000001,1.4093612,-2.711625,-1
755,756,1583938001498,-0.0409,0.41619998,-0.8836,9.679317,1.39106,-2.5604357999999996,-1
756,757,1583938001508,0.1038,0.39249998,-0.68149996,9.806811999999999,1.2091676000000002,-2.3467295,-1
757,758,1583938001518,0.23009999,0.23969999,-0.5823,10.100313,1.0104393,-2.647106,-1
758,759,1583938001529,0.49469998,0.074999996,-0.84209996,10.3871765,0.97539777,-2.9884522000000002,-1
759,760,1583938001539,0.7794,0.0447,-1.1788,10.425061999999999,1.053104,-3.2602227000000004,-1
760,761,1583938001549,0.7996,0.1373,-1.4876,10.229906,1.0557281,-3.2731035,-1
761,762,1583938001559,0.5642,0.1261,-1.4097998999999999,9.769349,0.82497483,-3.025792,-1
762,763,1583938001569,0.1717,-0.1056,-1.2083,9.452912,0.40883390000000003,-3.1936831000000003,-1
763,764,1583938001579,-0.1514,-0.52599996,-1.3869999999999998,9.537408000000001,0.12186487,-3.5632424,-1
764,765,1583938001589,0.0267,-0.8768,-1.8334,10.135547,-0.053505618,-3.9514,-1
765,766,1583938001599,0.65669996,-0.97139996,-2.2062,10.700387,-0.010036494,-4.432510400000001,-1
766,767,1583938001610,1.1001999,-0.95019996,-2.6008,10.718554,-0.060783993,-4.7531989999999995,-1
767,768,1583938001620,1.1219,-1.0142,-2.9213,10.514012,-0.22170308,-4.5808644,-1
768,769,1583938001630,0.91889995,-1.204,-2.7421,10.269487,-0.50939035,-4.8327919999999995,-1
769,770,1583938001640,0.67719996,-1.5164,-2.9940999,10.007035,-0.64139706,-5.1042657,-1
770,771,1583938001650,0.4155,-1.6740999,-3.2598,9.738999999999999,-0.5205282,-5.182183,-1
771,772,1583938001661,0.1515,-1.5856999,-3.3609998,9.493929,-0.41806590000000005,-5.185649400000001,-1
772,773,1583938001670,-0.096499994,-1.5030999,-3.392,9.308244,-0.303987,-5.265826000000001,-1
773,774,1583938001680,-0.2898,-1.4139,-3.5198998,9.240008999999999,-0.13526282,-5.661004,-1
774,775,1583938001691,-0.3681,-1.2602999,-3.9852998,9.314518,-0.07439263,-5.790157,-1
775,776,1583938001701,-0.3004,-1.2019,-4.1732,9.188821,-0.23299412,-5.8436330000000005,-1
776,777,1583938001711,-0.81939995,-1.6353999,-4.158,8.74034,-0.4927746,-5.5563965,-1
777,778,1583938001721,-0.81939995,-1.6353999,-4.158,8.579593,-0.47254837,-5.1371519999999995,-1
778,779,1583938001731,-1.1175,-1.3785,-3.3707,8.473319,-0.07927681,-4.57644,-1
779,780,1583938001742,-1.6241,-1.1119,-2.8583998999999998,7.877297,0.23450726,-3.9772766,-1
780,781,1583938001752,-2.4145,-0.8874,-2.2735999,7.07522,0.48543876,-3.3233913999999998,-1
781,782,1583938001763,-3.2240999,-0.7197,-2.1919,6.2083755,0.6711809,-3.2723086,-1
782,783,1583938001773,-3.6415,-0.65169996,-2.2668,5.978111,0.7575446,-3.1016405,-1
783,784,1583938001784,-3.7057998,-0.6428,-1.8858,5.973485500000001,0.7577361,-2.3994784,-1
784,785,1583938001794,-3.6915998,-0.6644,-1.0769,5.9980974,0.75570583,-1.6466553,-1
785,786,1583938001804,-3.6678998,-0.59779996,-0.9598,6.0569377,0.9990046,-2.0341904,-1
786,787,1583938001815,-3.5669,-0.2746,-1.6784999,6.198233999999999,1.2588808999999999,-2.5684228,-1
787,788,1583938001825,-3.5669,-0.2746,-1.6784999,6.389023,1.3874686,-2.9660041,-1
788,789,1583938001836,-2.8558998,0.2156,-2.7277,7.101795699999999,1.7067976000000002,-2.4469411,-1
789,790,1583938001846,-2.5674,0.4084,-1.2586,6.8561606,1.7397610000000001,-0.16228858,-1
790,791,1583938001857,-3.267,0.2962,1.099,5.6882209999999995,1.4458008999999998,2.0468414,-1
791,792,1583938001867,-4.514199700000001,-0.028299998,2.9210000000000003,4.48388,1.233847,3.4199447999999997,-1
792,793,1583938001877,-5.3608,-0.10569999,3.5665,4.2374306,1.2637171999999999,3.0590906,-1
793,794,1583938001887,-5.4553,-0.0264,2.8943,4.6623917,1.4173098999999998,2.4756044999999998,-1
794,795,1583938001897,-4.9006,0.2126,2.4452999,5.583317,1.7132428,3.0426664,-1
795,796,1583938001907,-3.9975998,0.6069,3.0963,6.2327485000000005,2.1200464,3.8260396,-1
796,797,1583938001917,-3.9975998,0.6069,3.0963,6.484791,2.514448,4.402314700000001,-1
797,798,1583938001928,-3.2057,1.6607,4.4933,6.595269,2.8207335,5.8108997,-1
798,799,1583938001938,-3.194,1.8859999,5.6429996,6.4878364,2.4693317,7.290775,-1
799,800,1583938001950,-3.2739999999999996,1.4793,7.1015,6.520637000000001,1.8918884999999999,8.604627,-1
800,801,1583938001960,-3.1638,0.21899999999999997,8.7942,6.641592500000001,0.78588235,9.418052000000001,-1
801,802,1583938001971,-3.1638,0.21899999999999997,8.7942,6.9337134,0.47720268,8.971208,-1
802,803,1583938001981,-1.9225999,0.1634,7.7037997,8.089998,0.7060501,8.417956,-1
803,804,1583938001992,-0.9116,0.52669996,7.6180997,8.979741,0.9397049999999999,8.4377985,-1
804,805,1583938002002,-0.7324,0.6633,7.7615,9.042871,0.9122962,8.652951,-1
805,806,1583938002012,-1.1604999,0.4784,8.2035,8.556724,0.5511069000000001,9.300564,-1
806,807,1583938002022,-1.2166,0.1418,8.8628,8.597817,0.06953719,9.939212,-1
807,808,1583938002033,-0.83309996,-0.4209,8.972999999999999,9.044528,-0.64449996,9.909907,-1
808,809,1583938002043,-0.118099995,-0.95559996,8.5352,9.965338000000001,-1.3443539,9.262936999999999,-1
809,810,1583938002053,-0.118099995,-0.95559996,8.5352,10.425283,-1.6308726999999998,8.737112,-1
810,811,1583938002063,0.8005,-1.4281,7.4315996,10.549169000000001,-1.8599116999999998,8.194443,-1
811,812,1583938002074,0.6631,-1.3519999999999999,7.2619996,10.29389,-1.840011,8.045226,-1
812,813,1583938002084,0.2914,-1.3245,7.2145996,9.960157,-1.9029881999999998,7.970795599999999,-1
813,814,1583938002094,0.2251,-1.2434,7.2374997,10.070386,-1.9055451,7.9324694000000004,-1
814,815,1583938002104,0.4732,-1.3672999,6.8717,10.431028999999999,-2.2851027999999998,7.173947999999999,-1
815,816,1583938002114,0.9662,-1.8621999,5.6506,11.109125,-3.0257347,5.2738614,-1
816,817,1583938002124,1.6846,-2.3458,4.0894,11.781158,-3.3866847,4.1347194,-1
817,818,1583938002135,2.4327,-2.6259,3.1720998,12.363045,-3.7461019999999996,3.6647375,-1
818,819,1583938002145,2.6025,-2.8760998,3.5259,12.086878,-4.006543,4.510111,-1
819,820,1583938002155,2.0664,-2.8760000000000003,4.5787,11.375312,-3.8392076,5.0151153,-1
820,821,1583938002166,1.3248,-2.5331,4.5394,10.657444,-3.4140646,4.0682464,-1
821,822,1583938002176,0.7708,-2.0818,3.2807998999999994,10.559713,-3.2675009999999998,2.5368673999999998,-1
822,823,1583938002186,1.0717,-2.0621998,1.7608999,11.45004,-3.4514334000000004,1.0377907,-1
823,824,1583938002196,2.208,-2.2584,0.502,12.79177,-4.1148477,0.07022672,-1
824,825,1583938002206,3.2177,-2.8643,-0.019,13.245154000000001,-4.7598357,-0.430171,-1
825,826,1583938002217,3.5602998999999995,-3.375,-0.38,13.039147999999999,-4.9764347,-0.5263317,-1
826,827,1583938002227,3.2563,-3.4647,-0.2015,12.549006,-4.9147596,-0.2581907,-1
827,828,1583938002237,2.7419,-3.3581,0.098299995,11.963988,-4.655937000000001,-0.4630482,-1
828,829,1583938002247,2.1691,-3.0769,-0.1919,11.69897,-4.5010414,-1.673863,-1
829,830,1583938002257,2.0769,-2.8992999,-1.5179,12.204069,-4.158211,-3.1111022999999998,-1
830,831,1583938002267,2.6334,-2.5354,-2.8262,12.706641000000001,-4.068812,-4.298636,-1
831,832,1583938002278,3.0929,-2.4505,-3.9002,12.678457,-4.0791260000000005,-4.855671,-1
832,833,1583938002288,2.9245,-2.4299,-4.2928,12.073422,-4.217444,-5.0855809999999995,-1
833,834,1583938002298,2.2941,-2.5774999,-4.451699700000001,11.6549635,-4.458329,-5.348848,-1
834,835,1583938002308,1.9869999999999999,-2.7824,-4.7085,11.752265,-4.353406,-6.219121,-1
835,836,1583938002321,2.1908,-2.5879998,-5.6313996,12.098907,-4.0133715,-7.458695,-1
836,837,1583938002331,2.5333,-2.2768,-6.808799700000001,12.312853,-3.9517832000000004,-8.789555,-1
837,838,1583938002341,2.6185,-2.1101,-8.0287,12.162142999999999,-3.7782226000000003,-9.099364,-1
838,839,1583938002351,2.103,-1.9346999,-7.7489,11.555136,-3.5969818,-8.783043,-1
839,840,1583938002362,1.29,-1.7842,-7.4614,10.747792,-3.4239383,-8.666053,-1
840,841,1583938002372,0.7205,-1.6328,-8.1417,10.252546,-3.2698473999999997,-9.537657000000001,-1
841,842,1583938002383,0.6023,-1.4751999,-9.271299,10.249443,-3.0882425,-10.682985,-1
842,843,1583938002393,0.7787,-1.3426,-10.393599499999999,10.434726,-2.9443605,-11.832384,-1
843,844,1583938002403,0.7984,-1.3591,-10.7555,10.36266,-3.0506535,-11.948694,-1
844,845,1583938002413,0.3178,-1.6114998999999999,-10.419399,9.650865,-3.3006464999999996,-11.358266,-1
845,846,1583938002423,-0.4091,-1.7885,-9.4983,8.902647,-3.4365797,-10.290614,-1
846,847,1583938002433,-1.1082,-1.9253,-8.2947,8.272551,-3.4672542,-9.153627,-1
847,848,1583938002444,-1.6618998999999999,-1.8682,-7.3286,7.782726299999999,-3.3486357000000004,-8.373088000000001,-1
848,849,1583938002454,-2.0700998,-1.9038999,-6.9311,7.4668350000000006,-3.4057614999999997,-8.254432000000001,-1
849,850,1583938002464,-2.1264,-1.9397999,-7.1326,7.57874,-3.3569962999999996,-8.587733,-1
850,851,1583938002474,-1.9377999,-1.8194,-7.6233997,7.724193,-3.1998026000000004,-8.905186,-1
851,852,1583938002484,-1.9454,-1.8227999,-7.6692995999999996,7.6373215,-3.3241767999999996,-8.684038000000001,-1
852,853,1583938002495,-2.0212998,-2.0135,-7.065,7.670658,-3.4555323,-7.821339599999999,-1
853,854,1583938002505,-2.0181,-2.1078,-6.0536,7.583145599999999,-3.5163066,-6.699235000000001,-1
854,855,1583938002515,-2.1914,-2.1743,-4.9923,7.419181299999999,-3.5890136,-5.8718276,-1
855,856,1583938002525,-2.3841999,-2.3095999,-4.2458,7.2596793,-3.6412072,-5.1077227999999995,-1
856,857,1583938002535,-2.4887,-2.2465,-4.1109,7.0491424,-3.4859579,-5.038875,-1
857,858,1583938002546,-2.7401,-2.1313,-3.9803998,6.8206014999999995,-3.5153968,-4.6466665,-1
858,859,1583938002556,-2.9027,-2.2387,-3.5188,6.762844,-3.6126301,-3.9847178,-1
859,860,1583938002566,-2.8882,-2.3509,-2.9036,6.889286500000001,-3.7010910000000004,-3.3712754,-1
860,861,1583938002576,-2.7749999,-2.3688998,-2.3523998,6.9152975,-3.6700144,-2.560723,-1
861,862,1583938002587,-2.7886999,-2.3528,-1.68,6.8919015,-3.7010622000000004,-1.6033203999999999,-1
862,863,1583938002597,-2.8114998,-2.353,-0.7647,6.8300734,-3.738182,-0.64906806,-1
863,864,1583938002607,-2.912,-2.4099998,0.1026,6.6397247,-3.8286924,0.013292608000000001,-1
864,865,1583938002617,-3.1101,-2.4459999,0.5754,6.454586,-3.6592404999999997,0.34661338,-1
865,866,1583938002627,-3.2979,-2.2458,0.8472,6.215769,-3.3828347,0.66443884,-1
866,867,1583938002637,-3.5340998,-1.9162999,1.0677,6.0777,-3.063544,1.1270657,-1
867,868,1583938002648,-3.6711,-1.6527,1.5854,5.9686875,-3.0576923,2.1227088,-1
868,869,1583938002657,-3.7380998,-1.5903,3.0112,5.9129887000000005,-2.8933735,3.572264,-1
869,870,1583938002667,-3.8625,-1.3557,4.0141,5.6598926,-2.6208656,4.264897,-1
870,871,1583938002677,-4.1912,-0.9758,4.6282997,5.263413,-2.3411652999999997,5.115365,-1
871,872,1583938002687,-4.449,-0.79999995,5.3469996,5.2745986,-2.2749705000000002,5.912146,-1
872,873,1583938002697,-4.3803,-0.6204,6.0104,5.3511169999999995,-2.1155262,6.152753400000001,-1
873,874,1583938002707,-4.3282,-0.38889998,5.9908,5.446435500000001,-2.1676335,5.7586102,-1
874,875,1583938002718,-4.1556,-0.4127,5.5688,5.91636,-2.0388448,5.6840553,-1
875,876,1583938002728,-3.5914998,-0.092999995,5.5175,6.5037246,-1.7812860000000001,6.57443,-1
876,877,1583938002738,-3.0704,0.1759,6.6208,6.5106583,-1.913082,8.077117,-1
877,878,1583938002748,-3.1502,0.065,8.0849,6.2531667,-2.0549529,9.284886,-1
878,879,1583938002758,-3.3766,0.0618,9.1065,6.0425344,-1.9479895,9.335395,-1
879,880,1583938002768,-3.5614,0.271,8.9003,5.769978,-2.007835,8.701727,-1
880,881,1583938002779,-3.8007998,0.2568,8.2434,5.901458,-2.3725102000000002,8.152994,-1
881,882,1583938002789,-3.4861,-0.0081,7.6885,6.806227000000001,-2.666863,7.85392,-1
882,883,1583938002799,-2.6664,-0.114999995,7.4365997,7.589016,-2.8665297,8.148750999999999,-1
883,884,1583938002809,-1.6286,-0.1901,7.7669997,8.470264,-2.632846,8.331085,-1
884,885,1583938002819,-0.81619996,0.25779998,7.8348,8.518981,-2.318813,8.165942,-1
885,886,1583938002829,-0.8386,0.5984,7.6604996,8.117139,-2.4370580000000004,8.468617,-1
886,887,1583938002839,-1.3043,0.5667,8.0764,7.6777163,-2.8140104,9.125221,-1
887,888,1583938002850,-1.6127,0.3182,8.590799,7.5355678,-3.4021702000000005,9.082174,-1
888,889,1583938002860,-1.7218,-0.1601,8.546599,7.5359125,-4.100703,8.4128895,-1
889,890,1583938002870,-1.6791999,-0.73929995,7.8648,7.7301784,-4.474801,7.3853364,-1
890,891,1583938002880,-1.4252,-0.99759996,6.8047,8.572113,-4.5415807,6.4647274,-1
891,892,1583938002890,-0.52919996,-0.9274,5.8525996,9.477591,-4.4106846,6.2885337,-1
892,893,1583938002901,0.6969,-0.6196,6.0181,9.656208,-4.5510707,6.809895,-1
893,894,1583938002911,0.6969,-0.6196,6.0181,9.318280999999999,-4.9223349999999995,6.9929943,-1
894,895,1583938002921,0.0602,-1.2275,5.8898,8.910778,-5.384387,6.5147758,-1
895,896,1583938002931,0.0298,-1.5272,5.2176,8.89831,-5.785157,5.854465,-1
896,897,1583938002941,0.118599996,-1.7774999,4.9473,8.902159,-6.1148586,5.7062635,-1
897,898,1583938002952,0.0033999997999999997,-1.9893999,4.9424,8.737898,-6.4478626,5.6506515,-1
898,899,1583938002962,0.0033999997999999997,-1.9893999,4.9424,8.840819,-6.637771000000001,5.094421,-1
899,900,1583938002972,0.5949,-1.9554,3.3395,9.351339999999999,-6.4793324,4.0413165,-1
900,901,1583938002983,1.1840000000000002,-1.6295998999999999,2.6957,9.902475,-6.319476,3.5180495,-1
901,902,1583938002993,1.5663999,-1.7573999,2.5825,10.125423,-6.630847,3.5665370000000003,-1
902,903,1583938003003,1.6219,-2.1942,2.7924,10.045678,-7.1703277000000005,3.7921665,-1
903,904,1583938003013,1.3305,-2.4805999,2.7396998,9.67652,-7.533106299999999,3.663301,-1
904,905,1583938003023,1.0867,-2.7326,2.4982,9.42216,-7.8955503,3.3694269999999995,-1
905,906,1583938003034,1.0893999,-2.9766998,1.9016998999999999,9.451725,-8.182089,2.6424804,-1
906,907,1583938003044,1.4080000000000001,-3.0159,0.9105,9.813929,-8.189434,1.6659716,-1
907,908,1583938003054,2.0108,-2.7726998,-0.0001,10.412144,-7.978561999999999,0.89002055,-1
908,909,1583938003065,2.4524999,-2.5936,-0.45499998,10.640875999999999,-7.950703,0.7028706,-1
909,910,1583938003075,2.4357998,-2.5015,-0.3329,10.210936,-7.851487599999999,0.9150351000000001,-1
910,911,1583938003085,1.8139,-2.3504,-0.1722,9.38167,-7.765832400000001,0.9922721,-1
911,912,1583938003095,1.0418,-2.235,-0.057,8.716014999999999,-7.712988,1.0828687,-1
912,913,1583938003106,0.4588,-2.1299,-0.2438,8.366442999999999,-7.8004336,0.47853386,-1
913,914,1583938003116,0.59749997,-2.3355,-1.0708,9.1680975,-7.9883976,-0.55654657,-1
914,915,1583938003126,1.7312,-2.2141,-2.338,10.296025,-7.6226788,-1.9062346000000001,-1
915,916,1583938003136,2.6754,-1.821,-3.6021998,10.692026,-7.4974229999999995,-2.6194482000000003,-1
916,917,1583938003146,2.7844,-1.7906,-3.8555998999999996,10.449005,-7.5686936000000005,-2.319426,-1
917,918,1583938003156,2.1664999,-1.8385999,-2.8278,9.544428,-7.704541000000001,-0.8121036,-1
918,919,1583938003166,1.4459,-1.9703,-1.6868999,8.790274,-7.882172,-0.2598092,-1
919,920,1583938003176,0.6799,-2.0927,-1.5503,8.08725,-7.9594088,-0.53621495,-1
920,921,1583938003186,0.1099,-2.1718,-2.1009998,7.8231687999999995,-8.244577,-1.3526187,-1
921,922,1583938003196,0.2593,-2.4877,-3.1301,8.525445,-8.514644,-2.4192834,-1
922,923,1583938003206,1.3102,-2.6188998,-4.2661,9.702828,-8.645558,-3.3247989999999996,-1
923,924,1583938003216,2.4682,-2.7477999,-5.0964,10.556878,-8.900244,-3.7396472000000003,-1
924,925,1583938003226,3.1622999,-2.9424,-5.1893997,10.815068,-9.111172999999999,-3.3488178,-1
925,926,1583938003236,3.1218998,-3.1043,-4.674299700000001,10.425198,-9.232511,-2.8073547000000003,-1
926,927,1583938003246,2.6510000000000002,-3.1654,-4.0552,9.826253999999999,-9.123431,-2.1185907999999998,-1
927,928,1583938003256,2.0451999,-2.9032998,-3.3509,9.220061,-8.707903,-1.5852488,-1
928,929,1583938003267,1.4481,-2.3720999,-2.8693,8.552855000000001,-8.169417999999999,-1.0977128,-1
929,930,1583938003277,0.8935,-2.0486999,-2.6271,8.231812,-8.0776825,-1.2528857,-1
930,931,1583938003287,0.6493,-1.939,-2.9178998,8.346886999999999,-7.889699,-1.4833516000000002,-1
931,932,1583938003297,0.91069996,-1.7860999,-3.1877,8.763095,-7.8575497,-2.0325718,-1
932,933,1583938003307,1.3291998999999999,-1.7296,-3.7939,9.067416,-7.7290287,-2.2482127999999997,-1
933,934,1583938003318,1.5942,-1.5776,-3.8695,8.941902,-7.549866000000001,-1.7594988,-1
934,935,1583938003328,1.3484,-1.4118998999999999,-3.3409,8.358377,-7.385375,-1.1496766,-1
935,936,1583938003338,0.7414,-1.2328,-2.6710000000000003,7.8425139999999995,-7.136445,-0.34719753,-1
936,937,1583938003348,0.2505,-0.9773,-1.8636999,7.468434299999999,-6.9242034,0.15757678,-1
937,938,1583938003358,-0.1285,-0.82769996,-1.4892,7.232403999999999,-6.871320699999999,0.3335027,-1
938,939,1583938003368,-0.29479998,-0.7919,-1.3166,7.270185000000001,-6.8868637,0.41540357,-1
939,940,1583938003379,-0.21869999,-0.80939996,-1.3224,7.611090700000001,-7.07817,0.42834184,-1
940,941,1583938003389,0.107499994,-0.9891,-1.3339,8.151078,-7.1455910000000005,0.20545124,-1
941,942,1583938003399,0.6687,-1.0501,-1.5745,8.393880000000001,-6.938521000000001,-0.06589801,-1
942,943,1583938003410,0.9094,-0.8404,-1.829,8.356272,-6.7918330000000005,-0.0006895300500000001,-1
943,944,1583938003420,0.73749995,-0.62729996,-1.6791999,7.5726204,-6.639849000000001,0.54285175,-1
944,945,1583938003430,0.066599995,-0.54789996,-1.2093999,7.034308,-6.534217,0.89559424,-1
945,946,1583938003440,-0.4881,-0.46019998,-0.82559997,6.736996,-6.3445673,1.0695187,-1
946,947,1583938003450,-0.7931,-0.2712,-0.62689996,6.620130499999999,-6.266363,0.9515515,-1
947,948,1583938003461,-0.91429996,-0.19479999,-0.736,6.8246818,-6.256958999999999,1.0424546000000001,-1
948,949,1583938003471,-0.7055,-0.1819,-0.6493,7.0843854,-6.207619,1.0572985000000001,-1
949,950,1583938003481,-0.3619,-0.1405,-0.6714,7.1421529999999995,-6.2377095,0.98507035,-1
950,951,1583938003491,-0.3796,-0.1567,-0.8341,7.140745,-6.26916,0.8234234,d
951,952,1583938003501,-0.3213,-0.19409999,-1.0605,7.218422400000001,-6.2801730000000004,0.58588034,-1
952,953,1583938003512,-0.2058,-0.1047,-1.0172,7.330892599999999,-6.205646499999999,0.69289154,-1
953,954,1583938003522,-0.17989999,-0.1147,-0.66819996,7.313405,-6.191875,1.0756956,-1
954,955,1583938003532,-0.3886,-0.1156,-0.3353,7.083064,-6.217071,1.3603089,-1
955,956,1583938003542,-0.64309996,-0.1647,-0.112399995,6.83875,-6.296578,1.563452,-1
956,957,1583938003552,-0.6957,-0.3867,-0.1178,6.865775599999999,-6.5358644,1.4907736999999999,-1
957,958,1583938003562,-0.3011,-0.7112,-0.4441,7.3569508,-6.883761,1.1654592,-1
958,959,1583938003572,0.4971,-1.0031999,-0.9226,8.132615,-7.158596000000001,0.66634464,-1
959,960,1583938003583,1.0162,-1.1012,-1.4474,8.531756,-7.251012299999999,0.20011696,-1
960,961,1583938003593,1.0652,-1.2837,-1.4133999,8.518627,-7.4556303,0.35509843,-1
961,962,1583938003603,0.88949996,-1.4432,-0.8533,8.357660000000001,-7.558667,0.9964284999999999,-1
962,963,1583938003613,0.8088,-1.3909999,-0.5185,8.290699,-7.4797444,0.9804925999999999,-1
963,964,1583938003624,0.78889996,-1.2713,-1.0011,8.363291,-7.3303947,0.29445806,-1
964,965,1583938003634,1.0573,-1.1896,-1.7032,8.777632,-7.2952285,-0.32900159999999995,-1
965,966,1583938003644,1.6441,-1.2808,-2.0598,9.401905000000001,-7.520341,-0.5288503999999999,-1
966,967,1583938003655,2.154,-1.6642,-2.2402,9.798539,-7.923198700000001,-0.75761163,-1
967,968,1583938003665,2.4856,-2.079,-2.5758,10.2907295,-8.42239,-1.3167918,-1
968,969,1583938003675,2.9905,-2.4873,-3.1838,10.937202000000001,-8.684977,-1.925915,-1
969,970,1583938003686,3.6769998,-2.6267998,-3.7033,11.566072,-8.666665,-2.3207953,-1
970,971,1583938003696,4.1603,-2.5204,-4.018,11.67522,-8.450975999999999,-2.3719930000000002,-1
971,972,1583938003706,3.9378998,-2.3478,-3.7935998,11.194282000000001,-8.332349,-1.9047310000000002,-1
972,973,1583938003717,3.4013998999999995,-2.2854,-3.2912998,10.78247,-8.1387825,-1.2967284,-1
973,974,1583938003727,3.0872,-2.2223,-2.8127,10.861928,-8.109889,-1.1084578999999999,-1
974,975,1583938003737,3.2667,-2.2554,-2.7882,11.411953,-8.193083,-1.6265823,-1
975,976,1583938003747,3.8004,-2.4092999,-3.2357,12.2333555,-8.345678999999999,-1.4590169,-1
976,977,1583938003757,4.5766,-2.6131,-2.8566,12.914046,-8.520638,-0.5707298000000001,-1
977,978,1583938003767,5.1593,-2.8525999,-1.8806,13.109126000000002,-8.48301,0.50179595,-1
978,979,1583938003778,5.1622,-2.8302,-0.7504,12.806997,-8.397317,1.2755444,-1
979,980,1583938003788,4.7137,-2.8615,0.0078,12.438865,-8.357335,1.6590861000000001,-1
980,981,1583938003798,4.3085,-2.8848,0.3945,12.318168,-8.080822999999999,1.8166436999999998,-1
981,982,1583938003808,4.1672997,-2.6887999,0.55219996,12.383874,-7.7364607,1.562073,-1
982,983,1583938003818,4.1647997000000005,-2.4373,0.32279998,12.398862,-7.427905,1.3036523000000002,-1
983,984,1583938003829,4.0357,-2.2870998,0.17099999,12.116643,-7.2877293000000005,1.5267728999999999,-1
984,985,1583938003839,3.7196,-2.3079998,0.4877,12.016249,-7.190975,2.0035064,-1
985,986,1583938003849,3.52,-2.3141,1.1794,11.977616000000001,-7.226217699999999,2.79841,-1
986,987,1583938003860,3.4088,-2.501,1.9391999,11.898406,-7.5715957,3.2996697,-1
987,988,1583938003870,3.2489,-2.9785,2.5246,11.87275,-7.924482000000001,3.5361879999999997,-1
988,989,1583938003880,3.138,-3.4738,2.8606,11.975605,-7.759664999999999,3.5117192000000004,-1
989,990,1583938003890,3.1647,-3.4678998,2.9141,11.870749,-7.440173,3.4717553,-1
990,991,1583938003900,2.8969998,-3.2171,2.9594998,11.168846,-6.9142056,3.6597671999999997,-1
991,992,1583938003910,1.5984,-2.5864,3.5249,10.547101,-6.2626095,3.9308386,-1
992,993,1583938003921,1.5984,-2.5864,3.5249,10.189464,-5.823484,3.7938042000000003,-1
993,994,1583938003931,0.5603,-1.8855,3.1555998,9.678657000000001,-5.2521987,3.361153,-1
994,995,1583938003941,0.2409,-1.8048999,3.0049999,9.469221000000001,-5.021685,3.185629,-1
995,996,1583938003952,0.0744,-1.7491,2.9246,9.379667999999999,-4.787637,3.1032782,-1
996,997,1583938003962,-0.0284,-1.6504999,3.1961,9.33663,-4.516221,3.4216303999999997,-1
997,998,1583938003972,-0.1962,-1.3943,3.6253998,9.179542,-4.0174994,3.7726967000000005,-1
998,999,1583938003982,-0.4781,-0.9899,3.7029998,8.904103,-3.3795497,3.6957089999999995,-1
999,1000,1583938003992,-0.8154,-0.68259996,3.3630998,8.564769,-2.9625947,3.239757,-1
1000,1001,1583938004002,-1.2078999,-0.57839996,2.8106,8.257745,-2.818301,2.7079859,-1
1001,1002,1583938004013,-1.5475,-0.754,2.2436,8.076245,-2.8867083,2.139018,-1
1002,1003,1583938004023,-1.2947,-0.8351,2.2396998,8.512259,-2.6611264,2.35871,-1
1003,1004,1583938004033,-0.9111,-0.529,2.4322999,8.808938000000001,-2.1043406000000004,2.4102907000000005,-1
1004,1005,1583938004043,-0.91749996,-0.046699997,2.3522,8.706074000000001,-1.5923260000000001,2.243348,-1
1005,1006,1583938004054,-1.383,0.3247,1.9597,8.163346,-1.1145391000000002,1.8013207999999998,-1
1006,1007,1583938004064,-2.2582,0.4996,1.4930999,7.159888700000001,-0.78436923,1.3091208,-1
1007,1008,1583938004075,-2.9047,0.5536,1.1136999,6.694705,-0.6184797,0.71963,-1
1008,1009,1583938004085,-3.0964,0.4549,0.5277,6.788002499999999,-0.7373375,0.21126436,-1
1009,1010,1583938004095,-2.7944,0.2068,0.2182,7.3535223,-0.8495681,0.18049408,-1
1010,1011,1583938004105,-2.1662,-0.028099999,0.3549,7.848011,-1.0269018,0.51620907,-1
1011,1012,1583938004115,-1.6739,-0.3656,1.2014999,8.14628,-1.3109499,1.8437843,-1
1012,1013,1583938004125,-1.7497,-0.6576,2.3233,7.8011517999999995,-1.3631913999999998,2.5551016,-1
1013,1014,1583938004136,-2.129,-0.72069997,2.7142,7.5482473,-1.2395165000000001,2.5907082999999997,-1
1014,1015,1583938004146,-2.4584,-0.5318,2.352,7.0587,-0.78326786,1.6639606,-1
1015,1016,1583938004156,-2.9338,-0.2628,1.3542,6.715084599999999,-0.52705956,0.75928754,-1
1016,1017,1583938004166,-3.0942,-0.1734,0.6166,6.7567916,-0.40892965,0.32795775,-1
1017,1018,1583938004176,-2.9984,-0.1519,0.2911,6.995522,-0.26591918,0.06782295,-1
1018,1019,1583938004186,-2.6564999,-0.090799995,0.0645,7.413367699999999,-0.1436521,-0.0009193735000000001,-1
1019,1020,1583938004196,-2.3041,0.015999998999999997,0.1735,7.55996,0.08247546,0.46323013,-1
1020,1021,1583938004207,-2.2749,0.065,0.6493,7.4577565,0.048477795,1.0710316999999998,-1
1021,1022,1583938004217,-2.4510999,-0.12079999599999999,1.3539,7.170921300000001,-0.15290329,1.5628870000000001,-1
1022,1023,1583938004227,-2.764,-0.3074,1.7508,6.8610444,-0.081287935,1.7400483,-1
1023,1024,1583938004237,-2.9984999,-0.2472,1.7245,6.6428084,-0.03307829,1.3180081,-1
1024,1025,1583938004247,-3.2229,-0.27699998,1.0796,6.745194000000001,0.00980665,0.6261890999999999,-1
1025,1026,1583938004257,-2.9866,-0.2944,0.5042,7.202237599999999,0.13688129999999998,0.048334144,-1
1026,1027,1583938004268,-2.5346,-0.1533,-0.07809999599999999,7.437970599999999,0.27092785,-0.46272257,-1
1027,1028,1583938004278,-2.3474,-0.096599996,-0.62079996,7.650278999999999,0.20343053,-0.88630474,-1
1028,1029,1583938004288,-2.0914,-0.14989999,-1.0292,7.8044367,0.34279224,-1.0093763,-1
1029,1030,1583938004298,-2.0214,-0.041899998,-1.0468,7.732122,0.15412913,-0.6695241999999999,-1
1030,1031,1583938004308,-2.0588999,-0.3746,-0.7206,7.823417999999999,-0.053926997000000004,-0.44224736,-1
1031,1032,1583938004319,-1.9977,-0.4939,-0.4825,7.513942999999999,0.22006544,0.0040414124,-1
1032,1033,1583938004329,-2.4162998,-0.29029998,0.038799997,6.838807000000001,0.2896218,0.7042305,-1
1033,1034,1583938004339,-3.0988,-0.3206,0.7213,6.055616400000001,0.57361245,1.0041282,-1
1034,1035,1583938004349,-3.7317998,-0.1244,0.92149997,5.7812023,0.9350124,0.87416136,-1
1035,1036,1583938004359,-4.0120997,0.18169999,0.7998,5.931778400000001,0.89082503,0.48854166,-1
1036,1037,1583938004370,-3.8521,0.1026,0.41709998,6.586554,0.7374715999999999,0.025340231,-1
1037,1038,1583938004380,-3.2029,-0.0683,-0.059699997000000005,7.416777000000001,0.6902579000000001,-0.47492343,-1
1038,1039,1583938004390,-2.3680000000000003,-0.132,-0.5426,7.833416000000001,0.80447096,-0.8133869,-1
1039,1040,1583938004400,-1.9548,-0.0285,-0.9008,7.750356699999999,0.8353466,-0.72736806,-1
1040,1041,1583938004410,-2.0216,-0.029099998999999998,-0.8253,7.381984700000001,0.7783167,-0.6128773000000001,-1
1041,1042,1583938004420,-2.4015,-0.1056,-0.71489996,7.0895660000000005,0.8962646000000001,-0.28473762,-1
1042,1043,1583938004430,-2.6829998,-0.029199999,-0.3937,7.1367326,1.1454436000000001,0.06303454,-1
1043,1044,1583938004440,-2.6311,0.19479999,-0.0652,7.3808064,1.4127513,-0.040280048,-1
1044,1045,1583938004450,-2.3932,0.4331,-0.1328,7.626786999999999,1.5813032,-0.10032663,-1
1045,1046,1583938004461,-1.9289999,0.58419997,-0.20269999,7.864665,1.581715,-0.1380401,-1
1046,1047,1583938004471,-1.9289999,0.58419997,-0.20269999,7.964972500000001,1.4269825,-0.12300451,-1
1047,1048,1583938004481,-1.5453999,0.2479,-0.1682,8.269114,1.2597907,-0.10656112400000001,-1
1048,1049,1583938004491,-1.5453999,0.2479,-0.1682,8.476814,1.2432132,-0.15180197,-1
1049,1050,1583938004501,-1.2804999,0.20809999,-0.1963,8.524219500000001,1.2129313,-0.40271428,-1
1050,1051,1583938004512,-1.1628,0.1487,-0.9866,8.667767,1.1827165000000002,-1.0063978,-1
1051,1052,1583938004521,-1.1628,0.1487,-0.9866,8.950158,1.285016,-1.1088122,-1
1052,1053,1583938004531,-0.4272,0.44149998,-0.94439995,9.35656,1.4955716000000001,-0.82310736,-1
1053,1054,1583938004541,-0.45619997,0.5646,-0.4693,9.214181,1.651415,-0.26229915,-1
1054,1055,1583938004552,-0.8085,0.7337,0.0717,8.808364,1.8219109,0.24856603,-1
1055,1056,1583938004562,-1.2688,0.82589996,0.3178,8.36311,1.8205509999999998,0.32589874,-1
1056,1057,1583938004572,-1.6709,0.5908,0.1431,8.046700999999999,1.5644193000000002,0.13724522,-1
1057,1058,1583938004582,-1.6129999,0.2078,-0.046699997,8.245794,1.1793168,-0.082456306,-1
1058,1059,1583938004592,-0.9284,-0.0689,-0.4104,9.010069999999999,0.914518,-0.47628329999999997,-1
1059,1060,1583938004602,-0.9284,-0.0689,-0.4104,9.71274,0.797614,-0.5414918000000001,-1
1060,1061,1583938004613,0.627,-0.1502,-0.56729996,10.556658,0.9313060999999999,-0.6258729999999999,-1
1061,1062,1583938004623,0.9008,0.1423,-0.66279995,10.655883,1.2384918,-0.6264476999999999,-1
1062,1063,1583938004633,0.7833,0.38639998,-0.5078,10.47173,1.4088824,-0.40878600000000004,-1
1063,1064,1583938004643,0.3135,0.49499997,0.0409,9.7837515,1.4451208999999998,0.31129409999999996,-1
1064,1065,1583938004653,-0.42069998,0.326,0.4274,9.223891,1.2835315,0.5025238000000001,-1
1065,1066,1583938004663,-0.6063,0.084,0.5334,9.331995,1.0267007,0.65493864,d
1066,1067,1583938004673,-0.087,-0.01,0.7198,9.912761,0.96011317,0.77458173,-1
1067,1068,1583938004683,0.3629,-0.1655,0.6206,10.166067,0.77707165,0.62761605,-1
1068,1069,1583938004693,0.5479999999999999,-0.3296,0.3615,10.365571000000001,0.61949486,0.39694905,-1
1069,1070,1583938004703,0.86079997,-0.36749998,0.2461,10.740264999999999,0.6283439000000001,0.27292940000000004,-1
1070,1071,1583938004713,1.0955,-0.26209998,0.1856,10.892994999999999,0.77190024,0.24811591,-1
1071,1072,1583938004723,1.0955,-0.26209998,0.1856,10.686548,0.9065693000000001,0.21130265,-1
1072,1073,1583938004734,0.62509996,-0.0381,0.1028,10.247815,0.9297164000000001,0.19356643,-1
1073,1074,1583938004744,0.38079998,-0.046299997999999995,-0.0019999999,10.111863,0.9271115,0.1263085,-1
1074,1075,1583938004754,0.35209998,0.0058,0.2509,10.131419000000001,0.9680235999999999,0.552802,-1
1075,1076,1583938004764,0.3427,-0.1364,0.5401,10.062753,0.7514633000000001,0.68570894,-1
1076,1077,1583938004774,0.2744,-0.2874,0.7348,10.020759,0.68409044,0.93097097,-1
1077,1078,1583938004784,0.2844,-0.3491,0.88009995,10.079513,0.63520086,0.95359135,-1
1078,1079,1583938004794,0.4317,-0.2626,0.6947,10.219611,0.79137945,0.67414016,-1
1079,1080,1583938004805,0.4516,-0.0881,0.3642,10.167342,0.99715626,0.24494599,-1
1080,1081,1583938004815,0.305,0.045199998,0.0087,9.981686,1.047875,0.039331947,-1
1081,1082,1583938004825,0.119399995,0.048499997999999996,-0.0896,9.838061999999999,1.0627766,0.10469365,-1
1082,1083,1583938004835,-0.0657,0.0477,0.1926,9.470599,1.058965,0.67188,-1
1083,1084,1583938004845,-0.46629998,-0.0066,0.84,9.071793,0.9619615,1.3308886999999998,-1
1084,1085,1583938004855,-0.7981,-0.102199994,1.3994,8.902187,1.0036684999999999,1.6248969,-1
1085,1086,1583938004865,-0.8359,0.0492,1.6589999,8.918909,1.2378215,1.8554583999999998,-1
1086,1087,1583938004876,-0.9133,0.2049,1.8283999,8.718418,1.340322,1.8348203999999997,-1
1087,1088,1583938004886,-1.1577,0.30539998,1.7845999,8.391065,1.4675307,1.7666718999999997,-1
1088,1089,1583938004896,-1.4712,0.4691,1.6256,8.176447999999999,1.6386874,1.3759093999999998,-1
1089,1090,1583938004906,-1.6284,0.64809996,1.1867,8.056115,1.8946276000000002,1.0685992,-1
1090,1091,1583938004916,-1.6978999,0.8423,1.0606999,7.981933000000001,1.8923866000000003,1.26139,-1
1091,1092,1583938004927,-1.8168,0.81439996,1.3188,7.854083,1.7810273999999997,1.6562896,-1
1092,1093,1583938004937,-1.9258,0.68829995,1.7405,7.770956,1.6310546000000001,2.1247773,-1
1093,1094,1583938004947,-2.0249,0.59029996,2.2203,7.514556,1.6058965,2.3944986,-1
1094,1095,1583938004957,-2.4571,0.60719997,2.5695,6.7354259999999995,1.6504861000000002,2.7733667,-1
1095,1096,1583938004967,-3.1636,0.6346,2.9101999,6.077230999999999,1.8127075000000001,3.1425523999999996,-1
1096,1097,1583938004977,-3.8112,0.8745,3.3463,5.4541445,2.2155367999999998,3.6104083,-1
1097,1098,1583938004987,-4.4301,1.2882,3.7589998,4.9202857,2.6070077,3.6616826000000002,-1
1098,1099,1583938004998,-4.932699700000001,1.6949999,3.7666998,4.5822053,2.8419747,3.7774181000000002,-1
1099,1100,1583938005008,-5.1326,1.8791,3.9092,4.8067145,2.7530349999999997,4.1354284,-1
1100,1101,1583938005018,-4.9607,1.7895999,4.2728,4.921674299999999,2.3800664,4.1569085,-1
1101,1102,1583938005028,-4.7893,1.4839,4.1614,5.2688622,2.0966504,3.6632054,-1
1102,1103,1583938005038,-4.4511,1.2737,3.6592,5.5811715,1.7759039,3.2889245000000003,-1
1103,1104,1583938005048,-4.1714,1.0186,3.3939,5.606818,1.6361017,3.4659421000000004,-1
1104,1105,1583938005058,-4.214699700000001,0.9909,3.7617,5.320557599999999,1.5283722,4.322433999999999,-1
1105,1106,1583938005068,-4.5713,0.9066,4.7495,4.9206114,1.2886168,5.451846,-1
1106,1107,1583938005078,-4.9474998,0.7484,5.8610997000000005,4.728098,0.92509085,5.8275255999999995,-1
1107,1108,1583938005088,-5.0197997,0.4161,5.9691,5.40153,0.41287529999999995,4.716041000000001,-1
1108,1109,1583938005099,-4.1898,0.024699999,4.6219,6.582101,-0.06933608,2.9490054,-1
1109,1110,1583938005109,-2.9959,-0.315,2.8795998,7.752885000000001,-0.7811227,1.5403143999999998,-1
1110,1111,1583938005119,-1.8585999,-0.91749996,1.635,8.661273,-1.3754784,0.9138572,-1
1111,1112,1583938005129,-1.0127,-1.2955999,1.2024,9.152918,-1.6925473000000002,1.1290097,-1
1112,1113,1583938005139,-0.5664,-1.4691,1.6824,9.443881,-2.0231483,2.0285497,-1
1113,1114,1583938005149,-0.3541,-1.6402999,2.4878,9.284436,-2.4161707999999997,2.0156113999999996,-1
1114,1115,1583938005160,-0.5039,-1.9318,2.5304,9.290346000000001,-2.7194203999999997,1.1387781000000001,-1
1115,1116,1583938005170,-0.4863,-2.1274,1.6919,9.658296,-2.820561,0.25342146,-1
1116,1117,1583938005180,-0.114199996,-2.1289,0.8495,10.11965,-3.0848044999999997,-0.41439799999999993,-1
1117,1118,1583938005191,0.3581,-2.2784,0.2443,10.30134,-3.5498733999999996,-0.6398265000000001,-1
1118,1119,1583938005201,0.5485,-2.6202,0.0668,10.577324,-4.5311995000000005,-1.6647842000000002,-1
1119,1120,1583938005212,0.7543,-3.3298,-0.6623,11.219008,-4.812106,-2.5492501,-1
1120,1121,1583938005222,1.5043,-3.6443,-1.7378999,12.700080999999999,-4.6756077000000005,-3.5345885999999997,-1
1121,1122,1583938005232,3.6325998,-3.0505,-3.1475,13.367901000000002,-4.4333053,-4.106765,-1
1122,1123,1583938005242,3.6311,-2.8130999,-3.3279998,13.174220000000002,-4.345294,-4.2766185,-1
1123,1124,1583938005252,2.9715998,-2.8669,-3.9148,12.503086,-4.556367400000001,-5.042955,-1
1124,1125,1583938005262,2.7338998,-3.2351,-4.942199700000001,12.378003999999999,-5.032229,-6.114809999999999,-1
1125,1126,1583938005272,2.9882998,-3.5284,-5.9751,12.6912985,-5.4136443,-7.3689985,-1
1126,1127,1583938005283,3.1755,-3.8047,-6.6931,12.798646000000002,-5.7519735999999995,-7.7977996,-1
1127,1128,1583938005293,3.4708997999999998,-4.018,-6.6628,13.159529000000001,-5.967212,-7.6855884,-1
1128,1129,1583938005303,3.8416997999999998,-3.6815998999999997,-6.2665,13.371483,-5.4688163,-7.301731,-1
1129,1130,1583938005313,3.5105,-3.0119,-5.8459,12.719427,-4.902176,-6.937525,-1
1130,1131,1583938005323,2.6842,-2.6945999,-5.8328,11.922952,-4.7794300000000005,-7.1540666,-1
1131,1132,1583938005333,2.1804,-2.6439998,-6.3862996,11.689737,-4.8188004,-7.771713,-1
1132,1133,1583938005344,2.2763,-2.7375998,-7.0522,11.860808,-5.0443052999999995,-8.33934,-1
1133,1134,1583938005354,2.3937,-3.1044998,-7.3634,11.871103,-5.552441,-8.52196,-1
1134,1135,1583938005364,2.2368,-3.6028,-7.5875998,11.621474000000001,-5.995004,-8.870125,-1
1135,1136,1583938005374,2.0286999,-3.7656,-7.9631996,11.441593,-6.104735400000001,-9.109947,-1
1136,1137,1583938005384,1.8070998999999999,-3.7621998999999997,-7.9578,11.258780999999999,-5.951861,-8.824702,-1
1137,1138,1583938005395,1.7183,-3.4966998,-7.5344996,11.143467,-5.5879902999999995,-8.200236,-1
1138,1139,1583938005405,1.4975,-2.9198,-6.4205,10.785668,-5.0067639999999995,-6.9669833,-1
1139,1140,1583938005415,0.8512,-2.3720999,-5.4698,9.723984,-4.440057,-6.0684295,-1
1140,1141,1583938005425,-0.23809999,-2.0634,-5.142299700000001,8.775219,-4.227126,-6.0451293,-1
1141,1142,1583938005435,-0.895,-1.8377,-5.246299700000001,8.61858,-4.000031,-6.010231500000001,-1
1142,1143,1583938005446,-0.86179996,-1.6297,-5.2802,8.752089999999999,-4.020334,-6.049947,-1
1143,1144,1583938005456,-0.7071,-1.8541,-5.4572997,8.973085000000001,-4.550429299999999,-5.998529,-1
1144,1145,1583938005466,-0.4524,-2.5094,-5.2407,9.199778,-5.1760150000000005,-5.565283999999999,-1
1145,1146,1583938005476,-0.24759999,-3.0263,-4.8494,9.330691999999999,-5.403626999999999,-5.1638720000000005,-1
1146,1147,1583938005486,-0.2519,-2.9594998,-4.3657,8.965988000000001,-4.986088,-4.437078,-1
1147,1148,1583938005496,-0.8777,-2.5340998,-3.6237998,8.183822,-4.5893497000000005,-3.7289882000000003,-1
1148,1149,1583938005507,-1.6324999,-2.2031999,-3.0449998,7.6333660000000005,-4.282949400000001,-3.3119947999999995,-1
1149,1150,1583938005516,-2.0527,-1.9654,-2.7955,7.4155993,-4.207895300000001,-3.089363,-1
1150,1151,1583938005526,-2.1167998,-2.0671,-2.6231,7.667756599999999,-4.3241195999999995,-2.8472133,-1
1151,1152,1583938005536,-1.6969999,-2.1159,-2.5535997999999998,8.138638499999999,-4.3286495,-3.1069459999999998,-1
1152,1153,1583938005546,-1.3137,-2.0853,-3.1329,8.401111,-4.307456,-3.7487644999999996,-1
1153,1154,1583938005557,-0.9977,-2.1099,-3.6485,8.806305,-4.484541,-3.6685586000000003,-1
1154,1155,1583938005567,-0.6913,-2.3021,-3.4352998999999995,8.992583,-4.8747,-3.2089484,-1
1155,1156,1583938005577,-0.5128,-2.6748,-2.964,9.179206,-5.0233989999999995,-2.5237951,-1
1156,1157,1583938005587,-0.36499998,-2.7788,-2.2881,9.159315,-4.9302263,-2.0215009999999998,-1
1157,1158,1583938005598,-0.45399999999999996,-2.6243,-1.8865,8.7017355,-4.6395125,-1.763818,-1
1158,1159,1583938005608,-0.9655,-2.326,-1.6606,8.208607,-4.456835,-1.429032,-1
1159,1160,1583938005618,-1.4073,-2.2199,-1.3536,7.8942003,-4.573796700000001,-1.030359,-1
1160,1161,1583938005629,-1.689,-2.3467999,-0.98249996,8.27213,-4.7469645,-0.044072464000000006,-1
1161,1162,1583938005638,-1.2796999,-2.4582999,-0.1899,8.856667999999999,-4.838356,0.20595879999999997,-1
1162,1163,1583938005648,-0.55259997,-2.5189,-0.084199995,9.247748,-4.719709,0.044034157000000004,-1
1163,1164,1583938005658,-0.2061,-2.3312,-0.3382,9.607911999999999,-4.772476999999999,0.112719014,-1
1164,1165,1583938005668,0.14999999,-2.3913999,-0.3033,9.835122,-4.9112453,0.68821806,-1
1165,1166,1583938005678,0.3283,-2.4859998,0.42639998,9.941654,-4.985762,2.3070529,-1
1166,1167,1583938005689,0.4457,-2.5671,2.0746999,9.776388,-5.221083599999999,3.7620091,-1
1167,1168,1583938005698,0.29709998,-2.7419,3.1481,9.418934,-5.1801905999999995,4.084153700000001,-1
1168,1169,1583938005708,-0.12619999,-2.6455,3.4687997999999998,9.281630499999999,-4.9118676,4.3554262999999995,-1
1169,1170,1583938005718,-0.1462,-2.3223999,3.7124,9.574843,-4.4215064,4.9005766,-1
1170,1171,1583938005728,0.1936,-1.7593,4.2585,9.718428999999999,-3.9977709999999997,5.98085,-1
1171,1172,1583938005738,0.29909998,-1.3607999,5.3898,9.684604,-3.8458156999999997,7.144019999999999,-1
1172,1173,1583938005748,0.2323,-1.2465,6.3999996,9.599781,-3.8265953,7.728511999999999,-1
1173,1174,1583938005759,0.19409999,-1.1919999,6.8596997,9.719156,-3.8115404,7.948500599999999,-1
1174,1175,1583938005769,0.3816,-1.1472,6.986399700000001,10.1408615,-3.597058,8.19767,-1
1175,1176,1583938005779,0.7463,-0.92649996,7.1671,10.367611,-3.3679235,8.675945,-1
1176,1177,1583938005790,0.9838,-0.6692,7.5966997,10.246167999999999,-3.1174326,9.469154,-1
1177,1178,1583938005800,0.8675,-0.40719998,8.3364,9.781022,-2.8296878,10.536881,-1
1178,1179,1583938005810,0.4261,-0.1112,9.3629,9.333910000000001,-2.5097075,11.303227,-1
1179,1180,1583938005820,0.0025,0.4772,9.8694,9.43259,-2.2382052000000003,11.022177000000001,-1
1180,1181,1583938005830,0.0025,0.4772,9.8694,10.034253,-2.1661685,10.378031,-1
1181,1182,1583938005840,0.6983,0.5919,9.0722,10.930067,-2.3397669999999997,9.494409,-1
1182,1183,1583938005850,1.6079999,0.43339998,8.173699000000001,11.532094,-2.605581,9.068077,-1
1183,1184,1583938005860,2.2096999,0.1795,7.740999700000001,11.540128999999999,-2.6602454,9.098704,-1
1184,1185,1583938005870,2.2166,0.1265,7.792000000000001,11.046194999999999,-2.4681349,9.092823,-1
1185,1186,1583938005880,1.7082,0.3023,7.7984995999999995,10.682028,-2.1776986000000003,8.841566,-1
1186,1187,1583938005891,1.3342,0.5564,7.5699997,10.727815,-1.957777,8.532628,-1
1187,1188,1583938005901,1.5267,0.72859997,6.6663,10.921793,-1.9705907999999999,7.7179199999999994,-1
1188,1189,1583938005911,1.8585999,0.493,5.7572,11.346630000000001,-2.2111794999999996,6.807788,-1
1189,1190,1583938005922,2.4651,0.1506,4.960099700000001,11.954881,-2.516076,5.982794,-1
1190,1191,1583938005932,2.8446,-0.117199995,4.2058,12.299914,-2.712803,5.2595730000000005,-1
1191,1192,1583938005942,2.9961998,-0.19839999,3.7466998,12.435359,-2.7256935,4.7938237,-1
1192,1193,1583938005952,2.9884999,-0.1428,3.4733,12.408178999999999,-2.6189501,4.524304,-1
1193,1194,1583938005962,2.8616,-0.2131,3.0226998,12.3119335,-2.6431127,3.9950415999999995,-1
1194,1195,1583938005973,2.8518,-0.2882,2.6589,12.336086,-2.6557443,3.6342354,-1
1195,1196,1583938005983,2.8716998,-0.4443,2.3903,12.375849,-2.821356,3.2618508,-1
1196,1197,1583938005993,2.9118,-0.7395,1.9805,12.512721,-3.0386729999999997,2.7783751,-1
1197,1198,1583938006003,3.2268,-1.0271,1.4905,12.908837,-3.262234,2.2704023999999996,-1
1198,1199,1583938006013,3.5321,-1.2882999,1.1652,13.160544,-3.4359379999999997,2.1337509999999997,-1
1199,1200,1583938006024,3.6211,-1.5464,1.2304,13.193276999999998,-3.571153,2.1700566,-1
1200,1201,1583938006034,3.5425,-1.7056999,1.1854,13.067542999999999,-3.5701091,2.0347266,-1
1201,1202,1583938006044,3.3263998,-1.7448,1.0403,12.823536,-3.5495669999999997,1.846868,-1
1202,1203,1583938006054,3.0613,-1.8498,0.7467,12.603471,-3.5256440000000002,1.5024285,-1
1203,1204,1583938006065,2.8355,-1.8906,0.39699998,12.405891,-3.4838697999999995,1.2000792,-1
1204,1205,1583938006075,2.6592999,-1.9540999,0.287,12.248037,-3.3462032999999995,1.2057391000000002,-1
1205,1206,1583938006085,2.4542,-1.9128,0.3376,11.962227,-3.1351209,1.1015913,-1
1206,1207,1583938006095,2.1520998,-1.7863,0.3003,11.668304,-2.8281650000000003,1.3438079,-1
1207,1208,1583938006105,1.8211,-1.5554,0.7901,11.399148,-2.5842628,1.8249370999999999,-1
1208,1209,1583938006115,1.4122,-1.5826,1.2915,10.946358,-2.6467707000000003,2.000892,-1
1209,1210,1583938006126,1.0534999,-1.808,1.0620999,10.660202,-2.6370313,1.326493,-1
1210,1211,1583938006136,0.85359997,-1.8081,0.3321,10.638233,-2.4316375,0.57337296,-1
1211,1212,1583938006146,0.87149996,-1.7477,-0.2313,10.6735525,-2.2779392999999994,0.23063825,-1
1212,1213,1583938006156,0.91099995,-1.7261,-0.4337,10.722404,-2.0605457,0.14962804,-1
1213,1214,1583938006166,0.8735,-1.5789,-0.38709998,10.427716,-1.8226483,0.09357498,-1
1214,1215,1583938006176,0.4161,-1.5219999999999998,-0.41619998,9.951260000000001,-1.6448835,0.1245751,-1
1215,1216,1583938006186,-0.0198,-1.4365,-0.2859,9.554551,-1.3946991000000002,0.09064448,-1
1216,1217,1583938006196,-0.3755,-1.3776,-0.31689999,9.388383000000001,-1.3118501,-0.056876656,-1
1217,1218,1583938006206,-0.4059,-1.4505,-0.4712,9.471969999999999,-1.3040355,-0.36891776,-1
1218,1219,1583938006216,-0.2579,-1.5669999,-0.6859999999999999,9.6969385,-1.3745686000000001,-0.5971234999999999,-1
1219,1220,1583938006226,0.00029999999,-1.7723,-0.8540000000000001,9.895723,-1.2680267,-0.873807,-1
1220,1221,1583938006236,0.0824,-1.6200999,-1.1068,9.686049,-0.82940894,-1.1026545,-1
1221,1222,1583938006247,-0.2936,-1.2605,-1.2804999,9.313349,-0.47377420000000003,-1.2930317,-1
1222,1223,1583938006257,-0.5793,-1.1308,-1.2912999,8.955625999999999,-0.32999763,-1.2126153,-1
1223,1224,1583938006267,-1.0198,-1.15,-1.0593,8.340489,-0.14428416,-0.5912338,-1
1224,1225,1583938006277,-1.5365,-1.1014999,-0.3387,7.839037400000001,-0.089274995,-0.28013116,-1
1225,1226,1583938006287,-2.0119,-1.2463,-0.07200000000000001,7.4620757,-0.31763393,-0.31591013,-1
1226,1227,1583938006297,-2.3388,-1.6388999,-0.1278,7.450842,-0.33214283,-0.7013383000000001,-1
1227,1228,1583938006308,-2.204,-1.6106,-0.4342,7.844161,0.05887821,-1.2196639,-1
1228,1229,1583938006318,-1.775,-1.3195,-0.9288,7.9018616999999995,0.36309507,-1.9061581000000003,-1
1229,1230,1583938006328,-1.865,-1.1735,-1.5429,7.3542119999999995,0.4472656,-2.2196740000000004,-1
1230,1231,1583938006338,-2.4438,-1.2171,-1.7021998999999999,6.716732,0.5368662,-2.0395246,-1
1231,1232,1583938006348,-3.05,-1.2350999,-1.3328999,6.251864,0.5324513000000001,-1.2285701999999998,-1
1232,1233,1583938006359,-3.4189,-1.3426,-0.4585,6.001660299999999,0.70062006,-0.62718505,-1
1233,1234,1583938006369,-3.6489999999999996,-1.2224,0.0973,5.6829348,1.0276393,-0.6908420999999999,-1
1234,1235,1583938006379,-3.9573998,-0.9788,-0.0455,5.1076555,1.3579625,-1.2229966,-1
1235,1236,1583938006389,-4.433399700000001,-0.82559997,-0.4488,4.659701,1.5109711000000001,-1.5688534,-1
1236,1237,1583938006399,-4.862,-0.75079995,-0.75009996,4.416967,1.6666229,-1.798668,-1
1237,1238,1583938006410,-5.0766,-0.6659,-0.9368,4.373316,1.7478534,-1.9638008999999998,-1
1238,1239,1583938006420,-5.0864997,-0.63199997,-1.0935,4.427779,1.9639925,-2.1395066000000003,-1
1239,1240,1583938006430,-5.0185,-0.4073,-1.173,4.2992773,2.4777787,-1.8451538,-1
1240,1241,1583938006440,-5.1468997000000005,-0.043199997000000004,-0.8713,3.7169023,2.6678398,-1.7324540000000002,-1
1241,1242,1583938006451,-6.3753,0.1805,-0.5711,2.9083707000000003,2.8432581000000003,-1.5692458999999999,-1
1242,1243,1583938006461,-6.9185996,0.3132,-0.31559998,2.3919606,3.018035,-1.3674626,-1
1243,1244,1583938006471,-7.2495,0.3893,-0.2182,2.1140323,3.1012573,-1.324865,-1
1244,1245,1583938006481,-7.1720996,0.5869,-0.4141,2.2704023999999996,3.387939,-1.6283157,-1
1245,1246,1583938006491,-6.8725996,0.9744,-0.9112,2.5365705000000003,3.7837292999999996,-2.1779575,-1
1246,1247,1583938006502,-6.8725996,0.9744,-0.9112,2.686754,4.1038246,-2.6625342,-1
1247,1248,1583938006512,-6.712999999999999,1.6498,-1.7005999,2.6213347999999996,4.4004755,-2.9451554,-1
1248,1249,1583938006522,-6.9209,1.739,-1.5432999,2.3964236,4.372234,-2.7128797000000002,-1
1249,1250,1583938006532,-7.0917997,1.4935,-1.091,2.2422178,4.1152782,-2.2785330000000004,-1
1250,1251,1583938006542,-7.2068,1.2104,-0.4718,2.1538908,3.7153892999999996,-1.7019422,-1
1251,1252,1583938006552,-7.2068,1.2104,-0.4718,2.0681784,3.157502,-1.9364878,-1
1252,1253,1583938006563,-7.0351996,0.29909998,-1.1441,2.4757290000000003,2.7831732999999996,-2.5726082000000003,-1
1253,1254,1583938006573,-6.5035996,0.4459,-1.4389,3.076262,2.9448583,-2.8912666000000002,-1
1254,1255,1583938006583,-6.21,0.67039996,-1.4373,3.2104712,3.0260699,-2.6032157000000002,-1
1255,1256,1583938006593,-6.3301997000000005,0.7751,-0.7069,3.0235703,2.978684,-1.8151592,-1
1256,1257,1583938006603,-6.6198997,0.75339997,-0.21079999,2.8066652000000003,2.783681,-1.6658185,-1
1257,1258,1583938006614,-6.5796,0.5898,-0.5981,3.1399286,2.425719,-2.1803515,-1
1258,1259,1583938006624,-5.9136996,0.1679,-1.0476,3.969213,1.662936,-2.5516827,-1
1259,1260,1583938006634,-5.187599700000001,-0.6656,-1.4503,4.609049,0.6732974,-2.894456,-1
1260,1261,1583938006644,-4.7423,-1.3611,-1.4311,4.94123,-0.039092526,-2.5616236,-1
1261,1262,1583938006654,-4.5878,-1.7067,-0.70159996,5.053287999999999,-0.37950012,-1.7305002,-1
1262,1263,1583938006665,-4.6389,-1.6008999,0.1321,4.940732,-0.22905806,-0.8157428000000001,-1
1263,1264,1583938006675,-4.8792,-1.1251,1.0227,4.7709546,0.20683987,-0.08645941,-1
1264,1265,1583938006685,-4.7994,-0.63479996,1.1315,5.006525,0.39081034,-0.06554367,-1
1265,1266,1583938006695,-4.533,-0.5485,1.0868,5.3123026,-0.19092321,-0.30337408,-1
1266,1267,1583938006705,-4.2906,-1.0784,0.4201,5.740903,-1.0041857,-1.2551172,-1
1267,1268,1583938006715,-3.7066,-1.7760999,-0.5908,6.6880493,-2.0831566,-1.8470501,-1
1268,1269,1583938006726,-2.5957,-2.5814,-0.8969,7.776137400000001,-2.9635715,-1.9906255000000002,-1
1269,1270,1583938006736,-1.6827999,-3.0462,-0.9837,8.356674,-3.0497246,-1.9000290000000002,-1
1270,1271,1583938006746,-1.3447,-2.6425998,-0.5944,8.198226,-2.5077062000000003,-0.8399146999999999,-1
1271,1272,1583938006756,-1.9482,-1.8057,0.9946,7.2758927,-2.1042447,0.8863909,-1
1272,1273,1583938006767,-3.2691,-1.5855,2.9036,6.1210065,-2.5317056,2.0501451,-1
1273,1274,1583938006777,-3.4891998999999996,-1.8392998999999999,2.5195,6.919894,-2.7644507999999997,0.5447671,-1
1274,1275,1583938006787,-2.5930998,-1.7631999,0.9149,8.330721,-3.4845017999999994,-0.83779824,-1
1275,1276,1583938006797,-1.1953,-2.2765,-0.2683,9.713171,-4.503426,-1.3491901000000002,-1
1276,1277,1583938006808,0.2911,-3.1034,-0.77599996,10.461933,-5.0658627,-1.0283384,-1
1277,1278,1583938006818,0.83269995,-3.3083,-0.2914,10.331794,-5.1528583,-0.59635735,-1
1278,1279,1583938006828,0.4847,-3.1325,0.2227,9.160139,-5.1869903,-0.12644258,-1
1279,1280,1583938006838,-0.6462,-2.9696999,0.5609,7.953844500000001,-5.3409567000000004,0.04124731,-1
1280,1281,1583938006848,-1.6762999,-2.9912,0.7198,7.9127407000000005,-5.8948503,0.35149753,-1
1281,1282,1583938006858,-1.3761,-3.3597998999999996,0.9141,8.859361,-6.2531857,0.21626346,-1
1282,1283,1583938006869,-0.30179998,-3.3676,0.6073,9.855022,-6.1319237,0.05529648,-1
1283,1284,1583938006879,0.68329996,-2.9675,0.4005,10.035421000000001,-5.953019599999999,0.21465454,-1
1284,1285,1583938006889,0.7143,-2.5623,0.501,9.423664,-5.9772300000000005,0.740699,-1
1285,1286,1583938006899,0.28919998,-2.3823,0.8623,9.109813,-5.9076543,1.1261846000000002,-1
1286,1287,1583938006909,-0.050899997,-2.1076,1.2493,8.531930000000001,-6.526028599999999,1.6152912,-1
1287,1288,1583938006919,-0.41239998,-2.4786,1.5697,8.947754,-7.2352295,1.6542784,-1
1288,1289,1583938006929,0.116799995,-2.9566,1.5092,9.908710000000001,-7.3664603,1.071501,-1
1289,1290,1583938006940,1.1851,-2.8539999,0.8322,10.535722999999999,-7.853441,0.4591217000000001,-1
1290,1291,1583938006950,1.9465,-3.1176999,0.11669999,10.717251,-8.204527,0.795191,-1
1291,1292,1583938006960,2.2496998,-3.2437,0.3895,10.417277,-8.66993,1.6472874,-1
1292,1293,1583938006970,2.0737,-3.5069999999999997,1.1709,10.420514,-8.925908999999999,2.5116804,-1
1293,1294,1583938006980,2.2135,-3.5723,1.9799,10.574088,-8.879472,2.3965576,-1
1294,1295,1583938006990,2.8555,-3.4569,1.6077,10.814504,-9.259008999999999,2.3138522999999998,-1
1295,1296,1583938007001,3.0921,-3.554,1.6054,10.917722999999999,-9.539342999999999,2.3685741,-1
1296,1297,1583938007011,3.6557998999999994,-3.6202998,1.1412,11.382800999999999,-9.761974,1.9036009999999999,-1
1297,1298,1583938007021,3.6557998999999994,-3.6202998,1.1412,11.826198,-9.679231,1.42636,-1
1298,1299,1583938007031,4.8545,-3.0781999,0.1618,12.196964,-9.522382,1.279854,-1
1299,1300,1583938007041,4.7539,-3.0028,0.6044,11.85101,-9.652119,1.8266993999999999,-1
1300,1301,1583938007051,4.3201,-3.2635999,1.1759,11.270379,-10.056528,2.4228457999999997,-1
1301,1302,1583938007062,3.9225998,-3.4638,1.5884999,10.799736,-10.368319999999999,2.7508612,-1
1302,1303,1583938007072,3.9506997999999998,-3.5407998999999997,1.6557,10.825038000000001,-10.507155000000001,2.8571541000000003,-1
1303,1304,1583938007082,4.2692,-3.523,1.7168,10.973191,-10.631567,2.9885382999999996,-1
1304,1305,1583938007092,4.364,-3.8058998999999996,1.6516998999999999,10.915434,-11.054623,2.9479232000000004,-1
1305,1306,1583938007102,4.661299700000001,-3.7937999,1.4153999,11.165158,-11.058722,2.7919647999999997,-1
1306,1307,1583938007113,5.1654,-3.4866998,0.93119997,11.595999999999998,-10.75735,2.245809,-1
1307,1308,1583938007123,5.4287,-3.1604997999999997,0.6436,11.582621000000001,-10.545367,2.2549547999999997,-1
1308,1309,1583938007133,5.212000000000001,-2.9338,0.8594,11.064391,-10.457548,2.5004277000000004,-1
1309,1310,1583938007143,4.6066,-2.865,1.1231999,10.406609,-10.407278,2.6962638,-1
1310,1311,1583938007154,4.1289,-2.6475,1.0258,9.936924000000001,-10.1809025,2.3993349999999998,-1
1311,1312,1583938007164,3.8335,-2.3769999,0.7912,9.541516,-9.972309,2.328888,-1
1312,1313,1583938007174,3.4877,-2.2086,0.9181,9.264488,-9.950054,2.530882,-1
1313,1314,1583938007184,3.2574,-2.2203999,1.194,8.99653,-9.984453,2.7998943,-1
1314,1315,1583938007194,3.2303,-2.1187,0.97249997,9.059372,-9.847764,2.239814,-1
1315,1316,1583938007204,3.5140998,-1.854,0.0687,9.440874,-9.528118,1.3201532,-1
1316,1317,1583938007214,3.8597998999999996,-1.5834999,-0.3769,9.538644,-9.376336,1.2871611,-1
1317,1318,1583938007225,3.6994998,-1.4425,-0.23169999,8.976666999999999,-9.238679,1.7013866999999998,-1
1318,1319,1583938007235,3.0461,-1.3349,0.2583,8.2015295,-9.148005,2.16681,-1
1319,1320,1583938007245,2.2898,-1.2405,0.6505,7.580761,-9.03589,2.483534,-1
1320,1321,1583938007255,1.8356999,-1.0900999,0.95659995,7.3276553,-8.902676,2.6533692,-1
