,Seq,Time,ACCx,ACCy,ACCz,ADGx,ADGy,ADGz,Keydown
0,1,1583937576079,-0.3311,-0.3335,-1.1754,1.0285299,8.875153,1.2525313999999999,-1
1,2,1583937576089,-2.4469,0.4427,-0.862,9.202286,1.0926943999999998,0.13662273,-1
2,3,1583937576099,-0.43809998,-0.049399998,-0.0198,9.318023,1.0276777,0.5860335,-1
3,4,1583937576109,-0.348,-0.029199999,0.31559998,9.416932000000001,1.1227177,0.82807773,-1
4,5,1583937576119,-0.21869999,0.07200000000000001,0.2827,9.4846115,1.1293448999999998,0.7618636999999999,-1
5,6,1583937576129,-0.3349,-0.096999995,0.1019,9.411358,0.9424344000000001,0.6752798000000001,-1
6,7,1583937576140,-0.2748,-0.319,0.3069,9.507758,0.68803614,0.9109075000000001,-1
7,8,1583937576150,-0.20549999,-0.457,0.2875,9.606438,0.63901246,0.7610593000000001,-1
8,9,1583937576160,-0.0389,-0.4599,0.100499995,9.761878999999999,0.75453746,0.6828934,-1
9,10,1583937576170,-0.009699999,-0.0198,0.0815,9.842055,0.6685473000000001,0.2163688,-1
10,11,1583937576180,0.4091,-0.59499997,-0.705,10.536288,0.3731507,-0.09814312,-1
11,12,1583937576191,0.8763,-0.4694,-0.4008,10.496564,0.7390805,0.7355084,-1
12,13,1583937576201,0.57,-0.29009998,0.1871,9.963087,0.5785062,0.8405563,-1
13,14,1583937576211,-0.0401,-0.45209998,0.213,9.341591000000001,0.5340219,0.9946088,-1
14,15,1583937576221,-0.54289997,-0.331,0.43519998,9.205246,0.6846842,1.2931466,-1
15,16,1583937576231,-0.52709997,-0.1276,0.5628,9.334916,0.73207986,1.3403698,-1
16,17,1583937576242,-0.35599998,0.058199997999999996,0.4763,9.480091,0.79340017,1.3472747999999999,-1
17,18,1583937576252,-0.19559999,0.082899995,0.4243,9.671444000000001,0.78907144,1.3415,-1
18,19,1583937576263,-0.0739,0.0839,0.36200000000000004,9.702971,0.8194681999999999,1.0833668,-1
19,20,1583937576273,-0.021699998999999998,0.1004,0.0092,9.859687,0.9686174000000001,1.0011785,-1
20,21,1583937576283,0.1487,0.25079998,-0.035,9.991223,1.0403668,1.0069438,-1
21,22,1583937576293,0.24849999,0.2757,-0.022000000000000002,9.936263,0.96539,0.9963518,-1
22,23,1583937576304,0.1815,0.17119999,-0.0251,9.985477000000001,0.92487055,1.1017158,-1
23,24,1583937576314,0.2613,0.1522,0.0743,9.966994999999999,1.129594,1.1867771,-1
24,25,1583937576324,0.2234,0.3524,0.20889999,9.920183,1.2415468,1.3652503,-1
25,26,1583937576334,0.15619999,0.38869998,0.4075,9.603708000000001,1.2355613,1.6344928,-1
26,27,1583937576345,-0.1257,0.3482,0.63409996,9.111651,1.0848799,1.9394183,-1
27,28,1583937576355,-0.6107,0.1531,0.92969996,8.859187,0.9582649,2.334002,-1
28,29,1583937576365,-0.7816,0.0072999996999999995,1.5435,8.919388,1.021625,2.6330855,-1
29,30,1583937576375,-0.7816,0.0072999996999999995,1.5435,9.126975,1.216561,2.7466953,-1
30,31,1583937576386,-0.5729,0.19569999,1.6535,9.256587,1.2975615,2.692701,-1
31,32,1583937576396,-0.3005,0.17189999,1.6766,9.389102000000001,1.2303036,2.8045294,-1
32,33,1583937576406,-0.3441,0.0826,1.7671,9.338632,1.1661485,2.925408,-1
33,34,1583937576416,-0.7108,0.17289999,1.8607999,8.874674,1.3170121000000001,3.0308007999999997,-1
34,35,1583937576427,-1.3031,0.2872,1.814,8.229014,1.4909556000000002,3.0297472,-1
35,36,1583937576437,-1.9058,0.4585,1.9616,7.678176400000001,1.6515203999999999,3.187286,-1
36,37,1583937576447,-2.3037,0.524,2.1167,7.291914500000001,1.7662313000000003,3.3835241999999996,-1
37,38,1583937576457,-2.3037,0.524,2.1167,7.054448,1.8473468999999998,3.427606,-1
38,39,1583937576467,-2.8095999,0.6397,1.9991,6.8298817,1.9205328000000002,3.126157,-1
39,40,1583937576478,-2.9863,0.6422,1.7152,6.6419179999999995,1.9090598,2.858581,-1
40,41,1583937576488,-3.1831,0.64919996,1.4606999,6.4473457000000005,1.9589453999999997,2.5316767999999996,-1
41,42,1583937576498,-3.3507998,0.7683,1.214,6.244193,2.130284,2.3533185000000003,-1
42,43,1583937576508,-3.5681998999999998,0.8706,1.3616999,6.016312999999999,2.186318,2.5385625,-1
43,44,1583937576518,-4.1194997,0.7773,1.7791,5.215204,1.9733968999999998,3.0686004000000002,-1
44,45,1583937576528,-4.9856,0.3807,2.1857998,4.367100700000001,1.4867896999999999,3.215202,-1
45,46,1583937576539,-5.5790997,-0.1267,1.9465,4.098001999999999,1.0139828000000002,2.683996,-1
46,47,1583937576549,-5.391,-0.46199998,1.2085999,4.467944,0.786208,1.7506115000000002,-1
47,48,1583937576559,-4.9602,-0.5365,0.3033,4.8099704,0.7284980999999999,0.85835963,-1
48,49,1583937576569,-4.9618,-0.3958,-0.30359998,4.636735400000001,0.9020203000000001,0.4077996,-1
49,50,1583937576580,-5.3264,-0.1428,-0.3488,4.130917500000001,1.0654676,0.42170509999999994,-1
50,51,1583937576590,-6.053499700000001,-0.1604,-0.1173,3.3186796000000003,0.78118014,0.5515762,-1
51,52,1583937576600,-6.8697,-0.6774,-0.2899,2.8340836,0.033566706,-0.0884035,-1
52,53,1583937576610,-6.7051997000000005,-1.0547,-0.7703,3.6002474,-0.25494418,-0.5120432,-1
53,54,1583937576621,-5.7566,-1.2447,-1.0403,4.505533,-0.5424686,-0.83737683,-1
54,55,1583937576631,-5.0919,-1.3798,-1.3765,4.710984,-0.70219064,-1.215498,-1
55,56,1583937576641,-5.200599700000001,-1.4095,-1.4721,4.238675,-0.9120280000000001,-1.0579306999999998,-1
56,57,1583937576651,-5.964699700000001,-1.6022999,-1.1259,3.1014009,-1.4894806999999999,-0.7119015000000001,-1
57,58,1583937576662,-7.1685,-2.2705,-0.8275,2.1860592,-2.6791596,-0.88652503,-1
58,59,1583937576672,-7.7233,-3.5147,-1.3067,2.5988867,-3.8173342000000003,-1.7933816000000002,-1
59,60,1583937576682,-6.4617,-3.9643998,-2.335,5.18564,-3.4341662000000004,-3.4299142,-1
60,61,1583937576693,-4.1871,-3.2131998999999998,-3.6831,6.992907499999999,-2.9223049999999997,-4.313154,-1
61,62,1583937576704,-2.6441,-2.6355,-4.3623,7.2574,-3.1413076,-4.279003599999999,-1
62,63,1583937576714,-2.6566,-2.7688,-4.14,5.9773736,-3.8089452000000006,-3.4613068,-1
63,64,1583937576724,-3.8107998,-3.1225,-3.3544998,4.6554008,-4.6468196,-2.7640004,-1
64,65,1583937576735,-5.1233,-3.8234,-2.613,4.1360980000000005,-5.5546823,-3.1284556,-1
65,66,1583937576745,-5.6349998,-4.5509,-2.9331,5.273105,-5.769623999999999,-4.1540837,-1
66,67,1583937576755,-4.4639997000000005,-4.5517,-3.9364,6.9092927,-6.551675299999999,-5.7529793,-1
67,68,1583937576765,-2.2851999,-5.1457996,-5.8018,9.418368,-6.197765,-6.219053700000001,-1
68,69,1583937576775,-0.2571,-4.5167,-6.0421996,10.066699,-5.957636,-5.6129093,-1
69,70,1583937576786,0.44129997,-4.053999999999999,-5.486000000000001,9.267246,-5.8965263,-4.948815,-1
70,71,1583937576796,-0.32029998,-3.8395998,-4.7558,7.724087,-6.2639213,-4.8738575,-1
71,72,1583937576807,-1.7262,-4.161299700000001,-5.3787,7.9106817,-6.7572894,-5.509288300000001,-1
72,73,1583937576817,-0.45049998,-4.4168997,-6.2854,9.375454,-7.2448735,-6.3886685,-1
73,74,1583937576827,1.5804,-4.7177,-7.1452,11.276939,-7.7673364000000005,-7.109256299999999,-1
74,75,1583937576837,3.0298,-4.8024,-7.4143996,12.451755,-7.6873507,-6.937208999999999,-1
75,76,1583937576847,3.3139,-4.7731,-6.8493,12.546316000000001,-8.725036,-6.687781299999999,-1
76,77,1583937576858,3.3139,-4.7731,-6.8493,12.503441,-9.064179,-6.683184,-1
77,78,1583937576868,2.9905999,-4.9753,-6.6631,12.088822,-8.99287,-6.4209905,-1
78,79,1583937576878,3.4478,-5.5077,-7.4579,12.821315,-9.631912,-7.190841000000001,-1
79,80,1583937576888,4.6372,-5.4323,-8.0265,13.985614000000002,-9.601974499999999,-7.5211644,-1
80,81,1583937576898,5.8036,-5.4343,-8.296,14.904392999999999,-9.929588,-7.370425,-1
81,82,1583937576908,6.5092998,-5.6222,-7.638999999999999,15.209107999999999,-10.184857000000001,-6.5555634000000005,-1
82,83,1583937576918,6.4358997,-5.6877,-6.7184,14.836945000000002,-10.463724000000001,-5.4806633,-1
83,84,1583937576929,6.0516996,-5.7808,-6.1877,14.385494,-10.597465,-5.120728,-1
84,85,1583937576941,5.8396,-5.6319,-6.1714,14.264941,-10.559683999999999,-5.1250279999999995,-1
85,86,1583937576950,6.1763,-5.6064997000000005,-6.2917,14.700398000000002,-10.776981,-5.0311275,-1
86,87,1583937576960,6.561899700000001,-5.625,-6.0467997,15.070934,-10.807772,-4.496416,-1
87,88,1583937576971,7.0522,-5.4944,-5.451699700000001,15.335589,-10.7785425,-3.7203119,-1
88,89,1583937576981,7.2321,-5.4435,-4.601,15.175264000000002,-10.916737,-2.7106576000000002,-1
89,90,1583937576991,6.9414997000000005,-5.5143,-3.648,14.698225,-11.143841,-1.8885176,-1
90,91,1583937577001,6.5923,-5.6858997,-2.9166,14.628735999999998,-11.296418,-0.9932394,-1
91,92,1583937577011,6.8331,-5.6514,-1.7781,14.960409,-11.291544,0.19805793,-1
92,93,1583937577021,7.0446,-5.6959,-0.789,14.863415,-11.465296,0.99520266,-1
93,94,1583937577031,6.8315,-5.8638,0.0858,14.507043,-11.67633,1.8716624,-1
94,95,1583937577042,6.5069,-5.950599700000001,0.9205,14.323188,-11.522661,2.586504,-1
95,96,1583937577052,6.4268,-5.5908,1.5417999,14.354666,-10.892574,2.914864,-1
96,97,1583937577062,6.4846997,-5.0474997,1.7815,14.48357,-10.4391985,3.0053647,-1
97,98,1583937577072,6.6229,-4.5743,1.9627,14.566754000000001,-10.113174,3.2315977000000005,-1
98,99,1583937577082,6.6439,-4.3977,2.2484999,14.610913,-10.042249,3.5552363,-1
99,100,1583937577092,6.645,-4.3912997,2.6429,14.601643,-10.039099,4.4045553,-1
100,101,1583937577103,6.5376,-4.4772,3.6878998,14.152576000000002,-10.192413,5.419151,-1
101,102,1583937577113,5.9301,-4.7064,4.6779,13.499754000000001,-10.145764,5.9227,-1
102,103,1583937577123,5.2574997,-4.6653,5.2035,13.115159,-9.725219000000001,5.9161586999999995,-1
103,104,1583937577133,4.8666,-4.3104997,5.0902,13.105764,-9.235968,5.5379510000000005,-1
104,105,1583937577143,4.8663,-3.9046,4.7455,13.268282999999998,-8.879931,5.275269000000001,-1
105,106,1583937577154,4.9407997,-3.7336,4.6344,13.38986,-8.755213000000001,5.9450426,-1
106,107,1583937577164,4.9403,-3.7619,5.4873,12.826246000000001,-8.735044,7.051240400000001,-1
107,108,1583937577174,4.3051,-3.8946998,6.4465,12.052067,-8.591718,7.710038000000001,-1
108,109,1583937577184,3.4397,-3.9055,7.1562996,11.365428999999999,-8.033964,7.8624625,-1
109,110,1583937577194,2.6615999,-3.5159998,7.3213,10.740494,-7.535807000000001,7.3383145,-1
110,111,1583937577204,1.9434999,-3.1938999,6.8185997,10.4467535,-6.9755259999999994,7.216402,-1
111,112,1583937577215,1.4915,-2.6934,6.6712,9.892343499999999,-6.275844,7.196558500000001,-1
112,113,1583937577225,0.87729996,-2.4002,6.6787,9.053108,-5.6114917,7.439675299999999,-1
113,114,1583937577235,-0.0087,-1.8555,6.9321,8.103482000000001,-5.0821815,7.3169580000000005,-1
114,115,1583937577245,-1.037,-1.5375999,6.8672,7.5293813,-4.5335355,6.6455092,-1
115,116,1583937577255,-1.6969999,-1.1997,6.2349,7.249231,-3.9125662000000005,5.856849700000001,-1
116,117,1583937577266,-2.0458,-0.87649995,5.5924,7.2589993,-3.5501413,5.5097,-1
117,118,1583937577276,-2.1129,-0.62619996,5.239,7.1501303,-3.0729387000000004,5.372129,-1
118,119,1583937577286,-2.2814999,-0.3428,5.159,6.8050203,-2.6914659,5.3467793,-1
119,120,1583937577296,-2.6799998,-0.1656,5.204799700000001,6.22095,-2.2774509999999997,4.973025,-1
120,121,1583937577306,-3.912,0.2759,4.5003,5.608992,-1.8207426,4.4455247,-1
121,122,1583937577316,-3.912,0.2759,4.5003,5.3696485,-1.7840346,4.058449700000001,-1
122,123,1583937577327,-4.1885,-0.0401,3.8046,5.490958,-1.8088384999999998,3.694483,-1
123,124,1583937577337,-4.1885,-0.0401,3.8046,5.513224,-1.4949107,3.3026574,-1
124,125,1583937577347,-4.3092,0.5033,2.8244,5.386015,-0.8855099,2.6174752999999997,-1
125,126,1583937577357,-4.3988,0.8479,2.4515,5.310933,-0.4290026,2.283216,-1
126,127,1583937577367,-4.4755,1.0525,2.1387,5.248454,-0.11003751,1.8755601999999998,-1
127,128,1583937577378,-4.5099,0.98039997,1.8685,5.251001400000001,-0.1152856,1.6241018999999999,-1
128,129,1583937577388,-4.375099700000001,0.6793,1.4959999,5.4630413,-0.28686368,1.224232,-1
129,130,1583937577398,-4.179199700000001,0.4429,1.0002,5.6383543,-0.43186608,0.50216943,-1
130,131,1583937577408,-4.0794,0.2888,0.54649997,5.741315,-0.44564712,0.20027019,-1
131,132,1583937577418,-4.0171,0.2938,0.3803,5.7404623,-0.22322579,0.110794075,-1
132,133,1583937577428,-4.3161,0.4572,0.4994,5.3277790000000005,0.0049512093,0.22165519,-1
133,134,1583937577439,-4.6036997,0.3692,0.68689996,5.1664095,0.0019057846,0.2954062,-1
134,135,1583937577449,-4.5857,0.37809998,0.599,5.2863016,0.20724210000000004,0.08579861400000001,-1
135,136,1583937577459,-4.4096,0.45769998,0.35209998,5.426889,0.19028157,-0.2857815,-1
136,137,1583937577469,-4.3601,0.1169,0.159,5.424217,-0.09985736,-0.364273,-1
137,138,1583937577480,-4.3887,-0.19659999,0.010199999,5.456175,-0.34101093,-0.74793905,-1
138,139,1583937577490,-4.2896,-0.3863,-0.273,5.5721307,-0.35119107,-0.94563305,-1
139,140,1583937577500,-4.2001,-0.32639998,-0.5803,5.592003,-0.11179006,-1.2964122999999999,-1
140,141,1583937577510,-4.1301,0.040599998,-0.89849997,5.7271222999999996,0.31288385,-1.5662868,-1
141,142,1583937577520,-4.0106997,0.226,-1.0005,5.8430586,0.36742377,-1.7191613999999997,-1
142,143,1583937577530,-3.8518,0.1034,-1.2583,6.1436367,0.34419042,-2.0703142,-1
143,144,1583937577540,-3.2319999,0.1945,-1.6423,6.8050685,0.54854035,-2.4067952999999997,-1
144,145,1583937577551,-2.7005,0.369,-1.882,7.187920599999999,0.7826071,-2.6896174,-1
145,146,1583937577561,-2.6202998,0.5142,-2.0853999,6.9732656,0.93732995,-2.6499884,-1
146,147,1583937577571,-2.9420998,0.59,-1.8003999,6.6762122999999995,0.9113193000000002,-2.311659,-1
147,148,1583937577581,-3.1659,0.5018,-1.5855,6.6964673999999995,0.9282128000000001,-2.34762,-1
148,149,1583937577591,-2.9975998,0.5696,-1.7703999,6.8979919999999995,1.0535923999999999,-2.8013692000000003,-1
149,150,1583937577601,-2.7705998,0.67579997,-2.3557,7.267245299999999,1.2071756,-3.4118428,-1
150,151,1583937577612,-2.3084,0.8671,-2.8989,7.796314999999999,1.3691481,-3.7809522000000007,-1
151,152,1583937577622,-1.8069998999999999,0.95479995,-2.9898999,8.140238,1.2362030000000002,-3.4269357000000005,-1
152,153,1583937577633,-1.6583999,0.7484,-2.5686,7.9962893,0.8270339,-2.9503652999999996,-1
153,154,1583937577643,-1.7840999,0.32569999,-2.057,8.055177,0.49808973,-2.6018364,-1
154,155,1583937577653,-1.6745,0.023899998999999998,-1.7888998999999999,8.420014,0.45247539999999997,-2.7038007,-1
155,156,1583937577663,-1.2321,0.0437,-1.9173,9.053694,0.5342039000000001,-2.9927425,-1
156,157,1583937577673,-0.59419996,0.1582,-2.2075999,9.659042999999999,0.54694104,-3.2214751,-1
157,158,1583937577684,-0.035,0.1287,-2.3920999,9.949527,0.29848993,-3.184365,-1
158,159,1583937577694,0.21079999,-0.1275,-2.2687,10.005942999999998,-0.061406485999999996,-2.8304157,-1
159,160,1583937577704,0.22209999,-0.44669998,-1.8637999,9.885802,-0.3330909,-2.5349903,-1
160,161,1583937577714,0.0473,-0.71989995,-1.6055,9.615995,-0.6334675000000001,-2.2527522999999996,-1
161,162,1583937577724,-0.1575,-0.9812,-1.197,9.973536,-0.7642484,-1.778145,-1
162,163,1583937577734,0.20539999,-1.0586,-0.8393,10.58557,-0.51378614,-1.8556787000000001,-1
163,164,1583937577745,0.9395,-0.71669996,-0.96559995,10.990458,-0.23047544,-2.1671548,-1
164,165,1583937577755,1.2219,-0.494,-1.2570000000000001,10.876868,-0.23576182,-1.9965153000000002,-1
165,166,1583937577765,1.1022,-0.4847,-1.1096,10.635035,-0.20556617,-1.3778629999999998,-1
166,167,1583937577775,0.51129997,-0.41,0.0972,10.1829605,-0.117267996,-0.56392074,-1
167,168,1583937577785,0.51129997,-0.41,0.0972,9.943742,-0.0037732618,-0.34637398,-1
168,169,1583937577796,0.16749999,-0.2697,0.5,9.859542999999999,0.26026889999999997,-0.44639412,-1
169,170,1583937577806,0.0782,-0.0175,0.3994,9.945686,0.5209017,-0.6026493,-1
170,171,1583937577816,0.1651,0.2403,0.2272,10.01914,0.76861537,-0.740699,d
171,172,1583937577826,0.212,0.5369,0.0574,9.97251,0.80038166,-0.71516716,-1
172,173,1583937577836,0.13329999,0.5621,0.2139,9.924894,0.82054085,-0.5523615,-1
173,174,1583937577846,0.1336,0.5193,0.3365,9.911688999999999,0.75451833,-0.49668196,-1
174,175,1583937577857,0.0848,0.3999,0.1563,9.87363,0.6301922,-0.719879,-1
175,176,1583937577867,0.0848,0.3999,0.1563,9.895311999999999,0.5805077,-0.90698105,-1
176,177,1583937577877,0.1838,0.25419998,-0.101399995,9.975978,0.47232813,-0.9170845999999999,-1
177,178,1583937577887,0.1943,0.2172,-0.0319,9.949277,0.41350734,-0.8811812,-1
178,179,1583937577898,0.1752,0.0936,-0.0815,9.979273,0.27526614,-0.9586288000000001,-1
179,180,1583937577908,0.2737,0.060999997,-0.3181,10.056337,0.2032773,-1.2589766000000002,-1
180,181,1583937577918,0.3425,-0.0677,-0.59639996,10.123978,0.025005042999999998,-1.5431588,-1
181,182,1583937577928,0.3721,-0.1963,-0.8462,10.231659,-0.109060675,-1.9052675,-1
182,183,1583937577938,0.70589995,-0.20879999,-1.1927,10.635763,-0.067401566,-2.0460656000000004,-1
183,184,1583937577949,0.9912,-0.1285,-0.96529996,10.784509,-0.038134847,-1.7931708999999998,-1
184,185,1583937577959,0.8063,-0.18429999,-0.7140000000000001,10.340174000000001,-0.15626475,-1.5124364,-1
185,186,1583937577969,0.2979,-0.3551,-0.44259998,9.949211,-0.29802066,-1.2851117,-1
186,187,1583937577979,0.1521,-0.44919997,-0.312,9.991339,-0.30875626,-1.2851404,-1
187,188,1583937577989,0.3098,-0.3448,-0.48049998,10.126257,-0.1618576,-1.4770501,-1
188,189,1583937578000,0.3493,-0.2288,-0.4976,10.080575,-0.10565133,-1.3446795,-1
189,190,1583937578010,0.1431,-0.2105,-0.25509998,9.789622999999999,-0.09033802,-1.1564665,-1
190,191,1583937578020,-0.112399995,-0.1617,-0.1642,9.637314,-0.0074986396,-1.1006049999999998,-1
191,192,1583937578030,-0.1231,-0.07,-0.23199999999999998,9.638912,0.094800815,-1.2019563,-1
192,193,1583937578040,-0.1339,-0.053099997,-0.33929998,9.662998,0.005975927,-1.3226146,-1
193,194,1583937578050,-0.076,-0.102199994,-0.4078,9.844938,-0.06322608,-1.3326414,-1
194,195,1583937578061,0.2171,-0.17989999,-0.4366,10.211308500000001,-0.1303978,-1.2794039,-1
195,196,1583937578071,0.50049996,-0.22999999,-0.3486,10.237788,-0.1865562,-1.1680256000000002,-1
196,197,1583937578081,0.3524,-0.25689998,-0.2128,9.885956,-0.13084792,-0.92735094,-1
197,198,1583937578091,-0.0504,-0.1739,-0.0072,9.531106,0.026192566,-0.781659,-1
198,199,1583937578101,-0.3451,-0.0164,0.1525,9.293878999999999,0.17501615,-0.63141805,-1
199,200,1583937578111,-0.5415,0.101799995,0.2279,9.24046,0.2686869,-0.550178,-1
200,201,1583937578121,-0.5317,0.155,0.3543,9.308857000000001,0.23359747,-0.53172344,-1
201,202,1583937578131,-0.4141,0.046499997,0.25509998,9.4199,0.12705550000000002,-0.6682121,-1
202,203,1583937578141,-0.23779999,-0.0471,0.145,9.6896305,-0.0036774940000000003,-0.65738076,-1
203,204,1583937578151,-0.0519,-0.1572,0.1308,9.763842,-0.14599842,-0.8346475,-1
204,205,1583937578162,0.0356,-0.2286,-0.0526,9.87814,-0.10737516,-0.9430761000000001,-1
205,206,1583937578172,0.13319999,-0.11669999,-0.1554,9.987354,0.032589875,-1.113141,-1
206,207,1583937578182,0.21149999,-0.0089,-0.3233,9.935506,0.14192829,-1.1091282,-1
207,208,1583937578192,0.093899995,0.054899998,-0.1954,9.714723,0.157979,-0.8436688,-1
208,209,1583937578202,-0.1019,0.0468,0.0413,9.517028,0.21287327,-0.59368545,-1
209,210,1583937578212,-0.32729998,0.0972,0.2674,9.284207,0.2560838,-0.43369529999999995,-1
210,211,1583937578222,-0.5336,0.1384,0.4191,9.201358,0.25989538,-0.38444173,-1
211,212,1583937578233,-0.5731,0.118499994,0.4156,9.338939,0.27794766,-0.58146536,-1
212,213,1583937578243,-0.39729998,0.17369999,0.2021,9.570658,0.2640134,-0.7568166999999999,-1
213,214,1583937578253,-0.1627,0.14479999,0.0367,9.749716000000001,0.22345562,-0.6828838,-1
214,215,1583937578263,-0.0263,0.1255,0.1357,9.697733,0.28141445,-0.61431384,-1
215,216,1583937578273,-0.1055,0.20199999,0.18599999,9.571875,0.35053986,-0.61340404,-1
216,217,1583937578283,-0.25329998,0.27629998,0.1486,9.409079,0.4169742,-0.68102586,-1
217,218,1583937578294,-0.40089998,0.3399,0.0938,9.340824000000001,0.42330444,-0.67044353,-1
218,219,1583937578304,-0.4403,0.345,0.1008,9.334121000000001,0.425306,-0.64470106,-1
219,220,1583937578314,-0.45009997,0.3504,0.1314,9.35926,0.4229501,-0.6784593000000001,-1
220,221,1583937578324,-0.4204,0.36749998,0.077,9.415361,0.44447875,-0.7691517,-1
221,222,1583937578334,-0.371,0.3876,0.0128999995,9.434198,0.41004056,-0.5219838,-1
222,223,1583937578344,-0.3514,0.3717,0.26899999999999996,9.396955,0.23456472,-0.54490113,-1
223,224,1583937578355,-0.3811,0.212,0.2465,9.484831,-0.08607634,-0.5123305,d
224,225,1583937578364,-0.3031,-0.0618,0.2692,9.797677,-0.1930876,-0.5762364000000001,-1
225,226,1583937578374,0.0982,-0.1568,0.1724,10.183431,-0.086306185,-0.8313818000000001,-1
226,227,1583937578385,0.4015,-0.0273,-0.0638,10.238583,0.014556747,-1.0094337,-1
227,228,1583937578396,0.44,0.1765,-0.28079998,10.232884,0.111397415,-1.0313455,-1
228,229,1583937578405,0.4303,0.22379999,-0.0849,10.219736,0.1501739,-0.8335461,-1
229,230,1583937578415,0.4303,0.22379999,-0.0849,10.154662,0.064969055,-0.7491744,-1
230,231,1583937578425,0.3715,0.14209999,-0.005699999599999999,10.190987,-0.07051403,-0.8524412,-1
231,232,1583937578435,0.6954,-0.067,-0.22129999,10.510728,-0.19438045,-1.006599,-1
232,233,1583937578445,0.83239996,-0.115399994,-0.4127,10.61182,-0.24806802,-1.1574719999999998,-1
233,234,1583937578456,1.0965999,-0.2726,-0.3919,10.881139,-0.40839335,-1.1244608,-1
234,235,1583937578466,1.4096999,-0.26639998,-0.2753,11.2031975,-0.40725370000000005,-0.9987652,-1
235,236,1583937578476,1.3988999,-0.2659,-0.191,11.15042,-0.4013448,-0.9010338999999999,-1
236,237,1583937578486,1.2014999,-0.3108,-0.090799995,10.943819,-0.46761632,-0.76829934,-1
237,238,1583937578497,1.1609,-0.37739998,-0.1196,10.9509735,-0.51399684,-0.79363954,-1
238,239,1583937578507,1.3851,-0.45319998,-0.2365,11.232358999999999,-0.5850184,-0.9036483000000001,-1
239,240,1583937578517,1.5309,-0.53999996,-0.1072,11.341898,-0.68285507,-0.6581852,-1
240,241,1583937578527,1.6768999,-0.6778,0.2302,11.523753,-0.7816877,-0.34243786,-1
241,242,1583937578537,1.9014,-0.6301,0.34239998,11.772539,-0.696569,-0.22677878,-1
242,243,1583937578548,2.1062999,-0.593,0.38459998,11.948025,-0.6733932,-0.25773102,-1
243,244,1583937578558,2.2031,-0.5959,0.14019999,12.004173,-0.6639217,-0.4871626,-1
244,245,1583937578568,2.2216,-0.66889995,-0.21139999,12.053253999999999,-0.7601591,-0.8168920000000001,-1
245,246,1583937578578,2.4462,-0.8218,-0.38459998,12.397129,-0.95353395,-0.81355935,-1
246,247,1583937578588,2.8377,-1.0655,-0.1048,12.788551,-1.1216931,-0.47667600000000004,-1
247,248,1583937578598,3.0918999,-1.1079,0.1645,12.873747,-1.1257632,-0.30620882,-1
248,249,1583937578609,2.9833998999999998,-1.1472,0.102199994,12.757695,-1.1464204,-0.5081549,-1
249,250,1583937578619,2.9047,-1.2026,-0.20099999,12.711075,-1.0856843,-0.7597281,-1
250,251,1583937578629,2.8657,-1.1841999,-0.33229998,12.657264,-1.0879538999999998,-0.8009083,-1
251,252,1583937578639,2.8662999,-1.3467,-0.2738,12.659169,-1.2472067,-0.7052456,-1
252,253,1583937578649,2.8867998,-1.4834,-0.1374,12.707887,-1.2906376,-0.5245217,-1
253,254,1583937578660,2.8093998,-1.5654999,0.035,12.546967,-1.3460011,-0.3539013,-1
254,255,1583937578670,2.6343,-1.6832,0.1248,12.321491,-1.3770969,-0.33896148,-1
255,256,1583937578680,2.3616,-1.7098,0.214,11.918949000000001,-1.311199,-0.10957782,-1
256,257,1583937578690,1.9232999,-1.7549,0.4143,11.407911,-1.2132665,0.050488925999999996,-1
257,258,1583937578700,1.3978,-1.6711999,0.528,10.865480999999999,-0.9305783000000001,0.13676637,-1
258,259,1583937578711,0.8540000000000001,-1.4078,0.536,10.4119425,-0.64499795,0.09268433599999999,-1
259,260,1583937578721,0.3324,-1.1876999,0.5448,9.848348,-0.31005868,0.14145902,-1
260,261,1583937578731,-0.0831,-1.0581,0.6236,9.409680999999999,-0.12729491,0.25043350000000003,-1
261,262,1583937578741,-0.5349,-0.96089995,0.7459,8.954736,0.08424717,0.4109312,-1
262,263,1583937578751,-0.94619995,-0.85609996,0.90029997,8.640271,0.30441797,0.49255429999999994,-1
263,264,1583937578762,-1.2484,-0.7226,0.9087,8.079521000000002,0.62668705,0.30708033,-1
264,265,1583937578772,-1.7651999,-0.5409,0.7202,7.648487599999999,0.86355025,0.11789049,-1
265,266,1583937578782,-2.2612,-0.3601,0.47129998,7.0195026,1.2063999,-0.08481219999999999,-1
266,267,1583937578792,-2.7954,-0.1884,0.4082,6.375768700000001,1.3838868,-0.10420523599999999,-1
267,268,1583937578802,-3.4462,-0.1436,0.39609998,5.6997514,1.5220132,-0.0021547815,-1
268,269,1583937578812,-4.0666,-0.0866,0.51629996,5.308232299999999,1.7546241999999999,0.07600154,-1
269,270,1583937578823,-4.3827,0.07369999599999999,0.53279996,5.1477637000000005,2.107788,-0.14698483,-1
270,271,1583937578833,-4.5127997,0.3594,0.3545,4.974021,2.4607701,-0.21186769,-1
271,272,1583937578843,-4.6825,0.6024,0.36339998,4.791564,2.6682997000000004,-0.05232767,-1
272,273,1583937578853,-4.9502,0.83919996,0.6471,4.087199,3.1497638,0.11506533,-1
273,274,1583937578863,-5.6496,1.1781,0.6466,3.2816653,3.5367913,-0.21779574,-1
274,275,1583937578873,-6.4185,1.494,0.3129,2.6757693,3.8862395,-0.52657115,-1
275,276,1583937578884,-6.9832997,1.7617999,0.0674,2.2761674,4.1450143,-0.6825965,-1
276,277,1583937578894,-7.3057,1.994,-0.0704,2.1769326,4.516882,-0.9674203000000001,-1
277,278,1583937578904,-7.3272,2.3586,-0.3735,2.4542770000000003,4.924193,-1.3459148,-1
278,279,1583937578914,-7.0065,2.6928,-0.67219996,2.7384498,5.056592500000001,-1.3434344999999999,-1
279,280,1583937578924,-6.789499799999999,2.7895,-0.6202,2.5358617000000003,4.7995410000000005,-1.1428483,-1
280,281,1583937578934,-6.9957,2.5409,-0.40829998,2.108602,4.1700096,-1.0206865,-1
281,282,1583937578944,-7.4205,1.9216,-0.26569998,1.7764306,3.4270413,-1.1833677,-1
282,283,1583937578955,-7.7602997,1.2067,-0.4224,1.7213831999999998,2.8208678,-1.2934244,-1
283,284,1583937578965,-7.8289,0.65279996,-0.5259,2.1140323,2.5751939999999998,-1.4291277,-1
284,285,1583937578975,-7.4493,0.45399999999999996,-0.66499996,2.9096446,3.1729397999999995,-1.3676542,-1
285,286,1583937578985,-6.6702,1.128,-0.60749996,2.890558,3.6634924,-1.0342185,-1
286,287,1583937578995,-6.7064,1.6893,-0.297,2.1485757999999997,3.7672668,-0.77577883,-1
287,288,1583937579006,-7.4586,1.8614,-0.0758,1.7022008000000002,3.5965126000000005,-0.5129242,-1
288,289,1583937579016,-7.9269,1.7794,0.18609999,1.3532603,2.7679942000000004,-0.4291463,-1
289,290,1583937579026,-8.2885,1.0576,0.2787,1.3976966,1.5688055,-0.71805936,-1
290,291,1583937579036,-8.2687,-0.027099999,0.0026999997999999996,2.4062397,0.31009699999999996,-1.0990535,-1
291,292,1583937579046,-6.3490996,-1.5007,-0.48700000000000004,3.5723404999999997,-0.30430305,-1.2598002000000001,-1
292,293,1583937579056,-5.5169997,-1.3251,-0.4553,4.271438,-0.11206780000000001,-1.143576,-1
293,294,1583937579067,-5.5281997,-0.5209,-0.0274,4.102513,0.58122593,-0.59085065,-1
294,295,1583937579077,-6.3912997,0.19669999,0.6778,3.1797776,1.0406445,0.2544366,-1
295,296,1583937579087,-7.2128997,0.21,1.4146999,2.4958692000000005,0.67835397,0.98155564,-1
296,297,1583937579097,-7.266,-0.54829997,1.594,2.664852,-0.44683465,1.0761746,-1
297,298,1583937579107,-6.1663,-2.0663,0.9975,4.0162444,-2.2941527,0.34895968,-1
298,299,1583937579118,-4.0397,-3.6434,-0.0346,6.2002544,-4.020085,-0.69729686,-1
299,300,1583937579128,-2.1115,-4.4644,-0.8933,7.9342312999999995,-4.8947153,-1.4756614,-1
300,301,1583937579138,-1.5309,-4.4595,-0.9812,8.052553,-4.934383,-1.2809361000000001,-1
301,302,1583937579148,-2.3209,-3.8699,-0.14209999,6.9045043,-4.3907169999999995,0.03413174,-1
302,303,1583937579158,-3.7178,-3.0748,1.7003,5.75931,-3.9333096,1.6206063999999998,-1
303,304,1583937579169,-4.7289,-2.4845998,3.0386999,4.9420347,-3.6039343,2.9978373,-1
304,305,1583937579179,-4.4958,-2.2482998,3.4399,5.615868,-3.7675349999999996,2.9999156000000005,-1
305,306,1583937579190,-3.2689,-2.4208,2.063,7.0066123,-4.474399,1.0413245,-1
306,307,1583937579200,-1.714,-3.3442,-0.19049999,8.479966000000001,-6.0902652999999995,-0.9264124,-1
307,308,1583937579210,-0.32479998,-5.0383,-1.4318,10.035133,-8.182931,-1.3351505,-1
308,309,1583937579220,1.1011,-5.7739,-0.81939995,10.991061,-8.417773,-0.10973105,-1
309,310,1583937579230,1.5679,-5.4438996,0.58019996,10.357258999999999,-7.8615913,1.1082855,-1
310,311,1583937579240,0.3357,-4.4702,1.7396,8.955885,-7.0779495,1.9343616999999997,-1
311,312,1583937579251,-1.3261,-3.2493,2.52,7.2472773,-6.247372599999999,2.4349507999999997,-1
312,313,1583937579261,-2.0367,-2.7185,2.3344998,7.399635000000001,-6.662738,1.9136088,-1
313,314,1583937579271,-1.1556,-3.2096999,1.41,8.91323,-7.650509,0.8856152,-1
314,315,1583937579281,0.69339997,-4.1145,0.27249998,10.529287,-8.893837,-0.10150458,-1
315,316,1583937579291,2.1245,-4.9781,-0.6932,11.177033999999999,-9.76752,-0.5783338000000001,-1
316,317,1583937579301,2.7419,-5.3329997,-0.80009997,11.775889999999999,-10.012849000000001,-0.32470164,-1
317,318,1583937579312,3.4608,-4.9616,-0.5282,11.939338000000001,-9.412746,-0.26314190000000004,-1
318,319,1583937579322,3.3681,-3.9713,-0.5553,11.313226,-8.694113,-0.23022644,-1
319,320,1583937579332,2.7714,-3.1090999,-0.24569999,10.521386999999999,-8.199413,0.60956377,-1
320,321,1583937579342,2.1121,-2.7212,0.89769995,9.815116,-8.788339,1.9273324,-1
321,322,1583937579352,1.6653,-3.5981998,1.9129,9.706094,-10.561446,2.6842737000000003,-1
322,323,1583937579362,2.0458,-4.8911,2.2872999,10.600836,-11.790045,2.5942228,-1
323,324,1583937579373,3.222,-5.7240996,1.8391,11.487735,-12.254023,1.7521343,-1
324,325,1583937579383,4.5834,-5.9061,0.5566,12.956922,-12.294312,0.43506476,-1
325,326,1583937579393,6.0072,-5.5674,-0.5232,13.878267000000001,-11.9402,-0.014853627,-1
326,327,1583937579405,6.9431,-5.0484,-0.79679996,13.628812,-11.737986,0.9268912,-1
327,328,1583937579415,6.7865,-4.7447,0.0881,12.413027,-11.630696,2.231827,-1
328,329,1583937579425,5.7071,-4.5058,1.4018999,11.123145,-11.572834,2.904569,-1
329,330,1583937579435,4.542,-4.3301997000000005,2.0439,10.571321000000001,-11.60189,3.2813779999999997,-1
330,331,1583937579445,4.1292,-4.2455,2.3539,10.887986,-11.806613,2.8998573,-1
331,332,1583937579455,4.5915,-4.336,1.8780999,11.758882,-11.773984,1.5645725000000001,-1
332,333,1583937579465,5.6194,-4.1927,0.45399999999999996,12.3858185,-11.475992999999999,0.47473190000000004,-1
333,334,1583937579475,6.394,-3.783,-0.718,12.4268265,-11.243314999999999,0.48586014,-1
334,335,1583937579485,6.5593996,-3.4654998999999997,-0.7382,11.793197,-11.304932,1.1786558999999999,-1
335,336,1583937579495,6.034,-3.4475,-0.027199998,10.815814999999999,-11.265599,1.4973912,-1
336,337,1583937579506,5.1386,-3.3444998,0.29979998,10.096885,-11.084513000000001,1.3723851,-1
337,338,1583937579516,4.5014,-3.1027,0.17,10.042163,-10.970836,1.493436,-1
338,339,1583937579526,4.9694,-2.8535,0.1209,10.470448,-10.87908,1.3586998,-1
339,340,1583937579536,5.2151,-2.5054,-0.098699994,10.539083999999999,-10.565775,1.1586020000000001,-1
340,341,1583937579546,4.9972997,-2.2338998,-0.5358,10.216528,-10.355841999999999,0.76867276,-1
341,342,1583937579556,4.7065997,-2.0087,-0.6813,9.902648,-10.167121,0.7622468000000001,-1
342,343,1583937579566,4.5011,-1.818,-0.3651,9.641422,-9.982136,1.1182455,-1
343,344,1583937579577,4.1078997,-1.6129,-0.08549999400000001,9.156194000000001,-9.822155,1.3098676999999999,-1
344,345,1583937579587,3.5974,-1.4332,-0.22649999,8.657989500000001,-9.625936,1.1376864,-1
345,346,1583937579597,3.2379,-1.1989,-0.3999,8.341197,-9.430454,0.9737793,-1
346,347,1583937579607,3.1006,-1.0553,-0.5162,8.190382000000001,-9.281046,0.83150625,-1
347,348,1583937579617,2.9686,-0.8649,-0.6487,8.078122,-9.09629,0.74588,-1
348,349,1583937579628,2.8509,-0.7351,-0.5366,7.9014974,-8.998923,0.9087145000000001,-1
349,350,1583937579638,2.6592999,-0.6957,-0.3782,7.681451299999999,-8.923276,1.0191447,-1
350,351,1583937579648,2.3065999,-0.6098,-0.3073,7.2475357,-8.86796,0.95462567,-1
351,352,1583937579658,1.8829999,-0.5753,-0.42819998,6.9244813999999995,-8.82472,0.8647665000000001,-1
352,353,1583937579668,1.6945,-0.57129997,-0.4667,6.824356,-8.822317,0.82983035,-1
353,354,1583937579678,1.5935,-0.5585,-0.29299998,6.725801,-8.78514,1.1793071000000002,-1
354,355,1583937579688,1.3719,-0.5477,0.4296,6.473883,-8.785677,1.9082171,-1
355,356,1583937579698,0.93009996,-0.5402,0.74719995,5.9256682000000005,-8.720832000000001,1.9609661,-1
356,357,1583937579708,0.4276,-0.3681,0.44099998,5.583891,-8.497767999999999,1.5452656999999999,-1
357,358,1583937579718,0.2758,-0.14899999,0.07369999599999999,5.5321193,-8.313961,1.303662,-1
358,359,1583937579728,0.2511,-0.0506,-0.19,5.4950852,-8.242739,1.0457011,-1
359,360,1583937579738,0.2511,-0.0506,-0.19,5.395276,-8.327091000000001,1.063811,-1
360,361,1583937579748,0.060099997,-0.363,0.109,5.468682299999999,-8.567919,1.4477258,-1
361,362,1583937579758,0.30949998,-0.42949998,0.2907,5.721442700000001,-8.566157,1.5485792,d
362,363,1583937579769,0.4605,-0.40899998,0.2408,5.816167,-8.537004,1.4034427,-1
363,364,1583937579779,0.43249997,-0.3421,0.047399998,5.7558336,-8.434600999999999,1.2318263,-1
364,365,1583937579789,0.3726,-0.2478,-0.0014,5.748076,-8.359662,1.2500798,-1
365,366,1583937579799,0.3997,-0.24249999,0.1665,5.8411436,-8.381995,1.5660952,-1
366,367,1583937579809,0.43539998,-0.3557,0.52169997,5.8380019999999995,-8.46514,1.7579759999999998,-1
367,368,1583937579819,0.32349998,-0.36229998,0.4495,5.7703514,-8.425359,1.6372222,-1
368,369,1583937579829,0.3604,-0.34,0.2496,5.952684400000001,-8.400699000000001,1.3935211,-1
369,370,1583937579839,0.6946,-0.3269,-0.0279,6.2776255999999995,-8.348141,1.2183614,-1
370,371,1583937579849,1.1978999,-0.2933,-0.3292,6.935255499999999,-8.3459,0.8491466999999999,-1
371,372,1583937579859,1.6899998999999999,-0.3779,-0.5288,7.381400599999999,-8.443593,0.844636,-1
372,373,1583937579870,2.0498,-0.54289997,-0.22829999,7.633787599999999,-8.586,1.2331288,-1
373,374,1583937579880,2.2378,-0.9165,0.3032,7.911811999999999,-9.078296,1.8086468999999998,-1
374,375,1583937579890,2.4728,-1.3512,0.5469,8.211872,-9.41991,1.8886707999999999,-1
375,376,1583937579900,2.8539999,-1.6604999,0.3213,8.859283999999999,-9.766045,1.4610281,-1
376,377,1583937579911,3.5382998,-1.9521998999999999,-0.0176,9.697197000000001,-10.013491,1.4282753000000001,-1
377,378,1583937579922,4.317199700000001,-2.2949998,0.00029999999,10.427495,-10.417517,1.3201532,-1
378,379,1583937579932,4.9521,-2.7596,-0.1616,11.069103,-10.882729,1.2422268,-1
379,380,1583937579942,5.4888997,-3.2303998,-0.1786,11.523168,-11.218377,1.3910121000000002,-1
380,381,1583937579952,5.8287,-3.5907998,0.0859,11.939071,-11.529411999999999,1.7561563999999998,-1
381,382,1583937579962,6.1671,-3.9696998999999997,0.4525,12.258543,-11.789346,2.0353396,-1
382,383,1583937579973,6.327999999999999,-4.1914997000000005,0.7012,12.465929,-11.784912,2.2410972,-1
383,384,1583937579983,6.3803,-4.2078,0.8109999999999999,12.581693,-11.687689,2.282536,-1
384,385,1583937579993,6.403,-4.1854997,0.86109996,12.704429,-11.579949000000001,2.3292806,-1
385,386,1583937580003,6.3766,-4.2026997,0.90629995,12.636434,-11.596335,2.1903403,-1
386,387,1583937580013,6.2044,-4.3466997,0.7233,12.633100500000001,-11.673036999999999,2.0118956999999997,-1
387,388,1583937580024,6.0636,-4.5099998,0.5962,12.594679,-11.569759,2.0256383000000002,-1
388,389,1583937580034,5.8367,-4.4972,0.6824,12.231525999999999,-11.426299,2.2301702000000003,-1
389,390,1583937580044,5.2783,-4.5062,1.0193,11.565584,-11.2391,2.9424932,-1
390,391,1583937580054,4.5467,-4.488,1.6444,11.069533999999999,-11.07008,3.0991697,-1
391,392,1583937580064,3.8033,-4.421,1.8247,10.757378,-10.711841,2.8874645,-1
392,393,1583937580074,3.4048,-4.1942,1.5770998999999999,10.634249,-10.215437,2.313383,-1
393,394,1583937580085,3.1267,-3.8851,0.9726,10.435694,-9.823103999999999,1.8809233,-1
394,395,1583937580095,2.7514,-3.6908998,0.6742,9.93928,-9.339877,2.2052321,-1
395,396,1583937580105,2.1592,-3.4566998,1.0526,9.209641,-8.830697,2.7410927000000003,-1
396,397,1583937580115,1.2806,-3.1448,1.64,8.572861,-8.388957000000001,3.177326,-1
397,398,1583937580125,0.5,-2.9011,2.1337,8.442788,-8.066602,3.3191872000000004,-1
398,399,1583937580135,0.21319999,-2.7998,2.3490999,8.596113,-7.7711573000000005,3.2448616,-1
399,400,1583937580145,0.2162,-2.7113,2.3734,8.530743,-7.430625,3.0174793999999996,-1
400,401,1583937580155,0.0184,-2.5885,2.2507,8.150360000000001,-7.132882,2.892301,-1
401,402,1583937580165,-0.4878,-2.5219998,2.2263,7.7231297,-6.669001,3.223764,-1
402,403,1583937580175,-1.0466,-2.2949998,2.6569998,7.595538,-6.002436,3.4219751000000005,-1
403,404,1583937580186,-1.2926999,-1.8646,2.9364,7.6487565,-5.511279599999999,3.3576282999999996,-1
404,405,1583937580196,-1.3138,-1.4829999,2.9257998,7.975459599999999,-4.9338846,3.4776928,-1
405,406,1583937580206,-1.1294,-1.2658,3.1204,8.033638999999999,-4.7565029999999995,3.549136,-1
406,407,1583937580216,-1.1618998999999999,-1.3201,3.241,7.5727644,-4.7270927,3.1865482000000003,-1
407,408,1583937580226,-2.3234,-1.7005999,2.5832,6.9344225,-4.6497793,2.6816400000000002,-1
408,409,1583937580236,-2.3234,-1.7005999,2.5832,6.8460092999999995,-4.3708067,2.3650115,-1
409,410,1583937580246,-2.4062997999999998,-1.0877,2.0097,7.099076299999999,-3.4701464,2.0069826,-1
410,411,1583937580256,-2.4062997999999998,-1.0877,2.0097,7.025124000000001,-2.9601047,1.7010611,-1
411,412,1583937580266,-2.5209,-0.6502,1.7184999,6.587664999999999,-2.5300583999999997,1.3307835,-1
412,413,1583937580276,-3.6827,-0.2935,1.3464,5.8225837,-2.094419,1.1198063999999999,-1
413,414,1583937580286,-4.3859997,-0.2421,1.4009,5.1633644,-1.8614248,1.1420534,-1
414,415,1583937580296,-4.9055,-0.4172,1.8519999999999999,4.7215667,-1.8710494,1.5488666000000002,-1
415,416,1583937580306,-5.3395,-0.5413,2.2467,4.3109517,-1.7583497,1.7697078000000002,-1
416,417,1583937580317,-5.3395,-0.5413,2.2467,4.132057,-1.5214002,1.5159032,-1
417,418,1583937580327,-5.5432,-0.063,1.5375999,4.2955523,-0.8660114999999999,0.77908283,-1
418,419,1583937580337,-5.1289,0.23519999,1.3198,4.6666245,-0.49223828,0.56260866,-1
419,420,1583937580347,-5.0747,0.1639,1.3095,4.6656002999999995,-0.49676812,0.45760855,-1
420,421,1583937580357,-5.2341,0.069,1.0516,4.5038860000000005,-0.41298065,0.13980223,-1
421,422,1583937580367,-5.3615,0.1277,0.92569995,4.3886194000000005,-0.23749524,-0.0500867,-1
422,423,1583937580377,-5.4571,0.105399996,0.7449,4.2558656,-0.13910311,-0.38156873,-1
423,424,1583937580388,-5.5017,0.1787,0.51629996,4.287536599999999,0.06788041,-0.6165548000000001,-1
424,425,1583937580398,-5.1816,0.3489,0.31919998,4.6543470000000005,0.30327833,-0.8678598,-1
425,426,1583937580408,-4.8698,0.3899,0.2112,4.9065237,0.37343803,-1.0660518,-1
426,427,1583937580418,-4.8216,0.2393,0.093399994,4.8948593,0.22027613,-1.1921591999999999,-1
427,428,1583937580428,-4.7818,-0.113299996,0.25169998,5.050377,-0.08466855,-0.8914761999999998,-1
428,429,1583937580438,-4.4863,-0.5305,0.8989,5.2514997,-0.42453027,-0.26804525,-1
429,430,1583937580449,-4.4853997,-0.8164,1.3305,5.138043,-0.564275,-0.27668354,-1
430,431,1583937580460,-4.624,-0.8994,0.6756,5.0993433,-0.46255976,-1.3613431,-1
431,432,1583937580470,-4.4126997,-0.6387,-0.79429996,5.4861884000000005,-0.01133894,-2.9294877,-1
432,433,1583937580480,-3.7919,-0.12539999,-1.9851999,6.123793599999999,0.58398414,-3.6942532,-1
433,434,1583937580490,-3.2969999999999997,0.29600000000000004,-1.9722998999999999,6.597471700000001,0.838957,-3.0735419,-1
434,435,1583937580500,-2.9924998,0.1872,-1.037,6.658533599999999,0.58068013,-1.779591,-1
435,436,1583937580511,-3.1418998,-0.266,0.42209998,6.309008599999999,0.11584105,-0.6530999,-1
436,437,1583937580521,-3.4227,-0.72319996,1.2973,6.1520066,-0.08239885,-0.63512427,-1
437,438,1583937580531,-3.4376,-0.79109997,0.9278,6.296396,0.16339947,-1.263631,-1
438,439,1583937580541,-2.9833,-0.375,0.1462,6.9782553,0.8019139,-2.409218,-1
439,440,1583937580551,-2.4549,0.0827,-0.6659,7.0674825,1.2232934,-2.7893597999999997,-1
440,441,1583937580562,-2.5693,0.3132,-0.6594,6.609519500000001,1.1055753000000001,-2.4969509999999997,-1
441,442,1583937580572,-3.0115,0.1091,-0.3463,6.301635,0.98807746,-2.2930036,-1
442,443,1583937580582,-3.2796998,0.0044,-0.0506,6.477666,1.0001441999999998,-2.108851,-1
443,444,1583937580592,-2.9710999,0.0231,-0.0105,6.909331,1.0206578000000002,-2.5677812,-1
444,445,1583937580602,-2.5356,0.076299995,-0.52599996,7.445536,1.0299186,-3.1777952000000003,-1
445,446,1583937580612,-1.9634999,0.0718,-1.0792999,8.083753999999999,0.9803394,-3.584953,-1
446,447,1583937580623,-1.3227,0.0523,-1.4251,8.577869,0.89972186,-3.7886803,-1
447,448,1583937580633,-0.89659995,0.0212,-1.5717,8.75255,0.9524709000000001,-4.002377500000001,-1
448,449,1583937580643,-0.7539,0.1007,-1.7669,8.699906,1.0210408000000002,-4.0482309999999995,-1
449,450,1583937580654,-0.82629997,0.18169999,-1.7076,8.497442999999999,0.87107766,-3.728816,-1
450,451,1583937580664,-1.0551,-0.029199999,-1.2672,8.217694999999999,0.53436667,-3.0882998,-1
451,452,1583937580674,-1.3133,-0.3621,-0.6028,8.264832499999999,0.44441172,-2.6877596,-1
452,453,1583937580684,-1.1802,-0.3699,-0.276,8.667422,0.78298056,-2.7454886000000003,-1
453,454,1583937580694,-0.81409997,-0.047199998,-0.3383,8.791921,0.9244013000000001,-2.8958828,-1
454,455,1583937580705,-0.68549997,0.1052,-0.4759,8.73988,0.8283363000000001,-3.087189,-1
455,456,1583937580715,-0.7442,0.0265,-0.6651,9.013902,0.7379217,-3.3673682,-1
456,457,1583937580726,-0.14479999,-0.09219999599999999,-0.9004,9.427361,0.6342814999999999,-3.3255079,-1
457,458,1583937580736,-0.14479999,-0.09219999599999999,-0.9004,9.649868,0.525805,-3.2440956,-1
458,459,1583937580746,0.17099999,-0.2065,-0.7873,9.841586,0.29084763,-3.212377,-1
459,460,1583937580756,0.45189998,-0.46019998,-0.71489996,9.935171,0.26452097,-3.2096667,d
460,461,1583937580766,0.41459998,-0.2959,-0.77449995,9.851087,0.41176438,-3.2626936,-1
461,462,1583937580776,0.1794,-0.18519999,-0.6847,9.601333,0.5245217,-3.152857,-1
462,463,1583937580787,-0.0659,-0.1165,-0.509,9.359413,0.59315866,-2.973426,-1
463,464,1583937580797,-0.1839,-0.009000000000000001,-0.2945,9.277781,0.70189375,-2.7283747000000003,-1
464,465,1583937580807,-0.1639,0.0901,-0.047799997000000004,9.327945,0.8052754,-2.5073613999999997,-1
465,466,1583937580818,-0.103599995,0.124,0.0473,9.395278,0.7788913000000001,-2.4778168,-1
466,467,1583937580827,0.0654,0.0052,0.117199995,9.549197,0.630537,-2.34083,-1
467,468,1583937580837,0.1559,-0.1586,0.22699999999999998,9.640426,0.47623545,-2.3278630000000002,-1
468,469,1583937580847,0.1559,-0.1586,0.22699999999999998,9.714108999999999,0.40117243,-2.6034547999999997,-1
469,470,1583937580857,0.3328,-0.185,-0.528,9.817117,0.46845907,-3.1242034,-1
470,471,1583937580868,0.41979998,-0.052899998,-0.67649996,9.906488000000001,0.5733443,-3.2081918999999997,-1
471,472,1583937580878,0.46789998,0.0058,-0.55009997,9.930077,0.59478676,-3.012394,-1
472,473,1583937580888,0.341,-0.0576,-0.1645,9.706449000000001,0.52347785,-2.6101202999999997,-1
473,474,1583937580898,0.1468,-0.1434,-0.0583,9.628685,0.38319677,-2.6817164,-1
474,475,1583937580908,0.29709998,-0.276,-0.2712,9.910194,0.2557199,-2.9318244,-1
475,476,1583937580918,0.73219997,-0.40649998,-0.48169997,10.2991,0.14845009,-3.1373522,-1
476,477,1583937580929,0.85349995,-0.4709,-0.5949,10.295613000000001,0.10398497,-3.1899195,-1
477,478,1583937580939,0.7197,-0.5315,-0.6416,10.1103115,0.061942786,-3.2950727999999994,-1
478,479,1583937580949,0.5751,-0.4692,-0.7712,10.001548,0.20206106,-3.4012985000000002,-1
479,480,1583937580959,0.5177,-0.2724,-0.8269,9.977127000000001,0.3994486,-3.5218515,-1
480,481,1583937580970,0.5191,-0.1459,-1.0694,9.95646,0.4573021,-3.9098654,-1
481,482,1583937580980,0.4813,-0.2076,-1.4203,9.869493499999999,0.3192237,-4.2750673,-1
482,483,1583937580990,0.3744,-0.4184,-1.8416,9.850675,0.07846278,-4.685884,-1
483,484,1583937581000,0.46379998,-0.6405,-2.175,10.028794,-0.091956496,-4.980925599999999,-1
484,485,1583937581010,0.6416,-0.73649997,-2.5082998,10.111873,-0.10402328,-5.340152,-1
485,486,1583937581021,0.6825,-0.7384,-3.1943,10.152986,0.022543802999999998,-6.4660873,-1
486,487,1583937581031,0.7646,-0.659,-4.3554997,10.214402,0.07649954,-7.886213000000001,-1
487,488,1583937581041,0.77129996,-0.7855,-5.8328,10.10131,-0.36321953,-9.160724,-1
488,489,1583937581051,0.5658,-1.4951,-6.7037997,9.712491,-1.3068128,-9.3642025,-1
489,490,1583937581061,0.1478,-2.5530999,-6.5597,9.383528,-2.071923,-9.068977,-1
490,491,1583937581072,-0.074499995,-3.0588,-6.3728,9.342031500000001,-1.913197,-9.409969,-1
491,492,1583937581082,0.0673,-2.5781999,-7.0582,9.599638,-0.8078706999999999,-10.415956,-1
492,493,1583937581092,0.18769999,-1.6866,-7.9398,9.299874,-0.10160034,-11.125788,-1
493,494,1583937581102,-0.2005,-1.1355,-8.5498,8.695405000000001,0.086210415,-10.527343,-1
494,495,1583937581112,-0.8387,-1.1448,-7.8687,8.120749,-0.23727496,-9.539849,-1
495,496,1583937581123,-1.4584,-1.5677999,-7.002999999999999,7.5721893,-0.6829604,-8.704130000000001,-1
496,497,1583937581133,-1.9885,-2.0593,-6.3057,7.2937155,-0.9768247,-7.844133,-1
497,498,1583937581143,-2.2424,-2.3432999,-5.5498,6.962616400000001,-1.0158406,-6.911275,-1
498,499,1583937581153,-2.6327,-2.4297,-4.7093,6.483029,-1.0395337,-5.932889,-1
499,500,1583937581163,-3.1299999,-2.4852,-3.9023,6.061294999999999,-0.8883829,-5.307476,-1
500,501,1583937581174,-3.5396998,-2.3488998,-3.4675,5.796352400000001,-0.72294354,-4.7516475,-1
501,502,1583937581184,-3.8334,-2.2719,-3.0368998,5.4971347,-0.7452001,-4.2354193,-1
502,503,1583937581194,-4.147,-2.3225,-2.6729998999999998,5.3029747,-0.7045273,-3.6749367999999993,-1
503,504,1583937581204,-4.3519998,-2.2477,-2.0004,5.001535,-0.42886856,-2.1426382,-1
504,505,1583937581214,-4.614,-2.0488,-1.0224999,4.7884035,-0.24139298,-1.3082302,-1
505,506,1583937581225,-4.8401,-1.8859999,-0.4059,4.5933523,-0.07677726,-0.7891289,-1
506,507,1583937581235,-5.0537,-1.7205,0.014699998999999998,4.656962,-0.016931795,-0.20003076,-1
507,508,1583937581245,-4.9965997,-1.6455,0.4743,4.8031707,-0.08033983,0.5880925,-1
508,509,1583937581255,-4.8598,-1.6988,1.1154,4.8136095999999995,-0.31048006,1.3137176000000002,-1
509,510,1583937581265,-4.8594,-1.9111999,1.7298,4.9208217,-0.2956935,2.0366037,-1
510,511,1583937581276,-4.7703,-1.8621,2.3483999,5.063363,-0.030674512999999997,2.769919,-1
511,512,1583937581286,-4.6323,-1.5594,2.9722,4.9951186,0.28157726,3.4526303,-1
512,513,1583937581296,-5.178999999999999,-1.0406,4.1035,4.4236035000000005,0.42706809999999995,4.266228,-1
513,514,1583937581306,-5.5694,-0.9798,4.6047,4.115393,0.40150762,4.8676324,-1
514,515,1583937581317,-5.6563,-0.9554,5.000499700000001,4.106171,0.3410397,5.294844,-1
515,516,1583937581327,-5.1946,-0.82879996,5.1407,4.699387000000001,0.42136034,5.5011573,-1
516,517,1583937581337,-4.5464997,-0.5532,5.4122,5.2769639999999995,0.6173114000000001,5.955423400000001,-1
517,518,1583937581347,-4.4663,-0.43949997,6.1787,5.2221465,0.56120086,6.8653827000000005,-1
518,519,1583937581358,-4.8557997,-0.5398,7.0934,4.825514,0.30923507,7.79327,-1
519,520,1583937581368,-5.1373997000000005,-0.8689,7.5827,4.6426635,-0.25549006,8.263856,-1
520,521,1583937581378,-4.8601,-1.0800999,7.7053,5.158614,-0.48015237,8.282128,-1
521,522,1583937581388,-4.2978997,-1.0853,7.6011,5.6617503,-0.6189585999999999,8.411433,-1
522,523,1583937581398,-3.8219998,-1.1132,8.089499,6.1132874,-0.75472903,9.014361,-1
523,524,1583937581409,-3.4311,-1.0006,8.559199000000001,6.43412,-0.7515590999999999,9.366615,-1
524,525,1583937581419,-3.2028,-0.8461,8.8605995,6.603055,-0.7497969,9.779059,-1
525,526,1583937581429,-3.1873999,-0.7984,8.9632,6.557115,-0.9271785,9.876628,-1
526,527,1583937581439,-3.2696,-1.0065,8.893599499999999,6.4359779999999995,-1.4474770000000001,9.714436,-1
527,528,1583937581449,-3.5101,-1.5959999999999999,8.451099000000001,6.3162293,-2.147618,9.16147,-1
528,529,1583937581460,-2.9475,-1.7996999,7.8191,7.3257976,-2.2212732,8.523128,-1
529,530,1583937581470,-1.6473,-1.2925,7.586,8.485692,-1.6449316000000003,8.562288,-1
530,531,1583937581480,-1.1374999,-0.45549998,7.7349997,8.446475999999999,-0.9637906999999999,8.708985,-1
531,532,1583937581490,-1.6143999,0.1741,8.2195,7.9099636,-0.7699753,9.538241000000001,-1
532,533,1583937581500,-2.109,0.091,9.2171,7.3127537,-1.341452,10.342607000000001,-1
533,534,1583937581510,-2.5349,-0.5388,9.267000000000001,7.1672053,-2.3773657999999998,9.427524,-1
534,535,1583937581521,-2.3042998,-1.444,7.8271,8.182241000000001,-3.2779207,7.626289,-1
535,536,1583937581531,-0.6999,-2.0435998,6.2981,10.111911,-3.7508519999999996,6.600948299999999,-1
536,537,1583937581541,1.0347998999999999,-2.2356,5.8073997,11.09724,-4.0189934,6.582838499999999,-1
537,538,1583937581551,1.8106999,-2.3392,6.3118,11.5721445,-4.2356877,7.3265924,-1
538,539,1583937581561,1.9506999,-2.4180999,6.9216,11.511082,-4.525654299999999,7.3725996,-1
539,540,1583937581571,1.8571,-2.6232,6.6091,11.440674000000001,-4.9285120000000004,6.457459,-1
540,541,1583937581582,1.9616,-2.9271998,5.5671,11.7218685,-5.391033599999999,5.3384953,-1
541,542,1583937581592,2.3625998,-3.2682,4.5512,12.18913,-5.963832,4.5118155,-1
542,543,1583937581602,2.8444998,-3.7747,4.0456,12.64984,-6.763524,4.4715643,-1
543,544,1583937581612,3.2401998,-4.3032,4.2293,12.86735,-7.235622,4.4180775,-1
544,545,1583937581622,3.5,-4.5724,4.035,13.352989,-7.203138,3.8740767999999997,-1
545,546,1583937581632,4.114,-4.3375998,3.4203,14.248335,-6.9722505,3.1101827999999996,-1
546,547,1583937581642,5.0615,-3.9828,2.5137,14.804737,-6.6902422999999995,2.3337624,-1
547,548,1583937581652,5.5353,-3.5224,1.6836,14.693063,-6.6625557,1.9264512999999999,-1
548,549,1583937581662,5.121299700000001,-3.8514,1.4179,13.968194,-7.653602,1.6017209,-1
549,550,1583937581672,4.6243,-4.5855,1.1651,13.698051000000001,-8.034031,1.4217248,-1
550,551,1583937581682,4.2332,-4.9346,0.98289996,13.123098,-8.396522500000001,1.2227476000000002,-1
551,552,1583937581693,3.8211,-5.1637,0.7877,13.108331,-8.538307000000001,0.73104554,-1
552,553,1583937581703,3.9673,-5.1447,0.15869999,13.586788,-8.115424,-0.37859990000000004,-1
553,554,1583937581713,4.4562,-4.6407,-1.0516,13.833352,-7.726261,-1.3439229,-1
554,555,1583937581723,4.6417,-4.2076,-1.9659,13.647457000000001,-7.4081774000000005,-1.6611544999999999,-1
555,556,1583937581734,4.2486,-3.8269,-2.2119,12.497895,-7.0168114,-1.3263973,-1
556,557,1583937581744,3.3337998,-3.5505998,-1.9114,11.268175999999999,-6.867451700000001,-1.0108128,-1
557,558,1583937581756,2.1036,-3.4074,-1.6452,10.376173,-7.006142999999999,-1.0017340000000001,-1
558,559,1583937581766,0.87469995,-3.7164,-2.7075,10.084081,-7.234712599999999,-2.3107877,-1
559,560,1583937581776,1.7085999,-3.8437997999999998,-5.0429997,11.104652,-7.3073335,-4.6787105,-1
560,561,1583937581786,3.0769,-3.6894,-7.1768,12.406015,-7.150742999999999,-6.602988000000001,-1
561,562,1583937581796,3.5419998,-3.5672998,-8.032599000000001,12.605472,-7.0380144,-7.170471000000001,-1
562,563,1583937581808,2.6524,-3.4366,-7.5624,11.515947,-6.866925,-6.6783385,-1
563,564,1583937581818,0.982,-3.1174998,-6.8027997000000004,9.807627,-6.459718700000001,-5.9689846,-1
564,565,1583937581828,0.982,-3.1174998,-6.8027997000000004,8.087403,-5.838414,-5.3994517,-1
565,566,1583937581838,-1.546,-2.1174,-5.9124,7.606187299999999,-5.325557,-5.299526999999999,-1
566,567,1583937581848,-1.4199,-1.5846,-6.3202996,8.093541,-4.7554784,-6.0833983,-1
567,568,1583937581859,-0.4996,-1.3173,-7.7952,9.181198,-4.6296105,-7.796459700000001,-1
568,569,1583937581869,0.71819997,-1.3715,-9.859799,10.374824,-4.7703223,-9.726205,-1
569,570,1583937581879,1.795,-1.5612999,-11.077399,11.217946000000001,-5.0178638,-10.18003,-1
570,571,1583937581889,1.9606999,-1.9375,-10.5805,10.882624,-5.513052,-9.313108999999999,-1
571,572,1583937581899,1.1072,-2.439,-9.2951,9.623082,-5.799561,-7.8838477,-1
572,573,1583937581910,-0.0647,-2.3954,-8.2612,8.912521,-5.686353700000001,-7.483278299999999,-1
573,574,1583937581920,-1.0292,-2.2559,-8.095099000000001,7.9403605,-5.5389953,-7.6765289999999995,-1
574,575,1583937581930,-1.2514,-2.3018,-8.4193,8.333948,-5.580501,-7.8579425999999994,-1
575,576,1583937581940,-0.55289996,-2.2905,-8.4741,8.853624,-5.5713553,-7.8135633,-1
576,577,1583937581950,0.0831,-2.3739,-8.3709,9.395595,-5.805834,-7.5115685,-1
577,578,1583937581960,0.1813,-2.5726,-8.1452,9.285279,-5.9325155999999994,-7.181580499999999,-1
578,579,1583937581970,0.0042999996999999995,-2.5969,-7.7212,9.071102999999999,-5.87133,-6.5442057,-1
579,580,1583937581980,-0.2426,-2.4473,-7.1531,8.7349,-5.733194,-6.082498,-1
580,581,1583937581990,-0.579,-2.4561,-6.7925,8.538423,-5.9313188,-5.784679,-1
581,582,1583937582000,-0.6516,-2.7498,-6.4315996,8.615037,-6.251614599999999,-5.2811875,-1
582,583,1583937582011,-0.529,-2.9069998,-5.9167,8.539753999999999,-6.3285456,-4.605457299999999,-1
583,584,1583937582022,-0.8002,-2.9694998,-5.2412996,8.076675999999999,-6.3938403,-3.8593285,-1
584,585,1583937582031,-1.2785,-3.0349,-4.4179997,7.7370353000000005,-6.401406,-3.143558,-1
585,586,1583937582041,-1.6279999,-2.9603999,-3.6959998999999994,7.387951400000001,-6.3174367,-2.6709235000000002,-1
586,587,1583937582051,-1.8076999,-2.8697999,-3.6578,7.3113649999999994,-6.220442299999999,-2.6981982999999996,-1
587,588,1583937582061,-1.8276999,-2.7529,-3.5437999,7.2507443,-6.1264462,-2.2890484,-1
588,589,1583937582071,-1.9742998999999999,-2.7103999,-3.0591,7.068938,-6.2140546,-1.8130428,-1
589,590,1583937582082,-2.043,-2.7633997999999997,-2.6489,7.2815337,-6.11008,-1.2986723999999998,-1
590,591,1583937582092,-1.7883999,-2.5582,-2.1649,7.346589,-5.967959400000001,-0.6097649,-1
591,592,1583937582102,-1.818,-2.4675999,-1.3759999,7.033197400000001,-6.188437,0.13831782,-1
592,593,1583937582112,-2.2001,-2.7186,-0.5255,6.7546843999999995,-6.3290815,0.6305561,-1
593,594,1583937582122,-2.3537,-2.6804,-0.2525,6.707097500000001,-6.189451999999999,0.70029444,-1
594,595,1583937582133,-2.4636,-2.5184999,-0.23179999,6.455333,-6.2669760000000005,0.57740486,-1
595,596,1583937582143,-2.5893,-2.6359,-0.40359998,6.5709539999999995,-6.434637,0.37601417,-1
596,597,1583937582153,-2.4180999,-2.6706998,-0.6505,6.8541493000000004,-6.2078295,0.16479770000000002,-1
597,598,1583937582163,-2.0805,-2.3228,-0.7902,7.137440700000001,-5.7317184999999995,0.71057034,-1
598,599,1583937582173,-1.8052,-1.8018,-0.094799995,7.053146000000001,-5.3931116999999995,1.7921557000000001,-1
599,600,1583937582183,-1.9957,-1.4624,1.1206,6.597127,-5.303789,3.0095593999999997,-1
600,601,1583937582194,-2.4634,-1.3805,2.2769,6.331792,-5.312906,3.3919038999999995,-1
601,602,1583937582204,-2.5563,-1.3246,2.5805,6.8344307,-5.1215997,3.3121004000000003,-1
602,603,1583937582214,-1.9566,-1.0433999,2.5066,7.364986,-5.123496,2.8332599999999997,-1
603,604,1583937582224,-1.5158,-0.992,2.0983999,7.8726716,-5.414238500000001,2.3364344,-1
604,605,1583937582235,-0.98609996,-1.244,1.5979999,8.507585,-5.6823792,2.8520017,-1
605,606,1583937582245,-0.31309998,-1.4463999,2.1025,8.776148,-5.8869489999999995,3.8157157999999995,-1
606,607,1583937582255,-0.0132,-1.5734999,3.0439,8.547636,-6.043826999999999,4.9359055,-1
607,608,1583937582265,-0.31489998,-1.6987,4.4188,8.025354,-6.0575023,6.438047,-1
608,609,1583937582275,-0.70739996,-1.6340000000000001,5.6363997,7.817902,-5.9424376,7.1704235,-1
609,610,1583937582285,-0.87439996,-1.4455,6.3336,8.018976,-5.8462,6.944478,-1
610,611,1583937582295,-0.6455,-1.3069,6.0985,8.579296000000001,-5.848221,6.377732,-1
611,612,1583937582305,-0.0506,-1.2444,5.4898996,9.149614,-6.061879,6.1642933,-1
612,613,1583937582315,0.82229996,-1.5641999,5.6573,9.385817,-6.334339,6.770084,-1
613,614,1583937582326,0.8883,-1.6221,6.4207,9.40318,-6.417045,7.576001,-1
614,615,1583937582336,0.8883,-1.6221,6.4207,9.293219,-6.375558,8.064264999999999,-1
615,616,1583937582346,0.5875,-1.4146999,7.5354,9.057993,-6.2642274,8.386237,-1
616,617,1583937582356,0.7456,-1.4176999,6.9270000000000005,9.326038,-6.308155999999999,7.590165,-1
617,618,1583937582366,1.5328,-1.2827,5.6538997,10.177091,-6.188896700000001,6.2836685,-1
618,619,1583937582376,2.4155998,-1.1112,4.5962996,10.93316,-6.052245,5.3519793,-1
619,620,1583937582387,2.4155998,-1.1112,4.5962996,10.824866,-5.9679694,5.177892,-1
620,621,1583937582397,1.4962,-0.8939,4.7739997,9.713927,-5.868083,5.7459115999999995,-1
621,622,1583937582407,0.64809996,-0.69949996,5.4504,8.975354,-5.602777,6.312514,-1
622,623,1583937582417,0.4193,-0.2311,5.6868,8.840551,-5.115231,6.4070373,-1
623,624,1583937582427,0.5087,0.1525,5.045099700000001,8.981895,-4.829804,5.5691809999999995,-1
624,625,1583937582437,0.9651,0.1574,3.3132,9.522266,-4.8151703,3.7304152999999998,-1
625,626,1583937582447,1.7362,0.3206,1.6876,10.287961,-4.6785097,2.3469113999999998,-1
626,627,1583937582457,2.1299,0.2043,1.2109,10.479267,-4.855757,2.0637348,-1
627,628,1583937582467,1.564,-0.1282,1.6983999,9.8148575,-5.1748943,2.6514156000000004,-1
628,629,1583937582477,0.7078,-0.3417,2.1374,9.015769,-5.3144956,2.9104395,-1
629,630,1583937582487,0.23359999,-0.21429999,1.9312999,8.630111,-5.1014404,2.633756,-1
630,631,1583937582497,0.036199998,0.110999994,1.5264,8.453102000000001,-4.674621599999999,2.06294,-1
631,632,1583937582508,-0.0308,0.38079998,1.0725,8.434677,-4.503177,1.7773596,-1
632,633,1583937582518,-0.0077,0.38889998,1.0099,8.465763,-4.52689,1.773797,-1
633,634,1583937582528,-0.0524,0.36949998,0.9012,8.368203999999999,-4.537155599999999,1.585651,-1
634,635,1583937582538,-0.1556,0.34149998,0.6594,8.275702,-4.5715556,1.2544371,-1
635,636,1583937582548,-0.30719998,0.30519998,0.1459,8.134788499999999,-4.581975,0.71337634,-1
636,637,1583937582559,-0.4481,0.29029998,-0.19899999999999998,7.989115700000001,-4.6091447,0.5352765,-1
637,638,1583937582569,-0.62759995,0.18869999,-0.12979999,7.8419585000000005,-4.784075,0.69671273,-1
638,639,1583937582579,-0.5898,-0.038,0.0848,8.007427,-4.9437203,0.80822504,-1
639,640,1583937582589,-0.3053,-0.0568,0.059299998,8.330452000000001,-4.932668700000001,0.7351061,-1
640,641,1583937582599,-0.0788,-0.065,-0.0687,8.398696000000001,-5.0197983,0.6969234000000001,-1
641,642,1583937582609,-0.087699994,-0.2599,0.0756,8.407421000000001,-5.187316,0.8414278000000001,-1
642,643,1583937582620,-0.0765,-0.366,0.0909,8.429247,-5.259544,0.8031876,-1
643,644,1583937582630,0.0148,-0.3918,-0.096599996,8.481307000000001,-5.292287,0.4037869,d
644,645,1583937582640,0.0197,-0.43519998,-0.75439996,8.662911,-5.303176000000001,-0.21066102,-1
645,646,1583937582651,0.3881,-0.3407,-1.0099,9.128028,-5.121178,-0.11596555,-1
646,647,1583937582661,0.7345,-0.1792,-0.7805,9.20379,-5.0218096,0.21664654,-1
647,648,1583937582671,0.654,-0.11199999599999999,-0.44419998,8.867768,-5.045847,0.51883304,-1
648,649,1583937582681,0.1469,-0.1986,-0.12459999,8.299911999999999,-5.156823,0.7605708999999999,-1
649,650,1583937582692,-0.3423,-0.308,0.107499994,8.032452000000001,-5.176867,1.0752838,-1
650,651,1583937582702,-0.4472,-0.2877,0.4606,8.208060000000001,-5.1395373,1.4965389,-1
651,652,1583937582712,-0.1959,-0.273,0.88269997,8.7222395,-5.182919999999999,1.9285293999999997,-1
652,653,1583937582722,0.33269998,-0.32349998,1.3053,9.085612,-5.250503500000001,1.9829450000000002,-1
653,654,1583937582733,0.57839996,-0.4215,1.1816,8.821617999999999,-5.330278400000001,1.2334353,-1
654,655,1583937582742,0.2061,-0.4631,0.34669998,8.351723,-5.351089,0.5067376,-1
655,656,1583937582752,-0.1662,-0.516,-0.35819998,8.865164,-5.3890605,0.058801595,-1
656,657,1583937582762,0.60859996,-0.509,-0.7522,10.116528,-5.225613,0.12319604,-1
657,658,1583937582772,1.8037,-0.36389998,-0.5429999999999999,10.883628999999999,-5.1814933,0.85606116,-1
658,659,1583937582783,2.4527,-0.3251,0.3148,10.915951,-5.0064673,1.7475182,-1
659,660,1583937582793,2.2819,-0.13069999,1.1503,10.173825,-4.7312392999999995,2.295302,-1
660,661,1583937582803,1.5009999,0.11449999,1.6640999,9.736452,-4.441072,2.7938612000000003,-1
661,662,1583937582813,1.1538,0.3586,2.1564,9.613304,-4.318479,3.4706347,-1
662,663,1583937582823,1.0171,0.4105,2.8023999,9.487110000000001,-4.3902574,4.082861,-1
663,664,1583937582837,0.87229997,0.3066,3.2661,9.345555000000001,-4.5909586,3.9388160000000005,-1
664,665,1583937582848,1.3029,-0.13329999,2.5356,10.145669,-4.852166,3.4287746,-1
665,666,1583937582858,3.0551,-0.24769999,2.3469,12.484948,-5.022834,3.4471045,-1
666,667,1583937582868,4.9605,-0.5575,2.7337,14.049864999999999,-5.390899,3.7836528,-1
667,668,1583937582878,5.8064,-1.0869,2.9129999,14.439612,-6.006889299999999,3.7214515,-1
668,669,1583937582888,5.6995,-1.7840999,2.7975,14.278387,-6.5628804999999995,3.6254440000000003,-1
669,670,1583937582899,5.6545,-2.2323,2.9480999,14.361035000000001,-6.833013,3.7357303999999996,-1
670,671,1583937582909,5.8427997000000005,-2.5326,3.0497,14.643723000000001,-7.0732284,3.7298021,-1
671,672,1583937582919,6.0593,-2.6541,3.1087,14.7894535,-7.018028,3.9095685,-1
672,673,1583937582929,5.8329,-2.5976,3.4315,14.4776325,-6.768513700000001,4.507678,-1
673,674,1583937582940,5.5548,-2.3946,4.0397,14.183309,-6.395429599999999,5.0801992,-1
674,675,1583937582950,5.1085997,-2.1599,4.4417,13.793648000000001,-6.208529,5.233121400000001,-1
675,676,1583937582960,4.6222997,-2.1269999,4.3392,13.390895,-6.140102400000001,4.7670183,-1
676,677,1583937582970,4.3606997000000005,-2.1962,3.6357,13.291488000000001,-6.0717816,3.8485834999999997,-1
677,678,1583937582980,4.2451,-2.2783,2.6936,13.196093,-6.128639,3.2136412,-1
678,679,1583937582991,4.0388,-2.4442,2.3511999,12.913021,-6.138781,3.0828412,-1
679,680,1583937583001,3.6232,-2.5598,2.1962,12.515919,-5.981367,2.8392456000000004,-1
680,681,1583937583011,3.1945999,-2.4306997999999997,2.0218,12.235261999999999,-5.6294484,2.5695722,-1
681,682,1583937583021,2.9401999,-2.1738,1.7308999,12.07145,-5.2874317,2.0333092,-1
682,683,1583937583031,2.7644,-2.0602999,1.2802,12.094156,-5.090197,1.6384957999999998,-1
683,684,1583937583041,2.7275999,-2.0785,1.0289999,11.7931,-4.9794126,1.16906,-1
684,685,1583937583052,2.3107,-2.1306998999999998,0.7841,11.431547,-4.872458999999999,1.0892851000000001,-1
685,686,1583937583062,1.7394999,-2.1492,0.8646,10.64781,-4.5999989999999995,1.1877539,-1
686,687,1583937583072,1.0151,-2.0630999,1.083,10.102296,-4.383744999999999,1.3246639999999998,-1
687,688,1583937583082,0.4326,-2.0449,1.3391,9.562806,-4.316841,1.5293968999999998,-1
688,689,1583937583092,-0.0557,-2.1478999,1.6287999,9.544926,-4.0738970000000005,1.4603099,-1
689,690,1583937583102,-0.048299998,-1.9585999,1.5322,9.522103999999999,-3.4473730000000002,0.7223210999999999,-1
690,691,1583937583113,-0.1637,-1.4782,0.8323,9.179829,-3.0258784,-0.07382761,-1
691,692,1583937583123,-0.5302,-1.2487,0.14739999,8.934337,-2.802279,-0.7118057,-1
692,693,1583937583133,-0.7461,-1.1905,-0.3184,8.97592,-2.5746286,-0.94190764,-1
693,694,1583937583143,-0.71379995,-1.0784,-0.44849998,8.955789,-2.4162092,-1.2056242,-1
694,695,1583937583153,-0.7776,-1.1125,-0.657,8.639946,-2.4929959999999998,-1.5816096000000002,-1
695,696,1583937583163,-1.1833999,-1.3269,-0.99149996,8.239741,-2.4852102000000005,-1.8758092,-1
696,697,1583937583174,-1.6662999,-1.411,-1.2498,7.7796516,-2.1900432,-1.976653,-1
697,698,1583937583184,-2.059,-1.207,-1.1643,7.2185183,-1.6775693,-1.6802316000000002,-1
698,699,1583937583194,-2.6453,-0.8318,-0.7721,6.7567916,-1.0396007,-1.2909632,-1
699,700,1583937583204,-3.0618,-0.3213,-0.3356,6.4895988,-0.14618038,-1.0018585,-1
700,701,1583937583214,-3.2688,0.2728,-0.0316,6.2826247,0.26583302,-0.7897705,-1
701,702,1583937583224,-3.5491,0.5257,0.35349998,5.763944599999999,0.25486755,-0.6330748,-1
702,703,1583937583235,-3.9963,0.3802,0.4791,5.724546,-0.25829604,-0.9147287000000001,-1
703,704,1583937583245,-4.0175,-0.2216,0.282,6.069129,-0.7649379,-1.3728065,-1
704,705,1583937583255,-3.6653998,-0.8283,-0.11,6.49069,-0.8396465,-1.8583697,-1
705,706,1583937583266,-3.2359998,-0.9852,-0.5494,6.627341700000001,-0.5046210999999999,-2.1538525,-1
706,707,1583937583276,-3.0925,-0.7377,-0.8013,6.471489,0.1944379,-2.4456675,-1
707,708,1583937583286,-3.5735,0.21509999,-1.3562,6.080928,0.74158,-2.8006797000000003,-1
708,709,1583937583297,-3.8623998,0.55149996,-1.5439,5.7700934,1.125428,-2.9128528,-1
709,710,1583937583307,-4.2966,0.5103,-1.31,5.3416557000000005,1.0627286,-2.614746,-1
710,711,1583937583317,-4.6698,0.0637,-0.6813,4.9345930000000005,0.59345555,-1.9218736,-1
711,712,1583937583327,-4.9923997,-0.7256,0.3121,4.649223999999999,-0.11908759,-1.0071162,-1
712,713,1583937583338,-5.0302997000000005,-1.4399998999999999,0.61579996,4.7216434000000005,-0.84192586,-0.9592417,-1
713,714,1583937583348,-4.2854,-2.0479998999999998,0.14019999,5.587185400000001,-1.2728918,-1.5966069999999999,-1
714,715,1583937583358,-3.2298,-1.7326,-0.8111,6.700508599999999,-0.6024864999999999,-2.8774855,-1
715,716,1583937583368,-2.7665,-0.9553,-1.9135,6.873964,0.15131356,-3.844408,-1
716,717,1583937583379,-3.0116,-0.3435,-2.5937,6.526345,0.628545,-4.270461,-1
717,718,1583937583389,-3.6588,-0.0655,-2.6626,5.7808,0.85165584,-4.032506,-1
718,719,1583937583400,-4.1956997000000005,-0.1468,-1.9959999,5.284032,0.73026025,-2.8773227,-1
719,720,1583937583412,-4.3268,-0.3755,-0.8461,5.392661599999999,0.40428492,-1.6589807,-1
720,721,1583937583422,-4.0807,-0.75659996,0.3821,5.958095,0.04115154,-1.0094337,-1
721,722,1583937583432,-3.5474,-1.0490000000000002,0.57159996,6.440144,0.12660539,-1.6902968999999997,-1
722,723,1583937583443,-3.1125998,-0.90889996,-0.1783,6.607058,0.23836671,-2.8327525000000002,-1
723,724,1583937583453,-2.9736,-0.8609,-1.2100999,6.671289999999999,0.20176417,-3.4603492999999994,-1
724,725,1583937583463,-2.8953998,-0.909,-1.6746999,6.875975,0.15168704,-3.3610091,-1
725,726,1583937583473,-2.6234,-0.937,-1.3579,7.331141499999999,0.26025929999999997,-2.4134222999999997,-1
726,727,1583937583483,-2.1673,-0.8275,-0.327,7.568512400000001,0.41507798,-1.6627156000000003,-1
727,728,1583937583494,-1.9876,-0.66749996,0.3129,7.596974400000001,0.6042199,-1.5974591999999999,-1
728,729,1583937583504,-1.9563999,-0.4931,0.2516,7.658889,0.7034451999999999,-2.0679965,-1
729,730,1583937583514,-1.9067999,-0.4084,-0.29099998,7.6399837,0.59825355,-2.895835,-1
730,731,1583937583524,-1.9272,-0.5014,-0.9729,7.9748178,0.37857115,-3.324014,-1
731,732,1583937583535,-1.5947,-0.6969,-1.3972,8.878533000000001,0.3832255,-3.4684417,-1
732,733,1583937583545,-0.6829,-0.6645,-1.5332999,9.741499000000001,0.5010298,-3.201469,-1
733,734,1583937583555,0.1804,-0.5377,-1.2559999,9.961651,0.54364663,-2.6619787,-1
734,735,1583937583565,0.39799999999999996,-0.4919,-0.6943,9.221469,0.41528863,-2.0259638,-1
735,736,1583937583576,-1.2324,-0.7583,0.27089998,8.230452,0.30072132,-1.7017508000000001,-1
736,737,1583937583586,-1.2324,-0.7583,0.27089998,8.218835,0.47707823,-1.6289285,-1
737,738,1583937583596,-1.3375,-0.58959997,0.3584,8.651879,0.84976923,-1.8476629,-1
738,739,1583937583606,-0.3366,-0.011899999,-0.3541,9.340978,1.0453851,-2.4724824,-1
739,740,1583937583616,0.15349999,0.0556,-0.9043,9.767175,1.0650941,-3.032668,-1
740,741,1583937583627,0.34039998,-0.024999999,-1.2264999,9.91642,0.9580638000000001,-3.2537775,-1
741,742,1583937583637,0.4402,-0.1302,-1.1242,9.994000999999999,0.8355572,-3.1227667,-1
742,743,1583937583647,0.4624,-0.2705,-0.7852,10.014266000000001,0.7005338000000001,-2.7554293,-1
743,744,1583937583657,0.36769998,-0.3277,-0.2783,9.809244999999999,0.62262654,-2.1220480999999998,-1
744,745,1583937583668,0.106199995,-0.41709998,0.2263,9.561063,0.5333131999999999,-1.7788823,-1
745,746,1583937583678,-0.0583,-0.4651,0.35439998,9.496754,0.5266286,-1.7393299999999998,d
746,747,1583937583688,0.0007,-0.3603,0.28039998,9.564079,0.6421439999999999,-1.8862191000000001,-1
747,748,1583937583698,0.11699999999999999,-0.21849999,-0.1902,9.709608,0.8072769000000001,-2.5329409,-1
748,749,1583937583708,0.24129999,-0.0901,-0.7348,9.871715,0.90148395,-2.9775348,-1
749,750,1583937583718,0.4621,0.025999999,-1.0287,10.131591,0.9642504000000001,-3.1977916,-1
750,751,1583937583728,0.675,0.1025,-1.2304,10.232502,1.0181103999999999,-3.351164,-1
751,752,1583937583738,0.6731,0.118599996,-1.2909,10.218616,0.9354625,-3.3011637,-1
752,753,1583937583748,0.6349,-0.0703,-1.0085,10.1617775,0.74189603,-2.9914113999999996,-1
753,754,1583937583758,0.53069997,-0.3364,-0.4725,10.020806,0.46707043,-2.443053,-1
754,755,1583937583768,0.428,-0.43159997,-0.1283,9.946194,0.48072696,-2.2243857000000005,-1
755,756,1583937583778,0.2866,-0.3039,-0.27359998,9.785438000000001,0.68091094,-2.6866486000000003,-1
756,757,1583937583789,0.22309999,-0.0473,-0.9702,9.748088000000001,0.96723837,-3.3893660000000003,-1
757,758,1583937583799,0.23689999,0.2022,-1.5037999,9.771494,1.1357327,-3.8827055,-1
758,759,1583937583809,0.2304,0.1793,-1.9418,9.724853999999999,1.0107745000000001,-4.202274,-1
759,760,1583937583819,0.1946,-0.0885,-1.9282,9.794277000000001,0.57728034,-4.0402059999999995,-1
760,761,1583937583830,0.3552,-0.494,-1.7765,9.934510000000001,0.33154905,-4.009569600000001,-1
761,762,1583937583840,0.5256,-0.7919,-1.9684,10.114965,0.019632453,-4.4143047,-1
762,763,1583937583850,0.7346,-0.95339996,-2.5551999,10.397357000000001,-0.09177454,-5.171198,-1
763,764,1583937583860,0.9625,-1.0198,-3.1271,10.520869,-0.083117105,-5.5943394,-1
764,765,1583937583870,0.9837,-0.97419995,-3.4004998,10.347242,-0.09893799,-5.673808,-1
765,766,1583937583880,0.7097,-1.0737,-3.3969998,9.976858,-0.14112383,-5.550783999999999,-1
766,767,1583937583891,0.3074,-1.1302,-3.2233999,9.595127,-0.20121829,-5.3587213,-1
767,768,1583937583902,-0.0462,-1.2384,-3.0828,9.270177,-0.22089861,-5.3247623,-1
768,769,1583937583912,-0.25329998,-1.237,-3.1497,9.239675,-0.15285541,-5.473136,-1
769,770,1583937583922,-0.2259,-1.1637,-3.386,9.342635000000001,-0.058696248,-5.739466,-1
770,771,1583937583933,-0.1598,-1.1284,-3.6246998,9.281889,-0.07255389,-6.01005,-1
771,772,1583937583943,-0.24129999,-1.1833,-3.9359,9.134474,-0.123483345,-6.175671,-1
772,773,1583937583953,-0.43069997,-1.262,-4.0737,8.91343,-0.091544695,-6.22366,-1
773,774,1583937583963,-0.6289,-1.2481999,-4.151799700000001,8.85935,0.037751775,-6.224953,-1
774,775,1583937583973,-0.6788,-1.1699,-4.1689,8.690387,0.13119267,-6.0513835,-1
775,776,1583937583984,-0.8858,-1.1251,-3.9355,8.259144000000001,0.33621296,-5.407343,-1
776,777,1583937583994,-1.2702,-0.97489995,-3.4255998,7.831960700000001,0.43425074,-5.180009,-1
777,778,1583937584004,-1.8136,-0.92109996,-3.2108998,7.335671400000001,0.45288720000000005,-5.0747595,-1
778,779,1583937584014,-2.2711,-0.94909996,-3.2020998,7.126609299999999,0.44220904,-5.1026087,-1
779,780,1583937584024,-2.4266,-0.9977,-3.2877998,7.250638499999999,0.42163807,-5.063957,-1
780,781,1583937584034,-2.2403,-1.0388,-3.3193,7.5136175000000005,0.41735724,-4.957951,-1
781,782,1583937584045,-2.0546,-1.0564,-3.2956,7.373346300000001,0.39949650000000003,-4.7253594,-1
782,783,1583937584055,-2.2609,-1.0756999,-3.0602999,7.076685400000001,0.569753,-4.0375724,-1
783,784,1583937584065,-2.5152,-0.94159997,-2.5412998,6.6689143,0.7632619,-3.1294419999999996,-1
784,785,1583937584075,-2.9255,-0.7698,-1.7092999,6.0870852,0.7803278,-2.415625,-1
785,786,1583937584085,-3.5119998,-0.7729,-1.084,5.4623422999999995,0.72983885,-2.0480381999999997,-1
786,787,1583937584095,-4.1489,-0.8365,-0.7981,5.0400915,0.7340909000000001,-1.6194955,-1
787,788,1583937584106,-4.6081,-0.73069996,0.1392,5.1372290000000005,0.8907004999999999,-0.7735953000000001,-1
788,789,1583937584116,-4.0573997,-0.3906,0.4077,5.678644,1.1950992,-0.5146288,-1
789,790,1583937584126,-3.7919998,-0.1443,0.2499,5.9097614,1.2932903,-0.5274043,-1
790,791,1583937584137,-3.4364998,-0.1008,0.3204,6.338965,1.3182281999999999,-0.12622231,-1
791,792,1583937584147,-3.2838,-0.0817,1.431,6.3790917,1.2567165,1.2645981000000002,-1
792,793,1583937584158,-3.7057,-0.16319999,3.3606,5.8666945,1.1795944999999999,3.3885424,-1
793,794,1583937584168,-4.5464997,0.0105,5.2727,4.820553,1.4364157,5.5553527,-1
794,795,1583937584178,-5.3865,0.3621,6.5691,4.1264257,1.7887368000000001,6.732475999999999,-1
795,796,1583937584188,-5.796,0.7181,7.3711996,3.9352437999999994,2.0622409999999998,7.4959774,-1
796,797,1583937584199,-5.7072997,0.9611,7.8605,4.221447,2.1019175,7.872355499999999,-1
797,798,1583937584209,-4.8749,0.9478,7.9372997000000005,5.255426,1.9360186000000001,8.044825,-1
798,799,1583937584219,-4.8749,0.9478,7.9372997000000005,6.569316000000001,1.6068828000000002,8.325808,-1
799,800,1583937584229,-2.6002998,0.57129997,8.0067,7.4755883,1.2168003,8.122684,-1
800,801,1583937584239,-2.0195,0.1673,7.6190996,7.893778999999999,0.64220154,8.008461,-1
801,802,1583937584250,-1.7114999,-0.33609998,8.085,8.201903,0.011042058,8.946796,-1
802,803,1583937584260,-1.3831999,-0.67399997,9.5025,8.512068,-0.28209442,10.546726,-1
803,804,1583937584270,-1.2404,-0.71599996,10.947499,8.601782,-0.38170278,11.605491,-1
804,805,1583937584280,-1.1653,-0.69119996,11.157499000000001,8.766522,-0.3897569,11.206933,-1
805,806,1583937584290,-0.9421,-0.5826,10.4594,8.962176,-0.42163807,10.436823,-1
806,807,1583937584300,-0.6001,-0.602,9.4332,9.440969,-0.77171826,9.393439,-1
807,808,1583937584311,-0.2373,-0.9966,8.7703,9.80665,-1.4636521,8.911544000000001,-1
808,809,1583937584321,0.2834,-1.5274999,8.2796,10.561618,-1.9024421999999999,8.42938,-1
809,810,1583937584332,1.0798,-1.7393999,7.9343,11.518158999999999,-2.1400907000000005,8.409835000000001,-1
810,811,1583937584342,1.8374,-1.7852999,8.1395,11.83248,-2.1478,8.634363,-1
811,812,1583937584352,2.036,-1.6894,8.2206,11.55729,-2.1960766,8.2964735,-1
812,813,1583937584362,1.6557,-1.6659,7.9413,11.094778,-2.217366,7.9480023,-1
813,814,1583937584373,1.2069,-1.6288999,7.6145,10.588999000000001,-2.4075708,7.3243035999999995,-1
814,815,1583937584383,0.7294,-1.8163999,7.0077996,10.466799,-2.8197374,6.4382095,-1
815,816,1583937584393,0.7337,-2.1743,6.0603,11.020214,-3.3225486000000006,4.9839519999999995,-1
816,817,1583937584403,1.4065,-2.6022,4.614,12.002784,-3.9038703000000003,3.4824910000000004,-1
817,818,1583937584413,2.4633,-3.1046999,3.2591,13.024303,-4.1595516,2.6055617,-1
818,819,1583937584423,3.3737998,-3.1506998999999998,2.6160997999999998,13.213293,-4.071914700000001,2.4622736,-1
819,820,1583937584434,3.2742,-2.9628,2.6897,12.244858,-4.090618,2.786956,-1
820,821,1583937584444,2.2916,-2.9924,3.093,11.259653,-4.1551175,2.7483137,-1
821,822,1583937584454,1.5149,-2.9782999,3.0342,10.882748,-4.2049747,2.1260988999999997,-1
822,823,1583937584464,1.0916,-3.0102,2.2207,10.96619,-4.716481,0.37555447,-1
823,824,1583937584474,1.2476,-3.4276,0.7328,11.718468,-4.9441032,-0.9730131,-1
824,825,1583937584484,2.2284,-3.6042,-0.92829996,12.570008999999999,-5.000692400000001,-2.7621331000000002,-1
825,826,1583937584495,2.9745998,-3.5758,-2.7066,13.05335,-4.86362,-4.1320763,-1
826,827,1583937584505,3.3676,-3.3818,-3.6689,12.900935,-4.6177444,-4.3749150000000006,-1
827,828,1583937584515,3.0927,-3.0379,-3.8558998,11.859783,-4.319504,-4.0340195,-1
828,829,1583937584525,2.1791,-2.7800999,-3.4322998999999994,11.109977,-4.1379657,-4.2137375,-1
829,830,1583937584536,1.4411,-2.5830998,-3.514,10.9327,-4.077948,-5.6363435,-1
830,831,1583937584546,1.2721,-2.5140998,-4.8672,11.472717999999999,-4.0439887,-7.620686500000001,-1
831,832,1583937584556,1.8105999,-2.4661999,-6.7763995999999995,12.236315,-4.123572,-9.3407955,-1
832,833,1583937584566,2.9571,-2.5149,-9.2708,12.561141000000001,-4.169847,-10.3589735,-1
833,834,1583937584576,2.9571,-2.5149,-9.2708,12.204031,-4.1640434,-10.783800999999999,-1
834,835,1583937584586,2.0471,-2.5860000000000003,-10.116099,11.583665,-4.245523,-11.271958999999999,-1
835,836,1583937584597,1.6790999,-2.6387,-10.6265,11.219392,-4.31032,-11.90307,-1
836,837,1583937584607,1.5667,-2.7141,-11.091,11.234169,-4.3858137,-12.359903,-1
837,838,1583937584617,1.8172,-2.7619,-11.3785,11.461771,-4.3923354,-12.587572999999999,-1
838,839,1583937584627,1.9585999,-2.8423998,-11.2514,11.581367,-4.448743,-12.475313,-1
839,840,1583937584637,1.8618,-2.7628999,-11.0025,11.405603,-4.337834,-12.2239895,-1
840,841,1583937584648,1.4372,-2.6215,-10.5229,10.912934,-4.1550894,-11.710194,-1
841,842,1583937584658,0.715,-2.4565,-10.0814,10.014688,-3.9314706,-11.223692,-1
842,843,1583937584668,-0.0186,-2.3816,-9.7789,9.403580999999999,-3.9054315,-10.905215,-1
843,844,1583937584678,-0.41939998,-2.4710999,-9.3961,9.158156,-3.9577877999999997,-10.552128,-1
844,845,1583937584688,-0.60429996,-2.5472999,-9.1164,9.054822999999999,-3.9936528,-10.263282,-1
845,846,1583937584698,-0.5248,-2.5135,-8.7752,9.115406,-3.9283580000000002,-9.816256,-1
846,847,1583937584709,-0.6028,-2.4624999,-8.047,8.982517,-3.8358176,-8.720497,-1
847,848,1583937584718,-0.6028,-2.4624999,-8.047,8.732861,-3.7461882000000006,-7.710842599999999,-1
848,849,1583937584728,-1.2893,-2.4422,-5.6191,8.206855000000001,-3.812929,-6.175997,-1
849,850,1583937584738,-1.6712999,-2.4803,-4.6296,7.905549000000001,-3.7291129,-5.3454957,-1
850,851,1583937584749,-1.925,-2.4276,-4.2377,7.686316499999999,-3.6867068,-5.1324309999999995,-1
851,852,1583937584759,-2.1388,-2.4582999,-4.2015,7.496312599999999,-3.6786141000000003,-5.0669928,-1
852,853,1583937584769,-2.303,-2.4745998,-4.1488,7.3928065,-3.6456702000000005,-4.893892299999999,-1
853,854,1583937584779,-2.3293,-2.4961998,-3.7359998,7.361366,-3.7136462,-4.179922,-1
854,855,1583937584789,-2.4036999,-2.662,-2.7598,7.25265,-3.888375,-3.086739,-1
855,856,1583937584800,-2.6439998,-2.8258,-1.7114999,6.862644,-4.0095506,-1.7993767,-1
856,857,1583937584810,-3.0212998,-2.8792999,-0.7237,6.5914383,-3.8654290000000002,-0.8647761,-1
857,858,1583937584820,-3.2119999999999997,-2.6148,-0.036000000000000004,6.4940805,-3.658752,-0.58776695,-1
858,859,1583937584830,-3.412,-2.2547998,0.2586,6.198014,-3.2317894,0.023386562000000003,-1
859,860,1583937584840,-3.6406998999999995,-2.0741,0.76949996,5.906601,-3.1862707,0.6066045,-1
860,861,1583937584850,-3.9271998,-2.0827,1.2085,5.707145,-3.2482805,1.086163,-1
861,862,1583937584861,-4.0848,-2.1006,1.5794,5.556280999999999,-3.1906185000000002,1.399047,-1
862,863,1583937584871,-4.2411,-1.9646,1.8467,5.3595357,-3.071799,1.9064933000000002,-1
863,864,1583937584881,-4.4842997,-1.8202,2.4754,5.0984335,-2.9148064,2.919844,-1
864,865,1583937584891,-4.7365,-1.6037999,3.6513998999999995,4.853257,-2.622982,4.326475599999999,-1
865,866,1583937584901,-4.9484997,-1.1858,5.0751,4.699587999999999,-2.1641762000000004,5.667296,-1
866,867,1583937584912,-5.1394997,-0.6416,6.1024,4.2871723,-1.5863118999999999,5.9400907,-1
867,868,1583937584922,-5.5049,-0.1239,5.924299700000001,4.095454,-1.1547331,5.4357185,-1
868,869,1583937584932,-5.5929,0.3407,5.3582997,4.175574,-1.0276777,5.213594400000001,-1
869,870,1583937584942,-5.4618,0.4682,5.1812997,4.516508,-1.2136495,5.535768,-1
870,871,1583937584952,-5.0631,0.3516,5.6215,5.037554,-1.4920186000000002,6.2472672,-1
871,872,1583937584962,-4.3487,0.1232,6.5962996,5.6959877,-1.8085513,7.425281,-1
872,873,1583937584973,-3.9171998999999995,0.0143,7.4291,6.0252004,-1.9222567,7.8956656,-1
873,874,1583937584983,-3.5140998,0.0317,7.9259996,6.319054599999999,-1.7433523000000002,8.281409,-1
874,875,1583937584993,-3.247,0.37289998,8.3014,6.208912000000001,-1.4720701,8.6599045,-1
875,876,1583937585004,-3.478,0.7072,8.6578,5.180286,-1.6402866999999999,9.095457000000001,-1
876,877,1583937585014,-4.3729,0.636,8.9625,4.651637,-2.2760717999999995,9.169592,-1
877,878,1583937585024,-4.8602,-0.0376,9.022699000000001,5.4157705,-2.8987653,9.330482,-1
878,879,1583937585034,-3.7515,-0.3969,9.2005,7.072108,-3.2224135,9.512087,-1
879,880,1583937585044,-2.0582,-0.5669,9.273,8.332089,-3.3805456,9.206788000000001,-1
880,881,1583937585055,-0.90239996,-0.50519997,8.908999,8.62223,-3.3536637000000002,8.8416815,-1
881,882,1583937585065,-0.71849996,-0.3284,8.6124,8.26828,-3.2722225,8.872146,-1
882,883,1583937585075,-1.0261999,-0.1143,8.6256,7.8761573,-3.3988662000000005,9.194989,-1
883,884,1583937585086,-1.3715,-0.098,8.9325,7.6487756,-4.102436,8.880295,-1
884,885,1583937585096,-1.5453999,-0.6638,8.6005,8.0275955,-5.0068507,8.100322,-1
885,886,1583937585107,-0.5701,-1.9051,6.9346,8.601189,-5.7525580000000005,7.145792,-1
886,887,1583937585117,-0.5701,-1.9051,6.9346,9.168002,-5.9084205999999995,6.845903999999999,-1
887,888,1583937585127,0.9729,-1.7407999,6.2974,10.021267,-5.751093,6.5910649999999995,-1
888,889,1583937585137,1.2413,-1.4394,5.9639997000000005,10.049796,-5.595958,6.225901599999999,-1
889,890,1583937585148,1.0856999,-1.2957,5.7485,9.788474,-5.6631203,6.0164566,-1
890,891,1583937585158,0.9402,-1.4511,5.394,9.712174000000001,-6.0748367,5.650067,-1
891,892,1583937585168,1.1115999,-1.9095,4.8845997,9.8225,-6.5972614,5.2127614,-1
892,893,1583937585178,1.3447,-2.465,4.2559,10.001088000000001,-7.264784,4.6258945,-1
893,894,1583937585188,1.4121,-2.9445999,3.6680998999999996,9.943425999999999,-7.8230830000000005,4.079212,-1
894,895,1583937585198,1.321,-3.215,3.0813,9.736183,-8.173153,3.409123,-1
895,896,1583937585208,1.2566998999999999,-3.1601,2.563,9.741796,-8.078171000000001,2.966981,-1
896,897,1583937585219,1.2566998999999999,-3.1601,2.563,10.18253,-7.878063,2.4276536,-1
897,898,1583937585229,2.1125998,-2.5786998,1.4317,10.530092,-7.705000999999999,1.9210116999999998,-1
898,899,1583937585239,2.2762,-2.4363,1.0615,10.370303,-7.793136,1.6925857,-1
899,900,1583937585249,1.7896999,-2.7126,0.93369997,9.771321,-8.233774,1.7833259,-1
900,901,1583937585259,1.4113,-3.0016,1.2189,9.416568,-8.490452000000001,2.1216457,-1
901,902,1583937585269,1.0947,-3.0353,1.2645998999999999,9.015386,-8.59233,1.9803686999999999,-1
902,903,1583937585279,0.8308,-3.3432998999999994,0.58739996,8.932182000000001,-9.131542999999999,1.0821792,-1
903,904,1583937585289,1.3449999,-3.6999,-0.78499997,9.712213,-9.376777,-0.37564066,-1
904,905,1583937585299,2.4968,-3.6553,-2.4127,10.8520355,-9.393057,-1.8733193,-1
905,906,1583937585309,3.5244,-3.6076,-3.5644998999999995,11.576483,-9.316078,-2.6096416000000002,-1
906,907,1583937585320,3.8235997999999998,-3.2786998999999994,-3.7477,11.304712,-8.955128,-2.2737446,-1
907,908,1583937585330,3.1197,-2.9649,-3.1439,10.394206,-8.772910000000001,-1.6439164000000002,-1
908,909,1583937585340,1.9282,-2.7503998,-2.3796,9.168700999999999,-8.607327,-0.8526997,-1
909,910,1583937585350,1.2887,-2.6257,-2.0021,8.832632,-8.40836,-0.7121026,-1
910,911,1583937585360,1.0501,-2.3211,-2.1276,8.627918,-8.194653500000001,-1.1566386999999998,-1
911,912,1583937585371,1.0063,-2.2289999,-2.8874998,8.897409,-8.379964999999999,-2.131577,-1
912,913,1583937585381,1.6431999,-2.3509,-4.1819,9.837535,-8.277999999999999,-3.284615,-1
913,914,1583937585391,2.6296,-2.1302,-5.1678,10.50297,-8.272024,-3.6991758000000003,-1
914,915,1583937585401,3.0928,-2.2398999,-5.3385997000000005,10.483759,-8.359392999999999,-3.4861013999999995,-1
915,916,1583937585411,2.7363,-2.1452,-4.9399,9.733177,-8.016611,-2.9525201,-1
916,917,1583937585421,1.8587999,-1.7567999,-4.4216,8.83516,-7.7182746,-2.41076,-1
917,918,1583937585431,1.0273,-1.5593,-3.8672,8.19111,-7.6450404999999995,-1.8662131000000002,-1
918,919,1583937585442,0.5841,-1.5064,-3.3779,7.926875999999999,-7.490653,-1.4511448,-1
919,920,1583937585452,0.4351,-1.3304,-3.1766,7.8416524,-7.565150699999999,-1.4734396,-1
920,921,1583937585463,0.41279998,-1.4822999,-3.3258,8.214324000000001,-7.9946036,-1.9005938999999998,-1
921,922,1583937585473,0.965,-1.9131999,-3.8794,9.160627999999999,-8.201607000000001,-2.348482,-1
922,923,1583937585483,1.9767,-2.0174,-4.3168,9.873727,-8.29518,-2.4374504,-1
923,924,1583937585493,2.5469,-2.1059,-4.3057,9.665335,-8.404826,-2.0052206999999997,-1
924,925,1583937585503,2.2007,-2.185,-3.7921998999999995,9.091253,-8.325636,-1.3237637,-1
925,926,1583937585513,1.6285,-2.0672998,-3.1125,8.523291,-8.077146,-0.81254417,-1
926,927,1583937585523,1.0633,-1.7974,-2.6134,8.119351,-7.83287,-0.44208455,-1
927,928,1583937585533,0.69619995,-1.5870999,-2.2912,7.920947999999999,-7.656322,-0.13156618,-1
928,929,1583937585543,0.5402,-1.4139,-1.9619,7.8280344,-7.513876400000001,0.17018944,-1
929,930,1583937585553,0.45799997,-1.2767998999999999,-1.7699,7.8512864,-7.3253284,0.24356693,-1
930,931,1583937585564,0.5269,-1.0787,-1.7229999,7.9270773000000005,-7.168278,0.29047412,-1
931,932,1583937585574,0.5872,-0.9485,-1.7459999,7.934921000000001,-7.166104300000001,0.24330835,-1
932,933,1583937585584,0.6053,-0.95729995,-1.8022,7.9873533,-7.118364,0.40450516,-1
933,934,1583937585594,0.667,-0.90919995,-1.6488,7.8810225,-6.927641400000001,0.7504673000000001,-1
934,935,1583937585605,0.5464,-0.7263,-1.3052,7.548755,-6.8079796,1.2509223999999999,-1
935,936,1583937585615,0.2154,-0.6048,-0.807,7.089930000000001,-6.8024535,1.7799261999999998,-1
936,937,1583937585625,-0.25329998,-0.6123,-0.2715,6.778971,-6.681833999999999,1.7687691000000003,-1
937,938,1583937585635,-0.5715,-0.49109998,-0.2848,6.872546000000001,-6.571222,1.5069488000000002,-1
938,939,1583937585645,-0.4703,-0.385,-0.5563,7.155407,-6.556023599999999,1.0739336000000002,-1
939,940,1583937585655,0.29549998,-0.5911,-1.4045,7.729144,-6.8315196,0.64254624,-1
940,941,1583937585666,0.29549998,-0.5911,-1.4045,8.21689,-6.8253713000000005,0.49007395,d
941,942,1583937585676,1.0257,-0.57409996,-1.6049,8.280892,-6.784066,0.5291186,-1
942,943,1583937585686,0.56049997,-0.6196,-1.2401999,7.805519,-6.817499000000001,0.95672303,-1
943,944,1583937585696,0.56049997,-0.6196,-1.2401999,7.455707,-6.870794,1.4762553,-1
944,945,1583937585706,-0.1822,-0.7782,-0.0936,7.150341,-6.963421,1.9282805,-1
945,946,1583937585716,-0.1822,-0.7782,-0.0936,7.2079070000000005,-7.05238,1.7480737000000002,-1
946,947,1583937585727,0.1771,-0.98889995,-0.4034,7.665515400000001,-7.169447,1.5525824,-1
947,948,1583937585737,0.713,-1.0986999,-0.7170000000000001,8.265559,-7.2658467,1.1450031,-1
948,949,1583937585748,1.3004999,-1.1692,-1.4117998999999999,8.812721,-7.346857000000001,0.44131842,-1
949,950,1583937585758,1.7961999,-1.242,-2.0709999,9.352345,-7.449587299999999,-0.15201265,-1
950,951,1583937585768,2.2058,-1.4362,-2.4387,9.697618499999999,-7.6931734,-0.3803333,-1
951,952,1583937585779,2.5079,-1.6741999,-2.3947,9.931503,-7.856985000000001,-0.2497248,-1
952,953,1583937585789,2.6562,-1.9167,-2.2028,10.098484,-8.145964999999999,-0.10393708,-1
953,954,1583937585799,2.8323998,-2.1726,-2.0846999,10.357288,-8.345622,0.043823466,-1
954,955,1583937585809,3.0988998,-2.3232,-1.9115,10.592169,-8.472094,0.23170127,-1
955,956,1583937585819,3.2615,-2.6231,-1.9451,10.875507,-8.770497,0.06819644,-1
956,957,1583937585829,3.7626998,-2.8364,-2.2166,11.370111,-8.85393,-0.13708241,-1
957,958,1583937585840,4.3953,-2.9136999,-2.7289,12.059728999999999,-8.935074,-0.76231384,-1
958,959,1583937585850,4.8891,-3.0340998,-3.3328,12.586701,-9.041032000000001,-1.2094836000000002,-1
959,960,1583937585860,5.5631,-3.1482,-3.4431,13.5148,-9.098445,-0.67620873,-1
960,961,1583937585871,6.2268996,-3.286,-2.6173,13.824092000000002,-9.377494,0.347504,-1
961,962,1583937585881,6.2584,-3.7371,-1.6302999,13.725354999999999,-9.830381,1.2813767,-1
962,963,1583937585891,6.1095,-4.1513,-0.7547,13.6903715,-9.962781,2.1651627999999996,-1
963,964,1583937585902,6.0304,-4.2141,0.0162,13.599066,-9.723972999999999,2.7595568,-1
964,965,1583937585912,5.7897997000000005,-3.9733998999999995,0.57519996,13.432765,-9.450996,3.0396113,-1
965,966,1583937585922,5.5871,-3.6632,0.93579996,13.421138000000001,-8.737036,3.5268599999999997,-1
966,967,1583937585933,5.6186,-3.1822999,1.2241,13.739213000000001,-8.160214999999999,3.5133184999999996,-1
967,968,1583937585943,5.8731,-2.7340999,1.1462,13.962160999999998,-7.813122999999999,3.4977946,-1
968,969,1583937585953,5.9839997,-2.5641,1.1965,13.889854999999999,-7.915978,3.4310440000000004,-1
969,970,1583937585963,5.7711,-2.8604,1.1602,13.565585,-8.198437,3.5774927000000005,-1
970,971,1583937585973,5.321000000000001,-3.2336,1.4822999,13.202212,-8.297844,4.1010857000000005,-1
971,972,1583937585983,4.841,-3.4219999999999997,2.2161999,12.72612,-8.254422,5.125430000000001,-1
972,973,1583937585993,4.216,-3.4979,3.4492,12.026094,-7.794611,6.3464637,-1
973,974,1583937586003,3.3111,-3.1021,4.7479997,10.849775,-7.2121973,6.841652000000001,-1
974,975,1583937586014,1.9837999,-2.7433999,5.2174997,9.847045,-6.796775,6.747684,-1
975,976,1583937586024,0.9852,-2.5509999,5.0966997,9.578866,-6.4891005,5.801754,-1
976,977,1583937586034,0.7514,-2.4357998,4.1695,9.849153,-5.966867400000001,4.8009777,-1
977,978,1583937586044,0.8907,-2.1592999,3.4963,9.693318,-5.595096,4.4400663,-1
978,979,1583937586055,0.556,-1.9022,3.2006,9.221525999999999,-5.2623690000000005,4.6382294,-1
979,980,1583937586065,0.08779999599999999,-1.8261,3.5249,9.036685,-4.8829074,4.9049244000000005,-1
980,981,1583937586075,-0.18069999,-1.6366999,3.9041,8.991827,-4.50335,4.785080000000001,-1
981,982,1583937586085,-0.8638,-1.1528,3.4845,8.357776,-3.9111773999999997,4.0700373999999995,-1
982,983,1583937586096,-1.6504999,-1.0073999,2.3184,7.6654677,-3.58774,2.7825124,-1
983,984,1583937586106,-1.6504999,-1.0073999,2.3184,7.340766,-3.4956492999999993,1.7776468999999997,-1
984,985,1583937586116,-2.2047,-1.0857999,0.81369996,7.31986,-3.1970348,1.2116193000000002,-1
985,986,1583937586126,-2.2047,-1.0857999,0.81369996,7.277750500000001,-2.8604867,0.7723312,-1
986,987,1583937586136,-2.1645,-0.5467,0.1461,7.567267,-2.1544464,0.5266956,-1
987,988,1583937586146,-1.9093,-0.086899996,0.5273,7.8182279999999995,-1.472185,0.91156834,-1
988,989,1583937586156,-2.0990999,0.19839999,1.4518,7.500919000000001,-1.0512556,1.8766422999999999,-1
989,990,1583937586167,-3.1167998,0.17999999,2.7268,6.3532443,-0.90569776,3.0815577999999997,-1
990,991,1583937586177,-3.1167998,0.17999999,2.7268,4.9024057,-1.1394771000000001,3.885617,-1
991,992,1583937586187,-5.4481,-0.747,3.4738,4.333687,-1.4879198,3.3397962999999997,-1
992,993,1583937586197,-4.9479,-0.8962,2.5518,5.3436,-1.2860406999999998,2.2709866,-1
993,994,1583937586208,-3.7182998999999994,-0.64669997,1.6917,6.287403,-0.99458015,1.63071,-1
994,995,1583937586218,-3.7182998999999994,-0.64669997,1.6917,6.6223526,-0.91136724,1.063265,-1
995,996,1583937586228,-3.4197998,-0.7801,1.0139999,6.3285165,-0.93934107,1.2849107,-1
996,997,1583937586238,-3.6362997999999997,-0.7837,1.5157,6.152064,-0.73724174,1.8834802,-1
997,998,1583937586249,-3.7438998,-0.7057,1.7651999,6.0545053,-0.54802316,1.8877418000000001,-1
998,999,1583937586259,-3.6641,-0.6525,1.4878,6.212829,-0.42944318,1.600974,-1
999,1000,1583937586269,-3.3869998,-0.5554,1.0485,6.475664599999999,-0.1571171,1.0252068,-1
1000,1001,1583937586280,-3.3832998,-0.51559997,0.9425,6.292086599999999,-0.09465716,1.2295853,-1
1001,1002,1583937586289,-3.8785,-0.6629999999999999,1.4327999,5.6796594,-0.1563701,1.7714986000000001,-1
1002,1003,1583937586299,-4.3236,-0.7384,1.8680999,5.463060400000001,-0.024890121,1.8913331000000002,-1
1003,1004,1583937586310,-4.3236,-0.7384,1.8680999,5.915756,0.5388965,1.1043878,-1
1004,1005,1583937586320,-3.7110999,-0.062099997000000004,0.83959997,6.1710644,0.95600474,0.62030894,-1
1005,1006,1583937586330,-3.6378998999999994,0.080699995,0.4373,6.133945,0.9298791999999999,0.28218059999999995,-1
1006,1007,1583937586340,-3.5149,-0.1231,0.083,6.4822245,0.6192459,-0.013915100000000001,-1
1007,1008,1583937586350,-3.0788,-0.5524,0.0251,6.966207499999999,0.1943613,0.008599971999999999,-1
1008,1009,1583937586360,-2.7113,-0.9209,0.0251,6.903173,0.12743858,-0.03325067,-1
1009,1010,1583937586371,-3.1078,-0.94299996,-0.032199997,6.244614,0.13832739,-0.13903609,-1
1010,1011,1583937586381,-3.6896,-0.99109995,-0.18969999,6.057225,0.31622615,-0.18818425,-1
1011,1012,1583937586392,-3.5944,-0.7256,-0.2078,6.2619867,0.7583489999999999,-0.37692395,-1
1012,1013,1583937586402,-3.4799,-0.32729998,-0.5204,6.2348365999999995,1.1944768,-0.6453331,-1
1013,1014,1583937586412,-3.4931,-0.0622,-0.6656,6.2984743,1.4068041999999998,-0.6147544,-1
1014,1015,1583937586422,-3.3792998999999995,0.1884,-0.5711,6.500775,1.6942521000000001,-0.42110178,-1
1015,1016,1583937586432,-3.1780999,0.31849998,-0.40109998,6.759109,1.6265056999999998,-0.35685098,-1
1016,1017,1583937586442,-2.8599,0.16049999,-0.3574,7.253081,1.2938075,-0.3144832,-1
1017,1018,1583937586453,-2.3362,-0.19929999,-0.2465,7.792437,1.1089272,-0.25112304,-1
1018,1019,1583937586463,-1.8713,-0.363,-0.2417,7.879969,1.1125376,-0.4719642,-1
1019,1020,1583937586473,-1.9154999,-0.3646,-0.5458,7.523693,1.1199309,-0.68392766,-1
1020,1021,1583937586483,-2.1942,-0.4102,-0.5563,7.4319277,1.236222,-0.43446140000000005,-1
1021,1022,1583937586493,-2.2473,-0.2699,-0.30159998,7.562373599999999,1.6620834999999998,-0.29512843,-1
1022,1023,1583937586503,-2.0951,0.1496,-0.2409,7.6585436,2.0286071,-0.44356897,-1
1023,1024,1583937586513,-1.9928999,0.44799998,-0.4087,7.740416000000001,2.204734,-0.6201557,-1
1024,1025,1583937586523,-1.9311999,0.5579,-0.6132,7.680186999999999,2.052166,-0.8014926,-1
1025,1026,1583937586533,-2.0079,0.3222,-0.7736,7.784153,1.569428,-0.83888036,-1
1026,1027,1583937586544,-1.8503,-0.24069999,-0.7686,8.255495,0.9274466999999998,-0.77746433,-1
1027,1028,1583937586553,-1.2324,-0.8093,-0.68509996,9.342376,0.7898088000000001,-0.72326916,-1
1028,1029,1583937586563,-0.124,-0.8397,-0.64599997,9.975997,1.1301111000000001,-0.7851066,-1
1029,1030,1583937586574,0.3094,-0.42859998,-0.6904,9.5822935,1.7253958999999999,-0.7210951999999999,-1
1030,1031,1583937586584,-0.2647,0.12459999,-0.5681,8.37213,2.1208892,-0.32532412,-1
1031,1032,1583937586594,-1.2883999,0.3845,-0.2197,7.861677,2.262597,0.121242374,-1
1032,1033,1583937586605,-1.8712,0.5298,0.28219998,7.555764999999999,2.1632955000000003,0.47760493,-1
1033,1034,1583937586616,-1.8177999,-0.07279999599999999,0.4244,7.984988,1.6317443,0.25533682,-1
1034,1035,1583937586626,-0.9073,-0.3288,-0.1847,8.958853999999999,1.4372776000000003,-0.43482536,-1
1035,1036,1583937586636,-0.9073,-0.3288,-0.1847,9.644179,1.3766755,-0.8225710999999999,-1
1036,1037,1583937586646,0.4711,-0.3926,-0.82989997,10.173385000000001,1.375306,-0.95450115,-1
1037,1038,1583937586656,0.4711,-0.3926,-0.82989997,10.181199000000001,1.4916353999999998,-0.8236341,d
1038,1039,1583937586666,0.3748,-0.0691,-0.4649,9.991472,1.7525651000000002,-0.5224052,-1
1039,1040,1583937586677,0.083799995,0.0997,0.059899997,9.640684,1.8975868000000002,0.089342035,-1
1040,1041,1583937586687,-0.40269998,-0.0088,0.6861,9.132836,1.7641818999999999,0.68063325,-1
1041,1042,1583937586697,-0.88,-0.0945,0.6907,8.743346,1.7199754,0.46007937,-1
1042,1043,1583937586707,-0.88,-0.0945,0.6907,8.971352,1.8275419999999998,-0.013053186999999999,-1
1043,1044,1583937586718,-0.23179999,0.1371,-0.2911,9.589678,2.0203328000000003,-0.5549759,-1
1044,1045,1583937586727,0.2669,0.2818,-0.57159996,10.035756,2.1328123,-0.7421833000000001,-1
1045,1046,1583937586738,0.6278,0.38979998,-0.5848,10.273539,2.1860592,-0.69600403,-1
1046,1047,1583937586748,0.4992,0.3168,-0.3509,10.025298,2.0829842,-0.35631466,-1
1047,1048,1583937586758,0.16569999,0.24749999,-0.0037999998,9.690339999999999,2.013945,0.09484869,-1
1048,1049,1583937586768,-0.1768,0.1449,0.48799998,9.2993,1.8924441000000003,0.58101535,-1
1049,1050,1583937586778,-0.63659996,0.0499,0.8233,8.876934,1.8723613999999997,0.8691909999999999,-1
1050,1051,1583937586789,-0.8903,0.092,1.0347998999999999,8.741738,1.9202263,1.0197,-1
1051,1052,1583937586799,-0.9582,0.2148,1.0253,8.642905,2.097991,0.94455093,-1
1052,1053,1583937586809,-1.0659,0.3511,0.95699996,8.576261,2.2212062,0.97479445,-1
1053,1054,1583937586819,-1.0565,0.49069998,1.0545,8.6121645,2.3812826,1.0683982,-1
1054,1055,1583937586829,-1.0674,0.6042,1.0643,8.527495,2.3882928,1.0149308000000001,-1
1055,1056,1583937586839,-1.2258999,0.524,0.9302,8.373902000000001,2.3128083,0.93337476,-1
1056,1057,1583937586849,-1.3059,0.4739,0.9777,8.342309,2.1885877000000002,1.079536,-1
1057,1058,1583937586860,-1.3469,0.33589998,1.176,8.253167999999999,2.0900613999999997,1.2792411,-1
1058,1059,1583937586870,-1.5834,0.20529999,1.5155,7.935256,1.9590316000000003,1.6879026000000001,-1
1059,1060,1583937586880,-1.8880000000000001,0.1299,2.0249,7.508705,1.8856636999999998,2.2763302000000003,-1
1060,1061,1583937586890,-2.3099,0.1118,2.4462,7.139183999999999,1.9115976000000003,2.6107717,-1
1061,1062,1583937586900,-2.5851,0.1938,2.7684999,7.0283226999999995,2.092676,2.8841512000000002,-1
1062,1063,1583937586910,-2.6162,0.4482,2.9013,6.9195495,2.4130776000000003,2.8130336,-1
1063,1064,1583937586921,-2.9229998999999998,0.76769996,2.8743,6.5510626,2.6127539,2.857997,-1
1064,1065,1583937586931,-3.3779,1.0436,3.0512,6.039335299999999,2.8535054,3.2442584,-1
1065,1066,1583937586941,-3.7946,1.1496998999999999,3.4343,5.6289883000000005,2.7841501,3.6237009,-1
1066,1067,1583937586951,-4.1733,1.0566,3.8084998,5.438286,2.6388605,3.9384042999999997,-1
1067,1068,1583937586961,-4.2095,0.9596,4.0372,5.681709,2.5231630000000003,3.9257150000000003,-1
1068,1069,1583937586971,-3.7856998,0.88879997,3.8576,6.222405999999999,2.445859,3.7303290000000002,-1
1069,1070,1583937586981,-3.2937999,0.9119,3.7817998,6.4979305,2.3734393,3.7678222999999997,-1
1070,1071,1583937586991,-3.2429,0.8567,3.9306997999999997,6.287662,2.2752673999999997,4.048968299999999,-1
1071,1072,1583937587002,-3.5932998999999994,0.80939996,4.4136,5.732083,2.1521769,4.6455555,-1
1072,1073,1583937587012,-4.2374997,0.7043,5.0562,5.1182574999999995,2.0001545,5.0706415,-1
1073,1074,1583937587022,-4.6759,0.6253,5.2472,5.153213,1.8506221999999999,4.6254153,-1
1074,1075,1583937587032,-4.4976,0.54969996,4.7404,5.713236,1.5384948,3.6503913,-1
1075,1076,1583937587043,-3.8695998,0.3243,3.7461998,6.699627400000001,1.2273157,2.7662032,-1
1076,1077,1583937587053,-2.86,0.1046,2.9919999,7.395967,0.89381295,2.3298936,-1
1077,1078,1583937587063,-2.1048,-0.2633,2.5521998,8.014628,0.40631518,2.2025986,-1
1078,1079,1583937587074,-1.7303,-0.4554,2.7371,7.565514599999999,0.060812727000000004,2.9740582000000004,-1
1079,1080,1583937587084,-2.2161,-0.66389996,3.4747,6.810805,-0.63218415,3.4257866999999997,-1
1080,1081,1583937587094,-2.9641,-1.2407,3.9982,6.7591475999999995,-1.1974266000000002,3.1736388,-1
1081,1082,1583937587104,-3.0240998,-1.7064999,3.8274,7.622113000000001,-1.5145146,2.03556,-1
1082,1083,1583937587114,-2.1620998,-1.9036,2.7526999,8.97977,-1.6823384999999997,0.59276605,-1
1083,1084,1583937587124,-0.79969996,-1.9259,1.3503,10.0375185,-1.7475374,-0.33173102,-1
1084,1085,1583937587134,0.4261,-1.8497,0.3452,10.36313,-1.7455359000000001,-1.0534678999999998,-1
1085,1086,1583937587144,0.5847,-1.7076,-0.21519999,9.748567,-2.0637827,-1.2502233999999999,-1
1086,1087,1583937587154,-0.0288,-1.8889999,-0.3674,9.522755,-2.6168242000000004,-1.4676839,-1
1087,1088,1583937587165,-0.2473,-2.323,-0.5473,9.665047999999999,-3.3915496,-2.0054407,-1
1088,1089,1583937587175,-0.0906,-2.9749,-1.0322,10.801603,-4.10008,-3.3429952000000003,-1
1089,1090,1583937587185,1.0483999,-3.5575,-2.3135998,12.358524000000001,-4.0309067,-4.368815000000001,-1
1090,1091,1583937587195,2.6209,-3.3662,-3.2893999,13.088593,-3.7615209000000003,-4.9245377,-1
1091,1092,1583937587205,3.3606,-2.9789,-3.7874,12.761315,-3.4866949999999997,-4.856427,-1
1092,1093,1583937587216,2.8639,-2.5506,-3.6057,11.085288,-3.296701,-4.669277,-1
1093,1094,1583937587226,1.0248,-2.4661,-4.0492,10.742457,-3.5741887,-5.569458999999999,-1
1094,1095,1583937587236,1.0248,-2.4661,-4.0492,11.180989,-4.0392193999999995,-6.969990299999999,-1
1095,1096,1583937587246,2.4355,-3.3393,-7.2936997,12.413064,-4.7100267,-8.977308,-1
1096,1097,1583937587256,3.4032998,-3.6262999,-8.3635,13.250507,-5.0965370000000005,-9.797417999999999,-1
1097,1098,1583937587266,3.9975,-3.7944998999999995,-8.499599,13.70328,-5.2327385,-9.732678,-1
1098,1099,1583937587277,4.0979,-3.3636,-8.2564,13.601239000000001,-4.8400126,-9.488776,-1
1099,1100,1583937587287,3.1934998,-3.0526,-8.1730995,12.586587,-4.6545672,-9.421538,-1
1100,1101,1583937587297,2.3256,-2.984,-8.2484,11.840975,-4.669277,-9.486929,-1
1101,1102,1583937587307,2.1735,-3.1166,-8.4281,11.763651,-4.88692,-9.709226,-1
1102,1103,1583937587318,2.1735,-3.1166,-8.4281,11.664867,-5.309899,-10.238766,-1
1103,1104,1583937587328,1.9995999,-3.8853,-9.4671,11.470975,-5.8700275,-10.734662,-1
1104,1105,1583937587338,1.8173,-4.1586,-9.4821,11.410373,-5.9895744,-10.534344,-1
1105,1106,1583937587348,1.9770999,-3.8423,-8.696,11.574797,-5.438496,-9.394962,-1
1106,1107,1583937587358,1.7609999,-3.2003,-7.7893996,11.182243,-5.007731400000001,-8.713141,-1
1107,1108,1583937587369,0.8364,-2.8882,-7.3865,10.221191000000001,-4.739580999999999,-8.384619,-1
1108,1109,1583937587379,0.1173,-2.6441998,-7.4244,9.608458,-4.5640472999999995,-8.412189999999999,-1
1109,1110,1583937587389,-0.0411,-2.6875,-7.5641,9.527611,-4.7298894,-8.410103,-1
1110,1111,1583937587399,-0.0016,-2.9129999,-7.4442,9.610975999999999,-4.9950614,-8.129866999999999,-1
1111,1112,1583937587409,0.0779,-3.2189,-7.0983996,9.658009,-5.398925,-7.653448599999999,-1
1112,1113,1583937587419,0.059000000000000004,-3.5807998,-6.7135,9.623973,-5.647855,-7.264975,-1
1113,1114,1583937587430,-0.010199999,-3.5605,-6.2644997,9.536133999999999,-5.466719,-6.6305118,-1
1114,1115,1583937587440,-0.2483,-3.1776998,-5.531399700000001,8.909821,-4.9367957,-5.5902696,-1
1115,1116,1583937587450,-0.9783,-2.7129998,-4.5811,8.288114,-4.5875205999999995,-4.7072883,-1
1116,1117,1583937587460,-1.7671,-2.4421,-3.6523,7.469105,-4.4135480000000005,-3.8268154,-1
1117,1118,1583937587470,-2.23,-2.3653998,-3.1878,7.331802400000001,-4.4611735,-3.4543254,-1
1118,1119,1583937587480,-2.0906,-2.5561,-2.9455,7.8671455,-4.8704386,-3.2673862000000002,-1
1119,1120,1583937587491,-1.4078,-2.9466999,-3.0474,8.631538,-5.234261,-3.3234584000000003,-1
1120,1121,1583937587501,-0.64379996,-3.1726,-2.9617,9.182951,-5.4167857,-2.933232,-1
1121,1122,1583937587511,-0.19309999,-3.283,-2.4459,9.342788,-5.6409693,-2.1179395,-1
1122,1123,1583937587521,-0.3123,-3.5291,-1.7554,9.085335,-5.932238,-1.2521004999999998,-1
1123,1124,1583937587531,-0.52129996,-3.6961,-0.77059996,8.966812,-5.97882,-0.113418125,-1
1124,1125,1583937587542,-0.61359996,-3.6624,0.1847,8.891538,-5.86384,0.637145,-1
1125,1126,1583937587551,-0.6768,-3.4743,0.7639,8.823074,-5.609375,1.1655931000000002,-1
1126,1127,1583937587561,-0.6809,-3.1582,1.208,8.967952,-5.3523335,1.6196392,-1
1127,1128,1583937587571,-0.52709997,-2.9175,1.599,9.057714,-5.218134,1.9087724999999998,-1
1128,1129,1583937587581,-0.4211,-2.7517998,1.8304,9.16895,-5.088148,2.1979634999999997,-1
1129,1130,1583937587591,-0.2453,-2.6516,2.1285,9.592513,-5.087324,3.0863366,-1
1130,1131,1583937587602,0.17639999,-2.6471999,2.9856,9.84944,-5.1309657,3.9653629999999995,-1
1131,1132,1583937587612,0.41200000000000003,-2.7122998,4.0192,9.925403,-5.2541814,5.230938,-1
1132,1133,1583937587622,0.4215,-2.7322,5.0509,9.872481,-5.144929,6.169561,-1
1133,1134,1583937587632,0.3809,-2.5704,5.8887,9.793616,-4.999888400000001,6.798364,-1
1134,1135,1583937587642,0.2708,-2.3729,6.5846995999999995,9.735255,-4.9048576,7.539188,-1
1135,1136,1583937587652,0.3563,-2.3234,7.3573,9.979923,-4.7466099999999996,8.496925,-1
1136,1137,1583937587662,0.5597,-2.0869,8.064199,10.016555,-4.4988484,8.870201,-1
1137,1138,1583937587673,0.56729996,-1.8311,8.285,10.042383000000001,-4.2657204,8.852186999999999,-1
1138,1139,1583937587683,0.6443,-1.5756999,8.2321,10.260955000000001,-4.0441227,8.847992,-1
1139,1140,1583937587693,1.0157,-1.2422999,8.1567,10.746834,-3.6061945,8.811648,-1
1140,1141,1583937587703,1.3852,-0.875,8.1494,10.897755,-3.35261,9.137883,-1
1141,1142,1583937587714,1.4666,-0.64419997,8.532499000000001,10.732679,-3.3171665999999997,9.870325999999999,-1
1142,1143,1583937587724,1.2695,-0.6489,9.3029995,10.561925,-3.3325753,10.4924555,-1
1143,1144,1583937587734,1.1302999,-0.6658,9.8206,10.591958,-3.2197607,10.616216,-1
1144,1145,1583937587744,1.178,-0.56729996,9.873,10.857954,-3.0190406000000003,10.09269,-1
1145,1146,1583937587754,1.4326999,-0.37039998,9.3143,11.345481,-2.8341985,9.236264,-1
1146,1147,1583937587765,1.9224999,-0.19479999,8.4323,11.799517,-2.7831829,8.812252,-1
1147,1148,1583937587775,2.4878,-0.18079999,7.9223,12.361915,-2.9653144,8.202611,-1
1148,1149,1583937587785,2.9212,-0.3624,7.3954997,12.663986,-2.9899747000000003,7.417447599999999,-1
1149,1150,1583937587796,3.2229,-0.4285,6.6359997,12.751183000000001,-2.8088007,6.677371000000001,-1
1150,1151,1583937587806,2.9935,-0.21519999,5.6693997000000005,12.406169,-2.649481,6.387069,-1
1151,1152,1583937587816,2.9935,-0.21519999,5.6693997000000005,12.101416,-2.5748491000000002,6.46626,-1
1152,1153,1583937587826,2.3091,-0.2163,5.8013997,11.783341,-2.5361397,6.418289700000001,-1
1153,1154,1583937587836,2.3091,-0.2163,5.8013997,11.95761,-2.5601199,5.748344400000001,-1
1154,1155,1583937587846,2.3464,-0.3339,5.251,12.288107,-2.5552356,4.8969665,-1
1155,1156,1583937587856,3.1746,-0.49269998,3.2042,12.823421000000002,-2.6478531000000003,3.7329720999999996,-1
1156,1157,1583937587866,3.5412,-0.8068,2.6485,13.187559,-2.8949822999999997,3.2268956,-1
1157,1158,1583937587876,3.7196998999999997,-1.1292,2.0626,13.302874,-3.1156034,2.6140947,-1
1158,1159,1583937587886,3.6023,-1.1779,1.9038,13.186017999999999,-3.035982,2.5320215,-1
1159,1160,1583937587897,3.2387,-1.1582,2.0109,12.7822695,-2.9092808,2.6298583,-1
1160,1161,1583937587907,2.7282999,-1.1358,2.1618,12.307959,-2.759097,2.7375588,-1
1161,1162,1583937587917,2.327,-1.0365,2.2773,11.940804,-2.6119877999999996,2.8118272,-1
1162,1163,1583937587927,2.065,-1.2975999,2.0028,11.783868,-2.81629,2.400666,-1
1163,1164,1583937587937,2.207,-1.6621,1.2264,11.978843,-3.081539,1.6032819999999999,-1
1164,1165,1583937587948,2.207,-1.6621,1.2264,12.398431,-3.325479,1.0990918,-1
1165,1166,1583937587958,3.3167,-2.3492,0.0845,13.162745999999999,-3.5224931000000006,0.52925265,-1
1166,1167,1583937587968,3.3167,-2.3492,0.0845,13.300193,-3.5741696000000003,0.32767045,-1
1167,1168,1583937587978,3.0223,-2.6753,0.0231,12.4754095,-3.5443474999999998,0.64128214,-1
1168,1169,1583937587988,2.1641,-2.6627,0.78389996,11.567174000000001,-3.391607,1.3767331,-1
1169,1170,1583937587998,1.3665,-2.6694999,1.3813,10.980766000000001,-3.2768767,1.7059836,-1
1170,1171,1583937588009,0.9446,-2.6574,1.3292999,10.742830999999999,-3.0004137,1.1719521000000002,-1
1171,1172,1583937588019,0.9474,-2.5031,0.5973,10.783811,-2.7109928,0.40995437,-1
1172,1173,1583937588029,0.97249997,-2.3941998,0.0029,10.780007000000001,-2.5112016,-0.13767618,-1
1173,1174,1583937588039,0.8434,-2.3639997999999998,-0.30449998,10.509319,-2.308288,-0.35992515,-1
1174,1175,1583937588049,0.38349998,-2.2281,-0.33299999999999996,9.978591999999999,-1.9857892,-0.48120582,-1
1175,1176,1583937588060,-0.1127,-2.0058,-0.3585,9.468876,-1.4865694,-0.5770122,-1
1176,1177,1583937588070,-0.5082,-1.7232,-0.42159998,9.073919,-1.1647983999999998,-0.780979,-1
1177,1178,1583937588080,-1.0971,-1.4965,-0.7036,8.44773,-0.7949995,-1.1904258,-1
1178,1179,1583937588090,-1.6739998999999999,-1.2557,-0.95809996,7.8202,-0.40578845,-1.3822396000000001,-1
1179,1180,1583937588100,-2.1608,-1.1637,-0.9098,7.307046000000001,-0.25549963,-1.4109797,-1
1180,1181,1583937588111,-2.5679,-1.1705999,-0.9935,7.067711999999999,-0.12808022,-1.7108773999999998,-1
1181,1182,1583937588121,-2.7684999,-1.0795,-1.3571999,6.873667,0.1389403,-2.3120517999999994,-1
1182,1183,1583937588131,-2.8899999,-0.9420000000000001,-1.9222,6.704167,0.50110644,-2.7078995999999997,-1
1183,1184,1583937588142,-3.1576,-0.6258,-2.1153,6.1314454000000005,0.957355,-2.8081303,-1
1184,1185,1583937588152,-3.6487,-0.3891,-2.0877,5.71246,1.2855043,-2.8088295,-1
1185,1186,1583937588162,-4.0393,-0.20289999,-2.013,5.398848,1.3463075,-2.767764,-1
1186,1187,1583937588173,-4.3002,-0.2629,-1.9045,5.089565299999999,1.4474194,-2.7871861,-1
1187,1188,1583937588183,-4.6082997,-0.24499999,-1.8664999,4.773722,1.6970868000000001,-2.7085986,-1
1188,1189,1583937588194,-4.954799700000001,0.0187,-1.5995,4.329301,2.2075977000000004,-2.3128467,-1
1189,1190,1583937588204,-5.3209,0.33699998,-1.2215999,3.7715187000000006,2.6138551,-2.061829,-1
1190,1191,1583937588214,-5.7766,0.5671,-0.96639997,3.2809660000000003,2.872707,-1.8444833999999999,-1
1191,1192,1583937588224,-6.2342,0.7084,-0.6849,2.8404233,2.9253888,-1.8889102999999998,-1
1192,1193,1583937588234,-6.6538,0.72819996,-0.7087,2.56442,2.8041945,-2.2342212000000004,-1
1193,1194,1583937588246,-6.9227996,0.5633,-1.0174999,2.65335,2.6608389999999997,-2.9827156,-1
1194,1195,1583937588256,-6.8135,0.3852,-1.7327,3.2072055,2.7652933999999996,-3.5430067000000003,-1
1195,1196,1583937588266,-6.0408998,0.5651,-2.0688999,3.3646385999999997,2.8740666,-3.270585,-1
1196,1197,1583937588276,-6.5299997,0.5237,-1.2245,2.7747933999999996,2.8368514,-2.3908498,-1
1197,1198,1583937588287,-7.2346997,0.4813,-0.46969998,2.082716,2.839485,-1.7713645,-1
1198,1199,1583937588297,-7.6285,0.625,-0.093399994,1.754289,3.065124,-1.4671188999999998,-1
1199,1200,1583937588307,-7.7633,0.77709997,0.0491,1.6822331000000001,3.1336174,-1.4126556000000001,-1
1200,1201,1583937588317,-7.5512996,0.83239996,-0.20809999,1.9210308999999997,3.2050218999999998,-1.8254255000000001,-1
1201,1202,1583937588327,-7.3348,0.965,-1.1085,2.1532109,3.2411267999999995,-2.774468,-1
1202,1203,1583937588338,-7.0032997,0.816,-1.8910999,2.6526892,2.9689057,-3.628518,-1
1203,1204,1583937588348,-6.4856,0.6836,-2.3137,3.0704105,2.7896566000000003,-3.7993107000000004,-1
1204,1205,1583937588358,-6.1144,0.33789998,-1.7318,3.3968549,2.2629322999999997,-2.8616837999999998,-1
1205,1206,1583937588368,-6.1933,0.0401,-0.88449997,3.121675,2.0591857,-2.3855252,-1
1206,1207,1583937588378,-6.6074996,0.16699999999999998,-0.81189996,2.7449906000000004,2.2163699,-2.321916,-1
1207,1208,1583937588389,-6.8689,0.4017,-0.64809996,2.6549110000000002,2.3265130000000003,-2.1713492999999997,-1
1208,1209,1583937588399,-6.7033997,0.5632,-0.50909996,2.9414778,2.3572352000000003,-1.9625176,-1
1209,1210,1583937588409,-6.5604,0.6229,-0.28779998,2.8970416,2.2382624,-1.8165957,-1
1210,1211,1583937588419,-6.8687997,0.3633,-0.5433,2.7722366000000003,1.4249426,-2.310127,-1
1211,1212,1583937588429,-6.6765,-0.3602,-0.9668,3.2655857000000004,0.5667267,-2.612457,-1
1212,1213,1583937588440,-6.0520997,-0.9501,-1.1608,4.165806,0.16940413,-2.5191789,-1
1213,1214,1583937588450,-5.0155,-0.8832,-0.7831,4.904569599999999,0.355606,-1.9108698,-1
1214,1215,1583937588460,-4.9014,-0.4709,0.0622,4.3682404,0.44652820000000004,-1.0446572,-1
1215,1216,1583937588471,-5.9347997,-0.4989,1.0031999,3.4408126000000006,0.047941495,0.20097886,-1
1216,1217,1583937588481,-6.3203998,-0.64379996,1.7020998999999999,3.4171004000000003,-0.2582003,0.42846635,-1
1217,1218,1583937588491,-6.3114,-0.84639996,1.4247,3.4689398000000002,-1.132716,-0.23340593,-1
1218,1219,1583937588501,-6.1498,-1.8908,0.4802,4.022709,-2.6876542999999997,-1.3576944,-1
1219,1220,1583937588511,-5.3327,-3.1950998,-0.6667,5.3808245999999995,-3.7563396,-2.2390478,-1
1220,1221,1583937588522,-3.5654,-3.4650998,-1.2876999,7.0551667,-3.7110126000000005,-2.1800740000000003,-1
1221,1222,1583937588532,-2.5073,-2.9917,-0.78889996,6.3305087,-3.0291824,-0.58549726,-1
1222,1223,1583937588542,-3.81,-2.1782,0.86829996,4.7391596,-2.7707043,0.94194597,-1
1223,1224,1583937588552,-5.4846997,-1.7767998999999999,2.5665,4.069013,-2.9136765,2.2478871,-1
1224,1225,1583937588562,-5.5379996,-1.8468,3.2027,5.1302285,-3.7916300000000005,2.0992935,-1
1225,1226,1583937588572,-4.277,-2.6773999,2.659,6.692943,-5.319045,0.5298751,-1
1226,1227,1583937588583,-2.6204998,-3.9236,0.92899996,8.347662,-6.338563,-1.2460575,-1
1227,1228,1583937588593,-0.9025,-4.4361997,-0.8286,9.982499,-6.299470400000001,-2.2610266,-1
1228,1229,1583937588603,0.67609996,-3.9696,-1.5523,10.229151,-5.7565517,-1.9275813999999998,-1
1229,1230,1583937588614,0.5517,-3.1794,-1.0265,8.877087,-5.340612,-0.6998156,-1
1230,1231,1583937588624,-0.8183,-2.5744998,0.37559998,7.919971,-5.26959,1.340207,-1
1231,1232,1583937588634,-1.4702,-2.3634999,2.3151999,8.205896000000001,-5.7264705000000005,2.6456215,-1
1232,1233,1583937588644,-1.0734999,-2.5288,3.1057,8.690042,-6.2275295,2.0352342,-1
1233,1234,1583937588654,-0.3665,-2.909,2.0123,9.642914999999999,-7.301798,-0.13278243,-1
1234,1235,1583937588665,0.5638,-3.5602998999999995,0.014099998999999998,11.013433000000001,-8.014045,-0.8359786,-1
1235,1236,1583937588675,2.0672998,-3.9838,-0.8179,11.917924000000001,-8.148512,-0.54854035,-1
1236,1237,1583937588685,3.0865,-3.8506,-0.61359996,11.19793,-8.356722,0.25227225,-1
1237,1238,1583937588695,2.4956,-3.8095999,0.121999994,10.147708999999999,-8.954352,1.6800592,-1
1238,1239,1583937588706,1.5687,-4.1917,1.5,10.250411,-9.793434,2.3963563,-1
1239,1240,1583937588716,1.7933999,-4.8069997,2.155,11.842564999999999,-10.139827,1.0965444,-1
1240,1241,1583937588727,4.4888997,-5.0351996,-0.44349998,12.78745,-10.578455,-0.15193604,-1
1241,1242,1583937588737,5.1931996,-5.1919,-0.49049997,13.270246499999999,-10.748922,0.26949134,-1
1242,1243,1583937588747,5.125,-5.0344,-0.0197,12.874761999999999,-10.768276,0.6317531999999999,-1
1243,1244,1583937588757,4.5085,-4.417,0.1427,12.031371,-10.235596000000001,0.7910634,-1
1244,1245,1583937588767,3.9389999999999996,-3.9192998,0.259,11.369833999999999,-10.092605,1.1068681,-1
1245,1246,1583937588777,3.5012999,-3.9752998,1.0568,10.922855,-10.429324000000001,2.2788298,-1
1246,1247,1583937588788,3.7082998999999996,-4.2297,1.9289999,11.328635,-10.724692,3.0449076,-1
1247,1248,1583937588798,4.4885,-4.0769,2.1237,11.897488000000001,-10.648423,2.9638684,-1
1248,1249,1583937588808,5.0794,-3.9339999999999997,1.3475,12.240615,-10.631912,2.2454259999999997,-1
1249,1250,1583937588818,5.5027,-3.6664999,0.40469998,12.459253,-10.406819,1.4316944,-1
1250,1251,1583937588828,5.4611998,-3.4406998,0.30359998,12.106224000000001,-10.475734,1.8308653000000001,-1
1251,1252,1583937588838,5.033,-3.5502,1.1948999,11.486269,-10.605452,2.6854517,-1
1252,1253,1583937588849,4.4491,-3.4041997999999998,1.5753,10.937365,-10.409730999999999,2.8088295,-1
1253,1254,1583937588859,4.2268,-3.0084999,1.5322,10.755578,-10.156577,2.7531116,-1
1254,1255,1583937588869,4.2427,-2.8902,1.3335999,10.758948,-10.212256,2.6553897999999996,-1
1255,1256,1583937588879,4.5449,-2.8634999,1.3348,11.030747999999999,-10.281258,2.5717173,-1
1256,1257,1583937588889,4.9526,-2.8817,0.9562,11.336172,-10.319900500000001,2.2440279,-1
1257,1258,1583937588899,5.2629,-2.7712,0.7118,11.382753,-10.187089,2.0879833999999997,-1
1258,1259,1583937588910,5.1658998,-2.6118999,0.5846,11.007936500000001,-10.121889999999999,2.1803993999999998,-1
1259,1260,1583937588920,4.7493,-2.5305998,0.9596,10.600213,-10.124265,2.7409778,-1
1260,1261,1583937588930,4.1927,-2.457,1.6043999,9.7434435,-9.89672,3.15981,-1
1261,1262,1583937588940,3.4515998,-2.106,1.6293,9.161325999999999,-9.5928,2.988883,-1
1262,1263,1583937588950,2.875,-1.7004,1.4064,8.545299,-9.069944,2.7573638,-1
1263,1264,1583937588960,2.4554,-1.1797,1.171,8.160081,-8.618426,2.4358513,-1
1264,1265,1583937588970,2.1631,-0.72959995,0.74109995,7.896325999999999,-8.208789,2.0063984,-1
1265,1266,1583937588981,1.9674,-0.3595,0.3396,7.801639999999999,-7.993167,1.8303193,-1
1266,1267,1583937588991,1.9654,-0.2453,0.2582,7.729928999999999,-7.982824000000001,1.8123915000000002,-1
1267,1268,1583937589001,1.8508999,-0.2604,0.22479999,7.548793300000001,-8.100762,1.8429512,-1
1268,1269,1583937589011,1.6816,-0.3568,0.2776,7.354930400000001,-8.17028,1.950221,-1
1269,1270,1583937589022,1.4969999999999999,-0.3876,0.43359998,7.0228734,-8.150523,2.1334922,-1
1270,1271,1583937589032,1.1802,-0.3531,0.5711,6.580339,-8.050504,2.172192,-1
1271,1272,1583937589042,0.7136,-0.2332,0.5671,6.206355,-7.8268466,2.14758,-1
1272,1273,1583937589052,0.37449998,-0.0164,0.5571,5.9758224,-7.7635245,2.0774584,-1
1273,1274,1583937589063,0.2241,0.0245,0.41529998,6.1348257,-7.875122999999999,1.7343981,-1
1274,1275,1583937589073,0.44959998,-0.0993,0.0448,6.399433,-7.8950143,1.5838313999999998,-1
1275,1276,1583937589083,0.7639,-0.1046,-0.1072,6.609423599999999,-7.952494000000001,1.464811,-1
1276,1277,1583937589093,0.8987,-0.1502,-0.16569999,6.5688086,-7.9958100000000005,1.6571514999999999,-1
1277,1278,1583937589103,0.7736,-0.1982,0.027199998,6.19108,-8.039241,1.8254543999999997,-1
1278,1279,1583937589114,0.4091,-0.25849998,0.2121,5.9931849999999995,-8.101854,2.119108,-1
1279,1280,1583937589124,0.23009999,-0.3003,0.50299996,5.853632,-8.15512,2.2349873,-1
1280,1281,1583937589134,0.1215,-0.36159998,0.5629,5.7896876,-8.170999,2.1839907000000003,-1
1281,1282,1583937589144,0.053999998,-0.384,0.4965,5.7551246,-8.206308,2.1629887,-1
1282,1283,1583937589154,0.0179,-0.4062,0.4448,5.8769126,-8.219399000000001,1.9885473000000002,-1
1283,1284,1583937589164,0.18879999,-0.4183,0.19469999,6.164102,-8.239741,1.6352973,d
1284,1285,1583937589174,0.4384,-0.4493,-0.1209,6.519756,-8.361462,1.6142857,-1
1285,1286,1583937589185,0.80289996,-0.57839996,-0.1531,6.5489554000000005,-8.529391,1.7642488,-1
1286,1287,1583937589195,0.8183,-0.7488,-0.008599999,6.2602434,-8.665544500000001,1.9587634999999999,-1
1287,1288,1583937589206,0.3742,-1.0390999,0.2696,6.1500335,-8.837181,2.0324473000000003,-1
1288,1289,1583937589216,0.3742,-1.0390999,0.2696,6.471901,-8.843999,1.9767294999999998,-1
1289,1290,1583937589226,0.634,-1.1005,0.21419999,6.6617227,-8.810624,1.9652565,-1
1290,1291,1583937589236,1.0661,-1.1096,0.0368,6.854245,-8.846384,1.8307693999999999,-1
1291,1292,1583937589246,1.0661,-1.1096,0.0368,6.9815784,-8.889057000000001,1.779045,-1
1292,1293,1583937589257,1.5012,-1.3669,-0.0532,7.396733,-9.124742999999999,1.7631572,-1
1293,1294,1583937589267,1.9016,-1.7176,-0.0976,7.805872999999999,-9.485253,1.7187111000000002,-1
1294,1295,1583937589277,2.191,-2.2079,-0.13149999,8.094135000000001,-9.995716,1.704346,-1
1295,1296,1583937589287,2.4473,-2.8095,0.0782,8.432666000000001,-10.55525,1.9896199,-1
1296,1297,1583937589297,2.9552,-3.2673,0.5312,8.997266999999999,-10.936425999999999,2.4932067000000004,-1
1297,1298,1583937589307,3.6444,-3.4350998,1.0914,9.781722,-11.01328,3.0980778,-1
1298,1299,1583937589318,4.4733,-3.5892,1.9568,10.851134,-11.235414500000001,4.041489,-1
1299,1300,1583937589328,5.411299700000001,-3.8978998999999996,2.1352,11.894939,-11.441977,3.7340162000000006,-1
1300,1301,1583937589338,6.5072,-3.9898998999999997,1.104,12.8512125,-11.435416,2.702642,-1
1301,1302,1583937589348,7.5537996,-4.1882,-0.11009999,14.066538000000001,-11.779596000000002,1.4420947,-1
1302,1303,1583937589358,8.1869,-4.8164997000000005,-0.6468,14.751299,-12.332993,1.2918059,-1
1303,1304,1583937589369,8.8251,-5.2493,-0.50119996,15.485926999999998,-12.507578,1.4505702,-1
1304,1305,1583937589379,9.2505,-5.2743,-0.2541,15.724407999999999,-12.343853,1.6802508000000003,-1
1305,1306,1583937589390,8.842299,-5.1419,0.12079999599999999,15.175015,-12.066537,2.0004227,-1
1306,1307,1583937589400,7.9261,-4.8834,0.3814,14.210764999999999,-11.477488000000001,2.3552241,-1
1307,1308,1583937589411,6.9797997,-4.5443997000000005,0.8362,13.453957999999998,-11.090459,2.7013203999999997,-1
1308,1309,1583937589421,6.0779,-4.3465,1.0618,12.839692,-10.696105000000001,2.7209529999999997,-1
1309,1310,1583937589432,5.4319997,-4.1286,1.0359,12.465287,-10.2535515,2.3941443,-1
1310,1311,1583937589442,4.9853,-3.9569,0.6911,12.083344,-9.890428,1.9051238000000001,-1
1311,1312,1583937589452,4.374,-3.7926998,0.2574,11.490291000000001,-9.635005,1.7128023999999997,-1
1312,1313,1583937589462,3.6650998999999995,-3.7445,0.2031,11.150975,-9.402586,2.079958,-1
1313,1314,1583937589472,3.1812,-3.705,0.6924,10.727948,-9.085086,2.4690540000000003,-1
1314,1315,1583937589483,2.559,-3.5779,1.0991,10.162946,-8.65434,2.7897334,-1
1315,1316,1583937589493,1.7989998999999999,-3.3451,1.4897,9.492157,-8.089366,3.0078642,-1
1316,1317,1583937589503,1.0023,-3.0054998,1.8002,9.027089,-7.5036674,3.4001687000000005,-1
1317,1318,1583937589513,0.40919998,-2.6617,2.2761,8.677852,-6.967606,3.485747,-1
1318,1319,1583937589523,-0.0752,-2.3594,2.3391,8.339139,-6.2332945,3.2982237000000003,-1
1319,1320,1583937589534,-0.53889996,-1.8906,2.1861,7.827986200000001,-5.514775299999999,2.7681472,-1
1320,1321,1583937589544,-1.1776999,-1.3987,1.617,7.455323700000001,-5.135984,2.068504,-1
1321,1322,1583937589554,-1.6101999,-1.3722999,1.0318,7.4092210000000005,-5.0324874,1.7003813,-1
1322,1323,1583937589565,-1.6708,-1.4081999,0.6679999999999999,7.7340089999999995,-4.5323577,1.3882252,-1
1323,1324,1583937589575,-1.4876,-1.2514,0.6254,7.916907000000001,-4.179759,1.7742759,-1
1324,1325,1583937589585,-1.3959,-1.1230999,1.1266,7.8551554999999995,-3.957922,2.4981291000000003,-1
1325,1326,1583937589595,-1.5331,-1.1342,1.9574,7.475080499999999,-3.7675061000000003,3.23426,-1
1326,1327,1583937589606,-1.9871999,-1.1683999,2.8142,6.7586493,-3.6993482,3.0281575000000003,-1
1327,1328,1583937589616,-2.7674,-1.3313,2.7106,6.142612000000001,-3.5224547,2.344795,-1
1328,1329,1583937589626,-3.4415,-1.3836,2.116,5.735597599999999,-3.113506,1.3271635,-1
1329,1330,1583937589636,-3.9016,-1.2044,1.1740999,5.533067,-2.559804,0.47164816,-1
1330,1331,1583937589646,-3.8579998,-0.5512,0.1946,5.9584117,-1.9615982,0.21845654,-1
