,Seq,Time,ACCx,ACCy,ACCz,ADGx,ADGy,ADGz,Keydown
0,1,1583938072853,-1.6193999,-1.0792999,1.9296999,3.5467032999999994,-8.050761999999999,6.286963,-1
1,2,1583938072863,-1.8492,-1.1083,2.1186,9.834691000000001,0.87156606,-0.5843384,-1
2,3,1583938072873,0.0349,0.0025,-0.0014,9.782775,0.59077406,0.09908164,-1
3,4,1583938072883,-0.0678,-0.31689999,1.3471,9.6513815,0.28399062,1.5512129,-1
4,5,1583938072894,-0.326,-0.5796,2.0774999,9.317198,0.116884924,1.8936508,-1
5,6,1583938072904,-0.6418,-0.5311,1.9595,9.052401,0.22285229,1.7369741,-1
6,7,1583938072914,-0.89809996,-0.3942,1.5522,8.858009,0.3384348,1.3722702,-1
7,8,1583938072924,-0.8404,-0.3303,1.1488999,9.070136999999999,0.3383869,1.0257622,-1
8,9,1583938072934,-0.39069998,-0.2184,0.86679995,9.64552,0.27453834,0.8138850000000001,-1
9,10,1583938072944,0.2844,-0.4861,0.4242,10.3299465,0.19739714,0.52913773,-1
10,11,1583938072954,0.73539996,-0.1872,0.3748,10.555833999999999,0.45091435,0.740517,-1
11,12,1583938072964,0.6669,-0.1398,0.4793,10.193199,0.35091335,0.84251,-1
12,13,1583938072975,0.22659999,-0.1918,0.6414,9.791988,0.3455216,1.2342492,-1
13,14,1583938072985,-0.114199996,-0.2263,0.9795,9.580915,0.24771369,1.5305845,-1
14,15,1583938072995,-0.24659999,-0.2934,0.9849,9.6577215,0.17959386,1.4352568,-1
15,16,1583938073005,-0.024799999,-0.2758,0.67179996,9.929950999999999,0.23680569,1.1438155,-1
16,17,1583938073015,0.2837,-0.1501,0.2765,10.217419,0.34897885,0.87582767,-1
17,18,1583938073025,0.5024,-0.0638,-0.0447,10.286927,0.38926846,0.8069513,-1
18,19,1583938073036,0.4558,-0.0058999998,0.0687,10.055284,0.45977290000000004,1.1525782,-1
19,20,1583938073046,0.115399994,0.0447,0.4281,9.629508,0.42848549999999996,1.5877388000000001,-1
20,21,1583938073056,-0.273,-0.015299999,0.8477,9.401034,0.41487685,1.9626613000000002,-1
21,22,1583938073066,-0.3954,0.0023999998999999998,1.0804,9.331411,0.44009259999999994,2.061331,-1
22,23,1583938073076,-0.39909998,-0.007999999,0.99079996,9.417774,0.3831393,1.8919461,-1
23,24,1583938073086,-0.27519998,-0.028199999,0.66819996,9.602951,0.41472363,1.5713338,-1
24,25,1583938073097,-0.024999999,-0.011000000000000001,0.3696,9.84352,0.45699564,1.5213332,-1
25,26,1583938073107,0.1357,0.089099996,0.3787,9.821523,0.6126379,1.5888592,-1
26,27,1583938073117,-0.0175,0.20089999,0.45229998,9.461433999999999,0.6905836,1.7142580000000003,-1
27,28,1583938073127,-0.4741,0.24139999,0.5941,8.834566,0.7568646,1.9699109000000001,-1
28,29,1583938073137,-1.0031999,0.2573,0.72249997,8.526031,0.80523705,2.1242986,-1
29,30,1583938073147,-1.2073,0.2882,0.8573,8.588949000000001,0.95713484,2.2240794,-1
30,31,1583938073158,-1.0904,0.4323,0.9809,8.803882000000002,1.0324372,2.3974577999999998,-1
31,32,1583938073168,-0.8958,0.4407,1.1982,8.740637,0.9718448000000001,2.4729997999999997,-1
32,33,1583938073178,-1.0442,0.3493,1.258,8.423894,0.9344952,2.5391562000000003,-1
33,34,1583938073188,-1.3582,0.3042,1.3417,8.037583999999999,0.9829346999999999,2.7011766,-1
34,35,1583938073198,-1.7788,0.355,1.5627999,7.5140199999999995,1.1886444999999999,2.875264,-1
35,36,1583938073208,-2.3357,0.5513,1.6402999,6.8915467,1.4443451999999999,2.5145342,-1
36,37,1583938073218,-2.9315,0.7876,1.2257999,6.5822259999999995,1.6738151000000001,2.2319226000000003,-1
37,38,1583938073228,-3.1561,1.0558,1.0081,6.697328999999999,1.9483535,2.3690817,-1
38,39,1583938073238,-2.9598,1.1975,1.2318,6.936959700000001,1.8445504000000001,2.5483882,-1
39,40,1583938073248,-2.7475998,1.0512999,1.4333999,6.987688499999999,1.6784216,2.6906613999999998,-1
40,41,1583938073259,-2.7825,0.8692,1.6031,6.625464999999999,1.4869621000000002,2.6998932,-1
41,42,1583938073269,-3.2005,0.6782,1.6328,6.126906,1.3825078000000002,2.7220445,-1
42,43,1583938073279,-3.7064,0.5959,1.7696999,5.6124682,1.3602513,2.8458152,-1
43,44,1583938073289,-4.2216,0.537,1.9216,5.299038400000001,1.1375523,2.7508707,-1
44,45,1583938073299,-4.4621997,0.3308,1.7641,5.455983,0.8172560000000001,2.0000107,-1
45,46,1583938073310,-4.3015,0.079399996,1.1658,6.083991999999999,0.44202709999999995,1.2668296000000001,-1
46,47,1583938073320,-3.6718,-0.26479998,0.4903,6.552987,0.010716446999999999,0.7000166999999999,-1
47,48,1583938073330,-3.22,-0.6476,0.009000000000000001,6.5772743,-0.38210502,0.48445237,-1
48,49,1583938073340,-3.2096,-0.968,-0.1266,6.1007323,-0.6572084,0.7658189000000001,-1
49,50,1583938073350,-3.6785997999999998,-1.1915,0.24759999,5.220394000000001,-0.68562275,1.2702388999999998,-1
50,51,1583938073361,-5.5334997,-1.0203999,0.55039996,4.1505785,-0.52696383,0.8451244000000001,-1
51,52,1583938073371,-5.5334997,-1.0203999,0.55039996,4.0410580000000005,-0.3150961,0.34199736,-1
52,53,1583938073381,-5.4634,-0.8466,-0.8359,4.343082,-0.5670523000000001,-0.5483871,-1
53,54,1583938073391,-4.7904,-1.1802,-1.3450999,5.152073400000001,-1.118006,-1.1907898000000001,-1
54,55,1583938073401,-4.7904,-1.1802,-1.3450999,5.666711299999999,-1.6573622,-1.4502158,-1
55,56,1583938073412,-3.7254998999999995,-2.1790000000000003,-1.5897,6.098827,-2.3325077999999997,-1.4135556999999999,-1
56,57,1583938073422,-3.8713,-2.4401999,-1.0287,5.8207355000000005,-2.786142,-0.9681194,-1
57,58,1583938073432,-4.6619997,-2.9510999,-1.1134,4.941412000000001,-3.404957,-1.3341545,-1
58,59,1583938073443,-5.5389,-3.2305,-1.8892,4.159657,-3.7575943,-2.1720292999999997,-1
59,60,1583938073453,-5.7272997000000005,-3.3188998999999995,-2.3659,4.236377,-3.9364986000000006,-2.7095087,-1
60,61,1583938073463,-5.1291,-3.1595,-2.608,5.054140599999999,-3.8048843999999997,-2.8802152000000003,-1
61,62,1583938073473,-4.1551,-2.7680000000000002,-2.7602,5.914282,-3.5462246,-3.0850150000000003,-1
62,63,1583938073484,-3.6188,-2.4036,-2.9771,6.153175,-3.4593341,-3.2307262000000003,-1
63,64,1583938073494,-3.8140998,-2.4548,-3.04,5.6820059999999994,-3.8835387000000003,-3.2070715,-1
64,65,1583938073504,-4.4663997,-2.8260999,-2.7905,5.0064383,-4.4754906,-2.8993497,-1
65,66,1583938073514,-4.8301,-3.2115998,-2.5037,4.8602870000000005,-5.029193,-2.6758554,-1
66,67,1583938073525,-4.5713,-3.5295,-2.4024,5.3603687,-5.606732,-3.0052307000000003,-1
67,68,1583938073535,-4.013099700000001,-3.7294,-3.0909,6.114992,-5.64344,-3.7796304,-1
68,69,1583938073545,-3.0468,-3.2343,-4.0067997,7.106076700000001,-5.0933194,-4.7510157,-1
69,70,1583938073555,-2.1031,-2.4691,-5.1099,7.7561693,-4.589082,-5.507459,-1
70,71,1583938073565,-1.5946,-1.8318,-5.5502,7.830955,-4.3930635,-5.1932434999999995,-1
71,72,1583938073575,-1.9247999,-1.6596999,-4.5525,6.7804649999999995,-5.0106335,-3.6057922999999996,-1
72,73,1583938073586,-3.0451999,-2.4814,-3.3476998999999994,5.784372,-6.3757014000000005,-2.644731,-1
73,74,1583938073596,-3.5898,-3.6615998999999997,-2.6852,5.884938,-7.605162599999999,-2.3319522999999998,-1
74,75,1583938073606,-2.8673,-4.5147,-2.7278,7.2209315,-8.3441,-2.7563294999999997,-1
75,76,1583938073616,-1.0315,-4.8048997,-3.6079998,9.318128,-8.776157000000001,-3.9022040000000002,-1
76,77,1583938073626,1.2098,-4.8153996,-4.8903,11.249961,-8.513235,-4.526200299999999,-1
77,78,1583938073636,2.9382,-4.0801997000000005,-5.2922997,12.147509,-8.103147,-4.4560595,-1
78,79,1583938073646,3.3023,-3.7271,-5.3403997,11.409616,-8.457585,-4.240667299999999,-1
79,80,1583938073657,2.1803,-4.1607,-5.0309,9.92726,-9.369613000000001,-3.6331723,-1
80,81,1583938073667,1.0852,-4.9908,-4.4219,9.4356165,-10.175022,-2.7512060000000003,-1
81,82,1583938073677,1.2983999,-5.383899700000001,-3.7061,10.228508999999999,-10.58513,-2.5443947000000002,-1
82,83,1583938073687,2.4838998,-5.4797,-3.9385998,12.003991000000001,-10.655452,-2.518097,-1
83,84,1583938073698,4.2183,-5.3391,-3.9239,13.177112,-10.795532000000001,-2.4678376,-1
84,85,1583938073708,5.6017,-5.4287,-4.0709,13.956376,-11.3035145,-2.6636452999999998,-1
85,86,1583938073718,6.0866,-5.6867,-4.3184,13.769514000000001,-11.750062,-2.8616837999999998,-1
86,87,1583938073729,5.9677997000000005,-6.0083,-4.6682,13.269279000000001,-12.337695,-3.2798553,-1
87,88,1583938073739,5.6085997,-6.4866,-5.0512,13.5841255,-12.798933,-3.4735080000000003,-1
88,89,1583938073750,6.0827,-6.7105,-5.2339,14.625488,-12.921851,-4.0096172999999995,-1
89,90,1583938073760,7.2444,-6.7124996,-5.8094997,15.67978,-12.789605,-4.669239,-1
90,91,1583938073770,8.4039,-6.4557,-6.4988,16.202223,-12.624491,-4.9404639999999995,-1
91,92,1583938073781,9.0252,-6.1896996,-6.7837996,16.129257,-12.583828,-4.514296,-1
92,93,1583938073790,9.0443,-6.0449,-6.3644,15.612847,-12.589594,-3.4292532999999996,-1
93,94,1583938073800,8.5953,-5.973,-5.2651997,14.9457655,-12.658546000000001,-2.5813612999999997,-1
94,95,1583938073810,7.9835,-5.9733,-4.3733,14.664992999999999,-12.818325999999999,-1.8395226000000002,-1
95,96,1583938073820,7.7521996,-6.0729,-3.5902998,15.005907999999998,-12.658939,-1.4005121999999999,-1
96,97,1583938073831,8.0406,-5.9277,-3.1278,15.151407999999998,-12.386460000000001,-1.331971,-1
97,98,1583938073841,8.1411,-5.2128997,-2.8158,14.930356,-11.997795,-1.1939213,-1
98,99,1583938073851,7.7805,-4.9599,-2.5525,14.516591,-11.812876,-0.9529593000000001,-1
99,100,1583938073861,7.0814,-5.0824,-1.7458999,13.837126000000001,-11.967494,-0.059290014,-1
100,101,1583938073871,6.3781,-5.3346,-0.3448,13.176221,-12.201618,1.2940277,-1
101,102,1583938073882,5.9586,-5.5875998,1.0756999,12.915405999999999,-12.445013000000001,2.5881705000000004,-1
102,103,1583938073892,5.9235997000000005,-5.7622,2.2711,12.973087,-12.543059,3.739494,-1
103,104,1583938073902,5.95,-5.7914,3.1536,13.068567999999999,-12.456074000000001,4.274483,-1
104,105,1583938073912,5.9287996,-5.5888,3.2568998,13.063474000000001,-12.13753,4.2139006,-1
105,106,1583938073922,5.6123,-5.196000000000001,3.3597998999999996,12.774061999999999,-11.702504,4.2776055,-1
106,107,1583938073932,5.1762,-4.9467,3.5598,12.466206,-11.350947999999999,4.4509739999999995,-1
107,108,1583938073943,5.0046,-4.643399700000001,3.9833,12.44935,-10.8381,4.8507485,-1
108,109,1583938073953,4.7939997000000005,-4.2664,4.3905997,12.194982000000001,-10.274478,5.166936,-1
109,110,1583938073964,4.1816998,-3.7688,4.8504,11.549457,-9.649600999999999,5.5763636,-1
110,111,1583938073974,3.2389,-3.3167,5.3967,10.579882000000001,-8.853078,6.0765796,-1
111,112,1583938073985,2.4315999,-2.8371,5.9542,10.142211999999999,-8.347949,6.505946,-1
112,113,1583938073996,2.0383,-2.5711,6.4192,10.118443,-8.000359,6.597644,-1
113,114,1583938074006,2.0268,-2.6065,6.3856997,10.512011,-8.037364,5.95369,-1
114,115,1583938074017,2.2872999,-2.7737,5.8198,10.821562,-7.8865384999999995,5.260904,-1
115,116,1583938074027,2.437,-2.7844,5.239,10.667538,-7.625398599999999,4.9119825,-1
116,117,1583938074037,2.0572,-2.6685,5.074,10.211107,-7.1848273,5.020143,-1
117,118,1583938074048,1.2455,-2.2512,5.3661,9.23366,-6.1980996,5.530491400000001,-1
118,119,1583938074058,0.3084,-1.5687,5.9077997,8.364086,-5.23112,5.7878485,-1
119,120,1583938074068,-0.68219995,-0.85099995,6.1071,7.550871400000001,-4.5680985,5.66289,-1
120,121,1583938074078,-1.5273,-0.4942,6.0267,7.1032996,-4.3274527,5.540757,-1
121,122,1583938074088,-1.9502,-0.54179996,5.9442997,7.206125999999999,-4.572494,5.3964443,-1
122,123,1583938074098,-1.8419999999999999,-1.0774,5.8936,7.6566477,-4.9459515,5.2943463,-1
123,124,1583938074109,-1.4505,-1.5841,5.8294,7.8351690000000005,-4.842292,5.0778813,-1
124,125,1583938074119,-1.4857,-1.5491999,5.6629,7.4045570000000005,-4.202552,5.0308595,-1
125,126,1583938074129,-2.0676,-1.0548999,5.6903,6.6213755999999995,-3.4675797999999993,5.0829763,-1
126,127,1583938074139,-2.931,-0.51199996,5.7559,5.6114726,-2.5894057999999998,4.898708999999999,-1
127,128,1583938074149,-3.8288998999999997,0.036000000000000004,5.5515,5.1531453,-2.162127,4.1191572999999995,-1
128,129,1583938074160,-4.3276997,0.2936,4.7499,5.2409844,-2.0505476000000002,3.3569484,-1
129,130,1583938074170,-4.2945,0.1802,3.9729997999999997,5.5962358,-2.0411527,2.8469932,-1
130,131,1583938074180,-3.9610000000000003,0.095,3.4715,5.863333,-2.0761845,2.748352,-1
131,132,1583938074190,-3.6457998999999996,-0.1004,3.3967,6.201097,-2.0290763,2.7106194,-1
132,133,1583938074200,-3.4159,-0.15959999,3.395,6.113211,-1.9066081000000001,2.5981683999999996,-1
133,134,1583938074211,-3.5175,-0.18419999,3.3221998,5.636861,-1.7944924999999998,2.3402746,-1
134,135,1583938074221,-4.0196,-0.2145,3.1134999,5.0467567,-1.2329468000000001,2.2999659,-1
135,136,1583938074231,-5.1059,0.511,3.2372,4.4466166,-0.6770036,2.3942304,-1
136,137,1583938074241,-5.8855996,0.8383,3.1601999,3.6718724000000003,-0.24130681,2.233158,-1
137,138,1583938074251,-5.8855996,0.8383,3.1601999,3.1539297000000004,0.01865562,1.9052578000000002,-1
138,139,1583938074261,-6.7289,0.983,2.1506,3.120478,0.013800179,1.0339023999999999,-1
139,140,1583938074271,-5.9781,0.733,1.3442999,4.120085700000001,-0.23679613,0.1232535,-1
140,141,1583938074282,-4.6656,0.39,0.226,5.342125,-0.5408885,-0.9605537000000001,-1
141,142,1583938074292,-3.3028998,-0.039,-0.8533,6.664471000000001,-0.8927308,-1.9821978999999998,-1
142,143,1583938074302,-2.3718998,-0.0213,-1.2271,7.448687,-0.72394913,-2.187448,-1
143,144,1583938074313,-2.5311,0.3435,-0.84139997,7.000367999999999,-0.30619925,-1.7401729,-1
144,145,1583938074323,-3.9276998,0.6022,-0.375,5.186013,0.017324443999999998,-1.3647238000000002,-1
145,146,1583938074333,-5.344599700000001,0.6989,-0.4942,4.090446,0.15842910000000002,-1.673298,-1
146,147,1583938074344,-5.750099700000001,0.6608,-1.035,4.0763964999999995,0.11497914,-2.1620214,-1
147,148,1583938074354,-4.8588,0.3999,-1.6163,5.473279499999999,-0.2518413,-2.824114,-1
148,149,1583938074364,-3.4161,0.0598,-2.0778,6.9209190000000005,-0.5168507,-3.299507,-1
149,150,1583938074375,-2.0801,-0.11669999,-2.5125,8.09425,-0.5794543000000001,-3.7582932000000002,-1
150,151,1583938074385,-1.5489998999999999,-0.08339999599999999,-2.7166997999999998,8.212208,-0.5043625,-3.7101983999999995,-1
151,152,1583938074395,-1.7257999,0.093399994,-2.3646,7.6069818,-0.12536998,-3.0912304,-1
152,153,1583938074405,-2.4638,0.3859,-1.7531999,6.9495344,0.09720459,-2.5906222000000003,-1
153,154,1583938074415,-3.2126,0.57879996,-1.2709,6.3724647,0.31607294,-2.2786863,-1
154,155,1583938074425,-3.4512,0.72319996,-1.2621,6.473261,0.4973044,-2.5297806,-1
155,156,1583938074436,-3.0904,0.7969,-1.7576,7.073947,0.46561477,-3.234193,-1
156,157,1583938074446,-2.3652,0.7204,-2.508,7.929912,0.29942843,-3.895165,-1
157,158,1583938074456,-1.5015999,0.4971,-3.0254998,8.731328,0.04684016,-4.083426,-1
158,159,1583938074466,-0.8045,0.3243,-2.9828,9.224725,-0.045451526,-3.8190007000000006,-1
159,160,1583938074476,-0.38259998,0.313,-2.6397,9.4536495,0.0051331683,-3.5223687000000004,-1
160,161,1583938074487,-0.3243,0.34379998,-2.4002,9.345583999999999,0.08647857,-3.1722214,-1
161,162,1583938074497,-0.5216,0.4366,-1.9589,9.045447,0.19304927,-2.6731167,-1
162,163,1583938074507,-0.91529995,0.52459997,-1.4792,8.499416,0.16369636,-2.2583354,-1
163,164,1583938074517,-1.4656999,0.43519998,-1.1055,8.0991535,0.103439085,-1.9376848999999998,-1
164,165,1583938074528,-1.6818,0.3802,-0.9016,8.338832,0.076365456,-2.0717313,-1
165,166,1583938074538,-1.3083999,0.3654,-1.1506,9.016361999999999,0.13233232,-2.4238226000000003,-1
166,167,1583938074548,-0.5907,0.45979998,-1.4705,9.66138,0.1703235,-2.7638664,-1
167,168,1583938074558,0.0101,0.5004,-1.7853999,10.032538,0.10553641,-2.841113,-1
168,169,1583938074568,0.2873,0.424,-1.7579999,10.011096,-0.16328456,-2.4876904,-1
169,170,1583938074578,0.21100000000000002,0.1576,-1.3326,9.682928,-0.50328034,-2.0414689,-1
170,171,1583938074589,-0.1405,-0.1524,-0.87289995,9.467141999999999,-0.7206547,-1.4590456,-1
171,172,1583938074599,-0.306,-0.3276,-0.2783,9.4402895,-0.7908048000000001,-1.1511705,-1
172,173,1583938074609,-0.3049,-0.3746,-0.0469,9.570025999999999,-0.74921274,-1.1145488000000001,-1
173,174,1583938074620,-0.1273,-0.28149998,-0.0232,9.896538,-0.6739965,-1.1237903999999999,d
174,175,1583938074630,0.1484,-0.21429999,-0.0391,10.217447,-0.6827880000000001,-1.329711,-1
175,176,1583938074640,0.4737,-0.20349999,-0.22919999,10.414116,-0.62579644,-1.5392323,-1
176,177,1583938074650,0.6443,-0.2749,-0.6816,10.362632000000001,-0.8272924999999999,-1.7925674999999999,-1
177,178,1583938074661,0.6443,-0.2749,-0.6816,10.361913000000001,-0.84937656,-1.7274357,-1
178,179,1583938074670,0.6168,-0.31149998,-0.60179996,10.368061,-0.8644122,-1.6070169,-1
179,180,1583938074680,0.6477,-0.3218,-0.4267,10.375138,-0.8660880999999999,-1.2115139,-1
180,181,1583938074690,0.6387,-0.31509998,-0.0801,10.397003,-0.90444326,-0.9011104999999999,-1
181,182,1583938074700,0.6583,-0.3495,0.2312,10.383797,-0.8731174999999999,-0.78425425,-1
182,183,1583938074710,0.6477,-0.31649998,0.3403,10.312201,-0.8186638,-0.7851354,-1
183,184,1583938074721,0.56799996,-0.2654,0.3286,10.183765,-0.7401531,-0.8726482,-1
184,185,1583938074731,0.44829997,-0.18599999,0.22219999,9.997717,-0.5922871999999999,-1.1212143,-1
185,186,1583938074741,0.2516,-0.028999999999999998,-0.038,9.852886999999999,-0.49691176,-1.4287733999999999,-1
186,187,1583938074751,0.1038,0.0696,-0.34899998,9.906613,-0.54819554,-1.4469886,-1
187,188,1583938074761,0.1625,0.0132,-0.37109998,10.104135000000001,-0.58037364,-1.2880231000000002,-1
188,189,1583938074772,0.47649997,-0.11409999400000001,-0.0015,10.215905000000001,-0.69721067,-1.0470897,-1
189,190,1583938074782,0.44689998,-0.18859999,0.1217,10.170013,-0.75491095,-0.9329821,-1
190,191,1583938074792,0.3577,-0.1862,0.1809,10.0844345,-0.7548726,-0.8869655000000001,-1
191,192,1583938074802,0.31689999,-0.087699994,0.146,10.067666000000001,-0.63582337,-0.93655425,-1
192,193,1583938074812,0.31509998,0.0491,-0.1162,10.047344,-0.51615155,-1.2046282,-1
193,194,1583938074823,0.2839,0.10569999,-0.3276,10.038131,-0.45638272,-1.3057976,-1
194,195,1583938074833,0.26299998,0.121599995,-0.1514,9.986005,-0.4736593,-1.0819589,-1
195,196,1583938074843,0.0661,0.047199998,0.1774,9.766896000000001,-0.5170231,-0.77968615,-1
196,197,1583938074853,-0.1792,0.0213,0.31579998,9.489907,-0.5363778,-0.6872221,-1
197,198,1583938074863,-0.2969,0.0464,0.2003,9.475877,-0.47392744,-0.8667488999999999,-1
198,199,1583938074873,-0.22809999,0.11449999,0.054899998,9.591842999999999,-0.4460781,-0.9856640999999999,-1
199,200,1583938074884,-0.0613,0.087699994,0.015,9.736558,-0.49242985,-0.9750243000000001,-1
200,201,1583938074894,0.0659,0.0232,0.079399996,9.798107,-0.5963286,-0.9313732,-1
201,202,1583938074904,0.0064999997,-0.0708,0.0030999999,9.718266,-0.6490968,-1.039639,-1
202,203,1583938074914,-0.0824,-0.07719999599999999,-0.1434,9.654637,-0.6714491,-1.1648653999999998,-1
203,204,1583938074924,-0.06359999599999999,-0.10229999599999999,-0.22219999,9.7179985,-0.67332613,-1.1682553999999998,-1
204,205,1583938074935,0.024,-0.0686,-0.20089999,9.774549,-0.6452852,-1.1983937,-1
205,206,1583938074945,0.023599999,-0.074599996,-0.2471,9.747111,-0.6627149999999999,-1.1409234,-1
206,207,1583938074955,-0.0453,-0.1108,-0.0656,9.66137,-0.7051786,-0.9520591,-1
207,208,1583938074965,-0.16309999,-0.14800000000000002,0.08779999599999999,9.541651,-0.7272053,-0.8034079000000001,-1
208,209,1583938074975,-0.22219999,-0.11669999,0.25149998,9.554157,-0.68181115,-0.63092005,-1
209,210,1583938074985,-0.1144,-0.1042,0.366,9.697723,-0.7032728,-0.63422406,-1
210,211,1583938074996,-0.0264,-0.110999994,0.2245,9.774471,-0.69030577,-0.81687284,-1
211,212,1583938075006,0.041899998,-0.078499995,0.043199997000000004,9.796509,-0.6639217,-0.9271976999999999,-1
212,213,1583938075016,0.0415,-0.1148,0.0466,9.777105,-0.75448954,-0.7705307,-1
213,214,1583938075026,-0.0277,-0.1708,0.24479999,9.584621,-0.7792551999999999,-0.6046604,-1
214,215,1583938075036,-0.28329998,-0.1774,0.33299999999999996,9.348888,-0.7289194999999999,-0.5958401999999999,-1
215,216,1583938075046,-0.4312,-0.074599996,0.2039,9.440989,-0.5625608,-0.8563868,-1
216,217,1583938075057,-0.1768,0.13949999,-0.033299997000000005,9.791547999999999,-0.42516232,-0.99156344,-1
217,218,1583938075067,0.17600000000000002,0.21869999,-0.1113,10.105102,-0.39260120000000004,-0.9597684000000001,-1
218,219,1583938075077,0.41149998,0.2382,-0.047799997000000004,10.133918,-0.46096045,-0.8394359,-1
219,220,1583938075087,0.27449998,0.117699996,0.1371,9.794421,-0.69849396,-0.48791915,-1
220,221,1583938075097,-0.019299998999999998,-0.0837,0.43129998,9.59778,-0.83383346,-0.34944808,-1
221,222,1583938075107,-0.18599999,-0.1771,0.5356,9.600816,-0.75434595,-0.34099179999999996,-1
222,223,1583938075117,-0.1372,-0.081599995,0.47849998,9.665086,-0.6571413,-0.52377474,-1
223,224,1583938075128,-0.0984,0.0455,0.309,9.691824,-0.5588066999999999,-0.67322075,-1
224,225,1583938075138,-0.0499,0.1258,0.1072,9.803346000000001,-0.54438406,-0.9382971999999999,-1
225,226,1583938075148,0.0576,0.1592,-0.16319999,9.91211,-0.5472666,-1.0702465,d
226,227,1583938075158,0.1753,0.1743,-0.2733,9.9541235,-0.5879393,-1.0505373,-1
227,228,1583938075168,0.1955,0.1099,-0.23959999,9.890878,-0.74984485,-1.0151032,-1
228,229,1583938075178,0.1081,-0.0354,-0.19999999,9.829654,-0.82592297,-0.84488505,-1
229,230,1583938075189,0.089499995,-0.0854,0.029399997999999997,9.94108,-0.8799745000000001,-0.5292335,-1
230,231,1583938075199,0.18859999,-0.118099995,0.2809,10.023603,-0.88290495,-0.6664787,-1
231,232,1583938075209,0.2678,-0.12329999,0.1479,10.101185000000001,-0.8019618000000001,-0.8405851000000001,-1
232,233,1583938075219,0.34649998,-0.041899998,-0.018099999,10.069122,-0.7067205,-0.94113195,-1
233,234,1583938075230,0.31689999,0.0574,-0.1293,10.025222,-0.62727123,-0.9600653,-1
234,235,1583938075240,0.2676,0.1358,-0.1525,9.96349,-0.5545163000000001,-1.069758,-1
235,236,1583938075250,0.2084,0.21429999,-0.2647,9.951538000000001,-0.5022269,-1.1829942,-1
236,237,1583938075260,0.19839999,0.26459998,-0.3859,10.144874,-0.5211698,-1.276234,-1
237,238,1583938075270,0.3947,0.24859999,-0.47559997,10.457107,-0.6619775999999999,-1.2976477,-1
238,239,1583938075280,0.6990000000000001,0.1072,-0.49719998,10.73992,-0.8698901,-0.9706572,-1
239,240,1583938075290,0.9833,-0.0832,-0.1793,10.844201,-0.9460832,-0.8303283000000001,-1
240,241,1583938075300,1.0906,-0.1586,-0.043399997,10.694189999999999,-0.9594332,-0.8584075000000001,-1
241,242,1583938075310,0.9323,-0.1785,-0.0896,10.719253,-1.0513132,-0.9555068000000001,-1
242,243,1583938075320,0.96019995,-0.2679,-0.2069,10.880939,-1.0324851000000002,-1.187141,-1
243,244,1583938075331,1.653,-0.23089999,-0.6831,11.507854,-1.0156395,-1.4625221000000002,-1
244,245,1583938075341,1.653,-0.23089999,-0.6831,11.8733635,-1.0115694,-1.9122105999999999,-1
245,246,1583938075351,2.4633,-0.20799999,-1.6399,12.251513000000001,-0.9597876000000001,-2.3050417999999997,-1
246,247,1583938075362,2.5298,-0.18969999,-1.3149998999999999,12.284419,-0.9267859,-1.8396854,-1
247,248,1583938075372,2.5298,-0.18969999,-1.3149998999999999,12.212525999999999,-1.052539,-1.4200585,-1
248,249,1583938075382,2.1999,-0.90459996,-0.1301,11.915865,-1.6543455000000002,-0.6783348000000001,-1
249,250,1583938075392,1.9898,-1.2789,0.19839999,11.743636,-1.9669516,-0.35450467,-1
250,251,1583938075402,1.9850999,-1.3793,0.2607,11.814571,-1.9131109,-0.39893144,-1
251,252,1583938075413,2.1373,-1.1264,-0.1831,12.013137,-1.5307952,-0.87522435,-1
252,253,1583938075423,2.2997,-0.83489996,-0.61439997,12.139762,-1.274491,-1.1819792,-1
253,254,1583938075433,2.3846,-0.8407,-0.6206,12.1666155,-1.4213802,-0.8608687,-1
254,255,1583938075443,2.3428,-1.2143999,-0.0213,12.150027,-1.796676,-0.21688594,-1
255,256,1583938075453,2.3309999,-1.6904999,0.55979997,12.108521000000001,-2.106457,0.28256370000000003,-1
256,257,1583938075463,2.2509,-1.8378999,0.76199996,12.009047500000001,-2.1403396,0.17159723,-1
257,258,1583938075474,2.1708,-1.8223,0.3602,11.990936999999999,-1.9569917000000001,-0.19024327,-1
258,259,1583938075484,2.1887999,-1.6147,0.2564,11.973307,-1.6578122,-0.18272547,-1
259,260,1583938075494,2.1383997999999997,-1.3539,0.287,11.850589999999999,-1.3310038,-0.10755711,-1
260,261,1583938075504,1.7258999,-1.2371,0.51629996,11.414548,-1.2481261000000001,0.19403568,-1
261,262,1583938075515,1.1474999,-1.1861,1.1422,10.767069000000001,-1.071501,0.8859886999999999,-1
262,263,1583938075525,0.6878,-1.1765,1.3500999,10.345135,-0.9776196,0.90450066,-1
263,264,1583938075535,0.3662,-1.1076,1.2551,10.073958,-0.75472903,0.68382233,-1
264,265,1583938075545,0.1727,-0.90929997,0.80439997,9.880009,-0.36111265,0.13329957,-1
265,266,1583938075556,0.038599997999999996,-0.6211,0.4378,9.757062,-0.0048841713,-0.11647312,-1
266,267,1583938075565,-0.0949,-0.3718,0.324,9.588797,0.27884787,-0.028443117,-1
267,268,1583938075575,-0.46299999999999997,-0.2022,0.5927,9.068125,0.45854709999999993,0.34058,-1
268,269,1583938075585,-1.1144,-0.1721,0.9137,8.427302000000001,0.562082,0.54986197,-1
269,270,1583938075595,-1.6569999999999998,-0.13149999,0.98539996,7.9752197,0.7441466,0.5927085,-1
270,271,1583938075605,-1.787,-0.0482,0.99249995,8.012905,0.9430185999999999,0.44188344,-1
271,272,1583938075616,-1.7206,0.107499994,0.7655,7.9810424,1.1726798999999999,0.20390937,-1
272,273,1583938075626,-1.9085,0.2346,0.52779996,7.6169806,1.3924965,-0.03269522,-1
273,274,1583938075636,-2.3016,0.36969998,0.4168,7.151078,1.6130503,-0.071749434,-1
274,275,1583938075646,-2.7429,0.5044,0.4042,6.7550774,1.8410933,-0.08962934,-1
275,276,1583938075656,-3.1444,0.68979996,0.433,6.270702,2.0673835,0.056512735999999994,-1
276,277,1583938075667,-3.7222998,0.8002,0.6389,5.537511,2.1672122000000003,0.44455537,-1
277,278,1583938075677,-4.4476,0.75979996,1.1269,4.992542299999999,2.1817212,0.90001875,-1
278,279,1583938075687,-4.8115,0.75079995,1.4539,4.889161,2.3563732999999996,0.7649187,-1
279,280,1583938075697,-4.7562,0.86579996,1.1583999,5.2004647,2.4692743,0.37564066,-1
280,281,1583938075707,-4.3891,0.96559995,0.7829,5.589226,2.5280566,-0.25019407,-1
281,282,1583938075718,-4.0232,0.9655,0.0557,5.759884400000001,2.5754619,-0.8373385,-1
282,283,1583938075728,-3.9111,1.087,-0.4226,5.6043377,2.8627279,-0.8072865,-1
283,284,1583938075738,-4.1626997,1.3132,-0.2586,5.079222,3.1566975,-0.32693306,-1
284,285,1583938075748,-4.7149997,1.5733,0.3375,4.3902383,3.4298854,0.27840734,-1
285,286,1583938075758,-5.4038997,1.8212999,0.8892,3.708628,3.704644,0.59914416,-1
286,287,1583938075769,-6.0836,2.0553,1.1783999,3.1424757999999997,3.870543,0.48124412,-1
287,288,1583938075779,-6.5596,2.1468,0.9917,3.1237342,3.6794379,0.078386165,-1
288,289,1583938075789,-6.519,1.9751999,0.6925,3.4358422999999996,3.4224827000000007,-0.57381356,-1
289,290,1583938075799,-6.0997,1.6694,-0.114,4.2936845,2.9399933999999996,-1.5712668,-1
290,291,1583938075809,-5.3596997,1.2930000000000001,-0.87299997,4.9749694,2.5158846,-1.5525632,-1
291,292,1583938075819,-4.6899,0.9249,-0.82519996,5.196902,2.309447,-1.3163992,-1
292,293,1583938075829,-4.4719,0.7829,-0.5656,4.90569,2.1932514,-0.96253616,-1
293,294,1583938075840,-4.7639,0.7158,-0.20889999,4.1485195,2.006207,-0.31834263,-1
294,295,1583938075850,-5.536299700000001,0.5785,0.4263,3.5656846,1.7488973,0.20104589999999997,-1
295,296,1583938075860,-6.231,0.2606,1.0189999,3.4235550999999997,1.0308954,0.23965959,-1
296,297,1583938075870,-6.2797,-0.2792,0.96999997,4.123179400000001,0.61492676,-0.7574871,-1
297,298,1583938075880,-5.5937,-0.6059,-0.011299999,5.065269,0.43566808,-1.620166,-1
298,299,1583938075890,-4.6626,-0.6951,-0.85719997,5.7713957,0.5710746,-1.8528631999999998,-1
299,300,1583938075901,-3.9659,-0.4578,-1.0620999,5.9436345,0.84160024,-1.5843773,-1
300,301,1583938075911,-3.7982998,-0.095,-0.7876,5.6045194,0.82848954,-0.88512677,-1
301,302,1583938075921,-4.8936996,-0.25169998,0.4078,4.688804599999999,0.38376182,-0.35106659999999995,-1
302,303,1583938075931,-5.6661997,-0.625,0.5452,3.9961717000000005,-0.06589801,-0.19525194,-1
303,304,1583938075941,-5.9379,-1.1310999,0.7675,3.863121,-0.7822719,0.016836027,-1
304,305,1583938075951,-5.5225,-1.9004999,0.5907,4.4412155,-1.7018081000000003,-0.3224798,-1
305,306,1583938075962,-4.1452,-2.2159998,-0.20969999,6.030380999999999,-1.9643466,-1.1172494,-1
306,307,1583938075972,-2.3253,-1.7031,-0.6415,7.752683599999999,-1.5975262,-1.4132686,-1
307,308,1583938075982,-1.3173,-1.3780000000000001,-0.39949998,8.545958500000001,-1.4605108,-0.93866116,-1
308,309,1583938075992,-1.6506,-1.0754,0.4238,7.892907000000001,-1.3387802,-0.10271125,-1
309,310,1583938076002,-3.2470999,-1.2386,1.1185,6.1911182,-1.7969537,0.62892807,-1
310,311,1583938076013,-4.7040997,-1.8756,1.3242999,4.8434415,-2.6603793999999996,0.60586715,-1
311,312,1583938076023,-4.7557,-2.3319,0.85529995,5.431562400000001,-3.2690623,0.060937222,-1
312,313,1583938076033,-4.7557,-2.3319,0.85529995,6.4158287000000005,-3.4759212,-0.2596081,-1
313,314,1583938076043,-1.5982,-2.5091999,-0.2243,8.408791,-3.5689695,-0.7715363000000001,-1
314,315,1583938076053,-0.5182,-2.0649,-0.0262,9.483165,-3.0275254,-0.08247546,-1
315,316,1583938076063,-0.22049999,-1.1782,0.9877,9.176276,-2.4601095,0.87614375,-1
316,317,1583938076074,-1.2353,-0.85889995,1.5733999,7.859474700000001,-2.6316683,1.290082,-1
317,318,1583938076084,-1.2353,-0.85889995,1.5733999,7.203492,-3.0691655,1.4619379,-1
318,319,1583938076095,-2.5788999,-2.053,1.5800999,7.3242460000000005,-4.456519,1.1563516,-1
319,320,1583938076105,-1.594,-2.8827999,0.8937,8.7289715,-5.6033516,0.046323012999999996,-1
320,321,1583938076116,-0.3389,-3.6244,-0.34939998,9.622843,-6.355236,-0.98800087,-1
321,322,1583938076126,0.8329,-4.1315,-1.4326999,11.128403,-6.634753999999999,-1.8753686,-1
322,323,1583938076137,2.2518,-3.5319998,-1.7378999,12.129294,-5.4814196,-1.5881602,-1
323,324,1583938076146,2.7474,-2.3334,-1.3303,11.660289,-4.7119904,-0.76262033,-1
324,325,1583938076156,1.7393,-1.3023,0.0618,9.789105000000001,-4.300321,0.9941013000000001,-1
325,326,1583938076166,-0.33699998,-1.2188,1.591,7.901803999999999,-4.96545,2.2077127,-1
326,327,1583938076176,-1.6590999,-1.9729999,2.4582999,7.669863,-6.074454,2.7161932,-1
327,328,1583938076187,-0.9443,-2.7763999,2.5167,9.243151,-6.722861,2.4165634999999996,-1
328,329,1583938076197,1.0138999,-3.1446,1.6342,11.528445,-7.599483500000001,0.92904603,-1
329,330,1583938076207,2.9429,-3.6855,0.20099999,13.017906,-8.006200999999999,-0.26404214,-1
330,331,1583938076217,4.409,-3.7029998,-1.0636,13.558517000000002,-7.625953699999999,-1.0898023000000001,-1
331,332,1583938076227,4.8135,-3.0266,-1.6802,12.978085499999999,-6.9372473,-0.34476504,-1
332,333,1583938076238,4.1018,-2.1798,-0.5959,11.432696,-6.3169193,1.3376213,-1
333,334,1583938076247,2.4658,-1.4799,1.0253999,9.902045,-6.047016,2.3106346,-1
334,335,1583938076257,0.7561,-1.1237,2.0918999,8.521251,-6.303674,3.2758808,-1
335,336,1583938076267,0.075399995,-1.4535999,2.6818,8.837104,-7.174417,3.556922,-1
336,337,1583938076277,1.1774,-2.412,2.7977,11.104536999999999,-8.32237,3.3255748999999994,-1
337,338,1583938076287,3.3621,-3.0756,2.1773999,12.956164999999999,-9.039002,2.0331752,-1
338,339,1583938076298,5.2609997,-3.5523998999999997,0.574,14.163857,-9.502165,0.6028504,-1
339,340,1583938076308,6.4742,-3.7710998,-0.718,14.553078,-9.641125,0.5337346,-1
340,341,1583938076318,6.7644,-3.6913998,-0.579,13.764897,-9.59371,1.2586701999999999,-1
341,342,1583938076328,5.8536,-3.5224,0.23099999,12.25792,-9.528922999999999,2.3089106,-1
342,343,1583938076338,4.4456,-3.3555,1.4092,11.065819,-9.583385,3.421065,-1
343,344,1583938076349,3.4564998,-3.2861,2.3659,10.615076,-9.498142,3.2830062000000004,-1
344,345,1583938076359,3.261,-3.1079,1.9009,11.206214,-9.416635000000001,2.0390265,-1
345,346,1583938076369,4.1983,-2.8939998,0.5329,12.997728,-9.157343,0.3363566,-1
346,347,1583938076379,5.8519998,-2.5583,-0.9788,13.796357,-8.838559,-0.46140096,-1
347,348,1583938076389,6.8163,-2.0716,-1.8824999,13.346429999999998,-8.807741,0.037090972,-1
348,349,1583938076399,6.401,-2.011,-1.4013,12.058703,-9.083458,0.8835849,-1
349,350,1583938076410,5.1893997,-2.213,-0.5546,11.085623,-9.116124000000001,1.6946926,-1
350,351,1583938076420,4.2664,-2.1833,0.2588,10.601707000000001,-8.948587,1.7630806,-1
351,352,1583938076430,3.7477,-1.8978,0.2651,10.021554,-8.554263,1.5613258999999997,-1
352,353,1583938076440,3.3042,-1.5406,0.1389,9.485942999999999,-8.352939,1.7522299,-1
353,354,1583938076450,2.8102,-1.2959,0.2934,8.970366,-8.188621000000001,1.8412560000000002,-1
354,355,1583938076461,2.3467,-1.0928999,0.3561,8.8448715,-7.9745493000000005,1.5126472,-1
355,356,1583938076471,2.2679,-0.8411,-0.0201,9.400957,-7.685196,0.8044422,-1
356,357,1583938076481,2.7498,-0.5582,-0.6677,9.743778,-7.5550666,0.7471825,-1
357,358,1583938076491,3.1207,-0.64309996,-0.1742,9.452960000000001,-7.994546000000001,1.6109817,-1
358,359,1583938076501,2.5697,-1.0762,0.54719996,8.875009,-8.396369,2.1859732000000003,-1
359,360,1583938076511,2.2261999,-1.1925,0.5656,8.586939,-8.521653,2.0497238999999996,-1
360,361,1583938076522,2.1622,-1.2261,0.39229998,8.505985,-8.498564,1.9437852999999998,-1
361,362,1583938076532,2.0061998,-0.99969995,0.40829998,8.305716,-8.244252000000001,1.9050471999999998,-1
362,363,1583938076542,1.6216999,-0.7581,0.1313,7.8712063,-8.033907000000001,1.5779610000000002,-1
363,364,1583938076552,1.2461,-0.5776,-0.52489996,7.5885468,-7.844439,0.86564755,-1
364,365,1583938076562,1.4908999,-0.2184,-1.1723,7.9337234,-7.483623,0.33234394,-1
365,366,1583938076573,1.9131,0.005699999599999999,-1.2432,8.272838,-7.2776837,0.46719494,-1
366,367,1583938076583,1.7723999,0.0324,-0.7254,7.847245,-7.410628999999999,1.1652771,-1
367,368,1583938076593,1.0771998999999999,-0.2288,0.051099997,7.1353817,-7.6539946,1.8168064,-1
368,369,1583938076603,0.4486,-0.2384,0.46829998,6.608935000000001,-7.5198717,1.9656491000000003,-1
369,370,1583938076613,0.1361,-0.1898,0.23539999,6.445257700000001,-7.582705000000001,1.748045,-1
370,371,1583938076623,0.1608,-0.3066,0.2774,6.5308456,-7.6846119999999996,2.0091662,-1
371,372,1583938076634,0.2856,-0.33409998,0.5322,6.626566,-7.6883845,1.9783863999999998,-1
372,373,1583938076644,0.36069998,-0.33319998,-0.057299998,6.7445710000000005,-7.6007,1.269013,-1
373,374,1583938076654,0.5211,-0.097799994,-0.63019997,6.8488917,-7.4101786999999995,0.85945135,-1
374,375,1583938076664,0.5498,-0.0104,-0.79789996,6.8286557,-7.325587,0.85475874,-1
375,376,1583938076674,0.39799999999999996,-0.0025,-0.6509,6.517314,-7.369860000000001,1.1296897,-1
376,377,1583938076685,0.0471,-0.0157,-0.2834,6.2352099999999995,-7.410992599999999,1.5482537,-1
377,378,1583938076695,-0.2052,-0.13679999,0.3375,6.0647044,-7.549885300000001,2.1578462000000003,-1
378,379,1583938076705,-0.3073,-0.306,0.8523,5.993453,-7.703247999999999,2.5856612,-1
379,380,1583938076715,-0.3265,-0.41509998,1.0800999,5.9875345,-7.8023777,2.6492417,-1
380,381,1583938076725,-0.3013,-0.4843,0.9184,6.1010485,-7.8666573,2.287832,-1
381,382,1583938076735,0.015999998999999997,-0.5136,0.1495,6.637214999999999,-7.7971296,1.3244436000000002,-1
382,383,1583938076746,0.5327,-0.40449998,-0.5383,7.1887155,-7.6975217,0.9082452,d
383,384,1583938076756,1.0846,-0.3646,-0.82979995,7.647636,-7.704072,0.8605048000000001,-1
384,385,1583938076766,1.3642,-0.38619998,-0.69269997,7.510926700000001,-7.7765207,1.2103169,-1
385,386,1583938076776,1.0271,-0.4617,-0.1612,7.032823599999999,-7.8290586,1.8681477,-1
386,387,1583938076786,0.50879997,-0.46289998,0.4877,6.6266812999999996,-7.7677,2.277039,-1
387,388,1583938076797,0.1893,-0.4551,0.71099997,6.605516000000001,-7.8049919999999995,2.2607202999999996,-1
388,389,1583938076807,0.2796,-0.50369996,0.62049997,6.981242999999999,-7.873782,1.9524523999999999,-1
389,390,1583938076817,0.7213,-0.61759996,0.18969999,7.568110000000001,-8.127155,1.3777865,-1
390,391,1583938076827,1.3543,-0.87659997,-0.359,8.153779,-8.297039,1.151247,-1
391,392,1583938076837,2.0744998,-1.0968,-0.64919996,8.96912,-8.543776,1.0475208,-1
392,393,1583938076847,2.7182999,-1.3011,-0.6228,9.341868,-8.614146,1.3486155,-1
393,394,1583938076857,3.0556997999999997,-1.3550999,-0.1467,9.444263000000001,-8.718055,2.0277069,-1
394,395,1583938076868,3.0084999,-1.5047,0.40179998,9.334916,-8.914389,2.4289079,-1
395,396,1583938076878,2.9155998,-1.7286999,0.7553,9.538221,-9.146512,2.6341292999999997,-1
396,397,1583938076888,3.1267,-2.0337,0.893,9.928716,-9.418091,2.3258615000000002,-1
397,398,1583938076898,3.5563,-2.3107998,0.4955,10.700425,-9.558438,1.9090311999999998,-1
398,399,1583938076909,4.3493,-2.4726999,0.1166,11.542715,-9.650892,1.8998374,-1
399,400,1583938076919,5.1177,-2.5712,0.1784,12.112544,-9.603574,2.2291455,-1
400,401,1583938076929,5.5523996,-2.5698,0.5121,12.381212,-9.672518,2.798726,-1
401,402,1583938076939,5.758899700000001,-2.7452,1.1402999,12.772712,-9.862588,3.617658,-1
402,403,1583938076949,6.022,-2.9503999,1.8074,13.059317,-9.839145,3.1098475,-1
403,404,1583938076960,6.2334,-3.0112,1.3031,13.304934,-9.630657000000001,1.8338819,-1
404,405,1583938076970,6.3847,-2.8976,0.0393,13.466945,-9.421835,1.0961039,-1
405,406,1583938076981,6.4470997,-2.7853,-0.6753,13.422488000000001,-9.395739,1.2979254999999998,-1
406,407,1583938076992,6.2847,-2.8892999,-0.44779998,13.002057,-9.516588,1.8740183000000001,-1
407,408,1583938077002,5.3535,-3.1876,0.1539,12.696644000000001,-9.392980999999999,1.7617781000000003,-1
408,409,1583938077013,5.3535,-3.1876,0.1539,12.613783999999999,-9.098474000000001,1.562073,-1
409,410,1583938077023,4.8489,-2.9345999,-0.0137,12.422804,-8.843156,1.5927283,-1
410,411,1583938077033,4.3478,-2.8834999,0.1485,11.969591000000001,-8.709091,1.7278186999999998,-1
411,412,1583938077043,3.8834998999999994,-3.0291,0.3972,11.699334,-8.513552,1.9087151000000002,-1
412,413,1583938077053,3.4189,-2.7728999,0.5405,11.267363000000001,-7.9757853,1.8178886000000003,-1
413,414,1583938077064,2.6125,-2.4192998,0.4037,10.463791,-7.4580436,1.7110593,-1
414,415,1583938077074,1.5850999,-2.1413,0.62119997,9.602433999999999,-6.9985194,1.9970419999999998,-1
415,416,1583938077084,0.6929,-1.8937998999999999,1.0383999,8.906689,-6.5481896,2.3911467,-1
416,417,1583938077094,-0.1116,-1.6536,1.4699999,8.317025,-6.228946700000001,2.6627164,-1
417,418,1583938077104,-0.94629997,-1.6444,1.6529,7.548611,-6.162273,2.8476060000000003,-1
418,419,1583938077114,-1.242,-1.9912,1.8339,7.7421107000000005,-6.2769074,2.7854333,-1
419,420,1583938077125,-0.94079995,-2.1355,1.5630000000000002,8.213213,-6.0547347,2.296729,-1
420,421,1583938077135,-0.3789,-1.7976999,0.987,8.722891,-5.233035,1.7785183,-1
421,422,1583938077145,-0.4421,-1.2688,0.87149996,8.13521,-4.5290537,1.9722092,-1
422,423,1583938077156,-1.4844998999999999,-0.77889997,1.2827,6.7804365,-3.9321410000000006,2.5385146,-1
423,424,1583938077166,-2.9842,-0.41200000000000003,1.9629999,5.5058117,-3.3583083,3.0948408,-1
424,425,1583938077176,-4.1327,-0.0101,2.3688,4.7700734,-2.7244196,3.1089091,-1
425,426,1583938077186,-4.6825,0.41869998,2.0539,4.757566000000001,-2.4195993,2.379808,-1
426,427,1583938077196,-4.3977,0.255,1.2451,5.6995214999999995,-2.6850204,1.6379404,-1
427,428,1583938077206,-3.0842,-0.1182,0.7148,7.3459086,-2.814997,1.197618,-1
428,429,1583938077217,-1.5008999,-0.3581,0.3779,8.655202000000001,-3.0360966,0.960525,-1
429,430,1583938077227,-0.5805,-0.70989996,0.36139998,8.873841,-3.099141,1.2279191,-1
430,431,1583938077237,-0.7559999999999999,-0.7926,0.8096,8.033045,-2.9064077999999998,1.9414008000000003,-1
431,432,1583938077247,-1.8029,-0.7125,1.5666,6.6593,-2.6066728,2.3927364,-1
432,433,1583938077257,-3.2015,-0.5446,1.9824,5.7254366999999995,-2.3179991,2.3493726,-1
433,434,1583938077267,-4.1549997,-0.3457,1.8515999,5.11572,-1.7259799,1.9204561999999998,-1
434,435,1583938077278,-4.5538,0.0826,1.3975999,5.3202705,-1.2120981000000002,1.2680936999999999,-1
435,436,1583938077288,-4.2414,0.42389998,0.75339997,6.1855154,-1.0698155,0.72113353,-1
436,437,1583938077298,-3.2774,0.39479998,0.313,7.505286,-1.127985,0.55803096,-1
437,438,1583938077308,-1.9087,0.23429999,0.2773,8.922711,-1.3136027,0.6063843000000001,-1
438,439,1583938077318,-0.60719997,-0.0495,0.43199998,9.399875,-1.5200403999999998,0.84236634,-1
439,440,1583938077328,-0.3748,-0.31469998,0.765,8.874885,-1.5319156999999999,1.0205524,-1
440,441,1583938077338,-1.0547,-0.3998,0.95,8.01211,-1.3759190000000001,0.9090305000000001,-1
441,442,1583938077349,-1.9203,-0.3076,0.8515,7.2536554,-1.0486315000000002,0.8043943,-1
442,443,1583938077359,-2.6667,-0.107,0.8279,6.6695848,-0.74403167,0.85833085,-1
443,444,1583938077369,-3.1952999,0.110599995,0.93729997,6.465148999999999,-0.3345849,0.8790743000000001,-1
444,445,1583938077379,-3.3195998999999996,0.42929998,0.93439996,6.806628999999999,0.008236053,0.7725993,-1
445,446,1583938077389,-2.9905999,0.6077,0.9122,7.1665925999999995,0.015878346,0.45573149999999996,-1
446,447,1583938077399,-2.5321999,0.5377,0.5317,7.8023679999999995,-0.24317427,-0.30052978,-1
447,448,1583938077410,-2.0033998,0.2641,-0.0139,8.582619000000001,-0.5421909,-0.33157778,-1
448,449,1583938077419,-1.2085,-0.070999995,0.033999998,9.001088000000001,-0.6464344,-0.10838072,-1
449,450,1583938077429,-0.727,-0.19319999,0.41189998,9.086991000000001,-0.33446038,0.23376028,-1
450,451,1583938077439,-0.80439997,0.1055,0.7632,8.265224,-0.045221683,0.42634985,-1
451,452,1583938077449,-1.7544,0.2742,1.0519,6.794169999999999,-0.12551363,0.6789286,-1
452,453,1583938077459,-2.9979,0.103999995,1.2925,5.920219400000001,-0.18097292,0.21891622,-1
453,454,1583938077470,-3.8674,-0.008599999,0.89879996,6.0826993,-0.14769351,-0.48871400000000004,-1
454,455,1583938077479,-3.6959,-0.0245,0.2853,6.892955000000001,0.07128975,-0.8421078000000002,-1
455,456,1583938077489,-2.6703,0.22469999,-0.0543,7.756562700000001,0.3743574,-1.051361,-1
456,457,1583938077499,-1.9487,0.4579,-0.1752,7.8005770000000005,0.29282042,-1.1933755,-1
457,458,1583938077509,-1.9724,0.3493,-0.2228,7.53551,0.25273192,-1.2707465,-1
458,459,1583938077520,-2.2312999,0.2953,-0.2324,7.18318,0.2995242,-1.4341268999999999,-1
459,460,1583938077530,-2.5683,0.3258,-0.341,6.956669000000001,0.31947270000000005,-1.2534508,-1
460,461,1583938077540,-2.7970998,0.32459998,-0.0969,6.961649,0.24982059,-0.9272456,-1
461,462,1583938077550,-2.7898998,0.23539999,0.2868,6.8982215,0.025072081,-1.0149404,-1
462,463,1583938077560,-2.7947,0.0559,-0.0106999995,6.940100999999999,0.17078320000000002,-1.4534911,-1
463,464,1583938077571,-2.7947,0.0559,-0.0106999995,7.021657,0.47985548,-1.9073073,-1
464,465,1583938077581,-2.784,0.6681,-0.7683,6.89622,0.7580425000000001,-2.2364717,-1
465,466,1583938077591,-2.8485,0.696,-1.0532,6.9020529999999995,0.74862856,-2.5424602000000003,-1
466,467,1583938077601,-2.5103,0.6013,-1.1774,7.3019419999999995,0.6171773,-2.6356905,-1
467,468,1583938077612,-1.9943,0.2355,-1.0390999,7.797934,0.19837397,-2.4854877,-1
468,469,1583938077622,-1.4963,-0.1122,-0.608,8.289799,-0.14229219,-2.0745277,-1
469,470,1583938077632,-1.1051999,-0.3081,-0.17189999,8.599694,-0.27444255,-1.7104560000000002,-1
470,471,1583938077642,-1.1456,-0.3338,0.0265,8.443421,-0.30521283,-1.6443378,-1
471,472,1583938077652,-1.4721,-0.2563,-0.1592,8.101375,-0.13993629999999999,-1.9771221999999997,-1
472,473,1583938077662,-1.7228999,-0.0307,-0.49839997,7.931261999999999,0.11203906,-2.2810135,-1
473,474,1583938077673,-1.7702,0.16129999,-0.7831,7.9091783,0.25516444,-2.55061,-1
474,475,1583938077683,-1.6617,0.1255,-0.8091,8.006431,0.11905886,-2.5263709999999997,-1
475,476,1583938077693,-1.6901,-0.08109999400000001,-0.7635,7.952973399999999,-0.15316187,-2.5496043999999998,-1
476,477,1583938077703,-1.5698,-0.4217,-0.8272,8.19651,-0.43627143,-2.5708745,-1
477,478,1583938077713,-0.8206,-0.4472,-0.6681,9.210360000000001,-0.3533746,-2.3962223999999996,-1
478,479,1583938077723,-0.8206,-0.4472,-0.6681,9.810673,-0.22848345,-2.449077,-1
479,480,1583938077734,0.120299995,-0.2737,-0.4605,9.606983,-0.30813375,-2.061379,-1
480,481,1583938077744,-0.3561,-0.361,0.0413,9.027012,-0.34868196,-1.7442047999999999,-1
481,482,1583938077754,-0.9913,-0.3256,0.0821,8.552089,-0.28433537,-1.7959672999999998,-1
482,483,1583938077764,-1.4514999,-0.22909999,0.0067999995999999995,8.078209,-0.12751518,-1.9030265,-1
483,484,1583938077775,-1.6967,-0.13589999,-0.1893,7.922575999999999,-0.0740766,-2.1806962000000003,-1
484,485,1583938077785,-1.5002999,-0.092999995,-0.44309998,8.417783,-0.047520115999999994,-2.2727008,-1
485,486,1583938077795,-0.7439,-0.0802,-0.4165,9.402614999999999,-0.06343677,-2.444451,-1
486,487,1583938077805,0.11109999599999999,-0.0625,-0.6609,10.051136999999999,-0.02600103,-2.6112504,-1
487,488,1583938077815,0.7901,0.0018999999,-0.71739995,10.547597999999999,0.07847236,-2.4273662999999996,-1
488,489,1583938077826,0.84099996,0.096999995,-0.3646,10.15584,0.14096102,-1.9886814,-1
489,490,1583938077836,0.2251,0.0645,0.106,9.418196,-0.034725502000000005,-1.4855063,-1
490,491,1583938077846,-0.4987,-0.1196,0.6152,8.750003,-0.18526332,-1.1953675,-1
491,492,1583938077856,-1.0365,-0.22199999,0.672,8.585789,-0.29701507,-1.5456007999999999,-1
492,493,1583938077867,-0.8885,-0.3047,0.18599999,9.210657000000001,-0.21373516,-1.9400504,-1
493,494,1583938077877,-0.0547,-0.1304,-0.0872,10.041713,-0.07933427,-2.0642424,-1
494,495,1583938077888,0.6214,0.0016,-0.1485,10.419633000000001,-0.031316157000000004,-2.1591868,-1
495,496,1583938077898,0.8364,0.0448,-0.2902,10.395603999999999,0.041697416,-2.3007321,-1
496,497,1583938077908,0.7276,0.1227,-0.3838,10.19633,0.09187988,-2.2538824,-1
497,498,1583938077918,0.5212,0.1366,-0.3374,9.975404,-0.1539376,-2.1883962,-1
498,499,1583938077928,0.33519998,-0.0982,-0.20889999,10.041205,-0.37300706,-1.8177450000000002,-1
499,500,1583938077939,0.44439998,-0.28669998,0.17,10.166298,-0.5173104000000001,-1.5847508999999997,-1
500,501,1583938077949,0.56409997,-0.4375,0.35619998,10.266146,-0.60542655,-1.7145835999999999,-1
501,502,1583938077959,0.635,-0.48169997,0.2296,10.353927,-0.42911756,-1.9240955000000002,-1
502,503,1583938077969,0.7345,-0.2916,0.0308,10.329142,-0.24531949,-1.9018389,d
503,504,1583938077979,0.7053,-0.1125,0.0514,10.124303999999999,-0.14504074,-1.7787482,-1
504,505,1583938077989,0.5089,-0.0133,0.17729999,9.843769,-0.12460384,-1.9240859000000001,-1
505,506,1583938078000,0.2149,0.0067999995999999995,0.0311,9.780142,-0.10569922,-2.1407802000000005,-1
506,507,1583938078010,0.16699999999999998,0.0288,-0.17899999,10.053109,-0.17060125,-2.2041882999999998,-1
507,508,1583938078020,0.434,-0.0241,-0.23689999,10.452893,-0.28985164,-2.1372752,-1
508,509,1583938078031,1.0388,-0.26369998,-0.0491,10.63084,-0.46102747,-2.0460465,-1
509,510,1583938078041,1.0388,-0.26369998,-0.0491,10.484296,-0.48828307,-2.0139258,-1
510,511,1583938078051,0.60109997,-0.253,-0.13,10.147555,-0.3771538,-2.2304192000000005,-1
511,512,1583938078061,0.60109997,-0.253,-0.13,10.001299000000001,-0.24244644,-2.4679432,-1
512,513,1583938078072,0.38439998,0.0515,-0.5358,10.002602,-0.07940131,-2.560886,-1
513,514,1583938078082,0.5018,0.0457,-0.66429996,10.148197,-0.13507129,-2.6906326000000003,-1
514,515,1583938078092,0.6202,-0.21579999,-0.8469,10.277513,-0.40691853,-2.9160037,-1
515,516,1583938078102,0.6202,-0.21579999,-0.8469,10.434353,-0.6040188,-3.1652017000000003,-1
516,517,1583938078112,0.8315,-0.6167,-1.3793,10.423272,-0.7497778,-3.493504,-1
517,518,1583938078122,0.7762,-0.69909996,-1.6466,10.366280999999999,-0.7857004,-3.7615112999999996,-1
518,519,1583938078133,0.7589,-0.6173,-1.9094,10.376824000000001,-0.65709347,-4.0228720000000004,-1
519,520,1583938078143,0.72029996,-0.3611,-2.0825,10.303198,-0.37960547,-4.1807837,-1
520,521,1583938078153,0.5528,-0.1766,-2.3502998,10.097325,-0.20118956,-4.501971,-1
521,522,1583938078163,0.3744,-0.24849999,-2.8004,9.973967,-0.42049843,-5.0453014000000005,-1
522,523,1583938078173,0.4213,-0.6936,-3.2122998,10.117791,-0.8623915000000001,-5.324532,-1
523,524,1583938078183,0.75339997,-1.1585,-3.2577999,10.544897,-1.324865,-5.273421,-1
524,525,1583938078194,1.1745,-1.6632999,-3.2809,10.914735,-1.7101879,-5.4291015,-1
525,526,1583938078204,1.4869,-1.8565999,-3.5725,11.142432000000001,-1.7822055,-5.6713567000000005,-1
526,527,1583938078214,1.5817,-1.7602999,-3.9329,11.135307000000001,-1.5834197,-6.1636424000000005,-1
527,528,1583938078224,1.3884,-1.6001999,-4.4305,10.879377,-1.3723851,-6.5203595000000005,-1
528,529,1583938078234,1.0590000000000002,-1.421,-4.5994997,10.524442,-1.1301686000000002,-6.538478400000001,-1
529,530,1583938078244,0.60969996,-1.2692,-4.6166,10.058635,-1.0023469,-6.4871087,-1
530,531,1583938078255,0.2095,-1.3198,-4.4897,9.757205,-1.0684844,-6.2056656,-1
531,532,1583938078265,0.0459,-1.531,-4.2825,9.68355,-1.217758,-6.006965599999999,-1
532,533,1583938078275,0.0404,-1.6653999,-4.2193,9.680792,-1.2220197,-5.9639754,-1
533,534,1583938078285,-0.0026,-1.675,-4.2792997,9.565171000000001,-1.1640896,-6.010748400000001,-1
534,535,1583938078295,-0.2995,-1.7287999,-4.2397,9.063624,-1.0936714,-5.6626987,-1
535,536,1583938078305,-0.80149996,-1.6414,-3.7805998,8.52989,-0.84110224,-5.0202290000000005,-1
536,537,1583938078316,-1.4215,-1.4696,-3.1236,7.740023,-0.59474844,-4.239949,-1
537,538,1583938078326,-2.3169,-1.3663,-2.3602998,6.7604117,-0.49114653,-3.3501968,-1
538,539,1583938078337,-3.2619998,-1.3459999999999999,-1.5667,5.998232,-0.46932098,-2.8549514,-1
539,540,1583938078347,-3.8061,-1.4796,-1.5042,5.8746339999999995,-0.48242205,-3.0700946,-1
540,541,1583938078357,-3.6843998,-1.411,-1.8771,6.224321400000001,-0.25847802,-3.4537318,-1
541,542,1583938078367,-3.4264,-1.2906,-2.3216,6.2218599999999995,-0.2567063,-3.9863459999999997,-1
542,543,1583938078378,-3.4917,-1.3224,-2.9331,6.1062392999999995,-0.15592957,-3.9162150000000002,-1
543,544,1583938078388,-3.5946,-1.2393999,-2.6773,6.0374300000000005,-0.01478659,-2.8422813,-1
544,545,1583938078398,-3.7143998,-1.1632,-1.5182999,5.5885262,0.081354976,-1.1979245,-1
545,546,1583938078408,-4.263099700000001,-1.1341,0.0835,4.765007499999999,0.22427924,0.44552264,-1
546,547,1583938078418,-5.1145997,-0.98859996,1.6019,3.8679477999999996,0.596252,1.6095068000000001,-1
547,548,1583938078428,-5.9969,-0.6376,2.5623999,3.276369,0.9931723,1.9990531000000002,-1
548,549,1583938078438,-6.4809,-0.2562,2.7213,3.1584022000000003,1.384021,1.5420191,-1
549,550,1583938078448,-6.5374,0.1026,1.9911,3.2306304,1.5052729999999999,0.47876373,-1
550,551,1583938078459,-6.4399,0.21149999,0.86249995,3.7485538,1.4037491000000002,0.051867984000000006,-1
551,552,1583938078469,-5.9802,0.1511,0.505,4.342383,1.1820844,0.45732126,-1
552,553,1583938078479,-5.2257,-0.0665,1.0172,5.3203087,0.7986003,1.996314,-1
553,554,1583938078489,-4.4305997,-0.33229998,2.3237997999999997,5.571383999999999,0.72154534,3.7040312000000006,-1
554,555,1583938078499,-4.2023,-0.36969998,4.4582,4.9211282999999995,0.84367836,6.2820215,-1
555,556,1583938078510,-4.8454,-0.20019999,6.5172,3.7329915000000002,1.0128814,7.3740554000000005,-1
556,557,1583938078520,-6.0376,0.009000000000000001,7.5534,2.9006808,0.927667,7.586573599999999,-1
557,558,1583938078530,-6.8782,-0.0208,7.7067,2.8667404999999997,0.69299686,6.727180000000001,-1
558,559,1583938078540,-5.8566,-0.32729998,5.7539997000000005,4.2443643,0.38129097,5.724565,-1
559,560,1583938078550,-4.1389,-0.2296,5.4575,6.0270295,0.3954455,5.6623730000000005,-1
560,561,1583938078561,-4.1389,-0.2296,5.4575,7.216747,0.5379771,6.1225963,-1
561,562,1583938078571,-1.9519999,0.2916,6.7637,7.848058999999999,0.59766936,7.267858,-1
562,563,1583938078581,-2.3460999,0.2552,7.6144,7.333363,0.44796473,8.163711,-1
563,564,1583938078591,-3.2096,0.23879999,8.5175,6.4011087,0.2662065,9.0106735,-1
564,565,1583938078601,-4.1898,-0.0902,8.917399000000001,5.6137805,-0.12915282,9.301215,-1
565,566,1583938078611,-4.4624,-0.72279996,8.738999,5.4272914000000005,-1.0365074,9.091559,-1
566,567,1583938078621,-3.4285,-1.2309999999999999,8.3112,6.728569,-1.5781715,8.632132,-1
567,568,1583938078632,-1.4796,-0.9896,7.5427,8.677171000000001,-1.3588148000000002,7.8398232000000005,-1
568,569,1583938078642,0.060399997999999996,-0.3821,6.8658,10.046578,-0.89191675,7.3330564,-1
569,570,1583938078652,0.6608,0.30429998,6.986000000000001,10.39208,-0.37295917,7.62445,-1
570,571,1583938078662,0.0554,0.64419997,7.4831996,9.558036,-0.29134563,8.158128,-1
571,572,1583938078672,-1.1875,0.25959998,8.0896,8.343219,-0.92225605,8.764453999999999,-1
572,573,1583938078682,-1.8414999,-0.6418,8.3265,7.8843455,-2.048508,8.778082000000001,-1
573,574,1583938078693,-1.4334999,-1.7949,7.5463996,8.525599,-3.2996887999999998,7.855059599999999,-1
574,575,1583938078703,0.0475,-2.4928,6.6502,10.087825,-4.0672793,6.950501400000001,-1
575,576,1583938078713,1.7483,-2.8797998,5.7584,11.724817,-4.5283833,6.02634,-1
576,577,1583938078723,1.7483,-2.8797998,5.7584,12.984771,-4.175507,5.327817,-1
577,578,1583938078733,3.5781998999999995,-1.9463999,4.7290998,13.195355,-3.762057,5.12838,-1
578,579,1583938078743,3.1341,-1.4753,4.8845997,12.251542,-3.507362,5.6368127,-1
579,580,1583938078754,1.9432,-1.5761,5.6284,11.062552,-4.020334,6.1850944000000005,-1
580,581,1583938078764,1.0467,-2.2391999,5.6646,10.380435,-4.89145,5.8430495,-1
581,582,1583938078774,0.9772,-3.1209,4.7474,10.80938,-5.862768,4.7022505,-1
582,583,1583938078784,2.0591,-3.8367,3.4863,12.120637,-6.6237984,3.4596120000000004,-1
583,584,1583938078794,3.5649998,-4.266,2.4322,13.545895999999999,-6.9856772,2.5385625,-1
584,585,1583938078805,4.8644,-4.1844997,1.8563999,14.864726999999998,-6.709778999999999,2.2703257000000003,-1
585,586,1583938078815,5.6703997,-3.6289999999999996,1.9222,15.045499,-6.278085,2.500514,-1
586,587,1583938078825,5.285,-3.0544,2.4036,14.130875,-5.903747,3.0259264,-1
587,588,1583938078835,3.8751998,-2.8992999,2.7126,12.622566,-6.002685,3.1515262,-1
588,589,1583938078845,2.6211998,-3.1822,2.5017,11.68832,-6.502612999999999,2.7136167999999996,-1
589,590,1583938078855,2.3601,-3.7940998,1.4678999,11.913364999999999,-7.17955,1.3460201,-1
590,591,1583938078865,3.3774998,-4.2609997,-0.28579998,13.510786999999999,-7.633826299999999,-0.7573339,-1
591,592,1583938078876,4.8655,-4.3462,-1.8837999,14.814994,-7.549483,-2.0018878,-1
592,593,1583938078886,5.8677998,-4.1215,-2.8679,15.169164000000002,-7.317025,-2.2190707,-1
593,594,1583938078896,5.8027,-3.8688,-2.4733999,14.377564000000001,-7.110549400000001,-1.1928871,-1
594,595,1583938078906,4.6110997000000005,-3.6769,-1.3232,12.844356,-7.0186696,-0.36644694,-1
595,596,1583938078916,3.0325,-3.5672998,-0.8559,11.732153,-6.855059,-0.35013762,-1
596,597,1583938078927,1.9353,-3.2719,-1.1816,10.6539,-6.603208500000001,-1.3049262,-1
597,598,1583938078937,1.3033999,-3.1643,-2.5458998999999998,10.6683235,-6.4922037,-3.2376885,-1
598,599,1583938078947,1.6182,-3.0630999,-4.1596,11.380177,-6.590567,-4.2594957,-1
599,600,1583938078957,2.6523,-3.2157,-5.2507,12.302116999999999,-6.812806,-4.9433755999999995,-1
600,601,1583938078967,3.2733,-3.4076,-5.7448997,12.23528,-6.923868700000001,-5.4168625,-1
601,602,1583938078977,2.9766998,-3.3962998,-6.1565,11.505461,-6.771061,-5.8221620000000005,-1
602,603,1583938078988,2.1739,-3.2326999,-6.5122,10.500413,-6.516203,-6.137421,-1
603,604,1583938078998,1.18,-2.9143999,-6.7763995999999995,9.879463000000001,-6.204468299999999,-6.2673206,-1
604,605,1583938079008,0.48749998,-2.6220999,-6.9486,9.278564999999999,-6.012338,-6.5352707,-1
605,606,1583938079018,0.0683,-2.4987,-7.1322,9.094126,-5.923561599999999,-6.7541009999999995,-1
606,607,1583938079028,-0.067,-2.4338999,-7.332000000000001,9.175998,-5.8122888,-7.2910147,-1
607,608,1583938079039,0.0335,-2.2979998999999998,-7.8620996,9.270597,-5.5892925,-7.964149000000001,-1
608,609,1583938079049,0.076299995,-2.1103,-8.4746,9.060799000000001,-5.570005,-8.498775,-1
609,610,1583938079059,-0.2031,-2.1269999,-8.8853,8.732592,-5.562564,-8.307526,-1
610,611,1583938079069,-0.4615,-2.1123,-8.5828,8.585655000000001,-5.5362945,-7.6844396999999995,-1
611,612,1583938079081,-0.8757,-1.9971,-7.4888997,8.271192,-5.416613,-7.2273383,-1
612,613,1583938079091,-0.8757,-1.9971,-7.4888997,8.144634,-5.344854,-7.3280287,-1
613,614,1583938079101,-1.0422,-1.8987,-7.567199700000001,8.2534075,-5.2891364,-7.6248527,-1
614,615,1583938079111,-0.94299996,-1.8470999,-7.8708,8.392509,-5.1484623,-7.685397,-1
615,616,1583938079122,-0.84139997,-1.5647999,-7.5789,8.295727000000001,-5.0284265999999995,-7.1800194,-1
616,617,1583938079132,-1.1834999,-1.6508,-6.7913,7.892285,-5.1334558,-6.364267,-1
617,618,1583938079142,-1.6235,-1.6774,-6.1243,7.442089,-5.1484623,-5.6690483,-1
618,619,1583938079152,-1.9145999,-1.7197,-5.5922,7.2134714,-5.2359467,-5.1007123,-1
619,620,1583938079162,-2.0168,-1.8636999,-4.9388,7.165941,-5.4035983,-4.5012045,-1
620,621,1583938079172,-1.8907,-2.1388,-4.547,7.3232408,-5.714452,-4.136376,-1
621,622,1583938079183,-1.6453999,-2.4006,-4.4316,7.586009,-5.9628935,-4.054341,-1
622,623,1583938079193,-1.361,-2.4368,-4.535,7.825295,-5.9682755,-4.1159678,-1
623,624,1583938079203,-1.392,-2.2993999,-4.3115997,7.606225500000001,-5.820812,-3.6870227,-1
624,625,1583938079214,-1.8369,-2.1850998,-3.7315998,7.191655,-5.764959999999999,-3.1945639999999997,-1
625,626,1583938079224,-2.2704,-2.0764,-3.0305,6.764003,-5.622629,-2.3438470000000002,-1
626,627,1583938079234,-2.4886,-1.9893999,-2.5307999,6.5709057,-5.615954400000001,-2.1802943,-1
627,628,1583938079244,-2.5542998,-2.0662,-2.8924,6.688211999999999,-5.848393,-2.5466168,-1
628,629,1583938079254,-2.057,-2.5063,-2.835,7.2890897,-6.390699,-2.113563,-1
629,630,1583938079264,-1.5186,-2.8146,-2.2344,7.570466000000001,-6.582896000000001,-1.7196976000000002,-1
630,631,1583938079274,-1.4117998999999999,-2.761,-2.1248999,7.5718445999999995,-6.514603599999999,-1.7068264,-1
631,632,1583938079284,-1.5805,-2.4759,-2.1502,7.374017,-6.083465,-1.5908034,-1
632,633,1583938079294,-1.8170998999999999,-2.0428,-1.8259999999999998,7.0691104000000005,-5.824585,-1.084784,-1
633,634,1583938079304,-2.1111,-1.8814,-1.0013,6.784708,-5.8878207,-0.086938255,-1
634,635,1583938079314,-2.2944999,-2.1358,0.092,6.648238,-6.2035875,1.0454713,-1
635,636,1583938079324,-2.2396,-2.2661998,0.83559996,6.8072424,-6.295496,1.403912,-1
636,637,1583938079334,-1.8973,-2.2536,0.6678,7.201241499999999,-6.3398075,1.0115406999999998,-1
637,638,1583938079345,-1.3267,-2.2268,0.0866,7.8396025,-6.427407,0.52816087,-1
638,639,1583938079355,-0.6274,-2.3058,0.0301,8.459777,-6.611282000000001,0.8460534,-1
639,640,1583938079365,-0.105399996,-2.5337,0.8847,8.832545,-6.857778999999999,2.1957798,-1
640,641,1583938079375,-0.018299998999999997,-2.494,2.0715,8.496563,-6.676011,3.057702,-1
641,642,1583938079385,-0.5434,-2.2085,2.6429,7.779566,-6.488411,3.295389,-1
642,643,1583938079395,-1.2177,-1.9775,2.8074,7.402603599999999,-6.353809,3.4333712999999997,-1
643,644,1583938079406,-1.3313999,-1.7641,3.0454,7.6923494,-6.145331400000001,3.6824162000000005,-1
644,645,1583938079416,-0.7255,-1.5446999,3.1613,8.417496,-5.943816,3.7443589999999998,-1
645,646,1583938079427,-0.0385,-1.2821,3.2152,8.794803,-5.817555400000001,3.7168927000000003,-1
646,647,1583938079437,0.21669999,-1.1970999,3.1237,8.886013,-5.8435760000000005,3.7907394999999995,-1
647,648,1583938079447,0.3032,-1.1359,3.3325998999999995,8.996749000000001,-5.8612839999999995,4.4886875,-1
648,649,1583938079457,0.41709998,-1.1366999,4.1577997,8.97478,-5.952196,5.6041846,-1
649,650,1583938079468,0.3723,-1.2099,5.2904,8.742896,-6.048328,6.4660106,-1
650,651,1583938079478,0.16929999,-1.2178,6.035,8.761754,-5.8917956,6.690482,-1
651,652,1583938079488,0.29999998,-0.9623,6.1959995999999995,9.047315,-5.618655,6.689514599999999,-1
652,653,1583938079498,0.5992,-0.6768,6.1138997,9.209239,-5.5084743,6.3991265,-1
653,654,1583938079508,0.77169997,-0.5586,5.7542995999999995,9.371222,-5.4251747,6.139174,-1
654,655,1583938079519,0.97249997,-0.4035,5.4944,9.59711,-5.2912145,5.947618,-1
655,656,1583938079529,1.2294999,-0.2613,5.3106,9.827509,-5.269398000000001,6.125259,-1
656,657,1583938079539,1.4233999,-0.2316,5.5014997,9.6455965,-5.250542,6.294816,-1
657,658,1583938079549,1.2591,-0.1891,5.69,9.252402,-5.158231,6.178017,-1
658,659,1583938079559,0.8752,-0.074099995,5.5992,9.058127,-5.040743,5.9085355,-1
659,660,1583938079570,0.6859999999999999,0.086899996,5.2799997,9.249347,-4.905949,5.3599854,-1
660,661,1583938079580,0.8797,0.35029998,4.0636,9.593873,-4.735568499999999,4.4394817,-1
661,662,1583938079590,1.1817,0.35029998,4.0636,9.759111,-4.612554,3.9116945,-1
662,663,1583938079600,1.4139,0.5286,3.3946,9.895800999999999,-4.5665665,3.7160788,-1
663,664,1583938079610,1.5457,0.5857,3.2092,9.805137,-4.7280793,3.9732544,-1
664,665,1583938079620,1.4592999,0.4236,3.4817,9.460659,-5.140907,4.3416643,-1
665,666,1583938079630,0.9690000000000001,-0.103199996,3.7649998999999994,9.302661,-5.2559814000000005,4.1068506000000005,-1
666,667,1583938079641,0.9690000000000001,-0.103199996,3.7649998999999994,9.256855,-5.261095,3.4755285000000002,-1
667,668,1583938079651,0.90999997,-0.1135,3.0072,9.129924,-5.046766799999999,2.6343977,-1
668,669,1583938079661,0.78169996,0.1094,2.1606,9.045629,-4.8490150000000005,2.0086298,-1
669,670,1583938079671,0.5692,0.5085,0.95059997,8.911583,-4.603187999999999,1.4481472,-1
670,671,1583938079681,0.4653,0.5876,1.0136,8.8064,-4.5295806,1.5319922,-1
671,672,1583938079691,0.3312,0.5882,1.1182,8.68375,-4.558742,1.5985318000000002,-1
672,673,1583938079702,0.22749999,0.48259997,1.0993,8.595835000000001,-4.6673145,1.5320209999999999,-1
673,674,1583938079712,0.1647,0.29119998,0.99689996,8.52873,-4.8505855,1.4188135,-1
674,675,1583938079722,0.1647,0.29119998,0.99689996,8.563953999999999,-4.982966,1.3247788,-1
675,676,1583938079732,0.2598,0.0805,0.78169996,8.663955,-5.039823,1.200788,-1
676,677,1583938079743,0.36749998,-0.029299999,0.6454,8.766858000000001,-5.1428986,1.0656687,-1
677,678,1583938079753,0.3658,0.0444,0.2904,8.72495,-4.9463344000000005,0.5658265,-1
678,679,1583938079763,0.2348,0.2722,-0.110199995,8.540357,-4.7547407,0.40969579999999994,-1
679,680,1583938079773,0.0433,0.4001,0.0284,8.366337,-4.674056,0.6667276999999999,-1
680,681,1583938079783,-0.1584,0.36159998,0.41489998,8.144337,-4.7541757,1.1455107,-1
681,682,1583938079794,-0.38939998,0.21689999,0.94079995,7.923323,-4.9120593,1.5379968000000002,-1
682,683,1583938079804,-0.5891,0.0365,1.0606999,7.809943,-5.094660299999999,1.4230847,-1
683,684,1583938079814,-0.53069997,-0.1487,0.7073,7.9599357,-5.2667074000000005,0.90039223,-1
684,685,1583938079824,-0.2438,-0.2611,0.053799997999999995,8.307573,-5.3819547,0.21464497,d
685,686,1583938079834,0.19139999,-0.38149998,-0.49499997,8.7728815,-5.4845896,-0.20182163,-1
686,687,1583938079844,0.5469,-0.4254,-0.7188,9.006575999999999,-5.497298000000001,-0.37575558,-1
687,688,1583938079855,0.59529996,-0.42549998,-0.7549,8.95009,-5.462151,-0.32157958,-1
688,689,1583938079865,0.4637,-0.31379998,-0.6152,8.802091,-5.3400464,-0.18960163,-1
689,690,1583938079875,0.2907,-0.2351,-0.37,8.620764,-5.2463182999999995,0.19283858,-1
690,691,1583938079885,0.087299995,-0.22699999999999998,0.1682,8.326995,-5.3093624,0.89571875,-1
691,692,1583938079895,-0.1648,-0.2972,0.6532,8.157849,-5.4309306,1.1707263,-1
692,693,1583938079906,-0.2783,-0.4245,0.7884,8.193944,-5.5202436,1.0131495000000001,-1
693,694,1583938079916,-0.1349,-0.5196,0.5054,8.528587,-5.543975,0.63462627,-1
694,695,1583938079926,0.2944,-0.5337,0.092599995,9.008739,-5.5001326,0.22902933,-1
695,696,1583938079936,0.7926,-0.4691,-0.29889998,9.588567999999999,-5.4092107,0.034332852999999997,-1
696,697,1583938079946,1.3382,-0.38729998,-0.3531,9.927807000000001,-5.408061,0.20556617,-1
697,698,1583938079956,1.5469998999999999,-0.42859998,-0.0019999999,10.060272,-5.456453,0.83479106,-1
698,699,1583938079966,1.6154,-0.4851,0.8092,10.061939,-5.510265,1.8703696,-1
699,700,1583938079976,1.5444,-0.63379997,1.8711,9.975461,-5.692751,2.6249359,-1
700,701,1583938079986,1.4922999,-0.7945,2.2275999,10.093418,-5.746141400000001,2.4579546000000003,-1
701,702,1583938079996,1.7743,-0.85719997,1.7894,10.672997,-5.7588882,1.8351556,-1
702,703,1583938080007,2.4787,-0.8896,1.0063,11.509225,-5.924413700000001,0.9747561,-1
703,704,1583938080017,3.3885998999999996,-1.1872,0.24849999,12.734059,-6.159084,0.89861095,-1
704,705,1583938080027,4.8245,-1.3033999,0.7608,14.327812,-6.072807,2.3283134,-1
705,706,1583938080037,5.9509,-1.2811999,2.1202,14.67999,-6.2444997,3.9988913999999998,-1
706,707,1583938080050,6.0889997000000005,-1.5282999,3.8414,14.631876,-6.322129,4.7041373,-1
707,708,1583938080060,5.632000000000001,-1.79,5.3215,13.655052,-6.6149015,5.867987,-1
708,709,1583938080070,4.791,-2.0727,4.1615,13.524157,-6.5640583,4.531812,-1
709,710,1583938080080,4.791,-2.0727,4.1615,13.981648999999999,-6.2778077,3.570339,-1
710,711,1583938080090,5.9193997000000005,-1.4301,1.9225999,14.782892000000002,-5.6792955,2.535977,-1
711,712,1583938080101,5.9193997000000005,-1.4301,1.9225999,14.815656,-5.2973723,2.4577725,-1
712,713,1583938080111,6.0004,-1.0502,1.6938,14.025511999999999,-5.11571,3.0788667000000003,-1
713,714,1583938080121,5.1523,-0.97919995,2.3013,12.736922999999999,-5.0065055,3.6937550999999997,-1
714,715,1583938080131,3.1618998,-1.1119,3.0146,12.068337,-4.998203,3.7669125,-1
715,716,1583938080141,2.7812,-1.2464,2.6260998,11.787459,-4.965028299999999,3.2977445,-1
716,717,1583938080151,2.5992,-1.3116,2.2481,11.660768,-4.9196919999999995,2.9719130000000002,-1
717,718,1583938080161,2.4573998,-1.5841999,2.3102,11.610902000000001,-5.101852,3.1233606,-1
718,719,1583938080172,2.3351,-1.8320999,2.5885,11.496391000000001,-5.145148799999999,3.290313,-1
719,720,1583938080182,1.8878,-1.7163999,2.0814,11.062092999999999,-4.771146,2.5770134999999996,-1
720,721,1583938080192,1.3129,-1.2076,1.1249,10.52289,-4.119052,1.6453433000000002,-1
721,722,1583938080202,0.7686,-0.7737,0.7366,10.037652,-3.5394919999999996,1.306468,-1
722,723,1583938080212,0.1783,-0.556,0.64489996,9.513848,-3.2379854,1.2329468000000001,-1
723,724,1583938080222,0.1783,-0.556,0.64489996,9.145745,-3.2335032999999997,1.272748,-1
724,725,1583938080233,-0.46019998,-0.8595,0.7801,9.059486999999999,-3.250368,1.2790112,-1
725,726,1583938080243,-0.4775,-1.0490000000000002,0.72349995,9.1572275,-3.341932,1.1161578,-1
726,727,1583938080256,-0.2446,-1.3549,0.7356,9.526921000000002,-3.6927016000000004,1.1472057,-1
727,728,1583938080266,0.021599998999999998,-1.7908,0.87509996,9.800597,-3.9063795,1.3083546,-1
728,729,1583938080276,0.2607,-2.0118,1.0867,9.839967999999999,-3.5465405,1.2004911,-1
729,730,1583938080286,0.1182,-1.7009,0.81119996,9.458629,-3.1063044,0.61463946,-1
730,731,1583938080296,-0.47439998,-1.2801,0.042999998,8.976341,-2.5612307,-0.06099468,-1
731,732,1583938080306,-0.8104,-0.8516,-0.5212,8.806007000000001,-1.9557755000000001,-0.6423260000000001,-1
732,733,1583938080316,-0.9278,-0.4265,-1.1029999,8.855931,-1.5082992,-1.0864408,-1
733,734,1583938080326,-0.79719996,-0.13949999,-1.3003,9.092536,-1.15005,-0.9883360999999999,-1
734,735,1583938080336,-0.6252,0.009699999,-1.0936999,9.113309,-1.0308379,-0.8735293,-1
735,736,1583938080347,-0.6669,-0.059000000000000004,-1.0160999,9.143121,-1.1371308999999998,-1.0386813,-1
736,737,1583938080356,-0.50049996,-0.3854,-1.1455,9.633042,-1.5785163999999998,-0.85904914,-1
737,738,1583938080366,0.0699,-0.94079995,-0.5714,10.039061,-1.8345043999999997,-0.23815604,-1
738,739,1583938080376,0.1707,-1.1651,-0.0569,9.508132000000002,-1.8461498,-0.12112745,-1
739,740,1583938080386,-0.71819997,-1.2113,-0.0005999999700000001,8.336822,-1.6133472,-0.14716679,-1
740,741,1583938080396,-1.9397999,-0.91999996,-0.1461,7.237288499999999,-0.7541639,-0.48977703,-1
741,742,1583938080407,-2.6404998,-0.2315,-0.40449998,7.0545535,0.028289886,-0.7947122,-1
742,743,1583938080417,-2.7512999,0.4006,-0.7062,7.1622257,0.46043372,-1.0858375,-1
743,744,1583938080427,-2.645,0.66499996,-1.0095,7.1145334,0.37971082,-1.4129621,-1
744,745,1583938080437,-2.7828999,0.24669999,-1.4320998999999999,6.98538,-0.35913026,-1.7029477,-1
745,746,1583938080447,-2.7431997999999997,-0.6324,-1.3313999,7.496255000000001,-1.4023223,-0.9924731999999999,-1
746,747,1583938080457,-2.2317998,-1.5259,-0.5315,7.8279476,-1.7689799,-0.3321524,-1
747,748,1583938080468,-1.9453,-1.7839999,0.0909,7.9602804,-1.4492006000000002,-0.38433638,-1
748,749,1583938080477,-1.8546,-1.3628,-0.0721,7.8265305,-0.71407545,-0.7735953000000001,-1
749,750,1583938080487,-2.215,-0.5067,-0.5153,7.0304199999999994,0.042358216,-1.1993610000000001,-1
750,751,1583938080497,-3.2421,0.0021,-0.833,5.6872153,0.36538392,-1.492076,-1
751,752,1583938080507,-4.2788,0.054199997,-1.0267998999999999,5.2767344000000005,0.24627715,-1.4360901000000001,-1
752,753,1583938080517,-4.4719,-0.1645,-0.8339,5.799254400000001,-0.018799273000000002,-1.0652857,-1
753,754,1583938080529,-3.8606,-0.4628,-0.4727,6.6080255999999995,-0.3954934,-1.0305219,-1
754,755,1583938080539,-3.1805,-0.79569995,-0.4274,7.339224300000001,-0.5683451,-1.084535,-1
755,756,1583938080549,-2.4414,-0.9765,-0.4384,7.9923053,-0.29475498,-1.1737046999999998,-1
756,757,1583938080559,-1.7904999,-0.7191,-0.4833,8.052562,0.2967086,-1.3621763,-1
757,758,1583938080570,-1.7282,-0.17559999,-0.6379,7.588278999999999,0.5465101,-1.4371531000000002,-1
758,759,1583938080580,-2.3623,0.0442,-0.6942,6.621786999999999,0.36975095,-1.4092653999999998,-1
759,760,1583938080590,-3.1532,-0.1716,-0.6476,6.196414,0.19258958,-1.4308802999999999,-1
760,761,1583938080600,-3.5718,-0.3836,-0.65279996,6.2002068,-0.013436261000000001,-1.2304186000000001,-1
761,762,1583938080610,-3.5691,-0.59599996,-0.4425,6.523625,-0.17669210000000002,-1.2860694,-1
762,763,1583938080621,-2.5939,-0.62729996,-0.7295,7.3285556,0.03628652,-1.614439,-1
763,764,1583938080631,-2.5939,-0.62729996,-0.7295,7.929481,0.2963064,-1.8641255,-1
764,765,1583938080641,-1.5029,-0.100099996,-1.1639,8.254796,0.56682247,-1.9587348000000002,-1
765,766,1583938080651,-1.6484,-0.1673,-0.81839997,7.9971223,0.40724415,-1.5878919,-1
766,767,1583938080661,-2.0189,-0.428,-0.64809996,7.649896000000001,0.19584571,-1.5273092,-1
767,768,1583938080671,-2.3397,-0.5453,-0.47439998,7.373978599999999,0.10726024,-1.314388,-1
768,769,1583938080681,-2.4933,-0.6818,-0.1978,7.21984,-0.0486406,-1.0953186000000001,-1
769,770,1583938080692,-2.5781999,-0.7162,-0.2913,7.171591800000001,-0.013589489,-1.336338,-1
770,771,1583938080702,-2.5781999,-0.7162,-0.2913,7.3452673,0.15645629,-1.6971634999999998,-1
771,772,1583938080712,-1.9569999,-0.1048,-1.0554,7.9445834,0.7459758000000001,-2.1047237,-1
772,773,1583938080723,-1.9569999,-0.1048,-1.0554,8.054162,0.80011344,-2.185868,-1
773,774,1583938080733,-1.7131,-0.0128999995,-1.0588,8.115836,0.6315138000000001,-1.8639435000000002,-1
774,775,1583938080743,-1.3999,-0.1521,-0.75549996,8.4515705,0.52866846,-1.6952958999999999,-1
775,776,1583938080753,-0.87049997,-0.16409999,-0.5554,8.961133,0.5098309,-1.443876,-1
776,777,1583938080763,-0.7421,-0.2689,-0.1806,8.8115425,0.30122888,-1.1393048000000001,-1
777,778,1583938080773,-1.3086,-0.5769,-0.2296,8.322187,0.064969055,-1.2564579,-1
778,779,1583938080783,-1.5605999,-0.6124,-0.2346,8.255945,0.14408305,-1.3077896,-1
779,780,1583938080794,-1.2443,-0.42729998,-0.2707,8.713227,0.37963417,-1.310155,-1
780,781,1583938080804,-0.70309997,-0.0415,-0.22209999,9.124609,0.8347431999999999,-1.3883879,-1
781,782,1583938080814,-0.65309995,0.3468,-0.5722,8.984749,1.0476546999999998,-1.8173907,-1
782,783,1583938080824,-0.8685,0.3637,-0.84919995,8.849342,0.9392741,-1.9863638,-1
783,784,1583938080835,-0.80939996,0.15779999,-0.8508,9.048022999999999,0.7085688,-1.8491665000000002,-1
784,785,1583938080845,-0.4069,-0.0262,-0.43799999999999994,9.560478,0.53953815,-1.2164843,-1
785,786,1583938080855,-0.14109999,-0.21079999,0.1171,9.54439,0.29099128,-0.8547013000000001,-1
786,787,1583938080865,-0.2472,-0.3893,0.3132,9.406081,0.33228648,-0.96359915,-1
787,788,1583938080875,-0.3527,-0.2174,0.012399998999999998,9.344225,0.59837806,-1.4435599,-1
788,789,1583938080885,-0.3208,0.101799995,-0.3757,9.576701,0.8844755999999999,-1.6794558999999998,-1
789,790,1583938080896,-0.0534,0.32479998,-0.518,9.773064999999999,1.0081025,-1.8317751,-1
790,791,1583938080906,0.066599995,0.4122,-0.64129996,9.78561,0.97340584,-1.9727550999999999,d
791,792,1583938080916,0.1085,0.32369998,-0.7822,9.885850999999999,0.834341,-2.2763114,-1
792,793,1583938080926,0.20969999,0.1671,-1.1071,9.989261,0.62101763,-2.3917117,-1
793,794,1583938080936,0.33089998,-0.0486,-0.95839995,10.10988,0.41455123,-2.1326303,-1
794,795,1583938080946,0.4529,-0.1783,-0.659,10.24386,0.3321045,-1.7598053,-1
795,796,1583938080957,0.585,-0.2514,-0.1442,10.326718,0.29599994,-1.2695876,-1
796,797,1583938080967,0.59889996,-0.19909999,0.1995,10.216126,0.45955265,-1.3996311000000001,-1
797,798,1583938080977,0.4939,-0.019399998999999998,-0.26029998,10.108253,0.67884237,-2.3571392999999996,-1
798,799,1583938080987,0.4166,0.152,-1.0057,10.052267,0.65655714,-2.9863453,-1
799,800,1583938080997,0.35819998,0.0412,-1.6766,10.064103,0.21811177,-3.6499894,-1
800,801,1583938081007,0.4075,-0.40089998,-2.2798,10.370733,-0.12924857,-4.067337,-1
801,802,1583938081018,0.7805,-0.6658,-2.6562997999999998,10.861947,-0.2256583,-4.3602724,-1
802,803,1583938081028,1.2713,-0.70769995,-2.955,11.204329,-0.12320562,-4.5576596,-1
803,804,1583938081038,1.5067999,-0.5812,-3.0819,11.041417,0.06945100400000001,-4.453311,-1
804,805,1583938081048,1.2911,-0.4477,-2.9394,10.705414,0.19754079,-4.1512103,-1
805,806,1583938081058,0.9284,-0.33589998,-2.6141999,10.246512,0.27132052,-3.898967,-1
806,807,1583938081069,0.42929998,-0.33949998,-2.4536998,9.658439999999999,0.11312124,-4.2428989999999995,-1
807,808,1583938081079,-0.118099995,-0.56079996,-2.9082,9.428289999999999,-0.10734643,-4.990043,-1
808,809,1583938081089,-0.26319999,-0.797,-3.7024,9.578683999999999,-0.3825264,-5.696409,-1
809,810,1583938081099,-0.104899995,-1.0466,-4.2434,9.721043,-0.46079764,-5.8595405,-1
810,811,1583938081109,0.0422,-1.1553,-4.4289,9.632122,-0.53571695,-5.6811914,-1
811,812,1583938081119,-0.057299998,-1.2346,-4.263,9.470016000000001,-0.5904676,-5.3810925,-1
812,813,1583938081129,-0.2759,-1.3441,-3.9018,9.311434,-0.7186149000000001,-4.798555,-1
813,814,1583938081140,-0.41689998,-1.4827,-3.3216998999999996,9.108836,-0.73524016,-4.1754690000000005,-1
814,815,1583938081151,-0.5877,-1.5029,-2.8529,8.778561,-0.7415896,-4.3666024000000006,-1
815,816,1583938081161,-0.92539996,-1.5311999,-3.0929,8.42805,-0.64668345,-5.118784,-1
816,817,1583938081171,-1.2241,-1.4692,-3.7861,8.34817,-0.43214384,-5.131167,-1
817,818,1583938081181,-1.3601999,-1.1287999,-3.6348998999999997,8.341178999999999,-0.27323586,-4.658561,-1
818,819,1583938081192,-1.4418,-1.0785999,-3.1381997999999998,8.244759,-0.1986134,-4.1094365,-1
819,820,1583938081202,-1.6796,-1.0317,-2.5602,7.962866,-0.1465443,-3.4804702000000005,-1
820,821,1583938081212,-2.1327,-1.0073,-2.0514997999999998,7.496159,-0.08472601,-2.9453563999999997,-1
821,822,1583938081222,-2.1327,-1.0073,-2.0514997999999998,6.92905,0.025857377999999997,-2.3859272000000002,-1
822,823,1583938081232,-2.6653,-0.93759996,-1.5314,6.3715167,0.010888829,-2.0858572,-1
823,824,1583938081243,-3.6743998999999996,-0.8659,-1.0684,6.0732374,0.18851943,-1.8629667,-1
824,825,1583938081253,-3.4459998999999994,-0.5222,-0.9605,6.377330000000001,0.51188034,-1.6553223000000001,-1
825,826,1583938081264,-3.1396,-0.3171,-0.8373,6.676595,0.6911486,-1.3966624,-1
826,827,1583938081274,-3.0089,-0.1959,-0.7779,6.7768164,0.75342655,-1.2809361000000001,-1
827,828,1583938081285,-2.9847999,-0.2013,-0.6884,6.726414,0.70428795,-1.0353295,-1
828,829,1583938081295,-3.077,-0.2688,-0.114,6.6226397,0.6634333,0.05959647,-1
829,830,1583938081305,-3.3049,-0.1463,1.3472998999999999,6.2546124,0.87370163,1.5194275,-1
830,831,1583938081315,-3.895,0.1398,2.4187,5.604654,1.1384045,2.366266,-1
831,832,1583938081325,-4.5443,0.3311,2.7761998,4.992054,1.3548308999999998,2.5225310000000003,-1
832,833,1583938081335,-4.8610997000000005,0.5433,2.6202,4.936547,1.6105987,2.3500144,-1
833,834,1583938081346,-4.7476,0.8799,2.4675,5.1490946,1.9178226000000003,2.511259,-1
834,835,1583938081356,-4.5758,1.1546999,2.6399,5.266075,1.9371868000000003,2.8751776,-1
835,836,1583938081366,-4.4727,1.1204,2.9587998,5.592251999999999,1.744674,3.3085282,-1
836,837,1583938081376,-3.9083,1.0314,3.3497999,6.403187,1.618241,4.0196157,-1
837,838,1583938081386,-3.0588999,0.9521,4.1770997,7.1638823,1.4219833999999998,5.1205463,-1
838,839,1583938081396,-2.5024,0.8831,5.0906,7.408110000000001,1.2955409,6.0605197,-1
839,840,1583938081406,-2.4838998,0.78889996,5.9916,6.9523306,1.0115215,6.811619,-1
840,841,1583938081416,-3.1116998,0.5313,6.5181,6.436208000000001,0.7539724,7.1349506,-1
841,842,1583938081426,-3.3758,0.47149998,6.6263,6.6010537,0.7844361999999999,7.129061,-1
842,843,1583938081436,-2.9621,0.64779997,6.4726996,7.2887163,0.9291993000000001,7.026455,-1
843,844,1583938081447,-2.2133,0.9137,6.3497996,7.998252000000001,1.0713093999999999,7.128371700000001,-1
844,845,1583938081457,-1.5411999,1.1169,6.5092998,8.495078,0.92050356,7.4687220000000005,-1
845,846,1583938081467,-1.2207,0.87079996,6.8008,8.619615,0.2621555,8.093465,-1
846,847,1583938081477,-1.1251,0.3967,7.3486,8.797618,-0.22596475,8.790301,-1
847,848,1583938081487,-0.9612,0.0652,8.0313,8.773629,-0.620941,9.578061,-1
848,849,1583938081499,-0.9946,-0.2717,8.7357,8.83427,-1.1100285,9.753567,-1
849,850,1583938081509,-0.82299995,-0.65169996,8.7817,9.559971,-1.4185549,9.716658,-1
850,851,1583938081519,0.0058,-0.8038,8.7758,10.530379,-1.6148603000000001,9.402566,-1
851,852,1583938081529,0.9632,-0.9144,8.3296995,11.235356,-1.7062519,8.565803,-1
852,853,1583938081539,1.578,-0.8703,7.482,11.266691,-1.7076596000000002,7.726586999999999,-1
853,854,1583938081549,1.5356,-0.79289997,6.8075,10.706946,-2.0848804,7.4665574999999995,-1
854,855,1583938081559,0.9819,-1.0857999,6.5694,10.446152,-2.6285653,7.5367455,-1
855,856,1583938081570,0.72099996,-1.5597,6.6835,11.016153,-2.974585,7.5043955,-1
856,857,1583938081580,1.3031,-1.8275,6.7142,11.842535,-3.170852,7.05169,-1
857,858,1583938081590,2.1306998999999998,-1.9585999,6.3307,12.383089,-3.254314,6.0403695,-1
858,859,1583938081600,2.6743999,-1.9662,5.3883,12.482908,-3.3442593,5.1060567,-1
859,860,1583938081610,2.7772,-1.9894999,4.5211,12.104156,-3.4389260000000004,5.1529636,-1
860,861,1583938081620,2.3996,-2.0277,4.6345997,11.505489,-3.8210883,5.328966,-1
861,862,1583938081631,1.8065,-2.3437997999999998,4.8680997,11.24591,-4.312848000000001,4.951985,-1
862,863,1583938081641,1.9373,-3.013,3.4422,11.771408000000001,-4.6390915,3.4627720999999996,-1
863,864,1583938081651,2.7791997999999998,-3.1392,1.7613,12.645752,-4.827744999999999,1.6944244,-1
864,865,1583938081661,3.7389,-3.1994,0.3671,13.567117000000001,-4.912835,0.41123766,-1
865,866,1583938081671,4.2857,-3.0821,-0.0669,13.9741125,-4.795231299999999,0.11958559,-1
866,867,1583938081681,4.0164,-2.8525999,0.54109997,13.515144,-4.6031404,0.7995196999999999,-1
867,868,1583938081692,2.9603,-2.7565,1.5435,12.349637,-4.58368,1.6605704,-1
868,869,1583938081702,1.7957,-2.9924998,1.89,11.27331,-4.884688400000001,1.6677914,-1
869,870,1583938081712,1.2601,-3.3522,0.6565,10.929387,-5.230832599999999,0.06783252,-1
870,871,1583938081722,1.2601,-3.3522,0.6565,11.671752,-5.47326,-2.1367772,-1
871,872,1583938081732,2.9420998,-3.5869,-3.5082998,12.770480000000001,-5.443332700000001,-4.2238984,-1
872,873,1583938081742,3.6871998,-3.4034,-5.0137,13.348545999999999,-5.2711225,-5.624966000000001,-1
873,874,1583938081752,3.5967998999999997,-3.0969,-5.4888997,13.115744,-4.988118,-5.9266357,-1
874,875,1583938081763,2.8957999,-2.8594,-4.9693,12.322382000000001,-4.7757144,-5.407668599999999,-1
875,876,1583938081773,1.9869999999999999,-2.9429998,-4.370899700000001,11.246983,-5.008727599999999,-4.9862123,-1
876,877,1583938081783,1.3816998999999999,-3.2206,-4.4277,10.952898,-5.241166000000001,-5.462285,-1
877,878,1583938081793,1.4638,-3.3095,-5.4832997,11.223998,-5.031443599999999,-6.9395074999999995,-1
878,879,1583938081803,1.7710999,-2.8757,-7.0385,11.384324000000001,-4.572753,-8.633376,-1
879,880,1583938081813,1.714,-2.3943,-8.4258995,11.16671,-3.9889412,-9.636039,-1
880,881,1583938081824,1.2526,-1.7906,-8.5918,10.579603,-3.4310824999999996,-9.475953,-1
881,882,1583938081834,0.4755,-1.4085,-8.081799499999999,9.717672,-3.1102689999999997,-8.902561,-1
882,883,1583938081844,-0.38059998,-1.2739999,-7.7018,8.959304,-3.031816,-8.917616,-1
883,884,1583938081854,-0.7944,-1.4204999,-8.290299000000001,8.879548,-3.2561237999999997,-9.756994,-1
884,885,1583938081864,-0.40219998,-1.7064999,-9.140699,9.4697,-3.4916751000000006,-10.613123,-1
885,886,1583938081874,0.21589999,-1.8235999,-9.8153,9.955579,-3.5299440000000004,-11.072704,-1
886,887,1583938081884,0.3127,-1.9094,-9.8066,9.775803999999999,-3.5678968,-10.831551,-1
887,888,1583938081895,-0.22029999,-1.8031,-9.1222,9.232759,-3.3613633999999997,-10.126832,-1
888,889,1583938081905,-1.0691998999999999,-1.5308,-7.9607,7.892055,-2.9454236000000003,-8.578367,-1
889,890,1583938081915,-2.1055999,-1.3278999,-6.9673,6.970200999999999,-2.6855759999999997,-7.8578467000000005,-1
890,891,1583938081925,-2.9368,-1.1148,-6.4747,6.5014453,-2.5468752,-7.6884521999999995,-1
891,892,1583938081935,-3.1208,-1.0498999,-6.5539,6.648516000000001,-2.5456302,-8.131677,-1
892,893,1583938081945,-2.7449,-1.1523,-7.0923996,7.032536500000001,-2.6476135,-8.318405,-1
893,894,1583938081955,-1.8764,-1.4755,-7.2103,8.315533,-3.2302377,-8.201137,-1
894,895,1583938081966,-1.0364,-1.9351,-6.9414997000000005,8.817165,-3.6107150000000003,-7.6340466000000005,-1
895,896,1583938081976,-0.8735,-2.1906,-6.2892,8.423232,-3.6571046999999997,-6.783568400000001,-1
896,897,1583938081986,-1.6044999,-2.1496,-5.3717,7.415474400000001,-3.4950845,-5.8134760000000005,-1
897,898,1583938081996,-2.6109998,-1.9629999,-4.468499700000001,6.6909222999999995,-3.1835318,-5.0292983,-1
898,899,1583938082007,-3.0881,-1.6392,-3.7735,6.5290550000000005,-2.9040422,-4.310501599999999,-1
899,900,1583938082017,-3.1625,-1.484,-3.0451999,6.5564160000000005,-2.940501,-3.486992,-1
900,901,1583938082027,-3.0981998,-1.6119,-2.4868999,6.7454715,-3.177843,-3.348808,-1
901,902,1583938082038,-2.7380998,-1.9036,-2.4522,7.4209046,-3.4518163,-3.383754,-1
902,903,1583938082048,-2.1513999,-2.1358,-2.5305,7.861907,-3.6624388999999997,-3.2841837,-1
903,904,1583938082058,-1.7702,-2.2853,-2.4278,7.874280499999999,-3.7246308,-2.949618,-1
904,905,1583938082068,-1.8700999,-2.3102999,-2.1134,7.4781837,-3.6197171000000004,-2.5865232999999996,-1
905,906,1583938082078,-2.3042,-2.155,-1.7518,7.057264,-3.4107988,-1.7524981,-1
906,907,1583938082088,-2.7089,-1.9441998999999999,-0.8786,6.755901,-3.2234862,-0.64809126,-1
907,908,1583938082098,-2.9857,-1.7421999,0.1828,6.484178,-3.0887117,0.3532214,-1
908,909,1583938082109,-3.2714,-1.6228,1.0738,6.126523000000001,-3.0584105999999998,1.1184082,-1
909,910,1583938082119,-3.6148,-1.5636,1.7214999,5.958182,-2.955556,1.581169,-1
910,911,1583938082129,-3.7310000000000003,-1.4538,2.006,6.147745,-2.9209259999999997,1.843315,-1
911,912,1583938082139,-3.4821,-1.3517,2.2738,6.500478,-2.745862,2.3999,-1
912,913,1583938082149,-3.1820998,-1.1529,2.6678,6.596591,-2.4290423,3.1258507,-1
913,914,1583938082159,-3.0865,-0.784,3.3188,6.448303,-2.2919502,3.6895797,-1
914,915,1583938082169,-3.2644,-0.5715,3.9262998,6.162751999999999,-2.0992072,4.089545200000001,-1
915,916,1583938082179,-3.5001998,-0.3391,4.1510997000000005,6.1771555000000005,-1.8893602999999999,4.130429,-1
916,917,1583938082189,-3.4505,-0.0262,4.1919,6.23996,-1.6958992,4.770198000000001,-1
917,918,1583938082199,-3.4194,0.1815,4.9653997,5.983531500000001,-1.8866596000000002,6.199833,-1
918,919,1583938082209,-3.6420999,0.0493,6.1663,5.8672786,-2.0493886000000003,6.897025,-1
919,920,1583938082220,-3.7747,-0.1249,7.2158,5.902014,-2.2238111000000003,7.404260000000001,-1
920,921,1583938082230,-3.685,-0.1156,7.3430995999999995,6.146749,-2.183014,7.3782883,-1
921,922,1583938082240,-3.3348,0.0275,7.2997,6.641908,-2.2064006000000003,7.3471727,-1
922,923,1583938082250,-2.9083,0.0817,7.2303,6.9689083,-2.4019492000000002,7.138657000000001,-1
923,924,1583938082260,-2.5572,-0.005,6.9680995999999995,7.415398,-2.4102812,7.132882,-1
924,925,1583938082270,-2.0765,0.0967,6.9153,7.7518697,-2.4858518,7.2608666,-1
925,926,1583938082280,-1.7027999,0.13849999,7.0232,7.971246000000001,-2.7691529,7.6353106,-1
926,927,1583938082291,-1.4569,-0.049799997,7.383599799999999,8.047735000000001,-2.9149787,8.0105295,-1
927,928,1583938082301,-1.3489,-0.0866,7.7574997,7.756237,-2.9895150000000004,8.166822999999999,-1
928,929,1583938082311,-1.6141,-0.0698,7.9175,7.5014744,-2.9937002999999995,8.205638,-1
929,930,1583938082321,-1.7077,0.2119,7.9241996,7.6452800000000005,-2.9244215000000002,8.229236,-1
930,931,1583938082331,-1.3962,0.1205,8.0102,7.9462600000000005,-3.1312804,8.345335,-1
931,932,1583938082341,-1.3962,0.1205,8.0102,8.156136,-3.2808800000000002,8.052113,-1
932,933,1583938082351,-0.8242,0.0717,7.1755,8.391447,-3.3903809999999996,7.575436,-1
933,934,1583938082361,-0.8242,0.0717,7.1755,8.4131,-3.5363986000000005,7.533442,-1
934,935,1583938082371,-0.7334,0.0004,7.0685,8.0003395,-3.6453252,7.3200035,-1
935,936,1583938082381,-0.9967,0.0223,6.8476,7.511310000000001,-3.8865843,7.5180902000000005,-1
936,937,1583938082391,-1.4763,-0.0866,6.9789996,7.392328,-4.0435767,7.5341315,-1
937,938,1583938082401,-0.9073,-0.1576,6.8466,8.301636,-4.1742425,7.29972,-1
938,939,1583938082411,0.1444,-0.4763,6.0794,9.237424,-4.618348,6.4254627,-1
939,940,1583938082422,0.747,-0.7848,5.2078,9.671607,-5.060682,5.687273,-1
940,941,1583938082432,0.86829996,-1.2250999,4.8141,9.667086999999999,-5.6041555,5.4042497,-1
941,942,1583938082442,0.72389996,-1.7092999,4.9817,9.443,-6.1998525,5.6298027,-1
942,943,1583938082452,0.47259998,-2.108,5.0415,9.068221000000001,-6.7355979999999995,5.433756,-1
943,944,1583938082462,0.38099998,-2.3406,4.225,9.089758999999999,-6.9759283,4.662114,-1
944,945,1583938082472,0.38099998,-2.3406,4.225,9.756611,-7.023228,3.6610312000000005,-1
945,946,1583938082483,1.8957,-2.2242,2.2034,10.555786,-7.0519586,2.8456619,-1
946,947,1583938082493,2.4371,-2.3414,1.6516,10.964333,-7.3194485,2.4620726000000004,-1
947,948,1583938082503,2.5321999,-2.4471,1.7084,10.904544999999999,-7.449865299999999,2.636945,-1
948,949,1583938082513,2.2395,-2.4735,1.9253,10.415371,-7.6436996,2.8497512,-1
949,950,1583938082523,1.7968998999999999,-2.7131,1.9512,9.915185000000001,-7.9870186,2.8474336,-1
950,951,1583938082533,1.3643999,-3.1437,1.8496,9.601735000000001,-8.538547,2.6651871,-1
951,952,1583938082544,1.4645,-3.4194998999999995,1.123,9.83993,-8.770047,1.5985126,-1
952,953,1583938082554,2.0569,-3.4331,-0.4242,10.567997,-8.706265,0.13930424,-1
953,954,1583938082564,2.9027,-3.1954,-1.6715,11.202872,-8.502125999999999,-0.7894161999999999,-1
954,955,1583938082574,3.2129998,-2.8281,-2.177,11.228959,-8.137825,-0.85923105,-1
955,956,1583938082584,2.8776,-2.4612,-1.8055999,10.532266,-7.854361,-0.2786755,-1
956,957,1583938082594,1.8885,-2.2215,-1.3320999,9.505871,-7.7581039999999994,0.16636829,-1
957,958,1583938082605,1.1722,-2.3680000000000003,-1.1347,9.082912,-7.9820576,0.25572947,-1
958,959,1583938082615,1.2021998999999999,-2.3964999,-1.449,9.351407,-8.034663,-0.5676748,-1
959,960,1583938082625,1.5558,-2.4938998,-2.4575,9.683683,-8.045178,-1.4125024,-1
960,961,1583938082635,1.9239998999999999,-2.2798998,-3.054,9.910194,-7.770478,-1.5828162000000001,-1
961,962,1583938082646,1.9899,-2.0797,-3.0435,9.655547,-7.767747999999999,-1.424684,-1
962,963,1583938082657,1.6075,-2.0806,-2.8776999,9.385405,-7.759148,-1.3799412,-1
963,964,1583938082667,1.1639999,-1.9074999,-2.9241,8.651353,-7.5188947,-1.7600063000000001,-1
964,965,1583938082677,0.7234,-1.8017,-3.2753,8.311997999999999,-7.546074000000001,-1.8329338,-1
965,966,1583938082688,0.44579998,-1.8291998999999999,-3.2305999,8.234435000000001,-7.8621273,-1.5827972,-1
966,967,1583938082698,0.4393,-2.1657,-3.0825999,8.505028999999999,-8.223346000000001,-2.1477427000000002,-1
967,968,1583938082708,0.84959996,-2.4991,-3.8985999,9.258847,-8.497251499999999,-3.5205107000000004,-1
968,969,1583938082718,1.6732999,-2.6834998,-5.3504996,10.245067,-8.470361,-4.5802517,-1
969,970,1583938082728,2.6842,-2.5879998,-6.1867,10.853185,-8.320243,-4.2167544,-1
970,971,1583938082738,3.148,-2.4308999,-5.7532997,10.265715,-8.170395,-3.0143763999999997,-1
971,972,1583938082749,2.5551999,-2.2791,-4.5186,9.101863999999999,-8.015538000000001,-1.9477501,-1
972,973,1583938082759,1.3974999,-2.1074,-3.4368,8.486555000000001,-7.8846326,-1.4861289,-1
973,974,1583938082770,0.70309997,-1.8991,-2.9078,8.264008500000001,-7.373921000000001,-1.5499486999999998,-1
974,975,1583938082781,0.6362,-1.2557,-3.4931,8.337558999999999,-7.148837599999999,-1.9598936000000002,-1
975,976,1583938082791,0.867,-1.1841999,-3.7301998,8.561991,-7.1361384,-2.0889888,-1
976,977,1583938082801,1.2234,-1.1812999,-3.6717,8.913958000000001,-7.1107024999999995,-1.9087917,-1
977,978,1583938082811,1.4538,-0.9957,-3.283,9.055896,-6.9139276,-1.4079438,-1
978,979,1583938082822,1.1527,-0.9047,-2.6882,8.642407,-6.8698936,-0.82979196,-1
979,980,1583938082832,0.4701,-0.91749996,-2.0056,7.950664999999999,-6.830839,-0.11323616,-1
980,981,1583938082842,-0.0482,-0.6673,-1.2203,7.3729057000000005,-6.556780000000001,0.7586938,-1
981,982,1583938082853,-0.5428,-0.59139997,-0.7,7.0016704,-6.5305586,1.0446188,-1
982,983,1583938082863,-0.8541,-0.5408,-0.8039,6.752434299999999,-6.4743237,0.79692435,-1
983,984,1583938082873,-0.65779996,-0.5329999999999999,-1.1154,7.173967,-6.558849,0.5542769000000001,-1
984,985,1583938082883,0.0625,-0.77419996,-1.4344,8.042928,-6.862146000000001,0.0931536,-1
985,986,1583938082894,1.0258,-0.89669997,-2.0446,8.862807,-6.8083149999999995,-0.45506114,-1
986,987,1583938082905,1.5885999,-0.5717,-2.3165998,9.123986,-6.4352503,-0.63533497,-1
987,988,1583938082915,1.3469,-0.3847,-2.2863998,8.568733,-6.364114,-0.35325009999999996,-1
988,989,1583938082925,0.723,-0.3515,-1.7064999,8.031225,-6.2891755,0.42772892,-1
989,990,1583938082936,0.2545,-0.251,-0.8182,7.716425999999999,-6.1930814000000005,1.2060552,-1
990,991,1583938082946,-0.0132,-0.1674,-0.2145,7.491092999999999,-6.112186,1.4040268999999999,-1
991,992,1583938082956,-0.18519999,-0.1581,-0.18100000000000002,7.485816499999999,-6.2040086,1.259781,-1
992,993,1583938082966,-0.0346,-0.22209999,-0.34669998,7.699178,-6.2955727999999995,1.2180262,-1
993,994,1583938082977,0.1136,-0.45799997,-0.4831,7.9393454,-6.7542919999999995,0.8488690000000001,-1
994,995,1583938082987,0.4217,-0.7916,-0.7589,8.321057000000001,-6.785886,0.7785465,d
995,996,1583938082997,0.8458,-0.70589995,-0.9274,8.529707,-6.500612,0.55341494,-1
996,997,1583938083007,0.92139995,-0.43069997,-1.0948,8.280192999999999,-6.2421246,0.65114623,-1
997,998,1583938083017,0.5847,-0.1899,-0.93909997,7.753325,-6.086616,1.0181487,-1
998,999,1583938083027,0.0424,-0.0941,-0.50229996,7.2806234,-6.1354485,1.5757773000000002,-1
999,1000,1583938083038,-0.40299999999999997,-0.155,0.0786,7.0939717,-6.1543529999999995,2.0523384,-1
1000,1001,1583938083048,-0.56979996,-0.2026,0.61469996,7.1800194,-6.178889,2.3835332,-1
1001,1002,1583938083058,-0.39589998,-0.2155,0.792,7.413338700000001,-6.3418956,2.4136522,-1
1002,1003,1583938083068,-0.1761,-0.4006,0.78679997,7.698220299999999,-6.528375,2.0828023,-1
1003,1004,1583938083078,0.1459,-0.5739,0.32819998,7.969531,-6.6156583,1.4064212,-1
1004,1005,1583938083088,0.4014,-0.6584,-0.3922,8.298456,-6.7366037,0.84623533,-1
1005,1006,1583938083099,0.76379997,-0.79209995,-0.93219995,8.642762,-6.960021,0.54135776,-1
1006,1007,1583938083109,1.0839,-0.99579996,-1.2073,8.823668,-6.997859,0.70470935,-1
1007,1008,1583938083119,1.2326,-1.0066,-1.0215,8.567833,-7.0136228,1.0253984,-1
1008,1009,1583938083130,0.97499996,-1.0309,-0.7025,8.300813,-7.085659,1.1730822,-1
1009,1010,1583938083140,0.97499996,-1.0309,-0.7025,8.268472000000001,-7.098099,1.1741451999999999,-1
1010,1011,1583938083150,0.8605,-1.1811,-0.6888,8.974368,-7.3592973,0.6687963,-1
1011,1012,1583938083160,1.3828,-1.3995,-1.1013,9.473742,-7.632025200000001,0.13117352,-1
1012,1013,1583938083170,2.4364,-1.9609999999999999,-2.0516999,10.130241,-7.956478,-0.2697403,-1
1013,1014,1583938083181,2.4364,-1.9609999999999999,-2.0516999,10.512815,-8.089683,-0.27455747,-1
1014,1015,1583938083191,3.234,-2.1992,-2.0959,10.898492,-8.149461,-0.21236569,-1
1015,1016,1583938083202,3.234,-2.1992,-2.0959,11.104239999999999,-8.259286999999999,-0.09272264,-1
1016,1017,1583938083213,3.8621,-2.5181,-1.8520999,11.671168,-8.436266999999999,0.15532623,-1
1017,1018,1583938083223,4.2632,-2.6259,-1.4483,12.032875,-8.570993,0.5224148000000001,-1
1018,1019,1583938083233,4.513999999999999,-2.807,-1.2008,12.268808,-8.706812,0.7645451999999999,-1
1019,1020,1583938083243,4.6095,-2.8632,-0.6928,12.3138685,-8.655565,1.3744059,-1
1020,1021,1583938083253,4.4876,-2.8579,-0.1013,12.137405000000001,-8.642369,1.8397046000000001,-1
1021,1022,1583938083263,4.2774,-2.8781,0.1303,12.063913000000001,-8.557451,1.9700162,-1
1022,1023,1583938083274,4.2774,-2.8781,0.1303,12.393661999999999,-8.445336,1.8170363,-1
1023,1024,1583938083284,4.8775997,-2.7477,-0.1855,12.96893,-8.362161,1.6168331,-1
1024,1025,1583938083294,5.5137997,-2.8335,-0.3216,13.598854000000001,-8.458198,1.4928805,-1
1025,1026,1583938083304,5.9034,-3.0544,-0.3317,13.859134,-8.592474000000001,1.5732012,-1
1026,1027,1583938083314,5.8181,-3.1218998,0.018299998999999997,13.68019,-8.466625,2.0645106,-1
1027,1028,1583938083324,5.257999999999999,-2.9508997999999997,0.89019996,12.796567,-8.128401,3.2185254,-1
1028,1029,1583938083335,4.2283998,-2.8237997999999997,2.0269999999999997,12.017380000000001,-7.9171557,4.0432606,-1
1029,1030,1583938083345,3.3155,-2.5283,2.9831,11.346428999999999,-7.4754353,4.6621904,-1
1030,1031,1583938083355,2.7512999,-2.3123,3.2073998,10.950408,-7.232385000000001,4.5500364,-1
1031,1032,1583938083365,2.5081,-2.2611,3.0609999,10.90826,-7.0068035,4.3780660000000005,-1
1032,1033,1583938083376,2.4259999,-2.1502,2.9562,10.880067,-6.809779600000001,4.241022,-1
1033,1034,1583938083386,2.3049998,-2.0516999,2.6883,10.869914999999999,-6.617267,3.6297437999999995,-1
1034,1035,1583938083396,2.2893999,-2.0375,2.0700998,11.024399,-6.4208755,3.0403488,-1
1035,1036,1583938083406,2.4168,-1.8457999,1.7644999,11.172955,-5.915948,2.9564178,-1
1036,1037,1583938083416,2.2835999,-1.4419999,1.9781,10.711791999999999,-5.3533683,3.4635766,-1
1037,1038,1583938083426,1.4491,-1.0648,2.8339999,9.651735,-4.91022,4.338935,-1
1038,1039,1583938083436,0.2403,-0.86859995,3.7545,8.2150135,-4.5022297,4.97766,-1
1039,1040,1583938083447,-1.0825,-0.7176,4.2223997,7.2448545,-4.254773999999999,4.5435433,-1
1040,1041,1583938083456,-1.9957999,-0.6714,3.7231998,7.013105,-4.093309,3.7176877999999998,-1
1041,1042,1583938083466,-2.1241999,-0.6624,2.7056,7.355264999999999,-3.895136,2.565454,-1
1042,1043,1583938083476,-1.6941998999999999,-0.5431,1.7203,7.850865400000001,-3.5504860000000003,1.70018,-1
1043,1044,1583938083486,-1.3170998999999999,-0.34989998,1.1423,8.140113000000001,-3.3221655,1.2991992,-1
1044,1045,1583938083496,-1.1925,-0.4053,0.9553,8.258904,-3.3198195,1.1880699,-1
1045,1046,1583938083507,-1.1165,-0.5103,1.055,8.382607,-3.0907803,1.2963069999999999,-1
1046,1047,1583938083517,-1.1089,-0.4331,1.1866,8.185019500000001,-2.7181373,1.1193084999999998,-1
1047,1048,1583938083527,-1.5121,-0.1147,0.9464,7.5679855,-1.9993691000000002,0.6670054,-1
1048,1049,1583938083537,-2.0994,0.31939998,0.73649997,7.2733836,-1.4507233999999998,0.64047766,-1
1049,1050,1583938083548,-2.4761,0.7596,0.8947,6.773751700000001,-0.783469,0.89479935,-1
1050,1051,1583938083558,-2.9743,1.0753,1.2159,6.2882557,-0.47025952,0.97418153,-1
1051,1052,1583938083568,-3.4757998,1.1459,1.2957,6.041768,-0.2581141,0.91669196,-1
1052,1053,1583938083578,-3.6471,1.1846,1.3469,6.170528400000001,-0.1828787,0.92549306,-1
1053,1054,1583938083588,-3.5082,1.0199,1.436,6.683519400000001,-0.47452122,1.2832443,-1
1054,1055,1583938083598,-2.8846998,0.5721,1.9386,7.631087,-0.60935307,1.8615876,-1
1055,1056,1583938083608,-1.9545,0.3974,2.4305,8.184358999999999,-0.71948636,1.4702889,-1
1056,1057,1583938083618,-1.5825,0.12419999400000001,1.8174,8.021371,-0.7437444000000001,0.5432348000000001,-1
1057,1058,1583938083628,-1.8282,0.077599995,0.8991,7.6204853,-0.5313308000000001,-0.19580738,-1
1058,1059,1583938083638,-2.23,0.188,0.1795,7.383067,-0.29946673,-0.6281619,-1
1059,1060,1583938083648,-2.4146,0.3013,-0.1673,7.5433345,-0.016941372,-0.51736784,-1
1060,1061,1583938083658,-2.1759,0.52739996,0.030599998,7.9467381999999995,0.39442077,0.15310441,-1
1061,1062,1583938083669,-1.808,0.8082,0.7378,7.8603271999999995,0.39597222,0.928299,-1
1062,1063,1583938083679,-2.0368,0.6224,1.4185,7.437013,0.04039497,1.1454915,-1
1063,1064,1583938083689,-2.4013999,0.1863,1.5248,7.560755,-0.43032426,0.8450190999999999,-1
1064,1065,1583938083699,-2.2449,-0.2802,1.2684,7.7845073000000005,-0.65992814,0.52665734,-1
1065,1066,1583938083710,-1.8231,-0.6917,0.8067,8.471193,-0.7269946,0.19287689,-1
1066,1067,1583938083720,-1.3324,-0.72139996,0.6513,8.634910000000001,-0.27394456,0.14935988,-1
1067,1068,1583938083730,-1.1753,-0.3748,0.59459996,8.211758,0.25572947,0.07330088,-1
1068,1069,1583938083740,-1.5968,0.0862,0.5038,7.300160400000001,0.52866846,0.08762778,-1
1069,1070,1583938083750,-2.4982998,0.27609998,0.5007,6.41217,0.5714097,0.02581907,-1
1070,1071,1583938083760,-3.389,0.23539999,0.4172,6.0694547,0.3926108,0.28496748,-1
1071,1072,1583938083771,-3.5806,-0.2418,0.8527,6.340832700000001,0.1802355,0.42704898,-1
1072,1073,1583938083781,-3.5806,-0.2418,0.8527,7.0245880000000005,0.14870864,0.13818374,-1
1073,1074,1583938083792,-1.8321999,-0.13939999,0.014099998999999998,8.08816,0.41343075,-0.5161133,-1
1074,1075,1583938083802,-1.3707,-0.0235,-0.4298,8.419833,0.5214284,-0.9182051,-1
1075,1076,1583938083812,-1.6054,0.1047,-0.6179,8.083764,0.69697124,-0.9848021999999998,-1
1076,1077,1583938083822,-2.2807999,0.23449999,-0.4561,7.366709700000001,0.81634617,-0.7540585999999999,-1
1077,1078,1583938083833,-2.2807999,0.23449999,-0.4561,6.810182000000001,0.7862366999999999,-0.5793298000000001,-1
1078,1079,1583938083843,-3.1004999,0.0748,-0.4087,6.8821807,0.747125,-0.88460964,-1
1079,1080,1583938083853,-2.4510999,0.1215,-0.5843,7.6162524000000005,0.8487541,-0.7857291000000001,-1
1080,1081,1583938083863,-1.8702999,0.1345,-0.15269999,7.962664599999999,0.84290266,-0.43574473,-1
1081,1082,1583938083873,-1.8678,-0.0969,0.1651,7.8358774,0.58520037,-0.09131485,-1
1082,1083,1583938083884,-2.0614998,-0.2503,0.3929,7.6790285,0.53177136,0.10264422,-1
1083,1084,1583938083893,-2.2064,-0.2553,0.536,7.547289999999999,0.5688623,0.18422903,-1
1084,1085,1583938083903,-2.2064,-0.2553,0.536,7.591774000000001,0.71387434,0.15027925,-1
1085,1086,1583938083913,-1.8701999,0.2817,0.3121,7.965222,1.2161396,-0.13617262,-1
1086,1087,1583938083923,-1.6735,0.5907,-0.070999995,8.127998,1.5068626,-0.5182201,-1
1087,1088,1583938083933,-1.5651,0.6568,-0.3924,8.258608,1.5230188,-0.8596908000000001,-1
1088,1089,1583938083943,-1.3978,0.5791,-0.7816,8.459442,1.3301705,-1.1820462,-1
1089,1090,1583938083953,-1.2989,0.21939999,-0.79179996,8.451724,0.9963231,-1.0348314,-1
1090,1091,1583938083963,-1.4053999,-0.3655,-0.30699998,8.375281,0.4255933,-0.55225617,-1
1091,1092,1583938083973,-1.0802,-0.65639997,0.33609998,8.934241,0.31496203,0.17718050000000002,-1
1092,1093,1583938083983,-0.5496,-0.31039998,0.7208,9.25495,0.8564634,0.35619017,-1
1093,1094,1583938083994,-0.72529995,0.2768,0.5082,8.7788,1.3272879,-0.029937098,-1
1094,1095,1583938084003,-1.4503,0.4579,0.1162,8.169677,1.3914238,-0.2987964,-1
1095,1096,1583938084013,-1.999,0.3863,-0.21779999,7.7191553,1.306966,-0.62751067,-1
1096,1097,1583938084023,-1.9991,0.1963,-0.4974,7.970719,1.0114832,-0.8810950000000001,-1
1097,1098,1583938084033,-1.3034999,-0.14109999,-0.4698,8.874203999999999,0.7212293000000001,-0.6369055,-1
1098,1099,1583938084044,-0.2547,-0.1801,-0.065,9.874042,0.83119977,-0.345445,-1
1099,1100,1583938084054,0.4513,0.0224,0.07200000000000001,10.306453999999999,1.0226977,-0.25227225,-1
1100,1101,1583938084065,0.4522,0.16759999,0.22909999,10.145361999999999,1.1411723,-0.10109277,-1
1101,1102,1583938084074,-0.1245,0.3531,0.4249,9.344043,1.3099827,-0.04783615,-1
1102,1103,1583938084084,-0.8091,0.311,0.048299998,8.783703,1.2187444,-0.51808614,-1
1103,1104,1583938084094,-1.0626999,0.17549999,-0.1336,8.729824,1.0828878,-0.5172625,-1
1104,1105,1583938084104,-0.866,-0.059299998,-0.0407,9.104249000000001,0.8558314,-0.45104843,-1
1105,1106,1583938084115,-0.2192,-0.1085,0.0387,9.827489,0.8668925999999999,-0.39321409999999996,-1
1106,1107,1583938084125,0.4366,-0.0937,0.0348,10.375675,0.84338146,-0.4649061,-1
1107,1108,1583938084135,0.602,-0.078999996,-0.0711,10.188880000000001,0.77258974,-0.70486253,-1
1108,1109,1583938084145,0.30679998,-0.2347,-0.4035,9.993561,0.55574214,-1.0248908,-1
1109,1110,1583938084155,0.2375,-0.49179998,-0.7252,10.109957000000001,0.37973952,-1.1705923,d
1110,1111,1583938084165,0.44329998,-0.54609996,-0.6326,10.241581,0.32745016,-0.90330356,-1
1111,1112,1583938084175,0.4242,-0.6071,-0.2633,9.9667845,0.2166178,-0.48626235,-1
1112,1113,1583938084186,0.042999998,-0.77419996,0.1955,9.593086999999999,0.009366117,0.05556463,-1
1113,1114,1583938084196,-0.24929999,-0.9166,0.70339996,9.47987,0.07959284,0.31648475,-1
1114,1115,1583938084206,-0.3067,-0.7157,0.7140000000000001,9.387042,0.41739553,0.01133894,-1
1115,1116,1583938084216,-0.43359998,-0.3845,0.32999998,9.259489,0.8441764,-0.41849688,-1
1116,1117,1583938084227,-0.5122,0.0556,-0.1481,9.183612,1.1736951999999998,-0.78008837,-1
1117,1118,1583938084237,-0.5815,0.31579998,-0.3284,9.256155999999999,1.3674818000000002,-0.6236608,-1
1118,1119,1583938084247,-0.46449998,0.4201,-0.1486,9.3110695,1.3150392,-0.32757467,-1
1119,1120,1583938084257,-0.4357,0.3004,0.1251,9.405545,1.1101531,0.0012832921000000001,-1
1120,1121,1583938084267,-0.2889,0.0242,0.49629998,9.555699,0.86144334,0.26887843,-1
1121,1122,1583938084278,-0.18079999,-0.1744,0.62299997,9.701736,0.7133188,0.11745953599999999,-1
1122,1123,1583938084288,-0.032899998,-0.2873,0.34489998,9.82816,0.7907761,-0.21065144,-1
1123,1124,1583938084298,0.075899996,-0.14899999,0.1627,9.779183,1.1232253,-0.16361976,-1
1124,1125,1583938084308,-0.030499997999999997,0.1682,0.2348,9.368473,1.3557024,-0.055057064,-1
1125,1126,1583938084319,-0.4806,0.36969998,0.33069998,8.885831,1.6051016000000002,0.154675,-1
1126,1127,1583938084329,-0.96959996,0.6156,0.5363,8.480319999999999,1.853275,0.49829084,-1
1127,1128,1583938084339,-1.351,0.8355,0.85109997,8.280787,1.8323017,0.86303306,-1
1128,1129,1583938084349,-1.4781,0.76919997,1.1529,8.448534,1.6290531000000001,1.3006836000000002,-1
1129,1130,1583938084359,-1.2528,0.5166,1.7211,8.678971,1.3282553,1.8384501,-1
1130,1131,1583938084370,-1.0475,0.21169999,2.2219,8.851106,1.2257354,2.0093959999999997,-1
1131,1132,1583938084380,-0.9012,0.18349999,2.3209,8.797446,1.3463745,2.0276398999999996,-1
1132,1133,1583938084390,-1.1080999,0.3795,2.3321,8.1861105,1.6844453999999998,1.6387831999999998,-1
1133,1134,1583938084400,-1.8556999,0.98969996,1.8991,7.779498599999999,2.1048865,1.7280008000000002,-1
1134,1135,1583938084410,-1.8556999,0.98969996,1.8991,7.541055,2.1532299999999998,2.2319036,-1
1135,1136,1583938084421,-2.2198,1.1333,2.4963,7.310446000000001,2.0468893,3.2426014,-1
1136,1137,1583938084430,-2.4466,1.0439,3.4924998,7.112704300000001,1.7596425,3.781536,-1
1137,1138,1583938084440,-2.6538,0.76159996,4.0194,6.881634700000001,1.629216,3.7617602,-1
1138,1139,1583938084450,-2.8806998999999998,0.65889996,4.0065,6.630770699999999,1.6544892,3.5971062000000007,-1
1139,1140,1583938084460,-3.1371999,0.68689996,3.8579,6.5140004000000005,1.7748408,3.8135037000000005,-1
1140,1141,1583938084470,-3.2666,0.8739,4.1527,6.3092003,2.1185523999999996,4.290428599999999,-1
1141,1142,1583938084481,-3.4650998,1.1992999,4.5425997,5.717363400000001,2.402591,4.3808045,-1
1142,1143,1583938084491,-4.0463,1.5054,4.6061,4.891565,2.5651764999999997,4.311756,-1
1143,1144,1583938084501,-5.2102,1.4604,4.502,4.6109257,2.2030773,4.2821445,-1
1144,1145,1583938084511,-4.7537,1.0044,4.0463,5.1836767,1.6761711,3.787694,-1
1145,1146,1583938084521,-3.9052,0.47399998,3.7749,6.0495825,1.0580456,3.5614227999999994,-1
1146,1147,1583938084532,-3.9052,0.47399998,3.7749,6.863180000000001,0.5876137,3.4430153,-1
1147,1148,1583938084542,-2.5389,-0.0661,3.7577,7.2804418,0.51017565,3.5128205,-1
1148,1149,1583938084552,-2.7172,0.15709999,4.152,6.9478774,0.7121313,3.8696523000000003,-1
1149,1150,1583938084562,-3.5523,0.5431,4.3944,6.066505,1.0373884,4.0091004,-1
1150,1151,1583938084572,-4.4955,0.75799996,4.282,5.1638427,1.1058913000000001,3.7964089999999997,-1
1151,1152,1583938084582,-4.8304996,0.4103,3.7089999,5.075545,0.5359851999999999,3.0841722000000003,-1
1152,1153,1583938084593,-3.8012998,-0.4506,2.6239998,6.341933999999999,-0.525374,1.8919461,-1
1153,1154,1583938084603,-2.0142,-1.4446,1.4556999,8.147085,-1.6304418,0.667082,-1
1154,1155,1583938084613,-0.3118,-2.2436,0.5039,9.94854,-2.6517508,-0.40279093,-1
1155,1156,1583938084623,0.6877,-2.559,0.1372,10.749141999999999,-2.7634642000000005,-0.65247744,-1
1156,1157,1583938084633,1.1977,-1.9805,0.22489999,10.916122999999999,-1.9739906000000003,-0.40481162,-1
1157,1158,1583938084644,0.6279,-1.0897,0.87799996,10.132577000000001,-1.4933115,0.17479588,-1
1158,1159,1583938084654,-0.8939,-1.0397,1.3126999,8.364785000000001,-1.7454879,0.21226993,-1
1159,1160,1583938084665,-1.6893,-1.4506999,0.541,8.233535,-2.3987315,-0.9982097,-1
1160,1161,1583938084675,-0.8333,-2.3021998,-0.97059995,9.598623,-3.5701091,-2.6955552000000003,-1
1161,1162,1583938084685,1.1661,-3.4636,-2.7336,11.7499275,-4.7224574,-4.781853,-1
1162,1163,1583938084695,3.0331,-4.1261997,-4.0223,13.335042999999999,-5.2532907,-5.642683,-1
1163,1164,1583938084705,3.9780998,-3.9968,-4.3719997,13.94498,-4.4471435999999995,-5.2997765999999995,-1
1164,1165,1583938084715,4.398,-3.0094,-3.7240998999999997,13.819284,-4.032324,-4.844907,-1
1165,1166,1583938084725,4.398,-3.0094,-3.7240998999999997,12.843053999999999,-3.3838114999999998,-4.642711599999999,-1
1166,1167,1583938084735,2.622,-1.6430999,-3.35,11.958089999999999,-3.0176708999999997,-5.0372663,-1
1167,1168,1583938084745,2.0588999,-1.9772999,-4.377,11.849297,-3.5449028,-6.0185633,-1
1168,1169,1583938084755,2.4507,-2.2503,-4.5281,12.266961,-3.7900116,-5.7812977,-1
1169,1170,1583938084766,2.7680000000000002,-2.59,-4.2932,12.23961,-4.1395936,-5.8459415,-1
1170,1171,1583938084776,2.517,-2.6763,-4.508,11.869207000000001,-4.2201734,-6.2694855,-1
1171,1172,1583938084786,1.8705,-2.7617,-5.3255,11.157324000000001,-4.3539805,-7.4823594,-1
1172,1173,1583938084796,1.5917,-2.8128,-6.4168997,11.804631,-4.195196599999999,-8.365953999999999,-1
1173,1174,1583938084806,2.4363,-2.4754999,-6.9667997,12.597217,-3.8439292999999997,-8.516683,-1
1174,1175,1583938084817,3.2691998,-2.0702999,-7.2679,12.75964,-3.667965,-8.7426195,-1
1175,1176,1583938084827,3.0914,-1.9624,-7.3855996,12.003091,-3.7902129,-8.262208,-1
1176,1177,1583938084837,2.2375,-2.0776,-6.8422,11.071247999999999,-3.9272952000000005,-7.358942999999999,-1
1177,1178,1583938084847,1.3259,-2.1948,-5.9311,10.2989645,-3.9524152000000004,-6.8444963,-1
1178,1179,1583938084857,0.5726,-2.2257,-5.5564,9.779375,-4.1304574,-6.894707,-1
1179,1180,1583938084868,0.0652,-2.4263,-5.7244,9.729547,-4.132612,-7.232625,-1
1180,1181,1583938084878,0.2348,-2.3107,-6.0652,10.269363,-4.064884999999999,-7.672975999999999,-1
1181,1182,1583938084888,0.81549996,-2.2122,-6.5579,10.752082000000001,-4.0104218000000005,-8.159535,-1
1182,1183,1583938084898,1.2386,-2.128,-7.1182,10.919964,-4.1234283,-8.642236,-1
1183,1184,1583938084909,1.3869,-2.2235,-7.6008,10.944949000000001,-4.290477,-8.584897999999999,-1
1184,1185,1583938084919,1.3388,-2.3783998,-7.4245996,10.654447,-4.5371656,-7.748642,-1
1185,1186,1583938084929,1.0052,-2.6252,-6.5193996,10.1363125,-4.776413,-6.7397732999999995,-1
1186,1187,1583938084939,0.43449998,-2.8560998,-5.6057,9.496457000000001,-4.9446487,-6.1158733,-1
1187,1188,1583938084949,-0.1672,-2.9492,-5.0727997,9.06937,-4.6413035,-5.586161,-1
1188,1189,1583938084959,-0.5054,-2.6745,-4.6698,8.803958,-4.218861,-5.18315,-1
1189,1190,1583938084970,-0.77559996,-2.2633,-4.303,8.289109,-3.9411817000000005,-4.823320400000001,-1
1190,1191,1583938084980,-1.3007,-1.9971999,-3.9805,7.886692,-4.033951999999999,-4.641237,-1
1191,1192,1583938084990,-1.7066,-2.0971,-3.8346998999999995,7.929452,-4.1858883,-4.561308400000001,-1
1192,1193,1583938085000,-1.6003,-2.2758,-3.7758,8.443382000000001,-4.3784776,-4.689197,-1
1193,1194,1583938085010,-1.1488,-2.4157999,-3.9629998,8.613571,-4.4233165,-4.756915,-1
1194,1195,1583938085021,-0.98099995,-2.4343998,-4.0752,8.511358,-4.5514255,-4.3543634,-1
1195,1196,1583938085031,-1.0784999,-2.5437999,-3.7192,8.405622,-4.5542026,-3.3410702000000003,-1
1196,1197,1583938085041,-1.3829,-2.5096998,-1.8778,8.192144,-4.528958,-2.3196272999999996,-1
1197,1198,1583938085051,-1.3734,-2.3337998,-1.7445998999999999,8.229638000000001,-4.3317623,-2.324291,-1
1198,1199,1583938085061,-1.2947,-2.2048,-2.2005,8.324553,-4.2546115,-2.674419,-1
1199,1200,1583938085071,-1.1268,-2.1715,-2.0125,8.494896,-4.2592754,-2.3160837000000005,-1
1200,1201,1583938085081,-1.095,-2.273,-1.4117,8.439973,-4.3641605000000006,-1.6451995,-1
1201,1202,1583938085091,-1.3957,-2.2147,-0.66819996,8.139769,-4.3029933,-0.88862234,-1
1202,1203,1583938085101,-1.5869,-2.1203,-0.0625,7.991242,-4.2506466,-0.28909507,-1
1203,1204,1583938085111,-1.5869,-2.1203,-0.0625,8.281735000000001,-4.1871715,0.23240994,-1
1204,1205,1583938085121,-0.47239998,-1.9215,0.8042,9.26896,-4.113162,0.59457606,-1
1205,1206,1583938085132,0.3032,-1.7242,0.9754,9.971955,-3.9557862,0.7644303000000001,-1
1206,1207,1583938085142,0.68649995,-1.6179,1.0643,10.266336,-3.9364412000000004,0.95125467,-1
1207,1208,1583938085152,0.62729996,-1.724,1.6984999,10.049547,-4.1515074,1.8178406999999999,-1
1208,1209,1583938085162,0.62729996,-1.724,1.6984999,9.523014,-4.5812664000000005,2.8327525000000002,-1
1209,1210,1583938085173,0.15799999,-2.0686998,2.6983,9.401656,-4.738154,3.5291395,-1
1210,1211,1583938085183,0.3708,-2.3822,4.6621,10.0221195,-4.8229565999999995,4.7677846,-1
1211,1212,1583938085193,1.1381,-2.1283,5.2681,10.853767999999999,-4.4932847,5.4013095,-1
1212,1213,1583938085203,1.5819999999999999,-1.6990999,5.5393996,11.139541,-4.110126,5.7199583,-1
1213,1214,1583938085213,1.7013999,-1.3629,6.0699997,11.172131,-3.9031138,6.436706,-1
1214,1215,1583938085223,1.7536,-1.2586,6.7289996,11.249702000000001,-3.910804,7.105684299999999,-1
1215,1216,1583938085234,1.8693999,-1.2804999,7.4128,11.412891,-3.970094,7.854102,-1
1216,1217,1583938085244,2.0936,-1.2709999,8.0142,11.6026945,-3.9388928,8.260810000000001,-1
1217,1218,1583938085254,2.1591,-1.1406,8.2002,11.575122,-3.768828,8.444511,-1
1218,1219,1583938085264,2.0361,-0.8508,8.4890995,11.394255000000001,-3.4450839999999996,8.806956,-1
1219,1220,1583938085274,1.8528999,-0.5949,8.7709,11.239311,-3.320413,8.99877,-1
1220,1221,1583938085285,1.9143,-0.4296,8.804299,11.517566,-3.0928202000000002,8.842486,-1
1221,1222,1583938085295,2.4176,-0.1744,8.4004,12.036782,-2.8854728,8.394703,-1
1222,1223,1583938085305,2.8325999,-0.115899995,7.9716997,12.349226,-2.942924,8.063279,-1
1223,1224,1583938085315,3.0598998,-0.2782,7.7465,12.610231,-3.2380812000000003,7.9224806,-1
1224,1225,1583938085325,3.2942998,-0.508,7.6425,12.858778,-3.2327084999999998,7.890388499999999,-1
1225,1226,1583938085335,3.4268,-0.3487,7.6643996,12.632612,-2.9567337000000005,7.9022064,-1
1226,1227,1583938085346,2.9759,-0.166,7.5959997,12.028967999999999,-2.8390827,7.7515345,-1
1227,1228,1583938085356,2.3841999,-0.1231,7.3357,11.694814,-2.7200525,7.206164,-1
1228,1229,1583938085366,2.2035,0.013599999,6.624399700000001,11.706296,-2.449843,6.347383,-1
1229,1230,1583938085376,2.2976,0.18949999,5.7552,11.883573,-2.313153,5.4849153,-1
1230,1231,1583938085387,2.4803998,0.25759998,4.9722,12.034875999999999,-2.1863372,4.8606606,-1
1231,1232,1583938085397,2.5551,0.3532,4.4628997,11.989214,-2.0708504,4.4873753,-1
1232,1233,1583938085407,2.3737,0.36519998,4.1245,11.763297,-2.0845644,4.122624,-1
1233,1234,1583938085417,2.2203,0.2728,3.8732,11.729692,-2.1097035,4.113468,-1
1234,1235,1583938085428,2.1936998,0.18599999,3.9331,11.714417,-2.1899952999999996,4.1346617,-1
1235,1236,1583938085438,2.1374,0.0077,3.8978,11.570306,-2.336243,3.4048326,-1
1236,1237,1583938085448,1.9638,-0.21159999,3.0356,11.586921,-2.4408790000000002,2.3970267999999995,-1
1237,1238,1583938085458,2.0263,-0.3811,2.1155999,11.73833,-2.4997764,1.9084374,-1
1238,1239,1583938085468,2.1778998,-0.501,1.7206,11.905934,-2.4678664,1.6508021000000002,-1
1239,1240,1583938085479,2.2905,-0.5045,1.5139999,11.805435000000001,-2.44584,1.7209903999999998,-1
1240,1241,1583938085489,2.1187,-0.5994,1.6169,11.681578,-2.553809,1.4631733,-1
1241,1242,1583938085499,2.0253,-0.7662,1.3702999,11.852294,-2.6588662,1.1023862,-1
1242,1243,1583938085509,2.2364,-0.9928,0.91929996,12.144771,-2.9147396,0.28128996,-1
1243,1244,1583938085519,2.4675,-1.29,0.2365,12.166337,-3.0223157000000005,-0.08892065,-1
1244,1245,1583938085529,2.4631998999999998,-1.4944998999999999,-0.0884,11.893303,-3.2090634999999996,0.047433924,-1
1245,1246,1583938085540,2.1743,-1.7746998999999999,0.053299997,11.575830999999999,-3.1859740000000003,0.054961298,-1
1246,1247,1583938085550,1.8464999,-1.8443999,0.097899996,11.489956,-2.7033026,-0.049243942,-1
1247,1248,1583938085560,1.7451999,-1.4650999,0.050499998,11.355526,-2.1255722,-0.09089347,-1
1248,1249,1583938085570,1.6057,-0.9777,0.0393,11.03909,-1.9998958999999998,0.106034406,-1
1249,1250,1583938085580,1.2813,-0.95949996,0.24769999,10.870738000000001,-2.2917585,0.17195156,-1
1250,1251,1583938085591,1.1473,-1.7766998999999999,-0.0692,10.962771,-2.6327984,-0.45571235,-1
1251,1252,1583938085601,1.1473,-1.7766998999999999,-0.0692,11.135384,-2.6492703,-0.982226,-1
1252,1253,1583938085612,1.3521,-1.9258,-1.3205,11.132598,-2.5653584,-1.7785566000000002,-1
1253,1254,1583938085622,1.3083999,-1.6847999,-1.4495,11.108319999999999,-2.1374762,-1.8559564,-1
1254,1255,1583938085632,1.1577,-1.2254,-1.3952,10.851432,-1.5893382,-1.8503634999999998,-1
1255,1256,1583938085643,0.4791,-0.9981,-1.1468999,10.093428,-1.2980212,-1.5929677,-1
1256,1257,1583938085653,-0.44239998,-0.97929996,-0.7391,9.209661500000001,-1.1729865,-1.266255,-1
1257,1258,1583938085663,-0.9988,-1.0137,-0.46249998,8.702349,-1.1282053,-1.0324084999999998,-1
1258,1259,1583938085673,-1.0533,-1.2531999,-0.1875,8.784450999999999,-1.3346046,-0.8691909999999999,-1
1259,1260,1583938085685,-0.9209,-1.5906999,-0.059499998,8.944709,-1.4839166000000001,-0.95678043,-1
1260,1261,1583938085695,-0.72959995,-1.5511999,-0.4258,9.120711,-1.2212343,-1.5005898000000002,-1
1261,1262,1583938085705,-0.5870000000000001,-1.2272999,-1.0062,9.162581,-0.73766315,-2.1721537,-1
1262,1263,1583938085715,-0.6886,-0.9464,-1.4692999,8.99334,-0.48772764,-2.4857178,-1
1263,1264,1583938085725,-0.9411,-0.90709996,-1.6794,8.631461,-0.35896742,-2.7035422000000002,-1
1264,1265,1583938085735,-1.2188,-0.89049995,-1.6751,8.339167,-0.31838095,-2.4947581000000003,-1
1265,1266,1583938085745,-1.5588,-1.0256,-1.3500999,7.8788100000000005,-0.45647848,-2.37863,-1
1266,1267,1583938085756,-1.9761,-1.2682999,-1.3708,7.784747,-0.42938572,-2.5588367,-1
1267,1268,1583938085766,-1.805,-1.1254,-1.4024,8.002428,-0.0049799397,-2.5252316,-1
1268,1269,1583938085776,-1.6836,-0.8326,-1.3489,7.9876122,0.35976234,-2.52278,-1
1269,1270,1583938085786,-1.7969998999999999,-0.59999996,-1.1557,7.492501,0.7161536000000001,-1.9899455000000001,-1
1270,1271,1583938085797,-2.3014,-0.44919997,-0.6204,6.6938334,0.789646,-1.3463075,-1
1271,1272,1583938085807,-3.1276999,-0.51559997,0.0343,5.973648000000001,0.6862165,-1.006168,-1
1272,1273,1583938085817,-3.9533,-0.8329,0.3459,5.458119,0.45298296,-1.0176123,-1
1273,1274,1583938085827,-4.1228,-1.0602,0.17459999,5.9166183,0.65162504,-1.5476981,-1
1274,1275,1583938085837,-3.5489,-0.84279996,-0.3735,6.441025,1.0165206,-2.4566426,-1
1275,1276,1583938085847,-3.1037998,-0.56909996,-1.2516,6.403848,1.2387025,-2.8720844,-1
1276,1277,1583938085857,-3.2071,-0.4351,-1.474,6.088828599999999,1.473478,-2.43113,-1
1277,1278,1583938085868,-3.5335998999999996,-0.2385,-0.87759995,5.7938339999999995,1.7628220000000001,-1.7109444,-1
1278,1279,1583938085878,-3.9659998,0.0036,0.027099999,4.9907517,2.0646255,-0.9770736999999999,-1
1279,1280,1583938085888,-4.6721,0.1488,0.5018,4.274129,2.1990453999999997,-0.93761724,-1
1280,1281,1583938085898,-5.3206,0.19399999,0.504,3.9381839999999997,2.2408577999999997,-1.0545022,-1
1281,1282,1583938085909,-5.5796,0.1643,0.3656,3.8850806,2.2417773999999997,-1.3625114999999999,-1
1282,1283,1583938085919,-5.5863,0.1192,0.1294,4.047139,2.3452547000000004,-1.6468086,-1
1283,1284,1583938085929,-5.3796,0.2137,-0.2233,4.273037,2.5208454,-2.0706685,-1
1284,1285,1583938085939,-5.1745996,0.3357,-0.537,4.2958684,2.7144787,-2.1820755000000003,-1
1285,1286,1583938085949,-5.1468,0.51019996,-0.6254,4.1868935,3.008161,-2.145473,-1
1286,1287,1583938085960,-5.3257,0.86289996,-0.5204,3.7518002999999998,3.284356,-1.8836143,-1
1287,1288,1583938085970,-5.7404,1.0605999,-0.2783,3.5091910000000004,3.4468365,-1.8842463,-1
1288,1289,1583938085980,-5.9105,1.1847,-0.2787,3.4072362999999997,3.6512535,-1.7008599999999998,-1
1289,1290,1583938085990,-6.013099700000001,1.3946999,-0.069299996,3.2207854,3.5858822,-1.4162181999999999,-1
1290,1291,1583938086001,-6.185,1.3284,0.2444,3.1048869999999997,3.5027747000000002,-1.6578218999999996,-1
1291,1292,1583938086011,-6.3006997,1.2557,0.0317,3.38317,3.1345177000000004,-2.0499156000000003,-1
1292,1293,1583938086021,-5.6038,0.7127,-0.4299,3.913045,2.8058127999999996,-2.2332346000000003,-1
1293,1294,1583938086031,-5.2620997,0.47349998,-0.7752,4.2035956,2.519495,-2.6049395,-1
1294,1295,1583938086042,-5.2759,0.2608,-0.8736,4.131329,2.219176,-2.5870306,-1
1295,1296,1583938086052,-5.5267,-0.056599997,-0.54899997,3.8859807999999996,1.8185973000000002,-2.2665331,-1
1296,1297,1583938086062,-5.7888,-0.3412,-0.32979998,3.6511097,1.477165,-2.0654874,-1
1297,1298,1583938086072,-5.7888,-0.3412,-0.32979998,3.6162214,1.2770001,-1.9825808999999996,-1
1298,1299,1583938086083,-5.911299700000001,-0.44959998,-0.21409999,3.9808967000000006,1.2535945,-2.07222,-1
1299,1300,1583938086093,-5.0761,-0.15799999,-0.2277,4.4544697,1.4564694999999999,-1.9642221999999998,-1
1300,1301,1583938086103,-5.3181,-0.1512,-0.13679999,4.0280046,1.2019084999999998,-1.7586656999999999,-1
1301,1302,1583938086113,-5.8157997,-0.4023,0.2434,3.6608013999999995,0.8060415,-1.3170121000000001,-1
1302,1303,1583938086124,-6.0903,-0.7999,0.6498,3.4545267,0.09298122,-1.0333374,-1
1303,1304,1583938086134,-6.0249,-1.5850999,0.6161,3.772879,-0.7518847,-1.1035354,-1
1304,1305,1583938086144,-5.5102997,-2.0237,0.41959998,4.4170723,-1.2056913,-1.4399111999999998,-1
1305,1306,1583938086154,-4.7995,-2.0321999,-0.0622,5.3141127,-0.9598738000000001,-1.5250202,-1
1306,1307,1583938086164,-4.7995,-2.0321999,-0.0622,5.6577187,-0.41515458,-0.9770162,-1
1307,1308,1583938086174,-4.0372,-0.4892,0.9934,5.531918,0.16202042,-0.08049306,-1
1308,1309,1583938086184,-4.5034,-0.12619999,1.7988,4.9759173,0.11143572,0.5098309,-1
1309,1310,1583938086194,-4.9551,-0.3531,1.6965,4.761694,-0.48433742,0.11400231,-1
1310,1311,1583938086204,-4.7258,-1.0436,1.0155,5.363931,-1.5785928999999999,-0.6111631,-1
1311,1312,1583938086215,-3.6778998,-2.1081998,0.1929,6.470598000000001,-2.7014449000000003,-1.3878995,-1
1312,1313,1583938086225,-2.6332998,-2.7854,-0.3857,7.481631299999999,-3.5977285000000006,-1.6596509999999998,-1
1313,1314,1583938086235,-1.6653,-3.2707999,-0.045199998,8.371978,-3.9551160000000003,-0.86157745,-1
1314,1315,1583938086245,-0.91959995,-2.9341998,1.0258,8.8105955,-3.4347887000000004,0.4231608,-1
1315,1316,1583938086255,-1.1243,-2.1722,1.8432,8.018153,-3.1479060000000003,0.9888245000000001,-1
1316,1317,1583938086265,-1.9835,-1.9512,2.0430999,7.486936999999999,-3.2508470000000003,0.99646676,-1
1317,1318,1583938086276,-2.2586,-1.7996999,1.7713,7.575503299999999,-3.3729515,0.57720375,-1
1318,1319,1583938086286,-1.8784,-1.8389,1.0941,8.074062,-4.014569,-0.24068432,-1
1319,1320,1583938086296,-1.2630999,-2.5139,0.1204,8.876417,-5.092026000000001,-1.0908653999999998,-1
1320,1321,1583938086306,-0.1872,-3.2431,-0.65569997,10.097161999999999,-5.8335395,-1.5964346,-1
1321,1322,1583938086316,1.0045,-3.5930998,-1.0878,11.022675,-6.2015285,-1.5354207,-1
1322,1323,1583938086327,1.9461998999999999,-3.5326,-0.7581,11.785084,-5.951861,-0.65336806,-1
1323,1324,1583938086337,2.4476,-2.8708,0.4543,11.518447,-5.4148607,0.6838893,-1
