,Seq,Time,ACCx,ACCy,ACCz,ADGx,ADGy,ADGz,Keydown
0,1,1583938039405,2.2298,-0.68149996,-0.1013,7.5513887,-8.324074000000001,2.258546,-1
1,2,1583938039415,0.15709999,0.0046,0.011299999,9.919887,0.31002040000000003,0.7568934,-1
2,3,1583938039425,0.019299998999999998,0.0407,0.0094,9.648891,0.32314062,0.53334194,-1
3,4,1583938039436,-0.1987,-0.0112,-0.3274,9.611819,0.27003723,-0.056426544,-1
4,5,1583938039446,-0.1139,-0.0253,-0.9248,9.806612,0.2723165,-0.76120293,-1
5,6,1583938039456,0.0836,-0.068799995,-1.4869,10.168127,0.16059348,-1.2120598999999999,-1
6,7,1583938039466,0.5888,-0.2033,-1.4877,10.758996,-0.09450393,-0.8615870000000001,-1
7,8,1583938039476,0.98899996,-0.3685,-1.0679,10.785160000000001,-0.33597353,-0.059998695,-1
8,9,1583938039486,0.94879997,-0.5782,-0.188,10.622336,-0.3600592,0.64499795,-1
9,10,1583938039497,0.6444,-0.48259997,0.4777,10.147211,-0.09109459,0.7367533,-1
10,11,1583938039507,0.1636,-0.15779999,0.2403,9.711821,0.26919445,0.07833828,-1
11,12,1583938039517,-0.141,0.0664,-0.28,9.62992,0.44676759999999993,-0.34889263,-1
12,13,1583938039527,-0.1416,0.1937,-0.5482,9.903022,0.56922626,-0.44324335,-1
13,14,1583938039537,0.255,0.1648,-0.2722,10.290528,0.5388677,-0.18246691,-1
14,15,1583938039547,0.48119998,0.0832,0.0678,10.178901,0.50208324,0.17538007,-1
15,16,1583938039558,0.2366,0.0383,0.4834,9.79533,0.42182004,0.51256984,-1
16,17,1583938039568,-0.2338,-0.13329999,0.7014,9.235479,0.18988892,0.696933,-1
17,18,1583938039578,-0.617,-0.29839998,0.68829995,9.259518,0.18976443,0.6034825,-1
18,19,1583938039588,-0.46989998,-0.2575,0.5232,9.685542,0.38288075,0.39234263,-1
19,20,1583938039599,-0.0286,-0.0356,0.2591,10.044903,0.5213230999999999,0.17221014,-1
20,21,1583938039609,0.2854,0.087,-0.0046,10.234992,0.6467313,0.14199531,-1
21,22,1583938039619,0.42369998,0.1875,-0.0477,10.116736999999999,0.58805424,0.3289729,-1
22,23,1583938039629,0.2577,0.0863,0.19039999,9.813182000000001,0.40244618,0.68119824,-1
23,24,1583938039639,0.013599999,-0.075899996,0.4809,9.662854,0.43720996,0.66824085,-1
24,25,1583938039650,-0.15169999,-0.042799998,0.3969,9.56747,0.5667075,0.44483310000000004,-1
25,26,1583938039660,-0.2678,0.0652,0.16489999,9.380291,0.76302254,0.47074792,-1
26,27,1583938039670,-0.41349998,0.2206,0.2058,9.330396,0.7803278,0.6211708,-1
27,28,1583938039680,-0.45139998,0.2005,0.3836,9.435731,0.7446638000000001,0.8486296,-1
28,29,1583938039691,-0.3114,0.1636,0.667,9.488748,0.7759129,0.9781271,-1
29,30,1583938039701,-0.3114,0.1636,0.667,9.341648,0.847557,1.0203034,-1
30,31,1583938039711,-0.44709998,0.2215,0.7137,9.145056,0.9347825000000001,1.2215216999999998,-1
31,32,1583938039721,-0.6511,0.28689998,0.9065,8.877087,0.9898396,1.6477758000000002,-1
32,33,1583938039731,-0.8551,0.33069998,1.1793,8.782114,0.9844096,2.1114466,-1
33,34,1583938039742,-1.0004,0.24049999,1.7416999,8.886377,0.935903,2.0536504,-1
34,35,1583938039752,-0.9399,0.24049999,1.7416999,9.044222,0.94791234,1.8306162,-1
35,36,1583938039762,-0.7698,0.21059999,1.1724,8.966171000000001,0.94501054,1.5490198,-1
36,37,1583938039772,-1.0914,0.2865,1.0372,8.599005,1.0499053,1.4755848999999999,-1
37,38,1583938039783,-1.599,0.3599,1.0705999,7.954208400000001,1.1453094,1.6004854,-1
38,39,1583938039793,-2.097,0.45209998,1.2277,7.544245,1.2419586,1.8097675,-1
39,40,1583938039803,-2.4092999,0.52739996,1.5216,7.2945194,1.3518716,2.2044277,-1
40,41,1583938039813,-2.5068,0.5983,1.9332999,7.277769999999999,1.3870186000000002,2.4446522999999996,-1
41,42,1583938039823,-2.3892999,0.57769996,1.7903,7.4366107,1.3619751,2.1789055,-1
42,43,1583938039833,-2.3504999,0.6414,1.6159999,7.3986864,1.4942596000000001,2.0757537,-1
43,44,1583938039843,-2.4882998,0.8257,1.5344,7.209477400000001,1.6315144,2.0172873,-1
44,45,1583938039853,-2.832,0.90449995,1.5475,6.866886599999999,1.6601873999999999,2.0507869999999997,-1
45,46,1583938039863,-3.2052,0.8188,1.5888,6.451521400000001,1.4853818,2.0766253,-1
46,47,1583938039874,-3.5209,0.5075,1.4276999,6.210185500000001,1.1401763,1.8816319,-1
47,48,1583938039885,-3.7282998999999997,-0.0071,1.3073,5.9978104000000005,0.45183375,1.8837867,-1
48,49,1583938039895,-3.7024998999999994,-0.5575,1.5675,6.182394,-0.04747223,2.0698830000000004,-1
49,50,1583938039905,-3.4522,-0.797,1.5403,6.5106864,-0.13770491,1.7126203999999998,-1
50,51,1583938039915,-3.2419,-0.6247,1.1883999,6.571298,0.044675805,1.3159011999999999,-1
51,52,1583938039925,-3.2565,-0.38869998,0.8023,6.4628505999999994,0.27011383,0.9411128000000001,-1
52,53,1583938039935,-3.5256998999999998,-0.1082,0.5279,6.196376,0.38907695,0.66903573,-1
53,54,1583938039945,-3.9905,-0.3319,0.14289999,5.6754169999999995,-0.33381876,-0.08773313,-1
54,55,1583938039956,-4.0724,-0.9802,-0.41279998,6.072184,-1.0157545000000001,-0.63620645,-1
55,56,1583938039966,-3.3987,-1.4916999,-0.8071,6.9265593999999995,-1.407532,-1.0003262,-1
56,57,1583938039976,-2.5767,-1.6926,-1.0454999,7.5448575,-1.4513938,-1.3138614,-1
57,58,1583938039986,-2.1849,-1.4046999,-1.2784,7.4306160000000006,-1.0208205,-1.5459744,-1
58,59,1583938039996,-2.7236,-0.9371,-1.3096,6.339224,-0.79437697,-1.3934349,-1
59,60,1583938040007,-4.0854,-0.7593,-0.9675,4.524849400000001,-0.89981765,-0.6708745,-1
60,61,1583938040017,-5.5443997000000005,-0.8440000000000001,-0.1584,3.5945108,-1.2022915,-0.14016613,-1
61,62,1583938040027,-6.5024,-1.2092999,0.2068,3.1401584,-1.7341585,-0.71876806,-1
62,63,1583938040037,-6.5273,-1.6215,-0.8175,3.9103633999999996,-2.112519,-1.9891984,-1
63,64,1583938040047,-5.2265,-1.7155,-1.8621,5.9683332,-1.9868714,-2.5696106,-1
64,65,1583938040058,-3.5115,-1.36,-2.0863,7.2590184,-1.6214683,-2.4986846000000003,-1
65,66,1583938040068,-2.3827,-0.8024,-1.9571999,7.518444500000001,-1.3672806999999998,-2.2644167,-1
66,67,1583938040078,-2.4482,-0.5042,-1.5561,6.443094,-1.7733371999999998,-1.8281549,-1
67,68,1583938040088,-3.5711,-0.89089996,-1.2663,5.3195333,-2.4588257999999996,-1.7814296000000003,-1
68,69,1583938040098,-4.6131997,-1.4668,-1.2822,4.5844846,-3.3961942,-2.3968543999999996,-1
69,70,1583938040108,-5.1617,-2.2812997999999998,-2.0174,4.9227276,-4.2878428,-3.4340227,-1
70,71,1583938040119,-4.5483,-2.9438,-2.9772,6.2330456,-4.722074,-3.9598660000000003,-1
71,72,1583938040129,-3.1158,-3.0899,-3.3548,7.587531599999999,-4.7001724000000005,-3.882993,-1
72,73,1583938040139,-1.8461,-2.8044999,-3.1353,8.174494000000001,-4.341741000000001,-3.1048869999999997,-1
73,74,1583938040149,-1.4081,-2.1954,-2.31,7.979242299999999,-3.7629094,-2.413949,-1
74,75,1583938040159,-1.6743,-1.4512,-1.8122,7.449683,-3.6578805,-2.5076294,-1
75,76,1583938040169,-2.0642,-1.2552999,-2.0012,7.305667,-4.1273165,-3.6391675,-1
76,77,1583938040179,-2.1543999,-1.5261999,-3.1963,7.850357499999999,-5.006975,-5.1247406,-1
77,78,1583938040190,-1.5609,-2.2131998999999998,-4.7226,8.933599000000001,-5.706119999999999,-5.757385,-1
78,79,1583938040200,-0.4121,-2.7219,-5.3575,9.812558000000001,-6.254804,-5.293685400000001,-1
79,80,1583938040210,0.5348,-3.0774999,-4.8873997000000005,10.226075999999999,-6.570082000000001,-4.1049166,-1
80,81,1583938040220,1.0024998999999999,-3.2056,-3.6869998,10.005877,-6.489838,-2.9678332999999997,-1
81,82,1583938040230,0.8656,-2.9141998,-2.5881,9.3837185,-6.3685956,-2.5252316,-1
82,83,1583938040240,0.3056,-2.6469,-2.2047,9.062560000000001,-6.4684434,-3.4161906,-1
83,84,1583938040250,0.0598,-2.553,-3.2138,9.63306,-6.7489004,-5.1271353,-1
84,85,1583938040260,0.7179,-2.6245,-5.0534,10.997335000000001,-7.767949000000001,-6.685808,-1
85,86,1583938040270,2.1901,-3.4355998,-6.7072,12.611505000000001,-8.671434,-7.251892999999999,-1
86,87,1583938040280,3.9002,-4.1368,-7.3229999999999995,13.676073,-9.106710000000001,-6.699340299999999,-1
87,88,1583938040290,5.066,-4.3868,-6.7735996,13.936379,-9.222311999999999,-5.282068700000001,-1
88,89,1583938040301,5.4079999999999995,-4.3486,-5.3581,13.235377,-8.937296,-4.1098003,-1
89,90,1583938040310,4.790499700000001,-3.9387,-4.1937,12.376012,-8.989443,-4.069147,-1
90,91,1583938040320,4.004699700000001,-3.8606,-4.1986,12.2765465,-9.017099,-4.7172575,-1
91,92,1583938040331,3.9799998,-3.7493,-4.9172,12.956012,-9.12165,-5.8992653,-1
92,93,1583938040341,4.7587,-3.7180998,-6.1707,13.972177499999999,-9.501782,-6.967461999999999,-1
93,94,1583938040351,6.8051,-4.0889997000000005,-7.4459,14.918520000000001,-9.793569,-6.9568033,-1
94,95,1583938040361,7.204,-4.2655997,-6.6598,15.122304999999999,-10.150428999999999,-6.0781407,-1
95,96,1583938040371,7.1369996,-4.4743,-5.5839,14.935623999999999,-10.392022,-4.9607095999999995,-1
96,97,1583938040381,7.1369996,-4.4743,-5.5839,14.62434,-10.297222,-3.9218748,-1
97,98,1583938040392,6.3159,-4.0861,-3.2277,13.945670000000002,-10.0875,-2.726498,-1
98,99,1583938040402,5.9037,-3.9871998,-2.549,13.570843,-10.078612,-2.0513327,-1
99,100,1583938040412,5.8238997,-4.2437997,-2.0946,13.493606,-10.466253,-1.7253383000000002,-1
100,101,1583938040422,5.9793,-4.5899997,-2.1880999,13.681675,-10.799774000000001,-1.8350215,-1
101,102,1583938040432,5.9793,-4.5899997,-2.1880999,14.081411,-10.872405,-1.8823884999999998,-1
102,103,1583938040443,7.2781,-4.9252996,-2.494,15.010351000000002,-11.245095,-2.0912297,-1
103,104,1583938040453,7.9398,-5.2594,-1.7456,15.574845999999999,-11.570545,-1.0773237,-1
104,105,1583938040463,8.0703,-5.3335,-0.3621,15.5087185,-11.583436,0.31821814,-1
105,106,1583938040473,7.285,-5.2788997,0.7206,14.494057000000002,-11.434898,1.257655,-1
106,107,1583938040483,7.285,-5.2788997,0.7206,13.545398,-11.247337,1.8139238000000002,-1
107,108,1583938040493,4.7978,-4.7967,2.1897,12.307155,-10.771476,2.4331696,-1
108,109,1583938040504,4.6345997,-4.5234,2.4189,12.575113,-10.356043,2.7101502,-1
109,110,1583938040514,5.0527,-4.1404,2.7091,12.989425,-9.965653999999999,2.9087923,-1
110,111,1583938040524,5.145,-3.9383998,2.9513,12.937510000000001,-9.789766,3.32614,-1
111,112,1583938040534,4.9068,-4.0315,3.6374,12.762321,-9.861085000000001,4.0153155,-1
112,113,1583938040545,4.7193,-4.1475,4.0684,12.709035,-9.845571000000001,4.235027,-1
113,114,1583938040555,4.6022997000000005,-4.1496997,4.2114,12.51205,-9.573789999999999,4.483976,-1
114,115,1583938040565,4.1537,-3.932,4.5875,12.072886,-9.226621000000002,4.893978,-1
115,116,1583938040575,3.4046,-3.6892998,5.1232,11.351064,-8.873256,5.438764,-1
116,117,1583938040586,2.5932,-3.3890998,5.5611997,10.690877,-8.335671000000001,5.7346205999999995,-1
117,118,1583938040595,1.9779999,-2.9872,5.5533,10.329755,-7.795980499999999,5.5522113,-1
118,119,1583938040605,1.6883,-2.6085,5.2788997,10.181142,-7.290631299999999,5.297114,-1
119,120,1583938040615,1.568,-2.4183,5.2163997,10.25901,-7.1301527,5.4188540000000005,-1
120,121,1583938040625,1.6855999,-2.623,5.5688,10.443891,-7.1941547,5.7988715,-1
121,122,1583938040635,1.5791,-2.8723,5.8466,10.161739,-7.1656923,5.688728299999999,-1
122,123,1583938040646,1.0612,-2.9234998,5.5146,9.702177,-6.982373,5.395055999999999,-1
123,124,1583938040656,0.3585,-2.6969,5.2946,9.077472,-6.368710500000001,5.2019205,-1
124,125,1583938040666,-0.0663,-2.307,5.1611,8.876081,-5.731345,5.1803055,-1
125,126,1583938040676,-0.3197,-1.8675,5.2011,8.608792999999999,-5.1736016,5.199631,-1
126,127,1583938040687,-0.7836,-1.5537,5.0557,8.10556,-4.812336,4.852175,-1
127,128,1583938040697,-1.3503,-1.4827,4.6973,7.759828,-4.632378,4.6208477,-1
128,129,1583938040707,-1.676,-1.4267,4.3385997000000005,7.6296887,-4.394586,3.9909712999999996,-1
129,130,1583938040717,-1.7019999,-1.3945,3.7222,7.8626833,-4.0973315,3.4377002999999995,-1
130,131,1583938040727,-1.3802999,-1.3594998999999999,3.4071,8.445547,-4.0741076000000005,3.7181474999999997,-1
131,132,1583938040737,-0.99549997,-1.5267998999999999,3.8658997999999998,8.336399,-3.9956352999999996,4.2842516999999996,-1
132,133,1583938040747,-1.2953,-1.5522,4.3686,7.497720200000001,-3.622925,4.322693,-1
133,134,1583938040757,-2.2996,-1.3105999,4.3345,6.8097224,-3.2958293,4.193425,-1
134,135,1583938040767,-3.4383,-0.9544,3.8853,5.7377139999999995,-2.6840916,3.4386002999999996,-1
135,136,1583938040777,-4.033,-0.6613,3.1018,5.7005563,-2.1823243999999997,2.4823562999999997,-1
136,137,1583938040787,-3.7886,-0.40579998,2.3708,6.1886764,-1.8540506,2.2646754000000002,-1
137,138,1583938040798,-3.3042,-0.1487,2.2766,6.711455,-1.4775097,2.2656902999999997,-1
138,139,1583938040808,-2.9731,-0.0512,2.3040000000000003,6.6704755,-1.2055955,2.3148386000000003,-1
139,140,1583938040818,-3.1589,0.0692,2.4113998,6.1278253,-1.0967168,2.4592667,-1
140,141,1583938040828,-3.7345998,-0.0046,2.5562,5.7514085999999995,-1.0585532,2.4759686000000003,-1
141,142,1583938040838,-4.1115,-0.024799999,2.5318,5.4896936,-0.8277426,2.2533557,-1
142,143,1583938040849,-4.3484,0.042799998,2.3251998,5.2042856,-0.538207,1.9746609,-1
143,144,1583938040859,-4.6614,0.2581,2.0822,4.8507576,-0.16445293,1.7681754,-1
144,145,1583938040869,-4.9918,0.5062,1.8542,4.7651796,0.14823939,1.3181325000000002,-1
145,146,1583938040879,-5.0066,0.7313,1.3287,5.0223455,0.60196936,0.40720582,-1
146,147,1583938040889,-4.7353997,1.1202999,0.33229998,5.35649,1.0006136,-1.0986226000000001,-1
147,148,1583938040899,-4.4533,1.3648,-0.91459996,5.6562532999999995,0.98007125,-2.1033156,-1
148,149,1583938040910,-4.1507998,1.2933999,-1.8966,5.899792,0.71414244,-2.1451854999999997,-1
149,150,1583938040920,-3.9066,0.95849997,-1.8893,6.0073204,0.58887786,-1.6403346,-1
150,151,1583938040930,-3.7989998,0.7998,-1.369,5.92405,0.719381,-0.9235871999999999,-1
151,152,1583938040940,-3.8874,0.87909997,-0.6166,5.4848003,1.115631,-0.85509396,-1
152,153,1583938040950,-4.3287997,1.2112,-0.5244,5.0252666,1.4375266000000002,-1.2688598999999998,-1
153,154,1583938040960,-4.7897,1.4785,-0.9242,4.732082,1.5326912,-1.6099762,-1
154,155,1583938040971,-5.1907,1.3218,-1.2748,4.6490993,1.3362135,-1.6038661,-1
155,156,1583938040981,-5.1907,1.3218,-1.2748,5.0765314,1.2058445,-1.3604621000000001,-1
156,157,1583938040991,-4.1591,0.847,-1.0109999,5.8007483,0.8252620999999999,-1.5025146999999999,-1
157,158,1583938041001,-4.1591,0.847,-1.0109999,6.513445,0.47710693,-2.0658035,-1
158,159,1583938041011,-3.2853,0.4337,-1.6156,7.402805,0.22375251,-3.1288384999999996,-1
159,160,1583938041021,-1.4697,0.1915,-3.2605999,8.488892,0.22478679999999998,-3.7692970999999997,-1
160,161,1583938041031,-1.4697,0.1915,-3.2605999,8.819396000000001,0.42810240000000005,-3.4602919,-1
161,162,1583938041042,-1.3112999,0.4667,-2.3878,8.333508,0.4266563,-2.7420506000000002,-1
162,163,1583938041052,-2.1536,0.1663,-1.6992999,7.5016755999999996,0.12000696,-2.1499354999999998,-1
163,164,1583938041063,-2.574,-0.0138,-1.5288999,7.36148,-0.030550014,-2.1484227000000002,-1
164,165,1583938041074,-2.0040998,-0.0539,-1.7337999,8.216364,-0.07043742,-2.4055214,-1
165,166,1583938041083,-0.905,-0.1383,-1.8587999,9.27032,-0.20652384,-2.4304403999999997,-1
166,167,1583938041093,-0.1498,-0.29299998,-1.9361,9.712223,-0.35836409999999996,-2.5769942,-1
167,168,1583938041103,0.0163,-0.36089998,-2.2007,9.753086999999999,-0.43287167,-2.8015895,-1
168,169,1583938041113,-0.1609,-0.396,-2.2052,9.603152,-0.48600379999999993,-2.7335942,-1
169,170,1583938041124,-0.2498,-0.4393,-1.9239998999999999,9.548048,-0.46146800000000004,-2.2959723,-1
170,171,1583938041134,-0.2305,-0.3328,-1.5087,9.584832,-0.37341887,-1.9026338,-1
171,172,1583938041144,-0.2306,-0.2807,-1.1847,9.544111000000001,-0.33016998,-1.6764776000000001,-1
172,173,1583938041154,-0.4265,-0.23079999,-1.004,9.27303,-0.2645593,-1.5250107,-1
173,174,1583938041165,-0.58349997,-0.16929999,-0.8975,9.247086999999999,-0.15180197,-1.4047163999999999,-1
174,175,1583938041175,-0.39769998,-0.0138,-0.89739996,9.543028999999999,0.03342306,-1.495744,-1
175,176,1583938041185,-0.0849,0.2269,-1.1118,9.781339,0.3485287,-1.6814381999999999,-1
176,177,1583938041195,-0.056399997,0.452,-1.1227,9.657003,0.39414307,-1.44831,-1
177,178,1583938041205,-0.21409999,0.4032,-0.8253,9.548162,0.29467833,-1.013025,-1
178,179,1583938041216,-0.2733,0.3254,-0.3629,9.531863000000001,0.16725893,-0.5381495,-1
179,180,1583938041227,-0.2733,0.3254,-0.3629,9.648988000000001,0.005889736,-0.43860820000000006,-1
180,181,1583938041237,0.09999999400000001,0.093399994,-0.11669999,10.087460499999999,0.0062249246999999995,-0.87586606,-1
181,182,1583938041247,0.3753,0.1061,-0.5858,10.341698,0.0812209,-1.2986149999999999,d
182,183,1583938041257,0.5622,0.2043,-0.7909999999999999,10.357489999999999,0.17124289999999998,-1.1681215,-1
183,184,1583938041267,0.4745,0.2983,-0.48819998,10.049384,0.1310203,-0.6994229000000001,-1
184,185,1583938041277,0.161,0.20279999,-0.11009999,9.693538,-0.03626737,-0.39581900000000003,-1
185,186,1583938041288,-0.1621,0.0773,0.1222,9.5145,-0.18593370000000004,-0.5362054,-1
186,187,1583938041298,-0.289,-0.0844,-0.0537,9.69711,-0.251056,-0.77297276,-1
187,188,1583938041308,-0.0429,-0.0946,-0.2454,10.019313,-0.2798343,-0.6861303000000001,-1
188,189,1583938041318,0.2915,-0.1318,-0.0614,10.210417999999999,-0.38882795,-0.4236109,-1
189,190,1583938041328,0.4202,-0.24759999,0.1819,10.160111,-0.5551771,-0.41975144,-1
190,191,1583938041339,0.33299999999999996,-0.3843,0.1366,9.968910000000001,-0.55572295,-0.6560017,-1
191,192,1583938041349,0.1766,-0.3647,-0.092,9.986367999999999,-0.5259391,-0.8529200000000001,-1
192,193,1583938041359,0.2162,-0.31419998,-0.2864,10.212812,-0.5517773,-1.0106213,-1
193,194,1583938041369,0.4714,-0.33159998,-0.4043,10.392128,-0.50260997,-1.0212419,-1
194,195,1583938041379,0.5992,-0.2634,-0.4026,10.261213,-0.43313983,-0.90937525,-1
195,196,1583938041389,0.4132,-0.1906,-0.2513,10.013251,-0.39801207,-0.56516564,-1
196,197,1583938041400,0.17819999,-0.161,0.13669999,9.848175,-0.37209725,-0.26135105,-1
197,198,1583938041410,0.0117999995,-0.15079999,0.40609998,9.6219225,-0.39729384,0.06710468,-1
198,199,1583938041420,-0.1742,-0.1671,0.6732,9.633721000000001,-0.47808376,-0.034141317000000004,-1
199,200,1583938041430,-0.1642,-0.22749999,0.5947,9.866649,-0.5501014,-0.5176168,-1
200,201,1583938041440,0.0711,-0.29279998,0.1004,10.146004,-0.5133168,-0.92597187,-1
201,202,1583938041450,0.42409998,-0.2197,-0.39589998,10.430982,-0.39444953,-1.2441901000000002,-1
202,203,1583938041461,0.63989997,-0.121,-0.6261,10.381738,-0.3181511,-1.2583541,-1
203,204,1583938041471,0.31669998,-0.035499997,-0.39209998,10.036465,-0.31989408,-0.94163954,-1
204,205,1583938041481,0.31669998,-0.035499997,-0.39209998,9.838061999999999,-0.32510385,-0.58447254,-1
205,206,1583938041491,0.0426,-0.055999997999999995,0.0422,9.623178,-0.27643454,0.02453578,-1
206,207,1583938041502,-0.41759998,0.1105,0.96089995,9.339379,-0.152367,0.3351691,-1
207,208,1583938041512,-0.5257,0.080299996,0.7518,9.266327,-0.17514063,0.03434243,-1
208,209,1583938041522,-0.38869998,0.0691,0.2732,9.477782000000001,-0.20276015,-0.46061566,-1
209,210,1583938041532,-0.055499997,0.0064,-0.0985,9.795876,-0.27303475,-0.76889306,-1
210,211,1583938041542,0.2583,-0.083299994,-0.2034,10.116642,-0.39013037,-0.8189223000000001,-1
211,212,1583938041552,0.5232,-0.15529999,-0.2481,10.355459,-0.47111183,-0.8780781999999999,-1
212,213,1583938041563,0.6311,-0.106199995,-0.3024,10.4134655,-0.391021,-0.92879707,-1
213,214,1583938041573,0.5133,-0.0451,-0.25579998,10.262813000000001,-0.36170644,-0.8360361,-1
214,215,1583938041583,0.2288,-0.058799997,-0.0398,9.925785000000001,-0.37149394,-0.47417644,-1
215,216,1583938041593,-0.0064999997,-0.085099995,0.3847,9.678905499999999,-0.4236109,-0.0613586,-1
216,217,1583938041603,-0.22209999,-0.1489,0.6037,9.529985,-0.43365696,-0.047845725,-1
217,218,1583938041614,-0.2809,-0.119399995,0.34989998,9.545452000000001,-0.38884708,-0.43636718,-1
218,219,1583938041624,-0.094399996,-0.0154,-0.081999995,9.762731,-0.28111759999999997,-0.7788242,-1
219,220,1583938041634,0.2588,0.08339999599999999,-0.3969,10.161337,-0.24978228,-1.0170377,-1
220,221,1583938041644,0.5631,0.045399997000000004,-0.36749998,10.422217999999999,-0.31462684,-0.9788454,-1
221,222,1583938041654,0.65169996,-0.0446,-0.29729998,10.416683,-0.42996034,-0.81085867,-1
222,223,1583938041665,0.5245,-0.1296,0.0383,10.2226,-0.51859367,-0.46593082,-1
223,224,1583938041675,0.3284,-0.23799999,0.19649999,10.037997,-0.5461557,-0.46429318,-1
224,225,1583938041685,0.0634,-0.16149999,0.14379999,9.717279,-0.4343944,-0.4887619000000001,-1
225,226,1583938041695,-0.123399995,-0.0655,0.106599994,9.657931,-0.34294546,-0.54673034,-1
226,227,1583938041705,-0.0945,0.0126,0.0094,9.758804,-0.30763578,-0.6328736999999999,-1
227,228,1583938041716,0.0423,0.0927,-0.114599995,9.870432000000001,-0.21935676,-0.6934756999999999,-1
228,229,1583938041726,0.0325,0.1337,-0.0867,9.743874,-0.20516393,-0.6403628,-1
229,230,1583938041736,-0.094799995,0.1435,0.0033,9.625668,-0.2028272,-0.46835372,-1
230,231,1583938041746,-0.2122,0.1244,0.213,9.562000999999999,-0.22075498,-0.31586224,-1
231,232,1583938041756,-0.24149999,0.1364,0.25419998,9.606035,-0.22006544,-0.46314394,-1
232,233,1583938041766,-0.1138,0.1707,0.0379,9.803174,-0.07156747599999999,-0.659411,-1
233,234,1583938041777,0.0725,0.32389998,-0.1011,9.912388,-0.070839636,-0.6585778,-1
234,235,1583938041786,0.102,0.2512,-0.0534,9.846844,-0.19924547,-0.59044844,-1
235,236,1583938041796,0.023699999,0.12789999,0.07279999599999999,9.71229,-0.23987028,-0.3991613,-1
236,237,1583938041806,-0.1625,0.120299995,0.2289,9.479402,-0.22969970000000003,-0.38270834,-1
237,238,1583938041816,-0.36839998,0.0929,0.091,9.480014,-0.24747425,-0.72737765,-1
238,239,1583938041827,-0.182,0.16589999,-0.2332,9.845675,-0.10205045,-0.77251315,-1
239,240,1583938041837,0.0928,0.2906,-0.134,9.940831,-0.078127585,-0.5992111999999999,d
240,241,1583938041847,0.112799995,0.2683,0.1121,9.825766,-0.19874747,-0.18177737,-1
241,242,1583938041857,-0.0242,0.1665,0.5829,9.748203,-0.38327336,0.10551726,-1
242,243,1583938041867,-0.0242,-0.0222,0.6364,9.917253,-0.5015757000000001,0.16065094,-1
243,244,1583938041877,0.20099999,-0.1003,0.76159996,10.2531395,-0.6099946999999999,-0.09152554,-1
244,245,1583938041888,0.5338,-0.20619999,0.3105,10.505231,-0.5799906,-0.73336315,-1
245,246,1583938041898,0.8268,-0.12719999,-0.4737,10.690906,-0.5303157,-1.3043611000000002,-1
246,247,1583938041908,0.8746,-0.083299994,-0.82589996,10.438806,-0.5551483,-1.2611983999999998,-1
247,248,1583938041919,0.5496,-0.117199995,-0.7425,10.063663499999999,-0.58974934,-0.85924065,-1
248,249,1583938041929,0.2149,-0.19699999999999998,-0.3186,10.071525999999999,-0.66346204,-0.64787096,-1
249,250,1583938041939,0.33159998,-0.2584,-0.2503,10.447319,-0.62959844,-0.914767,-1
250,251,1583938041949,0.7133,-0.2297,-0.5035,10.613850999999999,-0.5537118000000001,-0.8694304,-1
251,252,1583938041959,0.7909999999999999,-0.134,-0.39139998,10.294838,-0.46011767,-0.36591065,-1
252,253,1583938041970,0.48619998,-0.0907,0.0547,10.154518,-0.49189353,-0.07441179,-1
253,254,1583938041980,0.3284,-0.1458,0.41059998,10.234149,-0.5762364000000001,0.17084065,-1
254,255,1583938041990,0.42569998,-0.2351,0.5568,10.570276,-0.6614222,-0.26363993,-1
255,256,1583938042000,1.14,-0.3006,-0.0455,10.982136,-0.6383515999999999,-0.41310513,-1
256,257,1583938042011,1.14,-0.3006,-0.0455,10.965166,-0.73871654,-0.23748566,-1
257,258,1583938042021,1.0501,-0.528,0.1945,10.858049000000001,-0.8412649999999999,-0.20663877,-1
258,259,1583938042031,1.0501,-0.528,0.1945,10.902341999999999,-0.8025076999999999,-0.5911666999999999,-1
259,260,1583938042041,1.1962999,-0.5112,-0.2358,11.033516,-0.7950186,-0.5596398,-1
260,261,1583938042051,1.3431,-0.457,-0.16229999,11.160332,-0.72145915,-0.48197195,-1
261,262,1583938042061,1.4409,-0.4443,-0.058599997,11.275511999999999,-0.7028323000000001,-0.40574056,-1
262,263,1583938042072,1.5974,-0.3938,-0.145,11.389447,-0.6529083999999999,-0.54082143,-1
263,264,1583938042082,1.5478,-0.5311,-0.2961,11.333002,-0.7992228,-0.6071025,-1
264,265,1583938042092,1.4980999,-0.63119996,-0.0858,11.315763,-0.8612135000000001,-0.41312429999999994,-1
265,266,1583938042102,1.4980999,-0.63119996,-0.0858,11.484727000000001,-0.9647483,-0.42096767,-1
266,267,1583938042112,2.0462,-0.86649996,-0.061499998,11.91418,-1.0451361,-0.43060195,-1
267,268,1583938042122,2.2322,-0.9853,-0.44169998,12.032013000000001,-1.1498297,-0.8735963,-1
268,269,1583938042133,2.1436,-1.0432,-0.5572,11.90761,-1.1201223999999999,-0.8667488999999999,-1
269,270,1583938042143,1.8686,-1.0495,-0.31489998,11.52719,-1.0677181,-0.47174394,-1
270,271,1583938042153,1.4466,-0.97309995,0.20709999,11.191025999999999,-0.93207234,-0.033145327,-1
271,272,1583938042163,1.1718998999999999,-0.7614,0.2271,10.948780000000001,-0.60557026,-0.28011203,-1
272,273,1583938042174,1.1917,-0.5489,-0.3141,11.031438,-0.33107978,-0.7620648,-1
273,274,1583938042184,1.2313,-0.3561,-0.5028,11.014975,-0.16327497,-0.7673321,-1
274,275,1583938042194,0.9279999999999999,-0.3622,-0.2411,10.540349,-0.18584752,-0.34794456,-1
275,276,1583938042204,0.4684,-0.53859997,0.20899999,10.111566999999999,-0.27446170000000003,0.15921442,-1
276,277,1583938042214,0.13669999,-0.6473,0.6247,9.903271,-0.32511345,0.40456262,-1
277,278,1583938042225,0.1197,-0.7175,0.6409999999999999,9.939644,-0.25828648,0.4818379,-1
278,279,1583938042235,0.0726,-0.62509996,0.8847,9.753135,-0.109252214,0.66903573,-1
279,280,1583938042245,-0.248,-0.5169,0.79569995,9.262371,0.1903103,0.34805948,-1
280,281,1583938042255,-0.7349,-0.2543,0.5603,8.728655999999999,0.4846822,0.3794714,-1
281,282,1583938042265,-1.3292999,-0.12019999,0.6473,8.107984,0.57517344,0.4013065,-1
282,283,1583938042276,-1.8647,-0.15079999,0.5645,7.821388000000001,0.5583374,0.17440324,-1
283,284,1583938042286,-1.9880999,-0.2157,0.31509998,7.8039293,0.5218497999999999,0.024238897000000002,-1
284,285,1583938042296,-1.9939,-0.29600000000000004,0.16759999,7.673493400000001,0.5445755999999999,-0.16935624,-1
285,286,1583938042306,-2.2738,-0.2985,0.0738,7.1178565,0.6517304,-0.11630075,-1
286,287,1583938042316,-2.9157,-0.1778,0.2883,6.4584265,0.92523444,0.35564429999999997,-1
287,288,1583938042326,-3.5963,0.058399998,0.7527,5.861609,1.2460958,0.63730776,-1
288,289,1583938042337,-4.0805,0.3362,0.9156,5.49431,1.5641893999999998,0.6590088000000001,-1
289,290,1583938042347,-4.3982997,0.6103,0.9217,5.267627,1.8600169999999998,0.52723193,-1
290,291,1583938042357,-4.5306,0.8343,0.6605,5.228783,2.2305243,0.07309977,-1
291,292,1583938042367,-4.5067997,1.1452999,0.3196,5.245064,2.5525637000000003,-0.31404266,-1
292,293,1583938042377,-4.4739,1.5316,-0.1872,5.292843,3.0275254,-0.8149863,-1
293,294,1583938042387,-4.4707,1.8928,-0.48409998,5.0662746,3.2471982999999995,-0.792385,-1
294,295,1583938042398,-4.752,2.041,-0.37399998,4.611673000000001,3.2725482000000006,-0.47734633,-1
295,296,1583938042408,-5.2102,2.0273,0.0132,4.257858000000001,3.196872,-0.12908578,-1
296,297,1583938042418,-5.492999999999999,1.9257,0.3249,4.4075246,2.9661093,-0.44853935,-1
297,298,1583938042428,-5.2384,1.6626999,-0.11009999,4.9691563,2.7363713,-0.76811737,-1
298,299,1583938042438,-4.6619997,1.5117999,-0.2958,5.451147,2.5874328999999996,-0.81643236,-1
299,300,1583938042448,-4.2434998,1.3577,-0.35909998,5.450668299999999,2.29965,-0.98657393,-1
300,301,1583938042458,-4.3447,1.1063,-0.5014,5.0425816,2.1210424999999997,-1.0473386999999998,-1
301,302,1583938042469,-4.700599700000001,1.0117999,-0.52279997,4.6671224,1.9443599999999999,-1.0947438,-1
302,303,1583938042479,-5.1739999999999995,0.7838,-0.5464,4.32796,1.4531655,-0.9626223,-1
303,304,1583938042489,-5.4221,0.3672,-0.3085,4.5527086,1.4723479,-0.53433794,-1
304,305,1583938042499,-5.2005,0.50189996,0.083,4.8283005,1.5576773000000002,-0.3376303,-1
305,306,1583938042509,-4.8826,0.6404,0.322,5.1309949999999995,1.3860991000000003,-0.60094464,-1
306,307,1583938042519,-4.6347,0.5639,0.0276,5.7452703000000005,1.3824886,-1.5064988000000001,-1
307,308,1583938042530,-4.0341,0.654,-0.89089996,6.3122454,1.0490626,-1.9717113000000002,-1
308,309,1583938042540,-3.4621,0.415,-1.3529999,6.1725010000000005,0.5753458,-2.0415933,-1
309,310,1583938042551,-3.6141,0.035299998,-1.4235,5.379666,-0.0012258312,-1.4547073999999998,-1
310,311,1583938042561,-5.1903996,-0.7606,-0.1664,4.477233999999999,-0.44072464,-0.6572946,-1
311,312,1583938042571,-5.5576,-0.72859997,0.648,4.259869,-0.46205219999999997,0.23693977,-1
312,313,1583938042581,-5.2978,-0.4043,1.2813,4.587185,-0.21776702,0.7077643,-1
313,314,1583938042592,-4.8513,0.0661,0.7741,5.0851026,0.17425,0.119317435,-1
314,315,1583938042602,-4.0786,0.6003,-0.0951,5.903487999999999,0.5053489000000001,-0.6862835999999999,-1
315,316,1583938042612,-3.0862,0.8118,-0.62079996,6.8984137,0.46465707,-1.0415448,-1
316,317,1583938042622,-2.6485,0.50699997,-0.6243,7.0703363,-0.1598369,-0.9905099,-1
317,318,1583938042633,-3.2468,-0.41939998,-0.45619997,6.4420977,-1.2777472,-0.8233372,-1
318,319,1583938042643,-3.5972998,-0.9754,-0.2452,6.112158,-1.921299,-0.59386736,-1
319,320,1583938042653,-3.8669998999999997,-1.2222998999999999,-0.0251,5.733912,-2.463231,-0.1768549,-1
320,321,1583938042663,-4.2716,-1.7168,0.8275,5.350093,-3.1165133,0.939207,-1
321,322,1583938042673,-4.2507,-2.1506998999999998,1.6786,5.765544,-3.6573919999999998,1.5673306,-1
322,323,1583938042684,-3.3016998999999996,-2.2438,1.8802999,6.827114,-3.8868332000000003,1.7087417,-1
323,324,1583938042694,-2.149,-2.2742999,1.6069,7.8747783,-4.022498000000001,1.2634968999999998,-1
324,325,1583938042704,-1.49,-2.086,0.9942,8.08563,-4.170661,0.9482761999999999,-1
325,326,1583938042714,-1.788,-2.3072999,0.9453,7.467630000000001,-4.712028500000001,1.0150362,-1
326,327,1583938042725,-1.788,-2.3072999,0.9453,6.931894000000001,-4.823311,0.75140584,-1
327,328,1583938042735,-2.6408,-2.227,0.6179,6.7876387000000005,-4.891794,1.0540329,-1
328,329,1583938042745,-2.6647,-2.3685,1.4592999,6.87971,-5.3064413,1.794502,-1
329,330,1583938042755,-2.2903,-2.3885999,1.3232,7.5312967,-5.4132037,0.8811141,-1
330,331,1583938042765,-1.3883,-2.3028998,0.2154,8.37149,-5.692635500000001,0.21970153,-1
331,332,1583938042775,-0.57699996,-2.5839,-0.1135,8.941836,-6.4739504,0.59014195,-1
332,333,1583938042785,-0.0826,-3.2247999,0.4694,9.059324,-7.2565669999999995,1.2056625,-1
333,334,1583938042796,-0.0438,-3.6999998,0.83199996,8.88766,-7.7675089999999996,1.2702388999999998,-1
334,335,1583938042806,-0.12789999,-3.7872999,0.6293,8.687025,-7.6432970000000005,1.0416118,-1
335,336,1583938042816,-0.12789999,-3.7872999,0.6293,8.105273,-7.418769,1.7319558999999998,-1
336,337,1583938042826,-0.7874,-2.9466,1.4307,7.931703,-7.3963594,2.6084635,-1
337,338,1583938042836,-0.5417,-2.6497998,1.9445,8.541325,-6.9593506,2.5808343999999996,-1
338,339,1583938042846,0.3764,-2.0944,1.2631999,9.3604765,-7.059332400000001,1.3834943000000002,-1
339,340,1583938042857,1.2729,-2.2726,-0.0777,10.001681,-7.504558,0.6640461999999999,-1
340,341,1583938042867,1.8373,-2.4252,-0.34199998,9.868793499999999,-8.023966,1.5449784,-1
341,342,1583938042877,1.635,-2.7523,0.6211,9.275549,-8.38867,2.4768112,-1
342,343,1583938042887,1.1488999,-2.8023999,1.3576,8.768822,-8.369469,2.6241791,-1
343,344,1583938042897,0.7576,-2.6396,1.3364999,8.668244999999999,-8.435547999999999,2.4950454,-1
344,345,1583938042907,1.1922,-2.5042999,1.1396998999999999,9.560124,-8.422926,2.3985207,-1
345,346,1583938042918,2.1803,-2.345,0.9885,10.259001,-8.89989,2.3603954,-1
346,347,1583938042928,3.0117998,-2.6660000000000004,0.8052,10.775881,-9.420973,1.6496625,-1
347,348,1583938042938,3.6824,-3.0298998,-0.098799996,11.198466999999999,-10.0420475,1.2583733,-1
348,349,1583938042948,4.2384,-3.4772,-0.2853,11.235702,-10.685572,2.0944858,-1
349,350,1583938042958,4.3616,-3.932,0.6335,10.827364999999999,-11.287358,3.156142,-1
350,351,1583938042969,4.0986,-4.407,1.5919,10.567288000000001,-11.983822,3.742664,-1
351,352,1583938042979,4.1273,-4.9221997,1.9708999,10.974944,-12.37084,3.4374415999999997,-1
352,353,1583938042989,4.8217,-5.094599700000001,1.4806,11.659761999999999,-12.488664,2.7692199,-1
353,354,1583938042999,5.6580997,-5.0327,0.8052,12.146896,-12.41362,2.4045541,-1
354,355,1583938043011,6.1872,-4.8462,0.5085,11.922818,-12.215408,2.582539,-1
355,356,1583938043021,5.6327,-4.1893997,0.9442,11.20383,-11.889136,2.8524137,-1
356,357,1583938043031,5.6327,-4.1893997,0.9442,10.753969,-11.671264,2.7994826,-1
357,358,1583938043041,5.0361,-3.7458,0.8915,10.060675,-11.284811999999999,2.7231650000000003,-1
358,359,1583938043051,4.3515997,-2.9491,0.5201,9.673705,-10.908414,2.3482234,-1
359,360,1583938043062,4.304199700000001,-2.8781,-0.0112,9.597809,-10.910128,1.8498558999999997,-1
360,361,1583938043072,4.3465,-2.6959,-0.1083,9.491209,-10.765470500000001,1.9096057,-1
361,362,1583938043082,4.3465,-2.6959,-0.1083,9.299577000000001,-10.68467,1.9660800999999999,-1
362,363,1583938043093,3.9973998,-2.3538,-0.017099998999999998,8.9235735,-10.4335575,1.9539368000000001,-1
363,364,1583938043102,3.7459,-2.0163999,0.0665,8.628836999999999,-10.141119999999999,2.0672495,-1
364,365,1583938043112,3.7459,-2.0163999,0.0665,8.320511999999999,-9.841643,2.0743172,-1
365,366,1583938043122,2.8889,-1.2299,-0.0207,7.717297599999999,-9.473416,1.8845145,-1
366,367,1583938043132,2.615,-1.0124999,-0.21669999,7.4655614,-9.270242999999999,1.7713835999999998,-1
367,368,1583938043142,2.6260998,-0.8739,-0.0815,7.433412,-9.203321,1.9231185000000002,-1
368,369,1583938043152,2.5073,-0.86439997,-0.0337,7.3021910000000005,-9.198082000000001,1.955718,-1
369,370,1583938043162,2.1275,-0.9068,0.2518,6.890053,-9.254642500000001,2.2525415,-1
370,371,1583938043172,1.8498,-1.0993,0.0986,6.606167299999999,-9.483077999999999,2.0019646,-1
371,372,1583938043183,2.0953999,-1.0296999,-0.41369998,6.9101353,-9.322581,1.4710549,-1
372,373,1583938043193,2.2545,-0.89379996,-0.6616,6.88219,-9.258636,1.3567749,-1
373,374,1583938043203,1.8931999,-0.8103,-0.4184,6.3679442,-9.167514,1.7701004,-1
374,375,1583938043213,1.2989,-0.6807,0.1148,5.7842383,-9.009217999999999,2.2371516,-1
375,376,1583938043224,0.8709,-0.54179996,0.4506,5.548973999999999,-8.871245,2.3942592,-1
376,377,1583938043234,0.90059996,-0.43269998,0.3279,5.6948004,-8.775372500000001,2.1354556000000002,-1
377,378,1583938043246,1.0652,-0.3321,0.054899998,5.852071,-8.786855000000001,1.8985923999999998,-1
378,379,1583938043256,1.1534,-0.4382,-0.1665,5.9036802999999995,-8.797849000000001,1.5885719999999999,-1
379,380,1583938043266,1.2286999,-0.3405,-0.4878,5.897254,-8.693489999999999,1.4126940000000001,-1
380,381,1583938043277,1.1511999,-0.3231,-0.54859996,5.6927414,-8.765125,1.6355175,-1
381,382,1583938043287,0.85969996,-0.38639998,-0.2075,5.2893376,-8.744083999999999,2.0158124,d
382,383,1583938043298,0.5222,-0.3633,0.0634,5.0632386,-8.740886,2.2896326,-1
383,384,1583938043308,0.2993,-0.3507,0.4173,4.865334,-8.688798,2.752336,-1
384,385,1583938043318,0.0769,-0.2988,0.8491,4.6590204,-8.649714,2.8944747000000004,-1
385,386,1583938043328,-0.13149999,-0.2759,0.90999997,4.629859400000001,-8.688165,2.730539,-1
386,387,1583938043338,-0.1074,-0.3301,0.7244,4.8803697,-8.664146,2.3921810000000003,-1
387,388,1583938043349,0.19829999,-0.294,0.2951,5.351001999999999,-8.805319,1.8069711,-1
388,389,1583938043359,0.7133,-0.5015,-0.31219998,5.900691999999999,-9.012762,1.5498528,-1
389,390,1583938043369,1.2139,-0.6802,-0.43969998,6.092908400000001,-9.096176,1.7500179,-1
390,391,1583938043379,1.3004,-0.7441,-0.1585,5.671663,-9.13977,2.3087093999999997,-1
391,392,1583938043389,0.8835,-0.8024,0.3225,5.362982700000001,-9.210092,2.5788808,-1
392,393,1583938043399,0.4892,-0.903,0.67039996,5.2890406,-9.360266000000001,2.7359693,-1
393,394,1583938043410,0.4403,-1.053,0.787,5.5099964,-9.594399000000001,2.8164048,-1
394,395,1583938043420,0.72249997,-1.3779,0.92149997,6.117396,-10.302643,3.1173847,-1
395,396,1583938043430,1.9514999,-2.4571,0.9022,7.0204887000000005,-10.762348,2.7490509999999997,-1
396,397,1583938043440,2.8279998,-2.3534,0.0589,7.9272213,-10.546555,1.8350407,-1
397,398,1583938043451,2.8279998,-2.3534,0.0589,8.650309,-10.425849000000001,1.3192146999999999,-1
398,399,1583938043462,4.071000000000001,-2.2979998999999998,-0.4605,9.076131,-10.590099,1.7203583999999998,-1
399,400,1583938043472,3.8437,-2.5730999,0.23600000000000002,8.80233,-10.835592,2.3674057,-1
400,401,1583938043482,3.5981998,-2.8147,0.7471,8.742284,-11.025797,2.7597196,-1
401,402,1583938043492,3.7760000000000002,-3.0791,1.0081999,9.059937,-11.265868,2.948881,-1
402,403,1583938043502,4.3233,-3.5707,1.2281,9.742092999999999,-11.747122000000001,3.1993525000000003,-1
403,404,1583938043513,5.3759,-3.8774998,1.2727,11.182464,-11.88003,2.9340081000000002,-1
404,405,1583938043523,6.4522,-3.7702,0.4224,12.098294000000001,-11.686061,2.0827734,-1
405,406,1583938043533,6.8546996,-3.6650998999999995,-0.1813,12.280683999999999,-11.504733,1.7956129,-1
406,407,1583938043543,6.646,-3.5437999,-0.022799998999999998,12.067801,-11.313522,2.2425241000000002,-1
407,408,1583938043553,6.1905,-3.4635,0.5894,11.785084,-11.206415,2.7176487000000003,-1
408,409,1583938043563,5.7296,-3.4814,0.9051,11.4359045,-11.14836,2.8792287999999995,-1
409,410,1583938043574,5.3865,-3.5765,0.8203,11.312939,-11.1255865,2.6822624,-1
410,411,1583938043584,5.2430997,-3.5907998,0.5866,11.3695755,-11.000772,2.3958776000000004,-1
411,412,1583938043594,5.0944,-3.6232998,0.34809998,11.332025,-10.926686,2.2066974999999998,-1
412,413,1583938043604,4.8413,-3.549,0.6123,11.16198,-10.633569999999999,2.7589247,-1
413,414,1583938043614,4.3271,-3.4771,1.554,10.689871,-10.44437,3.6993387,-1
414,415,1583938043625,3.5526,-3.4285,2.2273998,10.116143,-10.238871000000001,3.9140217000000006,-1
415,416,1583938043635,2.9332,-3.3918998,1.8558999,9.820259,-10.018728,3.164148,-1
416,417,1583938043645,2.6978998,-3.3044,0.8652,9.94153,-9.670583,2.0444567,-1
417,418,1583938043655,2.6701999,-3.1743999,0.2933,9.865289,-9.376345,1.9113295,-1
418,419,1583938043665,2.1713998,-3.1016,0.498,9.159785000000001,-9.112475,2.3840504,-1
419,420,1583938043676,1.2002,-2.9617999,1.135,8.554953,-8.761648,2.8527775,-1
420,421,1583938043686,0.3676,-2.7244,1.7879,7.885016,-8.20922,3.5120544000000002,-1
421,422,1583938043696,-0.24489999,-2.5240998,2.3265998,7.605353999999999,-7.884317,3.7531314,-1
422,423,1583938043706,-0.6063,-2.4577,2.5328999,7.4903083,-7.527437,3.7161841,-1
423,424,1583938043716,-0.8922,-2.2891998,2.4055,7.3054085,-7.159314599999999,3.3623881,-1
424,425,1583938043726,-1.3957,-2.2717,2.2086,6.8103547,-6.7565427,3.2084124,-1
425,426,1583938043737,-2.0488,-1.9661,2.1534998,6.311623,-6.2413680000000005,3.0917953999999996,-1
426,427,1583938043747,-2.5421999,-1.6565,2.0704,6.3042489999999995,-5.521479,2.8281267000000003,-1
427,428,1583938043757,-2.5024998,-1.2703999,1.8614998999999999,6.572103,-5.018362000000001,2.6898186,-1
428,429,1583938043767,-2.2742,-0.895,1.8649,6.895703299999999,-4.4923267,2.7586758,-1
429,430,1583938043777,-2.0762,-0.6803,2.0298998,7.153950999999999,-4.100904,2.8767482999999996,-1
430,431,1583938043788,-1.9889,-0.5803,2.1348,7.114380000000001,-3.8407784,2.5558965,-1
431,432,1583938043798,-2.1506998999999998,-0.54789996,1.7709,7.080209700000001,-3.646896,1.6300012,-1
432,433,1583938043810,-2.2384,-0.5546,0.84129995,7.203597500000001,-3.3040462,0.5625416,-1
433,434,1583938043820,-2.1829998,-0.47289997,0.1004,7.0903425,-3.0873613,0.5592376,-1
434,435,1583938043830,-2.4045,-0.60209996,0.2838,6.5477586,-2.8757236,1.1039376,-1
435,436,1583938043840,-2.9772,-0.4736,0.88079995,5.973725,-2.66308,1.8221886000000003,-1
436,437,1583938043850,-4.0166,-0.3231,2.6854,5.544061699999999,-2.1844027,2.8165292999999996,-1
437,438,1583938043861,-4.0166,-0.3231,2.6854,5.533709,-1.9227067999999998,2.803074,-1
438,439,1583938043871,-3.9907,0.0041,2.5351,5.7313647,-1.6637978999999998,2.2835991,-1
439,440,1583938043881,-3.9907,0.0041,2.5351,6.0049257,-1.9624697,1.7652067,-1
440,441,1583938043891,-3.688,-0.45299998,1.9419999,6.595575999999999,-2.20618,1.1833965,-1
441,442,1583938043901,-2.4438999,-0.84139997,0.5819,7.358416,-2.0927908,0.1665694,-1
442,443,1583938043911,-2.2904,-0.72209996,-0.1274,7.419861,-1.8294096000000002,-0.41136214,-1
443,444,1583938043922,-2.6266,-0.44329998,-0.043199997000000004,7.033982300000001,-1.4112478000000002,-0.20940647,-1
444,445,1583938043932,-3.1087,-0.17999999,0.5248,6.5472894,-1.0762893999999998,0.37250906,-1
445,446,1583938043942,-3.6771998,-0.0827,1.1130999,6.003019999999999,-0.88725287,0.8970690999999998,-1
446,447,1583938043952,-4.0765,-0.1056,1.4137,5.650546,-0.7653209,1.018685,-1
447,448,1583938043962,-4.1892,0.1003,1.1843,5.6057744000000005,-0.46831542,0.70891356,-1
448,449,1583938043972,-4.2117,0.1558,1.0803,5.546082,-0.37284425,0.66857606,-1
449,450,1583938043982,-4.4481,-0.078899994,1.6193,5.3157406,-0.77328885,1.4271166000000002,-1
450,451,1583938043992,-4.3592,-0.73249996,2.2647998,5.493314,-1.2456266000000003,1.7085981,-1
451,452,1583938044002,-3.6713,-1.0115,1.8475,6.292939,-1.3737546,1.0455,-1
452,453,1583938044012,-2.8365998,-0.696,0.76739997,7.063719,-0.89281696,-0.113925695,-1
453,454,1583938044022,-2.6204,-0.198,-0.42339998,7.106306599999999,-0.43807188,-1.3680469,-1
454,455,1583938044032,-3.0518,-0.1502,-1.4719,6.6249285,-0.37520012,-2.2810612,-1
455,456,1583938044043,-3.5509,0.024899999,-1.4304999,6.149382,-0.08773313,-2.0620494,-1
456,457,1583938044053,-3.9299998,0.3225,-0.69879997,5.77651,0.2795757,-1.3238882,-1
457,458,1583938044063,-3.9299998,0.3225,-0.69879997,5.363098,0.41186973,-0.4079241,-1
458,459,1583938044073,-4.357,0.23779999,0.9985,5.5840062999999995,0.18829918,0.23395180000000002,-1
459,460,1583938044083,-3.8665,0.0664,1.2807,6.0620327000000005,0.14923538,0.14272314,-1
460,461,1583938044094,-3.4457,0.114599995,0.97669995,6.415685,0.316207,-0.4222031,-1
461,462,1583938044104,-3.2921,0.3787,0.24569999,6.389655,0.60485196,-1.3063339,-1
462,463,1583938044114,-3.4254,0.5136,-0.4687,6.287375,0.6180775,-1.8615012999999998,-1
463,464,1583938044124,-3.4032,0.44889998,-0.8606,6.4061656,0.6050052,-2.2509327,-1
464,465,1583938044134,-3.1945999,0.4784,-1.2412,6.6505084000000005,0.583534,-2.69997,-1
465,466,1583938044144,-2.7986,0.34379998,-1.5853,7.2973447,0.42474097,-2.8472326,-1
466,467,1583938044155,-2.1564,0.317,-1.3727,7.805596,0.48978662,-2.4715345,-1
467,468,1583938044165,-1.7687,0.3762,-0.7266,7.904744,0.49367479999999997,-1.9089450000000001,-1
468,469,1583938044175,-1.9009,0.3118,-0.49499997,7.7335205,0.33813790000000005,-1.908332,-1
469,470,1583938044185,-2.0137,0.1371,-0.53029996,7.7120395,0.25186044,-2.141077,-1
470,471,1583938044195,-1.9889,0.090799995,-0.8886,7.715190400000001,0.21900241,-2.6991081,-1
471,472,1583938044206,-1.9343,-0.0133,-1.3526,7.848126,0.09771216,-2.8575369999999998,-1
472,473,1583938044216,-1.7026,-0.1078,-1.1958,8.155331,0.041007884,-2.5617382999999996,-1
473,474,1583938044226,-1.4397999,-0.106599994,-0.8935,8.341973,0.14244542,-2.3471797000000003,-1
474,475,1583938044236,-1.3271998999999999,-0.015,-0.6397,8.344291,0.17833929,-2.0460465,-1
475,476,1583938044247,-1.3608999,-0.0315,-0.2546,8.288286,0.13351984,-1.8919172999999998,-1
476,477,1583938044257,-1.3952999,-0.0919,-0.32439998,8.321306,0.032312144,-2.2213689999999997,-1
477,478,1583938044267,-1.3228999,-0.174,-0.5082,8.514327,-0.10321882,-2.1668963,-1
478,479,1583938044277,-1.0943999,-0.29799998,-0.45069999,8.829892,-0.27349445,-2.2267322999999997,-1
479,480,1583938044288,-0.7585,-0.4173,-0.53319997,9.081572,-0.18879716,-2.475777,-1
480,481,1583938044298,-0.47169998,-0.22219999,-0.96959996,9.312391,-0.0006607997,-3.1319127,-1
481,482,1583938044308,-0.31239998,-0.108399995,-1.4654,9.404672999999999,0.0746991,-3.4525057999999995,-1
482,483,1583938044318,-0.2509,-0.019299998999999998,-1.6853,9.513418,0.10175357,-3.4236224,-1
483,484,1583938044328,-0.0907,0.0055,-1.5884999,9.758421,0.13301226,-3.1455595,-1
484,485,1583938044338,0.139,0.0166,-1.2422999,9.871849000000001,0.041592073,-2.5695433999999997,-1
485,486,1583938044348,0.2322,-0.0937,-0.5589,9.709809,-0.08720641,-1.8638860000000002,-1
486,487,1583938044359,-0.0077,-0.2165,0.0656,9.2787485,-0.18103038,-1.8169404999999998,-1
487,488,1583938044369,-0.4447,-0.2791,0.0289,9.013086999999999,-0.103630625,-2.113285,-1
488,489,1583938044379,-0.5791,-0.139,-0.27989998,9.402547,0.15963578,-2.5202804,-1
489,490,1583938044389,-0.116799995,0.108399995,-0.69409996,9.922299,0.40152675,-3.0522337000000004,-1
490,491,1583938044400,0.2952,0.3216,-1.1334,10.166029,0.46496356,-3.4372883,d
491,492,1583938044410,0.5403,0.3974,-1.5159,10.295689999999999,0.4048212,-3.4612305,-1
492,493,1583938044420,0.66749996,0.3618,-1.5464,10.256128,0.28752446,-3.1238202999999998,-1
493,494,1583938044430,0.599,0.1837,-1.0842999,10.096683500000001,-0.053132124,-2.3225957999999998,-1
494,495,1583938044441,0.4719,-0.0673,-0.4059,10.034157,-0.16220237,-2.0482204,-1
495,496,1583938044451,0.4034,-0.1726,-0.13059999,9.947621,-0.16849434,-2.1605562999999997,-1
496,497,1583938044461,0.16569999,-0.23619999,-0.29909998,9.781118,-0.20990445,-2.1935484,-1
497,498,1583938044471,0.16569999,-0.23619999,-0.29909998,9.760806,-0.11216356,-2.1565627999999997,-1
498,499,1583938044481,0.2295,-0.1129,-0.2651,9.889192999999999,-0.110861115,-2.1640136,-1
499,500,1583938044491,0.5017,-0.1273,-0.41459998,10.201138,-0.12063904,-2.346193,-1
500,501,1583938044502,0.78389996,-0.0526,-0.8573,10.435233,-0.074430935,-2.8116833999999997,-1
501,502,1583938044512,0.8016,-0.14649999,-1.3184999,10.424574,-0.1852729,-3.228332,-1
502,503,1583938044522,0.7317,-0.32389998,-1.4132999,10.34345,-0.36194584,-3.1872475,-1
503,504,1583938044532,0.64269996,-0.44799998,-0.92679995,10.2958145,-0.46397713,-2.6391953999999997,-1
504,505,1583938044542,0.5833,-0.49769998,-0.4692,10.216969,-0.49309063,-2.267922,-1
505,506,1583938044552,0.5237,-0.48999998,-0.6494,10.138717,-0.48993027,-2.6155791,-1
506,507,1583938044563,0.3655,-0.569,-1.5589,10.008444,-0.57377523,-3.6116917,-1
507,508,1583938044573,0.47129998,-0.76299995,-2.6684,10.188066000000001,-0.7371938,-4.6715089999999995,-1
508,509,1583938044583,0.9105,-0.7402,-3.4153,10.742333,-0.7138359999999999,-5.309401,-1
509,510,1583938044593,1.2518,-0.79999995,-3.4559,10.945524,-0.7716512,-5.0893354,-1
510,511,1583938044603,1.24,-0.8596,-2.9768,10.800866000000001,-0.76030266,-4.6059556,-1
511,512,1583938044613,0.8262,-0.8009999999999999,-2.6557,10.247663000000001,-0.6739199,-4.3551583,-1
512,513,1583938044624,0.2166,-0.8555,-2.5198998,9.681778,-0.7874721,-4.31484,-1
513,514,1583938044634,-0.1572,-1.1434,-2.8242998,9.484668,-1.1129973,-4.9318547,-1
514,515,1583938044644,-0.0411,-1.4634999,-4.0028,9.785619,-1.3200575,-6.315454,-1
515,516,1583938044654,0.5166,-1.6209999,-5.2971,10.436430999999999,-1.497056,-7.374667999999999,-1
516,517,1583938044664,1.1330999,-1.8783,-5.994,10.971209,-1.6594499,-7.798537700000001,-1
517,518,1583938044674,1.3960999,-1.8524,-6.0385,10.965444,-1.4666209,-7.5718445999999995,-1
518,519,1583938044684,0.9328,-1.5784,-5.482599700000001,10.427534,-1.1770853000000001,-6.997552400000001,-1
519,520,1583938044695,-0.0997,-1.2509999,-4.6119,9.103425,-0.7752329000000001,-5.8773919999999995,-1
520,521,1583938044705,-1.3197,-1.1551,-3.6936998,7.9335895,-0.6521996999999999,-4.9679400000000005,-1
521,522,1583938044715,-2.2958998999999998,-1.0842999,-3.1204,7.01934,-0.50001466,-4.6035905,-1
522,523,1583938044725,-2.2958998999999998,-1.0842999,-3.1204,6.9986440000000005,-0.64469147,-4.681191,-1
523,524,1583938044736,-2.4779,-1.328,-3.3378,7.685052400000001,-0.7649379,-4.886076999999999,-1
524,525,1583938044746,-1.7134,-1.4283,-3.6664,8.347087,-0.85947055,-5.2252307,-1
525,526,1583938044756,-1.214,-1.5832,-4.0901,8.508389,-0.9936033000000001,-5.24944,-1
526,527,1583938044766,-1.2824999,-1.6846,-3.9378,8.214468,-0.9778494000000001,-4.722046,-1
527,528,1583938044777,-1.7222998999999999,-1.6093,-3.3267998999999997,7.638432000000001,-0.7211144,-3.648361,-1
528,529,1583938044787,-2.4250998,-1.3562,-2.1087,6.5337762999999995,-0.41339245,-1.6911683000000002,-1
529,530,1583938044797,-3.4308,-1.1840000000000002,-0.54829997,5.6507473,-0.181107,-0.434787,-1
530,531,1583938044808,-4.1907997,-0.9855,0.5105,5.4488582999999995,0.016184803,0.114835486,-1
531,532,1583938044818,-4.3039,-0.83129996,0.8013,5.5373095999999995,0.14070244,0.18972611,-1
532,533,1583938044828,-4.1921,-0.72779995,0.6694,5.729516,0.12902832,-0.06823475,-1
533,534,1583938044838,-3.9919998999999997,-0.74759996,0.35459998,5.964694000000001,0.079142734,-0.040969577,-1
534,535,1583938044848,-3.7619,-0.7881,0.37199998,6.139145,0.042846635,0.42267236,-1
535,536,1583938044858,-3.6193,-0.7851,0.7826,6.150742500000001,0.23633644,1.07605,-1
536,537,1583938044869,-3.6622,-0.50659996,1.4669999999999999,5.9350629999999995,0.5215912,1.8972037,-1
537,538,1583938044879,-3.9692,-0.1003,2.3954,5.549299700000001,0.8016649,2.6152344,-1
538,539,1583938044889,-4.2859,0.045199998,2.7312,5.380786,0.77898705,2.955527,-1
539,540,1583938044899,-4.4458,0.023,3.0442,5.3716598,0.41748175,3.053584,-1
540,541,1583938044909,-4.4296,-0.26229998,3.0307999,5.6312485,0.19053058,2.902548,-1
541,542,1583938044919,-4.1587,-0.42909998,2.8418999,5.9296136,0.20949264,3.1279,-1
542,543,1583938044930,-3.8681,-0.3427,3.0221999,6.085687,0.47310382,3.6523547,-1
543,544,1583938044940,-3.7142,-0.0063,3.4987,5.967136,0.661403,4.3091035,-1
544,545,1583938044950,-3.8339999,0.2643,4.0856,5.9709954000000005,0.9001145,4.6312957,-1
545,546,1583938044960,-3.8353,0.56799996,4.3464,5.908736,0.7203004,5.6978745,-1
546,547,1583938044970,-3.8456998,0.5924,5.0344996,5.6758475,0.40610450000000003,6.312101999999999,-1
547,548,1583938044980,-4.375099700000001,-0.051,6.4722,5.451912999999999,-0.15567099,6.9703636,-1
548,549,1583938044991,-4.375099700000001,-0.051,6.4722,5.8078065,-0.47717398,7.1247993,-1
549,550,1583938045001,-4.0013,-0.408,6.6801996,6.765209700000001,-0.7526604,7.1173773,-1
550,551,1583938045011,-2.1107,-0.44219998,6.8178997,7.768178999999999,-0.69380134,7.4365440000000005,-1
551,552,1583938045021,-2.0551,-0.2323,7.3271,7.630234700000001,-0.63031673,7.999181299999999,-1
552,553,1583938045032,-2.6065,-0.098,7.7211,7.053164999999999,-0.6137871,8.3884115,-1
553,554,1583938045042,-3.1866999,-0.063,7.8124,6.4984956,-0.68478954,8.47194,-1
554,555,1583938045052,-3.1866999,-0.063,7.8124,6.278133400000001,-0.87930405,8.578281,-1
555,556,1583938045062,-3.1783,-0.2597,8.1294,6.7275149999999995,-1.1410286,8.873927,-1
556,557,1583938045072,-2.4807,-0.40019998,8.3877,7.408138799999999,-1.4507808999999998,9.086704,-1
557,558,1583938045082,-1.7715,-0.6757,8.2262,8.115262,-1.8355482,8.750501,-1
558,559,1583938045092,-1.1395,-0.66999996,7.5530996,8.654905,-1.8692682,8.129425999999999,-1
559,560,1583938045102,-1.1443,-0.66929996,7.1807,8.458675999999999,-2.0722678,7.787275,-1
560,561,1583938045112,-1.5609,-0.977,7.112,8.107859,-2.4792342,7.7603740000000005,-1
561,562,1583938045123,-1.4465,-0.94909996,7.3725996,8.299434,-2.4957062999999997,8.01596,-1
562,563,1583938045133,-1.0941,-0.8364,7.3478,8.623866,-2.5769367,7.782468,-1
563,564,1583938045143,-0.95489997,-0.9651,6.898,8.715939,-2.956523,7.2410429999999995,-1
564,565,1583938045153,-0.74469995,-1.3377,6.393399700000001,9.008125999999999,-3.4762084000000004,6.800471300000001,-1
565,566,1583938045163,-0.36569998,-1.7881,6.0341,9.368223,-4.1665335,6.4527183,-1
566,567,1583938045173,0.1519,-2.3762999,5.8942,9.945772,-4.743210299999999,6.4192567,-1
567,568,1583938045184,0.72959995,-2.5635,5.871299700000001,10.362383,-4.977727,6.215539,-1
568,569,1583938045194,0.8077,-2.6854,5.4442997,10.19568,-5.222233,5.715543299999999,-1
569,570,1583938045204,0.5437,-2.761,5.1057,9.935095,-5.5104656,5.3894725,-1
570,571,1583938045214,0.527,-3.2087,4.7407,10.119026,-6.1406007,4.9276886,-1
571,572,1583938045225,1.1284,-3.5219,4.1312,10.903777999999999,-6.400831,4.0684476,-1
572,573,1583938045235,2.1787999,-3.6179997999999998,2.8995,11.752322,-6.624545599999999,3.0397357999999994,-1
573,574,1583938045245,3.2173998,-3.8507,1.9231,12.843628,-6.963784700000001,2.0581038,-1
574,575,1583938045255,3.7923,-3.9087,1.6080999,13.033574,-7.173736999999999,2.157827,-1
575,576,1583938045265,3.5484998,-4.0415,2.0742,12.467891999999999,-7.433536500000001,2.633689,-1
576,577,1583938045275,2.6536999,-4.3052,2.7308,11.346045,-7.8007307,3.2993152,-1
577,578,1583938045286,1.8664999,-4.495199700000001,3.0572,10.95421,-8.11078,3.0579991,-1
578,579,1583938045296,1.8663,-4.7019997,2.4306997999999997,11.432332,-8.198503,1.9776393,-1
579,580,1583938045307,2.6348999,-4.6089,1.101,12.2966,-8.235278,0.35037705,-1
580,581,1583938045317,3.5331,-4.6804,-0.75509995,13.279391,-8.447203,-1.8908543999999998,-1
581,582,1583938045327,4.330899700000001,-4.6903,-2.4987,13.592486,-8.238305,-2.3852952000000003,-1
582,583,1583938045337,4.5045,-4.410599700000001,-2.6455998,13.18755,-8.153482,-1.7895892,-1
583,584,1583938045347,4.0031,-4.3255,-1.9627,12.428215,-8.184416,-1.1701803999999998,-1
584,585,1583938045358,2.9858,-4.2546,-1.2458999,11.248199000000001,-7.826061200000001,-0.88003194,-1
585,586,1583938045367,2.0837998,-3.8576,-1.2509999,10.795092,-7.5509863,-1.5796655000000002,-1
586,587,1583938045377,1.742,-3.5089998,-2.5184999,10.850752,-7.083102,-3.9001162000000003,-1
587,588,1583938045387,1.923,-3.0474,-4.6661997,11.148121000000002,-6.816953,-5.864444000000001,-1
588,589,1583938045397,2.2439,-2.7963,-6.454799700000001,11.328003,-6.781039999999999,-6.461347,-1
589,590,1583938045407,2.3892,-2.7588,-6.9305,11.172121,-6.614661999999999,-6.8311553,-1
590,591,1583938045418,2.1801,-2.4984999,-7.3097997,10.724539,-6.328191,-7.142287,-1
591,592,1583938045428,1.6644,-2.2142,-7.5449996,10.016325,-6.2729044,-6.970824,-1
592,593,1583938045438,0.98749995,-2.1633,-7.3244,9.592647,-6.4520288,-6.926464,-1
593,594,1583938045448,0.69949996,-2.3834,-7.3629,9.742035000000001,-6.519143,-7.298877,-1
594,595,1583938045458,0.8796,-2.343,-7.7395997,9.843789,-6.481592,-7.7462100000000005,-1
595,596,1583938045468,0.9209,-2.3841,-8.099999,9.74961,-6.722707700000001,-7.8786380000000005,-1
596,597,1583938045478,0.7852,-2.6824,-8.1466,9.579689,-7.0058746,-7.8382235,-1
597,598,1583938045489,0.6899,-2.8622,-8.0981,9.566723,-7.042362,-7.918133,-1
598,599,1583938045499,0.6749,-2.8731,-8.1926,9.542129,-6.9410973,-7.9462410000000006,-1
599,600,1583938045509,0.66069996,-2.7658,-8.2553,9.279418,-6.849227000000001,-8.133486999999999,-1
600,601,1583938045519,0.401,-2.6701999,-8.4921,9.227022999999999,-6.814655,-8.307103999999999,-1
601,602,1583938045529,0.35529998,-2.6271,-8.693999999999999,9.17756,-6.687226,-8.128171,-1
602,603,1583938045539,0.2581,-2.4898,-8.4281,8.771149000000001,-6.816225,-7.330557300000001,-1
603,604,1583938045550,-0.10759999599999999,-2.6334,-7.7412996,8.446322,-6.797282000000001,-6.827841800000001,-1
604,605,1583938045560,-0.5058,-2.5958,-7.0831,8.023094,-6.5061088,-5.974443,-1
605,606,1583938045570,-0.8655,-2.3543,-6.3581,7.6192020000000005,-6.416039,-5.648658999999999,-1
606,607,1583938045580,-1.2727,-2.2676,-6.0396,7.515944999999999,-6.306787,-5.7436323,-1
607,608,1583938045590,-1.382,-2.1654,-6.1537,7.733635400000001,-6.1266856,-5.819337,-1
608,609,1583938045600,-1.1537,-1.9873999,-6.2725,7.876885400000001,-6.017654,-5.8889985000000005,-1
609,610,1583938045611,-1.0115,-1.8741,-6.3854,7.821895,-6.01751,-5.638996,-1
610,611,1583938045621,-1.1309,-1.8556,-5.5773,7.714788,-6.0038824,-4.8622309999999995,-1
611,612,1583938045631,-1.1309,-1.8556,-5.5773,7.534198299999999,-5.946795,-4.3207393,-1
612,613,1583938045641,-1.7565,-1.6687,-4.3198,7.0430427,-5.812499,-3.5798202000000003,-1
613,614,1583938045651,-2.1179,-1.6184,-3.5576,6.699445699999999,-5.765745,-2.8117793,-1
614,615,1583938045661,-2.1179,-1.6184,-3.5576,6.442844999999999,-5.7805605,-2.3211209999999998,-1
615,616,1583938045671,-2.5558,-1.685,-2.6978998,6.318921,-5.902521,-2.0989392000000002,-1
616,617,1583938045682,-2.3167,-1.8185999,-3.3583,6.607622999999999,-6.035476,-2.854597,-1
617,618,1583938045692,-1.8195,-1.8478999,-4.0183,7.1341276,-6.0922956,-3.3872879,-1
618,619,1583938045703,-1.3122,-1.9244,-4.2374,7.557336,-6.234147,-3.3393559999999995,-1
619,620,1583938045713,-1.3122,-1.9244,-4.2374,7.46582,-6.3157797,-2.467244,-1
620,621,1583938045724,-1.2875999,-2.0035,-3.4817,7.169455999999999,-6.3566055,-0.95889693,-1
621,622,1583938045734,-1.8731999,-2.0142,-1.1043999,6.703984700000001,-6.366671,-0.018061858,-1
622,623,1583938045745,-2.2821,-2.0664,-0.35619998,6.328833,-6.4418006,0.5954954,-1
623,624,1583938045755,-2.6067,-2.0611,-0.018199998999999998,6.094421400000001,-6.5077753,0.7299059,-1
624,625,1583938045766,-2.57,-2.1907,-0.1521,6.502623000000001,-6.9273353,0.56486875,-1
625,626,1583938045776,-1.7703999,-2.5737,-0.2904,7.5456047,-7.233639999999999,0.48993984,-1
626,627,1583938045786,-0.7513,-2.7454,-0.4299,8.233066,-7.44455,0.5787169,-1
627,628,1583938045797,-0.27399999999999997,-2.9119,-0.1396,8.315474499999999,-7.622889,1.0833858,-1
628,629,1583938045807,-0.45099998,-3.0404,0.5984,7.8580766,-7.7028555999999995,2.0664740000000004,-1
629,630,1583938045817,-0.9098,-2.9247,1.42,7.251415,-7.4306445000000005,3.0948024,-1
630,631,1583938045827,-1.4017998999999999,-2.6185,2.2986999,6.871033000000001,-7.195744500000001,3.9544072,-1
631,632,1583938045837,-1.7954999,-2.322,3.4519,6.619460000000001,-6.9443436,5.035629,-1
632,633,1583938045848,-1.9106,-2.0599,4.241699700000001,6.661828,-6.757433,5.2119665,-1
633,634,1583938045858,-1.7445998999999999,-1.8492998999999999,4.1129,7.147238000000001,-6.5892835000000005,4.813878,-1
634,635,1583938045868,-1.1604999,-1.6603999,3.6592998999999997,7.750557400000001,-6.5899158,4.6306543,-1
635,636,1583938045879,-0.56439996,-1.6256,3.5303998,8.072549,-6.6252059999999995,4.800346,-1
636,637,1583938045889,-0.1472,-1.6035999,3.7645,8.478022,-6.6221128,5.247918,-1
637,638,1583938045899,0.19579999,-1.5293,4.1699,8.5766535,-6.4611073,5.819481,-1
638,639,1583938045911,0.2672,-1.3652999,4.65,8.390374000000001,-6.368452,6.256528,-1
639,640,1583938045921,-0.5352,-1.0675,6.0915,7.629976299999999,-6.190706700000001,7.396953,-1
640,641,1583938045931,-0.91179997,-0.867,6.567199700000001,7.3355083,-6.004399299999999,7.7172875,-1
641,642,1583938045941,-0.72569996,-0.6823,6.3964,7.6215963,-5.8331084,7.5372057,-1
642,643,1583938045952,-0.1642,-0.4156,6.1545,8.161622999999999,-5.6180997,7.261824000000001,-1
643,644,1583938045961,-0.1642,-0.4156,6.1545,8.534286,-5.573951,6.816464999999999,-1
644,645,1583938045971,0.3385,-0.3154,5.6102,8.841989,-5.603763,6.326496,-1
645,646,1583938045981,0.6622,-0.3166,5.1092997,9.05692,-5.604318599999999,6.1856599999999995,-1
646,647,1583938045991,0.88269997,-0.2386,5.0463,9.016439,-5.589647,6.26146,-1
647,648,1583938046001,0.88269997,-0.2386,5.0463,8.909208,-5.5915813,6.295333,-1
648,649,1583938046011,0.7603,-0.24759999,5.0987,8.637533,-5.475731,6.168766000000001,-1
649,650,1583938046021,0.4784,-0.12329999,4.9835997,8.395489,-5.323335,5.9196925,-1
650,651,1583938046031,0.24499999,0.038,4.7453,8.269084,-5.0669546,5.555448,-1
651,652,1583938046041,0.1443,0.3717,4.192199700000001,8.310791,-4.9987674,5.3061256,-1
652,653,1583938046051,0.3071,0.3006,3.5282,8.504923,-5.108087,4.539837400000001,-1
653,654,1583938046062,0.6271,0.1616,2.6297,8.8158045,-5.2304306,3.6539252,-1
654,655,1583938046072,0.8667,0.1287,1.8936,8.996595,-5.2540565,2.99348,-1
655,656,1583938046082,0.7198,0.101399995,1.6671,8.782516000000001,-5.2987127,2.863226,-1
656,657,1583938046092,0.7198,0.101399995,1.6671,8.396666,-5.386513,3.1179018,-1
657,658,1583938046102,0.1722,0.0075,2.2381,8.335471,-5.357965,3.4730098,-1
658,659,1583938046112,0.4052,0.074499995,2.3646,8.599857,-5.2740335,3.4427376000000005,-1
659,660,1583938046123,0.71029997,0.1538,1.7629,8.925459,-5.2124453,2.5625525000000002,-1
660,661,1583938046133,0.8598,0.1652,0.95879996,9.029779,-5.239567,1.9419465,-1
661,662,1583938046143,0.8598,0.1652,0.95879996,9.009371,-5.3260646,1.7743044999999997,-1
662,663,1583938046153,0.82299995,-0.1478,0.63089997,8.901441,-5.6071343,1.7883346000000002,-1
663,664,1583938046163,0.76269996,-0.31689999,0.5027,8.882441,-5.700642,1.6360251000000001,-1
664,665,1583938046174,0.6703,-0.35200000000000004,0.2012,8.777047999999999,-5.734486,1.2315295,-1
665,666,1583938046184,0.6537,-0.3999,-0.0558,8.823563,-5.7853010000000005,1.0289321,-1
666,667,1583938046194,0.7525,-0.42999998,-0.2074,8.966908,-5.7794685,0.9676118,d
667,668,1583938046204,0.8789,-0.45209998,0.0585,9.048789999999999,-5.8115416,1.3314059999999999,-1
668,669,1583938046214,0.8275,-0.5053,0.3753,8.984242,-5.8577595,1.4769351000000002,-1
669,670,1583938046224,0.70589995,-0.56229997,0.34299999999999997,8.832421,-5.867039,1.4439527,-1
670,671,1583938046235,0.5317,-0.515,0.45069999,8.694467,-5.820831,1.6224548,-1
671,672,1583938046245,0.45679998,-0.5085,0.55189997,8.638299,-5.810134,1.6989447,-1
672,673,1583938046255,0.4139,-0.5597,0.57129997,8.653094,-5.8757825,1.6952096999999997,-1
673,674,1583938046265,0.597,-0.5821,0.3403,8.927078,-5.792388,1.295924,-1
674,675,1583938046275,0.866,-0.4409,-0.1426,9.116642,-5.6467056,1.0321691,-1
675,676,1583938046285,0.8843,-0.3154,-0.0521,9.062044,-5.4309974,1.5127428,-1
676,677,1583938046296,0.75879997,-0.20539999,0.56769997,8.915164,-5.458081,2.1962874,-1
677,678,1583938046306,0.5609,-0.3538,1.2590000000000001,8.773475999999999,-5.5954885,2.8407874,-1
678,679,1583938046316,0.5492,-0.4829,1.8429999,8.984884,-5.622888,3.1549067,-1
679,680,1583938046326,0.7962,-0.5017,1.982,9.295555,-5.5815926,3.1775843999999998,-1
680,681,1583938046336,1.0866,-0.5276,1.9756999,9.616733,-5.7101903,3.0634767999999997,-1
681,682,1583938046346,1.5073,-0.72889996,1.7499,10.313158,-5.8579893,2.837761,-1
682,683,1583938046358,2.3204,-0.8038,1.5107,11.268559,-5.743221,2.699472,-1
683,684,1583938046368,3.0412998,-0.7266,1.4167,11.635849,-5.6640015,2.9267392000000005,-1
684,685,1583938046378,3.2552,-0.7071,1.7277,11.621024,-5.713351,3.5840147000000004,-1
685,686,1583938046388,3.2271,-0.81399995,2.4427,11.832672,-5.8005853,4.4128776,-1
686,687,1583938046398,3.4606,-0.9457,3.2687,12.199454,-5.9105372,4.975295,-1
687,688,1583938046408,3.8214,-1.1688,3.7055,12.664484,-6.260962,5.150857,-1
688,689,1583938046419,4.2507997,-1.5626,3.8463998,13.030615,-6.4553137000000005,5.000232700000001,-1
689,690,1583938046429,4.5506,-1.7872,3.5964,13.308142000000002,-6.393696299999999,4.740059400000001,-1
690,691,1583938046439,4.7683,-1.7660999,3.3627,13.365248000000001,-6.200743,4.79459,-1
691,692,1583938046449,4.7261,-1.6373999,3.4266998999999996,13.193373000000001,-5.99285,5.048184,-1
692,693,1583938046459,4.4927,-1.5282999,3.7029,13.028575,-5.7044725,5.5237680000000005,-1
693,694,1583938046469,4.3247,-1.3967999,4.093899700000001,13.015234,-5.635577,5.572064,-1
694,695,1583938046480,4.2627997,-1.4376999,4.1352,12.984722999999999,-5.670226,5.1444116,-1
695,696,1583938046490,4.1699,-1.5926,3.7082998999999996,12.922934,-5.744255,4.6186833,-1
696,697,1583938046500,4.0253,-1.7940999,3.0145,12.779347999999999,-5.9717617,3.8006900000000003,-1
697,698,1583938046510,3.8483998999999995,-2.1403,2.3713999,12.724024,-6.061113400000001,3.547211,-1
698,699,1583938046520,3.7277,-2.3662999,2.1524,12.519328,-6.0748653,3.5979106,-1
699,700,1583938046531,3.4684,-2.5314999,2.2333,12.074774,-5.9333295999999995,4.0384817,-1
700,701,1583938046541,2.9542,-2.5377998,2.7056,11.454023,-5.715189499999999,4.6158867,-1
701,702,1583938046551,1.6212,-2.4764,3.5277998,10.803510000000001,-5.4900866,4.7091074,-1
702,703,1583938046561,1.4131,-2.3128998,2.4851,10.686605,-5.156957,3.5399995000000004,-1
703,704,1583938046572,1.3172,-2.0873,1.2636,10.647436,-4.7758769999999995,2.3656435,-1
704,705,1583938046582,1.2621,-1.8988999,0.2021,10.642868,-4.4615946,1.3005111999999999,-1
705,706,1583938046592,1.1776999,-1.8184999,-0.47669998,10.5732355,-4.2572355,0.80313975,-1
706,707,1583938046602,0.9546,-2.0556,0.1148,10.319814,-4.4233065,1.6462914,-1
707,708,1583938046613,0.5735,-2.2525,0.86329997,9.904401,-4.2086525,2.2189748,-1
708,709,1583938046622,-0.0711,-1.9677,1.3728,9.340221000000001,-3.7963133,2.4971333,-1
709,710,1583938046632,-0.97669995,-1.5113,1.4544,8.461482,-3.1336942000000003,2.3854964,-1
710,711,1583938046642,-1.7976999,-1.0411999,0.9823,7.7321987000000005,-2.5178192000000004,1.7917726999999999,-1
711,712,1583938046652,-2.2296,-0.7158,0.33089998,7.4397807,-2.0671632,1.123915,-1
712,713,1583938046663,-2.2338,-0.47129998,-0.15089999,7.456866000000001,-1.6805668000000002,0.5724536,-1
713,714,1583938046673,-2.2338,-0.47129998,-0.15089999,7.472494999999999,-1.5163723999999998,-0.051274225,-1
714,715,1583938046683,-2.0734,-0.58129996,-1.3967999,7.723167999999999,-1.6740354,-0.6699455,-1
715,716,1583938046693,-1.5787,-1.248,-1.3661,8.394531,-2.3889632,-0.6170432,-1
716,717,1583938046703,-1.0643,-1.7691,-1.2271999,8.848931,-2.6172072999999996,-0.70858794,-1
717,718,1583938046714,-0.7944,-1.839,-1.3633,8.978342999999999,-2.3798842000000002,-0.87015826,-1
718,719,1583938046724,-0.7944,-1.839,-1.3633,8.504636,-1.7664707,-0.74226004,-1
719,720,1583938046734,-1.9549999,-1.0030999,-0.894,7.357678999999999,-1.2169536,-0.33022743,-1
720,721,1583938046744,-3.2961,-0.6913,-0.3214,5.9835696,-0.82592297,0.18155710000000003,-1
721,722,1583938046754,-4.5067997,-0.5098,0.1401,5.0181317000000005,-0.51826805,0.44387543,-1
722,723,1583938046764,-4.960099700000001,-0.3577,0.12529999,4.932774,-0.31307536,0.16114892,-1
723,724,1583938046774,-4.5587,-0.44399998,-0.2428,5.6130047,-0.49222872,-0.31027895,-1
724,725,1583938046785,-3.6464,-0.93789995,-0.6328,6.671835400000001,-0.99050045,-0.8404031,-1
725,726,1583938046795,-2.9194999,-1.2636,-0.9729,7.0905046,-1.1402912,-1.3874878000000002,-1
726,727,1583938046805,-2.7309,-1.4629999,-1.6042,7.060165400000001,-1.164061,-1.8848401000000001,-1
727,728,1583938046815,-3.0218,-1.3079,-2.0922,6.518319,-0.6493458000000001,-2.1855516,-1
728,729,1583938046825,-3.4980998,-0.84679997,-1.7468,6.005903,-0.062345013,-1.6182313,-1
729,730,1583938046836,-4.1693997000000005,-0.3804,-0.9526,4.8890557,0.32980606,-1.0158311,-1
730,731,1583938046846,-5.2812,-0.2173,-0.6412,3.8840082000000002,0.59373325,-0.97569466,-1
731,732,1583938046856,-6.1871,0.035299998,-0.7173,3.4025437999999997,0.8771876000000001,-1.3116491000000001,-1
732,733,1583938046866,-6.339299700000001,0.19409999,-1.107,3.7808660000000005,0.9325799000000001,-1.9980186999999998,-1
733,734,1583938046876,-5.6109,0.1516,-2.0146,4.8916316,0.97937214,-3.0918148,-1
734,735,1583938046886,-4.4044,0.29889998,-3.0173,6.0152116,1.1679202,-3.7944458,-1
735,736,1583938046897,-3.4824998,0.4211,-3.488,6.5262012,1.1540148000000001,-3.919653,-1
736,737,1583938046907,-3.1869,0.3951,-3.2522,6.5664050000000005,1.1974646999999998,-3.1545522,-1
737,738,1583938046917,-3.2329,0.43339998,-2.2024999,6.4467419999999995,1.237831,-1.9417071,-1
738,739,1583938046927,-3.3562999,0.4531,-1.2770000000000001,6.2158647,1.3250566000000001,-1.5080885,-1
739,740,1583938046937,-3.5872998,0.49159998,-0.9298,6.0381480000000005,1.3853331,-1.6286988000000002,-1
740,741,1583938046948,-3.8188,0.4973,-1.31,5.822258000000001,1.1554418,-2.4028207999999998,-1
741,742,1583938046957,-3.9531998999999995,0.2012,-1.8693999,5.986998000000001,0.7943674,-2.5636632,-1
742,743,1583938046968,-3.6274998,-0.141,-1.8546,6.98675,0.5675503000000001,-2.2942486,-1
743,744,1583938046978,-2.4780998,-0.30539998,-1.5449,8.439034,0.5980141,-2.1932514,-1
744,745,1583938046988,-1.0834,-0.20889999,-1.4554,9.211941,0.6504566999999999,-2.3808613,-1
745,746,1583938046998,-0.5106,-0.2193,-1.5997,9.1422205,0.29711083,-2.5979577999999997,-1
746,747,1583938047008,-0.6448,-0.5981,-1.7766,8.976398,0.05731719,-2.7058885,-1
747,748,1583938047019,-0.7678,-0.77599996,-1.7959,9.003406,0.08406521,-2.5225596,-1
748,749,1583938047029,-0.7148,-0.74,-1.4832,9.161174,0.19484971,-2.015822,-1
749,750,1583938047039,-0.5647,-0.62619996,-0.9159,9.151098,0.2570702,-1.3202107,-1
750,751,1583938047049,-0.61109996,-0.5607,-0.1963,9.00329,0.35838327,-1.176798,-1
751,752,1583938047059,-0.7267,-0.47200000000000003,-0.1563,9.159392,0.31143776,-1.7784226000000003,-1
752,753,1583938047070,-0.5685,-0.5142,-0.73679996,9.441199000000001,0.27339867,-2.1348617,-1
753,754,1583938047080,-0.2145,-0.54179996,-1.1007999,10.06621,0.21724986,-2.1287806000000002,-1
754,755,1583938047090,0.3454,-0.58919996,-1.0531,10.557769,0.23073400000000002,-1.9078915,-1
755,756,1583938047100,0.83669996,-0.56299996,-0.8240000000000001,10.544706,0.46143928,-1.5104635,-1
756,757,1583938047111,0.1828,-0.2741,-0.070999995,9.740378999999999,0.5413865,-1.0869676000000001,-1
757,758,1583938047121,0.1828,-0.2741,-0.070999995,8.942899,0.5643611999999999,-0.55734146,-1
758,759,1583938047132,-1.1156,-0.34579998,0.7597,8.563514,0.4765323,-0.38816714,-1
759,760,1583938047142,-0.9169,-0.4477,0.5042,8.944996000000002,0.40544369999999996,-0.729111,-1
760,761,1583938047152,-0.9169,-0.4477,0.5042,9.701296000000001,0.5101948000000001,-1.0111767,-1
761,762,1583938047163,0.6525,-0.18869999,-0.1227,10.453851,0.68843836,-1.4495358,-1
762,763,1583938047174,0.7197,0.0092,-0.49899998,10.344474,0.9068086999999999,-1.7642968,-1
763,764,1583938047183,0.41459998,0.19039999,-0.584,10.021898,1.0303016999999999,-1.6830281000000002,-1
764,765,1583938047193,-0.0859,0.22829999,-0.0683,9.410046000000001,1.0220368,-0.9254068999999999,d
765,766,1583938047203,-0.4583,0.1565,0.6178,9.253436,0.94502974,-0.395072,-1
766,767,1583938047213,-0.2913,0.0299,0.7874,9.596036999999999,0.8717863000000001,-0.48750734,-1
767,768,1583938047224,0.1008,0.078,0.43969998,9.976255,0.87495625,-0.90886766,-1
768,769,1583938047234,0.39479998,0.0276,0.0517,10.166748,0.80046785,-1.1970338,-1
769,770,1583938047244,0.5124,0.0175,-0.1776,10.274389999999999,0.77858484,-1.438197,-1
770,771,1583938047254,0.5911,-0.0246,-0.2793,10.312717,0.7531392,-1.4397388,-1
771,772,1583938047264,0.602,-0.0514,-0.14109999,10.226727499999999,0.6628012,-1.1732546,-1
772,773,1583938047275,0.44689998,-0.1805,0.1866,10.092499,0.58705825,-0.82282007,-1
773,774,1583938047285,0.37039998,-0.1741,0.4156,10.117609,0.64987254,-0.86813754,-1
774,775,1583938047295,0.48929998,-0.047799997000000004,0.1011,10.250229,0.7575350000000001,-1.4018434,-1
775,776,1583938047305,0.56839997,-0.0558,-0.37269998,10.304846000000001,0.67296225,-1.8435544999999998,-1
776,777,1583938047315,0.7159,-0.2487,-1.064,10.592073,0.50123096,-2.6694392999999996,-1
777,778,1583938047325,0.9422,-0.2577,-1.528,10.604216000000001,0.5302199000000001,-2.692567,-1
778,779,1583938047336,0.81689996,-0.2934,-1.3191,10.388653,0.45740744,-2.4128575,-1
779,780,1583938047346,0.6044,-0.3369,-1.0088,10.1416855,0.48310202,-1.9789801,-1
780,781,1583938047356,0.3233,-0.33519998,-0.47529998,9.9017,0.41375634,-1.8852136000000002,-1
781,782,1583938047366,0.119899996,-0.4606,-0.7609999999999999,9.761486,0.29477412,-2.630088,-1
782,783,1583938047376,0.1312,-0.5823,-1.7391,10.070528999999999,0.293012,-3.6596519999999995,-1
783,784,1583938047386,0.5248,-0.54499996,-2.7768998,10.333049,0.33826238,-4.4272523,-1
784,785,1583938047397,0.6637,-0.5101,-3.4796998999999995,10.233911,0.23924778,-5.057416,-1
785,786,1583938047407,0.4588,-0.7129,-4.0228,10.0463295,0.21102494,-5.814913,-1
786,787,1583938047417,0.3004,-0.57159996,-4.8197,10.000197,0.54543746,-6.4440610000000005,-1
787,788,1583938047427,0.3154,-0.23199999999999998,-5.2671,9.849458,0.85465336,-6.567372,-1
788,789,1583938047437,0.1033,-0.0221,-5.2801,9.494533,1.073177,-5.8225837,-1
789,790,1583938047447,-0.2933,0.1039,-4.5705,9.160973,0.77429444,-5.269580400000001,-1
790,791,1583938047458,-0.58919996,-0.30449998,-4.0498,9.064735,0.3332633,-4.411901,-1
791,792,1583938047468,-0.65639997,-0.7556,-3.1910000000000003,9.055810000000001,-0.15527835,-4.326552400000001,-1
792,793,1583938047478,-0.6335,-1.2656,-3.405,9.091234,-0.43894336,-4.83374,-1
793,794,1583938047488,-0.64,-1.5005,-3.8051,8.780600999999999,-0.41778820000000005,-4.888001999999999,-1
794,795,1583938047498,-1.0498999,-1.4997,-3.8063,8.220818,-0.4183245,-4.741812,-1
795,796,1583938047508,-1.5601,-1.4969999999999999,-3.7098,7.9731703,-0.15296075,-4.790587,-1
796,797,1583938047518,-1.739,-1.1939,-3.8737998,7.9801517,0.20650469,-5.1872582000000005,-1
797,798,1583938047528,-1.7326,-0.9137,-4.2987,7.958661599999999,0.28349265,-5.0822678,-1
798,799,1583938047538,-1.7756,-0.8759999999999999,-4.1085997,7.833062,0.29124984,-4.4419527,-1
799,800,1583938047548,-1.926,-0.89769995,-3.4773998,7.60159,0.2504239,-3.7102177000000003,-1
800,801,1583938047558,-2.1838,-0.9605,-2.8070998,7.1735644,0.24489810000000004,-3.0054893,-1
801,802,1583938047568,-2.6469,-0.9468,-2.1661,6.840014,0.39377916,-2.393579,-1
802,803,1583938047579,-2.904,-0.77529997,-1.6159999,6.7864895,0.78723264,-1.7318601999999998,-1
803,804,1583938047589,-2.9559999,-0.3724,-1.0538,6.5321484000000005,1.0812886,-1.4267622,-1
804,805,1583938047599,-3.1857,-0.1576,-0.91569996,6.344855,1.135522,-1.4668028,-1
805,806,1583938047609,-3.4162,-0.071499996,-1.0603,6.338122,1.0883945,-1.3748368,-1
806,807,1583938047619,-3.3628,-0.1431,-0.98289996,6.4403834,0.88641965,-0.73485714,-1
807,808,1583938047629,-3.2993,-0.30769998,-0.4901,6.538766000000001,0.7469621999999999,0.23146184,-1
808,809,1583938047639,-3.2056,-0.4215,0.3825,6.46966,0.63528705,1.2629606000000002,-1
809,810,1583938047650,-3.2976,-0.515,1.6033,6.3765540000000005,0.59435576,2.4599178,-1
810,811,1583938047660,-3.3892998999999997,-0.5176,2.6661,6.1953510000000005,0.7467036,3.513807,-1
811,812,1583938047670,-3.569,-0.3399,3.4236998999999995,5.924002,1.2035748,3.9107849999999997,-1
812,813,1583938047680,-3.8363,0.1563,3.7252,5.595728,1.5572559,4.482846,-1
813,814,1583938047691,-4.1616,0.5518,4.1911,5.461385,1.4919323999999998,5.5349255,-1
814,815,1583938047701,-4.1933,0.0784,5.6426997000000005,5.64525,0.8387559000000001,6.2661047,-1
815,816,1583938047711,-3.6655,-0.4278,6.1987,6.2399309999999995,0.31116003,6.9565353000000005,-1
816,817,1583938047721,-3.6655,-0.4278,6.1987,6.9135065,-0.117354184,7.748709700000001,-1
817,818,1583938047733,-2.4638999,-1.1156,7.7394996,7.364526,-0.5197238000000001,8.664587,-1
818,819,1583938047743,-2.2305999,-1.0431,8.6659,7.569603999999999,-0.3300455,9.7124815,-1
819,820,1583938047754,-2.3004,-0.5336,9.3074,7.330816,0.13645035,10.2531395,-1
820,821,1583938047764,-2.6734998,-0.084699996,9.6354,6.973332400000001,0.4905049,10.448038,-1
821,822,1583938047774,-2.8111,0.27879998,9.466499,7.042055599999999,0.8076313,10.157276,-1
822,823,1583938047784,-2.4687,0.67899996,9.023,7.526977499999999,1.0058711999999999,9.633339,-1
823,824,1583938047794,-1.8727,0.6551,8.4151,8.142671,0.686092,9.152775,-1
824,825,1583938047804,-1.3276,0.0563,8.1896,8.699629,-0.3540737,8.947535,-1
825,826,1583938047814,-0.9111,-0.7484,8.2136,9.068163,-0.9708104999999999,9.151653999999999,-1
826,827,1583938047824,-0.4159,-1.1152999,8.652699,9.524067,-1.184268,9.360802,-1
827,828,1583938047834,-0.14479999,-0.94759995,8.712999,9.592724,-0.96288085,9.368971,-1
828,829,1583938047844,-0.39159998,-0.6173,8.6592,9.116258,-0.7307199000000001,8.828244999999999,-1
829,830,1583938047855,-0.8135,-0.3972,7.8286996,8.880564,-0.6147544,7.722248599999999,-1
830,831,1583938047865,-0.872,-0.3416,6.6777997000000004,9.2133,-1.0425790000000001,6.400869999999999,-1
831,832,1583938047875,-0.2244,-0.89849997,5.4491997,10.235299000000001,-1.8347533999999999,5.2857847,-1
832,833,1583938047885,0.8937,-1.6947,4.4501,11.440032,-2.7912657000000003,4.3169947,-1
833,834,1583938047895,2.0811,-2.4536998,3.9018998,12.221327,-3.3198287000000004,4.221945,-1
834,835,1583938047905,2.4459999,-2.7433,4.152,12.000160000000001,-3.5322709999999997,4.4814476999999995,-1
835,836,1583938047916,1.959,-2.8012,4.7022,11.336699000000001,-3.4041622000000005,5.123429,-1
836,837,1583938047926,1.3062999,-2.4826999,5.3047,10.866927,-3.091077,4.9576163,-1
837,838,1583938047936,1.0861,-2.1399,4.5547,11.027942999999999,-2.9743264,3.478296,-1
838,839,1583938047946,1.4160999,-2.1114,2.9422998,11.527296,-3.1772110000000002,1.8316122,-1
839,840,1583938047956,2.1102,-2.3609,1.3076999,12.487774,-3.643726,0.21514297,-1
840,841,1583938047967,3.0802999,-2.7659,-0.0383,13.136947,-4.0118012,-0.69631046,-1
841,842,1583938047977,3.5216,-2.9833,-0.5046,13.214920999999999,-4.170077,-0.49397168,-1
842,843,1583938047987,3.3646,-2.9517,0.1048,12.434277999999999,-4.022977,0.7191128999999999,-1
843,844,1583938047997,2.4814,-2.7875,1.4587,11.572374,-3.9752653,1.3949577,-1
844,845,1583938048007,1.5581,-2.7064998,1.8389,11.260696000000001,-3.9072603999999997,-0.15289372,-1
845,846,1583938048018,1.6748999,-2.5958,-0.019199999,12.201541,-3.808294,-2.808092,-1
846,847,1583938048028,2.7158,-2.4693,-2.6469998,13.252022,-4.0208797,-5.0360403,-1
847,848,1583938048038,3.7293,-2.6594,-4.5443997000000005,13.653835,-4.348876000000001,-5.950501,-1
848,849,1583938048048,3.949,-2.9435,-5.237,13.332370999999998,-4.5760760000000005,-6.2431297,-1
849,850,1583938048058,3.5300998999999997,-3.0539,-5.3806996,12.619195,-4.5012426,-6.255992,-1
850,851,1583938048069,2.8339999,-2.9415,-5.3013,12.069889,-4.4442606,-6.1176639999999995,-1
851,852,1583938048079,2.3709,-2.8186,-5.1665,11.990592999999999,-4.1727104,-6.5850029999999995,-1
852,853,1583938048089,2.3971,-2.4953,-5.8286,12.147902,-3.8521364,-7.776644999999999,-1
853,854,1583938048099,2.5121999,-2.1861,-6.9315996,11.991138000000001,-3.7448857,-8.668610000000001,-1
854,855,1583938048109,2.373,-2.1165,-7.5726,11.6159,-3.7635797999999996,-9.224812,-1
855,856,1583938048119,1.9981999,-2.1172,-8.078199,11.201398,-3.8161660000000004,-9.452663000000001,-1
856,857,1583938048130,1.5927,-2.1649,-8.2668,10.905664999999999,-3.7739608000000002,-9.914311999999999,-1
857,858,1583938048140,1.3023,-2.1095,-8.719,10.911766,-3.7637712999999997,-10.674797,-1
858,859,1583938048150,1.3130000000000002,-2.0802,-9.4946995,11.114201,-3.6748027999999997,-10.878639,-1
859,860,1583938048161,1.5078,-1.9764999,-9.7342,11.077243,-3.6811616000000003,-10.526089,-1
860,861,1583938048171,1.4656999,-1.9832,-9.421,10.523608,-3.8207247000000004,-9.834461,-1
861,862,1583938048181,0.91279995,-2.1237,-8.7276,9.731722,-3.9549339999999997,-8.890513,-1
862,863,1583938048191,-0.5083,-2.0785,-7.54,9.022530999999999,-3.6619029999999997,-8.728684,-1
863,864,1583938048201,-0.7094,-1.8463999,-8.1289,8.943014,-3.3782089,-9.309422,-1
864,865,1583938048211,-0.7094,-1.8463999,-8.1289,9.112246,-2.9842575,-9.479324,-1
865,866,1583938048222,-0.5184,-1.3826,-8.4045,9.0399885,-2.7165952,-8.838751,-1
866,867,1583938048231,-0.9508,-1.16,-6.955,8.606753,-2.7416387,-7.761609599999999,-1
867,868,1583938048241,-1.3392,-1.2702999,-6.2328,8.279944,-2.8439667,-7.211259,-1
868,869,1583938048251,-1.4433999,-1.3422999,-6.4049997,8.240469000000001,-2.8298602,-7.434761999999999,-1
869,870,1583938048261,-1.4433999,-1.3422999,-6.4049997,8.320253,-2.6955264,-7.5786448,-1
870,871,1583938048272,-1.6326,-1.2104,-6.2239,7.904542999999999,-2.6964552000000004,-6.9309936,-1
871,872,1583938048282,-2.2179,-1.3728,-4.8862,7.3495955,-2.8063683999999998,-5.540298,-1
872,873,1583938048292,-2.6067998,-1.3377,-3.9124,7.023477000000001,-2.7009947,-4.697673,-1
873,874,1583938048303,-2.7401,-1.1567,-3.6339,6.9596477,-2.482184,-4.511767400000001,-1
874,875,1583938048313,-2.5881,-1.1603999,-3.6977,7.262398700000001,-2.557601,-4.541619,-1
875,876,1583938048323,-2.2292,-1.2524998999999999,-3.7001998,7.514259299999999,-2.6155217,-4.418116,-1
876,877,1583938048333,-2.1643,-1.3895998999999999,-3.3463,7.435231,-2.791419,-3.8345056000000004,-1
877,878,1583938048343,-2.3841,-1.5079,-2.7426999,7.2410235,-2.919911,-3.1472452,-1
878,879,1583938048353,-2.5839999,-1.6074,-1.7673,7.0815887,-2.9355592999999995,-1.9739808999999997,-1
879,880,1583938048364,-2.7538998,-1.5577999,-0.8781,6.853928999999999,-2.9324276,-1.1841339,-1
880,881,1583938048374,-2.9817998,-1.6219999999999999,-0.2834,6.708611,-3.0317392000000005,-0.6251644000000001,-1
881,882,1583938048384,-2.983,-1.68,0.065299995,6.7985272,-3.0613604,-0.21752758,-1
882,883,1583938048394,-2.8260999,-1.6818999,0.5013,6.9105954,-3.042724,0.18759048,-1
883,884,1583938048405,-2.7466,-1.6003,0.8488,6.9081434999999995,-3.0547907000000003,0.691072,-1
884,885,1583938048415,-2.8427,-1.6331999,1.1769,6.710497,-3.0462290000000003,1.2580764,-1
885,886,1583938048425,-3.1439,-1.5654999,1.7348,6.3257203,-3.0426376,1.8691915000000001,-1
886,887,1583938048436,-3.4833,-1.5331999,2.3467,6.124205,-3.0137062,2.7069707000000003,-1
887,888,1583938048446,-3.5565,-1.5042,3.2684,6.2225204000000005,-3.0132751,3.6506882000000007,-1
888,889,1583938048456,-3.3730998,-1.3694,4.1042,6.3781247,-2.7939184,4.490497599999999,-1
889,890,1583938048466,-3.3255,-1.0806,4.9262,6.23611,-2.6368685000000003,5.217042,-1
890,891,1583938048476,-3.4726,-0.8935,5.4062,6.195494999999999,-2.485622,5.4734707,-1
891,892,1583938048486,-3.3528,-0.54179996,5.4283,6.4946933,-2.1865764,5.3385620000000005,-1
892,893,1583938048496,-3.0347,-0.31039998,5.2079,6.7368429999999995,-2.1814720000000003,5.297506299999999,-1
893,894,1583938048507,-2.8628,-0.33249998,5.2503,6.7648934999999994,-2.4481864,5.512946,-1
894,895,1583938048517,-2.9264997999999998,-0.6128,5.6057997,6.4280194999999996,-2.8127656,6.324159,-1
895,896,1583938048527,-3.3929,-0.868,6.7640996,6.0010953,-2.98556,7.3983035,-1
896,897,1583938048537,-3.7705,-0.8678,7.964699700000001,5.9464025000000005,-2.6472783,8.413378,-1
897,898,1583938048547,-3.5665998,-0.30879998,8.3891,6.1373158,-1.9744503,8.392797,-1
898,899,1583938048558,-3.3978,0.4114,8.3042,6.2852583,-1.5914162,8.102764,-1
899,900,1583938048568,-3.2054,0.85859996,7.9314,6.3610783,-1.4572260000000001,7.591927,-1
900,901,1583938048578,-3.1174,0.9899,7.3766,6.477168,-1.9517723000000002,7.26215,-1
901,902,1583938048588,-2.9294,0.5552,7.1134996,6.620456,-2.5469037999999995,7.490499499999999,-1
902,903,1583938048598,-2.8388,0.0698,7.4603996,6.2689395,-3.269675,7.937688400000001,-1
903,904,1583938048609,-3.1894,-0.5664,7.9846997,6.327348000000001,-3.7199190000000004,8.564998,-1
904,905,1583938048619,-2.9403,-0.73219997,8.647699000000001,6.770630000000001,-3.3725970000000003,9.043877,-1
905,906,1583938048629,-2.5599,-0.303,9.0616,6.684065299999999,-3.3468833,8.620907,-1
906,907,1583938048640,-2.6067,-0.1502,8.6528,6.734850999999999,-3.4727129999999997,7.516567,-1
907,908,1583938048650,-2.5007,-0.1432,7.5273,7.356836,-3.8783097,6.376582599999999,-1
908,909,1583938048660,-1.8183999,-0.39699998,6.3448997,8.151807000000002,-4.450878599999999,5.3969325999999995,-1
909,910,1583938048670,-0.96269995,-0.8183,5.3065,8.55611,-5.198788599999999,5.1210059999999995,-1
910,911,1583938048680,-0.6814,-1.8075,5.3624,8.258052000000001,-5.8391423,5.607163,-1
911,912,1583938048691,-0.6814,-1.8075,5.3624,8.222206,-5.988579,5.9364233,-1
912,913,1583938048701,-0.72179997,-1.9339,5.7289,8.569786,-5.6075845,6.6211839999999995,-1
913,914,1583938048712,-0.3116,-1.4288,6.3924,8.604061,-5.6307599999999995,6.426545,-1
914,915,1583938048722,-0.2233,-1.3266,6.1808,8.480512,-5.802827,5.8620305,-1
915,916,1583938048732,-0.1441,-1.6557,4.876,8.654053,-6.4314860000000005,4.7793339999999995,-1
916,917,1583938048743,0.4308,-2.1759999,3.5382998,9.197863,-6.9753055999999996,3.6910641,-1
917,918,1583938048753,1.2760999,-2.6246,2.5054998,9.949738,-7.573894,2.7408152,-1
918,919,1583938048763,1.9653,-3.0191,1.1376,10.640369,-8.158261,1.1968806,-1
919,920,1583938048773,2.5430999,-3.2473998,0.1717,11.021381,-8.381917999999999,0.64206743,-1
920,921,1583938048783,3.0751,-3.2438998,0.41889998,11.473944,-8.419210000000001,1.4743015,-1
921,922,1583938048793,3.1188,-3.1174,1.5805,11.129418,-8.401513000000001,2.5667279,-1
922,923,1583938048803,2.3817,-3.0131997999999998,2.2271,10.16173,-8.406137,2.966167,-1
923,924,1583938048814,1.4482,-2.9236999,2.2055,9.297959,-8.356319000000001,2.760256,-1
924,925,1583938048824,0.9826,-2.8106,1.7442,9.043485,-8.39974,2.395983,-1
925,926,1583938048834,1.4096999,-3.0035,0.6612,9.870068,-8.78379,0.88817227,-1
926,927,1583938048844,2.8637,-3.221,-1.1711999,11.0830765,-8.997084,-0.5565274,-1
927,928,1583938048855,4.2053,-3.3960000000000004,-2.6562997999999998,12.363983000000001,-9.418617,-1.7373285,-1
928,929,1583938048865,4.5494,-3.5893,-2.6016998,11.975021,-9.479994999999999,-0.7714214,-1
929,930,1583938048876,3.8530998,-3.4617,-1.339,10.872108,-9.24859,0.38805223,-1
930,931,1583938048886,2.6525,-3.1260998,-0.50159997,9.697925,-8.8908205,0.7838329,-1
931,932,1583938048896,1.6347,-2.7688,-0.3859,8.86207,-8.612317,0.5266956,-1
932,933,1583938048906,1.0144,-2.4793,-0.867,8.538269999999999,-8.347202000000001,0.027188554,-1
933,934,1583938048916,0.8933,-2.2337,-1.4438,8.756811,-8.233295,-0.91107994,-1
934,935,1583938048927,1.2998999,-2.1204,-2.4768,9.559223,-7.990925999999999,-1.8552381999999998,-1
935,936,1583938048936,2.1598,-1.7983999,-3.3946998,10.015788,-7.836059599999999,-2.134134,-1
936,937,1583938048946,2.5925,-1.6557,-3.6325,9.975144,-7.9359074000000005,-2.0123935,-1
937,938,1583938048956,2.3274999,-1.8051,-3.3228,9.390336999999999,-8.039634,-1.2894212999999999,-1
938,939,1583938048966,1.6401,-1.8549,-2.4645,8.621119,-8.005817,-0.47512454,-1
939,940,1583938048976,0.8885,-1.7342,-1.8887,8.008279,-7.860212,-0.3275268,-1
940,941,1583938048986,0.47239998,-1.5755,-2.033,7.821789999999999,-7.747522,-0.9058893,-1
941,942,1583938048997,0.4254,-1.5124999,-2.9608998,8.15692,-7.8341055,-2.4382646,-1
942,943,1583938049007,0.9246,-1.5626999,-4.3908,8.838185000000001,-7.8095317,-3.2775470999999996,-1
943,944,1583938049017,1.8091999,-1.5106,-5.1386,9.529698,-7.895809,-3.1160917,-1
944,945,1583938049027,2.2381,-1.6056,-4.7571,9.348754,-7.910538000000001,-2.6466272,-1
945,946,1583938049037,1.9616,-1.5784,-4.3661,8.829088,-7.8526077,-2.4231333999999998,-1
946,947,1583938049047,1.4518,-1.4986,-4.1615,8.482648,-7.663083,-2.1344116,-1
947,948,1583938049058,1.1538,-1.2749,-3.8144998999999995,8.185345,-7.4989557,-1.4372966999999999,-1
948,949,1583938049069,0.82629997,-1.1590999,-3.0256,7.711848299999999,-7.599426299999999,-0.61624837,-1
949,950,1583938049079,0.35459998,-1.2677,-2.2549999,7.3787384000000005,-7.7366714000000005,-0.258727,-1
950,951,1583938049089,0.115899995,-1.393,-2.0721,7.735042999999999,-7.8522253,-0.7989738000000001,-1
951,952,1583938049099,0.66029996,-1.4455,-2.8486,8.500632000000001,-7.775898,-1.8127267,-1
952,953,1583938049109,1.4828,-1.3578,-3.912,9.289214999999999,-7.81636,-2.2721741,-1
953,954,1583938049119,2.1134,-1.3895,-4.184,9.115722,-7.803651299999999,-1.3227773999999999,-1
954,955,1583938049130,1.9469999,-1.3586999,-3.2329998,8.386056,-7.865211,-0.4280737,-1
955,956,1583938049140,1.2193999,-1.4239998999999999,-2.3123,7.9976106,-7.716311,-0.17612706,-1
956,957,1583938049150,0.8297,-1.2779,-2.0430999,7.895339999999999,-7.42305,0.354112,-1
957,958,1583938049160,0.71419996,-0.98499995,-1.5083,7.5889014999999995,-7.287069,0.97379845,-1
958,959,1583938049170,0.40469998,-0.8486,-0.8721,7.267245299999999,-7.235076400000001,1.0317955,-1
959,960,1583938049181,0.0458,-0.6698,-1.0950999,7.259009,-7.0838779999999995,0.6477369000000001,-1
960,961,1583938049191,0.0458,-0.6698,-1.0950999,7.5669413,-6.9905805999999995,0.17429788,-1
961,962,1583938049201,0.3996,-0.53709996,-1.6965,8.152371,-6.8665414,-0.018895041,-1
962,963,1583938049211,0.99859995,-0.4131,-1.8823999,8.28842,-6.8399467000000005,0.1475786,-1
963,964,1583938049221,1.13,-0.3901,-1.7479999,7.959053999999999,-7.027000999999999,0.5953421999999999,-1
964,965,1583938049232,0.295,-0.537,-0.5629,7.3894734,-6.9740705,1.4130865,-1
965,966,1583938049242,-0.17629999,-0.489,0.096599996,6.950071,-6.893807000000001,2.0398598000000003,d
966,967,1583938049252,-0.5872,-0.34299999999999997,0.6915,6.558254700000001,-6.7324185,2.4928522,-1
967,968,1583938049262,-0.7647,-0.20349999,0.6004,6.4828663,-6.5895996,2.2694256,-1
968,969,1583938049273,-0.4026,-0.0683,-0.070599996,6.9507413,-6.469679,1.4859947,-1
969,970,1583938049283,0.3493,-0.0651,-1.2635,7.748202,-6.490221,0.31070036,-1
970,971,1583938049293,1.1001999,-0.1197,-1.8202,8.452624,-6.5917163,0.05332366,-1
971,972,1583938049303,1.2636,-0.37399998,-1.2944,8.44546,-6.871905,0.6484839,-1
972,973,1583938049314,0.91639996,-0.68439996,-0.2994,7.945187,-7.142162299999999,1.6703004000000001,-1
973,974,1583938049324,0.38709998,-0.7849,0.0501,7.538048299999999,-7.2300005,1.7050642,-1
974,975,1583938049334,0.1147,-0.96599996,-0.2818,7.449482000000001,-7.4219966,1.2517365,-1
975,976,1583938049345,0.45659998,-1.1050999,-0.6015,7.9755454,-7.527332,0.9733196,-1
976,977,1583938049355,1.1572,-1.2407,-0.8635,8.782133,-7.6343913,0.6651954000000001,-1
977,978,1583938049365,1.9178,-1.2477,-1.3127999,9.548565,-7.6394477,-0.04633259,-1
978,979,1583938049375,2.4199,-1.3255999,-2.0197,9.882133999999999,-7.788271000000001,-0.71400845,-1
979,980,1583938049386,2.6601,-1.4959999,-2.4771,10.023689,-7.9219246,-0.8671607,-1
980,981,1583938049396,2.7257,-1.7103,-2.4361,10.158856,-8.230777999999999,-0.6776835999999999,-1
981,982,1583938049406,2.8732998,-2.0174,-2.217,10.443096,-8.46378,-0.666201,-1
982,983,1583938049416,3.2235,-2.309,-2.3,10.856767,-8.717279,-0.98126835,-1
983,984,1583938049426,3.6007998,-2.5461,-2.5932,11.278528,-8.857722,-1.2067828999999999,-1
984,985,1583938049437,3.9654,-2.7001,-2.6654,11.615047,-8.985649,-1.1058531,-1
985,986,1583938049447,4.2002997,-2.8588,-2.3802,11.904441,-9.127606,-0.6299719,-1
986,987,1583938049457,4.4049,-3.0212,-1.9369999,12.153810499999999,-9.200361000000001,-0.24317427,-1
987,988,1583938049468,4.6098,-3.1374,-1.6226,12.307039,-9.260361,-0.34432453,-1
988,989,1583938049478,4.7079,-3.2856998,-1.8317,12.63107,-9.417553999999999,-0.89071006,-1
989,990,1583938049488,5.0807,-3.4564998,-2.4343998,13.305048000000001,-9.483088,-1.5989916000000002,-1
990,991,1583938049498,5.7352,-3.573,-3.145,13.893591,-9.423377,-1.630164,-1
991,992,1583938049508,6.1829996,-3.5623,-2.915,13.836714,-9.446964999999999,-0.5374217,-1
992,993,1583938049518,5.9272,-3.6954,-1.6408,13.236670000000002,-9.514787,0.8088763000000001,-1
993,994,1583938049529,5.1651,-3.8462,-0.2883,12.445635000000001,-9.325214,1.9455186999999998,-1
994,995,1583938049539,4.2861,-3.6871998,0.8717,11.81551,-8.82723,2.614315,-1
995,996,1583938049549,3.6416,-3.31,1.5192,11.646795,-8.271574000000001,3.0315764,-1
996,997,1583938049559,3.4534998,-2.8745,2.0249999,11.639986,-7.851439999999999,3.4591236000000003,-1
997,998,1583938049569,3.3604998999999998,-2.6719,2.3967,11.621838,-7.836835000000001,3.5049197999999997,-1
998,999,1583938049579,3.264,-2.7902,2.4208998999999998,11.87343,-7.8415756,3.0949652000000003,-1
999,1000,1583938049590,3.4369998,-2.8969,2.0915,12.457539,-7.6866612000000005,2.865802,-1
1000,1001,1583938049600,3.9559,-2.8660997999999998,1.8773999,13.171835,-7.305332000000001,3.3677034,-1
1001,1002,1583938049610,4.6012,-2.6041,2.4083997999999998,13.264395,-7.1422386,4.217961,-1
1002,1003,1583938049620,4.6229997,-2.5686998,3.3133,12.636567,-7.0598016,5.2721567,-1
1003,1004,1583938049631,3.9111,-2.6383997999999997,4.4504,11.328529,-6.93492,5.851103299999999,-1
1004,1005,1583938049641,2.5070999,-2.6852999,5.1179,10.007705999999999,-6.9979167,6.0136027,-1
1005,1006,1583938049651,1.0928,-2.9089,5.3966,9.5410185,-6.8864713,5.7218356,-1
1006,1007,1583938049661,0.61399996,-2.477,5.0155,9.705404,-6.0558553,5.4013667000000005,-1
1007,1008,1583938049671,0.4328,-1.9958999,5.0969,9.488997,-5.4149465999999995,5.390957,-1
1008,1009,1583938049681,0.4328,-1.9958999,5.0969,8.859388000000001,-4.664105999999999,4.8682837,-1
1009,1010,1583938049692,-0.22479999,-1.4591999,4.763,8.483652000000001,-3.981203,4.214791,-1
1010,1011,1583938049702,-0.7991,-0.7849,3.9996,8.199059,-3.2429652,3.3656059999999997,-1
1011,1012,1583938049712,-1.7441,0.060399997999999996,2.4155998,7.5563397,-2.7580914,2.4686232000000006,-1
1012,1013,1583938049722,-1.7441,0.060399997999999996,2.4155998,7.575263499999999,-2.603407,1.7819180000000001,-1
1013,1014,1583938049732,-1.5812,0.0334,1.1048,8.026608,-2.4735357999999996,1.1372459,-1
1014,1015,1583938049743,-1.1022999,0.042999998,0.8017,8.518253999999999,-2.2098482,0.7208654000000001,-1
1015,1016,1583938049753,-1.0444,0.278,0.42859998,8.384733,-1.7190273,0.31613040000000003,-1
1016,1017,1583938049763,-1.5647,0.62689996,0.4014,7.637608999999999,-1.2178634,0.5749053000000001,-1
1017,1018,1583938049773,-2.6323,0.76909995,1.1014999,6.656149,-1.175419,1.3528004999999999,-1
1018,1019,1583938049783,-3.4213,0.1549,1.9072,6.1602044000000005,-1.5661718999999998,1.885204,-1
1019,1020,1583938049794,-3.7935998,-0.110199995,2.197,5.838107599999999,-1.475489,1.8470117,-1
1020,1021,1583938049803,-4.1019998,-0.0126,1.5261999,5.545038,-1.2341918,1.108841,-1
1021,1022,1583938049813,-4.5435,0.076,0.6466,5.1207757,-0.8935351999999999,0.23050417,-1
1022,1023,1583938049823,-4.6672997,0.3046,0.2738,5.1431665,-0.49534118,-0.054348376,-1
1023,1024,1583938049834,-4.5035,0.49899998,0.0933,5.372225,-0.25159228,-0.23291752,-1
1024,1025,1583938049844,-4.2290998,0.47059998,-0.0069,5.642329,-0.24767539,-0.24866179,-1
1025,1026,1583938049854,-4.0506,0.1762,-0.007999999,5.784832,-0.5532713,-0.22677878,-1
1026,1027,1583938049864,-3.9880998,-0.30179998,0.1637,5.90956,-0.94230986,0.31715512,-1
1027,1028,1583938049875,-3.8063998,-0.67359996,0.8908,6.09241,-1.0487466,1.0305697,-1
1028,1029,1583938049884,-3.8063998,-0.67359996,0.8908,6.2393849999999995,-0.8440040000000001,1.3580008,-1
1029,1030,1583938049894,-3.6253,-0.2818,1.3492998999999999,6.0694930000000005,-0.101495,0.90419424,-1
1030,1031,1583938049904,-4.0375,0.20549999,0.7313,5.5144305000000005,0.44061930000000005,0.19572121,-1
1031,1032,1583938049914,-4.7619,0.4906,0.07,4.811062000000001,0.7768419,-0.2740499,-1
1032,1033,1583938049924,-5.1322,0.6231,0.0037999998,4.7746797,1.027304,-0.07964072400000001,-1
1033,1034,1583938049934,-4.6881,0.8081,0.39,5.4048433,1.2622518999999999,0.32456756,-1
1034,1035,1583938049945,-4.0677,0.7622,0.65749997,5.920401,1.0255228,0.5453416999999999,-1
1035,1036,1583938049955,-3.6144998,0.0179,0.92569995,6.5349927,0.0035242648,0.8356146999999999,-1
1036,1037,1583938049965,-2.9359999,-0.7949,1.0478,7.214295,-0.44784978,0.8356530000000001,-1
1037,1038,1583938049975,-2.1203,-1.0464,0.77279997,7.904830499999999,-0.34370202,0.04363193,-1
1038,1039,1583938049985,-1.8827,-0.74619997,-0.23809999,7.673723,0.10226115,-1.0282905,-1
1039,1040,1583938049995,-2.3406,-0.4486,-1.104,7.168029300000001,0.45974422,-1.3340875,-1
1040,1041,1583938050006,-2.8170998,-0.1293,-1.1636,6.6961317,0.8245822,-1.0395337,-1
1041,1042,1583938050016,-2.8170998,-0.1293,-1.1636,6.3201275,1.082227,-0.5248951999999999,-1
1042,1043,1583938050026,-3.5426998,0.2704,-0.33499998,6.3833155999999995,1.1746336000000002,-0.15375564,-1
1043,1044,1583938050036,-3.1575,0.2893,-0.0589,7.10193,1.1799966999999998,0.09969456,-1
1044,1045,1583938050046,-2.3415,0.21779999,0.18879999,7.7993608,0.9854055,0.45160392,-1
1045,1046,1583938050056,-1.8204,-0.1008,0.60139996,8.127453,0.47685793,0.9358646999999999,-1
1046,1047,1583938050067,-1.6423999,-0.5288,0.90019995,8.064026,0.28711268,0.7279331,-1
1047,1048,1583938050077,-1.7287999,-0.6757,0.51879996,8.034931,0.38171238,0.14540467,-1
1048,1049,1583938050088,-1.7168,-0.55079997,0.030299998999999998,8.089088,0.7508600000000001,0.031459812000000004,-1
1049,1050,1583938050099,-1.6848999,-0.1619,-0.0106999995,7.843989,1.0899364,0.13851893,-1
1050,1051,1583938050109,-2.0159,0.081,0.0827,7.1938960000000005,1.1340568000000002,0.10804553,-1
1051,1052,1583938050119,-2.5628998,0.0931,-0.0195,7.241617,0.9508523999999999,-0.30152577,-1
1052,1053,1583938050129,-2.5128,-0.09999999400000001,-0.4339,8.260992,0.7247057,-0.22085074,-1
1053,1054,1583938050140,-1.5034,-0.3184,-0.3621,9.403831,0.5927085,-0.11514194,-1
1054,1055,1583938050150,-0.35779998,-0.43969998,-0.24849999,10.02529,0.55331916,-0.35980064,-1
1055,1056,1583938050160,0.25849998,-0.46649998,-0.4836,9.743109,0.59854084,-0.3614191,-1
1056,1057,1583938050170,-0.0162,-0.4166,-0.4772,8.826052,0.44082040000000006,0.026470292000000003,-1
1057,1058,1583938050180,-0.9368,-0.585,-0.115899995,8.036453999999999,0.43057325,0.74279624,-1
1058,1059,1583938050191,-1.7192999,-0.6218,0.5979,7.6355686,0.5106258,1.084851,-1
1059,1060,1583938050201,-2.1196,-0.54789996,0.9241,7.8056339999999995,0.55616343,0.8884211999999999,-1
1060,1061,1583938050211,-1.9519,-0.50589997,0.70309997,8.498545,0.7758361999999999,0.23090638,-1
1061,1062,1583938050221,-1.2557,-0.2782,0.0458,9.234973,1.0537361,-0.2628929,-1
1062,1063,1583938050232,-0.2766,0.21669999,-0.46429998,9.558831,1.3890966999999999,-0.30432220000000004,-1
1063,1064,1583938050242,-0.1885,0.5222,-0.57129997,9.553842,1.6157988,-0.37584179999999995,d
1064,1065,1583938050252,-0.2859,0.6634,-0.35869998,9.42106,1.8177642,0.00040222588,-1
1065,1066,1583938050263,-0.4513,0.83809996,0.1595,9.262697,1.8692298999999999,0.48748818,-1
1066,1067,1583938050273,-0.6265,0.4716,0.8527,9.102678,1.4368658,1.1333768,-1
1067,1068,1583938050283,-0.6551,-0.0674,1.1213,9.144625,0.92865336,1.2812905,-1
1068,1069,1583938050293,-0.35099998,-0.364,0.9058,9.518445,0.70138615,0.9046252,-1
1069,1070,1583938050303,-0.0963,-0.36139998,0.4649,9.71456,0.76291716,0.43886676,-1
1070,1071,1583938050314,-0.0278,-0.20109999,0.0517,9.718668,0.99604535,0.16372508,-1
1071,1072,1583938050324,-0.106199995,0.0365,-0.0453,9.644668,1.1425610000000002,0.17302416,-1
1072,1073,1583938050334,-0.057099998,0.0977,-0.0257,9.787717,1.158334,0.15162002,-1
1073,1074,1583938050344,0.188,0.100899994,-0.20709999,10.053636000000001,1.1838369,-0.024085669,-1
1074,1075,1583938050354,0.4233,0.073,-0.3017,10.184704,1.1094635,-0.111933716,-1
1075,1076,1583938050365,0.306,-0.0782,-0.24749999,9.938292500000001,0.86652863,0.050431464,-1
1076,1077,1583938050374,-0.0656,-0.4141,-0.0169,9.510995,0.6113066999999999,0.30822954,-1
1077,1078,1583938050384,-0.4953,-0.5212,0.3557,9.123642,0.6502364,0.77929354,-1
1078,1079,1583938050394,-0.807,-0.3375,0.8947,8.806811999999999,0.9371001,1.21658,-1
1079,1080,1583938050404,-0.807,-0.3375,0.8947,8.568321000000001,1.1526357,1.3792803999999999,-1
1080,1081,1583938050414,-1.5676999,0.389,1.3646,8.090361999999999,1.6840144000000001,1.4459925,-1
1081,1082,1583938050425,-1.6452999,0.6171,0.8578,8.181073,1.8749473,0.67163104,-1
1082,1083,1583938050435,-1.3222,0.778,0.1337,8.707673,1.9586581000000003,0.11503661,-1
1083,1084,1583938050445,-0.85279995,0.7098,-0.0163,9.067503,1.7674667000000002,0.22221065,-1
1084,1085,1583938050455,-0.5697,0.4642,0.3128,9.137164,1.5138346,0.63589036,-1
1085,1086,1583938050465,-0.7565,0.2502,0.93539995,8.875555,1.3833601,1.3150680000000001,-1
1086,1087,1583938050475,-1.1089,0.3114,1.5043,8.317399,1.6467990000000001,1.6874238000000001,-1
1087,1088,1583938050486,-1.6566,0.6019,1.6980000000000002,7.739908,1.9928378,1.7649001,-1
1088,1089,1583938050496,-2.3216999,0.9399,1.8395,7.140582000000001,2.2186107999999995,1.9986604,-1
1089,1090,1583938050506,-2.85,1.0172,1.9956,6.741593400000001,2.1453772,2.0257533,-1
1090,1091,1583938050516,-3.0949,0.9177,2.0630999,6.5584273,2.0260119999999997,2.1313279,-1
1091,1092,1583938050526,-3.1941,0.7409,2.1654,6.628375999999999,1.6891859,1.8382106,-1
1092,1093,1583938050536,-2.9708,0.3788,1.6071,7.2017875,1.4293288,1.2271816999999998,-1
1093,1094,1583938050546,-2.2284,0.31829998,1.2574999,7.8759369999999995,1.7388129,1.3833889,-1
1094,1095,1583938050557,-1.8877,0.7069,1.6421,7.5658016,2.0164158,2.1955786,-1
1095,1096,1583938050567,-2.6733,1.0047,3.0623,5.6565123,2.2327464,4.358376,-1
1096,1097,1583938050577,-4.4872,1.1626999,4.8237,4.207569599999999,2.3664289000000003,5.193224400000001,-1
1097,1098,1583938050587,-6.0266,1.2343998999999999,5.4995,3.5121597999999996,2.2284846000000003,4.9849095000000005,-1
1098,1099,1583938050597,-6.0968,1.0800999,4.7401,4.1204405,1.9853392,3.4722724,-1
1099,1100,1583938050607,-5.3163,0.8358,3.3049998,5.4642577,1.5156924999999999,2.2377741,-1
1100,1101,1583938050617,-4.0367,0.4842,2.4719,6.409996,1.2711871000000001,1.9014080000000002,-1
1101,1102,1583938050627,-3.0410000000000004,0.3351,2.4073,6.857003,1.1696346000000002,2.2638423,-1
1102,1103,1583938050637,-3.0737,0.3664,2.9566998,6.297066,1.2526176000000002,2.9079206,-1
1103,1104,1583938050647,-3.8406,0.53639996,3.8160000000000003,5.250628,1.2468332,3.8041663,-1
1104,1105,1583938050657,-4.6754,0.5388,4.4595,4.7303295,1.1287032,4.0443716,-1
1105,1106,1583938050668,-5.1765,0.3251,4.6349998,4.776806,0.30536607,3.3111427000000004,-1
1106,1107,1583938050678,-4.8241,-0.4279,3.758,5.7922153,-0.45351925,2.2246158,-1
1107,1108,1583938050688,-3.1766,-1.097,2.7294,8.127175,-1.331655,1.0439486999999998,-1
1108,1109,1583938050698,-1.2928,-1.6998999,1.726,9.528338,-1.588256,0.550925,-1
1109,1110,1583938050708,-0.0845,-1.6746,1.4160999,9.74487,-1.3841933000000002,0.5489904999999999,-1
1110,1111,1583938050719,-0.1506,-1.3672,1.5415,8.779567,-1.2868643,1.1170195,-1
1111,1112,1583938050729,-1.2247,-1.1014,2.2361,7.909398599999999,-1.2215983,1.5241488,-1
1112,1113,1583938050739,-2.1441,-1.0805,2.5149999,7.605555000000001,-1.5272709,1.0790955,-1
1113,1114,1583938050749,-2.0109,-1.2949,1.8763,9.102314,-2.1337125,-0.33543724,-1
1114,1115,1583938050759,-0.6483,-1.6858,0.73139995,10.360553999999999,-2.8624692000000005,-1.2740697,-1
1115,1116,1583938050770,0.89519995,-2.4648,-0.3399,11.395278999999999,-3.6614047999999997,-2.1247293999999997,-1
1116,1117,1583938050780,1.7946,-3.0579998,-1.0626,11.406417,-4.12588,-2.3770113,-1
1117,1118,1583938050790,1.7141,-3.2603,-1.1342,10.832028999999999,-4.011811,-1.4414818,-1
1118,1119,1583938050800,1.1514,-3.0345,-0.1557,10.538893,-3.7603428,-1.1051157,-1
1119,1120,1583938050811,0.8702,-2.6639,0.18339999,11.173145,-3.8267865,-2.541292,-1
1120,1121,1583938050821,2.9392,-2.5878,-3.7284,12.871065,-3.9901288,-5.468797,-1
1121,1122,1583938050831,2.9392,-2.5878,-3.7284,13.851270999999999,-4.4044595,-7.0557313,-1
1122,1123,1583938050842,5.0333,-3.197,-6.4321,14.695982999999998,-4.822554,-7.7091475,-1
1123,1124,1583938050852,4.9474998,-3.1302,-5.9083,14.172179000000002,-4.823617,-6.996308,-1
1124,1125,1583938050862,3.9359,-3.1450999,-5.3401,13.283451999999999,-4.9128637,-6.7102866,-1
1125,1126,1583938050872,3.1455998,-3.2291,-5.3771996,12.615097,-4.99849,-6.9651445999999995,-1
1126,1127,1583938050882,3.1278,-2.9817998,-6.2718,12.726628,-4.731124400000001,-7.994929300000001,-1
1127,1128,1583938050892,3.1278,-2.9817998,-6.2718,12.987250999999999,-4.4484367,-8.479697,-1
1128,1129,1583938050903,3.3161,-2.5384,-6.9507,12.690007000000001,-4.447804,-8.555383,-1
1129,1130,1583938050913,2.9614,-2.5585,-7.1171,12.309396000000001,-4.5001316,-8.699303,-1
1130,1131,1583938050923,2.6738,-2.4772,-7.3785996,12.159385,-4.453675,-8.965749,-1
1131,1132,1583938050933,2.8946998,-2.4538,-7.9076,12.625995,-4.4772815999999995,-9.611819,-1
1132,1133,1583938050943,3.4187999,-2.3659,-8.5471,13.040872,-4.4315620000000004,-10.143647999999999,-1
1133,1134,1583938050953,3.6076998999999996,-2.3214998,-8.8857,12.977617,-4.435479,-10.259748,-1
1134,1135,1583938050964,3.0583,-2.3381998999999998,-8.662,12.1613,-4.515675,-9.721531,-1
1135,1136,1583938050974,2.0932999,-2.3374999,-7.8026,11.123443,-4.365511,-8.697359,-1
1136,1137,1583938050984,0.88,-2.0749,-6.7591,9.894833,-4.100587399999999,-7.8077024999999995,-1
1137,1138,1583938050994,-0.2269,-1.9013,-6.089299700000001,9.007638,-3.9178526,-7.236503599999999,-1
1138,1139,1583938051005,-0.7254,-1.7274,-5.8258,8.899564,-3.7528059999999996,-6.999343400000001,-1
1139,1140,1583938051015,-0.4181,-1.7148999,-5.7426996,9.347835,-3.8447242,-7.003508999999999,-1
1140,1141,1583938051025,0.195,-1.7803999,-6.047999999999999,9.841127,-3.9178047,-7.405936200000001,-1
1141,1142,1583938051035,0.2889,-1.8949,-6.5489999999999995,9.745589,-4.108651,-7.7285023,-1
1142,1143,1583938051045,0.0585,-2.2433,-6.611000000000001,9.399416,-4.5889664,-7.373605,-1
1143,1144,1583938051055,-0.2516,-2.5943,-6.0841,9.117206,-4.8078156,-6.748143700000001,-1
1144,1145,1583938051066,-0.5536,-2.7605999,-5.5313,8.764137,-4.8475595,-5.919721,-1
1145,1146,1583938051076,-0.99499995,-2.8079998,-4.5211,8.379821000000002,-4.8773813,-5.020152599999999,-1
1146,1147,1583938051086,-1.3788999,-2.8604,-3.4491,8.093417,-4.787886,-3.7999617999999993,-1
1147,1148,1583938051096,-1.4685999,-2.6578,-2.8411,8.15037,-4.433372,-3.7009760999999997,-1
1148,1149,1583938051106,-1.3702999,-2.3729,-2.9729,8.312553,-4.2332745,-3.9075480000000002,-1
1149,1150,1583938051116,-1.28,-2.2603,-3.2721999,8.307122999999999,-4.2715335,-4.2383112999999994,-1
1150,1151,1583938051126,-1.2472999,-2.3890998,-3.5289998,8.496131,-4.318852400000001,-4.181234,-1
1151,1152,1583938051136,-1.0866,-2.3867,-3.3874,8.458112,-4.307811,-3.7665197999999998,-1
1152,1153,1583938051146,-1.2493,-2.4801,-2.7626998,8.23546,-4.403464,-2.7813152999999997,-1
1153,1154,1583938051156,-1.4312999,-2.4931997999999997,-1.6421,8.170606,-4.2508955,-1.559334,-1
1154,1155,1583938051166,-1.4259,-2.2951,-0.71959996,8.225299,-4.0845175000000005,-1.1502416000000002,-1
1155,1156,1583938051176,-1.3503,-2.1590000000000003,-0.6017,8.396091,-3.9207256,-1.102118,-1
1156,1157,1583938051186,-1.1161,-2.036,-0.7531,8.822739,-3.9456157999999997,-1.4643608,-1
1157,1158,1583938051197,-0.73319995,-2.1129,-1.0856,9.015549,-4.092208,-1.4313687,-1
1158,1159,1583938051207,-0.5554,-2.2078,-0.8809999999999999,9.128708,-4.1378894,-0.7443094,-1
1159,1160,1583938051217,-0.52459997,-2.3226,0.0804,8.961181,-4.352544,0.56988704,-1
1160,1161,1583938051227,-0.69979995,-2.4364,1.0422,8.733464,-4.1060753,1.127851,-1
1161,1162,1583938051237,-0.9145,-2.0739,1.4749999,8.629066,-3.6176195,1.3947375,-1
1162,1163,1583938051247,-1.0006,-1.6061,1.6783999,8.81206,-3.3552725,1.7918971999999997,-1
1163,1164,1583938051257,-0.6729999999999999,-1.3162999,2.1125,9.344531,-3.0676712999999998,2.196096,-1
1164,1165,1583938051268,-0.049,-0.93909997,2.4414,9.697197000000001,-3.0092435,2.6198697,-1
1165,1166,1583938051278,0.0862,-1.0267,2.9183,9.668764,-3.354765,3.7673721,-1
1166,1167,1583938051288,0.094799995,-1.3574,4.0471,9.836827,-3.8003737999999996,4.565053,-1
1167,1168,1583938051298,0.30069998,-1.7727,4.7337,10.143659,-4.3097644,5.4091916,-1
1168,1169,1583938051308,0.635,-2.2149,5.5786,10.524977999999999,-4.472484,6.557057400000001,-1
1169,1170,1583938051319,1.0285,-2.2358,6.7534,10.711064,-4.294546599999999,7.6141934000000004,-1
1170,1171,1583938051329,1.1571,-1.9554,7.6663,10.748491,-3.9784257000000003,8.394569,-1
1171,1172,1583938051340,1.2269,-1.6183,8.4058,10.916889,-3.8561682999999998,8.8691,-1
1172,1173,1583938051350,1.4442999,-1.4678999,8.6495,11.247155000000001,-3.6336129,8.708459,-1
1173,1174,1583938051360,1.7307999,-1.2401999,8.4296,11.475448,-3.5618730000000003,8.831539999999999,-1
1174,1175,1583938051370,1.9675,-1.1248,8.498099,11.656487,-3.6180506,9.443526,-1
1175,1176,1583938051381,2.1629999,-1.1546,9.061299,11.892861,-3.6015882000000006,9.769913,-1
1176,1177,1583938051391,2.3950999,-1.1236,9.3692,12.186975,-3.7128034,9.789344999999999,-1
1177,1178,1583938051401,2.8418999,-1.2615,9.248,12.331211,-3.754405,9.660402000000001,-1
1178,1179,1583938051411,2.8318,-1.1262,9.1649,12.311732000000001,-3.5830184999999997,9.557663,-1
1179,1180,1583938051422,2.7615,-0.89919996,8.927199,12.226432,-3.352543,9.239981,-1
1180,1181,1583938051433,2.7491999,-0.687,8.043099,12.271711,-3.1228435,8.260417,-1
1181,1182,1583938051443,3.1083,-0.4107,6.9354,12.752151,-2.789245,7.0445557,-1
1182,1183,1583938051453,3.3964999,-0.35639998,6.0973,12.922694,-2.8548942000000004,6.4096704,-1
1183,1184,1583938051463,3.3869998,-0.5573,5.8781,12.846866,-3.0445244,6.406376,-1
1184,1185,1583938051473,3.1878998,-0.7985,6.0400996,12.639661,-3.2258036,6.4818796999999995,-1
1185,1186,1583938051483,3.1241,-0.95989996,6.0014,12.697333,-3.2196362,6.2350755,-1
1186,1187,1583938051493,3.2166,-0.8919,5.5439997000000005,12.784912,-3.1032302000000005,5.677533,-1
1187,1188,1583938051504,3.1713,-0.94729996,4.9385,12.702907000000002,-3.159992,4.909713,-1
1188,1189,1583938051514,3.0472999,-1.018,3.9392,12.643894,-3.074471,3.932007,-1
1189,1190,1583938051524,3.1188998,-0.95669997,3.2213,12.771524000000001,-2.9492924,3.3309762000000003,-1
1190,1191,1583938051534,3.1994998,-1.0,2.7152,12.799307,-2.982601,2.9035442000000002,-1
1191,1192,1583938051545,3.0042999,-1.2085999,2.6241999,12.486652000000001,-3.0790968,3.0045125,-1
1192,1193,1583938051555,2.5433,-1.3083,2.9017,12.040372999999999,-3.0659764,3.1647325,-1
1193,1194,1583938051565,2.2101,-1.3929,2.9017,11.8300085,-2.9626042999999997,2.8411798,-1
1194,1195,1583938051576,2.1627,-1.3306,2.5607998,11.932940499999999,-2.7338145000000003,2.4998720000000003,-1
1195,1196,1583938051586,2.2051,-1.2379,2.2196999,11.853999,-2.7156856,1.940625,-1
1196,1197,1583938051596,2.092,-1.4099,1.6378,11.721561,-2.716605,1.2742708,-1
1197,1198,1583938051606,1.9703,-1.4550999,0.9424,11.704888,-2.6945112,0.45440033,-1
1198,1199,1583938051616,1.9772999,-1.56,0.2821,11.751555,-2.6923182,0.045710098,-1
1199,1200,1583938051626,1.9656999,-1.6680000000000001,0.0774,11.668639,-2.719976,-0.01250731,-1
1200,1201,1583938051636,1.8276,-1.8111999,0.1979,11.509406,-2.6342251,0.2697116,-1
1201,1202,1583938051647,1.632,-1.7943,0.50479996,11.146637,-2.6081474,0.19727264,-1
1202,1203,1583938051657,1.2907,-1.9589,0.39069998,10.964821,-2.7345327999999998,-0.15523046,-1
1203,1204,1583938051667,1.1769,-2.2133,0.0977,11.172178,-2.7788827,-0.5455524,-1
1204,1205,1583938051677,1.4376,-2.339,-0.23099999,11.348737,-2.5109622000000003,-0.88221544,-1
1205,1206,1583938051688,1.5134,-2.1603,-0.50189996,11.033717,-2.3170892999999997,-0.9353667,-1
1206,1207,1583938051698,0.91389996,-2.1224,-0.40789998,10.161997999999999,-2.2076645,-0.75180805,-1
1207,1208,1583938051708,0.2671,-2.1366,-0.24759999,10.002266,-1.9901466,-0.939456,-1
1208,1209,1583938051719,0.2402,-2.0509,-0.52419996,10.183765,-1.9441588,-1.7688171000000001,-1
1209,1210,1583938051730,0.4028,-2.2217999,-1.2669,10.117427000000001,-2.3142831000000004,-2.3608743999999997,-1
1210,1211,1583938051740,0.32999998,-2.6674,-1.7386,9.912560000000001,-2.4675791,-2.3967588,-1
1211,1212,1583938051750,0.1335,-2.9489,-1.7238,9.365313,-2.2874777,-2.0055558999999996,-1
1212,1213,1583938051760,-1.1738,-2.5309,-0.6135,8.411367,-1.622311,-1.3465182,-1
1213,1214,1583938051771,-1.1738,-2.5309,-0.6135,7.852981599999999,-1.0619912,-1.2225847,-1
1214,1215,1583938051781,-1.8838999,-1.9792999,-0.41239998,7.150571,-0.5695423000000001,-1.2926870000000001,-1
1215,1216,1583938051791,-3.0386,-1.604,-1.197,6.645672,-0.38697004,-2.196201,-1
1216,1217,1583938051802,-3.0416,-1.4951,-1.8361,6.688259599999999,-0.15564226,-2.7919266,-1
1217,1218,1583938051812,-2.8955,-1.3827,-1.9936999,6.7994466000000005,0.12739068,-2.8940822999999996,-1
1218,1219,1583938051822,-3.0500998,-1.117,-1.8925999,6.497337,0.52698296,-2.8095956,-1
1219,1220,1583938051832,-3.5542998,-0.769,-1.7437999,5.985533,1.0017148,-2.712554,-1
1220,1221,1583938051843,-3.8989999999999996,-0.33429998,-1.5529,5.625311,1.581284,-2.5587888,-1
1221,1222,1583938051852,-4.3412,0.0158,-1.1718,5.091432599999999,1.9721711,-2.177718,-1
1222,1223,1583938051862,-5.0583,0.17600000000000002,-0.9158,4.296031500000001,2.2701627999999996,-2.0502028,-1
1223,1224,1583938051872,-5.9336,0.38599998,-0.9287,3.4388205999999997,2.5721004,-2.1461816000000002,-1
1224,1225,1583938051882,-6.3013997,0.494,-1.2569,3.2016412999999995,2.7730314999999996,-2.5530617,-1
1225,1226,1583938051892,-6.0348,0.67899996,-1.4548999,3.4904299,3.0193852999999997,-2.6831913,-1
1226,1227,1583938051903,-5.7899,0.6616,-1.5112,3.685778,2.9630735,-2.8419366000000004,-1
1227,1228,1583938051912,-5.6727,0.3854,-1.5426999,3.7953365,2.7615583,-2.8544726000000002,-1
1228,1229,1583938051922,-5.5936,0.2865,-1.1475999,3.7670657999999997,2.7416196,-2.4564988999999997,-1
1229,1230,1583938051932,-5.964299700000001,0.235,-0.7703,3.2900449999999997,2.755209,-2.1783118,-1
1230,1231,1583938051942,-6.737,0.3121,-0.57049996,2.4651372000000005,2.9028258,-2.021731,-1
1231,1232,1583938051952,-7.4824996,0.5446,-0.3455,1.7493953000000002,3.1912124,-1.9116838,-1
1232,1233,1583938051962,-7.7825,0.68689996,-0.6756,1.5670146999999999,3.3476686,-2.3722133999999997,-1
1233,1234,1583938051973,-7.4119997,0.9101,-1.1640999,2.052147,3.5954300999999997,-2.893776,-1
1234,1235,1583938051984,-6.5952,1.2207999,-1.6513,3.043126,3.9132845,-3.4883807,-1
1235,1236,1583938051994,-5.8887997,1.4245,-1.9211999,3.5801456,4.0264916,-3.5947025000000004,-1
1236,1237,1583938052004,-5.7311997,1.4625,-1.7192,3.4171962999999996,3.9405303,-3.3431675000000003,-1
1237,1238,1583938052014,-6.2008,1.2135999,-1.3626,2.9326193,3.5567112,-3.1098287,-1
1238,1239,1583938052024,-6.5832996,0.7416,-1.2845,2.696618,3.0812705,-3.086289,-1
1239,1240,1583938052035,-6.4986,0.4459,-1.0852,2.873952,2.8662807999999997,-2.906647,-1
1240,1241,1583938052045,-6.2714996,0.3885,-0.7865,3.0482304,2.6600634999999997,-2.3719356,-1
1241,1242,1583938052055,-6.352999700000001,0.17729999,-0.2312,2.925523,2.35283,-1.743927,-1
1242,1243,1583938052066,-6.4584,-0.0011,0.4535,2.9744318,2.2141290000000002,-1.2891723,-1
1243,1244,1583938052076,-6.2939997000000005,0.032899998,0.5024,3.3403711000000005,2.1777947,-1.7571143,-1
1244,1245,1583938052086,-5.8097,0.0743,-0.198,3.9702089999999997,1.9878770000000001,-2.7518857000000003,-1
1245,1246,1583938052096,-5.2169,-0.0994,-1.235,4.5074778,1.6385246999999998,-3.439625,-1
1246,1247,1583938052106,-4.8072,-0.332,-1.4893,4.713781,1.3165427,-2.89934,-1
1247,1248,1583938052116,-4.776799700000001,-0.4926,-0.4962,4.5067395999999995,1.0644428999999997,-1.7955267,-1
1248,1249,1583938052126,-5.178499700000001,-0.6052,0.5057,3.8067424,0.97796434,-0.7785082,-1
1249,1250,1583938052136,-5.8394,-0.48209998,1.3012999,3.197811,0.9269583,-0.13663231,-1
1250,1251,1583938052147,-6.4277,-0.4461,1.8086,3.025974,0.7451905,0.0024325089,-1
1251,1252,1583938052157,-6.4412,-0.5413,1.7009,3.6772449999999997,0.24672727,-0.8577084,-1
1252,1253,1583938052167,-5.7282996,-0.81949997,0.6502,4.620732299999999,-0.21180066,-1.9043096999999998,-1
1253,1254,1583938052177,-4.4012,-1.1552,-0.7779,6.363242,-0.71399885,-3.5707123,-1
1254,1255,1583938052187,-3.0744998,-1.3574,-2.0516999,7.1365504,-1.2494763999999998,-3.7401546999999997,-1
1255,1256,1583938052198,-2.4747,-1.6854,-1.8722,6.972192999999999,-1.3748751000000001,-2.1236472,-1
1256,1257,1583938052208,-2.8604,-1.5453,0.1375,5.8506055,-1.2429928999999997,0.96998686,-1
1257,1258,1583938052218,-4.1087,-1.2773,3.2712,4.6484,-1.191192,2.9910188,-1
1258,1259,1583938052228,-5.5846995999999995,-1.0108,4.9934998,3.4959369,-1.1923412,2.6141715,-1
1259,1260,1583938052238,-6.187599700000001,-0.9253,3.8355,3.9893432,-1.7280389999999999,0.5175211,-1
1260,1261,1583938052248,-5.3866,-1.3865,1.5891,6.085821,-2.9779272,-1.4443932,-1
1261,1262,1583938052259,-3.0648,-2.3806,-0.2852,8.485999000000001,-4.1007886,-2.391099,-1
1262,1263,1583938052269,-0.79819995,-3.1332,-1.0877,9.791605,-4.971607700000001,-2.5876436000000003,-1
1263,1264,1583938052279,0.25349998,-3.6815998999999997,-1.2382,9.488873,-5.471785,-2.2430127,-1
1264,1265,1583938052289,-0.1008,-3.8019,-0.91249996,8.702127,-5.535174,-1.0498958,-1
1265,1266,1583938052299,-0.8461,-3.6430000000000002,0.2755,8.442395,-5.100511599999999,0.64297724,-1
1266,1267,1583938052309,-1.1299,-2.8816,2.4401,7.7677,-4.748516,3.2952644999999996,-1
1267,1268,1583938052319,-1.6948999,-2.4232,4.501,7.288266,-5.322406299999999,3.1107192,-1
1268,1269,1583938052329,-2.1151,-2.7477,4.2125998,7.964647,-6.0220394,1.4772703999999999,-1
1269,1270,1583938052339,-1.3837,-3.1799,2.458,8.972127,-6.733874,0.43564895,-1
1270,1271,1583938052349,-0.027199998,-3.8179,1.0879999,10.173614500000001,-7.707088499999999,-0.55153793,-1
1271,1272,1583938052359,1.1955999,-4.4177,0.036000000000000004,10.850455,-8.309728999999999,-1.1405593,-1
1272,1273,1583938052369,1.7778,-4.6036997,-0.44619998,11.204279,-8.057838,-0.68858194,-1
1273,1274,1583938052380,2.2324,-4.111000000000001,-0.03,11.519319,-6.9203634,-0.14859374,-1
1274,1275,1583938052390,2.645,-2.7509,0.47439998,11.023221000000001,-6.2444324,1.0089835999999999,-1
1275,1276,1583938052400,2.2612997999999997,-1.8694998999999999,1.5792999,10.219123,-6.525435,1.8124778000000001,-1
1276,1277,1583938052410,1.3794,-2.1337,2.4483,9.886205,-8.032988000000001,1.9060047999999998,-1
1277,1278,1583938052420,1.3218,-3.2516,2.4076,11.299358,-9.496371,0.70983297,-1
1278,1279,1583938052431,2.5461,-4.312,1.4298999,12.370792,-9.943714,-0.07158663,-1
1279,1280,1583938052441,4.0691,-4.7039,0.31059998,12.495156,-10.071525999999999,-0.11067916,-1
1280,1281,1583938052451,4.3415,-4.6022997000000005,0.1663,11.92143,-10.133631,-0.15558481,-1
1281,1282,1583938052461,3.9673998,-3.9513,-0.62799996,11.962696000000001,-9.675247,-0.7025737,-1
1282,1283,1583938052471,4.8127,-3.1324,-0.9522,12.6320095,-9.121832000000001,-0.883652,-1
1283,1284,1583938052481,4.8127,-3.1324,-0.9522,12.693024000000001,-9.094519,-0.5456769,-1
1284,1285,1583938052492,4.8506,-3.0293,0.1695,12.157229,-9.535627,0.67286646,-1
1285,1286,1583938052502,4.514199700000001,-3.339,0.922,11.799431,-9.9638815,1.2953683999999999,-1
1286,1287,1583938052512,4.3933,-3.6058998,1.1151999,11.556189999999999,-10.314910000000001,1.449919,-1
1287,1288,1583938052522,4.4116,-3.6912,1.0501,11.499848,-10.477525,1.4220409,-1
1288,1289,1583938052532,4.489,-3.4596998999999995,0.7096,11.405603,-10.342051,1.1276786,-1
1289,1290,1583938052543,4.3373,-3.2284,0.2698,11.125702,-10.224466,0.8187211999999999,-1
1290,1291,1583938052553,4.3356,-2.9498,-0.1259,11.130528,-9.968803999999999,0.49649040000000005,-1
1291,1292,1583938052563,4.6786,-2.6422,-0.49159998,11.407998,-9.830439,0.19094236,-1
1292,1293,1583938052573,4.9221997,-2.4626,-0.5836,11.314557,-9.743136,0.5166592000000001,-1
1293,1294,1583938052583,4.4769,-2.5188,0.154,10.608564,-10.038419000000001,1.3907726,-1
1294,1295,1583938052594,3.8165,-2.7696,0.9309999999999999,9.93655,-10.220541,1.989323,-1
1295,1296,1583938052604,3.4187,-2.7107,1.2106999,9.594859,-10.167398,2.1886832999999997,-1
1296,1297,1583938052614,3.2291,-2.6141,1.3941,9.377695,-10.145545,2.4122155,-1
1297,1298,1583938052624,3.1987997999999997,-2.5096998,1.3627,9.290757000000001,-10.058481,2.1840386,-1
1298,1299,1583938052634,3.1984,-2.2616,0.7269,9.227866,-9.834211999999999,1.573115,-1
1299,1300,1583938052644,3.2433,-2.0384,0.0691,9.2766695,-9.690244,1.1226125,-1
1300,1301,1583938052654,3.3769998999999995,-1.8216,-0.2697,9.314977,-9.453323,0.8753966999999999,-1
1301,1302,1583938052664,3.4589,-1.5229,-0.4052,9.226555000000001,-9.23638,0.9163855,-1
1302,1303,1583938052674,3.1641,-1.3873999,-0.079799995,8.782544999999999,-9.150878,1.3764648000000002,-1
1303,1304,1583938052684,2.6427999,-1.3352,0.3638,8.258656,-9.181352,1.8007365000000002,-1
1304,1305,1583938052694,2.2831,-1.3350999,0.84349996,7.95304,-9.178478,2.1822479,-1
1305,1306,1583938052706,2.0592,-1.3370999,0.89519995,7.767882000000001,-9.25563,1.9391501,-1
1306,1307,1583938052716,2.0119,-1.3416,0.55869997,7.67967,-8.973438999999999,1.4921527,-1
1307,1308,1583938052727,1.9526999,-1.0205,0.1414,7.4973755,-8.621626,1.2481356000000001,-1
1308,1309,1583938052737,1.7285999,-0.6716,-0.0116,7.139557400000001,-8.525427,1.3538445,-1
1309,1310,1583938052747,1.4209,-0.63479996,0.022699999,7.1103864,-8.577764,1.0848416,-1
1310,1311,1583938052757,1.5317,-0.6579,-0.4949,7.389436,-8.384886999999999,0.48270938,-1
1311,1312,1583938052767,1.7652999,-0.4177,-0.85349995,7.3768896999999996,-8.328202000000001,0.61324126,-1
1312,1313,1583938052777,1.6091,-0.4351,-0.5293,6.882774400000001,-8.36761,1.1494944999999999,-1
1313,1314,1583938052787,1.1327,-0.436,-0.067999996,6.5407867,-8.240431,1.4488463,-1
1314,1315,1583938052798,0.8405,-0.29119998,0.2165,6.3713155,-8.207381,1.7114136999999998,-1
1315,1316,1583938052807,0.6487,-0.3326,0.5414,6.2245800000000004,-8.391542999999999,2.0203712,-1
1316,1317,1583938052817,0.4802,-0.5498,0.7166,6.200321700000001,-8.466644,1.5977848999999997,-1
1317,1318,1583938052827,0.5607,-0.5414,0.20879999,6.499903,-8.371594,1.0401274,-1
1318,1319,1583938052837,0.8786,-0.4547,-0.37799999999999995,6.7479233999999995,-8.401282,0.5911763000000001,-1
1319,1320,1583938052847,1.1255,-0.4874,-0.80719995,6.829047999999999,-8.37101,0.48584098,-1
1320,1321,1583938052858,1.0603,-0.3863,-0.82,6.425779,-8.13205,0.8531211,-1
1321,1322,1583938052868,0.63199997,-0.21069999,-0.3821,5.9826984,-8.001671,1.3329287,-1
1322,1323,1583938052878,0.051099997,-0.076,0.2067,5.429953599999999,-7.972767999999999,2.1377827999999996,-1
1323,1324,1583938052889,-0.3127,-0.1069,0.83779997,5.4535794,-8.107285000000001,2.5166316,-1
1324,1325,1583938052899,-0.29709998,-0.2516,1.2264,5.6621239999999995,-8.297987,2.1928494,-1
1325,1326,1583938052909,-0.0859,-0.44129997,0.9025,6.1681247,-8.726837,1.6580038000000001,-1
