,Seq,Time,ACCx,ACCy,ACCz,ADGx,ADGy,ADGz,Keydown
0,1,1583935451549,0.0,0.0,0.0,0.0,0.0,0.0,-1
1,2,1583935451559,-0.3548,-0.015299999,0.5911,-2.4566617,9.479994999999999,1.441501,-1
2,3,1583935451569,-0.0094,0.038399998,0.0050999997,-2.2251613,9.453323,1.0797945,-1
3,4,1583935451579,0.1348,-0.0356,-0.2419,-1.9840175,9.481872000000001,1.2294418,-1
4,5,1583935451590,0.4597,0.096599996,0.2897,-1.7700237,9.547281,1.5616516000000003,-1
5,6,1583935451599,0.4597,0.096599996,0.2897,-2.0478085999999998,9.43485,1.6369156999999999,-1
6,7,1583935451609,0.12539999,-0.0569,0.3669,-2.1351492000000003,9.405631,1.6339756,-1
7,8,1583935451619,-0.4147,-0.18949999,0.3373,-2.7898579,9.22734,1.5391173,-1
8,9,1583935451629,-0.78889996,-0.3971,0.0376,-3.0441507999999997,9.149738000000001,1.0677564,-1
9,10,1583935451639,-0.59029996,-0.3545,-0.2987,-2.90069,9.115310000000001,0.9397815999999999,-1
10,11,1583935451650,-0.5179,-0.3279,-0.2522,-2.8644133,9.1591625,0.9518388000000001,-1
11,12,1583935451660,-0.5179,-0.3279,-0.2522,-2.6838522,9.253897,0.9661656999999999,-1
12,13,1583935451670,0.025999999,-0.1239,-0.2522,-2.3461547,9.358801,0.82270515,-1
13,14,1583935451680,0.3974,0.0468,-0.39119998,-1.9699874,9.501887,0.6200408000000001,-1
14,15,1583935451690,0.44739997,0.037299998,-0.3764,-1.9675741000000002,9.514749,0.68789244,-1
15,16,1583935451700,0.44739997,0.037299998,-0.3764,-2.0176225,9.505372999999999,1.0459405000000002,-1
16,17,1583935451711,0.2478,0.011899999,0.69519997,-2.1073093,9.498565,1.6866481,-1
17,18,1583935451721,0.046299997999999995,0.009099999000000001,0.99719995,-2.2828903,9.498497,2.0206008,-1
18,19,1583935451731,-0.022000000000000002,-0.0299,0.9334,-2.3322015,9.457107,1.9938049,-1
19,20,1583935451741,-0.0941,-0.0185,0.70489997,-2.3614203999999996,9.479402,1.7572578,-1
20,21,1583935451751,0.049399998,0.039899997,0.3563,-2.2164943,9.535397,1.4305546,-1
21,22,1583935451762,0.028199999,0.0774,0.1616,-2.2476766,9.564366,1.3026661,-1
22,23,1583935451772,0.067999996,0.0945,0.1056,-2.2317696,9.571042,1.1867867,-1
23,24,1583935451782,-0.0808,0.043199997000000004,-0.025999999,-2.407159,9.516971,1.0823228,-1
24,25,1583935451792,-0.2765,0.0338,0.0206,-2.5638452000000003,9.524116000000001,1.1391133,-1
25,26,1583935451802,-0.4003,0.074499995,0.1541,-2.7017226,9.585119,1.2755252000000001,-1
26,27,1583935451813,-0.4109,0.1732,0.2652,-2.6928735,9.694208999999999,1.4179803,-1
27,28,1583935451823,-0.2703,0.3202,0.49859998,-2.4267630000000002,9.919714,1.6451517,-1
28,29,1583935451833,0.0504,0.4958,0.5994,-2.1967854,9.991291,1.6921738000000002,-1
29,30,1583935451843,0.1638,0.5147,0.7141,-2.0653627,10.02412,1.9398012999999998,-1
30,31,1583935451853,0.25869998,0.50549996,1.1432999,-2.0288274,9.961843,2.3920852999999997,-1
31,32,1583935451864,0.23869999,0.4095,1.4769,-2.0790957999999997,9.870421,2.6490023,-1
32,33,1583935451874,0.1927,0.37359998,1.5821999,-2.078081,9.878486,2.7346764,-1
33,34,1583935451884,0.27629998,0.3874,1.5983,-1.9463041,9.823008,2.6760087,-1
34,35,1583935451894,0.4109,0.27429998,1.3981,-1.8880388,9.58555,2.3987220000000002,-1
35,36,1583935451904,0.40179998,-0.023599999,1.1258,-1.9903765,9.187835,2.2704310000000003,-1
36,37,1583935451914,0.28939998,-0.46629998,1.1374999,-2.0891900000000003,8.701839999999999,2.6467612000000003,-1
37,38,1583935451924,0.17989999,-0.9446,1.571,-2.305032,8.308005,3.1252375,-1
38,39,1583935451934,-0.1407,-1.3784,2.1447,-2.634474,7.895483500000001,3.7834706,-1
39,40,1583935451944,-0.3094,-1.7062998999999999,2.5737,-2.6720634,7.581287400000001,4.1850643,-1
40,41,1583935451954,-0.20439999,-1.8968999,2.5607,-2.6173604,7.411453,4.2331305,-1
41,42,1583935451964,-0.0056,-1.9539,2.3429,-2.2950049999999997,7.360475,3.8808286,-1
42,43,1583935451974,0.48200000000000004,-2.0744,1.7703999,-1.6166128999999998,7.228325,3.0961337,-1
43,44,1583935451984,1.133,-2.1297,1.0741999,-1.1833293,7.1220317,2.5873084,-1
44,45,1583935451994,1.4626,-2.3917,0.5721,-0.97768664,6.7357225000000005,2.0316334,-1
45,46,1583935452004,1.495,-2.7603,0.1513,-1.1070693999999999,6.4150624,1.7242944,-1
46,47,1583935452014,1.2991999,-3.1367998,-0.2589,-1.3822299999999998,6.0216856,1.2566016000000002,-1
47,48,1583935452024,1.1366,-3.5612,-0.73759997,-1.4587201,5.500026999999999,0.6795606,-1
48,49,1583935452035,1.1107,-4.0441,-1.2377,-1.6497294999999998,4.878923400000001,0.21647413,-1
49,50,1583935452045,0.8972,-4.7026997,-1.5378,-1.9121627,4.1697893,0.29399840000000005,-1
50,51,1583935452055,0.7194,-5.3992,-1.2423999,-2.0019834,3.4991257000000004,0.82967705,-1
51,52,1583935452065,0.63339996,-6.0564,-0.5938,-2.156247,2.8409598,1.6058294,-1
52,53,1583935452075,0.6085,-6.6355996,0.124299996,-1.9595008999999999,2.3441534,2.0570502,-1
53,54,1583935452086,0.8584,-7.0997,0.31239998,-1.5888688999999998,1.8936794999999997,1.9729466,-1
54,55,1583935452096,1.1869,-7.45,0.1043,-1.3672616000000002,1.6104549,1.6540103,-1
55,56,1583935452106,1.4469,-7.7264,-0.3197,-0.78294224,1.5364646,1.0575668,-1
56,57,1583935452116,2.0785,-7.7135,-0.9116,0.08992621,1.5791771000000001,0.056484005999999996,-1
57,58,1583935452126,2.7879999,-7.7244997,-1.9174999,0.113159545,1.5621687,-0.45800123,-1
58,59,1583935452137,2.6712,-7.6972,-2.2553,-0.10708785,1.4089876000000001,-0.46721409999999997,-1
59,60,1583935452147,2.3665,-8.0025,-2.2449,-0.60624063,1.0730333,-0.41806590000000005,-1
60,61,1583935452157,1.8496,-8.2501,-2.1978,-0.63429105,1.1658899999999999,-0.40294415,-1
61,62,1583935452167,1.8863,-8.109099,-2.2094998,-0.2636974,1.5017103,-0.7887171,-1
62,63,1583935452177,2.1468,-7.757899799999999,-2.7285,-0.047309425,1.9890645,-1.8085129,-1
63,64,1583935452188,2.3065999,-7.2648997,-3.8321,0.5177509,2.7832117000000003,-2.7942343,-1
64,65,1583935452198,2.7071,-6.4617,-4.6941,0.8716809999999999,3.6694207000000003,-3.176512,-1
65,66,1583935452208,2.8495998,-5.6110997000000005,-5.016,1.388752,4.5692477,-3.212176,-1
66,67,1583935452218,3.3572998,-4.7061,-5.002,2.1352737,5.6630144,-3.0423887,-1
67,68,1583935452228,3.8151,-3.721,-4.8652997000000004,2.4820497,6.847129300000001,-2.6559837,-1
68,69,1583935452239,3.9248998,-2.6729998999999998,-4.5579,2.7659732999999997,7.6802444,-2.5089414,-1
69,70,1583935452249,4.0236998,-1.8578999,-4.4411,3.01792,8.786481,-2.7843225,-1
70,71,1583935452260,4.2591,0.2501,-6.2141,3.3836007000000006,9.829682,-4.260961,-1
71,72,1583935452270,4.3641,1.1905,-7.7125998,3.6895318,10.792257000000001,-5.7797847,-1
72,73,1583935452280,4.3641,1.1905,-7.7125998,4.163296,11.783648,-7.4797735,-1
73,74,1583935452290,4.6268997,2.1727,-9.392000000000001,4.4284300000000005,12.327696000000001,-8.777880999999999,-1
74,75,1583935452300,4.6412997,3.0711,-11.2465,4.688680000000001,12.73563,-9.356377,-1
75,76,1583935452310,4.3217998,3.1815,-11.0089,4.5748215,12.7986355,-9.06348,-1
76,77,1583935452321,3.8478,3.27,-10.547,4.4634433,12.90445,-8.414249,-1
77,78,1583935452331,4.4532,3.6725998,-10.2926,5.722889,13.336996,-8.127874,-1
78,79,1583935452341,6.8304,4.5101,-10.94,8.734057,14.154395000000001,-8.851106,-1
79,80,1583935452351,9.6214,5.5017,-11.7823,11.777144999999999,15.070570000000002,-9.385615,-1
80,81,1583935452361,9.6214,5.5017,-11.7823,13.812273999999999,16.250654,-9.0439825,-1
81,82,1583935452371,11.5828,7.5758,-10.3328,13.638925,16.77956,-6.451502,-1
82,83,1583935452381,10.0429,8.2106,-7.5369,12.135873,17.441357,-3.1975617,-1
83,84,1583935452392,7.9536,9.1043,-4.3336997,10.250334,18.227488,0.038441304,-1
84,85,1583935452402,5.9758997,10.1438,-1.7318,9.148992,19.130705,2.0653725,-1
85,86,1583935452412,5.8736,11.4015,-1.0645,10.164363,20.45425,2.2019665,-1
86,87,1583935452422,7.2121,12.8719,-1.4064,11.749133,21.671529999999997,1.7102548999999998,-1
87,88,1583935452432,7.9314,14.009398999999998,-1.5324999,12.324125,22.375454,1.7904988999999998,-1
88,89,1583935452442,7.9276995999999995,14.8024,-0.5003,12.419261,23.047009,2.9783392,-1
89,90,1583935452452,7.3241,15.4177,1.6457,11.912782,23.615534,5.472800299999999,-1
90,91,1583935452463,6.7802997000000005,15.6599,3.7744,11.75101,23.577246,7.3194485,-1
91,92,1583935452473,6.8142,15.5321,5.441,12.093831,23.391514,8.577275,-1
92,93,1583935452483,7.1738,15.248899,6.6158,12.525362,22.97883,9.530933000000001,-1
93,94,1583935452493,7.4315996,14.6586,7.612,12.694604,22.275164,10.357786,-1
94,95,1583935452503,7.2374,13.716,8.5063,12.233642999999999,21.246788000000002,11.115436,-1
95,96,1583935452513,6.494,12.4477,9.2786,11.240174,19.932055,11.652646,-1
96,97,1583935452523,5.3546,10.9052,9.7386,10.053962,18.43543,11.774205,-1
97,98,1583935452534,4.4578,9.2729,9.6031,9.146214500000001,16.922552,11.210275,-1
98,99,1583935452544,4.0192,7.6681,8.9388,8.852618,15.487737,10.301838,-1
99,100,1583935452554,4.2661,6.1779,7.9912,8.965097,14.107335999999998,9.079751,-1
100,101,1583935452564,4.3136,4.6513,7.0245,8.506695,12.443116,8.051652,-1
101,102,1583935452574,4.0353,3.2569999999999997,6.4332,8.073497,11.342338999999999,7.3582535,-1
102,103,1583935452585,3.7981,2.0372999,5.7525997,7.6996474,10.229505,6.70206,-1
103,104,1583935452595,3.9327998,1.0131999,5.2811,7.913315299999999,9.857159,6.4614139999999995,-1
104,105,1583935452605,4.4862,0.55799997,5.0021,7.871991599999999,9.223921,6.222693,-1
105,106,1583935452615,4.121299700000001,-0.16499999,4.9061,6.7644053,8.609138,6.5496645,-1
106,107,1583935452626,3.0468,-0.8637,5.5076,5.0878415,7.884297999999999,7.6417074000000005,-1
107,108,1583935452636,1.3639,-1.6633999,6.6405,2.4142457999999998,7.0336375,8.815029,-1
108,109,1583935452646,-0.5949,-2.4238,7.3988,0.9989087999999999,6.680358999999999,9.780803,-1
109,110,1583935452656,-1.3576,-2.7403998,8.3022995,2.0184941000000003,6.662039,10.237242,-1
110,111,1583935452666,0.3281,-2.7514,8.4103,4.3899984000000005,6.9001946,9.480416,-1
111,112,1583935452676,2.9705,-2.4902,7.5625,6.3627152,7.123746000000001,8.785484,-1
112,113,1583935452686,5.3357,-2.303,6.6176996,7.8442855,7.138273700000001,7.6325902999999995,-1
113,114,1583935452697,6.3863997,-2.4177,5.5681996,7.808746000000001,6.907769999999999,7.1874223,-1
114,115,1583935452707,6.3006997,-2.6973,5.3171,6.20714,6.467735,7.554923,-1
115,116,1583935452717,4.718,-3.2106,5.699,3.9609482000000003,5.887773,8.1979,-1
116,117,1583935452727,2.8027,-3.7905,6.3462996,2.305032,5.505199,8.735914999999999,-1
117,118,1583935452737,1.6236999,-4.1816,6.7802997000000005,1.5345396999999998,5.123783,8.560995,-1
118,119,1583935452747,1.3048999,-4.5422,6.4688,1.1553076999999998,4.883041400000001,7.365933999999999,-1
119,120,1583935452758,1.1168,-4.8132,5.1622,0.74711543,4.7442255,5.577542,-1
120,121,1583935452768,1.0805,-4.9140997,3.3967998,0.63858145,4.705248,3.4686809999999997,-1
121,122,1583935452778,1.1142,-4.9809,1.4145,-0.109596975,4.510561,1.5669763,-1
122,123,1583935452788,0.6892,-5.1587996,0.0029,-0.78025115,4.4412346,0.88310605,-1
123,124,1583935452798,0.2047,-5.2124,-0.6049,-1.4888678,4.114713,1.0045974,-1
124,125,1583935452808,-0.3337,-5.5357,-0.43199998,-2.6027942000000004,3.7139144,1.5562694,-1
125,126,1583935452818,-1.2986,-5.9248,0.16229999,-3.3053486000000003,3.5355367999999996,1.6859490000000001,-1
126,127,1583935452828,-1.9791,-6.1087,0.29639998,-3.3495263999999993,3.5284212,1.5290426000000001,-1
127,128,1583935452838,-1.7414999,-6.0509996,0.115399994,-2.1044269,4.0760136,0.6920488,-1
128,129,1583935452848,-0.5592,-5.528,-0.62229997,-0.4841363,4.854866,-0.74313146,-1
129,130,1583935452859,1.0795,-4.7541,-2.0135999,0.325372,5.2964625,-1.7793802,-1
130,131,1583935452869,2.2003,-4.018,-3.4068,0.6167559,5.591486,-2.1899571,-1
131,132,1583935452879,1.8413999,-3.9236,-2.6036,0.21631134,5.674268,-1.3916823999999999,-1
132,133,1583935452889,0.90999997,-4.1495,-1.8419999999999999,-0.789512,5.4424706,-0.63810265,-1
133,134,1583935452900,0.07400000000000001,-4.0611,-1.2285,-1.7038191999999999,5.516595400000001,-0.04771165,-1
134,135,1583935452910,-0.3831,-3.9060998,-0.74619997,-2.2596377999999997,5.7164725999999995,0.46105619999999997,-1
135,136,1583935452920,-0.40899998,-3.6474998,-0.9759,-2.2560277,5.977776,0.028739998,-1
136,137,1583935452930,0.1994,-3.217,-1.7889999,-1.7280389999999999,6.3499784,-0.7604847,-1
137,138,1583935452940,0.1994,-3.217,-1.7889999,-0.97019756,6.755718700000001,-2.005096,-1
138,139,1583935452950,1.0892,-2.6164,-3.6562,-0.93857497,7.015605,-2.9274862,-1
139,140,1583935452961,0.80329996,-2.4217,-3.9815998,-1.264895,7.200791400000001,-3.2503490000000004,-1
140,141,1583935452971,0.4195,-2.2544,-3.5972,-1.6809403000000003,7.348571300000001,-2.7537055,-1
141,142,1583935452981,-0.034399997,-2.1153,-2.7278,-2.2107964,7.4906335,-1.9961993000000002,-1
142,143,1583935452991,-0.47259998,-1.9763,-2.2447999,-2.5996528,7.656772,-1.5960706,-1
143,144,1583935453001,-0.3696,-1.7018,-2.0806,-2.4178947999999996,7.963727499999999,-1.6328264,-1
144,145,1583935453012,-0.2758,-1.4783,-2.4565,-2.3443544,8.14676,-2.3608935,-1
145,146,1583935453022,-0.2865,-1.4031999,-3.2972998999999996,-2.4257286,8.217504,-3.0755916,-1
146,147,1583935453032,-0.4384,-1.2597,-3.8272998,-2.3714378,8.442442999999999,-3.7673626000000002,-1
147,148,1583935453042,0.101799995,-0.9888,-4.3471,-1.7535325000000002,8.6538515,-4.2700014,-1
148,149,1583935453052,0.5548,-0.8053,-4.4108,-1.4468257,8.921265,-3.9969281999999997,-1
149,150,1583935453062,0.6235,-0.58019996,-3.74,-1.5706346000000002,9.007695,-3.2937033,-1
150,151,1583935453073,0.2111,-0.6077,-3.1561,-2.0947158,8.901736999999999,-2.7396274,-1
151,152,1583935453083,-0.2559,-0.7811,-2.4197,-2.5069972999999997,8.777267,-1.828787,-1
152,153,1583935453093,-0.5215,-0.79829997,-1.5964999,-2.6547005,8.808200999999999,-1.1945821,-1
153,154,1583935453103,-0.4057,-0.70989996,-1.1699,-2.3387616,8.938933,-0.83569133,-1
154,155,1583935453113,0.0694,-0.48700000000000004,-1.0390999,-1.8452016,9.239023,-0.82551116,-1
155,156,1583935453123,0.4468,-0.2268,-1.2416999,-1.5178951,9.390805,-1.0060148000000002,-1
156,157,1583935453133,0.67429996,-0.16309999,-1.3003,-1.2224602,9.48147,-0.86846316,-1
157,158,1583935453143,1.0612,-0.078899994,-0.8735,-0.8360744000000001,9.526155000000001,-0.26902209999999993,-1
158,159,1583935453153,1.1812999,-0.1007,-0.24239999,-0.85994935,9.481498,0.40223548,-1
159,160,1583935453163,1.0689,-0.2279,0.2577,-0.9862483,9.298475,0.80913484,-1
160,161,1583935453173,0.89059997,-0.353,0.43799999999999994,-1.159598,9.229705000000001,0.901733,d
161,162,1583935453183,0.8797,-0.408,0.3902,-1.2348719,9.129694,0.765953,-1
162,163,1583935453193,0.53389996,-0.47169998,0.191,-1.7504104,9.122627,0.5001296,-1
163,164,1583935453204,0.53389996,-0.47169998,0.191,-2.2863955000000002,9.040726,0.14969507,-1
164,165,1583935453214,-0.40129998,-0.55799997,-0.37989998,-2.6334877,9.024291999999999,-0.11786176,-1
165,166,1583935453224,-0.5129,-0.5142,-0.47700000000000004,-2.6106662999999997,9.119428,-0.17281348,-1
166,167,1583935453234,-0.38869998,-0.4231,-0.4723,-2.446491,9.185115,-0.22245964,-1
167,168,1583935453245,-0.1646,-0.37269998,-0.5329,-2.1005576,9.305487,-0.23488078,-1
168,169,1583935453255,0.2498,-0.18609999,-0.4046,-1.7144207999999999,9.466204,-0.0032752678000000004,-1
169,170,1583935453265,0.5445,-0.039,-0.2038,-1.6017209,9.5883465,0.13897862,-1
170,171,1583935453275,0.5373,0.039899997,-0.1232,-1.7398664000000001,9.616043,0.17285179,-1
171,172,1583935453285,0.33679998,0.0411,-0.0929,-1.9903765,9.591057000000001,0.26272056,-1
172,173,1583935453295,0.0984,-0.016099999,0.034399997,-2.2346232,9.488192999999999,0.37974912,-1
173,174,1583935453305,-0.100999996,-0.1127,0.1223,-2.3825849999999997,9.462009,0.41020337,-1
174,175,1583935453315,-0.2341,-0.121599995,0.1131,-2.4844343999999996,9.4274,0.35334584,-1
175,176,1583935453325,-0.312,-0.15089999,0.0648,-2.486733,9.429679,0.32697135,-1
176,177,1583935453336,-0.1979,-0.1125,-0.0328,-2.1759462000000003,9.548613000000001,0.041620802,-1
177,178,1583935453346,0.15689999,0.0229,-0.34700000000000003,-1.8793526000000003,9.688377000000001,-0.15496232,-1
178,179,1583935453356,0.3539,0.1779,-0.3998,-1.7846953999999997,9.790274,0.0006895300500000001,-1
179,180,1583935453366,0.3281,0.2454,-0.14459999,-2.0126233,9.806027,0.4711502,-1
180,181,1583935453376,0.1299,0.2356,0.1944,-2.0619342,9.852524,0.57138103,-1
181,182,1583935453388,0.1308,0.2852,0.24919999,-1.8822831000000002,9.857858,0.635469,-1
182,183,1583935453398,0.32029998,0.2765,0.3448,-1.8467436000000002,9.791509,1.0009104,-1
183,184,1583935453408,0.3382,0.2297,0.6577,-2.0596359,9.630408000000001,1.4440963,-1
184,185,1583935453418,0.0581,0.0665,1.0917,-2.5132222,9.477649000000001,1.3569186000000002,-1
185,186,1583935453428,-0.2977,-0.0865,1.0037,-2.7058310000000003,9.462095,0.77671736,-1
186,187,1583935453439,-0.24689999,-0.0234,0.0244,-2.4874412999999995,9.533299000000001,0.34635478,-1
187,188,1583935453449,-0.0486,0.015899998999999998,-0.044099998,-2.287286,9.572076,0.27656859999999994,-1
188,189,1583935453460,-0.0679,-0.0528,0.1284,-2.3004352999999997,9.5028925,0.44189300000000004,-1
189,190,1583935453470,-0.0679,-0.0528,0.1284,-2.6312757,9.27915,0.5666309,-1
190,191,1583935453480,-0.44189999,-0.2985,0.4405,-2.6722642999999997,9.258646,0.73854417,-1
191,192,1583935453490,-0.075399995,-0.24129999,0.4174,-2.2345085,9.332886,0.69231695,-1
192,193,1583935453500,0.14299999,-0.17459999,0.32909998,-2.0550869,9.382522999999999,0.6075621999999999,-1
193,194,1583935453510,0.2359,-0.1467,0.3712,-1.9677561999999997,9.434678,0.65908545,-1
194,195,1583935453522,0.2359,-0.1467,0.3712,-2.0256767,9.47762,0.61942786,-1
195,196,1583935453532,0.0178,-0.1777,0.1748,-2.1987967,9.358446,0.33902854,-1
196,197,1583935453542,0.2137,-0.1391,-0.1237,-1.9968599999999999,9.427485,0.089840025,-1
197,198,1583935453552,0.4191,0.017099998999999998,-0.061699998,-1.8077947,9.65821,0.19971472,-1
198,199,1583935453562,0.27359998,0.1153,-0.014099998999999998,-2.0788088,9.635043,0.053409852,-1
199,200,1583935453572,0.0121,-0.0018,-0.253,-2.2259467,9.557432,-0.17857872,-1
200,201,1583935453583,-0.0346,0.0082,-0.2999,-2.3135076,9.5291815,-0.17553329999999998,-1
201,202,1583935453593,-0.259,-0.1092,-0.2332,-2.5719855,9.464883,-0.013828908999999999,-1
202,203,1583935453603,-0.4461,-0.0212,0.047,-2.6521242000000003,9.583338000000001,0.21204008,-1
203,204,1583935453614,-0.17729999,0.1244,-0.0047999997999999995,-2.079709,9.8103285,-0.11430877,-1
204,205,1583935453624,0.332,0.3376,-0.38619998,-1.6492314,10.010444999999999,-0.4838107,-1
205,206,1583935453634,0.63659996,0.4727,-0.66889995,-1.5314081,10.062207,-0.6455055000000001,-1
206,207,1583935453644,0.62439996,0.4623,-0.7294,-1.6487238000000002,9.994088,-0.59069747,-1
207,208,1583935453654,0.4919,0.4143,-0.589,-1.8187601999999998,9.913862,-0.4155281,-1
208,209,1583935453665,0.3254,0.30879998,-0.3757,-1.9520501000000001,9.808374,-0.11649228,-1
209,210,1583935453675,0.18159999,0.1942,-0.0884,-2.1869116,9.687658,0.16246095,-1
210,211,1583935453685,-0.0585,0.0898,0.1086,-2.374684,9.604177,0.2835884,-1
211,212,1583935453695,-0.122099996,0.044299997,0.24839999,-2.3731709999999997,9.556780999999999,0.3823253,-1
212,213,1583935453705,-0.15709999,-0.0405,0.2245,-2.3993444,9.5250635,0.26828468,-1
213,214,1583935453715,-0.1042,-0.0078,0.10669999599999999,-2.3709013,9.563103,0.14616123,-1
214,215,1583935453726,-0.0712,0.0345,-0.0083,-2.3286197,9.570927000000001,0.024727317000000002,-1
215,216,1583935453736,-0.018199998999999998,0.018099999,-0.11199999599999999,-2.301546,9.551897,-0.11405977,-1
216,217,1583935453746,-0.0034999999,0.0019999999,-0.2548,-2.3197229999999998,9.539055000000001,-0.17505446,-1
217,218,1583935453756,0.042099997,0.0158,-0.25259998,-2.2838292,9.523292,-0.18362568,-1
218,219,1583935453766,0.059499998,-0.0289,-0.2735,-2.4400265,9.432762,-0.12611696,-1
219,220,1583935453776,-0.098,-0.112399995,-0.17109999,-2.6420877000000003,9.391036,0.14697525,-1
220,221,1583935453787,-0.2838,-0.1269,0.094799995,-2.810419,9.337606,0.3182373,-1
221,222,1583935453797,-0.45099998,-0.18079999,0.1752,-2.9237225,9.344837,0.16955736,-1
222,223,1583935453807,-0.4834,-0.15699999,-0.0042999996999999995,-2.9117900000000003,9.3709345,-0.09210015,-1
223,224,1583935453817,-0.4804,-0.14389999,-0.2681,-2.8989759999999998,9.373788000000001,-0.3420835,-1
224,225,1583935453827,-0.4127,-0.1319,-0.4815,-2.6984567999999998,9.383269,-0.47301763,-1
225,226,1583935453837,-0.20199999,-0.110999994,-0.5894,-2.4948156000000004,9.410821,-0.5073505,-1
226,227,1583935453848,-0.0132,-0.0907,-0.59459996,-2.4678473,9.319908999999999,-0.29896876,-1
227,228,1583935453858,-0.0298,-0.2172,-0.36159998,-2.6400094,9.281928,0.15049951,-1
228,229,1583935453868,-0.1919,-0.22559999,0.0914,-2.731918,9.257401,0.5232384,-1
229,230,1583935453878,-0.28579998,-0.2438,0.3867,-2.7859986,9.272886,0.61403614,-1
230,231,1583935453888,-0.29299998,-0.20359999,0.41079998,-2.5726082000000003,9.395144,0.41041407,-1
231,232,1583935453898,-0.0963,-0.0954,0.2043,-2.4336104,9.4745455,0.16744089,-1
232,233,1583935453909,0.0315,-0.0265,-0.0471,-2.4267437000000003,9.536728,0.09999144,-1
233,234,1583935453919,0.0436,0.032899998,-0.1209,-2.4770315,9.495173,0.18761922,-1
234,235,1583935453929,-0.161,-0.091199994,0.23719999,-2.6519327,9.405593,0.47234726,-1
235,236,1583935453939,-0.161,-0.091199994,0.23719999,-2.8549802000000004,9.356933,0.7196395999999999,-1
236,237,1583935453949,-0.3696,-0.1284,0.4834,-2.8901557999999996,9.340489,0.8672851999999999,-1
237,238,1583935453959,-0.16669999,-0.0872,0.5735,-2.6623714,9.405937,0.8152831,-1
238,239,1583935453970,-0.0591,-0.116799995,0.30269998,-2.5665270000000002,9.370828999999999,0.5506472,-1
239,240,1583935453980,-0.0602,-0.1466,0.1328,-2.5584247,9.346466,0.3686113,-1
240,241,1583935453990,-0.0231,-0.098299995,0.1787,-2.5200026,9.390825,0.40591297,-1
241,242,1583935454000,0.0905,-0.070099995,0.22459999,-2.3999287999999996,9.428998,0.4563157,-1
242,243,1583935454010,0.2713,-0.0521,0.0162,-2.1917386000000003,9.450106,0.18996555,-1
243,244,1583935454020,0.31509998,-0.073199995,-0.1633,-2.1651053,9.4251,0.056014743,-1
244,245,1583935454030,0.31509998,-0.073199995,-0.1633,-2.1906369999999997,9.355181,0.10361148,-1
245,246,1583935454040,0.1372,-0.2208,0.0674,-2.3842993,9.254796,0.32326509999999997,-1
246,247,1583935454050,-0.0056,-0.30789998,0.2536,-2.4991539,9.186964,0.46797067,-1
247,248,1583935454060,0.0087,-0.3166,0.3035,-2.4667077,9.201071,0.4966915,-1
248,249,1583935454071,0.0022,-0.2471,0.120699994,-2.5361109,9.25019,0.28639442,-1
249,250,1583935454081,-0.24059999,-0.2074,-0.040599998,-2.7547686000000002,9.324342999999999,0.14081737,-1
250,251,1583935454091,-0.2606,-0.0703,-0.14379999,-2.7221305,9.453314,0.042109217000000004,-1
251,252,1583935454102,-0.1469,0.0167,-0.1801,-2.635001,9.516138,-0.00093852705,-1
252,253,1583935454112,-0.103599995,0.0839,-0.1209,-2.5847227999999998,9.580532,0.09006028599999999,-1
253,254,1583935454122,-0.1196,0.062699996,-0.034199997999999995,-2.6046999,9.552089,0.16926049,-1
254,255,1583935454132,-0.086899996,0.060999997,-0.0066,-2.5257967,9.59485,0.18097292,-1
255,256,1583935454142,0.013599999,0.1278,-0.0368,-2.3546492999999997,9.679882000000001,0.12669158,-1
256,257,1583935454152,0.2022,0.2043,-0.114999995,-2.2129128,9.726617,0.10656112400000001,-1
257,258,1583935454162,0.275,0.2519,-0.0163,-2.0877345000000003,9.793933,0.24987803,-1
258,259,1583935454172,0.39999998,0.28059998,0.1019,-2.0873415,9.769186,0.27394456,-1
259,260,1583935454182,0.0977,0.1634,-0.0429,-2.4138532,9.653412,0.13702495,-1
260,261,1583935454192,-0.18259999,0.14469999,0.018000000000000002,-2.6463400000000004,9.630408000000001,0.25365132,-1
261,262,1583935454202,-0.18259999,0.14469999,0.018000000000000002,-2.5637207,9.634545,0.21220288,-1
262,263,1583935454212,-0.0524,0.0963,-0.0657,-2.4783244,9.598230000000001,0.031028853999999998,-1
263,264,1583935454222,0.013499998999999999,0.076,-0.2199,-2.4402566,9.533271000000001,-0.11667424,-1
264,265,1583935454234,-0.01,-0.0033999997999999997,-0.2784,-2.4586057999999995,9.518475,-0.047223235999999995,-1
265,266,1583935454243,0.0041,0.014699998999999998,-0.104899995,-2.4081072999999997,9.518004,0.13489890000000002,-1
266,267,1583935454254,0.085599996,0.0131,0.0176,-2.3074646,9.519959,0.21675186,-1
267,268,1583935454264,0.1281,-0.007999999,0.0426,-2.2706225,9.446035,0.21827458,-1
268,269,1583935454274,0.1525,-0.0876,0.0099,-2.2819135,9.427992999999999,0.2115804,-1
269,270,1583935454284,0.13069999,-0.0784,0.0471,-2.3355532,9.4511595,0.34827015,d
270,271,1583935454294,0.072399996,-0.08800000000000001,0.213,-2.4032996,9.403955,0.4519295,-1
271,272,1583935454304,0.0458,-0.0677,0.2446,-2.3480990000000004,9.544533,0.33614590000000005,-1
272,273,1583935454315,0.0792,0.0508,0.0255,-2.3582406000000002,9.578569,0.010553641,-1
273,274,1583935454325,0.0356,0.0716,-0.27969998,-2.4496130000000003,9.609646000000001,-0.22000799,-1
274,275,1583935454335,-0.0659,0.11229999,-0.41,-2.579264,9.620229,-0.27894366,-1
275,276,1583935454346,-0.23600000000000002,0.045199998,-0.4757,-2.7820337000000004,9.529152,-0.26007733,-1
276,277,1583935454356,-0.3888,0.0071,-0.34019998,-2.8762982000000004,9.503363,-0.03991613,-1
277,278,1583935454366,-0.4084,-0.0319,-0.1409,-2.7874446,9.51494,0.13835612,-1
278,279,1583935454376,-0.3058,0.035499997,0.0067999995999999995,-2.6359107,9.576366,0.19816329,-1
279,280,1583935454386,-0.1487,0.072399996,-0.0033999997999999997,-2.4736125,9.599973,0.21858104,-1
280,281,1583935454396,-0.0128999995,0.0894,0.024899999,-2.3194644,9.610938,0.37531507,-1
281,282,1583935454407,0.1413,0.0963,0.18789999,-2.056763,9.610632,0.56946564,-1
282,283,1583935454417,0.42929998,0.1244,0.3757,-1.7247255000000001,9.664003999999998,0.64712393,-1
283,284,1583935454427,0.6802,0.13329999,0.38819999,-1.8932772,9.557471000000001,0.56044436,-1
284,285,1583935454437,0.4572,0.0064999997,0.2872,-2.1079125,9.437147999999999,0.4376026,-1
285,286,1583935454447,0.27879998,-0.0894,0.18969999,-2.1734946,9.432801,0.46860272,-1
286,287,1583935454457,0.23979999,-0.087,0.2321,-2.2462687000000003,9.376307,0.49362692,-1
287,288,1583935454468,0.17359999,-0.1428,0.2472,-2.391635,9.288679,0.42470264,-1
288,289,1583935454478,0.021399999,-0.22749999,0.1955,-2.619496,9.285557,0.5047169,-1
289,290,1583935454488,-0.1977,-0.2235,0.3111,-2.7853665000000003,9.177665,0.5806226,-1
290,291,1583935454498,-0.2992,-0.31759998,0.3687,-2.9607656,9.087297,0.5230948000000001,-1
291,292,1583935454508,-0.46159998,-0.4121,0.3202,-3.0759935,8.949814,0.3065344,-1
292,293,1583935454518,-0.56839997,-0.537,0.126,-2.9507387,8.870928999999999,0.15287457,-1
293,294,1583935454529,-0.4362,-0.61439997,-0.029299999,-2.5991168,8.802866999999999,0.05366843,-1
294,295,1583935454539,-0.085,-0.68369997,-0.11889999,-2.2759762,8.683617,0.06969042,-1
295,296,1583935454550,0.2329,-0.8127,-0.094799995,-2.0737810000000003,8.319792999999999,0.21990263,-1
296,297,1583935454560,0.4696,-1.4524,0.0797,-2.027544,8.036445,0.24026293,-1
297,298,1583935454570,0.4592,-1.9132999,0.13409999,-2.0429437,7.4665289999999995,0.3242707,-1
298,299,1583935454580,0.4109,-2.5602999,0.21499999,-2.0933943,6.9296527,0.38964197,-1
299,300,1583935454590,0.2741,-3.3249,0.4003,-2.2511911000000002,6.0034513,0.6575340000000001,-1
300,301,1583935454601,0.20289999,-4.1196,0.7585,-2.2997456,5.233112,1.036038,-1
301,302,1583935454611,0.1648,-4.7688,1.0373,-2.335429,4.614661,1.3026661,-1
302,303,1583935454621,0.11889999,-5.3610997000000005,1.1808,-2.31481,4.0396790000000005,1.4134314,-1
303,304,1583935454631,0.38799998,-5.7303,1.1228,-1.9992446,3.7317464,1.361391,-1
304,305,1583935454641,0.72889996,-5.9442,1.0515,-1.5877101,3.5347037000000006,1.2483846,-1
305,306,1583935454651,1.4492999,-6.0708,0.6749,-0.73005915,3.4421915999999997,0.78875536,-1
306,307,1583935454662,2.2997,-6.2163997,0.08109999400000001,0.1057471,3.2921135,0.19965728,-1
307,308,1583935454672,2.799,-6.31,-0.2342,0.51148766,3.1973700000000003,-0.058332327999999996,-1
308,309,1583935454682,2.6192,-6.6348,-0.1475,0.17836803,2.734638,0.12179783,-1
309,310,1583935454692,2.3274,-7.0439997000000005,0.0757,-0.09602664400000001,2.3604147,0.29925609999999997,-1
310,311,1583935454702,2.0934,-7.3332996,0.2699,-0.49766833,2.0539856,0.49220955,-1
311,312,1583935454712,1.3922,-7.7001,0.5033,-1.2762245,1.6871651,0.7488201,-1
312,313,1583935454722,0.88269997,-7.9698997,0.7844,-1.6405644,1.48769,1.0026821,-1
313,314,1583935454733,0.6343,-8.1057,1.0337,-1.7877121999999999,1.4090835,1.1683033999999999,-1
314,315,1583935454743,0.57409996,-8.1968,1.1517,-1.8446558000000002,1.3290597,1.3107488,-1
315,316,1583935454753,0.4856,-8.1553,1.4224,-1.7355471999999998,1.446749,1.6186816000000002,-1
316,317,1583935454763,1.0245,-7.8929,1.4864998999999999,-1.1473111,1.7464074,1.4882741000000002,-1
317,318,1583935454773,1.4585999,-7.4282,0.99789995,-0.80215335,2.3106441,0.8727823,-1
318,319,1583935454783,1.4333,-6.9551,0.4957,-0.5721184,2.9839412999999997,0.33103190000000005,-1
319,320,1583935454794,1.8698,-5.9144998,0.0156,-0.15057613,4.081405,0.049837705,-1
320,321,1583935454804,1.6430999,-5.002,0.3849,-0.49863559999999996,5.287518,0.8330385,-1
321,322,1583935454814,1.3727,-3.7658,1.0216,-0.6481965999999999,6.4058785,1.2038333,-1
322,323,1583935454824,0.7884,-2.6775,1.3639,-1.2794901,7.467840700000001,1.4376512,-1
323,324,1583935454834,0.5378,-1.7271,1.3384,-0.71495646,8.770172,0.81712186,-1
324,325,1583935454845,1.1347,-0.4247,0.3823,-0.28451738,9.919130000000001,-0.3872286,-1
325,326,1583935454855,1.1021,0.6522,-0.7412,-0.16728766,11.254922,-1.5268399,-1
326,327,1583935454865,1.2674,2.2010999,-1.9327999,0.08696698,12.861814500000001,-2.85929,-1
327,328,1583935454875,1.0926,3.6534998,-3.0735,-0.2838374,14.133547,-3.4559631,-1
328,329,1583935454885,0.3866,4.7941,-3.3051,-1.0517154,15.044981,-3.30283,-1
329,330,1583935454896,-0.3667,5.5537,-2.7972999,-1.1890085,15.836773,-2.0212808,-1
330,331,1583935454906,-0.6016,6.295,-1.2526,-0.9642025,16.487814,-0.28295633,-1
331,332,1583935454916,-0.31489998,6.9315,0.034399997,-0.14236881,17.204006,0.5829307,-1
332,333,1583935454926,0.5011,7.7205997,0.4723,1.8810765,18.330698,0.7485041,-1
333,334,1583935454936,2.1678998,8.772699000000001,0.4351,3.381714,19.260182999999998,0.6718991999999999,-1
334,335,1583935454946,3.4961998,9.814099,0.1532,4.410712999999999,20.129816,0.76792586,-1
335,336,1583935454957,3.7940998,10.4513,0.31599998,4.147907,20.481592000000003,1.5572462,-1
336,337,1583935454967,3.1827,10.759299,1.0699999,3.5913407999999998,20.544569,2.4170425,-1
337,338,1583935454977,2.4157,10.764199000000001,1.7607,3.3172333,20.323898,2.6407087000000002,-1
338,339,1583935454987,2.164,10.5033,1.7730000000000001,3.6569133000000003,19.829697,2.2370749,-1
339,340,1583935454997,2.3253999,10.0149,1.2609999,3.6290925000000005,19.159695000000003,1.5727606,-1
340,341,1583935455008,2.0795,9.3175,0.6098,3.0922263,18.277634,1.4319338,-1
341,342,1583935455018,1.3586999,8.4403,0.6234,1.9923875,17.233704,1.6282295,-1
342,343,1583935455028,0.0705,7.3444,0.7669,0.8227339,15.839569000000001,1.6743323,-1
343,344,1583935455038,-0.8814,6.2074,0.7962,0.7500842,15.137485,1.3544573999999998,-1
344,345,1583935455048,-0.9388,5.364,0.3698,1.3681905,14.23484,0.483533,-1
345,346,1583935455058,-0.4567,4.6285,-0.3762,1.8070955000000002,13.545848000000001,0.11448115,-1
346,347,1583935455069,-0.067999996,3.9415998,-0.741,2.1154687,13.066088,0.04751054,-1
347,348,1583935455079,0.1926,3.4789999,-0.8046,2.411718,12.612368,-0.016941372,-1
348,349,1583935455089,0.46629998,3.0233998,-0.8257,2.3149152,12.248286,0.019766528000000002,-1
349,350,1583935455099,-0.29839998,2.158,-0.7137,1.6611067,11.748444000000001,0.0714334,-1
350,351,1583935455109,-0.29839998,2.158,-0.7137,0.8410639000000001,11.277466,0.0031220390999999997,-1
351,352,1583935455120,-1.7893,1.2497,-0.93039995,0.04503972,10.772864,-0.37294957,-1
352,353,1583935455131,-2.0372,0.8889,-1.3044,-0.16851349,10.453526,-0.79597634,-1
353,354,1583935455141,-1.8246,0.71709996,-1.7202,0.20614076,10.352499,-1.3639288,-1
354,355,1583935455151,-0.95879996,0.7157,-2.5988,1.1407318000000002,10.316117,-2.2668397000000002,-1
355,356,1583935455161,-0.023799999,0.7762,-2.9199998,2.0708408,10.433347,-2.4771082000000004,-1
356,357,1583935455172,0.6055,0.81869996,-2.7287998,2.6067972000000004,10.431949000000001,-2.1932707000000002,-1
357,358,1583935455182,0.7198,0.7635,-2.0519,2.6465982999999995,10.348324,-1.3959346000000001,-1
358,359,1583935455192,0.5076,0.59,-0.9995,2.3829012,10.113414,-0.12508267,-1
359,360,1583935455202,0.5076,0.59,-0.9995,2.108085,9.901968,0.6868677,-1
360,361,1583935455213,0.0563,0.23199999999999998,0.494,1.9628145000000001,9.791126,1.2980883,-1
361,362,1583935455224,-0.096999995,0.0667,0.8624,1.7402111,9.577497,1.5846358999999999,-1
362,363,1583935455234,-0.3371,-0.1978,1.0004,1.5123118999999998,9.286275999999999,1.5929965,-1
363,364,1583935455245,-0.4793,-0.4242,0.77349997,1.4428705,9.062560000000001,1.1153628,-1
364,365,1583935455255,-0.3885,-0.5726,0.23600000000000002,1.8029201000000001,9.085919,0.4924107,-1
365,366,1583935455265,0.052199997000000005,-0.4951,-0.3746,2.2998796,9.181006,-0.06643431,-1
366,367,1583935455275,0.5707,-0.3487,-0.8398,2.6642292000000003,9.3127365,-0.32852277,-1
367,368,1583935455285,0.7974,-0.2613,-0.8698,2.6212485,9.343085,-0.022831108,-1
368,369,1583935455296,0.62759995,-0.2724,-0.5171,2.3076658,9.265235,0.44381797,d
369,370,1583935455306,0.29549998,-0.35259998,-0.054899998,1.8278101999999998,9.234283,0.98965764,-1
370,371,1583935455316,-0.16229999,-0.3838,0.48189998,1.5606556,9.292375999999999,1.4050995000000002,-1
371,372,1583935455326,-0.3671,-0.3069,0.81619996,1.5646681999999998,9.352117,1.4085951,-1
372,373,1583935455336,-0.2913,-0.23969999,0.74829996,1.728719,9.394962,1.1546469,-1
373,374,1583935455346,-0.1409,-0.2311,0.4732,1.8017613000000001,9.361683,0.8857396999999999,-1
374,375,1583935455358,-0.0815,-0.25169998,0.2412,1.8392353,9.341553,0.7078696999999999,-1
375,376,1583935455368,-0.033999998,-0.2717,0.085999995,2.097043,9.389867,0.40665993,-1
376,377,1583935455378,0.1977,-0.2225,-0.1698,2.3492862999999997,9.482455999999999,0.21100578,-1
377,378,1583935455388,0.4877,-0.1239,-0.39029998,2.3347871,9.479392,0.30939788,-1
378,379,1583935455398,0.43699998,-0.1431,-0.2636,2.0896401,9.432734,0.668758,-1
379,380,1583935455408,0.1933,-0.192,0.0817,1.934898,9.397386000000001,1.0176889999999998,-1
380,381,1583935455418,0.048899997,-0.21139999,0.4231,1.8665387999999998,9.415639,1.3111798000000001,-1
381,382,1583935455429,-0.027199998,-0.2014,0.6961,1.8094705000000002,9.435922999999999,1.4983106000000002,-1
382,383,1583935455439,-0.0839,-0.1818,0.8867,1.8114625,9.469517999999999,1.4524951000000001,-1
383,384,1583935455449,-0.0692,-0.1248,0.6656,1.8117976999999998,9.500173,1.2726905000000002,-1
384,385,1583935455459,-0.1547,-0.1166,0.43739998,1.7311131999999998,9.509012,1.0176219000000002,-1
385,386,1583935455469,-0.1326,-0.0005999999700000001,0.213,1.744674,9.616311,0.7691708,-1
386,387,1583935455480,-0.0134,0.1841,-0.14729999,1.8617887,9.797591,0.38553350000000003,-1
387,388,1583935455490,0.085,0.4086,-0.3554,1.9544156000000004,10.031025,0.16883911,-1
388,389,1583935455500,0.1335,0.6534,-0.32729998,2.007155,10.280816999999999,0.1883662,-1
389,390,1583935455510,0.0347,0.96739995,-0.0734,1.9099887999999998,10.5868435,0.4419409000000001,-1
390,391,1583935455520,-0.2985,1.3503,0.3306,1.4818577,11.067274000000001,0.9271019,-1
391,392,1583935455530,-0.84779996,1.8706,0.5748,0.95681876,11.618879,1.1453478000000001,-1
392,393,1583935455540,-1.0874,2.5586998,0.6885,0.79224133,12.180817999999999,1.240953,-1
393,394,1583935455551,-1.0403,3.3762,0.8627,0.90956676,13.180895000000001,1.5189773000000002,-1
394,395,1583935455561,-0.6465,4.4017,1.3867999,1.2726332,14.019478,1.9852720000000001,-1
395,396,1583935455571,-0.1771,5.6247997000000005,1.8223,1.8214703999999997,15.490197,2.5435232999999995,-1
396,397,1583935455581,0.0115,6.9261,2.0089,2.0657842,17.081298999999998,2.7717962000000003,-1
397,398,1583935455592,0.22819999,8.294499,2.1683,2.2622907000000003,18.365118,3.019414,-1
398,399,1583935455602,0.36929998,9.4152,2.399,2.3427646,19.331924,3.3311197999999997,-1
399,400,1583935455612,0.56549996,10.1404,2.7586,2.767793,19.96065,3.81472,-1
400,401,1583935455622,1.4122,10.687099,3.2914999,3.5219378,20.375135,4.289202700000001,-1
401,402,1583935455633,2.539,11.0356,3.6617,4.773568599999999,20.709423,4.694551000000001,-1
402,403,1583935455643,3.3562,11.0569,3.8021,5.172778,20.521143,4.8549430000000005,-1
403,404,1583935455653,3.3251,10.6706,3.8974998,4.7614827,20.144928,4.918715,-1
404,405,1583935455663,2.6441998,10.17,3.6683998,3.7784524,19.512745000000002,4.555064700000001,-1
405,406,1583935455673,1.8654,9.2814,3.0398,3.0389314,18.746983,3.9483642999999997,-1
406,407,1583935455684,1.1230999,8.2535,2.3717,1.5663346000000002,17.078004999999997,3.0715310000000002,-1
407,408,1583935455694,0.0819,6.7172,1.8871,0.6191214,15.73567,2.7403555,-1
408,409,1583935455704,-0.44939998,5.0284,1.4577999,0.6320118,13.878870999999998,1.8821584999999998,-1
409,410,1583935455714,0.55439997,3.6095998,0.41189998,1.8778873999999999,12.930366000000001,0.48448107,-1
410,411,1583935455724,2.3971,2.4799,-1.6705999,3.7444358,11.476443,-2.1181023,-1
411,412,1583935455734,3.6799,1.1486,-3.5209,4.035887000000001,10.08953,-2.9590799999999997,-1
412,413,1583935455745,3.4739999999999998,-0.217,-3.4772,2.9488711,8.725247,-1.6627922,-1
413,414,1583935455755,2.214,-1.6660999,-1.8520999,1.6034831,7.448773399999999,-0.26507646,-1
414,415,1583935455765,0.4039,-3.2882998,0.032899998,-0.93523264,5.6066937,2.2448514,-1
415,416,1583935455775,-1.6128,-4.7623,1.8695998999999999,-2.7296484,4.1592937,3.5220718,-1
416,417,1583935455785,-2.5772,-6.0428,2.6715,-1.3635936000000002,3.5596127999999996,2.7209623,-1
417,418,1583935455795,-0.47239998,-6.1517,1.0878999,0.94902325,3.6239884,-0.246258,-1
418,419,1583935455805,2.2187997999999998,-6.1962,-2.6260998,3.1000986,3.574294,-3.125065,-1
419,420,1583935455816,4.0353,-6.1707,-4.4595,4.027689,3.6072192000000003,-3.6262865,-1
420,421,1583935455826,4.2225,-6.257999999999999,-4.1495,2.8436892000000005,3.2314252999999997,-1.6253277,-1
421,422,1583935455836,2.9571998,-6.5853996,-2.0054998,1.4594191,2.9745467,0.60711205,-1
422,423,1583935455847,1.329,-6.8613,0.6792,-0.37245159999999994,2.8387954,3.0615422999999997,-1
423,424,1583935455857,0.02,-6.9329,2.2563,-1.5124267,2.7123911,3.377165,-1
424,425,1583935455867,-0.9899,-7.0681996,2.3384,-1.9715484,2.6941664,2.395351,-1
425,426,1583935455877,-0.95229995,-6.9535,1.1435,-0.46076888,3.3460214,-0.53004754,-1
426,427,1583935455888,0.7090000000000001,-6.312,-1.8118999,0.6161047,3.631937,-2.6397703,-1
427,428,1583935455897,1.91,-5.9624996,-3.8969998,1.2967763,3.9956546000000004,-4.078839,-1
428,429,1583935455907,2.2602,-5.7648997,-4.4888997,0.9082452,3.9201699999999997,-3.5898660000000002,-1
429,430,1583935455917,1.8698,-5.817199700000001,-3.6985997999999998,0.13024457,4.0072136,-2.407322,-1
430,431,1583935455927,1.1334,-5.6896996,-2.4104,-0.77573097,4.3806324,-1.1987576000000002,-1
431,432,1583935455938,0.3926,-5.2278,-1.2645998999999999,-1.1997248999999999,4.937772799999999,-0.72166026,-1
432,433,1583935455948,0.10669999599999999,-4.6591,-0.8847,-1.4889636,5.54093,-0.7376918,-1
433,434,1583935455958,-0.1496,-4.073,-0.9148,-1.9371294,6.036931500000001,-0.71336675,-1
434,435,1583935455968,-0.5593,-3.5672,-0.7909999999999999,-2.2645988,6.514939,-0.46254063,-1
435,436,1583935455978,-0.75869995,-3.0733,-0.49679998,-1.9689531000000002,7.1339355,-0.3989123,-1
436,437,1583935455988,-0.3446,-2.4342,-0.49139997,-1.373477,7.710057300000001,-0.5288026,-1
437,438,1583935455998,0.1393,-1.9827,-0.5679,-1.2283691,7.984021,-0.43400174,-1
438,439,1583935456009,0.2796,-1.7175,-0.45119998,-0.9755606,8.175088,-0.6168899999999999,-1
439,440,1583935456019,0.5505,-1.5205,-0.6179,-0.97326213,8.307716000000001,-0.69858974,-1
440,441,1583935456029,0.56259996,-1.3910999,-0.67179996,-1.2045995,8.40088,-0.34136528,-1
441,442,1583935456039,0.3488,-1.2895,-0.2909,-1.692193,8.426833,0.031105467999999997,-1
442,443,1583935456049,-0.7266,-1.2005,0.1343,-2.3446991,8.483097,0.040854655,-1
443,444,1583935456059,-0.7266,-1.2005,0.1343,-2.4881597,8.579086,-0.20950224,-1
444,445,1583935456069,-0.84059995,-1.0981,-0.06,-2.3549562,8.8227005,-0.43994892,-1
445,446,1583935456080,-0.4308,-0.66459996,-0.672,-1.981039,9.094441999999999,-0.97039866,-1
446,447,1583935456090,-0.2076,-0.4213,-0.9083,-1.8475192999999999,9.256682000000001,-1.1095401000000003,-1
447,448,1583935456100,-0.175,-0.2574,-0.9295,-1.7967621999999999,9.453975,-1.1542255,-1
448,449,1583935456110,-0.075399995,-0.1134,-1.2827,-1.6799538,9.570497,-1.4744548000000002,-1
449,450,1583935456120,0.2304,0.0598,-1.6632999,-1.3578953999999999,9.748777,-1.829218,-1
450,451,1583935456131,0.3258,0.20439999,-1.2414,-1.3025415,9.881914,-1.2418053999999998,-1
451,452,1583935456141,-0.0413,0.1346,-0.47779998,-1.6683851000000003,9.807789999999999,-0.4170412,-1
452,453,1583935456151,-0.3548,0.0067999995999999995,0.2911,-1.9802442999999998,9.701353,0.42359173,-1
453,454,1583935456161,-0.5205,0.0657,0.99499995,-2.0793545,9.781253,1.102233,-1
454,455,1583935456171,-0.4238,0.0852,1.0831,-1.9480183,9.766264999999999,1.0339313,-1
455,456,1583935456181,-0.0744,0.1042,0.6681,-1.5395578,9.825660000000001,0.6334866,-1
456,457,1583935456192,0.3236,0.182,0.1784,-1.1898799,9.872232,0.10270168,-1
457,458,1583935456202,0.3236,0.182,0.1784,-1.1667712,9.90713,-0.5273085,-1
458,459,1583935456212,0.3067,0.18239999,-0.91389996,-1.2681416,9.877125999999999,-0.99507815,-1
459,460,1583935456222,0.2077,0.09559999400000001,-1.1294,-1.4980615,9.684967,-0.9739804,-1
460,461,1583935456232,-0.06399999599999999,-0.0591,-0.6003,-1.7316878,9.602981,-0.26984566,-1
461,462,1583935456242,-0.2463,-0.17449999,0.0385,-1.9203796000000002,9.45092,0.23438276,-1
462,463,1583935456252,-0.4197,-0.2997,0.306,-2.067556,9.356675,0.39728424,d
463,464,1583935456262,-0.6155,-0.3764,0.3243,-2.29874,9.287386,0.32145512,-1
464,465,1583935456272,-0.66889995,-0.4245,0.0058999998,-2.284375,9.243065,-0.031210814,-1
465,466,1583935456283,-0.6109,-0.4639,-0.2597,-2.155538,9.225596000000001,-0.27108109999999996,-1
466,467,1583935456293,-0.37359998,-0.42589998,-0.43799999999999994,-1.8654853,9.2463875,-0.34556950000000003,-1
467,468,1583935456303,-0.045199998,-0.4283,-0.3069,-1.5899413999999998,9.274668,-0.16553510000000002,-1
468,469,1583935456313,0.1999,-0.3039,0.0056,-1.3001856,9.446955,0.25479093,-1
469,470,1583935456323,0.40489998,-0.1502,0.3177,-1.0390261,9.589649,0.5361096,-1
470,471,1583935456334,0.6125,-0.0058999998,0.3425,-0.92035025,9.771991,0.3892589,-1
471,472,1583935456344,0.69009995,0.21769999,0.105,-0.8511770000000001,9.9885235,0.101169385,-1
472,473,1583935456354,0.65059996,0.3058,-0.1986,-0.9439284,9.97412,-0.23558944,-1
473,474,1583935456364,0.54539996,0.2977,-0.3168,-1.141699,10.02028,-0.29018682,-1
474,475,1583935456375,0.3348,0.2819,-0.36200000000000004,-1.4928709,9.892669,-0.40066487,-1
475,476,1583935456385,-0.1118,0.1599,-0.4256,-2.038251,9.768123,-0.49871220000000005,-1
476,477,1583935456395,-0.58489996,0.067999996,-0.48279998,-2.467043,9.740389,-0.5115547,-1
477,478,1583935456405,-0.9249,0.0835,-0.3419,-2.7413802000000005,9.808432,-0.122822545,-1
478,479,1583935456415,-1.1072,0.20539999,0.1717,-2.902548,9.971831,0.40571186,-1
479,480,1583935456426,-1.2315999,0.345,0.61039996,-2.912642,10.055427,0.518948,-1
480,481,1583935456436,-1.1129999,0.4335,0.50909996,-2.5936291000000002,10.216882,0.2154973,-1
481,482,1583935456446,-0.7423,0.657,0.1156,-2.056648,10.602022999999999,-0.30369014,-1
482,483,1583935456456,-0.22469999,1.0358,-0.2953,-1.1606706,11.137147,-0.9136848,-1
483,484,1583935456466,0.6897,1.5903,-0.9112,-0.32809183,11.614272,-1.3922666000000001,-1
484,485,1583935456477,1.6671,2.175,-1.4097998999999999,0.5898355,12.272956,-1.6987531000000002,-1
485,486,1583935456487,2.2575998,2.6641998,-1.5764999,0.8234809000000001,12.654696000000001,-1.9025763,-1
486,487,1583935456497,2.4483,3.0393999,-1.8111,0.7459661999999999,12.884214,-2.3813400000000002,-1
487,488,1583935456507,2.3765,3.2552998,-2.3149,0.6527168999999999,13.075722,-3.130141,-1
488,489,1583935456518,2.3672,3.4275,-3.125,0.67254084,13.127158999999999,-4.249411,-1
489,490,1583935456528,2.4322999,3.495,-4.2709,0.86243933,13.205363,-5.2663150000000005,-1
490,491,1583935456538,2.7264,3.5454998,-5.1721,1.1690695,13.090019999999999,-5.892321599999999,-1
491,492,1583935456548,3.0993,3.4392998,-5.7265997,1.6579081000000002,12.886513,-6.2097163,-1
492,493,1583935456558,3.5818,3.2645998,-5.9786,1.9980474999999998,12.51026,-6.346933,-1
493,494,1583935456568,3.9908997999999998,2.9046,-6.1535997,2.3235822,12.080146000000001,-6.390201,-1
494,495,1583935456578,4.4581,2.3313,-6.2483997,2.6178967999999996,11.274909,-6.335967,-1
495,496,1583935456588,4.8122,1.5167999,-6.2595997,2.7434967,10.151196,-6.201442,-1
496,497,1583935456598,5.0076,0.3354,-6.1446,2.6845417,8.828063,-5.6039453,-1
497,498,1583935456608,5.0365996,-0.9468,-5.5102997,2.3441246,7.158653299999999,-4.3421817,-1
498,499,1583935456619,4.8795,-2.319,-4.549299700000001,1.7795813999999999,5.9891624000000006,-3.3522654000000003,-1
499,500,1583935456629,4.2994,-3.702,-3.3932,0.676362,4.3774724,-2.0565617,-1
500,501,1583935456639,3.0674,-6.0360000000000005,-2.1669,0.014077906000000001,3.267415,-1.6892146000000001,-1
501,502,1583935456650,2.537,-6.9627,-2.2277,-0.7116524999999999,2.2829864,-1.6802124,-1
502,503,1583935456660,1.7543,-7.6723,-2.4587,-1.8762593,1.3933008999999998,-1.8288732,-1
503,504,1583935456670,0.8534,-8.0582,-2.3093998,-2.7257027999999996,1.0607176,-1.6221195,-1
504,505,1583935456680,0.085,-8.6417,-1.7871,-3.8761072,0.27643454,-0.8742284,-1
505,506,1583935456691,-1.1156,-9.1411,-1.033,-5.2413,-0.28587726,0.0011109096,-1
506,507,1583935456701,-2.204,-9.6865,-0.1435,-6.2968845,-0.84946275,1.0605452,-1
507,508,1583935456711,-2.3262,-9.8905,0.96169996,-6.2681346,-1.0301197,2.3007223999999997,-1
508,509,1583935456721,-1.9167999,-9.991199499999999,2.4157999,-5.861322,-1.1505193,3.9921017,-1
509,510,1583935456731,-1.2336999,-9.898399000000001,4.2244,-5.121475,-0.99225295,5.889151999999999,-1
510,511,1583935456741,-0.80009997,-9.4739,5.6642,-4.7750154,-0.5242919,7.2774057,-1
511,512,1583935456752,-0.58849996,-9.0107,6.3059998,-4.2608557000000005,0.0017238251999999999,7.798690299999999,-1
512,513,1583935456762,-0.036399997999999996,-8.6749,6.1243,-3.8767104,0.34736994,7.5675735,-1
513,514,1583935456772,-0.0618,-8.2877,6.0456,-3.9741163,0.719879,7.704244,-1
514,515,1583935456782,-0.26,-8.1013,6.3157997,-3.9884431000000005,0.89502925,7.911132,-1
515,516,1583935456792,0.2085,-7.6558,6.3831997000000005,-3.1097903,1.6652153000000003,8.007014999999999,-1
516,517,1583935456802,0.98719996,-6.8441,6.7272997000000005,-2.3645806,2.4640262,8.497999,-1
517,518,1583935456813,1.4422,-6.0663,7.5332,-1.8961023999999997,3.3673203000000003,9.365993,-1
518,519,1583935456823,1.6340000000000001,-5.1155,8.3035,-1.6715741999999998,4.4059824999999995,9.888695,-1
519,520,1583935456833,1.7991999,-4.2859,8.562799,-1.1690505,5.286857,9.871638,-1
520,521,1583935456843,2.6701,-3.1364,8.2915,0.23532128,6.641975,9.252373,-1
521,522,1583935456853,4.5499997,-1.7736,7.307699700000001,2.5352007999999997,8.129684,8.057361,-1
522,523,1583935456863,6.5752997,-0.1823,6.5302,4.235841000000001,9.745214,7.5571923,-1
523,524,1583935456874,6.9498997000000005,1.0164,6.5931997,3.6451147000000006,10.906632,7.858181500000001,-1
524,525,1583935456884,5.7214,1.8535,7.152199700000001,2.1746821,11.712050999999999,8.387042,-1
525,526,1583935456894,4.0471,2.501,7.5941,0.70947856,12.296553,8.536584,-1
526,527,1583935456904,2.8028,3.0516,7.6295,-0.020638019,12.84132,8.258416,-1
527,528,1583935456914,2.1982,3.5605998,7.2167997,-0.031182082000000003,13.341104500000002,7.796564599999999,-1
528,529,1583935456925,2.7035,4.3599,7.0242996,1.2069266,14.427546,8.080536,-1
529,530,1583935456935,3.7523,5.1772,7.4768,2.2494676,15.05609,8.349061,-1
530,531,1583935456945,4.8961,5.936899700000001,7.8265996,3.8771605000000005,16.050499,8.754589999999999,-1
531,532,1583935456955,5.9951,6.6222997,8.0661,4.3619294,16.32924,8.81864,-1
532,533,1583935456965,5.6768,6.7152996,7.9651,3.6822727,16.4361,8.533835,-1
533,534,1583935456975,4.1656,6.7545,7.4009,1.5993267,16.348902,7.196625699999999,-1
534,535,1583935456986,2.3255,6.531399700000001,5.6159,0.27732515,16.109223999999998,4.7771697,-1
535,536,1583935456996,1.2365999,6.3188,3.237,-0.26728866,16.014307000000002,2.3473903999999997,-1
536,537,1583935457006,0.96279997,6.3518996,0.9831,-0.22915384,16.026365,0.2131893,-1
537,538,1583935457016,0.90919995,6.2585998,-0.3592,0.08819281,15.918367000000002,0.0016663644,-1
538,539,1583935457026,1.1583999,6.1478,-0.26729998,0.51286674,15.912918,0.72223485,-1
539,540,1583935457037,1.3962,6.1377,0.3947,0.27111942,15.736101000000001,1.124365,-1
540,541,1583935457047,0.9219,5.9245996,0.75369996,-0.27126306,15.6365595,1.1930116000000002,-1
541,542,1583935457057,0.34059998,5.8409,0.61899996,-0.76382697,15.437304500000002,0.38817670000000004,-1
542,543,1583935457067,-0.1845,5.6103997,-0.281,-0.67146826,15.245854999999999,-0.7107044,-1
543,544,1583935457077,-0.0016999998999999999,5.3993998,-1.3072,-0.06808152,15.062229,-1.6334201000000002,-1
544,545,1583935457087,0.6275,5.2764997000000005,-2.1043,0.9988035,15.215353,-2.319196,-1
545,546,1583935457098,1.7023,5.4385,-2.7307,1.9223523999999999,15.287092999999999,-3.2731993,-1
546,547,1583935457108,2.4945,5.4742,-3.6443,2.1768080000000003,15.252702,-4.5098139999999995,-1
547,548,1583935457118,2.5151,5.3842,-4.9048,1.4121385,14.833832000000001,-6.675551400000001,-1
548,549,1583935457128,1.7394999,4.9442997,-7.0087,0.95035446,14.507933999999999,-9.319497,-1
549,550,1583935457138,1.4423,4.7042,-9.04,0.61364347,13.953876500000002,-10.939883,-1
550,551,1583935457149,1.1515,4.1628,-10.5056,0.50336653,13.484403,-11.398105000000001,-1
551,552,1583935457159,0.98719996,3.1768,-10.102099,0.37207809999999997,12.948399,-10.719051,-1
552,553,1583935457169,0.74009997,2.602,-9.119599000000001,0.08872912,12.376231,-9.757962,-1
553,554,1583935457179,0.74009997,2.602,-9.119599000000001,0.043105207,11.804113000000001,-8.927873,-1
554,555,1583935457190,0.73139995,2.0358999,-8.2977,0.021260511,11.242931,-8.417093,-1
555,556,1583935457200,0.7614,1.4705,-7.7839,0.15809393,10.461101,-8.533471,-1
556,557,1583935457210,1.0468998999999999,0.12969999,-8.1324,0.13320379999999998,9.746853,-8.82815,-1
557,558,1583935457220,1.0055,-0.48709998,-8.276899,-0.022993912999999998,9.057256,-8.951241,-1
558,559,1583935457230,0.8578,-1.2195,-8.2553,-0.38040993,8.249299,-8.909044999999999,-1
559,560,1583935457240,0.45049998,-2.0485,-8.025,-0.8533318000000001,7.517515700000001,-8.671147,-1
560,561,1583935457251,0.1275,-2.8186,-7.707000000000001,-1.2784845,6.7265863,-8.401876,-1
561,562,1583935457261,-0.2464,-3.5212998,-7.8886,-1.7493953000000002,6.0595713,-8.652156,-1
562,563,1583935457271,-0.3554,-4.001,-8.177,-1.828356,5.577417400000001,-8.912675,-1
563,564,1583935457282,-0.3554,-4.001,-8.177,-1.47773,5.118114,-8.949698,-1
564,565,1583935457292,-0.0526,-4.4216,-8.3266,-1.135225,4.9171059999999995,-8.558879,-1
565,566,1583935457302,0.76519996,-4.7637,-7.5733,-0.68070024,4.9224215,-7.852359,-1
566,567,1583935457312,1.1135,-4.7372,-6.8385997000000005,-0.47427222,4.954359999999999,-7.1460214,-1
567,568,1583935457322,1.2997999,-4.574,-5.9410996,-0.29553068,5.1476393,-6.176254699999999,-1
568,569,1583935457332,1.4265,-4.2531,-5.1826,-0.19409314,5.422781,-5.553763,-1
569,570,1583935457342,1.4388,-3.8327,-4.7581997000000005,-0.27127263,6.0561333,-4.870524400000001,-1
570,571,1583935457353,1.0055,-3.4398,-4.3417997,-1.034209,6.3421636,-4.550439,-1
571,572,1583935457362,0.0075999996999999994,-3.1144,-4.1138,-1.7870703999999997,6.662172999999999,-4.315184599999999,-1
572,573,1583935457372,-0.5916,-2.6617,-3.5711,-2.4297795,7.1167836,-3.7081682999999996,-1
573,574,1583935457382,-1.0525,-2.4359,-3.1503,-2.7626022999999997,7.2784114,-3.3353144999999995,-1
574,575,1583935457392,-1.1934999,-2.2614,-2.5135999,-2.702814,7.506818300000001,-2.5435807999999995,-1
575,576,1583935457402,-1.1934999,-2.2614,-2.5135999,-2.2158816000000003,7.708946000000001,-1.9454900000000002,-1
576,577,1583935457413,-0.3187,-1.8519999999999999,-1.3284,-1.7192953999999998,7.939632400000001,-1.4625700000000001,-1
577,578,1583935457423,-0.091199994,-1.5194,-0.69659996,-1.5824716,8.169409,-1.0118471,-1
578,579,1583935457433,-0.0101,-1.0604,0.3978,-1.3916058999999998,8.866649,0.6710181,-1
579,580,1583935457443,-0.0030999999,-0.51339996,1.7737,-1.2795954999999999,9.556428,2.283647,-1
580,581,1583935457454,0.12539999,0.063,3.0175998,-0.83679265,10.030671,3.1757076,-1
581,582,1583935457464,0.9393,0.5904,3.9322998999999994,0.29846117,10.530044,3.8373977999999997,-1
582,583,1583935457474,2.1924,0.9808,4.1412997,2.2004533,11.039271000000001,3.719239,-1
583,584,1583935457484,3.7723,1.5099,3.8123998999999995,3.77579,11.649208999999999,3.0101723999999996,-1
584,585,1583935457494,5.0218997000000005,2.1492999,3.0484998,4.493514,12.163511,2.4359853,-1
585,586,1583935457505,5.1499,2.5758997999999997,2.8553,3.9230049,12.496966,2.5907562,-1
586,587,1583935457514,4.0382,2.7696,3.3479,2.6639037,12.593558,3.2932627,-1
587,588,1583935457524,2.888,2.8567,4.0632,2.0814135,12.653797,3.6851741999999996,-1
588,589,1583935457534,2.4694,2.9145,4.415,2.024853,12.714245,3.9198349,-1
589,590,1583935457544,2.5669999999999997,2.8932998,4.4902997000000004,2.1400142000000004,12.5894785,3.8986607,-1
590,591,1583935457554,2.6413999,2.6457999,4.513,2.322213,12.243219,3.9704292000000003,-1
591,592,1583935457565,2.7651,2.2802,4.5819,2.5048618,11.849718,4.0699034,-1
592,593,1583935457575,2.8832998,1.9438,4.6512,2.5298955000000003,11.599486,4.1866064,-1
593,594,1583935457585,2.8009999,1.735,4.7422,2.626468,11.483913000000001,4.271256,-1
594,595,1583935457597,2.978,1.6832,4.7981,2.8811152,11.473311,4.336541,-1
595,596,1583935457607,3.1011,1.6709,4.7836,2.8541949,11.427764,4.209811,-1
596,597,1583935457617,2.9973,1.6003,4.5948,2.496913,11.257057000000001,4.055662600000001,-1
597,598,1583935457627,2.5811,1.4027,4.4504,1.9939008000000003,10.977414999999999,3.944112,-1
598,599,1583935457638,2.0681998999999998,1.1077,4.2559,1.2197021000000001,10.6008835,3.4790144,-1
599,600,1583935457648,1.3965,0.7937,3.8562,0.6863889,10.369201,3.0299964,-1
600,601,1583935457658,0.7288,0.48009998,3.2691998,0.07015968,9.977739999999999,2.3349884,-1
601,602,1583935457668,0.1884,0.0883,2.5807,-0.12043792,9.646947,1.5910236999999998,-1
602,603,1583935457678,0.095199995,-0.1563,1.9913,-0.2504239,9.465677000000001,1.1681788,-1
603,604,1583935457689,-0.3021,-0.49969998,1.3922,-0.50828904,9.3061,1.0015616,-1
604,605,1583935457699,-0.3021,-0.49969998,1.3922,-0.6080601999999999,9.263271000000001,1.1682553999999998,-1
605,606,1583935457709,-0.41099998,-0.5397,1.5445,-0.5588354,9.253542,1.250731,-1
606,607,1583935457719,-0.24659999,-0.5419,1.5735999,-0.40150762,9.2700615,1.2380513000000002,-1
607,608,1583935457729,-0.0687,-0.51339996,1.4189,-0.19608511,9.294435,1.0920433,-1
608,609,1583935457739,0.1363,-0.42589998,1.3569,0.06353254,9.381564,1.0460361999999999,-1
609,610,1583935457750,0.2349,-0.4166,1.2612,0.18888336,9.393948,0.96647215,-1
610,611,1583935457760,0.2349,-0.4166,1.2612,0.32782367,9.428155,0.6321746,-1
611,612,1583935457770,0.22399999,-0.3182,0.5987,0.16385916,9.485626,0.21154208,-1
612,613,1583935457780,-0.0876,-0.3371,0.3448,-0.17612706,9.473989999999999,-0.023846247999999997,-1
613,614,1583935457790,-0.4134,-0.3362,0.2628,-0.47634079999999995,9.482035,-0.16028702,-1
614,615,1583935457800,-0.49469998,-0.27629998,0.0053999997,-0.5019683,9.544609,-0.47352520000000003,-1
615,616,1583935457811,-0.396,-0.1381,-0.24689999,-0.3650583,9.702416,-0.6991451999999999,-1
616,617,1583935457821,-0.2572,0.0389,-0.363,-0.21098663,9.875823,-0.8151778000000001,-1
617,618,1583935457831,-0.047799997000000004,0.17629999,-0.44149998,0.07430644,9.997314,-0.9080728000000001,-1
618,619,1583935457841,0.25349998,0.2153,-0.48029998,0.38973773,10.048053,-0.89627415,-1
619,620,1583935457852,0.3757,0.22479999,-0.3493,0.53693324,10.049269,-0.6740731,-1
620,621,1583935457862,0.4687,0.2735,-0.183,0.67571074,10.081466,-0.5465770999999999,-1
621,622,1583935457872,0.5536,0.31239998,-0.0479,0.7624479000000001,10.116057000000001,-0.34905544,-1
622,623,1583935457882,0.54499996,0.31219998,0.15529999,0.7746679,10.145313999999999,-0.13121182,-1
623,624,1583935457892,0.5719,0.361,0.2137,0.7882956999999999,10.172656,-0.11696154,-1
624,625,1583935457902,0.5076,0.3805,0.25779998,0.75448,10.228135,-0.023080105,-1
625,626,1583935457913,0.42139998,0.4393,0.2993,0.602927,10.266347,-0.045987825999999996,-1
626,627,1583935457923,0.2536,0.45899999999999996,0.1047,0.49018884,10.253264,-0.31465557,-1
627,628,1583935457933,0.2269,0.4495,-0.1303,0.47055640000000004,10.229714,-0.6151758,-1
628,629,1583935457943,0.154,0.391,-0.4084,0.30736762,10.134158,-0.8249270000000001,-1
629,630,1583935457954,-0.024699999,0.313,-0.4692,0.046466667,10.093294,-0.8610411,-1
630,631,1583935457964,-0.311,0.2251,-0.5033,-0.21469286,9.976313000000001,-0.9109171,-1
631,632,1583935457974,-0.5606,0.1371,-0.6195,-0.4165911,9.918928999999999,-1.0811545,-1
632,633,1583935457984,-0.64919996,0.0589,-0.8296,-0.38720945,9.912589,-1.307215,d
633,634,1583935457994,-0.53889996,0.1178,-1.0185,-0.22381955,9.9309,-1.4920473,-1
634,635,1583935458004,-0.3849,0.117699996,-1.1367999,0.057499148,9.946634,-1.4464521000000001,-1
635,636,1583935458014,-0.057299998,0.1665,-1.0169,0.39946777,9.992325,-1.2428876,-1
636,637,1583935458025,0.1716,0.19559999,-0.79469997,0.49577212,10.020673,-0.9678704,-1
637,638,1583935458035,0.1478,0.2245,-0.401,0.43293869999999995,10.008635,-0.41632295,-1
638,639,1583935458045,0.0964,0.175,0.0092,0.39760029999999996,9.983505000000001,-0.047280695,-1
639,640,1583935458055,0.0949,0.17459999,0.332,0.45825022,9.972980499999998,0.26382187,-1
640,641,1583935458065,0.084699996,0.12529999,0.55149996,0.35653493,9.884146000000001,0.41975144,-1
641,642,1583935458075,-0.0011,0.0565,0.6105,0.38624218,9.863307,0.41238686,-1
642,643,1583935458085,0.061699998,0.027099999,0.56,0.43685559999999996,9.79217,0.29288748,-1
643,644,1583935458096,0.0585,-0.0316,0.4005,0.32920274,9.681041,0.17108966,-1
644,645,1583935458106,-0.0501,-0.14919999,0.3256,0.29030177,9.671607,0.07462248,-1
645,646,1583935458116,-0.0115,-0.1294,0.1864,0.47384125,9.738319,-0.08566453,-1
646,647,1583935458126,0.1644,-0.0409,0.0901,0.6435327,9.8308325,-0.22137748,-1
647,648,1583935458136,0.3029,0.0279,-0.0128999995,0.6848662,9.864839,-0.27230692,-1
648,649,1583935458146,0.3372,0.0673,-0.0455,0.60197896,9.821829,-0.3475998,-1
649,650,1583935458156,0.2181,-0.0109,-0.1065,0.3992571,9.760164,-0.391021,-1
650,651,1583935458167,-0.016099999,-0.0009999999,-0.13949999,0.23733243,9.863258,-0.45876735,-1
651,652,1583935458177,-0.085,0.0578,-0.1752,0.27021918,9.923248,-0.49184564,-1
652,653,1583935458187,0.0,0.1265,-0.19469999,0.42523897,10.00287,-0.48522806,-1
653,654,1583935458197,0.1396,0.2148,-0.17109999,0.43675986,10.135202,-0.30834445,-1
654,655,1583935458207,0.0993,0.3617,0.047399998,0.23833800000000002,10.287502,-0.025866956,-1
655,656,1583935458217,-0.17629999,0.5578,0.38599998,0.09368032,10.568810000000001,0.3035369,-1
656,657,1583935458228,-0.1644,0.82229996,0.5843,0.5363874,10.924292,0.57767296,-1
657,658,1583935458238,0.30089998,1.2047,0.87479997,0.89352566,11.322965,0.9395996999999999,-1
658,659,1583935458248,0.5674,1.6067,1.2666,1.0450306999999999,11.784835000000001,1.7657046000000003,-1
659,660,1583935458258,0.67969996,1.9792,1.9280000000000002,1.3409444,12.186687,2.3068516,-1
660,661,1583935458268,0.96339995,2.3811,2.4338999,1.6750314,12.625342999999999,2.5526214,-1
661,662,1583935458279,1.2829,2.8223,2.6525,1.8507946,12.944347,2.6152153,-1
662,663,1583935458289,1.4739,3.2239999999999998,2.7317,1.7295904,13.368580999999999,2.8705997,-1
663,664,1583935458299,1.425,3.8009,3.0679998,1.7623048,13.613048000000001,3.0102012000000005,-1
664,665,1583935458309,1.425,3.8009,3.0679998,2.1607093999999996,13.751002,3.006696,-1
665,666,1583935458319,2.2677,4.0245,3.0115,2.5520465,13.828967,2.9823419999999996,-1
666,667,1583935458330,2.5223,3.9155998,3.023,2.757833,13.70396,3.0285884999999997,-1
667,668,1583935458340,2.5223,3.9155998,3.023,2.5014236,13.572921,3.213737,-1
668,669,1583935458350,1.7156999,3.5409,3.3937,1.7029381999999997,13.329670000000002,3.420328,-1
669,670,1583935458360,1.0385,3.5795,3.1394,0.92806923,13.417585,3.036499,-1
670,671,1583935458371,0.3911,3.5795,2.6165,0.14462894,13.407454000000001,2.4135467999999998,-1
671,672,1583935458381,0.1021,3.7373998,1.9187,-0.061387334,13.606909,1.6254523,-1
672,673,1583935458391,0.1741,3.8667998,1.0181999,-0.02186385,13.732154000000001,0.6909858,-1
673,674,1583935458402,0.4465,4.0752997,0.27449998,0.16616717,13.922331,0.098928414,-1
674,675,1583935458413,0.5945,4.088,-0.0583,0.17286135,13.872302,-0.16991171,-1
675,676,1583935458423,0.5945,4.088,-0.0583,0.07247727,13.676006,0.03169923,-1
676,677,1583935458433,0.54039997,3.6929998,0.4375,-0.031335313,13.397185999999998,0.55616343,-1
677,678,1583935458443,0.6258,3.57,0.6217,0.071318485,13.336834,0.6499683,-1
678,679,1583935458454,0.88189995,3.4873,0.6095,0.19807708,13.250077,0.7041443000000001,-1
679,680,1583935458464,0.8718,3.3767998,0.6802,-0.1341136,12.97688,1.0256377,-1
680,681,1583935458474,0.62729996,3.0231,0.9924,-0.5762173,12.447503,1.2837326999999998,-1
681,682,1583935458484,0.0953,2.4259,1.2332,-1.4944893999999997,11.766927,1.8076607,-1
682,683,1583935458495,-0.7676,1.7025,1.8348,-2.4105206000000003,10.969332000000001,2.4704618,-1
683,684,1583935458505,-1.4307,1.0481,2.4682,-2.661634,10.700942,2.8733866000000003,-1
684,685,1583935458515,-0.9309999999999999,0.88269997,2.6799,-1.5500828000000002,10.492569,2.5021229,-1
685,686,1583935458525,0.162,0.7058,1.8556999,-0.70718014,10.310074,1.249486,-1
686,687,1583935458535,1.0532,0.50879997,0.5194,-0.15818012,9.977874,-0.14479175,-1
687,688,1583935458545,1.2768999,0.018099999,-0.73219997,-0.81275487,9.089827,-1.4675595,-1
688,689,1583935458556,0.5918,-0.75549996,-1.6358999,-1.7089621,8.344062,-1.7897328000000001,-1
689,690,1583935458566,-0.2626,-1.4604,-1.7493999,-2.5407078,7.7987003,-1.4621677,-1
690,691,1583935458576,-1.1962,-2.1762,-1.1438999,-3.2242043,6.905461999999999,-0.5878244,-1
691,692,1583935458586,-1.453,-2.8364,-0.46159998,-2.9109855,6.701945299999999,-0.3314437,-1
692,693,1583935458596,-0.89339995,-3.0405,-0.37809998,-2.0666175,6.461098000000001,-0.6471335,-1
693,694,1583935458606,0.1735,-3.2289,-0.85789996,-0.73136157,6.3060493,-1.6821085999999998,-1
694,695,1583935458617,1.2056,-3.3808,-1.851,0.49762046,6.5142875,-2.8299081000000004,-1
695,696,1583935458627,2.4220998,-3.0914998,-2.97,1.4189285,6.628385499999999,-3.4472482,-1
696,697,1583935458637,3.1313999,-3.0746999,-3.3581,1.4360231,6.53777,-3.2671468,-1
697,698,1583935458647,2.9678,-3.1311998,-2.9694,0.8554674000000001,6.382261799999999,-2.3074837,-1
698,699,1583935458657,2.4362,-3.3583,-1.9933,0.049320555999999995,5.997887,-1.1860684,-1
699,700,1583935458668,1.6607,-3.7068,-0.8725,-0.98196745,5.7127376,-0.37950012,-1
700,701,1583935458678,0.71029997,-3.9719,-0.1651,-2.0332421999999997,5.5537243,-0.27418400000000004,-1
701,702,1583935458688,-0.20179999,-4.0864,-0.17889999,-2.741361,5.375826,-1.282459,-1
702,703,1583935458698,-0.62939996,-4.2098,-1.0033,-2.6980453,5.626604,-2.4684985,-1
703,704,1583935458708,-0.49609998,-3.9331,-2.1006,-2.4833903,5.94691,-3.3307463999999998,-1
704,705,1583935458718,-0.12,-3.5228,-3.0934,-2.0033529999999997,6.35265,-4.09555,-1
705,706,1583935458728,0.36249998,-3.1173,-3.6636,-1.8565884999999998,6.6966777,-4.172758,-1
706,707,1583935458738,0.46829998,-2.7654,-3.5282998,-1.9242294999999998,6.866369199999999,-3.1892009999999997,-1
707,708,1583935458748,0.4113,-2.6225998,-2.3077,-2.2456367000000004,6.9703445,-1.5342427,-1
708,709,1583935458758,0.0197,-2.5402,-0.69949996,-2.9261935,6.9549356,-0.2502228,-1
709,710,1583935458769,-0.5306,-2.5565,0.2574,-3.1966900000000003,7.052188,-0.11181880000000001,-1
710,711,1583935458778,-0.79359996,-2.4559999,0.3954,-3.0361927000000004,7.358866,-0.8480741,-1
711,712,1583935458788,-0.6347,-2.1411,-0.3272,-2.5794556,7.565036,-1.5718413999999998,-1
712,713,1583935458799,-0.012,-1.8661,-1.2004,-1.8338053,7.85573,-2.310213,-1
713,714,1583935458809,0.9248,-1.6281999,-1.9425,-1.4696951,7.880007300000001,-2.5522957,-1
714,715,1583935458820,0.7697,-1.6144999,-1.3091999,-1.6451901000000002,7.890944,-1.9254361,-1
715,716,1583935458830,0.5529999999999999,-1.7368,-0.5769,-1.9497517,7.7311835,-1.0848799,-1
716,717,1583935458840,0.1707,-1.7215999,-0.091,-2.2723560000000003,7.758448599999999,-0.72687006,-1
717,718,1583935458850,0.1707,-1.7215999,-0.091,-2.5632803,7.9020724,-0.63631177,-1
718,719,1583935458861,-0.2096,-1.3022,-0.2882,-2.6963882000000003,8.232223,-1.0536786,-1
719,720,1583935458871,-0.22129999,-1.105,-0.7363,-2.6927586,8.413972,-1.4846157,-1
720,721,1583935458881,-0.221,-0.85099995,-0.9813,-2.6539438,8.675218,-1.7211245,-1
721,722,1583935458891,-0.0209,-0.6875,-0.9209,-2.420624,8.812453,-1.5716976,-1
722,723,1583935458902,0.1953,-0.5845,-0.4118,-2.154255,8.928188,-1.0034290000000001,-1
723,724,1583935458912,0.4807,-0.5507,0.1477,-1.8719592,8.918631,-0.47705907,-1
724,725,1583935458922,0.6325,-0.6827,0.4615,-1.7422798,8.844783999999999,-0.17300501,-1
725,726,1583935458932,0.6326,-0.58739996,0.5748,-1.7725136000000001,8.973583,-0.14998238,-1
726,727,1583935458942,0.52959996,-0.45099998,0.3929,-1.9033137999999998,9.087786,-0.46319184,-1
727,728,1583935458953,0.34219998,-0.39139998,0.0436,-2.0536313,9.11553,-0.7203195,-1
728,729,1583935458963,0.2452,-0.3505,-0.0949,-2.150558,9.164755,-0.8646133,-1
729,730,1583935458973,0.1776,-0.29,-0.124699995,-2.2283123,9.223239999999999,-0.89130384,d
730,731,1583935458983,0.0695,-0.27879998,-0.107099995,-2.342439,9.203886,-0.8445882,-1
731,732,1583935458993,-0.0211,-0.2978,-0.043199997000000004,-2.3557124,9.168002,-0.83807594,-1
732,733,1583935459003,0.0815,-0.3373,-0.1476,-2.2805443,9.137652000000001,-1.0077099,-1
733,734,1583935459013,0.015199998999999999,-0.30859998,-0.2914,-2.361296,9.238132,-1.1360871000000001,-1
734,735,1583935459024,0.025999999,-0.1529,-0.3381,-2.2452726000000003,9.420763,-1.1503469,-1
735,736,1583935459034,0.20189999,0.0023,-0.35700000000000004,-2.0753899,9.529881,-1.240436,-1
736,737,1583935459044,0.3177,0.0689,-0.4454,-1.9468403000000003,9.609034,-1.2805723,-1
737,738,1583935459054,0.4041,0.1256,-0.3883,-1.9217682,9.636325999999999,-1.1350431,-1
738,739,1583935459064,0.3841,0.17279999,-0.20459999,-1.8559756,9.701651,-0.9341026,-1
739,740,1583935459074,0.49379998,0.2305,-0.0098,-1.7598339,9.750684,-0.8985247,-1
740,741,1583935459084,0.5282,0.29909998,-0.016999999,-1.7933624,9.866744,-0.9287108000000001,-1
741,742,1583935459094,0.303,0.4184,-0.1863,-2.1376965,9.947563,-1.2317690000000001,-1
742,743,1583935459104,-0.0638,0.45119998,-0.5286,-2.670052,10.064553,-1.6193231000000001,-1
743,744,1583935459114,-0.5545,0.6419,-0.81079996,-3.0845938,10.216078,-1.9675453999999999,-1
744,745,1583935459125,-0.84919995,0.78349996,-1.1719998999999999,-3.1827080000000003,10.409433,-2.4365885,-1
745,746,1583935459135,-0.7962,1.0217999,-1.6629,-2.8787594,10.657387,-2.9595015,-1
746,747,1583935459145,-0.4369,1.2282,-2.0908,-2.3712077000000003,10.897363,-3.250416,-1
747,748,1583935459155,0.1823,1.5012,-2.2924,-1.7910448,11.110427,-3.2606439999999997,-1
748,749,1583935459165,0.5866,1.6948999,-2.2393,-1.6896839,11.298506,-3.1780252,-1
749,750,1583935459176,0.65239996,1.8597,-2.1638,-1.5453806,11.460305,-3.0585928,-1
750,751,1583935459186,0.78099996,1.9761,-2.1202,-1.398367,11.493289,-3.2534422999999997,-1
751,752,1583935459196,1.0117999,2.0349998,-2.4164999,-1.1211281000000002,11.636892,-3.5811224000000004,-1
752,753,1583935459206,1.3102,2.2141,-2.8072999,-0.8001421999999999,11.764753,-4.1111603,-1
753,754,1583935459216,1.5656999,2.2853,-3.2680000000000002,-0.66215956,11.76957,-4.53366,-1
754,755,1583935459226,1.7693,2.2433999,-3.7635998999999996,-0.4347965999999999,11.566427000000001,-4.842177400000001,-1
755,756,1583935459237,1.9856,2.0477,-3.8581998,-0.47112143,11.277773,-4.619066,-1
756,757,1583935459247,1.9423,1.7183,-3.6144,-0.91766876,10.735764,-4.293263,-1
757,758,1583935459257,1.4620999,1.1868,-3.2854997999999997,-1.5000536,10.147729,-4.135026,-1
758,759,1583935459267,1.0201,0.5994,-3.182,-1.8096813000000003,9.558419,-4.185859,-1
759,760,1583935459277,0.8443,0.0526,-3.3014997999999998,-1.7209903999999998,9.094787,-4.4917045,-1
760,761,1583935459288,1.0677,-0.3861,-3.6234998999999997,-1.5355835,8.528233,-4.8101425,-1
761,762,1583935459298,1.3572999,-0.9424,-3.9441998,-1.1682746000000002,7.9899397,-5.2997190000000005,-1
762,763,1583935459308,1.7630999,-1.4398999,-4.491699700000001,-1.1222103,7.561664599999999,-5.958919,-1
763,764,1583935459318,1.8463999,-1.8291,-5.1042,-1.1973115,7.124771000000001,-5.560121499999999,-1
764,765,1583935459328,1.8449999,-2.1692998,-4.6467,-1.8280592,6.693278299999999,-4.330824,-1
765,766,1583935459339,1.3090000000000002,-2.5781,-3.4684,-2.8504121,6.179932599999999,-3.0374757999999997,-1
766,767,1583935459349,0.36319998,-3.0649998,-2.2379,-3.5861117999999994,5.8328595000000005,-2.087466,-1
767,768,1583935459359,-0.9086,-3.8753,-0.2154,-4.274244,5.325126,-0.88943636,-1
768,769,1583935459369,-0.7719,-4.0045,0.0072999996999999995,-4.198817,5.177997599999999,-0.6047945,-1
769,770,1583935459380,-0.2263,-4.156399700000001,-0.4874,-3.6966474000000002,5.009991599999999,-1.0642513,-1
770,771,1583935459390,0.2913,-4.3594,-1.2857,-3.2160354,4.7975683,-1.8438896,-1
771,772,1583935459400,0.6583,-4.5538,-1.9178,-2.866702,4.553283,-2.4464047000000004,-1
772,773,1583935459410,0.6232,-4.8175,-1.4747,-2.958946,4.3114685999999995,-1.9657639999999998,-1
773,774,1583935459421,0.2737,-5.2290998,-0.31509998,-3.4446626000000005,3.7943404000000003,-0.50089574,-1
774,775,1583935459431,0.2737,-5.2290998,-0.31509998,-3.9637252999999997,3.4963867999999994,0.46647668,-1
775,776,1583935459442,-0.972,-6.0586,1.7515,-4.747482,2.9340653,1.5840805,-1
776,777,1583935459452,-1.2221999,-6.5920997,2.0557,-4.6966386,2.3746076,1.848295,-1
777,778,1583935459462,-0.51809996,-6.8314,1.8650999,-3.694943,2.3021305,1.6870216,-1
778,779,1583935459472,0.5527,-6.8645,1.8010999,-2.5566242000000003,2.2972653,1.7754729,-1
779,780,1583935459482,1.5784,-6.8634,2.1286,-1.7046046000000001,2.315672,2.3140056,-1
780,781,1583935459493,2.4231,-6.9410996,3.3688,-0.8711063,2.1444099999999997,4.179989,-1
781,782,1583935459503,2.3409998,-7.3581996,5.1102,-1.1919676000000001,1.6659238,6.0225573,-1
782,783,1583935459513,1.7739999,-7.83,6.7934,-1.6494613,1.28515,7.772814,-1
783,784,1583935459523,1.3,-8.1052,8.2116995,-1.9879153000000003,1.1700655,9.032049,-1
784,785,1583935459533,1.1234,-7.9823,9.040299000000001,-1.8248893,1.4858223999999998,9.916219,-1
785,786,1583935459544,1.5681,-7.6015997,9.726299000000001,-0.94909984,2.0278409,10.813632,-1
786,787,1583935459554,2.3102,-7.0021,10.311,-0.13174814,2.8107447999999997,11.283814999999999,-1
787,788,1583935459564,3.1471999,-5.7998,10.885099,0.81860626,4.160366000000001,12.00378,-1
788,789,1583935459574,3.6362997999999997,-4.393399700000001,11.584000000000001,1.2750177,5.974778,12.795877,-1
789,790,1583935459585,3.5981,-2.9571998,12.2112,1.1983937,7.305629,13.561523999999999,-1
790,791,1583935459595,3.1727,-1.7157999,13.0119,0.7331907,8.667394,14.467567,-1
791,792,1583935459605,2.4555,-0.33679998,13.8551,0.4080773,10.055035,14.658710500000002,-1
792,793,1583935459615,2.211,0.9618,13.408299,0.9276574000000001,11.3504505,13.188564999999999,-1
793,794,1583935459625,2.7912,2.2387,11.6558,2.143883,12.931925999999999,11.126497,-1
794,795,1583935459635,4.0385,3.8899,9.6257,4.7591944,15.085559,8.774395,-1
795,796,1583935459646,6.1896996,5.7049,7.8981,6.7442554999999995,16.583496,7.4225326,-1
796,797,1583935459656,8.2081995,7.4521,6.4975,8.63827,18.367693,6.1560864,-1
797,798,1583935459666,9.0927,8.779099,5.6742,8.41538,19.053095000000003,5.172615,-1
798,799,1583935459676,8.3708,9.2907,4.6993,7.108596,19.17565,3.7754550000000004,-1
799,800,1583935459686,6.8150997,9.3562,3.2867,5.709022,19.111045999999998,1.7053324,-1
800,801,1583935459696,5.391,9.248099,1.2208999,4.9705449999999995,18.867294,-0.1302733,-1
801,802,1583935459706,4.4158,8.906799000000001,-0.92209995,4.2421517,18.50625,-2.4991157000000004,-1
802,803,1583935459717,3.9189999999999996,8.6452,-2.5909,4.1793857,18.254734,-3.2219729999999998,-1
803,804,1583935459727,3.7194998,8.3841,-3.0851998,3.7164426,17.823107,-3.2696846,-1
804,805,1583935459737,3.1241,7.8873997000000005,-3.115,3.1515546000000003,17.126837,-3.1098475,-1
805,806,1583935459747,2.4882,7.1944,-2.9528,2.7238066,16.587201999999998,-2.9930298,-1
806,807,1583935459757,1.9305999,6.541,-3.0212998,2.4661042999999996,15.874572,-3.4023905,-1
807,808,1583935459767,1.8061999,5.9954996,-3.5469999999999997,2.7497215,15.543397,-3.8857415,-1
808,809,1583935459778,2.2154999,5.6064997000000005,-4.2513,3.241644,15.095241,-4.944879,-1
809,810,1583935459788,2.5266,5.2160997,-5.2528,3.3623019999999997,14.606813,-6.088235,-1
810,811,1583935459798,2.6094,4.6959,-6.4449997,3.2746263,13.738035,-7.730408000000001,-1
811,812,1583935459808,2.5649,3.9476998,-7.7662997,2.905019,12.89177,-8.901039,-1
812,813,1583935459819,1.7123,2.1443,-9.8488,2.2614193,11.943974,-10.013729,-1
813,814,1583935459830,0.7183,1.0918,-10.8006,1.1561695,10.892172,-11.089885,-1
814,815,1583935459840,-0.32439998,0.2376,-11.3588,-0.037416585,10.044039999999999,-11.742027,-1
815,816,1583935459850,-1.0275,-0.42839998,-11.467199,-0.85869485,9.366586,-11.948464,-1
816,817,1583935459860,-1.2254,-0.9661,-11.1514,-1.1631511,8.775774,-11.593749,-1
817,818,1583935459870,-1.0303999,-1.2193999,-10.7541,-0.9796116,8.521203,-11.272342,-1
818,819,1583935459881,-0.4019,-1.4144,-10.4551,-0.32462505,8.356894,-11.015032000000001,-1
819,820,1583935459891,0.3531,-1.6294999,-10.3667,0.3194152,8.121161,-10.921257,-1
820,821,1583935459901,0.862,-1.8155999,-10.1254,0.727301,7.933484599999999,-10.617471,-1
821,822,1583935459911,0.9457,-2.1492,-9.7123995,0.5776538,7.4974523,-10.037958999999999,-1
822,823,1583935459921,0.6064,-2.5807,-8.8041,0.21807347,7.143254,-8.9707575,-1
823,824,1583935459931,0.5733,-2.7863998,-7.7900996,0.18992724,6.9453397,-7.978744,-1
824,825,1583935459942,0.7425,-2.9721,-6.9879999999999995,0.31016403,6.814128,-7.2171199999999995,-1
825,826,1583935459952,1.005,-2.9413998,-6.4330997000000005,0.52790236,6.8455973,-6.679976,-1
826,827,1583935459962,1.429,-2.9396,-6.2012997,0.939456,6.8564476999999995,-6.408942700000001,-1
827,828,1583935459972,1.9768,-2.9275,-6.1650996,1.399478,6.847330599999999,-6.3994045,-1
828,829,1583935459982,2.131,-2.9638,-6.1995997,1.4254693999999999,6.7811356,-6.2118235,-1
829,830,1583935459992,2.1854,-3.0976,-5.8894,1.3793666,6.60973,-5.750815,-1
830,831,1583935460002,2.1568,-3.2015,-5.4736,1.3374107,6.586736,-5.3254895,-1
831,832,1583935460012,2.1023,-3.2164998,-4.7091,1.2284648,6.5732617,-4.165949299999999,-1
832,833,1583935460022,2.1295,-3.1718,-3.7608,1.2483176,6.605057,-3.131415,-1
833,834,1583935460033,2.2285,-3.1065998,-3.0145,1.3132101,6.591649,-2.4208732000000004,-1
834,835,1583935460043,2.2537,-3.3443,-2.4357,1.3579816,6.3319263,-1.5641893999999998,-1
835,836,1583935460053,2.4817,-3.5123,-1.4634,1.6893200000000002,6.120709400000001,-0.46699384,-1
836,837,1583935460063,2.9729,-3.7970998,-0.593,2.0660715,5.7617902999999995,0.51564395,-1
837,838,1583935460073,3.0061998,-4.3361998,0.4851,1.7842069999999999,5.141548,1.8233378,-1
838,839,1583935460083,2.2777998,-4.9732,1.6557,0.8191139000000001,4.489291000000001,3.0644345,-1
839,840,1583935460094,1.4771999,-5.4544997,2.8325999,0.33379003,4.232058,3.9868152,-1
840,841,1583935460104,1.3673999,-5.4287996,3.4082,0.3771825,4.244249,4.540690000000001,-1
841,842,1583935460114,1.5827,-5.5827,3.7322998,0.7320128,4.055385,5.11594,-1
842,843,1583935460124,1.9185,-5.6801996,4.258899700000001,1.1225263,3.8448772000000004,5.8984513,-1
843,844,1583935460134,2.2112,-5.9851,5.3753,1.3133441000000001,3.6089144,7.6015234,-1
844,845,1583935460145,2.3644,-6.0752,7.1204,1.564266,3.749157,9.082011999999999,-1
845,846,1583935460155,2.5537999,-5.8047,8.4261,1.868253,4.1284943,10.089961,-1
846,847,1583935460165,2.7317998,-5.4586997,9.0668,2.0395534,4.4460998,10.246983,-1
847,848,1583935460175,2.9757,-5.058,8.9838,2.7527862,5.1036816,9.780066,-1
848,849,1583935460185,3.725,-4.3761,8.4703,3.6291022000000006,5.687369,9.1192465,-1
849,850,1583935460195,4.3842998,-3.8616998,7.9842997,4.587060500000001,6.4523835,9.039653999999999,-1
850,851,1583935460205,5.1129,-3.1641998,8.1798,5.366526599999999,6.976311,9.119197999999999,-1
851,852,1583935460215,5.9189,-2.7014,8.474299,6.263404,7.2797136,9.67517,-1
852,853,1583935460225,6.6836996,-2.2359999999999998,9.254499000000001,6.7393713,7.871235,10.643711,-1
853,854,1583935460235,6.6011996,-1.7592,10.4127,6.163078,8.510917999999998,12.101741,-1
854,855,1583935460245,5.8318996,-1.1625,11.6058,5.50902,9.01323,12.680363,-1
855,856,1583935460255,5.0769,-0.4181,11.9797,5.249632,10.161067999999998,11.859277,-1
856,857,1583935460266,4.9245,0.5717,11.016399,5.731594,11.236303999999999,10.191379,-1
857,858,1583935460276,5.2798,1.6615,9.3783,6.0248647,12.028086,8.83062,-1
858,859,1583935460286,5.4382,2.5684,7.9883,6.068784,13.126326999999998,7.7829369999999995,-1
859,860,1583935460296,5.282,3.5191,7.3938,6.4915332999999995,13.8843975,7.361806,-1
860,861,1583935460306,5.6611,4.3082,7.1047997,7.2907557,14.61686,7.361192999999999,-1
861,862,1583935460316,6.225,4.975,7.1775,7.767154,14.915876999999998,7.4364669999999995,-1
862,863,1583935460327,6.4656,5.2338,7.2952,7.828982000000001,15.053495000000002,7.7233977,-1
863,864,1583935460336,6.2355,5.3476996,7.5491996,7.2872224,14.983182999999999,7.730015299999999,-1
864,865,1583935460346,5.4582,5.3749,7.4712996,7.129328999999999,15.308276000000001,7.4226384,-1
865,866,1583935460356,5.3030996,5.8322,6.764199700000001,7.060319,15.841455999999999,5.757892,-1
866,867,1583935460366,5.053499700000001,6.3388,5.2004,6.7440929999999994,16.306504999999998,4.102982,-1
867,868,1583935460376,4.5182,6.7648997,3.5228,5.905921,16.483686,2.2267895,-1
868,869,1583935460387,3.5565998999999997,6.9219,1.6078,5.327252,16.578314000000002,0.86334914,-1
869,870,1583935460397,2.8562999,7.0733,0.0425,4.6298404,16.557465,-1.0762223999999998,-1
870,871,1583935460407,2.2182999,6.9644,-1.5488,3.896458,16.349611,-2.4433787000000002,-1
871,872,1583935460417,1.4146999,6.7429,-2.8827999,2.8177648,15.78095,-3.9884047999999996,-1
872,873,1583935460427,0.3119,6.0866,-4.4188,2.0343628000000002,15.275017000000002,-5.2128477,-1
873,874,1583935460438,-0.37579998,5.6651998,-5.4934998,1.284968,14.812676000000002,-5.783079,-1
874,875,1583935460448,-1.171,5.1682997,-6.0169,0.7891959,14.369654999999998,-6.058518,-1
875,876,1583935460458,-1.5741,4.7107997,-6.3117,0.6819165,13.701001000000002,-6.370003,-1
876,877,1583935460468,-1.6135,4.0438,-6.745899700000001,1.4336958,13.073922,-6.9614954,-1
877,878,1583935460478,-0.9554,3.5667998999999995,-7.351,2.0775254000000003,12.395653999999999,-6.899964999999999,-1
878,879,1583935460488,-0.3572,2.8959,-7.416599799999999,2.5115943,11.923871,-6.440019599999999,-1
879,880,1583935460499,0.1092,2.3042,-6.943,2.7888618,11.07485,-5.476861,-1
880,881,1583935460509,0.3109,1.6042999,-6.239,3.1807256,10.672575,-4.581257,-1
881,882,1583935460519,1.0778999,0.8479,-4.2014,3.5748785000000005,10.287214,-3.1857247,-1
882,883,1583935460530,1.1688,0.62049997,-3.8583998999999998,3.6548160000000003,10.053253,-2.7478540000000002,-1
883,884,1583935460539,1.1688,0.62049997,-3.8583998999999998,3.6848389999999998,9.774856,-2.8513794,-1
884,885,1583935460549,1.2250999,0.34649998,-4.0284,3.7742292999999996,9.559855,-3.6225803,-1
885,886,1583935460559,1.0594,-0.2412,-5.4214,3.4299044999999997,9.203828,-4.218785,-1
886,887,1583935460569,0.6551,-0.5794,-5.4954,2.9699017999999997,8.8868265,-4.297046,-1
887,888,1583935460580,0.13329999,-0.93659997,-5.2967,2.3863008,8.535625999999999,-4.10484,-1
888,889,1583935460590,0.13329999,-0.93659997,-5.2967,1.7602842,8.276755,-3.5732502999999998,-1
889,890,1583935460600,-0.45209998,-1.2133,-4.7792,1.3574643999999998,8.152841,-3.087141,d
890,891,1583935460610,-1.1867,-1.4811,-3.8806,0.9525761999999999,8.017846,-2.6609924,-1
891,892,1583935460620,-1.6238999,-1.5304999,-3.2839,0.50209284,7.9696940000000005,-1.9414008000000003,-1
892,893,1583935460630,-1.2537999,-1.4089,-2.8281999,0.8737783000000001,8.088753,-1.5531473,-1
893,894,1583935460641,-1.2537999,-1.4089,-2.8281999,1.566009,8.293055,-1.3207088,-1
894,895,1583935460651,0.6375,-0.9032,-2.4717999,3.0029418,8.646018,-1.1222581,-1
895,896,1583935460661,1.3339,-0.7204,-2.1025999,3.5557727999999997,8.749447,-0.64309216,-1
896,897,1583935460672,1.2876999,-0.82629997,-1.3694,3.3830357,8.615267,0.116291165,-1
897,898,1583935460682,0.70699996,-1.0063,-0.5825,2.6234417000000003,8.39502,1.0353582000000001,-1
898,899,1583935460692,-0.2258,-1.2303,0.2602,1.6497773,8.241886000000001,1.7259896000000001,-1
899,900,1583935460702,-0.9601,-1.1925,0.59349996,1.0301579,8.353523,1.6921738000000002,-1
900,901,1583935460712,-1.1214,-1.0284,0.0459,1.0244405,8.554617,1.0559003,-1
901,902,1583935460723,-0.8994,-0.5694,-0.8290000000000001,1.2827654,9.013824000000001,0.045001414,-1
902,903,1583935460734,-0.65489995,-0.1574,-1.7100999,1.5526878,9.569672,-0.9752542,-1
903,904,1583935460744,-0.56229997,0.35529998,-2.0606,1.4832174999999999,10.098024,-1.1323903999999998,-1
904,905,1583935460754,-0.8849,0.88049996,-1.7969998999999999,1.1521376,10.751202000000001,-0.748437,-1
905,906,1583935460764,-1.0942,1.8008,-1.1679,1.0430291999999999,11.778495,-0.11999739,-1
906,907,1583935460774,-0.9377,2.9403,-0.5765,1.6067871,13.29234,0.53904974,-1
907,908,1583935460784,-0.2305,4.3083,0.021,2.5656552,14.632048999999999,1.1262516000000002,-1
908,909,1583935460795,0.72969997,5.638499700000001,0.53029996,3.5114703,15.908848,1.4748569999999999,-1
909,910,1583935460806,1.5705999,6.8399,0.81729996,4.0263480000000005,16.787281,1.6253183,-1
910,911,1583935460816,1.9009,7.8409,0.93509996,4.2591220000000005,18.091085,1.7461103999999998,-1
911,912,1583935460826,2.0404,8.738,1.0136,4.27908,18.885921,1.8805208999999998,-1
912,913,1583935460836,2.0779998,9.4725,1.1786,4.281915000000001,19.398933,2.093739,-1
913,914,1583935460846,2.2396,10.1528,1.446,4.5845037,20.133696,2.2573109000000002,-1
914,915,1583935460856,2.7586,10.7704,1.4715999,5.1720505,20.548925,2.2309747000000004,-1
915,916,1583935460867,3.3625,10.9922,1.412,5.4630895,20.586899,2.2012672,-1
916,917,1583935460877,3.7408,10.9067,1.3957,5.281264299999999,20.280716,2.3360991,-1
917,918,1583935460887,3.6211,10.5248995,1.5419999,4.5785849999999995,19.625432999999997,2.6550740000000004,-1
918,919,1583935460897,3.0607,9.7701,1.8439,3.6432947999999996,18.75923,2.918302,-1
919,920,1583935460907,2.3658,8.840799,2.0117,2.8912475,17.704662,2.7578619,-1
920,921,1583935460918,1.9276999,7.768399700000001,1.7771,2.5146396,16.659198999999997,2.499537,-1
921,922,1583935460928,1.8442999,6.6721997,1.4819,2.1354556000000002,15.546998,2.0067720000000002,-1
922,923,1583935460938,1.6782,5.5429,0.94549996,1.44854,14.328779999999998,1.5344151000000001,-1
923,924,1583935460948,1.1389999,4.3219,0.57589996,0.53813034,13.168798,1.7084352999999999,-1
924,925,1583935460958,0.46629998,3.1555998,0.7733,-0.28374165,11.867177,1.837952,-1
925,926,1583935460969,-0.072399996,1.7971,0.94449997,-0.15935807,10.412786,2.043911,-1
926,927,1583935460979,0.3196,0.6562,1.0821999,1.6159712,9.866333000000001,0.87542546,-1
927,928,1583935460989,2.2105,0.1139,-0.088599995,1.9701982,8.85644,-0.32955706,-1
928,929,1583935460999,2.6789,-0.88869995,-1.2714,1.5544593,7.8459710000000005,-0.30256006,-1
929,930,1583935461009,1.6896,-2.9352999,-0.96989995,0.762898,6.7842197,0.030023288,-1
930,931,1583935461020,0.7076,-4.1387997,-0.2509,-0.33106065,5.571604,0.7709425,-1
931,932,1583935461030,0.3773,-5.0694,0.742,-0.5465770999999999,4.5198026,1.8377414,-1
932,933,1583935461040,1.7126,-5.3469,0.1848,0.76020694,4.2483096,0.93308747,-1
933,934,1583935461051,2.7724,-5.9307,-1.212,1.7943584,3.7399347,-0.48707637,-1
934,935,1583935461061,3.7863,-5.9149,-2.4789,2.7202249,3.7262684999999998,-1.8137418,-1
935,936,1583935461071,4.1278,-6.1106997000000005,-3.0874999,2.7256742000000003,3.5212483,-1.9579494999999998,-1
936,937,1583935461081,3.6880998999999997,-6.1923,-2.2772,1.9704185,3.3457341,-0.8264785,-1
937,938,1583935461091,2.6348,-6.66,-0.89049995,0.81756246,2.9039178,0.5415014,-1
938,939,1583935461102,1.3512,-6.9280996,0.7073,-0.58248055,2.6096127,2.1399088,-1
939,940,1583935461112,0.56009996,-7.1078,1.6973,-1.5302396,2.523613,2.8270926,-1
940,941,1583935461123,-0.0143,-7.0362,1.4519,-2.1014197,2.4880352,2.3635943,-1
941,942,1583935461132,-0.0534,-6.9294996,0.5832,-2.0661483,2.6824443,1.4731715,-1
942,943,1583935461142,0.40899998,-6.5818996,-0.4578,-1.5044205,3.0266347000000002,0.41805634,-1
943,944,1583935461152,1.7103,-5.9714,-1.5697,-0.19859424,3.793239,-1.0437858,-1
944,945,1583935461162,2.1151,-5.5752997,-2.4226,-0.31422459999999997,4.010326399999999,-1.4184208999999999,-1
945,946,1583935461172,1.5064,-5.4094,-2.1275,-1.3268857,4.0516309999999995,-0.8266508,-1
946,947,1583935461183,0.4118,-5.4547,-1.1809,-2.393426,4.0646267,0.38990054,-1
947,948,1583935461193,-0.2564,-5.146,0.2721,-3.014884,4.4196485999999995,1.8140483,-1
948,949,1583935461203,-0.2564,-5.146,0.2721,-3.534311,4.8041472,2.2919502,-1
949,950,1583935461213,-1.0907,-4.3845,1.0551,-3.8784537000000006,5.1146946,1.9874747,-1
950,951,1583935461224,-1.2873,-4.0615997,0.50839996,-3.9144146,5.4649663,1.4691013000000002,-1
951,952,1583935461234,-1.0821999,-3.7422,0.0846,-3.7066742999999995,5.7207723,1.1495806999999998,-1
952,953,1583935461244,-0.86329997,-3.5058,-0.034199997999999995,-3.4618912,5.99556,1.1190403,-1
953,954,1583935461254,-0.5786,-3.2236998,-0.007999999,-3.1054711,6.2458405,1.1414118,-1
954,955,1583935461264,-0.0977,-2.8755,0.0061999997,-2.4823467999999997,6.762873,1.1144052,-1
955,956,1583935461274,0.3493,-2.4401,-0.078499995,-2.0003938999999997,7.203492,1.023933,-1
956,957,1583935461285,0.7978,-2.0434,-0.16409999,-1.7318218999999997,7.533278999999999,1.0341419,-1
957,958,1583935461295,0.88909996,-1.7724999,-0.024699999,-1.8467148999999998,7.6993694,1.4492006000000002,-1
958,959,1583935461305,0.6164,-1.6462,0.4967,-2.2210433,7.9112277,1.9302150000000002,-1
959,960,1583935461315,0.2324,-1.4205999,0.7773,-2.5660383999999996,7.9878325,1.7917726999999999,-1
960,961,1583935461326,-0.070099995,-1.3719,0.4793,-2.8008425,8.146989999999999,1.4845201000000001,-1
961,962,1583935461336,-0.2747,-1.1280999,0.1988,-3.135255,8.42372,1.0213665,-1
962,963,1583935461346,-0.57919997,-0.9440000000000001,-0.2056,-3.2882826,8.538738,0.7399041000000001,-1
963,964,1583935461356,-0.69119996,-0.8390000000000001,-0.43629998,-3.3173678,8.564213,0.5576861999999999,-1
964,965,1583935461367,-0.70089996,-0.83269995,-0.5670000000000001,-3.1469099999999997,8.577898,0.6916465,-1
965,966,1583935461377,-0.5208,-0.8170000000000001,-0.37489998,-2.9095678,8.705634,1.0398498,-1
966,967,1583935461387,-0.3171,-0.6447,-0.045599997,-2.8473856,8.906153,1.349056,-1
967,968,1583935461397,-0.3128,-0.47259998,0.278,-2.7360938,9.018067,1.8210682,-1
968,969,1583935461407,-0.2007,-0.4179,0.73749995,-2.609747,9.022875,2.2664470000000003,-1
969,970,1583935461418,-0.1261,-0.4023,1.1323999,-2.6892726000000002,9.058347999999999,2.340763,-1
970,971,1583935461429,-0.38009998,-0.2747,0.9145,-2.8199002999999996,9.161019999999999,2.1170297000000002,-1
971,972,1583935461439,-0.38009998,-0.2747,0.9145,-2.8071917999999996,9.229992,1.9530939999999999,-1
972,973,1583935461450,-0.38549998,-0.21169999,0.7615,-2.7408726000000003,9.340442,1.612581,-1
973,974,1583935461460,-0.16399999,0.0512,0.0021,-2.5474113999999997,9.515219,1.0029119,-1
974,975,1583935461470,-0.1532,0.14400000000000002,-0.4619,-2.5713823,9.619864,0.5612391999999999,-1
975,976,1583935461480,-0.2197,0.1885,-0.6946,-2.6321757000000003,9.663055,0.3775752,-1
976,977,1583935461490,-0.2483,0.1943,-0.7086,-2.5977087000000005,9.669491,0.3728921,-1
977,978,1583935461501,-0.1336,0.30789998,-0.6615,-2.5009639999999997,9.777297,0.40542454,-1
978,979,1583935461511,-0.0822,0.36249998,-0.5542,-2.408404,9.8506365,0.56071246,-1
979,980,1583935461521,-0.0547,0.4367,-0.28869998,-2.3692925,9.943425999999999,0.8522209000000001,-1
980,981,1583935461531,0.1555,0.5011,0.0087,-2.1078074,9.991042,1.1452041000000002,-1
981,982,1583935461541,0.31489998,0.5067,0.1654,-1.8979602999999998,10.012628,1.3195117,-1
982,983,1583935461551,0.70089996,0.6598,0.1551,-1.4241095,10.158339,1.2742612,-1
983,984,1583935461562,1.2183,0.696,0.059299998,-0.85407877,10.222542,1.1988438,d
984,985,1583935461572,1.4896,0.7240000000000001,-0.0037,-0.72635293,10.21106,1.1574912,-1
985,986,1583935461582,1.3902,0.627,0.0537,-0.8683578000000002,10.107639,1.2520717,-1
986,987,1583935461592,1.0952,0.53209996,0.17279999,-1.3116968999999998,9.953702,1.4078768,-1
987,988,1583935461602,0.611,0.35029998,0.3629,-1.7659631000000002,9.784585,1.7000556,-1
988,989,1583935461613,0.3342,0.2077,0.6534,-2.000365,9.629958,1.8557171000000001,-1
989,990,1583935461623,0.1427,0.054199997,0.6249,-2.180141,9.496879,1.8153028000000002,-1
990,991,1583935461633,0.1125,-0.0128,0.5901,-2.151152,9.454243,1.7666049,-1
991,992,1583935461643,0.1838,-0.081599995,0.43949997,-2.0574334,9.393229,1.5619006000000002,-1
992,993,1583935461653,0.24039999,-0.0339,0.34809998,-1.9962853999999999,9.488183,1.5045066999999999,-1
993,994,1583935461663,0.3823,0.0132,0.2844,-1.7910831000000003,9.538269999999999,1.3420266,-1
994,995,1583935461674,0.5631,0.1094,0.10229999599999999,-1.6362549,9.66045,1.262453,-1
995,996,1583935461684,0.6286,0.2162,0.0953,-1.6372316999999998,9.728522,1.2968338,-1
996,997,1583935461694,0.5617,0.3146,0.24309999,-1.8226005,9.845819,1.5912153,-1
997,998,1583935461704,0.40199998,0.40449998,0.5275,-1.9179088,9.978583,1.7870226000000002,-1
998,999,1583935461714,0.3256,0.5345,0.6676,-2.0185611,10.065291,1.8677359,-1
999,1000,1583935461724,0.20529999,0.6358,0.7141,-2.2532504,10.124294,1.8625356,-1
1000,1001,1583935461734,-0.0861,0.6102,0.6583,-2.6322045,10.034558,1.6652153000000003,-1
1001,1002,1583935461744,-0.44239998,0.536,0.4709,-2.9903867,10.008922,1.4514225,-1
1002,1003,1583935461754,-0.6811,0.53999996,0.20799999,-3.1358967,9.952946,1.081461,-1
1003,1004,1583935461764,-0.7659999999999999,0.4648,-0.1521,-3.1881766,9.9207,0.8322531999999999,-1
1004,1005,1583935461774,-0.77709997,0.4281,-0.31939998,-3.1837997000000002,9.83405,0.6530425,-1
1005,1006,1583935461784,-0.68579996,0.3809,-0.3848,-3.0348039,9.847802,0.7711435999999999,-1
1006,1007,1583935461795,-0.5511,0.3918,-0.2022,-2.9003265,9.80374,0.96918243,-1
1007,1008,1583935461805,-0.4204,0.324,0.0336,-2.785012,9.735619999999999,1.2487485,-1
1008,1009,1583935461815,-0.2915,0.2658,0.34469998,-2.699606,9.654637,1.5154530000000002,-1
1009,1010,1583935461825,-0.2705,0.0997,0.6364,-2.7793617000000004,9.398181,1.8731658,-1
1010,1011,1583935461835,-0.317,-0.1545,0.8718,-2.7465610000000003,9.162447,1.8225620999999999,-1
1011,1012,1583935461846,-0.2947,-0.4288,0.69879997,-2.6224937,8.726213000000001,1.6452761999999999,-1
1012,1013,1583935461856,-0.0679,-0.90919995,0.5735,-2.4113443,8.210025,1.6196583999999998,-1
1013,1014,1583935461866,0.15699999,-1.4871,0.6249,-1.8864106,7.3564625,1.8675731,-1
1014,1015,1583935461876,0.66499996,-2.2597,0.9051,-1.4151456,6.5528917,2.8884317999999998,-1
1015,1016,1583935461886,1.1553,-3.0588,2.0869,-0.8249653,5.712919,4.571929,-1
1016,1017,1583935461897,1.7095,-3.8937,3.7635998999999996,-0.5387145000000001,4.90524,6.496149,-1
1017,1018,1583935461907,1.9689,-4.6572,5.5973,-0.50418055,4.1826224000000005,7.940035000000001,-1
1018,1019,1583935461918,1.9648,-5.3806996,6.871,-0.6617668999999999,3.3994025999999997,8.474947,-1
1019,1020,1583935461928,1.7847998999999999,-6.1548,7.178,-1.2490934,2.5750215,8.116871000000002,-1
1020,1021,1583935461938,1.1808,-6.9908,6.7197,-1.9593285,1.5844635,6.870296000000001,-1
1021,1022,1583935461948,0.6554,-7.8012,5.6868,-2.180256,0.9840073,5.720313,-1
1022,1023,1583935461958,0.47289997,-8.410399,4.6257,-2.2115147,0.6033196999999999,4.9931173,-1
1023,1024,1583935461969,0.4597,-8.7985,3.9822998,-2.1966035,0.6262656999999999,4.7767577,-1
1024,1025,1583935461979,0.4651,-8.7793,3.855,-1.9770647000000001,1.0409796999999998,4.898872,-1
1025,1026,1583935461989,1.0318999,-7.7562,4.4406,-1.5502839,1.6857287,5.2051476999999995,-1
1026,1027,1583935461999,1.0318999,-7.7562,4.4406,-1.0581702,2.683498,5.1444116,-1
1027,1028,1583935462009,1.4498,-6.7811,4.4579,-0.5648401,3.7788165,4.6842175,-1
1028,1029,1583935462019,2.1389,-4.7701,3.3109,-0.18198805,4.758811,3.8146815000000003,-1
1029,1030,1583935462030,2.1371999,-3.6028,2.3497,-0.074852325,6.2022367,2.5195045,-1
1030,1031,1583935462041,2.1155999,-2.4431,1.3722,-0.0036296096999999996,7.367897,1.3676158,-1
1031,1032,1583935462051,2.0542,-1.2023,0.0508,0.09088389599999999,8.688625,-0.10573752,-1
1032,1033,1583935462062,2.0990999,0.1099,-0.9454,0.20108421,9.956316000000001,-1.1733503,-1
1033,1034,1583935462073,1.7814,0.9939,-1.7017,-0.2710045,10.851585,-2.3027625,-1
1034,1035,1583935462083,1.0724,1.4787999,-2.592,-0.8642588999999999,11.371079,-3.2669075,-1
1035,1036,1583935462094,0.4782,2.0146,-3.4420998,-1.2677393999999997,11.888485000000001,-4.3130107,-1
1036,1037,1583935462103,0.1107,2.5805,-4.4325,-1.4244639,12.605203999999999,-5.3714775999999995,-1
1037,1038,1583935462113,0.0326,3.4103,-5.3745,-1.1950802,13.421185999999999,-6.4314294,-1
1038,1039,1583935462123,0.3709,4.1407,-6.3037,-0.66733104,14.106675,-7.2755866,-1
1039,1040,1583935462133,0.63299996,4.6939,-6.6271,-0.40100005,14.581819,-7.21983,-1
1040,1041,1583935462144,0.57589996,4.9729,-6.1196,-0.38081214,14.733773000000001,-6.465867,-1
1041,1042,1583935462154,0.33429998,4.9985,-5.125499700000001,-0.5179712000000001,14.79044,-5.2322598,-1
1042,1043,1583935462164,0.1645,5.0655,-4.3066,-0.5329014,14.8351345,-4.817316,-1
1043,1044,1583935462174,-0.014099998999999998,4.9979,-4.1672,-0.48555368,14.819831,-4.9919970000000005,-1
1044,1045,1583935462184,0.1382,5.0703,-4.6684,-0.042932822999999995,14.883364000000002,-5.9265013,-1
1045,1046,1583935462195,0.5291,5.0861998,-5.8471,0.29830796,14.865253,-6.7492160000000005,-1
1046,1047,1583935462205,1.0307,5.0446,-7.2914996,1.201669,14.762245000000002,-8.737860000000001,-1
1047,1048,1583935462215,1.5819,4.8382,-8.486899000000001,1.8421754000000001,14.519214999999999,-9.643375,-1
1048,1049,1583935462225,2.2668998,4.6611,-9.3327,2.7542033,14.351123000000001,-10.379085,-1
1049,1050,1583935462235,3.0281,4.4543,-9.8607,3.3618230000000002,13.944377,-10.732746,-1
1050,1051,1583935462246,3.3127,4.0606,-10.0823,3.4042292,13.654065,-10.598585,-1
1051,1052,1583935462256,3.2215998,3.5879,-9.7108,3.1339333,12.924926,-10.06621,-1
1052,1053,1583935462266,2.8783,2.9970999,-9.468699,2.7590015,12.392465,-9.880123,-1
1053,1054,1583935462276,2.5212998,2.4944,-9.3427,2.7056587000000003,12.098734,-9.652741,-1
1054,1055,1583935462286,2.5349,2.1588,-9.144199,3.0572424,11.828917,-9.311347999999999,-1
1055,1056,1583935462296,2.8776999,2.01,-8.901999,3.393848,11.714494,-9.015137,-1
1056,1057,1583935462306,3.2205,1.8030000000000002,-8.5639,3.8064263,11.411905,-8.385481,-1
1057,1058,1583935462317,3.5019,1.5669999,-8.017999999999999,3.9820937999999995,11.236611,-7.5073833,-1
1058,1059,1583935462327,3.6288,1.3902,-7.2103996,4.070622,11.07822,-6.946594,-1
1059,1060,1583935462337,3.7305998999999996,1.1938,-6.6443,4.1947465,10.893435499999999,-6.367532700000001,-1
1060,1061,1583935462347,3.8258,1.0461999,-6.2258997,4.0590053,10.633080999999999,-6.041921599999999,-1
1061,1062,1583935462357,3.638,0.7905,-5.9747996,3.7004879,10.538088,-5.8778896,-1
1062,1063,1583935462367,3.3095,0.71129996,-5.7777,3.3585480000000003,10.388527,-5.629237,-1
1063,1064,1583935462377,2.9710999,0.5634,-5.5459,3.0069547,10.436488,-5.368806,-1
1064,1065,1583935462388,2.6571999,0.6609,-5.2379,2.6699276000000003,10.538538,-4.669105,-1
1065,1066,1583935462398,2.395,0.7292,-4.6256,2.6826649,10.557711,-3.8590699999999996,-1
1066,1067,1583935462408,2.419,0.74869996,-3.8313,3.0613029999999997,10.540885000000001,-2.7960252999999997,-1
1067,1068,1583935462418,2.7869,0.7292,-2.8053,3.3636044999999997,10.3626795,-1.3510958999999998,-1
1068,1069,1583935462428,3.0804,0.5531,-1.4081,3.3849127,10.172551,-0.047587153,-1
1069,1070,1583935462439,3.0874999,0.3676,-0.1407,3.307446,10.170272,1.1794221,-1
1070,1071,1583935462449,2.997,0.35869998,1.0253999,3.153451,10.165972,2.1724794,-1
1071,1072,1583935462459,2.8422,0.3593,1.9809999999999999,2.7424334999999997,10.379621499999999,2.8590598,-1
1072,1073,1583935462469,2.4313,0.5653,2.6722,2.062758,10.456149,3.2337333999999998,-1
1073,1074,1583935462479,1.2421,0.6814,3.0670998,1.528602,10.494016,3.2014403,-1
1074,1075,1583935462490,0.765,0.5429999999999999,2.9478998,0.9323978999999999,10.291561999999999,3.0303411,-1
1075,1076,1583935462500,0.2359,0.100899994,3.1550999,0.48570690000000005,9.913919,3.1998122,-1
1076,1077,1583935462510,-0.1083,-0.38959998,3.7642998999999997,0.13106817,9.4263935,3.799579,-1
1077,1078,1583935462520,0.0166,-0.43829998,4.8117,0.25966552,9.371375,4.8432015999999996,-1
1078,1079,1583935462530,1.0389,-0.0254,5.5002,1.6906129,9.948273,5.6281550000000005,-1
1079,1080,1583935462541,2.8542,0.81,5.7324,3.5542211999999997,10.812597,5.8423405,-1
1080,1081,1583935462551,4.4193,1.7245,5.8835998,5.076397,11.712665,6.0476766,-1
1081,1082,1583935462561,5.3961,2.4626,6.216,6.000607,12.387648,6.463013,-1
1082,1083,1583935462571,5.8234997,2.906,6.8738,6.3324723,12.774866000000001,7.218681299999999,-1
1083,1084,1583935462581,5.6169,3.2703,7.68,5.9809747,13.151092000000002,8.07661,-1
1084,1085,1583935462592,4.8164,3.6532998,8.4986,5.0989122,13.527987,8.910615,-1
1085,1086,1583935462602,4.0060997,4.0260997000000005,8.9411,4.1082873,14.035653,9.328183000000001,-1
1086,1087,1583935462613,3.3165998,4.5361,8.8337,3.536571,14.566054000000001,9.073286999999999,-1
1087,1088,1583935462622,3.1634998,5.0955,8.304299,3.634082,15.115897,8.523664,-1
1088,1089,1583935462632,3.6014998,5.6067,7.7787,4.0946403,15.560281,8.266508,-1
1089,1090,1583935462642,4.1143,5.9919996,7.825,4.4955063,15.879532999999999,8.602281,-1
1090,1091,1583935462652,4.4449,6.1538,8.3237,4.5787,15.912563,9.309442,-1
1091,1092,1583935462663,4.3764997,6.1315,8.9599,4.294412599999999,15.863023000000002,10.005138,-1
1092,1093,1583935462673,4.1492,6.0815997,9.4067,3.8914587,15.857382000000001,10.350603,-1
1093,1094,1583935462683,3.8597998999999996,6.1502,9.0531,3.5044792,15.925847000000001,9.568254,-1
1094,1095,1583935462693,3.7596,6.1408,7.7131,3.3557900000000003,15.885979,8.167177,-1
1095,1096,1583935462703,3.7779998999999997,6.0738997,6.2553997,2.9932787,15.649681,6.7222004,-1
1096,1097,1583935462714,3.2789998,5.5302,4.8856,2.049379,14.988239000000002,5.4418097,-1
1097,1098,1583935462724,2.3762,4.9138,3.8288998999999997,0.9226008,14.339267000000001,4.442767,-1
1098,1099,1583935462734,1.7164999,4.2353997,2.7345998,0.13650779999999998,13.636712,3.2851417,-1
1099,1100,1583935462744,1.2701,3.5142,1.6272,-0.3755449,13.002239,2.430536,-1
1100,1101,1583935462754,0.9726,2.7496,0.8131,-1.1750167999999999,11.798646000000002,1.4130387,-1
1101,1102,1583935462764,0.5363,1.7939999,0.1804,-1.8942828,10.718736,0.9937851999999999,-1
1102,1103,1583935462775,0.0659,0.82229996,-0.1533,-2.3090349999999997,9.827585000000001,0.7641717,-1
1103,1104,1583935462785,0.0574,0.0092,-0.4899,-2.2169828,8.960338,0.25848758,-1
1104,1105,1583935462795,0.5013,-0.7251,-1.1299,-1.7116147000000002,8.329436999999999,-0.41885123,-1
1105,1106,1583935462805,1.2660999,-1.3012999,-1.8781999,-1.0008816999999999,7.533317599999999,-0.9415821,-1
1106,1107,1583935462815,2.1155999,-2.1087,-2.2282,-0.4471411,6.6215,-0.78319126,-1
1107,1108,1583935462826,2.6660000000000004,-3.0363998,-1.8477,-0.444881,5.3415885,0.35551023,-1
1108,1109,1583935462836,2.7149,-4.0439,-0.86859995,-0.58558345,4.4715643,1.3194348999999999,-1
1109,1110,1583935462846,2.6733,-5.0439997000000005,0.1308,-1.1020128,3.2117352,2.2774892,-1
1110,1111,1583935462858,2.3021,-6.0105996,0.7416,-1.7734618000000002,2.1741936,2.6795044,-1
1111,1112,1583935462868,1.8335999,-6.9564,0.9533,-2.2222214,1.0413724,2.2887897,-1
1112,1113,1583935462878,1.6635,-7.8072,0.53569996,-2.3653755000000003,0.40102878,1.9490334999999999,-1
1113,1114,1583935462888,1.6501,-8.5359,0.12329999,-2.4169562,-0.38911524,1.3738887,-1
1114,1115,1583935462899,1.7831,-9.210899000000001,-0.5735,-2.590239,-1.2320944999999999,-0.030186094,-1
1115,1116,1583935462909,1.7591,-9.8518,-1.7347,-2.9476259999999996,-2.1080563,-1.2430024,-1
1116,1117,1583935462919,1.3274,-11.5251,-3.5788998999999997,-3.2750093999999996,-3.0284543,-1.9294966,-1
1117,1118,1583935462929,1.0504999,-12.342,-3.353,-3.6552660000000006,-3.9033531999999997,-1.7207223000000003,-1
1118,1119,1583935462940,1.0504999,-12.342,-3.353,-4.1709294,-4.549443,-0.9894757,-1
1119,1120,1583935462951,0.058399998,-13.6331,-1.3892,-4.8378963,-5.372052,0.48094723,-1
1120,1121,1583935462961,0.0016,-13.9211,-0.48549998,-4.8851485,-5.630387000000001,1.3516226999999998,-1
1121,1122,1583935462971,0.18249999,-14.050699,0.0669,-4.714758,-5.7570877000000005,1.780405,-1
1122,1123,1583935462982,0.0349,-14.12,0.1775,-4.8927426,-5.829785299999999,1.8305875,-1
1123,1124,1583935462992,0.1193,-14.1383,0.094399996,-4.5627832,-5.6882209999999995,1.519935,-1
1124,1125,1583935463002,0.64089996,-13.8895,-0.5257,-4.038204,-5.4251657,0.74173325,-1
1125,1126,1583935463012,0.8792,-13.780399,-1.2849,-3.8359995000000002,-5.287173,0.022237346,-1
1126,1127,1583935463023,0.8875,-13.5512,-1.8285999,-3.7339394,-4.976099,-0.59436536,-1
1127,1128,1583935463034,1.2526,-13.210799,-2.3586,-3.0168185000000003,-4.363308,-1.3765415,-1
1128,1129,1583935463044,1.6689999,-12.749,-2.8581998,-2.56442,-3.7603717000000003,-1.8879142,-1
1129,1130,1583935463054,1.8836,-12.271199000000001,-3.0469999999999997,-2.1042256,-3.1356764,-2.174893,-1
1130,1131,1583935463064,2.1303,-11.6987,-3.2117,-2.0082470000000003,-2.4627522999999996,-2.04257,-1
1131,1132,1583935463074,1.9472,-11.0896,-2.7094998,-1.9718453999999999,-1.6026212,-1.4730086000000002,-1
1132,1133,1583935463086,1.7925999,-10.159599,-2.0607,-1.8713654,-0.4020152,-0.8272541999999999,-1
1133,1134,1583935463096,1.7542,-8.9669,-1.2027999,-1.6296852,0.9286916999999999,0.13577038,-1
1134,1135,1583935463106,1.9727999,-7.7053,-0.2096,-0.46772167,2.9277256,1.1806766000000002,-1
1135,1136,1583935463116,2.7984998,-6.029,0.7248,0.09961794,4.3566712999999995,1.6977476000000002,-1
1136,1137,1583935463126,2.9134,-4.8057,1.1231999,0.11393527,5.4068356,1.0441784,-1
1137,1138,1583935463137,2.7315,-3.8267,0.3615,-0.18566556,6.5404897,-0.30883285,-1
1138,1139,1583935463147,2.0079,-2.7779999,-0.8147,-1.1971678999999997,7.547921700000001,-1.7787865000000003,-1
1139,1140,1583935463157,0.9011,-1.7492,-2.113,-1.6566439,9.219285000000001,-3.3166206,-1
1140,1141,1583935463167,0.2978,-0.0585,-3.4703998999999994,-1.3911461,10.81141,-4.676144,-1
1141,1142,1583935463177,0.62299997,1.5251,-4.5266,0.90987325,12.894575999999999,-5.4745913,-1
1142,1143,1583935463187,3.0084,3.6564,-5.1089997,4.5456505,15.145864000000001,-6.2043056,-1
1143,1144,1583935463197,6.3167,5.8195996,-5.6542997,8.1024,17.046774,-6.045723000000001,-1
1144,1145,1583935463207,9.1846,7.5836,-5.2655997,10.901058,18.442795,-5.293896,-1
1145,1146,1583935463217,11.511399,8.870299000000001,-4.4372997000000005,12.384171,19.353634,-4.257829,-1
1146,1147,1583935463227,12.2556,9.722799,-3.3432,12.330924000000001,19.979498,-3.194229,-1
1147,1148,1583935463237,11.6334,10.2435,-2.3653998,11.175042,20.109179,-2.1739926,-1
1148,1149,1583935463247,10.1194,10.3583,-1.3489,9.916122999999999,20.339672,-1.1489296,-1
1149,1150,1583935463258,8.631599000000001,10.632,-0.3735,8.241197,20.312475,-0.23954466,-1
1150,1151,1583935463268,6.6426,10.532599000000001,0.5255,6.3636537,19.953429999999997,0.52415776,-1
1151,1152,1583935463278,4.7321,10.1373,1.2208999,4.8433839999999995,19.216484,0.79397476,-1
1152,1153,1583935463288,3.1413,9.3488,1.3945999,3.3898735,18.340925,0.037359122,-1
1153,1154,1583935463298,1.8637999,8.6734,0.71209997,2.6459377,17.620338,-1.0709072,-1
1154,1155,1583935463308,1.0715,7.9502997,-0.3217,2.3991816000000004,17.02085,-2.4897400000000003,-1
1155,1156,1583935463319,0.7403,7.3816,-1.6664,2.035646,16.644232000000002,-3.3290224000000004,-1
1156,1157,1583935463329,-0.28239998,6.8169,-2.0275,1.5765626,16.422949,-2.926222,-1
1157,1158,1583935463340,-0.19829999,6.9175,-1.3435,1.7774169999999998,16.492449,-2.2339816000000003,-1
1158,1159,1583935463350,0.2034,6.9895997,-0.48200000000000004,2.4059525,16.557465,-1.1719808999999999,-1
1159,1160,1583935463360,0.52279997,6.8946,0.31469998,2.7387657,16.338482,-0.38410658,-1
1160,1161,1583935463370,0.52279997,6.8946,0.31469998,2.618366,15.824955,0.14582604,-1
1161,1162,1583935463380,0.1339,5.8739,0.9438,2.4632409,15.164596,-0.060515843,-1
1162,1163,1583935463390,-0.118999995,5.1633997,0.1479,2.233953,14.475391,-0.92216027,-1
1163,1164,1583935463402,-0.47079998,4.3719997,-0.9499,1.9318813000000001,13.675728,-2.14373,-1
1164,1165,1583935463412,-0.4667,3.7357,-2.2347999,2.1023772000000003,12.988631,-3.7081779999999998,-1
1165,1166,1583935463422,-0.2904,3.2250997999999997,-3.2236998,2.1384914,12.450673,-4.5154834,-1
1166,1167,1583935463433,-0.5344,2.6915998,-3.359,1.8086661,11.947794,-4.2037106,-1
1167,1168,1583935463443,-0.7928,2.3116999,-2.5726,1.682463,11.640379,-3.2103946,-1
1168,1169,1583935463453,-0.7556,2.0873,-1.5048,1.8094611,11.465123,-2.3574457000000004,-1
1169,1170,1583935463463,-0.5588,1.8634,-0.6694,2.1026359,11.204251,-1.3915389,-1
1170,1171,1583935463473,-0.1978,1.6893,-0.0911,2.5669863,11.091646,-0.82602835,-1
1171,1172,1583935463484,0.2729,1.614,0.2491,3.1389134,10.939165,-0.58529615,-1
1172,1173,1583935463494,0.59639996,1.4003999,0.1348,3.2186499,10.631079,-0.96223927,-1
1173,1174,1583935463504,0.5239,1.0767,-0.30069998,2.9647112,10.275952,-1.3621093,-1
1174,1175,1583935463514,0.2129,0.7107,-0.7382,2.7034655,10.040784,-1.7816501,-1
1175,1176,1583935463524,-0.10669999599999999,0.46019998,-1.382,2.2718293999999997,9.69011,-2.7239215,-1
1176,1177,1583935463534,-0.4134,0.1598,-2.0467,1.9154571,9.529947,-2.878003,-1
1177,1178,1583935463544,-0.80259997,0.0257,-1.9144,1.4825853999999998,9.375463499999999,-2.4820976000000003,-1
1178,1179,1583935463555,-1.0936999,-0.107499994,-1.4411,1.5360527,9.323185,-1.9695566000000002,-1
1179,1180,1583935463565,-0.8305,-0.110599995,-1.033,2.0425221999999996,9.358972999999999,-1.6301544,-1
1180,1181,1583935463575,-0.2368,-0.0718,-0.8408,2.6363897,9.327963,-1.4676934,-1
1181,1182,1583935463585,0.15429999,-0.1391,-0.62439996,2.7371472999999997,9.301991000000001,-0.9838062,d
1182,1183,1583935463595,0.20359999,-0.1672,-0.21319999,2.7692485000000002,9.245736,-0.5166016999999999,-1
1183,1184,1583935463606,0.1783,-0.2153,0.18439999,2.8289025000000003,9.266394,-0.27427974,-1
1184,1185,1583935463616,0.2859,-0.1952,0.2314,3.0547047000000003,9.33028,-0.34077153,-1
1185,1186,1583935463626,0.52739996,-0.048499997999999996,0.077,3.0261943,9.362248,-0.48760313,-1
1186,1187,1583935463637,0.34600000000000003,-0.089899994,0.0016999998999999999,2.549327,9.326977000000001,-0.37407964,-1
1187,1188,1583935463647,-0.1313,-0.1334,0.1151,2.306708,9.436555,-0.25410140000000003,-1
1188,1189,1583935463658,-0.25239998,0.008599999,0.17109999,2.3921810000000003,9.553593,-0.44816583,-1
1189,1190,1583935463669,-0.12969999,0.0925,-0.042099997,2.5992314999999997,9.70707,-0.49780244,-1
1190,1191,1583935463679,0.0799,0.2622,0.0222,2.6182892000000004,9.734067,-0.39846218,-1
1191,1192,1583935463689,-0.1458,0.18069999,0.2769,2.3826709999999998,9.659167,-0.14361379999999999,-1
1192,1193,1583935463699,-0.1458,0.18069999,0.2769,2.21253,9.630705,0.13889243,-1
1193,1194,1583935463709,-0.3762,0.1371,0.588,2.1349769,9.610345,0.19511786,-1
1194,1195,1583935463720,-0.28329998,0.087,0.4639,2.2264256000000002,9.573541,0.082523346,-1
1195,1196,1583935463730,0.19039999,0.2827,-0.0368,2.6991560000000003,9.762645,-0.45435244,-1
1196,1197,1583935463740,0.64519995,0.4391,-0.4861,3.1479445,9.926495,-0.91189396,-1
1197,1198,1583935463750,0.64519995,0.4391,-0.4861,3.285017,10.168749,-1.024613,-1
1198,1199,1583935463760,0.6044,1.0031999,-0.2393,2.9415544999999996,10.663860000000001,-0.54487246,-1
1199,1200,1583935463770,0.20289999,1.5295,0.0407,2.6128782999999998,11.173902499999999,-0.3553187,-1
1200,1201,1583935463780,0.088999994,2.0376,-0.0084,2.5435998,11.670430999999999,-0.42467391,-1
1201,1202,1583935463790,0.0942,2.7143998,-0.056599997,2.56871,12.204481,-0.42667547,-1
1202,1203,1583935463800,0.0942,2.7143998,-0.056599997,2.634752,12.9981785,-0.23835714,-1
1203,1204,1583935463810,0.24319999,4.4933,0.4098,2.7807407000000004,14.206760999999998,0.2706597,-1
1204,1205,1583935463820,0.67719996,5.7121997,0.78779995,3.1931372000000002,15.201276000000002,0.6157791,-1
1205,1206,1583935463830,0.67719996,5.7121997,0.78779995,4.1923428,16.862574,0.9810481,-1
1206,1207,1583935463840,1.9717,8.3633995,1.3026999,4.5398664,18.088223,1.3683724,-1
1207,1208,1583935463851,1.882,9.4867,1.5123999,4.404938700000001,18.971981,1.5954864,-1
1208,1209,1583935463861,1.0891,10.3791,1.3491,3.443657,20.041069,1.4180378999999999,-1
1209,1210,1583935463871,0.8559,11.0146,0.7193,3.2854958,20.585318,0.8485434000000001,-1
1210,1211,1583935463881,0.8889,11.0134,0.4109,3.2355816,20.496225,0.80344623,-1
1211,1212,1583935463891,0.72749996,10.651,1.0501,2.992934,20.053478,1.6892049999999998,-1
1212,1213,1583935463901,0.85359997,9.946899,1.7738999,3.3242342000000002,19.356785000000002,2.411775,-1
1213,1214,1583935463912,2.8069,9.773,1.5424,5.5569615,19.30736,1.9598265,-1
1214,1215,1583935463922,5.2321,9.3913,-0.0174,7.693566000000001,18.851772,0.49271715,-1
1215,1216,1583935463932,6.4859,8.6508,-0.9695,8.509605,18.22249,-0.13487974,-1
1216,1217,1583935463942,5.9031,7.6001997,-0.97889996,7.108165,16.63951,0.29479328,-1
1217,1218,1583935463952,4.255,6.2033,-0.13229999,5.1441627,15.273025,1.3972944,-1
1218,1219,1583935463963,2.6492,4.7981,0.71779996,3.5060879999999996,13.804067000000002,2.1305714,-1
1219,1220,1583935463973,1.2924,3.2207,1.1867,1.8594807,12.312182,2.8082743,-1
1220,1221,1583935463983,-0.081999995,1.8154,2.0101,0.40735903,10.933849,3.6513489999999997,-1
1221,1222,1583935463993,-1.0955,0.35619998,2.526,-0.5554739000000001,9.512795,4.0578365,-1
1222,1223,1583935464003,-1.2551999,-0.76669997,2.3195999,-0.2743851,8.6183605,3.3517004999999997,-1
1223,1224,1583935464014,-0.020399999,-1.4284999,0.7994,0.9970604999999999,7.9953985,1.4936755,-1
1224,1225,1583935464024,1.0181,-2.1497,-0.9727,1.7522588,7.2579080000000005,0.04250187,-1
1225,1226,1583935464034,1.6130999,-2.8792,-2.1171,1.8634453999999998,6.4899335,-0.93767476,-1
1226,1227,1583935464044,1.1462,-3.7333,-2.55,0.75448954,5.4441085,-0.7451139,-1
1227,1228,1583935464054,0.015,-4.5636,-1.9747,-0.6450554000000001,4.613196,0.0853102,-1
1228,1229,1583935464064,-1.2932,-5.4396,-1.1403999,-1.7630709999999998,3.8983445,0.81085867,-1
1229,1230,1583935464074,-2.3177,-6.2553,-0.3283,-1.9776490000000002,3.3281989999999997,1.8189325,-1
1230,1231,1583935464084,-1.3349999,-6.2193,0.0154,-0.49643293,3.5361307,0.7454586,-1
1231,1232,1583935464094,0.0861,-6.2358,-1.6879,0.60923815,3.3287928,-0.42936656,-1
1232,1233,1583935464104,1.454,-6.3121,-2.3566,2.0879164,3.4488665999999997,-0.6867911,-1
1233,1234,1583935464114,2.5269999999999997,-6.2683,-2.3997,2.6375675,3.1885017999999996,-0.51698476,-1
1234,1235,1583935464124,2.7378,-6.6145,-1.9821999,2.2761197,2.8421855,0.42601469999999997,-1
1235,1236,1583935464135,2.1794999,-6.9592,-0.9195,1.495428,2.4890602000000004,1.4272027,-1
1236,1237,1583935464146,1.5123,-7.285599700000001,-0.048699997,0.7100915,2.145607,2.2534799999999997,-1
1237,1238,1583935464156,0.85279995,-7.5864997,0.6444,-0.41340202,1.8902508999999998,2.9018585999999997,-1
1238,1239,1583935464166,-0.0504,-7.803999999999999,1.2037,-1.1536031,1.8183962,2.8867083,-1
1239,1240,1583935464176,-0.5276,-7.791,1.0009,-1.2105466,2.136346,1.7059453000000002,-1
1240,1241,1583935464186,-0.4201,-7.4287996,-0.2244,-0.85425115,2.8410938,0.062306705999999996,-1
1241,1242,1583935464197,0.0558,-6.6259,-1.7566998999999999,-0.6213432,3.6139326,-1.0327342,-1
1242,1243,1583935464207,0.2834,-5.8122,-2.674,-0.8277329999999999,4.2408589999999995,-1.3926305,-1
1243,1244,1583935464217,0.0651,-5.3423,-2.6532,-1.3344610000000001,4.7239322999999995,-0.556604,-1
1244,1245,1583935464227,-0.4184,-4.8387,-1.6274998999999999,-1.6858436,5.1790895,0.59026647,-1
1245,1246,1583935464237,-0.6768,-4.4407997,-0.5743,-2.0183694,5.5827513,1.4743876,-1
1246,1247,1583935464247,-0.97679996,-3.9452998999999997,0.2392,-2.0773723000000004,6.287058999999999,1.7327412,-1
1247,1248,1583935464257,-0.88769996,-3.2366998,0.2962,-1.550916,6.89239,1.0657931999999999,-1
1248,1249,1583935464268,-0.32909998,-2.6585999,-0.4572,-1.0881072,7.3742847000000005,0.34191117,-1
1249,1250,1583935464278,0.1391,-2.2091,-1.1355,-0.6733357,7.672114,-0.25595933,-1
1250,1251,1583935464288,0.49469998,-1.9646,-1.6298,-0.8171984999999999,7.6986227,-0.25972298,-1
1251,1252,1583935464298,0.33899999999999997,-1.9628999,-1.556,-1.0405488,7.761207000000001,0.10844776,-1
1252,1253,1583935464308,0.0911,-1.8995999,-1.0842,-1.3305154,7.8652014999999995,1.0667702,-1
1253,1254,1583935464318,-0.106,-1.7856,-0.27019998,-1.7198987000000001,7.896537299999999,1.9036583999999999,-1
1254,1255,1583935464329,-0.47129998,-1.7494999,0.5399,-1.9826959,8.047255999999999,2.461048,-1
1255,1256,1583935464339,-0.58989996,-1.2990000000000002,1.1672,-1.8743246999999998,8.335873,2.5619106,-1
1256,1257,1583935464349,-0.36569998,-1.0137,0.91419995,-1.6599287,8.62696,2.304084,-1
1257,1258,1583935464360,-0.1741,-0.8379,0.6005,-1.4097251,8.812989,1.8927984,-1
1258,1259,1583935464370,0.2218,-0.6728,0.1249,-1.0320253000000001,9.019627999999999,1.4106061,-1
1259,1260,1583935464380,0.3743,-0.46799999999999997,-0.1849,-0.9356061,9.165732,1.167001,-1
1260,1261,1583935464390,0.2753,-0.3601,-0.2059,-1.0405966999999998,9.27623,1.1372075000000001,-1
1261,1262,1583935464400,0.0316,-0.35869998,0.069299996,-1.2939032,9.27553,1.4145421999999999,-1
1262,1263,1583935464410,-0.2217,-0.43469998,0.5529999999999999,-1.5517205,9.194405999999999,1.9039266,-1
1263,1264,1583935464420,-0.331,-0.2653,1.0421,-1.6957651000000002,9.390556,2.4970472000000004,-1
1264,1265,1583935464430,-0.34739998,-0.1357,1.3347,-1.6686531999999998,9.517249000000001,2.731832,-1
1265,1266,1583935464440,-0.0858,-0.0078,1.4361,-1.4349025,9.618495,2.8063395,-1
1266,1267,1583935464450,0.20979999,0.1085,1.2508,-1.1293162,9.739459,2.6334112000000003,-1
1267,1268,1583935464460,0.4741,0.2528,0.8885,-0.85488325,9.887938499999999,2.2555485,d
1268,1269,1583935464470,0.71029997,0.3865,0.6306,-0.5748766,10.037901,1.9317855,-1
1269,1270,1583935464480,0.80439997,0.4517,0.4552,-0.49615519999999996,10.111125999999999,1.748993,-1
1270,1271,1583935464490,0.86689997,0.4883,0.2722,-0.47153324,10.131955,1.5192071000000003,-1
1271,1272,1583935464501,0.69299996,0.3495,0.14899999,-0.698312,9.937967,1.4486548000000001,-1
1272,1273,1583935464511,0.37039998,0.124,0.41579998,-0.9802053,9.761946,1.683957,-1
1273,1274,1583935464522,0.0019999999,0.0169,0.84779996,-1.4766957,9.640283,2.1757642999999995,-1
1274,1275,1583935464532,-0.26139998,-0.041899998,0.8909999999999999,-1.7210575000000001,9.592761999999999,2.0002598999999996,-1
1275,1276,1583935464542,-0.26139998,-0.041899998,0.8909999999999999,-1.7546338,9.621933,1.2665518999999998,-1
1276,1277,1583935464552,-0.2856,0.0033,-0.2839,-1.7109444,9.634478999999999,0.7099574000000001,-1
1277,1278,1583935464562,-0.2977,-0.058799997,-0.44489998,-1.7153113999999998,9.583971,0.7811897,-1
1278,1279,1583935464573,-0.2647,-0.0907,-0.1269,-1.6465020000000001,9.560594,1.1485944,-1
1279,1280,1583935464583,-0.1654,-0.16129999,0.2905,-1.5123118999999998,9.463686000000001,1.5343577,-1
1280,1281,1583935464593,-0.0174,-0.2511,0.5873,-1.3382247999999999,9.377313000000001,1.8032361000000001,-1
1281,1282,1583935464603,0.23969999,-0.3509,0.7992,-1.0234351000000002,9.251185000000001,1.9090215,-1
1282,1283,1583935464613,0.5482,-0.4513,0.8128,-0.72006094,9.162666999999999,1.8841218000000002,-1
1283,1284,1583935464624,0.8416,-0.57159996,0.7962,-0.47870627,9.012819,1.8117307,-1
1284,1285,1583935464634,0.9363,-0.83879995,0.60139996,-0.5461653000000001,8.651975,1.4661899999999999,-1
1285,1286,1583935464644,0.6573,-1.3012999,0.2356,-0.85127276,8.183975,1.0957303,-1
1286,1287,1583935464654,0.47309998,-1.7335,0.0,-1.0097307,7.5856449999999995,0.8478251,-1
1287,1288,1583935464664,0.3717,-2.3021998,-0.0984,-1.16476,6.994047,0.87496585,-1
1288,1289,1583935464675,0.23629999,-2.9284,0.0747,-1.3882636000000002,6.2857275,1.1508737,-1
1289,1290,1583935464685,0.0363,-3.7103998999999996,0.4799,-1.5590563,5.4453053,1.7000363999999997,-1
1290,1291,1583935464695,-0.0537,-4.5407,1.1582999,-1.6737577000000001,4.5967617,2.3944602,-1
1291,1292,1583935464705,-0.1531,-5.4593,1.8400999,-1.8358067999999998,3.6549977999999994,2.9852726,-1
1292,1293,1583935464715,-0.2741,-6.3294997,2.4912999,-2.021616,2.8078814,3.559249,-1
1293,1294,1583935464725,-0.42999998,-7.1914,3.0075,-2.1648083,2.0526161,3.77014,-1
1294,1295,1583935464735,-0.4008,-7.8008,3.1571999,-1.7484471999999998,1.6513193,3.6228580000000004,-1
1295,1296,1583935464746,0.1708,-8.1682,2.8516,-1.1149797,1.2483655,2.865237,-1
1296,1297,1583935464756,0.6577,-8.4205,2.2937999,-0.7749169,1.2507693000000002,2.1816063,-1
1297,1298,1583935464766,0.94369996,-8.4587,1.4463999,-0.5049371,1.1280521000000001,1.1828313999999998,-1
1298,1299,1583935464776,1.1474,-8.5468,0.83889997,-0.43213424,1.1900427,0.7565965,-1
1299,1300,1583935464786,0.97309995,-8.5084,0.48819998,-0.8397519,1.2219143,0.5747616,-1
1300,1301,1583935464796,0.5566,-8.4615,0.5026,-1.1343823999999998,1.5883421999999998,0.92827994,-1
1301,1302,1583935464806,0.22479999,-8.0049,1.0321,-1.115631,2.2824788,1.7899052,-1
1302,1303,1583935464816,0.1485,-7.0311,2.174,-1.0221613999999999,3.5883337999999996,3.0283492,-1
1303,1304,1583935464826,0.1723,-5.9308996,3.0456,-0.19466776,5.007233599999999,3.6451050000000005,-1
1304,1305,1583935464836,0.9483,-4.4378,3.5537998999999996,0.7880275,6.511998999999999,3.9453857000000006,-1
1305,1306,1583935464846,1.5859,-3.0108,3.741,1.2313858,7.8609976999999995,4.084814499999999,-1
1306,1307,1583935464857,1.8468,-1.6389999,3.8260998999999996,1.6443281000000003,9.301483000000001,3.7123246,-1
1307,1308,1583935464867,2.0521998,-0.22469999,3.3116,1.6844071,10.640091,2.8902228,-1
1308,1309,1583935464877,1.8531,1.1035,2.4294999,1.5526206,11.883036,1.6161628000000001,-1
1309,1310,1583935464887,1.6513,2.3063,1.1884999,1.759566,13.201169,0.53792924,-1
1310,1311,1583935464897,1.7464,3.6483998,0.2951,1.5848562,14.198718,-0.18076222,-1
1311,1312,1583935464908,1.3341,4.512,-0.28399998,1.175371,14.676103,-0.7615189,-1
1312,1313,1583935464918,0.8739,4.9656,-0.7163,1.0192883,15.288587,-0.8470877,-1
1313,1314,1583935464928,0.6617,5.607199700000001,-0.6368,0.8423185,15.793964,-1.125428,-1
1314,1315,1583935464938,0.3592,6.0543,-0.9177,0.21882047,16.068417,-1.8116254,-1
1315,1316,1583935464948,-0.47849998,6.3167995999999995,-1.6948999,-0.43919235,16.267145000000003,-3.5712295,-1
1316,1317,1583935464958,-1.068,6.4835,-3.1294,-0.49472827,16.2695,-4.890281,-1
1317,1318,1583935464968,-1.2027999,6.4568996,-4.7546,0.5308903,16.015755,-6.6272649999999995,-1
1318,1319,1583935464978,-0.44509998,6.2569,-6.1447997,1.8985444,15.999089999999999,-6.6539845,-1
1319,1320,1583935464988,1.0741999,6.2662997,-6.0772,3.9769413,16.091946,-5.039842,-1
1320,1321,1583935464998,2.6083998999999998,6.377000000000001,-4.7030997,5.5332203,16.31793,-3.2832837,-1
1321,1322,1583935465010,4.3328,6.705899700000001,-2.6239,7.149143700000001,16.70109,-0.94523084,-1
1322,1323,1583935465021,5.2506,6.9172997,-0.39519998,6.978772599999999,16.527931,-0.5190246000000001,-1
