,Seq,Time,ACCx,ACCy,ACCz,ADGx,ADGy,ADGz,Keydown
0,1,1583586400284,2.077,-0.5779,-1.2607,5.7514663,-9.485415,1.9073360000000001,-1
1,2,1583586400294,2.0555,-1.4387,-0.77919996,10.795676,0.34430537,-1.5232006,-1
2,3,1583586400304,1.0181999,0.026999999,-0.1557,10.422831,0.1845259,-1.2897756,-1
3,4,1583586400315,0.6138,-0.103999995,0.3559,9.928907,0.1365461,-0.4262157999999999,-1
4,5,1583586400325,0.12,-0.18329999,1.1721,9.428778999999999,0.00079487497,0.28325320000000004,-1
5,6,1583586400335,-0.3691,-0.3083,1.7756,9.185699000000001,-0.058571752000000005,0.9278298,-1
6,7,1583586400345,-0.5665,-0.3523,2.1495,9.319545,-0.023195026,1.132716,-1
7,8,1583586400355,-0.4141,-0.23979999,1.7873,9.568647,0.1583908,0.7754436,-1
8,9,1583586400365,-0.1893,-0.0447,1.1985999,9.717108,0.22310129,0.43680775,-1
9,10,1583586400375,-0.048499997999999996,0.0168,0.77989995,9.898903,0.48127285,0.4059321,-1
10,11,1583586400386,0.1039,0.2906,0.6631,9.89536,0.68872565,0.6114408,-1
11,12,1583586400396,0.055099998,0.3915,0.77959996,9.691527,0.8064533,0.95013416,-1
12,13,1583586400406,-0.184,0.24039999,0.6997,9.346457000000001,0.63533497,1.4303343000000002,-1
13,14,1583586400416,-0.52279997,-0.0117,1.0916,9.02207,0.40441898,2.1055186000000004,-1
14,15,1583586400426,-0.76339996,-0.2156,1.6151999,8.929117999999999,0.27771783,2.8165581000000004,-1
15,16,1583586400436,-0.8652,-0.39399999999999996,2.4192998,8.712183999999999,0.23252487,3.547182,-1
16,17,1583586400446,-1.1316,-0.4226,3.0058,8.094241,0.46640006,4.385191000000001,-1
17,18,1583586400456,-1.6604999,-0.2298,3.5834,7.079778699999999,0.72197634,5.090791,-1
18,19,1583586400466,-2.6689,0.0053,4.1812997,6.0939612,0.94600654,5.980792500000001,-1
19,20,1583586400477,-3.8832,0.2556,5.2563,4.903938,1.2475896999999998,7.6786164999999995,-1
20,21,1583586400487,-5.0585,0.49519998,7.0186996,3.6101690000000004,1.4783046999999998,10.336382,-1
21,22,1583586400497,-6.1052,0.6584,9.1701,2.4000149,1.3761584999999998,12.136111999999999,-1
22,23,1583586400507,-7.2962,0.52169997,10.872,0.49348328,0.6701754,12.751298,-1
23,24,1583586400517,-8.846,-0.051,11.4031,-0.51347965,0.24215913,12.222515,-1
24,25,1583586400528,-11.745299000000001,-1.2068,8.6412,-2.3608935,-0.37548742,9.972166,-1
25,26,1583586400538,-12.5229,-1.2808,7.1169,-3.071732,-0.41975144,8.361587,-1
26,27,1583586400548,-12.8568,-1.013,5.2077,-3.3371341,-0.09867942,6.4995008,-1
27,28,1583586400558,-13.094299000000001,-0.8243,3.5093,-3.5539627,-0.08253292,5.0810900000000006,-1
28,29,1583586400569,-13.094299000000001,-0.8243,3.5093,-3.7538687999999993,-0.42229885,4.323957,-1
29,30,1583586400579,-13.5889,-1.8687999,1.7328,-3.9864319999999998,-1.4922963,3.1519473,-1
30,31,1583586400589,-13.5623,-2.983,0.7241,-3.8225632000000007,-2.775933,2.0183983,-1
31,32,1583586400600,-13.5623,-2.983,0.7241,-3.746399,-3.9841046,1.3826898,-1
32,33,1583586400610,-13.8118,-5.3402,-0.3121,-4.142888,-5.3484169999999995,0.752737,-1
33,34,1583586400620,-13.8251,-6.2932,-1.2493,-3.9441410000000006,-6.694686,-0.94241524,-1
34,35,1583586400631,-13.2393,-7.115,-3.5246,-3.0115228,-7.5594716,-3.8663101,-1
35,36,1583586400641,-11.759399,-7.2454,-7.4663997,-1.145865,-7.663657700000001,-8.146817,-1
36,37,1583586400651,-9.4354,-6.934,-11.5026,1.3399868000000001,-7.716761,-11.624825999999999,-1
37,38,1583586400661,-6.7497997000000005,-7.0815997,-13.7856,3.988606,-8.547108999999999,-13.036389,-1
38,39,1583586400671,-4.1632,-7.8669996,-14.1191,6.3667474,-9.573101,-12.816267,-1
39,40,1583586400682,-2.154,-8.5166,-13.401299,8.014246,-10.691221,-12.021889999999999,-1
40,41,1583586400692,-0.9266,-9.6371,-13.2295,8.950541000000001,-12.300834,-12.64692,-1
41,42,1583586400702,0.0709,-11.1845,-14.9831,10.100887,-14.207757999999998,-14.627002,-1
42,43,1583586400712,1.8626,-12.9309,-17.236,12.634116,-16.774763,-17.497974,-1
43,44,1583586400722,4.383,-14.5789995,-20.1576,15.318342000000001,-18.030033,-20.027498,-1
44,45,1583586400732,7.3085,-15.0348,-22.262999,17.59269,-18.31298,-20.780673999999998,-1
45,46,1583586400743,10.1642,-14.9998,-22.701898999999997,20.384674,-18.8104,-20.344978,-1
46,47,1583586400753,12.3251,-15.1325,-22.011599,22.099173,-19.122375,-19.091595,-1
47,48,1583586400763,14.0348,-15.190498999999999,-20.6194,23.426756,-19.747757,-17.3693,-1
48,49,1583586400773,15.4142,-15.5322,-18.8513,24.455374,-20.422943,-16.127735,-1
49,50,1583586400783,16.354,-15.7121,-17.9643,24.755663000000002,-20.881365,-16.150557,-1
50,51,1583586400793,16.637499,-15.4787,-17.2797,24.626307999999998,-21.025389999999998,-15.591482000000001,-1
51,52,1583586400804,16.5515,-15.2954,-16.4324,24.394129,-20.271810000000002,-14.118023999999998,-1
52,53,1583586400814,16.242898999999998,-14.336499,-14.7718,23.815613,-19.452092999999998,-12.0552845,-1
53,54,1583586400824,15.5913,-13.560699,-12.6728,22.871751999999997,-18.577282,-9.078669,-1
54,55,1583586400834,14.8272,-12.839399,-10.1523,21.987179,-17.981853,-6.026129,-1
55,56,1583586400845,13.836599,-12.3046,-6.9069996,20.751005,-17.455673,-1.6149465,-1
56,57,1583586400855,12.5099,-11.8723,-2.188,19.340103,-17.133357999999998,3.2027330000000003,-1
57,58,1583586400865,10.9899,-11.6855,2.48,18.015954999999998,-17.110765,6.64323,-1
58,59,1583586400875,9.754399000000001,-11.712,5.7084,17.78913,-16.47002,8.748911,-1
59,60,1583586400886,9.6945,-10.9952,7.6404996,18.479742,-15.042511,10.094721,-1
60,61,1583586400896,10.3282995,-9.6057,9.0216,18.666288,-13.552694,11.534756,-1
61,62,1583586400906,10.184199000000001,-8.340899,10.4316,17.117698999999998,-12.216012,12.554102,-1
62,63,1583586400916,8.6334,-7.4423,11.297,14.919545000000001,-11.138487,13.121298000000001,-1
63,64,1583586400926,6.2827,-6.602999700000001,11.9674,12.1792555,-9.731558999999999,14.243077,-1
64,65,1583586400936,3.3878,-5.482199700000001,13.2318,9.092335,-8.591334,16.281605,-1
65,66,1583586400947,0.14039999,-4.6440997,15.419,6.658475999999999,-7.6156974,17.790375,-1
66,67,1583586400957,-2.9473,-3.7001998,17.281599,4.135725,-5.5454115999999996,18.380716,-1
67,68,1583586400967,-5.0927,-2.2381,17.736399,3.0807247,-3.5806723,18.00904,-1
68,69,1583586400977,-6.8220997,0.4411,16.722399,2.5392714,-2.1953201,16.988879999999998,-1
69,70,1583586400988,-7.187999700000001,0.7163,15.054198999999999,2.2434914,-1.6726849999999998,14.991256,-1
70,71,1583586400998,-7.187999700000001,0.7163,15.054198999999999,2.032754,-1.1046942,12.804449,-1
71,72,1583586401008,-7.5031,1.1747999,12.448199,1.5619006000000002,-0.24349031,9.590492,-1
72,73,1583586401018,-8.2745,1.9882,6.0761,1.3919697,0.19201496,5.837399,-1
73,74,1583586401028,-7.9792,2.2186,4.7408,1.7765455,0.69711494,4.8229755999999995,-1
74,75,1583586401038,-7.9535,2.5363,4.7648,1.6378638,1.1456925,4.833022,-1
75,76,1583586401049,-9.0114,2.4073,5.4154,0.41855437,1.1814045,5.49046,-1
76,77,1583586401059,-10.6419,2.2798,5.9435,-1.1944098,1.3159682,5.656177,-1
77,78,1583586401069,-11.844000000000001,2.3969,4.9888997,-2.2221544,1.582165,4.2944794,-1
78,79,1583586401079,-11.844000000000001,2.3969,4.9888997,-2.1305330000000002,1.7058016,2.5689976000000003,-1
79,80,1583586401089,-10.8384,2.5509999,0.9727,-0.7739975,2.0146728,0.18740854,-1
80,81,1583586401099,-10.8384,2.5509999,0.9727,0.649748,1.8340733,-1.3029245,-1
81,82,1583586401110,-8.2325,1.9463999,-1.7398,1.749989,1.3924486999999999,-2.4854877,-1
82,83,1583586401120,-7.3595996,1.6080999,-2.8237997999999997,2.5691411,1.1112256,-3.6045187000000007,-1
83,84,1583586401130,-7.3595996,1.6080999,-2.8237997999999997,3.234825,0.89201254,-4.510321599999999,-1
84,85,1583586401140,-5.8975,1.0969,-4.9209,4.008037600000001,0.6322512,-5.681862000000001,-1
85,86,1583586401150,-5.3280997,0.73829997,-5.5361,4.6811337,0.1406354,-6.125699,-1
86,87,1583586401160,-4.7387,0.2678,-5.0864997,5.3196959999999995,-0.25999114,-5.229693,-1
87,88,1583586401170,-4.2078,-0.0491,-3.7096,5.660726,-0.51005113,-3.7916972999999996,-1
88,89,1583586401181,-4.147599700000001,-0.2698,-2.2352,5.587253,-0.65084934,-2.6435242000000003,-1
89,90,1583586401191,-4.3424997,-0.50519997,-1.1294,5.453302,-0.89922386,-1.74499,-1
90,91,1583586401201,-4.1649,-0.66609997,-1.2306,5.8854456,-1.0535733,-2.2999084,-1
91,92,1583586401211,-3.3105,-0.7071,-2.1736999,6.947121000000001,-0.9900024,-3.3382833,d
92,93,1583586401221,-1.9849999,-0.5221,-3.1316,8.387885,-0.8430846,-4.139737,-1
93,94,1583586401231,-0.5607,-0.33429998,-3.6187,9.711025,-0.81402856,-4.455801,-1
94,95,1583586401241,0.5403,-0.4684,-3.7010998999999996,10.657827000000001,-1.0444274,-4.4587507,-1
95,96,1583586401251,1.2492,-0.6511,-3.6829998,11.134618,-1.2642343,-4.3853254,-1
96,97,1583586401261,1.3199999,-0.8091,-3.4201998999999996,10.952562,-1.3725479999999999,-4.00662,-1
97,98,1583586401271,0.8797,-0.7881,-2.906,10.430722,-1.3252959999999998,-3.4556663,-1
98,99,1583586401281,0.3304,-0.6705,-2.3091,9.961478,-1.1094348,-2.8003638,-1
99,100,1583586401291,-0.013499998999999999,-0.3606,-1.6594,9.557701,-0.7206068,-2.1376104,-1
100,101,1583586401302,-0.3184,-0.08779999599999999,-1.2677,9.284742999999999,-0.48530468,-1.8461211,-1
101,102,1583586401312,-0.57379997,0.1714,-1.0509,9.147957,-0.34271562,-1.8174767,-1
102,103,1583586401323,-0.5931,0.205,-1.1841999,9.308867,-0.45433328,-2.1470244,-1
103,104,1583586401334,-0.5931,0.205,-1.1841999,9.854582,-0.71716875,-2.190254,-1
104,105,1583586401344,0.45009997,-0.1943,-1.3326,10.774175999999999,-0.9915155999999999,-1.9481618000000003,-1
105,106,1583586401354,1.3169999,-0.4355,-1.1041,11.5604515,-1.2930988,-1.8491090000000001,-1
106,107,1583586401364,1.8499999,-0.6364,-1.0626999,11.618352999999999,-1.2752379999999999,-2.0114167000000003,-1
107,108,1583586401375,1.7928,-0.52849996,-1.2369,11.104499,-1.1026353000000002,-2.0961906999999997,-1
108,109,1583586401385,1.2142,-0.3867,-1.2524998999999999,10.394494,-1.0134752,-1.8655045,-1
109,110,1583586401395,0.4976,-0.3241,-0.9831,9.847639,-0.8861802,-1.570357,-1
110,111,1583586401405,0.0067999995999999995,-0.205,-0.6802,9.662567,-0.82130694,-1.2754966,-1
111,112,1583586401415,-0.081,-0.1787,-0.3721,9.838321,-0.88512677,-1.002548,-1
112,113,1583586401426,0.13589999,-0.2606,-0.070599996,10.079742,-0.96233505,-0.69769907,-1
113,114,1583586401436,0.3532,-0.3348,0.21939999,10.261041,-1.0216538,-0.5755756999999999,-1
114,115,1583586401446,0.5413,-0.3751,0.32,10.612681,-1.1360678999999998,-0.6451033,-1
115,116,1583586401456,0.86649996,-0.4721,0.2512,10.968623,-1.1373129,-0.7956506999999999,-1
116,117,1583586401466,1.2796,-0.4626,0.062,11.178202,-1.0977511,-1.0255994000000002,-1
117,118,1583586401476,1.4275,-0.4199,-0.1383,11.034741,-1.0783771999999998,-1.1471864999999999,-1
118,119,1583586401487,1.2219,-0.39589998,-0.2681,10.729299000000001,-1.0264804,-1.3095996,-1
119,120,1583586401497,0.9177,-0.3505,-0.3676,10.451601,-0.8771110000000001,-1.0408361,-1
120,121,1583586401507,0.7017,-0.2321,-0.103099994,10.155332000000001,-0.7200035,-1.007796,-1
121,122,1583586401517,0.40699998,-0.106,-0.064399995,9.878016,-0.5459738000000001,-1.1302546999999998,-1
122,123,1583586401528,-0.122899994,0.1692,-0.1236,9.607137,-0.42529643,-1.0602483,-1
123,124,1583586401539,-0.122899994,0.1692,-0.1236,9.539659,-0.48284346,-0.8732324,-1
124,125,1583586401549,-0.21899999999999997,0.0839,0.2747,9.525715,-0.47385082,-0.6907559,-1
125,126,1583586401559,-0.21899999999999997,0.0839,0.2747,9.485942999999999,-0.5406778,-0.61022455,-1
126,127,1583586401569,-0.30339998,-0.0486,0.3586,9.412134,-0.5796266,-0.69242233,-1
127,128,1583586401579,-0.39999998,-0.0337,0.28669998,9.307038,-0.5645623000000001,-0.8394454,-1
128,129,1583586401590,-0.5758,0.0021,-0.1364,9.144452000000001,-0.507973,-1.3091781999999998,-1
129,130,1583586401600,-0.7324,0.1171,-0.5448,8.961325,-0.34002453,-1.6131173,-1
130,131,1583586401610,-0.90849996,0.2907,-0.36249998,8.772182,-0.20660044,-1.3395176000000002,-1
131,132,1583586401620,-1.162,0.41489998,0.083299994,8.549972,-0.10001059,-0.9607548,-1
132,133,1583586401631,-1.3657,0.5117,0.3394,8.2801075,0.041496303,-0.6433411,-1
133,134,1583586401642,-1.5883,0.63119996,0.67829996,8.068508,0.19100942,-0.38801393,-1
134,135,1583586401652,-1.7209999999999999,0.7302,0.7614,7.9657674,0.17839676,-0.43422198,-1
135,136,1583586401662,-1.7973,0.69949996,0.746,7.90008,0.19029115,-0.4865784000000001,-1
136,137,1583586401673,-1.8726,0.7212,0.6145,7.880534,0.048247952000000004,-0.888584,-1
137,138,1583586401683,-1.8106999,0.5335,0.10669999599999999,8.087805,-0.14941734,-1.6454678,-1
138,139,1583586401693,-1.4641,0.4687,-0.7953,8.546849,-0.177803,-2.4508677000000003,-1
139,140,1583586401704,-0.9705,0.4933,-1.3652999,8.9959545,-0.17930655,-2.5372793999999996,-1
140,141,1583586401713,-0.5944,0.52169997,-1.0591,9.160321000000001,-0.12948800000000002,-1.8470691000000004,d
141,142,1583586401723,-0.63,0.6387,-0.2278,8.777431,-0.032925062000000005,-0.9253973,-1
142,143,1583586401733,-1.2736,0.6987,0.7163,7.8284745,-0.08622957,-0.17274645,-1
143,144,1583586401743,-2.2113,0.5832,1.2864,7.271564,-0.2988634,0.041400537,-1
144,145,1583586401754,-2.3941998,0.37399998,1.2973,7.643776400000001,-0.46211922,-0.24346158,-1
145,146,1583586401763,-1.7141,0.30359998,0.8534,8.512986,-0.5480710999999999,-0.8334503000000001,-1
146,147,1583586401773,-0.86689997,0.3579,0.1942,9.216277999999999,-0.5452459,-1.4904864,-1
147,148,1583586401783,-0.20549999,0.2724,-0.4596,9.920892,-0.8553908000000001,-2.2534799999999997,-1
148,149,1583586401793,0.57409996,0.1277,-1.4566,10.954526,-0.73894644,-3.5401623,-1
149,150,1583586401803,1.7658999,0.49499997,-2.832,12.198851,-0.24320300000000003,-4.636266,-1
150,151,1583586401813,2.6919,0.95309997,-3.3497,12.781819,-0.07624096,-4.231818,-1
151,152,1583586401824,3.234,1.0544,-2.5448,12.913059,-0.097444005,-2.7988505,-1
152,153,1583586401834,3.2147,1.0924,-0.6976,12.737478,-0.030205247999999997,-0.765953,-1
153,154,1583586401844,2.9194,0.9878,1.2012,12.446583,-0.5361959,0.5825189000000001,-1
154,155,1583586401854,2.81,0.48259997,1.7023,12.89291,-0.9521835999999999,-0.8499129000000001,-1
155,156,1583586401864,3.4062,0.0624,-0.0504,13.801317999999998,-1.4341363999999999,-2.6558878,-1
156,157,1583586401874,4.7083,-0.6207,-2.2166,15.46933,-2.4715345,-4.1946607,-1
157,158,1583586401884,6.7063,-1.7785,-3.3439998999999996,18.750076,-3.7373106,-4.8292294,-1
158,159,1583586401895,9.684899,-2.7013,-3.8802998,21.561874,-4.6126976,-5.340669,-1
159,160,1583586401905,12.311,-3.5265,-4.2836,23.017338,-5.377109,-4.462791999999999,-1
160,161,1583586401915,13.3848,-4.2999997,-3.063,22.48209,-6.131646599999999,-2.4239283,-1
161,162,1583586401925,12.4839,-5.1471,-1.0698,20.75023,-6.876224000000001,-1.1603259,-1
162,163,1583586401935,10.6873,-5.9623,0.0127,19.029652,-7.303024000000001,-0.40871897,-1
163,164,1583586401946,9.016,-6.4718,0.7716,17.645718,-7.1954093,0.28542715,-1
164,165,1583586401956,7.9041,-6.4742,1.2858,16.775387,-6.975449,0.314646,-1
165,166,1583586401967,6.7749,-6.364,1.3291998999999999,15.021432999999998,-6.612584,0.60656625,-1
166,167,1583586401977,5.2665,-6.2205997,1.6055,13.421731,-6.315214,0.33383793,-1
167,168,1583586401987,3.6636998999999997,-6.1032996,1.3403,11.996089999999999,-5.7538314,-0.21815008,-1
168,169,1583586401997,2.2312,-5.7170997,0.8229,10.577266999999999,-5.3110867,-0.065725625,-1
169,170,1583586402007,0.8224,-5.4783998,0.9975,9.006852,-4.8520985,0.6048710999999999,-1
170,171,1583586402018,-0.7486,-5.2244,1.6624999,7.2785454,-3.9031043,1.3067553,-1
171,172,1583586402028,-4.2268,-3.6887,3.1411,5.112128299999999,-2.666834,2.1717134,-1
172,173,1583586402038,-4.2268,-3.6887,3.1411,3.1917102,-1.6760656999999999,2.4229512000000004,-1
173,174,1583586402048,-7.9739,-2.0767,3.4408998,1.3529825,-0.5388773,2.2530968,-1
174,175,1583586402058,-9.3125,-1.2326,3.2094998,-0.07813717,0.65174955,1.892061,-1
175,176,1583586402069,-10.356199,-0.25869998,2.6318998,-1.0539085,1.8017325000000002,1.1548097,-1
176,177,1583586402079,-11.0869,0.5631,1.4654,-1.7199369999999998,2.6807015,-0.112498745,-1
177,178,1583586402089,-11.0869,0.5631,1.4654,-1.8870906000000003,3.1920743,-0.66019636,-1
178,179,1583586402099,-11.396999000000001,1.1615,0.597,-1.8495113,4.1729883999999995,-0.71895957,-1
179,180,1583586402109,-11.4495,2.6633,0.89849997,-2.1290869999999997,5.1795297,-0.34500447,-1
180,181,1583586402119,-12.4565,3.6969998,1.0674,-3.6870322,6.4415517,-0.37141728,-1
181,182,1583586402130,-14.091399,4.3466997,0.7382,-5.052015,6.961572,-0.75102276,-1
182,183,1583586402140,-15.603,4.7509,0.2004,-6.51107,7.4141245,-1.2565249,-1
183,184,1583586402150,-16.5738,4.9312,0.071899995,-7.400477400000001,7.521815299999999,-1.3666869,-1
184,185,1583586402160,-16.6147,4.6503,-0.0123,-7.1144757,7.169015400000001,-1.6290531000000001,-1
185,186,1583586402170,-16.06,4.3210998,-0.3788,-6.483584400000001,6.821492699999999,-1.9908264999999998,-1
186,187,1583586402180,-15.4958,3.78,-0.5754,-5.9838379999999995,5.9589095,-1.9822456999999998,-1
187,188,1583586402191,-15.194598999999998,2.8028998,-0.0374,-5.765477,4.893921,-0.9867942,-1
188,189,1583586402201,-15.0755,2.0028,1.3458999,-5.6905675,4.0495625,0.35466745,-1
189,190,1583586402211,-15.206099499999999,1.3004999,2.4089,-5.916206400000001,3.3238800000000004,1.3120128999999998,-1
190,191,1583586402221,-15.6536,0.7865,2.8639,-6.375471599999999,2.6855664,1.1972731,-1
191,192,1583586402231,-16.035999999999998,0.44709998,2.0235,-6.5749854999999995,2.25212,0.3557209,-1
192,193,1583586402242,-16.1174,0.1881,1.5435,-6.5530550000000005,1.653541,0.101293884,-1
193,194,1583586402252,-15.964298999999999,-0.2549,1.4829999,-6.058555999999999,1.0442933,0.39570406,-1
194,195,1583586402262,-15.466399,-0.38329998,2.2047,-5.6706185,0.5796074999999999,1.707583,-1
195,196,1583586402272,-15.287298999999999,-0.7101,3.5451,-5.6091356,-0.32407913,2.9405394,-1
196,197,1583586402282,-15.277698999999998,-1.4211,4.6696,-5.6292279999999995,-1.5908129999999998,3.9757156000000005,-1
197,198,1583586402292,-15.415799,-2.5126998,5.536299700000001,-5.6731567,-3.1518897999999997,4.378008400000001,-1
198,199,1583586402303,-15.2386,-3.5842998,5.3698997,-5.0405893,-4.373364,3.4937437000000005,-1
199,200,1583586402313,-14.331099499999999,-4.2671,4.1925,-4.0196824,-5.503369999999999,2.410099,-1
200,201,1583586402323,-13.2859,-4.848,3.2110999,-2.894494,-6.2161136,2.0581324,-1
201,202,1583586402334,-12.0773,-4.9830000000000005,3.1281,-1.6091143,-7.3940225,3.0393338,-1
202,203,1583586402344,-10.924000000000001,-5.5838,4.0352,-0.28682540000000006,-8.906104,4.6302905,-1
203,204,1583586402354,-9.437699,-6.6984,5.5175,0.8985056,-10.847831,5.9073286,-1
204,205,1583586402364,-7.7713,-9.0076,6.7518997,2.6986005,-15.378924,7.158098,-1
205,206,1583586402374,-6.0515,-12.4597,7.4393997,4.76449,-18.86852,6.488478,-1
206,207,1583586402384,-3.4554,-15.0413,6.2037997,8.32281,-20.549585,4.877343,-1
207,208,1583586402395,0.59819996,-15.785,4.4923,12.087635,-20.691113,3.9177952000000005,-1
208,209,1583586402405,4.4895997,-15.245398999999999,3.4308,14.21021,-20.470644,4.178878,-1
209,210,1583586402415,6.5060997,-14.607999999999999,3.6464,13.408066,-21.626259,5.735625700000001,-1
210,211,1583586402426,5.5579,-15.7197,5.025,11.088592,-23.93946,7.6407112999999995,-1
211,212,1583586402436,3.8237,-17.628899,6.4999,10.992364,-26.070654,8.738778,-1
212,213,1583586402446,4.911299700000001,-19.2927,6.9537997,14.153572,-27.032087,8.137901,-1
213,214,1583586402456,9.035,-19.598,5.8526998,19.24624,-26.03589,6.5311713,-1
214,215,1583586402466,13.581799499999999,-18.3161,4.3293,20.860172,-24.715374,5.6136274,-1
215,216,1583586402477,15.5843,-16.7635,3.2812997999999998,19.671785,-23.072298,5.119742,-1
216,217,1583586402487,14.7318,-14.9522,2.6515,17.16476,-21.807077,4.5961110000000005,-1
217,218,1583586402497,12.5309,-13.5573,1.9750999,15.006157,-20.849907,4.16299,-1
218,219,1583586402507,10.1314,-11.738899,0.67069995,14.198008999999999,-20.183761999999998,3.6023447999999996,-1
219,220,1583586402517,10.1314,-11.738899,0.67069995,14.782720999999999,-19.756598,3.4638736000000003,-1
220,221,1583586402527,11.8466,-10.821899,0.5191,15.4110365,-19.414965,3.6528144,-1
221,222,1583586402537,11.7409,-10.035399,0.3119,15.005285999999998,-18.487258999999998,3.4925084,-1
222,223,1583586402547,11.7409,-10.035399,0.3119,14.062526,-17.56898,3.5097177000000004,-1
223,224,1583586402557,9.091499,-7.8353996,0.42279997,12.276527,-16.571497,3.582243,-1
224,225,1583586402567,9.091499,-7.8353996,0.42279997,10.489611,-15.609601999999999,3.959454,-1
225,226,1583586402577,7.3795,-6.8420000000000005,0.7952,9.120348,-14.2911625,3.739992,-1
226,227,1583586402587,6.061899700000001,-5.5243998,0.5527,8.239386999999999,-12.841349000000001,1.9267386000000002,-1
227,228,1583586402598,5.3114,-4.2823,-0.9217,8.114438,-12.110973,0.36760575,-1
228,229,1583586402608,5.365,-2.8741999,-4.1231,8.377502999999999,-11.603538,-0.9183392,-1
229,230,1583586402618,5.365,-2.8741999,-4.1231,8.594236,-11.348372,-0.22460485,-1
230,231,1583586402628,5.3002996,-2.3811998,-1.3826,8.224687,-11.222169000000001,1.7616918999999998,-1
231,232,1583586402638,4.1505,-1.8535,0.59099996,6.792044000000001,-10.6195965,3.8632839,-1
232,233,1583586402648,4.1505,-1.8535,0.59099996,5.1522455,-10.296274,3.7897627000000003,-1
233,234,1583586402659,1.0565,-1.0134,0.055499997,3.9063315000000003,-9.745194999999999,2.7708097,-1
234,235,1583586402669,1.0565,-1.0134,0.055499997,3.8069627,-9.223805,1.4024466999999998,-1
235,236,1583586402682,1.2519,-0.119799994,-2.6265,4.4569980000000005,-8.900474,0.16854222,d
236,237,1583586402692,1.2519,-0.119799994,-2.6265,4.4569980000000005,-8.900474,0.16854222,-1
237,238,1583586402703,2.2322,-0.0077,-2.7215,5.050808,-9.185365,1.4423437,-1
238,239,1583586402713,1.7732999,-0.55469996,-0.64779997,4.4264097,-9.641976,3.5691513999999995,-1
239,240,1583586402723,1.1123999,-0.74899995,1.3053,3.7774086000000002,-9.454856,4.562544,-1
240,241,1583586402734,0.5625,-0.5573,1.7088,3.4559152,-9.339427,4.328132,-1
241,242,1583586402743,0.2122,-0.3437,1.3015,3.3335428,-9.041052,3.622092,-1
242,243,1583586402753,0.14459999,-0.076799996,0.47559997,3.3573027,-8.801353,2.830186,-1
243,244,1583586402763,0.1936,0.1872,-0.074499995,3.3695898,-8.515399,2.520826,-1
244,245,1583586402773,0.061699998,0.363,-0.4642,3.170086,-8.446408,2.1156986,-1
245,246,1583586402783,-0.0681,0.36409998,-0.8013,3.2746167,-8.561752,1.953525,-1
246,247,1583586402793,0.2122,0.21249999,-0.7898,3.7889872,-8.709100999999999,2.2507603,-1
247,248,1583586402804,0.69549996,0.0267,-0.4156,4.106688,-8.999908999999999,2.596186,-1
248,249,1583586402814,0.86899996,-0.30429998,0.0202,4.105165,-9.5082855,3.2116107999999994,-1
249,250,1583586402824,0.7822,-0.784,0.6056,4.074079,-9.948789,3.8498955,-1
250,251,1583586402834,0.7417,-1.1595,1.3008,4.0656037000000005,-10.062906,4.376083400000001,-1
251,252,1583586402844,0.6515,-1.2558,1.7745,3.8533334999999997,-9.992546,4.016762,-1
252,253,1583586402854,0.406,-1.1715,1.1388999,3.6656473,-9.924856,3.018399,-1
253,254,1583586402865,0.2624,-1.1489999,0.0971,4.081913,-10.1561365,2.151104,-1
254,255,1583586402875,0.7906,-1.4383,-0.6886,5.0006065,-10.364834,2.0878396,-1
255,256,1583586402885,1.7206,-1.6341,-0.5747,5.8448687,-10.808423,2.6283738999999997,-1
256,257,1583586402895,2.4953,-2.1987997999999997,0.0624,6.543516,-11.748425,3.5598620000000003,-1
257,258,1583586402905,3.1392,-3.2147,1.0794,7.2826257,-12.793819000000001,4.353051,-1
258,259,1583586402916,3.8607,-4.2055,1.7548,8.132786999999999,-13.513966,4.4357370000000005,-1
259,260,1583586402926,4.6454,-4.8908997,1.8228999,9.006326,-13.960235999999998,4.2790513,-1
260,261,1583586402936,5.4992,-5.33,1.5295999,10.497042,-14.464493,3.6183474,-1
261,262,1583586402947,6.7369,-5.7963,0.9461,11.95514,-14.95517,3.237133,-1
262,263,1583586402957,9.7362995,-6.9856,-0.3658,13.632623,-15.578295,2.3832076,-1
263,264,1583586402967,9.7362995,-7.5383,-0.361,15.508068,-16.080177,2.3763506000000003,-1
264,265,1583586402978,11.522699000000001,-7.5383,-0.361,16.939753,-16.789158,3.7130046,-1
265,266,1583586402988,12.8081,-8.2904,1.0224,17.928137,-17.710333,5.015929,-1
266,267,1583586402998,13.8216,-9.5927,2.5541,18.342476,-17.954626,5.009187,-1
267,268,1583586403008,13.325299,-9.6272,1.6348,17.949848,-17.892387,3.7278580000000003,-1
268,269,1583586403018,12.0573,-9.893599499999999,0.87759995,16.868866,-18.057787,2.9859717,-1
269,270,1583586403029,10.6216,-10.1157,0.7621,15.825376,-18.084717,2.804855,-1
270,271,1583586403039,9.7486,-10.0871,1.3040999,15.321253,-17.787167,3.295523,-1
271,272,1583586403049,9.7486,-10.0871,1.3040999,14.765770000000002,-17.157232,3.6196883,-1
272,273,1583586403059,7.1956997000000005,-8.8839,2.2542999,13.232341,-16.030243,3.7706475,-1
273,274,1583586403069,5.2483997,-8.0402,2.7907999,11.613497,-14.893744,4.178591,-1
274,275,1583586403080,3.4413998,-7.2472997,3.5918,10.218739999999999,-13.808262,4.735942,-1
275,276,1583586403090,1.8719,-6.4121,4.2116,8.730016,-12.486394,5.1034417,-1
276,277,1583586403100,0.1723,-5.9944,4.5477,7.309383,-11.760883,5.1269627,-1
277,278,1583586403110,-1.6688,-5.763099700000001,4.8382998,5.947264,-11.428453999999999,5.244566000000001,-1
278,279,1583586403120,-3.5927,-5.9289,5.4371,4.1716375,-11.039473,5.716051,-1
279,280,1583586403130,-4.9393,-5.4621997,5.8919,3.1555386000000003,-9.834508999999999,5.8971295,-1
280,281,1583586403140,-6.1219997,-4.2915,6.2683,2.0771327,-8.189195,6.141616,-1
281,282,1583586403150,-7.7514997,-3.0249,6.7860000000000005,0.35349908,-6.552154,6.5783277,-1
282,283,1583586403160,-10.024,-1.8057,7.3808,-1.9138386000000003,-4.989574,6.9869223,-1
283,284,1583586403170,-12.28,-0.6321,7.8325,-3.7484292999999997,-3.3421044,7.1357455000000005,-1
284,285,1583586403180,-13.7123995,0.7582,7.7021,-4.605926999999999,-1.9856935000000002,6.640691800000001,-1
285,286,1583586403191,-14.360999999999999,1.7523999,6.3883,-5.0628552,-0.723499,4.805546,-1
286,287,1583586403201,-14.3287,2.1297998,5.3856,-4.576708,-0.357665,4.296625,-1
287,288,1583586403211,-13.2866,1.7292999,5.8318,-3.1834838,-0.8693251000000001,4.8345346,-1
288,289,1583586403221,-11.6525,0.9597,6.3271,-1.5749633,-1.1562462,4.8093762,-1
289,290,1583586403231,-10.355,1.2347,5.7746,-0.7126485,-0.38850233,3.8412763999999995,-1
290,291,1583586403241,-10.5359,1.8254,4.6128,-1.6070265,0.15256812,2.438255,-1
291,292,1583586403251,-12.234699,1.9060999,3.0305,-3.7487454,0.33793676,0.35227326,-1
292,293,1583586403261,-13.7226,1.933,1.6004,-4.453444999999999,0.62930155,-0.6247813,-1
293,294,1583586403271,-13.7911,2.1794999,1.2070999,-3.8900892999999996,0.8953452,-0.58037364,-1
294,295,1583586403281,-12.536799,2.2433,1.4937999,-2.3087957,0.77149796,-0.38501635,-1
295,296,1583586403291,-10.5885,1.7186999,1.7943,-0.25879404,0.055114526,-0.15768214,-1
296,297,1583586403301,-8.448999,0.7795,2.0858,1.8547401000000001,-0.9190094999999999,-0.12472833,-1
297,298,1583586403311,-6.5839,0.145,1.7889999,3.5019987,-1.2928019,-1.0719319999999999,-1
298,299,1583586403322,-5.8217998,0.0665,0.6471,3.4488955000000003,-1.2726713,-2.8309233,-1
299,300,1583586403331,-6.2332,0.0672,-1.4096,2.9708881000000003,-1.3366061000000002,-4.6610794,-1
300,301,1583586403341,-6.6478996,0.0415,-3.3588,2.8429134,-1.225611,-6.2521895999999995,-1
301,302,1583586403351,-6.2746997,0.2579,-4.0875998,3.5806437000000004,-1.0822749,-5.7149980000000005,-1
302,303,1583586403361,-5.5316,0.1784,-2.161,4.1508274,-1.2149712,-3.4458307999999995,-1
303,304,1583586403372,-4.9089,-0.0058999998,0.5329,4.702241000000001,-1.5048037,-1.3851031,-1
304,305,1583586403382,-4.4711,-0.2942,1.3579,5.1601175999999995,-1.7721211,-1.4472854,-1
305,306,1583586403392,-3.6051998,-0.5701,0.8239,6.180468599999999,-2.0624132,-2.4052055,-1
306,307,1583586403402,-2.373,-0.8337,-0.5193,7.4587335999999995,-2.3630195,-3.9438152,-1
307,308,1583586403412,-1.1281999,-1.2039,-2.0795999,8.632016,-2.8437848,-5.2712083,-1
308,309,1583586403422,-0.14289999,-1.2361,-2.8004,9.430434,-2.4572363,-5.6196795,-1
309,310,1583586403433,0.1063,-0.6881,-2.945,9.107199000000001,-1.9740863000000002,-5.6417546,-1
310,311,1583586403443,-0.44689998,-0.2209,-2.6601999,8.407641,-1.6070360000000001,-4.8137726999999995,-1
311,312,1583586403453,-1.1034,0.0744,-1.5084,7.9161406,-1.4060668,-3.5795612,-1
312,313,1583586403463,-1.4218998999999999,0.2023,-0.4197,7.885801299999999,-1.4355729,-3.0975127000000002,-1
313,314,1583586403474,-1.0417,-0.0379,-0.3715,8.8143015,-1.8422233000000001,-3.6288532999999994,-1
314,315,1583586403483,-0.0058999998,-0.3074,-0.9576,9.789508,-1.9908075,-4.2324886,-1
315,316,1583586403493,0.83879995,-0.36859998,-1.5073999,10.410812,-2.2316737,-4.686516,-1
316,317,1583586403503,1.365,-0.57699996,-1.9260999,10.726052000000001,-2.3626652000000004,-4.913161,-1
317,318,1583586403513,1.5055,-0.5803,-1.9472,10.612805999999999,-2.2652116,-4.779028,-1
318,319,1583586403524,1.3017,-0.3744,-1.8051,10.257469,-1.9945328000000002,-4.4920588,-1
319,320,1583586403534,0.88439995,-0.1839,-1.3133,9.866563000000001,-2.0101240000000002,-3.4798381000000003,d
320,321,1583586403544,0.5572,-0.297,0.1019,9.530196,-2.1527321,-1.9607553,-1
321,322,1583586403554,0.2906,-0.36139998,1.0228,9.427533,-2.104781,-2.2965088,-1
322,323,1583586403564,0.259,-0.2686,0.1609,9.61474,-2.0821896,-4.0105557,-1
323,324,1583586403574,0.5001,-0.2999,-1.3323,9.944661,-2.2271535,-5.5968676,-1
324,325,1583586403585,0.86579996,-0.4222,-2.9466999,10.447797999999999,-2.2467189999999997,-7.083715,-1
325,326,1583586403595,1.3656,-0.3895,-4.3938,10.776742,-2.1296616000000004,-8.019254,-1
326,327,1583586403605,1.6178,-0.2826,-5.143399700000001,10.67044,-2.252513,-8.065012,-1
327,328,1583586403615,1.4296,-0.45369998,-5.003,10.299913,-2.4626951,-7.2490683,-1
328,329,1583586403626,1.0494,-0.718,-4.030999700000001,9.909371,-3.1658146,-5.601177,-1
329,330,1583586403636,0.73399997,-1.4211999,-2.5512,9.670658999999999,-3.7923772000000007,-4.614239700000001,-1
330,331,1583586403646,0.51449996,-2.1122,-1.4733,9.7478485,-4.6521926,-6.279282,-1
331,332,1583586403657,0.6045,-3.0147,-3.0863,10.318991,-5.3050723,-9.3847065,-1
332,333,1583586403667,1.1873,-3.7273998,-6.1275,10.817347999999999,-5.7151985,-12.13504,-1
333,334,1583586403678,1.6899998999999999,-4.1498,-8.870999000000001,10.951672,-6.0890580000000005,-13.988180999999999,-1
334,335,1583586403688,1.1336,-4.5867,-12.094999000000001,10.048636,-6.0260620000000005,-15.691406,-1
335,336,1583586403698,-0.0883,-4.8287,-13.4108,8.84624,-6.286848,-16.84995,-1
336,337,1583586403708,-0.76739997,-5.6217,-12.8362,8.3288145,-6.943950999999999,-15.762322,-1
337,338,1583586403718,-0.93259996,-6.272,-9.847099,8.151902,-7.3831625,-12.575937,-1
338,339,1583586403729,-1.5748,-6.598799700000001,-6.5073,7.325423700000001,-7.474209299999999,-9.580455,-1
339,340,1583586403739,-3.0793,-6.641,-5.9648,5.787886599999999,-7.2881800000000005,-9.560919,-1
340,341,1583586403749,-4.3216,-6.3483,-6.6317997,4.7387094,-6.8062366999999995,-9.967972,-1
341,342,1583586403759,-4.9277997000000004,-5.8894997,-6.558399700000001,4.2834663,-6.258539,-9.634449,-1
342,343,1583586403769,-5.2604,-5.608,-6.1292,3.9856657999999996,-5.9135633,-9.064323,-1
343,344,1583586403780,-5.861399700000001,-5.4367,-5.7233996,3.3540563999999997,-5.6183586,-8.485778,-1
344,345,1583586403790,-6.9824,-5.2966,-5.013499700000001,2.165249,-5.3432837,-7.5113864,-1
345,346,1583586403800,-8.6135,-5.0327,-3.4101,0.18135598,-4.7521935,-5.019406,-1
346,347,1583586403810,-10.1909,-4.4694,-0.6841,-0.98515654,-4.158422,-2.5612404,-1
347,348,1583586403820,-11.4333,-3.7884998,2.4178998,-2.3921714,-3.0899374,1.3046101,-1
348,349,1583586403831,-12.500299,-2.8769999,5.4473,-3.2785623,-2.0973878,4.281618,-1
349,350,1583586403841,-13.1577,-2.0751,7.6871,-3.7209535000000002,-1.2312614,6.146826,-1
350,351,1583586403851,-13.2892,-1.2447,8.7224,-3.5365230000000003,-0.40682274,6.988502499999999,-1
351,352,1583586403861,-12.7564,-0.3583,8.8882,-2.8497705,0.54909575,7.1598505999999995,-1
352,353,1583586403872,-12.1339,0.7026,8.709499000000001,-2.1567256,1.5855936000000002,6.9391245999999995,-1
353,354,1583586403882,-11.7908,1.4041,8.564199,-2.4053586,1.7567791000000001,8.091981,-1
354,355,1583586403892,-12.4894,1.3220999,10.440599,-3.227748,1.3189178999999998,10.4609375,-1
355,356,1583586403902,-13.5337,0.8678,14.091498999999999,-3.8812977999999996,0.985032,15.604545000000002,-1
356,357,1583586403912,-13.287498999999999,1.0482,18.726,-2.6345412999999995,1.3023021000000001,20.436647,-1
357,358,1583586403923,-11.576699000000001,1.6385,23.0899,-0.59396315,1.6278081,23.415993,-1
358,359,1583586403933,-9.5294,1.9499999,24.6638,1.4958589,1.2657666,23.067337,-1
359,360,1583586403943,-7.456,1.6883,23.0903,3.2852851999999997,0.6087306,20.702702,-1
360,361,1583586403953,-6.0288997,1.3228999,20.6232,4.078608999999999,-0.07738060000000001,18.906032999999997,-1
361,362,1583586403963,-5.4821,0.8315,19.248499,4.4571414,-1.5111146999999998,18.79458,-1
362,363,1583586403973,-5.1398,-0.1356,19.6105,4.9087744,-2.2078657,19.843548000000002,-1
363,364,1583586403984,-4.2179,-0.64559996,21.076898999999997,6.823378999999999,-3.1952439999999998,21.982641,-1
364,365,1583586403994,-2.3523998,-1.2089,22.8396,8.240574,-3.9786654,23.380299,-1
365,366,1583586404004,-0.6601,-1.9879999,24.229,9.444148,-5.5908346,23.935217,-1
366,367,1583586404014,0.3685,-3.7298,24.160799,10.194463,-8.055291,23.059237,-1
367,368,1583586404024,1.1744,-5.8686,22.5579,11.192031,-10.566005,19.71422,-1
368,369,1583586404034,2.2372,-7.4287,19.1521,12.370935000000001,-11.808729,15.504457999999998,-1
369,370,1583586404044,3.5454,-8.2324,14.8195,13.436604500000001,-12.821486,12.322267,-1
370,371,1583586404055,4.6839,-8.9753,11.8028,14.431289999999999,-13.744632999999999,10.330358,-1
371,372,1583586404065,5.8540998,-9.5171995,9.9396,15.339889999999999,-14.041323,10.160858000000001,-1
372,373,1583586404075,6.697,-9.5098,10.009299,15.085645000000001,-14.516045000000002,10.885304,-1
373,374,1583586404085,6.079,-10.2808,10.7069,13.357261,-16.226770000000002,10.892411,-1
374,375,1583586404095,4.569,-11.4924,10.2289,11.863375,-17.313957000000002,9.26468,-1
375,376,1583586404105,3.3416,-12.3968,8.0732,11.412517999999999,-18.920486,5.453761599999999,-1
376,377,1583586404116,3.2408,-14.0225,3.7249,12.364021000000001,-20.796235999999997,0.24549186,-1
377,378,1583586404126,4.6138,-15.674399,-1.7084999,14.830634,-21.99964,-4.8754854000000005,-1
378,379,1583586404136,7.3839999999999995,-16.6017,-6.7351,17.50532,-22.362714999999998,-8.400746,-1
379,380,1583586404146,9.9411,-16.629,-9.899799,18.478947,-21.748832999999998,-9.884988,-1
380,381,1583586404156,10.5092,-15.820298999999999,-10.9979,16.471216000000002,-20.337326,-8.795608,-1
381,382,1583586404167,8.6029,-14.5674,-9.931000000000001,13.061769,-18.945223000000002,-8.080114,-1
382,383,1583586404177,5.2009,-13.187798999999998,-9.2838,9.94312,-17.8398,-9.814523,-1
383,384,1583586404187,2.0733,-12.1152,-11.1248,8.872989,-16.988316,-12.859133,-1
384,385,1583586404197,0.99829996,-11.2976,-14.277598999999999,10.372879,-15.921872,-15.633879,-1
385,386,1583586404208,2.5001,-10.2585,-17.1372,12.521024,-15.399525,-17.33695,-1
386,387,1583586404218,4.6503,-9.7459,-18.8829,13.352569,-14.509732999999999,-18.074316,-1
387,388,1583586404228,3.7368998999999996,-7.2036,-18.9382,11.044663,-12.560366,-17.094467,-1
388,389,1583586404238,0.1647,-6.2836,-16.626799,7.401301400000001,-11.657502000000001,-14.638945000000001,-1
389,390,1583586404248,-3.2479,-5.7002997,-14.051398999999998,4.264839,-11.068682,-12.389917,-1
390,391,1583586404258,-5.4832,-5.6698,-13.797,2.3837917,-11.082923,-12.799182,-1
391,392,1583586404269,-5.982,-6.0498,-15.929298999999999,2.3129044,-11.409616,-15.015695999999998,-1
392,393,1583586404279,-4.7739,-5.9316998,-17.1525,3.6721019999999998,-11.097978,-15.789301000000002,-1
393,394,1583586404289,-3.8795,-5.4021,-16.3097,4.2973237,-10.642475,-14.662532,-1
394,395,1583586404299,-4.2028,-5.5051,-14.2793,3.8493307,-10.83924,-12.504638,-1
395,396,1583586404309,-4.9035997,-5.6205997000000005,-11.4814,3.1921124,-10.799736,-9.681271,-1
396,397,1583586404319,-5.5765,-5.0141,-8.9512,2.4811878,-10.140632,-7.517582400000001,-1
397,398,1583586404329,-6.3819,-4.3784,-8.1703,1.6845411,-9.5192795,-7.0380910000000005,-1
398,399,1583586404339,-6.3819,-4.3784,-8.1703,1.2140708999999998,-9.137633000000001,-7.4277524999999995,-1
399,400,1583586404349,-6.812999700000001,-3.9243,-9.2533,1.5536838,-9.185087,-8.226056,-1
400,401,1583586404359,-6.0443997000000005,-3.8883997999999997,-9.5826,2.3938186000000004,-9.13841,-8.260829,-1
401,402,1583586404369,-5.4754,-3.9469,-8.7375,2.6140852000000003,-9.428931,-6.856084,-1
402,403,1583586404380,-5.8388,-4.4217997,-6.9402,2.1083436,-9.978516,-4.816252700000001,-1
403,404,1583586404390,-5.8388,-4.4217997,-6.9402,1.8007941000000003,-10.309911,-2.9900994,-1
404,405,1583586404400,-6.3728,-4.9681997,-2.7026,1.7862756000000002,-10.3629,-0.9984779,-1
405,406,1583586404410,-6.0888995999999995,-4.7738,-1.7918999,2.1265012999999997,-10.183191,-0.57615983,-1
406,407,1583586404421,-5.6366,-4.492,-2.0191,2.4902759999999997,-10.011402,-0.93622863,-1
407,408,1583586404432,-5.3011,-4.3677998,-2.1,2.7715278,-10.00738,-0.6047179,-1
408,409,1583586404442,-4.9286,-4.3526998,-1.4343,3.0495330000000003,-10.310648,0.6244557,-1
409,410,1583586404452,-4.7001,-4.7328,-0.09999999400000001,3.2166674,-10.946252000000001,2.6185384,-1
410,411,1583586404462,-4.4241,-5.2078,2.3161,3.5136538,-11.189062,5.347114,-1
411,412,1583586404472,-4.0425997,-5.1531997,5.0401,3.7494347,-11.053196,7.360686,-1
412,413,1583586404483,-3.5456998,-4.7204,7.4255996,4.4198494,-10.41606,9.941175,-1
413,414,1583586404493,-2.7935,-3.9190998,9.3679,5.216439,-9.605172999999999,11.497589,-1
414,415,1583586404503,-1.9598999,-3.1116998,10.529099,5.936883,-9.00647,11.917015,-1
415,416,1583586404513,-1.2192999,-2.4448,10.478399000000001,6.464411699999999,-8.498296,11.473780999999999,-1
416,417,1583586404523,-0.6717,-1.8888999,9.9257,6.804953,-7.9454746,11.433904,-1
417,418,1583586404533,-0.3317,-1.2181,10.262,7.0163517,-7.511118,12.357126,-1
418,419,1583586404543,-0.067499995,-0.98179996,11.4432,7.204650999999999,-7.659367,13.908185999999999,-1
419,420,1583586404554,0.1761,-1.153,12.991699,7.433153,-7.9035470000000005,14.850553,-1
420,421,1583586404564,0.4687,-1.2143999,13.3503,7.7484894,-7.6408167,14.238748000000001,-1
421,422,1583586404574,0.7829999999999999,-0.8343,12.618799000000001,8.044402999999999,-7.216794500000001,13.131019,-1
422,423,1583586404584,1.1313,-0.3927,11.468699,8.384169,-6.925037,11.727757,-1
423,424,1583586404594,1.4949,-0.085,10.0373,8.667259,-6.731806,10.350709,-1
424,425,1583586404605,1.7768999,0.1196,8.7359,8.722728,-6.569823700000001,9.547032000000002,-1
425,426,1583586404615,1.7309999999999999,0.3778,7.7939,8.38798,-6.36669,8.321631,-1
426,427,1583586404626,1.4355999,0.4939,6.6535997,8.170214,-6.4787669999999995,6.650652,-1
427,428,1583586404636,1.3034999,0.39049998,5.2476,8.441217,-6.729976700000001,5.574812400000001,-1
428,429,1583586404647,1.5813999,0.1585,4.178999999999999,8.894067,-7.066812,5.108901,-1
429,430,1583586404657,2.043,-0.1637,3.7110999,8.948186,-7.082000999999999,5.6440339999999996,-1
430,431,1583586404667,2.1562,-0.19759999,4.1137,8.435625,-6.992553,5.8458934000000005,-1
431,432,1583586404677,1.5856999,-0.0932,4.4382,7.535931599999999,-6.829891,5.369438,-1
432,433,1583586404688,-0.0173,0.3594,2.9417999,6.755709599999999,-6.456118,4.1950054,-1
433,434,1583586404698,-0.3759,0.5711,1.9619999,6.456846,-6.264141599999999,3.3157872999999998,-1
434,435,1583586404708,-0.3006,0.5628,1.2033,6.67196,-6.3182597000000005,2.5723207,-1
435,436,1583586404718,0.3358,0.4335,0.45389998,7.375242699999999,-6.432281,1.8803102999999999,-1
436,437,1583586404729,0.3358,0.4335,0.45389998,7.965834599999999,-6.541668,1.7807976000000003,d
437,438,1583586404739,1.3993,0.2681,0.7395,8.240306,-6.582685000000001,2.5417514,-1
438,439,1583586404749,1.0081,0.20289999,1.7413,7.639715700000001,-6.6935077000000005,3.419897,-1
439,440,1583586404759,0.0458,0.0524,1.9964998999999999,6.744178999999999,-6.7560253,3.4562695,-1
440,441,1583586404769,-0.728,0.24219999,1.6114998999999999,5.9934244,-6.4842644,2.9366512000000005,-1
441,442,1583586404779,-0.9952,0.3962,0.8602,5.967385,-6.3523917,2.1116377999999996,-1
442,443,1583586404790,-0.7662,0.4583,0.0626,6.2810154,-6.318308,1.4747803999999998,-1
443,444,1583586404800,-0.38869998,0.38939998,-0.273,6.690472,-6.519354,1.4790995,-1
444,445,1583586404810,0.0552,0.0797,0.1937,7.1448917000000005,-6.9133725,2.0781958,-1
445,446,1583586404820,0.59349996,-0.4252,0.74869996,7.717307000000001,-7.434992299999999,2.4959936000000003,-1
446,447,1583586404830,1.1679,-0.86439997,1.0306,8.2762,-7.752789,2.7024312000000004,-1
447,448,1583586404840,1.5631,-1.0445,1.2612,8.516108500000001,-7.912932400000001,2.8711267000000005,-1
448,449,1583586404850,1.6323999,-1.1529,1.3449999,8.523674,-7.9369125,3.0771143,-1
449,450,1583586404861,1.6327,-1.1386,1.9102999,8.641478999999999,-7.861993300000001,3.8391309999999996,-1
450,451,1583586404871,1.9684999,-1.0670998999999999,2.6074,9.11122,-7.864397,4.366803599999999,-1
451,452,1583586404881,2.553,-1.319,2.6641,9.799180999999999,-8.233812,4.233351,-1
452,453,1583586404891,3.4032,-1.6882,2.3574,10.785592,-8.463446000000001,4.195139,-1
453,454,1583586404901,4.5716,-1.8714,2.9357,12.032549000000001,-8.735341,5.325825,-1
454,455,1583586404911,5.8269,-2.3718,4.7514997,13.5971985,-9.259153,7.999229,-1
455,456,1583586404922,7.1776,-2.6262999,7.3676996,15.084381,-9.239646,10.728159,-1
456,457,1583586404932,8.5967,-2.5424,9.8329,16.015438,-9.08882,12.190864,-1
457,458,1583586404942,9.1347,-2.4408,10.9192,16.131441,-9.025872,12.8619,-1
458,459,1583586404952,8.7118,-2.6585999,10.783,15.576494,-9.246253999999999,11.953664999999999,-1
459,460,1583586404962,8.1816,-2.9752998,9.2907,15.323916,-9.351828999999999,10.899364,-1
460,461,1583586404973,7.8627996,-3.3072,7.0903997,15.34508,-9.64306,8.010406,-1
461,462,1583586404983,8.1299,-3.5807,5.3549,15.982254000000001,-9.743758999999999,7.247889999999999,-1
462,463,1583586404993,8.7247,-3.8425,5.4089,16.61986,-9.823851,8.027586,-1
463,464,1583586405003,9.0643,-3.9789,6.5367,16.721554,-9.603133999999999,9.052841,-1
464,465,1583586405013,8.6636,-3.9115998999999997,7.5952997,16.144073000000002,-9.374908,9.586537,-1
465,466,1583586405023,7.7942,-3.8516,7.7703,15.320601000000002,-9.106605,8.675782,-1
466,467,1583586405033,6.7292,-3.8337998,6.4651,14.41455,-8.838904,6.721711999999999,-1
467,468,1583586405044,5.7658,-3.7454998,4.3807,13.774675,-8.558697,4.329234,-1
468,469,1583586405054,4.9546,-3.846,2.1004,12.951883,-8.438814,2.2615726,-1
469,470,1583586405064,3.8346998999999995,-3.9866,0.5581,11.632316000000001,-8.193389999999999,1.3471503,-1
470,471,1583586405074,2.5535,-3.9810000000000003,0.3797,10.607778999999999,-7.6115026,1.9894859,-1
471,472,1583586405084,1.4376999,-3.6100998,1.2909,9.817232,-6.8796144,2.6397605,-1
472,473,1583586405094,0.5301,-3.1836998,2.0381,9.181026,-6.344347,2.9505088,-1
473,474,1583586405105,-0.39609998,-2.9059,2.7524,7.925727,-5.7997236,3.4893767999999996,-1
474,475,1583586405115,-1.7543,-2.7673,3.1582,6.220883000000001,-5.651417299999999,3.0775452000000003,-1
475,476,1583586405126,-3.6499998999999996,-2.9706,2.7756998999999998,4.201997,-5.483143,2.071425,-1
476,477,1583586405136,-5.687599700000001,-2.97,1.8755,2.1354556000000002,-4.3510017,0.26725996,-1
477,478,1583586405146,-7.4549,-2.2252998,0.4398,0.9358934000000001,-3.5143626000000006,-2.6665277,-1
478,479,1583586405157,-8.6974,-1.6197,-2.3387,0.8518474,-2.8724194,-4.747635,-1
479,480,1583586405167,-8.8181,-1.1777999,-4.2825,1.7149092000000001,-2.2558553,-4.5151296,-1
480,481,1583586405177,-7.9659996,-0.7466,-3.8941,2.4750874,-1.9235783,-2.6463970000000003,-1
481,482,1583586405187,-7.5804996,-0.4861,0.4312,1.922295,-1.6173598999999999,-0.13932338,-1
482,483,1583586405198,-7.5804996,-0.4861,0.4312,0.82180494,-1.3587573999999998,1.1033247,-1
483,484,1583586405208,-10.3397,-0.17,2.2914999,-0.9002677,-0.99205184,0.8020193,-1
484,485,1583586405218,-11.172999,-0.1871,1.0223,-1.5537316,-0.9039451999999999,-0.75961316,-1
485,486,1583586405228,-11.080999,-0.19319999,-0.1859,-1.341069,-0.8557164,-1.9563979,-1
486,487,1583586405238,-10.3993,-0.4114,-0.778,-0.582222,-1.0953665000000001,-2.5402862999999996,-1
487,488,1583586405248,-9.406899000000001,-0.7285,-1.1712999,0.45014822,-1.3767521,-3.0372555,-1
488,489,1583586405259,-9.406899000000001,-0.7285,-1.1712999,1.3393068000000001,-1.5193603,-3.2358115,-1
489,490,1583586405268,-8.3013,-0.8915,-1.4534999,2.270393,-1.4587393,-3.368211,-1
490,491,1583586405278,-6.8996997,-1.0846,-2.0586,2.775799,-1.8908926,-3.9290862,-1
491,492,1583586405288,-6.6190996,-1.6128,-1.7444998999999999,3.0636876,-2.479828,-3.3143604,-1
492,493,1583586405298,-6.4335,-2.2640998,-0.47149998,3.1728918999999998,-3.126291,-2.223859,-1
493,494,1583586405308,-6.4335,-2.2640998,-0.47149998,3.1927828999999996,-3.4340512999999997,-2.4551198,-1
494,495,1583586405319,-6.0712,-2.5107,-1.1991999,3.6446836000000005,-3.2393452999999996,-3.288819,-1
495,496,1583586405329,-5.1593,-2.1862,-1.6191,4.609910500000001,-2.9904153,-3.7916300000000005,-1
496,497,1583586405339,-4.157,-1.9466,-1.9956,5.557622,-2.7370512000000002,-4.2094855,-1
497,498,1583586405349,-3.37,-1.6984999,-2.0005,6.250207,-2.6209037,-4.1796727,-1
498,499,1583586405359,-2.9865,-1.8946999,-1.4447,6.5189037,-2.8979895,-3.6300120000000002,-1
499,500,1583586405370,-2.9292998,-2.3174999,-0.7949,6.5817179999999995,-3.393101,-3.1146936000000003,-1
500,501,1583586405380,-2.6701999,-2.8048,-0.6547,6.874998,-3.8731480000000005,-3.133627,-1
501,502,1583586405390,-2.1499999,-2.7278,-0.9047,7.5358167,-3.564861,-3.5631754,-1
502,503,1583586405400,-1.5819,-2.1302,-1.4837999,8.031455000000001,-2.9471857999999997,-4.2819433,-1
503,504,1583586405410,-1.2375,-1.4893,-2.3095,8.231007,-2.3286006,-5.025132,-1
504,505,1583586405420,-1.2054,-0.9065,-2.5867,8.20965,-1.9004215,-4.948039,-1
505,506,1583586405431,-1.0935999,-0.7245,-1.9636999,8.4112425,-1.918991,-4.314304,-1
506,507,1583586405441,-0.7364,-0.8998,-1.4864998999999999,8.874061,-2.1024540000000003,-3.9774585,-1
507,508,1583586405451,-0.2447,-0.93799996,-1.1273999,9.296397,-2.1017451,-3.6682137999999997,-1
508,509,1583586405461,0.085,-0.8483,-0.9928,9.556934,-1.8963323,-3.767401,-1
509,510,1583586405472,0.26319999,-0.4847,-1.3837999,9.626137,-1.5472194,-4.2556744,-1
510,511,1583586405482,0.2146,-0.1626,-1.7095,9.473923,-1.0686662,-4.25284,d
511,512,1583586405492,0.0005999999700000001,0.3207,-1.538,9.202066,-0.73089236,-4.2496410000000004,-1
512,513,1583586405502,-0.2209,0.51,-1.5843999,9.111775999999999,-0.6340804,-4.3323846,-1
513,514,1583586405512,-0.1962,0.50659996,-1.7656,9.402766999999999,-0.882972,-4.757958400000001,-1
514,515,1583586405522,0.27089998,0.21419999,-2.347,9.92072,-1.061972,-5.449710400000001,-1
515,516,1583586405532,1.1011,0.0712,-3.2821,10.833782000000001,-1.429645,-6.5990615,-1
516,517,1583586405543,1.6453999,-0.4102,-4.1225,11.117581,-1.967804,-6.715286,-1
517,518,1583586405553,1.7559999,-0.8854,-3.5131,10.998244,-2.3158537999999997,-5.3296269999999994,-1
518,519,1583586405563,1.5212,-1.2178999,-1.9533,10.5385475,-2.563874,-3.9785695,-1
519,520,1583586405573,0.8915,-1.3912,-0.96849996,9.800904,-2.5241206000000003,-3.8039362,-1
520,521,1583586405583,0.1908,-1.2888,-1.3455,9.293774,-2.4008768,-4.9577117,-1
521,522,1583586405593,-0.1095,-1.3140999,-3.0077,9.502098,-2.8407586,-7.6186852,-1
522,523,1583586405604,0.2674,-1.8680999,-5.3778996,10.398162,-3.9606800000000004,-10.04042,-1
523,524,1583586405614,1.2666,-3.0953,-7.7541,11.670910000000001,-5.1342983,-11.895706,-1
524,525,1583586405624,2.5258,-4.1875,-9.4416,12.485599,-6.0351405,-12.849288,-1
525,526,1583586405634,3.2179,-5.1109,-9.965099,12.547963000000001,-6.5623345,-11.16285,-1
526,527,1583586405644,3.0753,-5.5811,-7.7440996,11.454369,-6.5020194,-8.291696,-1
527,528,1583586405654,1.7314999,-5.5429997,-5.0120997,9.267686999999999,-6.1453795,-7.195792699999999,-1
528,529,1583586405665,-0.54499996,-5.2514,-4.3371,7.171400500000001,-5.4185767,-7.783243,-1
529,530,1583586405675,-2.5274,-4.6066,-5.2223997,6.3526692,-4.8750160000000005,-9.254930499999999,-1
530,531,1583586405685,-3.0354,-4.2222,-6.8455997,6.856965,-4.7478169999999995,-11.188095,-1
531,532,1583586405695,-2.4171,-4.2953,-8.964,7.6989384,-5.149602,-13.066499,-1
532,533,1583586405706,-1.6087999,-4.7462,-10.7219,8.215876,-5.26823,-13.428120000000002,-1
533,534,1583586405716,-1.2076,-4.8835998,-10.6285,7.6415353,-5.165107,-11.691213000000001,-1
534,535,1583586405726,-2.1857998,-4.8506,-8.7382,4.9700084,-4.728328,-8.656025,-1
535,536,1583586405736,-4.5562997,-4.6047997,-6.2432,2.8900888,-3.9821322,-6.848097,-1
536,537,1583586405746,-7.1591997,-3.8950998999999995,-4.0801997000000005,0.10882126,-2.392545,-3.4019022000000003,-1
537,538,1583586405756,-9.4564,-2.6531,-1.2002,-1.2675,-1.5374508999999998,-1.6139218000000002,-1
538,539,1583586405766,-10.8237,-1.8734,0.5121,-1.0528933,-0.6124655,-1.7418776000000002,-1
539,540,1583586405777,-10.6347,-1.0181999,0.2554,-0.13383588,0.42539218,-0.96731496,-1
540,541,1583586405787,-9.740399,-0.042099997,0.8738,0.6619106,0.6164878,1.5865226000000001,-1
541,542,1583586405798,-8.9928,0.1466,3.2633,0.8191809,0.31819898,5.9402537,-1
542,543,1583586405808,-8.962,-0.3444,11.3405,0.69745964,0.15556565,10.636548,-1
543,544,1583586405818,-9.1424,0.34809998,14.5152,0.59713304,1.0049325999999998,13.956510999999999,-1
544,545,1583586405828,-9.2541,1.4144,17.3263,0.43706632,2.01225,16.784304000000002,-1
545,546,1583586405838,-9.2541,1.4144,17.3263,0.21317014,2.5264382000000003,18.103775,-1
546,547,1583586405848,-9.805099499999999,2.7159,21.3851,0.040299203,2.939869,21.22889,-1
547,548,1583586405858,-8.9844,2.5658998,23.221899,1.1415362,2.607056,23.218327,-1
548,549,1583586405868,-8.9844,2.5658998,23.221899,2.834754,2.1958277,24.617995999999998,-1
549,550,1583586405878,-4.7734,2.1325,25.6948,5.749168,1.9038883000000002,25.900676999999998,-1
550,551,1583586405888,-4.7734,2.1325,25.6948,7.071294,1.8889868000000003,26.366184000000004,-1
551,552,1583586405898,-2.0623,2.2586,26.8189,7.630339599999999,1.5080788999999999,26.857828,-1
552,553,1583586405908,-2.6495,1.4538,26.0336,7.004983999999999,0.47139916,25.8553,-1
553,554,1583586405918,-3.1159,0.37039998,24.1335,6.670744,-0.7827411,23.68304,-1
554,555,1583586405929,-2.5967999,-0.5876,20.8291,7.381218400000001,-1.8797356,20.070354000000002,-1
555,556,1583586405939,-1.1294,-1.3379999,16.473,8.959849,-2.8654474999999997,15.517971,-1
556,557,1583586405949,0.9051,-2.416,11.985,11.032741,-4.2698383,10.91801,-1
557,558,1583586405959,3.1346998,-3.8451,7.836,13.215715,-5.932698,6.8379455,-1
558,559,1583586405969,5.1584,-5.205,5.2393,15.079735999999999,-7.499061,4.27388,-1
559,560,1583586405980,6.407,-6.5627,3.4391,16.113447,-9.374574,1.8550081999999999,-1
560,561,1583586405990,6.611000000000001,-7.9108996,1.7088,16.005268,-10.558631,0.25937822,-1
561,562,1583586406000,6.0085998,-9.0562,-0.86359996,15.004175,-12.079188,-3.8446379,-1
562,563,1583586406010,5.2128997,-10.040999000000001,-5.7641,14.44713,-13.034542,-9.399598,-1
563,564,1583586406020,5.2377996,-10.3321,-11.365399,14.621323,-13.182570000000002,-13.742104999999999,-1
564,565,1583586406031,6.0582,-10.0034,-15.679298999999999,15.691741,-12.853885,-18.242247,-1
565,566,1583586406041,6.9877996,-9.245,-17.674,16.331137,-11.993657,-19.191404000000002,-1
566,567,1583586406051,7.071399700000001,-8.3652,-16.9221,15.7538185,-11.63809,-17.85699,-1
567,568,1583586406061,5.638099700000001,-8.8693,-15.3598995,14.03775,-12.472843,-17.200243,-1
568,569,1583586406072,4.1173997,-9.4716,-16.3036,12.724463,-12.95175,-19.403586999999998,-1
569,570,1583586406082,3.2935998,-9.6465,-19.4047,12.134169,-12.692908000000001,-23.314208999999998,-1
570,571,1583586406092,3.0849,-9.0854,-22.1684,11.985221000000001,-11.869773,-25.195084,-1
571,572,1583586406102,3.0849,-9.0854,-22.1684,11.559579,-10.944949000000001,-25.347164000000003,-1
572,573,1583586406112,1.8405999,-6.8704,-22.553998999999997,9.719636,-9.463696,-23.50091,-1
573,574,1583586406123,-0.1519,-5.8754,-20.4314,7.704608,-8.666541,-20.874365,-1
574,575,1583586406133,-2.1225,-5.2955,-17.6329,5.9542556,-8.041013000000001,-17.995394,-1
575,576,1583586406143,-3.7508998,-4.6997,-14.9127,4.559585,-7.270788700000001,-15.5354185,-1
576,577,1583586406153,-5.1334,-4.000499700000001,-12.698299,3.2814257000000007,-6.4771776,-13.658806,-1
577,578,1583586406163,-6.3482,-3.3664,-11.138499000000001,2.348185,-5.863735,-12.562894,-1
578,579,1583586406173,-7.0814,-2.9169998,-10.4,2.0669432,-5.308041,-12.117419,-1
579,580,1583586406183,-7.1552997000000005,-2.5807998,-10.1377,2.2951775000000003,-5.0903215,-11.424422,-1
580,581,1583586406194,-6.851999799999999,-2.4292,-9.0113,2.5250306,-4.9741935999999995,-9.174849,-1
581,582,1583586406204,-6.8185,-2.4290000000000003,-6.9315,2.3177595,-4.9026356,-6.6460743,-1
582,583,1583586406214,-7.1057,-2.4076,-4.4097,1.7049876,-4.7886809999999995,-4.402084400000001,-1
583,584,1583586406224,-7.8016996,-2.3342,-2.3588998,0.92087704,-4.680587999999999,-2.8793533,-1
584,585,1583586406234,-8.5913,-2.3007998,-0.9068,0.48017150000000003,-4.8174305,-1.4893945,-1
585,586,1583586406244,-9.0033,-2.5170999,1.1199,0.48634854,-4.6954703,1.2375915000000002,-1
586,587,1583586406254,-8.7821,-2.2424998,3.2468,1.1107277,-4.1959724000000005,2.6226754,-1
587,588,1583586406264,-8.165299000000001,-1.7469,4.4353,1.4167258,-3.875025,3.5040962999999996,-1
588,589,1583586406275,-7.9781,-1.4247999,5.2669,1.3140337,-3.5832486000000006,4.197141,-1
589,590,1583586406285,-8.0935,-1.0843999,5.6927,1.4243202,-3.6250799,4.3051195,-1
590,591,1583586406295,-7.9026,-1.1601,5.8062997,1.6183174999999999,-3.8169322,5.300475,-1
591,592,1583586406305,-7.7471,-1.179,6.9013995999999995,1.5724254999999998,-3.4164205,6.8016396,-1
592,593,1583586406315,-7.8423996,-0.5979,8.3565,1.0566857,-2.5263902999999996,9.258962,-1
593,594,1583586406325,-8.2862,0.25239998,10.4236,0.70410603,-2.14169,12.561782000000001,-1
594,595,1583586406336,-8.6163,0.73569995,13.6677,0.6233448,-2.3408015,15.403001000000001,-1
595,596,1583586406346,-8.653999,0.551,17.006199,1.0805895,-3.0019362000000003,18.552677,-1
596,597,1583586406356,-8.1713,0.1642,19.456099,2.371859,-3.3882358,21.4624,-1
597,598,1583586406366,-6.8222,-0.0273,22.229599,3.3042667000000003,-3.5972687999999993,22.742014,-1
598,599,1583586406376,-5.6657,-0.1228,23.513699,4.0849485,-4.4764004,23.405457000000002,-1
599,600,1583586406386,-4.9599,-0.70419997,23.9007,4.485192,-4.685836,23.30557,-1
600,601,1583586406397,-4.4122,-0.7162,23.5459,4.8480573,-4.8541675,22.245697,-1
601,602,1583586406407,-3.5216,-0.6847,21.0278,5.310617,-5.207455599999999,20.405495000000002,-1
602,603,1583586406418,-3.5216,-0.6847,21.0278,5.641323000000001,-5.5156754999999995,19.021856,-1
603,604,1583586406428,-2.8803,-0.94869995,18.6042,6.2690163,-6.4049015,15.363659,-1
604,605,1583586406438,-1.5051999,-2.2596,13.044499,6.9969015,-7.6399740000000005,12.755646,-1
605,606,1583586406449,-0.3742,-3.1,11.3726,8.050388,-8.74123,11.173594999999999,-1
606,607,1583586406459,0.95549995,-4.2739,9.684,9.236868,-10.247595,9.540329,-1
607,608,1583586406469,2.2507,-5.5832,8.0462,10.30066,-11.721207000000001,7.923582000000001,-1
608,609,1583586406480,3.0962,-6.4144998,6.2321,10.823659,-12.642812,6.132173000000001,-1
609,610,1583586406489,3.0293,-6.8385997000000005,4.8287,10.246198,-13.339198999999999,5.107809,-1
610,611,1583586406499,2.2542999,-7.1028,4.9537,9.394503,-13.667568,5.558694999999999,-1
611,612,1583586406509,1.3312,-7.4426,4.5917,8.35245,-14.242091,4.8031898,-1
612,613,1583586406520,1.0777,-8.1692,0.94439995,8.335969,-15.316206,-0.36312377,-1
613,614,1583586406530,2.2597,-8.817699000000001,-4.5477,9.848463,-15.934083,-5.263241000000001,-1
614,615,1583586406540,4.3023,-8.8462,-8.1306,11.685093,-15.809048,-7.3524975999999995,-1
615,616,1583586406550,5.7612,-8.425,-8.3309,12.367478,-15.584748999999999,-6.738002000000001,-1
616,617,1583586406560,5.4681,-7.9261,-5.825,11.196686,-15.060073999999998,-3.1323244999999997,-1
617,618,1583586406571,3.5396998,-7.3245997,-2.6111,8.894382,-14.517509,-0.39542636,-1
618,619,1583586406581,1.3483,-6.8339,-1.4166,6.885915799999999,-14.236556,-0.3312426,-1
619,620,1583586406591,0.2136,-6.778,-3.2203999,6.46581,-14.343548,-3.1035461,-1
620,621,1583586406601,1.2636,-6.8718,-7.1205997000000005,8.177491999999999,-14.446422,-7.0916257,-1
621,622,1583586406611,3.6845,-6.7072997,-10.7134,10.472852,-14.078691500000001,-9.604436,-1
622,623,1583586406621,5.4330997000000005,-5.9744,-11.6473,11.439477,-13.222152,-9.132625,-1
623,624,1583586406632,5.289,-5.3964,-10.3571,10.507922,-13.036696000000001,-7.558925599999999,-1
624,625,1583586406642,3.7782,-5.3501997,-8.1098995,9.084894,-13.017600999999999,-5.4082813,-1
625,626,1583586406652,2.6434,-5.0987,-6.0309,7.8376779999999995,-12.556716999999999,-2.8201110000000003,-1
626,627,1583586406662,1.9246,-4.6584,-4.3066,7.409336,-12.210295,-1.9725348999999999,-1
627,628,1583586406672,1.5381,-4.1668997,-4.322,7.025411599999999,-11.465258,-2.8936322,-1
628,629,1583586406682,1.3461,-3.3878998999999994,-5.5702996,6.948892599999999,-10.794172,-3.7788737,-1
629,630,1583586406693,1.3379999,-2.5518,-6.5901,6.9591494,-9.796327,-4.520492,-1
630,631,1583586406703,1.288,-1.7909,-6.6488,6.6508145,-9.211949,-3.6133292,-1
631,632,1583586406713,0.86079997,-1.4064,-5.2925,6.0908203,-9.238572999999999,-1.7176769,-1
632,633,1583586406723,0.3321,-1.6535,-3.1934998,5.6971655,-9.553688000000001,0.5026579000000001,-1
633,634,1583586406734,0.020499998999999998,-1.8881999,-1.1673,5.481678,-9.62222,1.8478831999999998,-1
634,635,1583586406743,-0.0901,-1.8701999,-0.3462,5.479121,-9.585061,2.006839,-1
635,636,1583586406753,-0.0011999999,-1.8195,-0.64239997,5.6040410000000005,-9.579765,0.9689909,-1
636,637,1583586406763,0.12019999,-1.8241999,-2.2986999,5.606646,-9.496487,-1.0405391,-1
637,638,1583586406773,0.0843,-1.6851,-4.3245997,5.5750327,-9.285364999999999,-2.4538173999999997,-1
638,639,1583586406783,0.18969999,-1.4541998999999999,-5.1584,5.746103,-9.098101,-2.2378411,-1
639,640,1583586406794,0.3462,-1.3407999,-4.2302,5.779105,-9.1493845,-0.35524207,-1
640,641,1583586406804,0.3462,-1.3407999,-4.2302,5.647453,-9.410209,1.9199966,-1
641,642,1583586406814,0.1454,-1.7791,0.2516,5.538918499999999,-9.718256,3.7936892999999996,-1
642,643,1583586406824,0.0625,-1.9745,1.7066,5.5104565999999995,-9.645913,4.0833683,d
643,644,1583586406834,0.0332,-1.8226,1.4272,5.443102400000001,-9.327119999999999,2.830885,-1
644,645,1583586406844,-0.0093,-1.4836,0.0953,5.4975276,-9.173834,1.4593809,-1
645,646,1583586406855,0.0879,-1.385,-1.4043,5.822008599999999,-9.149747999999999,0.040414125,-1
646,647,1583586406865,0.4784,-1.3556,-2.7265,6.3511752999999995,-9.070223,-0.67640984,-1
647,648,1583586406875,1.0188,-1.2947999,-3.2818,6.635567999999999,-9.098101,-0.22617544,-1
648,649,1583586406885,1.2052,-1.3783,-2.5897,6.5293903,-9.233325,1.1341046000000001,-1
649,650,1583586406895,0.9989,-1.5199,-1.1582,6.113201,-9.369297,2.3680380000000003,-1
650,651,1583586406905,0.5535,-1.6635,0.0209,5.822507,-9.586183,3.2153745,-1
651,652,1583586406915,0.2978,-1.8987,0.8297,5.9494667,-9.87749,3.3563836000000005,-1
652,653,1583586406926,0.5029,-2.2354,0.68549997,6.419773999999999,-10.272811,2.2689847999999997,-1
653,654,1583586406936,1.0311999,-2.6541997999999998,-0.60749996,7.209583,-10.735946,0.780414,-1
654,655,1583586406946,1.8860999,-3.1829,-2.1569,8.267178999999999,-11.464127000000001,-0.60925734,-1
655,656,1583586406956,2.9926,-3.9659998,-3.4903998,9.727948,-12.586892,-1.0311252,-1
656,657,1583586406966,4.1956997000000005,-4.9439,-3.7275,10.610565,-13.665864000000001,-0.51917785,-1
657,658,1583586406976,5.0485997000000005,-6.0308,-3.2075999,11.035623,-14.364166,0.6210463,-1
658,659,1583586406987,5.4343,-6.7506,-2.0612,10.966919,-14.746483,1.6193708999999998,-1
659,660,1583586406997,5.308399700000001,-7.1657996,-1.0231999,11.112811,-14.719408,1.8682052,-1
660,661,1583586407008,5.3845,-7.1900997,-0.77169997,11.726886,-14.545082,0.6974884,-1
661,662,1583586407018,6.6741,-7.2037997,-4.0064,12.696519,-14.640993,-1.6318496,-1
662,663,1583586407028,7.4419,-7.2068,-4.9522,13.677221,-14.541039999999999,-2.3915488999999996,-1
663,664,1583586407038,8.2445,-7.3384,-5.0492,14.425553,-14.743167999999999,-2.3247218,-1
664,665,1583586407049,8.439,-7.8282,-4.3577,14.6222515,-15.163120999999999,-1.5225208000000001,-1
665,666,1583586407059,8.3246,-8.130899000000001,-2.7416,14.621208,-15.271013,0.004156334,-1
666,667,1583586407069,8.011499,-8.0738,-0.5653,14.410509,-15.116472,1.9939008000000003,-1
667,668,1583586407079,8.011499,-8.0738,-0.5653,14.048247,-14.960601,3.3760924,-1
668,669,1583586407089,6.6849,-7.7207,2.4659998,13.371022,-14.400376000000001,4.4090657,-1
669,670,1583586407099,6.6849,-7.7207,2.4659998,12.854728,-13.564379,3.932936,-1
670,671,1583586407110,5.2667,-6.5122,0.93179995,12.347626,-12.881839999999999,2.2858112,-1
671,672,1583586407120,4.8815,-5.9953,-0.8246,12.16967,-12.001501,0.26420495,-1
672,673,1583586407130,4.5641,-5.3051,-1.5824,12.0621605,-11.272791999999999,-0.11179964,-1
673,674,1583586407140,4.1661,-4.642299700000001,-0.9298,11.821726,-10.34639,0.63113075,-1
674,675,1583586407150,3.0676,-4.0037,1.3448,10.310697,-9.563878,3.474772,-1
675,676,1583586407161,1.1069,-4.1742,4.5387,8.599300999999999,-9.693472,6.570494,-1
676,677,1583586407171,-0.5567,-4.4107,8.1046,7.3112506999999995,-9.510334,9.878132,-1
677,678,1583586407181,-1.7522,-4.2263,11.3389,6.44815,-8.735887,12.286162,-1
678,679,1583586407191,-2.5792,-3.3423,12.467299,5.8188295,-7.406606699999999,12.157738,-1
679,680,1583586407201,-3.3931,-2.2358,10.6945,5.084843599999999,-6.0917687,9.129072,-1
680,681,1583586407211,-4.3419,-1.3162999,6.3929,4.336378,-4.889735,4.2022166,-1
681,682,1583586407222,-4.8866997,-0.41529998,1.5180999,4.1851797,-3.7149197999999997,-0.07505344,-1
682,683,1583586407232,-4.9595,0.5239,-0.99369997,4.1173854,-2.2783895,-1.3192531,-1
683,684,1583586407242,-5.3364,1.2391,-0.4807,3.451146,-1.7126491000000001,0.5631833,-1
684,685,1583586407253,-6.4191,1.2449,2.4765,1.9863638,-1.5176557,4.360397,-1
685,686,1583586407263,-8.1455,1.1044999,6.6363997,0.4591217000000001,-1.4004643,7.803555499999999,-1
686,687,1583586407273,-9.4241,0.88299996,9.4212,-0.29611486,-1.346681,8.659664999999999,-1
687,688,1583586407283,-9.8538,0.66749996,9.532,-0.17192283,-1.1760894,7.6560917,-1
688,689,1583586407294,-9.5268,0.6168,8.0823,0.5166592000000001,-0.9526049999999999,5.666539,-1
689,690,1583586407304,-8.8004,0.6918,5.8687,1.3035183000000001,-0.5187948,2.2513827999999996,-1
690,691,1583586407314,-8.246699000000001,0.8932,2.8034,1.6825396000000001,-0.06554367,-0.93294376,-1
691,692,1583586407324,-7.9451,1.2099999,-0.21429999,1.9747375,0.72335535,-2.5133563999999997,-1
692,693,1583586407334,-7.6568,1.8239,-1.3550999,2.1314235,1.3268474,-2.088874,-1
693,694,1583586407344,-7.5571,2.1919999999999997,-0.6167,2.1880127999999996,1.1345163999999999,-0.30323043,-1
694,695,1583586407355,-7.527199700000001,1.7087,1.3847,2.132209,0.48729667,1.9220461,-1
695,696,1583586407365,-7.5814,0.8926,3.5533,2.519275,-0.1134277,3.7230410000000003,-1
696,697,1583586407375,-7.0536,0.3101,5.312999700000001,3.3126557,-0.12451764,4.6725525999999995,-1
697,698,1583586407385,-6.2503,0.23009999,5.8957,4.0279665,-0.18898872,3.4671392,-1
698,699,1583586407395,-5.5860996,0.0927,4.3152,4.5054474,-0.02756205,0.9558707000000001,-1
699,700,1583586407405,-5.1693997000000005,0.1973,1.6992999,4.7500862999999995,0.11910674,-1.221196,-1
700,701,1583586407415,-4.921,0.2942,-0.3347,5.1484623,0.37218344,-2.6273107999999996,-1
701,702,1583586407425,-4.495199700000001,0.5545,-1.5623,5.6403275,0.8384207,-2.8854344,-1
702,703,1583586407435,-4.018399700000001,0.97349995,-1.5803,5.9798155,1.1181976,-1.8712506000000002,-1
703,704,1583586407445,-3.7250997999999997,1.1063,-0.4386,6.165471599999999,0.82172835,-0.5948059,-1
704,705,1583586407455,-3.5658998,0.71779996,0.81549996,6.283458,0.5487893,0.54793704,-1
705,706,1583586407465,-3.4338998999999997,0.4111,2.0173,6.445689,0.2753236,1.6510415,-1
706,707,1583586407475,-3.2526,0.1321,3.0037,6.6448100000000005,0.2294603,1.6584634999999999,-1
707,708,1583586407486,-3.0439,0.1017,2.7781,6.907521000000001,0.21106325,0.6060969,-1
708,709,1583586407496,-2.7698,0.0676,1.6067,7.357075,0.15954003,-0.6546418,-1
709,710,1583586407506,-2.2526999,0.0175,0.3418,8.110991,-0.016625335,-2.3384457000000003,-1
710,711,1583586407516,-1.6281999,-0.1028,-1.1029999,8.74779,-0.08181466,-2.864509,-1
711,712,1583586407526,-0.9927,-0.1554,-1.6369,9.01122,-0.10794977,-2.8213274,-1
712,713,1583586407536,-0.70849997,-0.18679999,-1.5302,8.984902,-0.25531766,-2.140062,-1
713,714,1583586407547,-0.7461,-0.3279,-0.89959997,8.827173,-0.32503682,-1.2532688,-1
714,715,1583586407557,-0.9098,-0.408,0.0158,8.958969,-0.22337902,-0.63628304,-1
715,716,1583586407567,-0.769,-0.3222,0.6494,9.28368,0.025914839,-0.47846687,-1
716,717,1583586407577,-0.4425,-0.1059,0.83739996,9.357901,0.15284584,-0.9605633,-1
717,718,1583586407587,-0.3621,0.0162,0.3611,9.2873,0.10951079,-1.5539136,-1
718,719,1583586407597,-0.4394,-0.0254,-0.2287,9.337253,0.071059905,-2.1253805,d
719,720,1583586407608,-0.3901,-0.0639,-0.7855,9.575714999999999,-0.028203696,-2.5784786,-1
720,721,1583586407618,-0.15429999,-0.1296,-1.2428,9.906479,-0.15489528,-2.7560422000000004,-1
721,722,1583586407629,0.48589998,-0.3426,-0.9471,10.229063,-0.22066878,-2.174079,-1
722,723,1583586407639,0.6152,-0.2676,-0.1995,10.336861,-0.12952629999999998,-1.4259291,-1
723,724,1583586407649,0.50879997,-0.0889,0.35959998,10.189359,0.10882126,-0.94142884,-1
724,725,1583586407659,0.24489999,0.096999995,0.5708,9.905014,0.24939920000000002,-0.8071906999999999,-1
725,726,1583586407669,0.0783,0.0477,0.4233,9.770431,0.20614076,-1.0120003,-1
726,727,1583586407679,-0.0104,0.1074,0.2224,9.66724,0.30939788,-1.1794508,-1
727,728,1583586407690,-0.0104,0.1074,0.2224,9.466022500000001,0.46011767,-1.349803,-1
728,729,1583586407700,-0.2165,0.2516,0.09219999599999999,9.227828,0.45742659999999996,-1.8486301,-1
729,730,1583586407710,-0.4899,0.32569999,-0.49789998,9.266489,0.56108594,-1.8151305,-1
730,731,1583586407720,-0.3021,0.39729998,-0.24239999,9.527132,0.5802779,-1.4847403000000001,-1
731,732,1583586407730,-0.1339,0.3936,0.2985,9.579277000000001,0.46961790000000003,-0.7454778000000001,-1
732,733,1583586407741,-0.132,0.0758,1.3321999,9.606007,0.14928326,0.29654583,-1
733,734,1583586407751,-0.0716,-0.018099999,2.2259,9.644179,0.21223160000000002,1.0460075,-1
734,735,1583586407761,-0.18859999,0.1318,2.5252,9.352853999999999,0.31348717,0.9888723,-1
735,736,1583586407771,-0.5811,0.1933,2.0922,9.046911999999999,0.39949650000000003,0.38725734,-1
736,737,1583586407781,-0.7188,0.2875,1.4231,8.986464,0.4897196,-0.24385424,-1
737,738,1583586407791,-0.67039996,0.3868,0.9102,9.063251,0.5375653,-0.6656934,-1
738,739,1583586407802,-0.62189996,0.44979998,0.48589998,9.055263499999999,0.6175508000000001,-0.9705232,-1
739,740,1583586407812,-0.7884,0.57089996,0.5868,8.647771,0.685843,-0.57337296,-1
740,741,1583586407822,-1.2477,0.5615,1.1571,8.180154,0.6336494,0.37307408,-1
741,742,1583586407832,-1.6571,0.5412,2.5179,7.967175500000001,0.6334387,2.4634612000000002,-1
742,743,1583586407842,-1.6836,0.5660000000000001,4.9115,8.088255,0.6810929,4.805383,-1
743,744,1583586407853,-1.6544,0.64989996,7.0483,7.6959314,0.80900073,6.568090400000001,-1
744,745,1583586407863,-2.4619999999999997,0.8886,8.4386,6.338103,1.1132271,7.2841,-1
745,746,1583586407873,-3.9975998,1.2885,8.7527,4.793546,1.7324827,7.3323193,-1
746,747,1583586407883,-5.5839,2.1399999,8.7390995,3.2018235,2.5881127999999998,7.6097592999999994,-1
747,748,1583586407893,-7.0126,2.8337998,9.0506,2.3369803,2.8506324,8.008125999999999,-1
748,749,1583586407903,-7.3487,3.0154998,9.3845,3.0096648,2.6718526000000002,9.101041,-1
749,750,1583586407914,-6.501,2.8437997999999998,10.7508,3.9655259,2.1187057,10.74578,-1
750,751,1583586407924,-5.3012,2.1427999,12.9703,4.7366886,1.102731,12.9157505,-1
751,752,1583586407934,-5.0548997,1.2021998999999999,15.0666,3.6942532,-0.2723165,14.215304000000001,-1
752,753,1583586407945,-6.3343,0.21409999,15.718499,1.7154359000000001,-1.1361923999999999,13.315151,-1
753,754,1583586407954,-8.2794,-0.3802,14.577399,0.5335718,-1.4247128,11.060772,-1
754,755,1583586407964,-9.1043,-0.4145,12.2162,1.1913836000000002,-1.3837336,8.309231,-1
755,756,1583586407974,-8.0618,-0.063,9.4541,2.8779645,-0.9869187,5.4722834,-1
756,757,1583586407984,-6.3935,0.56979996,6.5667,3.835176,-1.4650216,1.7504583999999999,-1
757,758,1583586407994,-5.5361,0.070199996,2.6739,4.4594879999999995,-3.160739,-1.9251298,-1
758,759,1583586408005,-4.7791,-1.517,-0.60539997,5.588603,-5.463941999999999,-4.2146473,-1
759,760,1583586408015,-3.4543998,-3.6474,-2.6985,7.255274000000001,-8.300994000000001,-6.391503299999999,-1
760,761,1583586408025,-1.5954,-6.2353997,-4.6285,9.037402,-10.651171000000001,-7.828790700000001,-1
761,762,1583586408035,0.2093,-8.1366,-5.7597,10.016967,-12.158092,-8.96232,-1
762,763,1583586408045,1.0457,-9.2855,-7.0112,9.82499,-13.2264805,-11.815548,-1
763,764,1583586408056,0.71559995,-10.054999,-10.349199,8.7320175,-13.975788,-17.761423,-1
764,765,1583586408066,-0.14299999,-10.4135,-15.505099,8.404299,-14.659285999999998,-23.044458,-1
765,766,1583586408076,-0.40989998,-10.892099,-20.909399,9.062111,-15.252779,-25.890926,-1
766,767,1583586408087,0.62259996,-11.4264,-24.2789,11.180099,-16.035989999999998,-26.713028,-1
767,768,1583586408097,2.4993,-11.9059,-24.6947,12.654592,-17.3245,-24.260399,-1
768,769,1583586408107,4.0699997,-13.0422,-22.1884,12.577757,-18.323612,-21.804973999999998,-1
769,770,1583586408117,4.0401998,-13.9726,-19.6717,11.36562,-18.282507,-20.694857,-1
770,771,1583586408127,2.8544998,-13.884298999999999,-18.5429,9.39547,-17.145931,-20.906141,-1
771,772,1583586408138,0.88879997,-12.7241,-18.8139,7.3154259999999995,-15.570978,-22.340403,-1
772,773,1583586408148,-1.2305,-11.1276,-20.403,6.0283413,-14.149771,-22.71451,-1
773,774,1583586408158,-3.1966,-8.3997,-19.7845,5.3317146,-12.643291,-20.910028,-1
774,775,1583586408168,-3.7552,-7.7029996,-17.8006,4.786928700000001,-12.02326,-18.743391,-1
775,776,1583586408178,-4.3402,-7.3241997,-16.0747,4.123179400000001,-11.515574,-16.639116,-1
776,777,1583586408188,-4.3402,-7.3241997,-16.0747,3.305607,-11.185098,-14.782089000000001,-1
777,778,1583586408199,-6.9094996,-6.8283,-10.679,1.6243318000000002,-11.108139,-11.189425,-1
778,779,1583586408209,-7.8121,-6.8314,-7.5195,0.87754196,-10.995515,-7.910864,-1
779,780,1583586408219,-8.3446,-6.5053997,-4.4339,0.40789536,-10.617192,-4.937016000000001,-1
780,781,1583586408230,-8.6627,-6.0878,-2.2751,0.10531615,-10.125059,-2.5813707999999997,-1
781,782,1583586408240,-8.812699,-5.8078,-1.1184,0.12644258,-9.946271000000001,-1.7227047999999998,-1
782,783,1583586408251,-8.2127,-5.6624,-0.31829998,1.2369403,-9.869513000000001,-0.387401,-1
783,784,1583586408261,-6.4094996,-5.5164,1.2362,3.2343845,-9.956249,1.353969,-1
784,785,1583586408271,-4.2502,-6.0276,3.4023,5.320117,-10.726981,4.360521299999999,-1
785,786,1583586408281,-2.3116999,-6.3803997,7.4105,7.0225,-10.799334,9.041818,-1
786,787,1583586408291,-0.8846,-5.9266996,12.773299,8.275855,-10.337157000000001,14.887423499999999,-1
787,788,1583586408301,0.41329998,-5.3508,18.9321,9.743079,-9.864849000000001,21.959818,-1
788,789,1583586408312,1.4777,-5.1661,23.604898000000002,10.432091999999999,-10.256396,24.630043,-1
789,790,1583586408322,2.123,-5.620199700000001,24.6698,11.217917,-10.62358,24.380186,-1
790,791,1583586408332,3.3095,-5.6685,23.7495,12.904345,-10.439955,23.571117,-1
791,792,1583586408342,5.4354,-5.1384,23.0191,15.497323000000002,-9.538269999999999,23.578262,-1
792,793,1583586408352,8.1189995,-4.0958,23.4026,17.81355,-8.725457,24.718237,-1
793,794,1583586408363,10.0666,-3.4726,24.764599,18.996794,-8.401388,25.901058,-1
794,795,1583586408373,10.727099,-3.2064,25.590199,19.080753,-7.9300175,25.860022,-1
795,796,1583586408383,10.555099499999999,-2.6092,24.761,18.803331,-7.253569000000001,23.400736,-1
796,797,1583586408393,10.241799,-2.0672,21.2125,18.566153,-6.672956,18.888545999999998,-1
797,798,1583586408403,9.958099,-1.5545,16.415699,18.24059,-5.9989214,14.322987,-1
798,799,1583586408413,9.4187,-0.9835,12.352699000000001,17.301394000000002,-5.5191235999999995,10.588614999999999,-1
799,800,1583586408423,8.494599000000001,-0.84569997,9.6319,16.46595,-5.4968762,8.634717,-1
800,801,1583586408433,7.62,-1.0497999,7.8801,15.997682999999999,-5.9067254,6.9407716,-1
801,802,1583586408443,7.1822,-1.6992999,6.2837996,16.100853,-6.4582343,5.589417,-1
802,803,1583586408453,7.3722997,-2.5737997999999997,4.8047,16.420881,-7.154219,4.3499102999999995,-1
803,804,1583586408463,7.4568996,-3.3286998,4.029,16.18556,-7.603438400000001,3.4298854,-1
804,805,1583586408473,7.0032,-3.8395,3.2437,15.523782999999998,-7.7345257,2.3182864,-1
805,806,1583586408484,5.902199700000001,-4.1191998,1.7824,14.133873000000001,-7.588480000000001,0.64578325,-1
806,807,1583586408494,4.2039,-4.116699700000001,0.2122,11.794029,-7.4631386,-0.8247163000000001,-1
807,808,1583586408504,2.1750998,-4.2795997,-0.7021,10.514165,-7.3579946,-1.1611017,-1
808,809,1583586408514,1.0060999,-4.3747997000000005,-0.8807,10.044787,-7.157121000000001,-1.5849615,-1
809,810,1583586408524,0.562,-4.3582997,-1.2833999,9.730045,-6.642827499999999,-2.4004936000000003,-1
810,811,1583586408534,0.175,-3.9998998999999995,-2.0079,9.160244,-6.030458,-2.9751978,-1
811,812,1583586408544,-0.5281,-3.58,-2.2091,8.16123,-5.2317233,-2.3670322999999995,-1
812,813,1583586408555,-1.6554999,-3.0421999,-1.2234,6.8523583,-4.702902,-1.4308898,-1
813,814,1583586408565,-3.0699,-2.8153,-0.2137,5.0888753,-4.2397003,-1.082907,-1
814,815,1583586408575,-4.8801,-2.5577,0.0748,3.4385142,-3.7078235,-1.9289029999999998,-1
815,816,1583586408585,-6.4591,-2.2491,-0.8433,2.397908,-2.9597982999999997,-3.4843202000000004,-1
816,817,1583586408595,-7.3747997000000005,-1.6968,-2.4462,1.9762698,-2.1273248,-5.2790422,-1
817,818,1583586408605,-7.704799700000001,-1.0203,-4.0197,1.8936602999999999,-1.238444,-5.8335300000000005,-1
818,819,1583586408615,-7.8104997,-0.3549,-4.1047997,1.5004462,-0.64795715,-4.833357,-1
819,820,1583586408625,-8.2916,-0.0123,-2.7264,0.48147398,-0.26990312,-2.7003242999999997,-1
820,821,1583586408636,-9.4647,0.1354,-0.3236,-0.88283795,-0.13797306,-0.78420645,-1
821,822,1583586408646,-11.186299,0.0872,1.8704,-2.738373,0.11334151,0.29333758,-1
822,823,1583586408656,-12.5377,0.2208,2.1698,-3.5912836,0.78667724,-1.4563546,-1
823,824,1583586408666,-13.1675,0.6931,0.6053,-3.7008994,1.3967007,-3.2253249,-1
824,825,1583586408677,-13.2697,1.3915,-1.5314,-3.8235977,2.3475627999999995,-4.906543,-1
825,826,1583586408687,-13.3891,2.0972,-2.7958,-4.455188,2.6565487,-4.637137999999999,-1
826,827,1583586408697,-14.0117,2.3365,-2.4634,-5.446866,2.8222466,-3.3476492999999996,-1
827,828,1583586408707,-14.9733,2.4419,-1.0957,-5.8145489999999995,2.9690685,-2.6899047,-1
828,829,1583586408717,-15.8531,2.7282,0.8021,-6.905644000000001,3.370557,-0.025033773999999998,-1
829,830,1583586408727,-16.3258,3.2554,3.1985997999999998,-6.7139354,3.7370424,0.73344934,-1
830,831,1583586408737,-16.3258,3.2554,3.1985997999999998,-6.086999,3.8392171999999998,-0.11686578,-1
831,832,1583586408747,-15.5806,3.4717998999999997,2.2975,-5.5383724999999995,3.537749,-2.029517,-1
832,833,1583586408757,-15.036698999999999,3.2870998,0.37799999999999995,-5.324953599999999,3.083502,-3.5348281999999998,-1
833,834,1583586408767,-14.8286,2.9619999999999997,-1.1528,-5.27185,2.6783647999999998,-3.9593873,-1
834,835,1583586408778,-14.8287,2.6299999,-0.2874,-5.354048000000001,2.3921618,-2.2173276,-1
835,836,1583586408788,-15.080998999999998,2.5314,1.7505,-5.6257324,2.0797758,-0.19743545,-1
836,837,1583586408799,-15.2885,2.3176,3.3516998,-5.806696,1.6775118000000002,1.2680553999999997,-1
837,838,1583586408809,-15.402498999999999,2.3021,4.161299700000001,-6.003298,1.3402931999999999,2.2079997000000002,-1
838,839,1583586408819,-15.402498999999999,2.3021,4.161299700000001,-6.1463849999999995,0.94652367,2.7336132999999996,-1
839,840,1583586408830,-15.463799,1.367,4.6983,-5.723243,-0.44638455,2.2657576,-1
840,841,1583586408840,-14.608998999999999,0.74829996,4.1222997,-4.8882318,-1.3265984,1.8598925,-1
841,842,1583586408850,-13.8923,0.30449998,3.6713,-4.443398999999999,-2.2879758,1.7017316000000002,-1
842,843,1583586408860,-13.6528,-0.4184,4.0798,-4.401347,-3.2909163999999995,2.4608276,-1
843,844,1583586408870,-13.533999,-1.4484,5.3554997,-4.258729499999999,-4.9793650000000005,4.103365,-1
844,845,1583586408881,-12.9042,-2.1961,6.6454997,-3.552047,-6.257993,5.841947599999999,-1
845,846,1583586408891,-11.7675,-3.3955,8.465099,-2.50105,-8.230739,7.494109599999999,-1
846,847,1583586408902,-10.5204,-5.2331,9.1765995,-1.5339076999999999,-11.273176,7.5404134,-1
847,848,1583586408912,-9.750899,-7.4486,8.373799,-1.3154223,-13.633610000000001,6.7201699999999995,-1
848,849,1583586408922,-9.1637,-10.0571995,6.5702,-0.6736805,-16.909536,4.3566523,-1
849,850,1583586408932,-7.0066,-13.0925,3.3230998999999994,2.6016066,-20.863514000000002,1.4885327,-1
850,851,1583586408942,-2.8511,-15.6229,1.3737999,7.461846,-23.895895,0.9429707,-1
851,852,1583586408952,2.5405998,-17.758799,1.5446,11.801383999999999,-25.515179999999997,2.8133116,-1
852,853,1583586408963,6.4535,-18.2447,3.682,13.286478,-25.91075,5.6117887,-1
853,854,1583586408973,6.9800997,-18.255,6.2444997,11.590216,-26.416021,8.103425,-1
854,855,1583586408983,5.1028,-18.6497,7.7948,9.678168,-27.24431,8.632572,-1
855,856,1583586408993,4.0966,-19.528,7.0529,9.834710000000001,-28.242483,6.43299,-1
856,857,1583586409003,6.361799700000001,-19.647000000000002,3.5804,13.285798999999999,-27.80987,2.182947,-1
857,858,1583586409013,10.6381,-18.6771,-0.66999996,17.358738,-26.579708,-0.38020879999999996,-1
858,859,1583586409023,13.8925,-17.473999,-2.0235,18.318094,-25.70032,0.0018770541,-1
859,860,1583586409034,14.7462,-16.1962,-1.3348,16.885212,-24.329092000000003,1.9470319,-1
860,861,1583586409044,13.179198999999999,-15.1066,0.4103,14.824217,-23.710392000000002,3.3436462999999996,-1
861,862,1583586409054,10.8172,-14.2198,1.6212,12.148735,-22.480520000000002,3.4771947999999995,-1
862,863,1583586409064,9.1243,-13.088699,1.0782,11.401955000000001,-21.24721,2.0200261999999998,-1
863,864,1583586409074,8.8601,-11.7863,-0.78569996,11.863758,-19.814423,-0.35495478,-1
864,865,1583586409084,9.621099000000001,-10.325999999999999,-3.2807998999999994,12.258696,-18.35416,-1.7377499,-1
865,866,1583586409095,9.990399,-8.8868,-4.3826,11.652617999999999,-17.03189,-1.2986053999999998,-1
866,867,1583586409105,9.328,-7.5797,-3.6906,10.373597,-15.967889000000001,0.5461749,-1
867,868,1583586409115,8.0477,-6.5284996,-1.6516998999999999,9.166517,-15.086248000000001,2.4895674999999997,-1
868,869,1583586409126,6.5228996,-5.4351,0.71669996,7.171505499999999,-14.033057000000001,4.493543,-1
869,870,1583586409136,4.8533,-4.6615,1.9499999,5.7808,-13.455375,4.4285545,-1
870,871,1583586409146,3.6418,-4.1033998,1.6027,5.527465,-12.79152,2.9982398,-1
871,872,1583586409156,3.5758,-3.5533,0.2909,6.009743,-12.050803,1.0669233999999999,-1
872,873,1583586409166,4.0824,-2.8311,-1.7041998999999999,6.2502837,-11.311473,-0.64392537,-1
873,874,1583586409176,4.3364997,-2.1095998,-3.4599998,5.9980307,-10.720335,-1.2404168,-1
874,875,1583586409187,4.0937,-1.5213,-4.0817,5.220892,-10.4101515,-0.6574478,-1
875,876,1583586409197,3.3033,-1.2195,-3.4998,4.3258529999999995,-10.339819,1.0153809999999999,-1
876,877,1583586409207,1.8116,-1.0095,0.0848,3.8082267999999995,-10.222667,2.8478265,-1
877,878,1583586409219,1.4480000000000002,-0.9242,1.1475999,3.4092093,-10.131141,3.9433937000000006,-1
878,879,1583586409229,1.0584999,-0.87409997,1.1789,3.0729291,-10.086091999999999,3.7893796,-1
879,880,1583586409239,0.8397,-0.79109997,0.7545,2.9193745,-9.945255,3.3195126000000004,d
880,881,1583586409251,0.7995,-0.5358,-0.0287,2.9537842,-9.694247,2.2633919999999996,-1
881,882,1583586409261,0.8476,-0.3997,-1.0914999,3.0059202000000003,-9.555336,0.95661765,-1
882,883,1583586409271,0.83379996,-0.3401,-2.0958,3.0543406,-9.532734,0.4490373,-1
883,884,1583586409281,0.8742,-0.3926,-1.9978999,3.118304,-9.635187,1.0725448999999998,-1
884,885,1583586409292,0.8695,-0.63449997,-0.78239995,3.2275467,-10.032883,2.6914465,-1
885,886,1583586409302,0.9503,-0.9909,0.58599997,3.365874,-10.339064,3.6664614999999996,-1
886,887,1583586409312,1.0016,-1.1826,1.3708,3.3797412000000002,-10.441419999999999,3.9878587999999997,-1
887,888,1583586409322,0.92579997,-1.3605,1.4495,3.3419225,-10.809696,3.6129365,-1
888,889,1583586409332,0.9386,-1.7608,0.8864,3.5642002,-11.218856,2.9038315,-1
889,890,1583586409343,1.1863999,-2.2834,0.17999999,3.9681977999999996,-11.860742,2.2640052,-1
890,891,1583586409353,1.6472,-2.9649,-0.4321,4.6739416,-12.445252,1.6356995,-1
891,892,1583586409363,2.4143999,-3.5282998,-1.0828,5.621471,-13.001703,1.1135049,-1
892,893,1583586409373,3.3063998,-4.1094,-1.3089,6.548582,-13.697199,1.5152615,-1
893,894,1583586409383,4.1431,-4.9634,-0.3208,7.468511,-14.804575,3.0529137000000004,-1
894,895,1583586409393,5.0144,-6.2021,1.4354999,8.536172,-15.991016,4.6459193,-1
895,896,1583586409404,5.9858,-7.312,2.8021998,9.750521,-17.114147,5.307686299999999,-1
896,897,1583586409414,6.8458,-8.2386,3.0193,10.668238,-17.791744,4.555697,-1
897,898,1583586409424,7.6608,-8.894199,2.0203,11.53716,-18.249945,2.8624308,-1
898,899,1583586409434,8.3917,-9.355,0.1444,12.402242999999999,-18.328917,1.2249502,-1
899,900,1583586409444,9.411699,-9.439899,-1.7486999,13.834520999999999,-18.491589,0.0048650177,-1
900,901,1583586409454,10.341599,-9.7720995,-2.2646,14.533254999999999,-19.048920000000003,0.4630003,-1
901,902,1583586409465,10.7562,-10.4616995,-1.5902,14.996474,-19.770292,1.3358208999999999,-1
902,903,1583586409475,10.904699,-11.2213,-0.5075,15.068809,-20.08651,2.156199,-1
903,904,1583586409485,10.5637,-11.5408,0.3014,14.45824,-20.018005,1.9599414000000002,-1
904,905,1583586409495,9.4906,-11.4971,0.0784,13.218482999999999,-19.250109,1.3679607,-1
905,906,1583586409505,7.8550997,-10.7891,-0.2886,11.783189,-18.306822,1.3001951999999999,-1
906,907,1583586409515,6.0678997,-10.061399,-0.0663,10.405268,-17.382872,1.8683584,-1
907,908,1583586409526,4.3429,-9.330999,0.7704,8.867078999999999,-15.928192999999998,2.953765,-1
908,909,1583586409536,2.7345998,-8.3419,1.8517,8.179732000000001,-14.815645000000002,3.4082803999999998,-1
909,910,1583586409546,1.5432999,-7.2194,2.5293999,7.4450192,-13.545407,3.3901991999999996,-1
910,911,1583586409556,0.5002,-6.3043,2.615,6.8201323,-12.464913000000001,3.1115046000000004,-1
911,912,1583586409566,-0.3127,-5.740999700000001,2.5635,6.685176400000001,-11.556859,2.9768164,-1
912,913,1583586409577,-0.75689995,-5.1565,2.6339,6.7371300000000005,-10.295019,3.261803,-1
913,914,1583586409587,-0.9984,-4.2383,3.1452,6.421278,-9.732066,3.6970785000000004,-1
914,915,1583586409597,-1.7526,-3.9977,3.9766998,5.0872574,-9.404433000000001,4.7657447,-1
915,916,1583586409607,-3.1764997999999998,-4.1117,5.0604997,3.8392556000000004,-8.958346,4.628968700000001,-1
916,917,1583586409617,-4.6675,-4.0724,5.0976,2.9550099999999997,-8.623905,3.2312818,-1
917,918,1583586409627,-5.7625,-4.137,3.8521998,2.6171594,-7.8233604,1.7272154,-1
918,919,1583586409637,-6.2846,-3.7422,2.4693,2.2110932,-6.450343,1.4702505,-1
919,920,1583586409647,-6.8619,-2.7889,2.333,1.4658068000000002,-5.0269613,2.3272407000000004,-1
920,921,1583586409657,-7.7404,-1.7693,3.3193,0.3116772,-3.4248576,3.4620349999999998,-1
921,922,1583586409667,-10.475699,0.5534,5.2111,-1.3200767,-1.6043642,3.9806093999999996,-1
922,923,1583586409678,-10.475699,0.5534,5.2111,-2.1511712000000003,-0.6494129,3.9393427000000005,-1
923,924,1583586409688,-12.2578,1.7409999,5.3329997,-2.6847236,0.011482592,3.895414,-1
924,925,1583586409699,-11.7359,1.1981,5.3645997,-1.8592794999999998,-0.5081741,3.7663667000000003,-1
925,926,1583586409709,-11.7359,1.1981,5.3645997,-0.8713841,-0.9395901,2.7320716,-1
926,927,1583586409719,-10.769999499999999,0.2217,4.706,-0.2104599,-0.94606405,0.7961965,-1
927,928,1583586409729,-9.8511,-0.0075999996999999994,1.3844999,-0.33040944,-0.64690375,-0.5691401,-1
928,929,1583586409740,-10.2251,0.3448,0.64519995,-0.7440126,0.02444001,-0.8328853,-1
929,930,1583586409750,-10.6826,0.80179995,0.9271,-1.1017828,0.6427378,-0.17187496,-1
930,931,1583586409760,-10.800799000000001,1.3027999,1.9456999,-0.999991,1.363019,1.0804458000000001,-1
931,932,1583586409770,-10.4122,1.8087,3.2415,-0.49028465,1.9087436999999998,2.1423509999999997,-1
932,933,1583586409780,-9.8028,1.9626,3.5765998,0.16675135,1.8821491000000001,2.0699406000000002,-1
933,934,1583586409791,-8.9354,1.2373999,3.3560998,1.225994,0.97830915,1.8428745,-1
934,935,1583586409801,-7.7434997999999995,0.38349998,3.0714998,2.6607146,0.32076555,1.0900705,-1
935,936,1583586409811,-6.6614,-0.038599997999999996,2.0095,3.333811,0.05368758,-0.09088389599999999,-1
936,937,1583586409822,-6.0729999999999995,-0.3335,0.3766,3.7274945,-0.12888466,-1.7008599999999998,-1
937,938,1583586409832,-5.8992,-0.382,-0.8621,3.8753123,-0.033729516,-2.5316862999999996,-1
938,939,1583586409842,-5.7162,-0.27449998,-0.9402,4.1216087,0.13710156,-2.0498102,-1
939,940,1583586409852,-5.3550997,-0.08800000000000001,0.1004,4.515474299999999,0.43708545,-0.40727285,-1
940,941,1583586409863,-5.1389,0.1406,1.5282999,4.636448400000001,0.6076388,0.72124845,-1
941,942,1583586409873,-4.9997997000000005,0.2307,2.2712,4.9122505,0.5877382,0.83064437,-1
942,943,1583586409883,-4.5659,0.15959999,2.0714,5.597471,0.45761815,0.30477232,-1
943,944,1583586409893,-3.7006,-0.0103,1.4541998999999999,6.629506,0.11991120000000001,-0.48406930000000004,-1
944,945,1583586409904,-2.6497,-0.44099998,0.64849997,7.840838400000001,-0.553549,-1.2469673000000001,-1
945,946,1583586409914,-1.6685,-0.9166,0.1691,8.437483,-0.7479869,-1.6749068,-1
946,947,1583586409924,-1.1001999,-1.0544,-0.505,8.758383,-0.65927696,-2.4238037999999995,-1
947,948,1583586409934,-0.9449,-0.81909996,-1.0021,8.753221,-0.07367438,-2.478037,-1
948,949,1583586409944,-0.97709996,-0.23799999,-0.9594,8.623053,0.21992179999999997,-2.1839907000000003,-1
949,950,1583586409954,-1.1259999,0.0307,-0.6082,8.465955000000001,0.23592463,-1.856713,-1
950,951,1583586409965,-1.2449,-0.0431,-0.3602,8.583721,0.025196577999999997,-1.5491346000000001,-1
951,952,1583586409975,-1.0574,-0.26839998,-0.0173,8.934606,-0.28214229999999996,-1.2268081,-1
952,953,1583586409985,-0.4957,-0.5736,0.35639998,9.901911,-0.50410396,-1.0321115,-1
953,954,1583586409995,0.3994,-0.70309997,0.49589998,10.889596000000001,-0.62781715,-1.1907898000000001,-1
954,955,1583586410005,1.3419999999999999,-0.79819995,0.1935,11.5589,-0.82509935,-1.9090694,-1
955,956,1583586410015,1.9777999,-0.94339997,-0.5596,11.8633175,-0.8363617,-2.5809782,-1
956,957,1583586410026,2.1408,-0.9407,-1.1901,11.340902,-1.0232052,-3.1949183999999997,-1
957,958,1583586410036,1.6353999,-1.1004,-1.7547,10.946760000000001,-0.8932479,-3.5779237999999998,d
958,959,1583586410046,1.1592,-0.9119,-2.2340999,10.491775500000001,-0.4079624,-3.5651865,-1
959,960,1583586410056,0.77269995,-0.5183,-2.1952999,10.274688000000001,-0.13044567,-2.9233682,-1
960,961,1583586410066,0.5459,-0.2591,-1.5596,10.291074,0.10354444,-2.0865085,-1
961,962,1583586410076,0.5671,-0.0795,-0.7078,10.404597,0.102902785,-1.0640695,-1
962,963,1583586410087,0.6874,-0.1019,0.3178,10.665278,-0.006033388000000001,-0.10301771,-1
963,964,1583586410097,0.9446,-0.2067,1.3023,11.057716000000001,-0.10206961,0.44919056,-1
964,965,1583586410107,1.3378999,-0.3082,1.8269999,11.246417999999998,-0.2949082,-0.03717716,-1
965,966,1583586410117,1.3623999,-0.54249996,-0.10349999,11.009641,-0.28438327,-1.7650247,-1
966,967,1583586410128,0.97609997,-0.30719998,-1.39,10.625668,0.026824636000000002,-2.9054882999999996,-1
967,968,1583586410138,0.70879996,0.07719999599999999,-1.9734,10.435807,0.42552623,-3.2807457,-1
968,969,1583586410148,0.7579,0.23009999,-1.8039999,10.501161,0.58529615,-3.0329556,-1
969,970,1583586410158,0.7579,0.23009999,-1.8039999,10.527937,0.76081026,-2.3140056,-1
970,971,1583586410168,0.7064,0.45139998,-0.017199999,10.362219999999999,0.8632245999999999,-1.1102774,-1
971,972,1583586410178,0.3685,0.3373,1.0764999,10.004507,0.76860577,-0.107298546,-1
972,973,1583586410189,-0.0288,0.2647,1.8104,9.581586,0.7638748000000001,0.54023725,-1
973,974,1583586410199,-0.5459,0.3154,2.0705,9.069725,0.8775228,0.7319937,-1
974,975,1583586410209,-0.9766,0.29549998,2.1718,8.6781,0.852671,0.8239597,-1
975,976,1583586410219,-1.0454,0.2434,2.3186,8.684593,0.86515915,1.0163865,-1
976,977,1583586410230,-1.0359,0.4603,2.6118,8.627267,1.1574433000000002,1.3857735,-1
977,978,1583586410240,-1.5258,0.8616,3.145,7.9812436,1.5748292,1.8578335,-1
978,979,1583586410250,-2.5145,1.3669,3.4215,6.7699313,2.3123102,2.4533577,-1
979,980,1583586410260,-3.6388998,2.1534,4.6776,5.4260845,3.1100776000000003,4.173285,-1
980,981,1583586410270,-5.468,2.6921,7.2558,3.2970457000000004,3.5504095999999996,7.265483000000001,-1
981,982,1583586410280,-7.8745,3.0368998,10.9796,0.8137986999999999,3.9742217000000006,11.167629,-1
982,983,1583586410291,-10.3407,3.5849,14.7155,-1.5849999,4.5883536,14.245088,-1
983,984,1583586410301,-12.467299,4.0221,16.209,-3.3717062000000007,4.7688856,14.599832000000001,-1
984,985,1583586410311,-13.5576,4.1440997,15.2311,-3.9441981,4.817871,13.022072,-1
985,986,1583586410321,-13.1456995,4.0776,13.368898999999999,-2.8021162,4.2403035000000004,11.18502,-1
986,987,1583586410331,-11.0956,3.0763998,12.152999999999999,-0.21806389,2.4274714,10.183373,-1
987,988,1583586410341,-9.2627,1.6337,11.7996,0.9932011000000001,0.69771826,9.78946,-1
988,989,1583586410352,-8.378799,-0.0066,11.4023,1.3464607,-0.88542366,8.92725,-1
989,990,1583586410362,-8.1087,-1.5381,10.1511,1.6208458000000001,-2.5367236,6.7918715,-1
990,991,1583586410372,-7.6734,-2.3536,8.2704,2.131165,-3.2195694,4.781172799999999,-1
991,992,1583586410382,-6.6825,-3.1048,5.5628,3.5665562000000004,-4.7233768,0.7715554,-1
992,993,1583586410392,-5.0922,-4.3336,1.9993999,5.5021625,-6.546466000000001,-3.5678777999999998,-1
993,994,1583586410402,-2.8298,-6.0238,-2.6885,7.931712599999999,-8.778446,-9.112542,-1
994,995,1583586410412,-0.074099995,-7.9721,-8.3231,10.951471000000002,-10.770211,-14.883009,-1
995,996,1583586410423,3.1883,-9.251699,-13.6938,13.947298000000002,-11.658699,-19.793152,-1
996,997,1583586410434,5.9877,-9.3705,-17.8598,16.170927,-11.570258,-22.760881,-1
997,998,1583586410444,7.4983997,-9.051,-19.2517,16.31503,-11.730889,-22.016474,-1
998,999,1583586410454,7.3068,-9.2459,-17.546298999999998,15.202051,-12.256684,-20.01631,-1
999,1000,1583586410464,6.2872996,-9.5886,-16.2708,14.176739000000001,-12.641126,-20.465597,-1
1000,1001,1583586410474,5.3701,-9.892799,-17.004099,13.560692000000001,-12.775336,-22.260942,-1
1001,1002,1583586410484,4.9565997,-9.880199000000001,-18.7624,13.692132999999998,-12.439869999999999,-23.954179999999997,-1
1002,1003,1583586410494,5.200999700000001,-9.3684,-20.4453,13.908253,-11.633589,-25.542445999999998,-1
1003,1004,1583586410505,5.3545,-8.4851,-22.0527,13.811295999999999,-10.9423065,-26.511253000000004,-1
1004,1005,1583586410515,5.0378,-7.6534996,-22.7379,12.829004,-9.948808999999999,-25.271402,-1
1005,1006,1583586410525,3.9113998,-6.8924,-21.173399,10.941512,-9.334973,-22.832027,-1
1006,1007,1583586410535,1.8165,-6.3526998,-18.6285,8.303522000000001,-8.626107000000001,-19.650564000000003,-1
1007,1008,1583586410545,-1.0364,-5.8286,-15.3593,5.308568,-7.922997500000001,-16.179354,-1
1008,1009,1583586410555,-4.0736,-5.194,-12.0786,3.1932139999999998,-7.088541499999999,-14.107163,-1
1009,1010,1583586410566,-6.6439,-4.3269,-9.778299,0.62381405,-5.828310500000001,-11.434928,-1
1010,1011,1583586410576,-8.7337,-3.4541,-7.6871996,-1.3167822,-4.7823796,-9.062983000000001,-1
1011,1012,1583586410586,-10.3498,-2.7309,-5.8629,-2.0150368000000003,-4.1722507,-7.689266,-1
1012,1013,1583586410596,-11.2246,-2.0813,-4.3011,-2.4517105,-3.700047,-5.514316,-1
1013,1014,1583586410607,-11.63,-1.7983999,-2.6102,-2.4061152999999997,-4.202265000000001,-3.0234362999999997,-1
1014,1015,1583586410617,-11.632299,-2.3293,-0.26639998,-2.0797951,-4.30579,-0.9609847,-1
1015,1016,1583586410627,-11.3397,-2.4477,1.6592,-2.1631134,-3.8944468,0.64359015,-1
1016,1017,1583586410637,-11.451699000000001,-2.0339,3.1241,-3.0148077,-3.4280946000000005,2.6439169999999996,-1
1017,1018,1583586410647,-13.190999999999999,-1.3294,6.9177,-3.9052591,-3.1556153,5.117405000000001,-1
1018,1019,1583586410658,-13.190999999999999,-1.3294,6.9177,-3.875772,-2.6270523,6.87632,-1
1019,1020,1583586410668,-13.196798999999999,-0.0887,11.1171,-3.8269305,-2.100567,9.60999,-1
1020,1021,1583586410678,-13.0843,0.0848,13.4942,-3.6520580000000002,-2.1519756,12.070300999999999,-1
1021,1022,1583586410688,-13.0843,0.0848,13.4942,-3.3125407999999994,-2.407906,13.02599,-1
1022,1023,1583586410698,-11.2851,-0.1366,15.759198999999999,-1.6841964,-2.70676,14.263523000000001,-1
1023,1024,1583586410708,-9.7036,0.15789999,16.087598999999997,-0.119030125,-2.6696022,14.666056,-1
1024,1025,1583586410719,-8.066299,0.117199995,16.930398999999998,1.4666784,-3.1159961,15.872724,-1
1025,1026,1583586410728,-8.066299,0.117199995,16.930398999999998,2.7843513,-3.9331083,17.341845000000003,-1
1026,1027,1583586410738,-4.325,-1.2989,20.286299,5.046661,-5.202858999999999,19.438341,-1
1027,1028,1583586410749,-2.6996,-2.1316,21.144000000000002,6.4254723,-6.4791408,20.267242,-1
1028,1029,1583586410759,-1.3694,-3.3892998999999997,21.5276,7.6883845,-8.073574,20.923954000000002,-1
1029,1030,1583586410769,0.68649995,-4.43,22.4201,9.748969,-9.40498,22.024645,-1
1030,1031,1583586410779,3.3585,-5.3403,22.805999999999997,12.330292,-10.590866,22.453178,-1
1031,1032,1583586410789,6.444,-5.9828997,22.6982,15.231546,-11.563295,22.405659,-1
1032,1033,1583586410800,9.2892,-6.6884,21.4616,17.774467,-12.571225,21.055021,-1
1033,1034,1583586410810,11.5629,-7.6110997000000005,18.950499,19.762413000000002,-13.804517,18.58119,-1
1034,1035,1583586410820,13.5141,-8.7355995,15.9691,21.437826,-15.139601,15.827599,-1
1035,1036,1583586410830,14.9807,-9.6817,13.5963,22.861867999999998,-16.446527,13.535964000000002,-1
1036,1037,1583586410840,16.0732,-10.4038,11.5289,23.61927,-17.07584,11.596747,-1
1037,1038,1583586410851,16.8142,-10.805099499999999,9.003099,24.262285000000002,-17.732692999999998,8.997554,-1
1038,1039,1583586410861,17.4537,-11.4923,6.3932,24.673273000000002,-18.372377,6.7237325,-1
1039,1040,1583586410871,17.6945,-11.7956,4.1284,24.683367,-18.535267,4.8478655999999996,-1
1040,1041,1583586410881,17.369799,-11.8687,1.9432,24.229329999999997,-18.53634,2.674419,-1
1041,1042,1583586410891,16.9613,-11.6588,0.12539999,23.838825,-18.077793,0.87094355,-1
1042,1043,1583586410901,16.4509,-11.1131,-1.9655999,23.316776,-17.536753,-1.1151328999999999,-1
1043,1044,1583586410912,15.585,-10.828199,-3.4921,21.985323,-17.216082,-2.7106863999999997,-1
1044,1045,1583586410922,14.1515,-10.714499,-4.8202,20.698746,-16.887463,-4.325432,-1
1045,1046,1583586410932,12.8558,-10.4156,-6.4358997,19.755259,-16.352005,-5.936001999999999,-1
1046,1047,1583586410942,11.9711,-9.9857,-7.869,19.348644,-15.592238,-7.297805,-1
1047,1048,1583586410952,11.617599499999999,-9.1196995,-8.8531,19.286846,-14.442207999999999,-7.732381,-1
1048,1049,1583586410963,11.234799,-7.7033997,-8.6159,18.549442000000003,-12.586414,-6.9766655,-1
1049,1050,1583586410973,9.9088,-6.5088,-7.4897,16.537373000000002,-11.452271000000001,-5.684668,-1
1050,1051,1583586410983,7.2293997,-5.7172,-5.7966,13.711516,-10.430484,-3.8484397000000006,-1
1051,1052,1583586410993,4.1658998,-5.0189,-3.8672,10.976543,-9.66521,-2.8227446,-1
1052,1053,1583586411003,1.6025,-4.5864997,-3.2026,9.229964,-8.759637,-3.049782,-1
1053,1054,1583586411013,0.4096,-4.0632,-3.4006998999999998,8.947946,-8.114782,-3.6065582999999997,-1
1054,1055,1583586411023,0.0101,-3.5024,-3.8169999999999997,8.590578,-7.239979700000001,-3.704424,-1
1055,1056,1583586411033,-0.6204,-2.9011,-3.4045,7.700634,-6.441054,-3.1416619999999997,-1
1056,1057,1583586411043,-1.9467,-2.4253,-2.5049999,6.015977400000001,-5.798814,-2.2648764,-1
1057,1058,1583586411053,-4.0172,-2.1369,-1.2917,3.7546446,-5.3137099999999995,-1.3763117,-1
1058,1059,1583586411063,-6.4459,-2.0091999,-0.3518,1.5515577,-4.97313,-1.1558632,-1
1059,1060,1583586411073,-8.4544,-1.9279,-0.5395,0.094130434,-4.70362,-2.744282,-1
1060,1061,1583586411084,-9.6019,-2.0198,-2.5521,-0.44631750000000003,-4.5747256,-5.1832933,-1
1061,1062,1583586411094,-9.7845,-2.0032,-4.5031,-0.23466049,-4.347525599999999,-6.5150633000000004,-1
1062,1063,1583586411104,-9.6173,-2.1223,-5.170099700000001,-0.031095892000000003,-4.607536,-7.227060300000001,-1
1063,1064,1583586411114,-9.2663,-2.6569998,-6.3745,0.9513886999999999,-5.186789,-9.654542,-1
1064,1065,1583586411124,-8.304399499999999,-3.1678,-8.3217,1.7813244,-4.88466,-10.486286999999999,-1
1065,1066,1583586411135,-7.6341,-2.8899999,-8.5983,1.5362443000000001,-4.4643239999999995,-9.56247,-1
1066,1067,1583586411145,-8.1578,-2.7222998,-7.3489,-0.052222326,-4.573021,-8.10534,-1
1067,1068,1583586411155,-9.9129,-3.0762,-5.7411,-2.1111686,-4.817287,-6.976962599999999,-1
1068,1069,1583586411165,-11.9165,-3.4805,-4.6976,-3.5017017999999998,-5.0471306,-7.0621386,-1
1069,1070,1583586411175,-13.023299,-3.8952,-4.841,-2.776872,-5.386523,-8.191225,-1
1070,1071,1583586411186,-12.2006,-4.2616,-5.7476,-0.96261275,-5.627743700000001,-10.125816,-1
1071,1072,1583586411196,-10.3862,-4.5607,-7.6646,0.5245122,-5.779057,-11.834031,-1
1072,1073,1583586411206,-8.5814,-4.7637,-9.7885,1.9077095000000002,-5.9857054000000005,-13.921123999999999,-1
1073,1074,1583586411216,-7.3703,-4.9941998,-11.973499,2.8103907,-6.082738,-15.588293,-1
1074,1075,1583586411226,-6.5221,-5.0856,-13.2899,3.2714372000000003,-5.740443,-14.15814,-1
1075,1076,1583586411237,-6.2205997,-4.8336,-11.8308,2.5096884,-5.6245449999999995,-10.492875999999999,-1
1076,1077,1583586411247,-6.995199700000001,-4.8244,-8.1669,1.2968049,-5.7005944,-6.846976799999999,-1
1077,1078,1583586411257,-8.2189,-5.0097,-4.5158997,0.7431123000000001,-5.5690184,-5.7297363,-1
1078,1079,1583586411267,-8.7772,-4.9575,-3.4118998,1.7559746999999999,-5.540824400000001,-6.903776,-1
1079,1080,1583586411277,-7.7818,-4.9691997,-4.6393,3.9129970000000003,-5.765486699999999,-8.566415,-1
1080,1081,1583586411287,-3.2759,-5.3914,-7.384299799999999,6.744083,-5.994947,-9.571885,-1
1081,1082,1583586411298,-1.2824999,-5.403,-7.7871,8.668389,-6.022892,-9.650788,-1
1082,1083,1583586411308,0.1408,-5.2541,-7.1333,9.954947,-5.8356276,-8.549905,-1
1083,1084,1583586411318,0.1408,-5.2541,-7.1333,10.194645,-5.404623,-5.727093,-1
1084,1085,1583586411328,-0.3554,-4.7369,-0.45839998,8.947381,-5.3394914,-0.7871176999999999,-1
1085,1086,1583586411338,-2.6676998,-4.990999700000001,4.9744997,6.5903945,-5.5247736,4.728041,-1
1086,1087,1583586411348,-2.6676998,-4.990999700000001,4.9744997,5.264064299999999,-5.420003400000001,8.017358,-1
1087,1088,1583586411358,-4.6317997,-4.4672,11.3629,5.2695517999999995,-4.873953299999999,10.745742,-1
1088,1089,1583586411368,-3.5131,-4.5083,12.5682,6.596044999999999,-5.0321712,12.186639999999999,-1
1089,1090,1583586411378,-1.9666,-4.6721997,14.0836,8.120826,-5.242392,14.0254345,-1
1090,1091,1583586411388,-0.6961,-4.7033997,15.412398999999999,9.287711999999999,-5.2765236,15.461659,-1
1091,1092,1583586411398,-0.6961,-4.7033997,15.412398999999999,9.933734,-4.5739503,15.492429000000001,-1
1092,1093,1583586411409,0.2789,-3.053,13.905399,10.035564,-3.6456413,13.839147,-1
1093,1094,1583586411418,0.2789,-3.053,13.905399,9.78423,-2.9724207000000002,12.027627,-1
1094,1095,1583586411428,-0.37809998,-1.1768,10.0983,9.326508,-1.7205404,10.664539999999999,-1
1095,1096,1583586411438,-0.6077,-0.2331,9.476299000000001,9.111623,-0.81710273,10.297097,-1
1096,1097,1583586411448,-0.6077,-0.2331,9.476299000000001,8.935774,-0.38064936,10.3607645,-1
1097,1098,1583586411458,-1.2406,0.331,9.1635,8.422888,-0.38821504,9.961352999999999,-1
1098,1099,1583586411469,-1.3765,0.073199995,8.5631,8.425042999999999,-0.6283343000000001,9.325004,-1
1099,1100,1583586411479,-0.84459996,-0.0084999995,7.6274,9.050245,-0.62620825,8.400344,-1
1100,1101,1583586411489,-0.0276,0.2791,6.6417,9.851564999999999,-0.29743648,7.4403553,-1
1101,1102,1583586411499,-0.0276,0.2791,6.6417,10.276881,0.042894515999999994,6.6293429999999995,-1
1102,1103,1583586411509,0.5143,1.4606999,4.4135,10.185471000000001,1.0188476999999998,5.2186894,-1
1103,1104,1583586411520,0.012499999,2.0635,3.4445,9.622162,1.5827972,4.349154,-1
1104,1105,1583586411530,-0.64809996,2.5270998,2.9547,9.018958,2.0377721999999996,3.8906927000000002,-1
1105,1106,1583586411540,-1.0449,2.6436,2.4773,8.606608999999999,2.0376668000000002,3.290313,-1
1106,1107,1583586411551,-1.2148,2.3625,2.3205,8.610727,1.6910917,3.4116800000000005,-1
1107,1108,1583586411561,-0.95129997,1.9224,2.702,9.034606,1.1196723999999998,3.6991373999999997,d
1108,1109,1583586411571,-0.3617,1.2529,2.7252998,9.622976,0.45263818,3.5673127,-1
1109,1110,1583586411581,0.2193,0.7299,2.4566,10.222532000000001,-0.091420196,3.2153650000000003,-1
1110,1111,1583586411591,0.8305,0.2392,1.9202,10.814399,-0.52875465,2.656223,-1
1111,1112,1583586411602,1.3141999,0.058599997,1.4509999999999998,11.147853999999999,-0.66023463,2.26457,-1
1112,1113,1583586411612,1.4144,0.016099999,1.0748,11.049184,-0.7551408000000001,1.7098527,-1
1113,1114,1583586411622,1.1898,-0.076699995,0.635,10.748396000000001,-0.8221689,1.569064,-1
1114,1115,1583586411632,0.8856,-0.090399995,0.75,10.483635000000001,-0.83765453,2.0868053,-1
1115,1116,1583586411642,0.6292,-0.15799999,1.4617,10.308877,-0.98737836,2.9096922999999997,-1
1116,1117,1583586411652,0.5681,-0.3355,2.3188,10.373022,-1.1566868000000001,3.5668241999999997,-1
1117,1118,1583586411663,0.6929,-0.46399999999999997,2.8669999,10.595203999999999,-1.2044463,3.9400132000000005,-1
1118,1119,1583586411673,0.99429995,-0.4842,3.103,11.052316000000001,-1.2100966,3.7850987999999997,-1
1119,1120,1583586411683,1.4627999,-0.5049,2.7947,11.432476,-1.3185921999999999,3.3051283,-1
1120,1121,1583586411693,1.8729999,-0.6555,2.2921999,12.126019,-1.5885049,2.5295699000000003,-1
1121,1122,1583586411704,2.4993,-0.9187,1.5652,12.760530000000001,-1.618557,1.8372816000000003,-1
1122,1123,1583586411713,3.0964,-0.8958,0.9271,12.956787,-1.515568,1.4794538000000002,-1
1123,1124,1583586411723,3.2029,-0.77639997,0.59639996,12.908827,-1.2913078000000002,1.6150229999999999,-1
1124,1125,1583586411733,3.082,-0.52529997,1.1156,12.765317999999999,-0.9029588,2.5153005,-1
1125,1126,1583586411743,2.8549,-0.249,2.0755,12.418054,-0.89683926,3.5093824999999996,-1
1126,1127,1583586411753,2.6267998,-0.3671,2.7944999,12.382016,-0.9748232,3.8148253,-1
1127,1128,1583586411764,2.6234,-0.4946,3.0105999,12.547215,-1.0807331,3.3930912,-1
1128,1129,1583586411774,2.8555999,-0.6401,2.385,13.129897,-1.0905302,2.145722,-1
1129,1130,1583586411784,3.4706,-0.71489996,1.0914,13.545742,-1.2010657,1.2154788,-1
1130,1131,1583586411794,3.9192998,-0.91859996,0.0901,13.888151,-1.3405806,0.48581225,-1
1131,1132,1583586411804,4.113,-1.0301,-0.28399998,13.8049,-1.3566122,0.57705045,-1
1132,1133,1583586411814,3.9438,-1.0918,-0.1158,13.410221,-1.2962973,0.84580445,-1
1133,1134,1583586411825,3.3428998,-1.1048,0.2636,12.469816,-1.2908673000000002,1.0364212,-1
1134,1135,1583586411835,2.5161998,-1.1747999,0.2899,11.810414999999999,-1.1292013,0.75991005,-1
1135,1136,1583586411845,1.925,-1.0720999,0.0506,11.387686,-0.90410805,0.88305825,-1
1136,1137,1583586411855,1.5206,-0.9392,0.33799999999999997,11.101004,-0.72535694,1.3502723,-1
1137,1138,1583586411865,1.2343998999999999,-0.85389996,0.84499997,10.660585000000001,-0.5757289000000001,1.6062987,-1
1138,1139,1583586411875,0.7531,-0.7782,1.0562999,9.980478,-0.25584438,1.4555502,-1
1139,1140,1583586411886,0.1847,-0.57589996,0.94839996,9.453937,0.05995081,0.91356987,-1
1140,1141,1583586411896,-0.48049998,-0.2747,0.2719,8.732343,0.38221994,0.060257267,-1
1141,1142,1583586411906,-1.2034999,-0.0889,-0.5487,8.120136,0.47238556,-1.1164546,-1
1142,1143,1583586411916,-1.6711999,-0.104899995,-1.5274999,8.030334,0.44934377,-1.6997683000000001,-1
1143,1144,1583586411926,-1.7562,-0.20349999,-2.0822,8.237165,0.33277488,-1.7865342,-1
1144,1145,1583586411936,-1.5468998999999999,-0.3771,-2.1406999,8.353858,0.49886546,-1.2183901000000001,-1
1145,1146,1583586411946,-1.4254999,-0.2768,-1.5451,7.8946595,0.76432496,-0.1730529,-1
1146,1147,1583586411957,-1.8819,-0.08339999599999999,-0.4529,6.988933,0.9561675,0.8858738000000002,-1
1147,1148,1583586411967,-2.7884,0.0266,0.63299996,6.264333000000001,1.1255141000000002,1.1094157,-1
1148,1149,1583586411977,-3.4980998,0.1291,0.90489995,6.064628,1.3236488000000002,0.5999391,-1
1149,1150,1583586411987,-3.6883,0.2618,0.4362,6.3373275,1.589836,-0.119183354,-1
1150,1151,1583586411997,-3.1309,0.387,-0.48029998,6.8003086999999995,1.4617463,-0.5218305999999999,-1
1151,1152,1583586412007,-2.55,0.1401,-0.8922,7.362553,1.2544659,-1.0152565,-1
1152,1153,1583586412018,-2.55,0.1401,-0.8922,7.753353999999999,1.2010178999999999,-1.4728267,-1
1153,1154,1583586412028,-2.0776,0.0365,-1.4015,8.0286875,1.1814716,-1.6870981,-1
1154,1155,1583586412038,-1.7128999,-0.0084999995,-1.675,8.206586,1.3597629,-1.4354293,-1
1155,1156,1583586412048,-1.6187999,0.3096,-0.87439996,8.049650999999999,1.5832184999999999,-0.813454,-1
1156,1157,1583586412058,-1.9972999,0.31039998,-0.2683,7.643114999999999,1.5524961000000002,-0.29554024,-1
1157,1158,1583586412069,-2.3365,0.0874,0.0363,7.368481599999999,1.3341353999999999,-0.117555305,-1
1158,1159,1583586412079,-2.3037,-0.15799999,-0.1095,7.491285,1.1203427,-0.37145559999999994,-1
1159,1160,1583586412089,-1.831,-0.2854,-0.44669998,7.9971223,1.0287119,-0.75903857,-1
1160,1161,1583586412099,-1.2219,-0.3365,-0.91459996,8.689506,0.9874263000000001,-1.3351697,-1
1161,1162,1583586412109,-0.80969995,-0.3157,-1.2613,8.970949000000001,1.0214719,-1.5889072,-1
1162,1163,1583586412120,-0.5936,-0.295,-1.4103999,9.178191,1.0241533999999999,-1.7045566000000003,-1
1163,1164,1583586412130,-0.4851,-0.306,-1.3139,9.317907,1.003544,-1.5524961000000002,-1
1164,1165,1583586412140,-0.28759998,-0.37919998,-1.1951,9.47875,0.9429898999999999,-1.5494316000000001,-1
1165,1166,1583586412150,-0.2171,-0.3976,-1.2049,9.478442999999999,0.93913996,-1.5293682,-1
1166,1167,1583586412160,-0.2835,-0.361,-1.0902,9.421403999999999,1.0117801,-1.4438951,-1
1167,1168,1583586412170,-0.3891,-0.3452,-0.9923,9.299318,1.0320253000000001,-1.3591692,-1
1168,1169,1583586412180,-0.4948,-0.3296,-0.8696,9.185709,1.0597502,-1.1680064,-1
1169,1170,1583586412190,-0.5421,-0.2534,-0.6331,9.150869,1.1978383,-0.89242435,-1
1170,1171,1583586412200,-0.59,-0.1249,-0.36069998,9.122444,1.2921028,-0.6904303,-1
1171,1172,1583586412210,-0.4816,-0.1096,-0.3448,9.274247,1.3009518,-0.7453916,-1
1172,1173,1583586412221,-0.1679,-0.1488,-0.5737,9.7082,1.2343546,-1.0115406999999998,-1
1173,1174,1583586412231,0.2925,-0.1664,-0.65529996,10.146569,1.2554427,-1.0273424,-1
1174,1175,1583586412241,0.557,-0.1565,-0.6992,10.271432,1.2534891000000001,-1.0859046,-1
1175,1176,1583586412251,0.4987,-0.1419,-0.8419,10.124456,1.271685,-1.3183049,-1
1176,1177,1583586412261,0.2647,-0.15269999,-1.0353,9.863650999999999,1.2544084999999998,-1.3599545,-1
1177,1178,1583586412272,0.0801,-0.1867,-0.9285,9.756888,1.2746826,-1.2276316999999999,d
1178,1179,1583586412282,0.023,-0.1039,-0.8452,9.694103,1.3921708000000002,-1.0882221,-1
1179,1180,1583586412292,-0.0243,0.028099999,-0.5479999999999999,9.656122,1.5496901,-0.6492979,-1
1180,1181,1583586412302,-0.1599,0.1322,0.0953,9.440232,1.6235848999999998,0.30751127,-1
1181,1182,1583586412313,-0.2959,0.1122,0.8724,9.386161,1.5220802,0.8902886999999999,-1
1182,1183,1583586412323,-0.20699999,-0.0298,1.1838,9.655317,1.3451678999999999,0.629541,-1
1183,1184,1583586412333,0.057499997000000004,-0.21499999,0.5729,9.997917999999999,1.2991513000000001,-0.2759365,-1
1184,1185,1583586412343,0.5076,-0.1616,-0.3585,10.55797,1.4035097,-1.0741538,-1
1185,1186,1583586412353,1.0950999,-0.0506,-1.0037999,11.129025,1.5297128999999998,-1.2198267,-1
1186,1187,1583586412364,1.4383,0.092099994,-0.88259995,11.008587,1.6879984000000001,-0.7981598000000001,-1
1187,1188,1583586412374,1.1265,0.20279999,-0.44099998,10.167954,1.7394546000000002,-0.11467268,-1
1188,1189,1583586412384,0.2773,0.24159999,0.2242,9.297738,2.0005088,1.1033822,-1
1189,1190,1583586412394,-0.56049997,0.4991,1.5189999,8.27256,2.2560277,2.5337741,-1
1190,1191,1583586412405,-1.6337,0.6881,2.9048,7.064149400000001,2.3790991000000004,3.8603916,-1
1191,1192,1583586412415,-2.8349,0.8041,4.197,5.986395,2.765734,5.1336565,-1
1192,1193,1583586412425,-3.9008,1.1970999,5.4227,5.118841000000001,3.0578551,6.183955,-1
1193,1194,1583586412435,-4.6266,1.4129,6.3938,4.9765015,3.232431,7.139508999999999,-1
1194,1195,1583586412446,-4.7184,1.6782,7.3823,4.7550282,3.7438612,8.293046,-1
1195,1196,1583586412456,-5.0283,2.2723,8.4917,3.926807,4.3842235,8.9634695,-1
1196,1197,1583586412466,-6.0546,2.9498,8.9713,2.0865370999999997,5.3150319999999995,9.282138,-1
1197,1198,1583586412476,-8.0803995,4.0172,9.2794,-1.1594065,6.385298000000001,10.395116,-1
1198,1199,1583586412486,-10.850999999999999,4.896,10.266399,-4.209773,6.546418,12.644134,-1
1199,1200,1583586412497,-13.8970995,5.0933,12.523299,-7.0288973,5.947245,15.84994,-1
1200,1201,1583586412507,-16.7208,4.5639997,15.7928,-9.144222000000001,4.698821499999999,18.272978,-1
1201,1202,1583586412517,-20.230798999999998,1.8544999,18.623998999999998,-10.674644,2.6368685000000003,18.03848,-1
1202,1203,1583586412527,-20.7372,0.3306,16.1535,-10.959736,0.92259127,15.007307,-1
1203,1204,1583586412538,-20.288598999999998,-1.0453,12.3543,-10.370982000000001,-0.7724460999999999,10.848434,-1
1204,1205,1583586412548,-20.288598999999998,-1.0453,12.3543,-9.761696,-2.2255637999999998,6.940331,-1
1205,1206,1583586412559,-18.4737,-4.0211,3.5844,-8.49685,-4.5096893,1.9116935000000002,-1
1206,1207,1583586412569,-17.3297,-5.517299700000001,0.9946,-7.420177000000001,-6.375108,-0.57988524,-1
1207,1208,1583586412579,-16.3573,-6.8437,0.030199998999999998,-6.534102,-8.177147,-1.4217824,-1
1208,1209,1583586412589,-15.4787,-8.4187,0.3419,-5.791401400000001,-10.179992,-1.2599535,-1
1209,1210,1583586412600,-14.904098999999999,-9.7891,0.715,-5.3543544,-11.933046000000001,-0.9699677,-1
1210,1211,1583586412610,-14.2738,-10.7619,1.6254,-4.8253317000000004,-13.334832,-0.11326489599999999,-1
1211,1212,1583586412620,-13.4704,-11.7492,1.3683,-3.9108422,-15.074919,-1.4134984,-1
1212,1213,1583586412630,-12.1876,-12.4513,-1.1432999,-2.4809005,-16.029018,-4.1917586,-1
1213,1214,1583586412640,-10.1431,-12.764899,-4.4221,-0.81012124,-16.84362,-6.7494845,-1
1214,1215,1583586412650,-7.2620997,-13.7978,-7.6777,2.7720162999999998,-18.800228,-10.213531,-1
1215,1216,1583586412661,-3.5152997999999998,-14.7189,-10.529699,6.3276069999999995,-20.200905,-12.645100999999999,-1
1216,1217,1583586412671,0.1979,-15.899698999999998,-12.913,9.652645,-22.011426999999998,-14.451479,-1
1217,1218,1583586412681,3.7099,-16.9229,-14.242,12.785152,-23.106382,-14.8319645,-1
1218,1219,1583586412691,6.6889997,-17.5177,-14.2348995,14.895220000000002,-24.331888,-14.419137,-1
1219,1220,1583586412701,8.0756,-18.753,-13.688398999999999,15.397178,-25.96252,-13.188182999999999,-1
1220,1221,1583586412711,8.2759,-19.956999,-12.297299,15.182801999999999,-27.9454,-11.556706,-1
1221,1222,1583586412722,8.617599499999999,-21.719,-11.8552,15.913368,-29.562626,-11.680381,-1
1222,1223,1583586412732,11.0067,-22.714499,-13.0379,19.633278,-30.190912,-12.983124,-1
1223,1224,1583586412742,11.0067,-22.714499,-13.0379,23.412563000000002,-30.391965999999996,-14.160485999999999,-1
1224,1225,1583586412752,18.9914,-22.6994,-16.1742,26.310593,-30.509752000000002,-15.251698000000001,-1
1225,1226,1583586412762,21.8132,-22.5,-17.432299,28.52202,-30.037971000000002,-15.886849,-1
1226,1227,1583586412772,23.629,-21.7232,-17.7547,29.012954999999998,-29.382544,-15.23535,-1
1227,1228,1583586412783,23.2519,-20.8086,-16.0443,26.955434999999998,-28.30974,-11.739499,-1
1228,1229,1583586412793,20.5905,-19.7431,-12.3501,23.519938,-26.98231,-7.6272755000000005,-1
1229,1230,1583586412803,16.8828,-18.2475,-8.0611,19.879929,-25.290373000000002,-3.2168589,-1
1230,1231,1583586412813,13.450398999999999,-16.4722,-3.4459,16.77644,-22.934507,2.4159412000000002,-1
1231,1232,1583586412824,11.0478,-14.546498999999999,1.3787,15.081392000000001,-21.339596,6.699579700000001,-1
1232,1233,1583586412834,9.322599,-13.1717,5.589699700000001,14.004098,-20.469975,9.247364,-1
1233,1234,1583586412844,8.0448,-12.0436,8.3679,13.359472,-19.068016,10.884932000000001,-1
1234,1235,1583586412854,7.5459,-10.7113,9.571899,13.125435999999999,-17.52523,11.834386,-1
1235,1236,1583586412864,7.166599799999999,-9.57,10.467199,12.55325,-16.233616,13.039177,-1
1236,1237,1583586412874,6.3297,-8.364699,12.034599,11.653001,-14.810742000000001,15.771123999999999,-1
1237,1238,1583586412885,5.0969996,-7.0758,15.323998999999999,9.872605,-13.088803,19.227594,-1
1238,1239,1583586412895,2.7979,-5.428999999999999,18.964699,7.068172,-10.949241,22.063343,-1
1239,1240,1583586412905,-0.42909998,-3.5207,22.004,3.3726735,-8.468407000000001,24.160004,-1
1240,1241,1583586412916,-3.7638998,-1.7351999,23.8239,1.5526781,-6.665237400000001,23.164688,-1
1241,1242,1583586412926,-6.1482,-0.1857,23.0117,0.44058100000000006,-4.903105,20.68393,-1
1242,1243,1583586412936,-7.1524,1.3235999,20.6416,0.35685098,-3.5312080000000003,17.562206,-1
1243,1244,1583586412946,-7.4069,2.4752998,17.5938,0.6492595999999999,-2.3947186,14.712513000000001,-1
1244,1245,1583586412956,-7.2731,3.4020998,14.8118,0.94253016,-1.5335437,12.479068,-1
1245,1246,1583586412966,-7.1115,4.0776,12.6581,1.0119907,-1.2602503,10.820478999999999,-1
1246,1247,1583586412977,-7.1635,4.1797,11.105599,0.8209909,-1.0964295,9.998847,-1
1247,1248,1583586412987,-7.4610996,4.1554,10.4331,0.5056075,-1.1348708,9.267467,-1
1248,1249,1583586412997,-7.8862,3.9368,9.8508,0.026470292000000003,-1.0880115,8.319631,-1
1249,1250,1583586413007,-8.4584,3.8107998,9.0486,-0.72216785,-1.1340951000000001,7.142574300000001,-1
1250,1251,1583586413017,-9.2646,3.5962,8.009,-1.3826418,-1.215201,5.331849,-1
1251,1252,1583586413027,-10.179299,3.0989999999999998,4.3578997,-1.4800093,-1.4037110000000002,2.8448862999999998,-1
1252,1253,1583586413038,-10.179299,3.0989999999999998,4.3578997,-1.1848712,-1.4922197,1.6162299,-1
1253,1254,1583586413048,-9.7355995,2.8377,2.3643,0.0052385135,-1.8742193999999999,-0.72465783,-1
1254,1255,1583586413058,-8.7288,2.4273999,0.5362,1.5011071000000002,-2.4331315,-2.388762,-1
1255,1256,1583586413068,-5.8870000000000005,1.3192999,-2.5117,3.1182177,-2.9761363999999997,-4.1832066,-1
1256,1257,1583586413078,-5.0916,0.9754,-4.1728,3.7196891000000005,-3.2852662000000006,-5.960978,-1
1257,1258,1583586413089,-5.2408,0.4109,-5.7419,3.4029458,-3.8898404,-7.3823867,-1
1258,1259,1583586413099,-5.2408,0.4109,-5.7419,2.8212986,-4.511011,-7.885083,-1
1259,1260,1583586413109,-6.0330997,-0.7522,-5.973099700000001,2.8056786,-4.874777,-7.237710000000001,-1
1260,1261,1583586413119,-5.687999700000001,-0.9896,-4.435,3.2793667,-5.065173000000001,-5.7227836,-1
1261,1262,1583586413129,-4.4839,-1.0891,-3.6334,4.689082599999999,-5.1086617,-5.1577907,-1
1262,1263,1583586413139,-4.4839,-1.0891,-3.6334,6.099506400000001,-5.031271,-5.088119,-1
1263,1264,1583586413150,-1.0090000000000001,-1.1152999,-3.8658,8.18385,-5.293053,-5.560543,-1
1264,1265,1583586413160,0.1581,-1.5043,-4.435,9.263731,-5.7832419999999995,-6.2316475,-1
1265,1266,1583586413170,0.7543,-1.8601999,-5.3452997,9.644688,-6.0200768,-7.186253999999999,-1
1266,1267,1583586413180,0.8743,-1.8857,-6.1155,9.656217999999999,-6.027594000000001,-7.5860186,-1
1267,1268,1583586413190,0.9007,-1.8663,-5.8689,9.717644,-5.910968,-7.004161,-1
1268,1269,1583586413200,0.932,-1.5935,-5.1387997,9.637601,-5.6346006,-6.1832366,-1
1269,1270,1583586413210,0.5081,-1.4455999,-4.031399700000001,9.041837,-5.5075736,-4.8424354,-1
1270,1271,1583586413220,-0.2324,-1.2628,-2.6069999,8.283833,-5.2448053,-3.4739964,-1
1271,1272,1583586413230,-0.9235,-0.9697,-1.4919,7.731700999999999,-4.9139457,-2.4014225,-1
1272,1273,1583586413240,-1.2969998999999999,-0.7083,-0.4538,7.554214,-4.6358255999999995,-1.3485483999999999,-1
1273,1274,1583586413251,-1.0861,-0.37719998,0.3728,8.0057125,-4.338188,-0.757286,-1
1274,1275,1583586413261,-0.4283,-0.17189999,0.57449996,8.740848,-4.2374019999999994,-0.7204249,-1
1275,1276,1583586413272,0.38939998,-0.1865,0.259,9.597235000000001,-4.2255936,-1.5679626,-1
1276,1277,1583586413282,0.91239995,-0.0652,-0.8415,9.916755,-4.012586,-2.6811707,-1
1277,1278,1583586413292,1.1076,0.22369999,-1.8738999,9.925344,-3.7591553,-3.363499,-1
1278,1279,1583586413302,0.89629996,0.3931,-2.302,9.555633,-3.7145657999999995,-3.2394602000000003,d
1279,1280,1583586413312,0.3181,0.31399998,-1.3712,8.722623,-3.816032,-1.6758646000000001,-1
1280,1281,1583586413322,-0.48749998,0.1872,0.0642,7.8741746,-3.9097505,-0.41988552,-1
1281,1282,1583586413333,-1.2929,0.0308,1.1293,7.300658,-4.037859399999999,0.21833205,-1
1282,1283,1583586413343,-1.6826999,-0.086799994,1.4538,7.2505619999999995,-4.144545,0.16571707,-1
1283,1284,1583586413353,-1.4785999,-0.1603,1.2214999,7.6725259999999995,-4.1339436,-0.15826629999999997,-1
1284,1285,1583586413363,-0.70949996,-0.14109999,0.6717,8.976303,-4.1487875,-1.1733121000000002,-1
1285,1286,1583586413373,0.3089,-0.1512,-0.1052,9.754342,-4.2820587,-1.7570758999999998,-1
1286,1287,1583586413384,1.171,-0.3172,-0.8623,10.288622,-4.3952756,-2.3949776000000003,-1
1287,1288,1583586413394,1.4899,-0.33519998,-1.3244,10.258474,-4.383678,-2.7334888,-1
1288,1289,1583586413404,1.2541,-0.3667,-1.6444,9.771733,-4.4315042,-3.0016778,-1
1289,1290,1583586413414,0.83699995,-0.4017,-1.778,9.498325,-4.4647455,-2.8345432,-1
1290,1291,1583586413424,0.57379997,-0.45549998,-1.5224999,9.322265,-4.408462999999999,-2.4442215,-1
1291,1292,1583586413434,0.4263,-0.3954,-1.1027,9.269525999999999,-4.3147345,-2.0817582999999997,-1
1292,1293,1583586413445,0.3446,-0.34039998,-0.64959997,9.199786999999999,-4.234711,-1.7804816000000003,-1
1293,1294,1583586413455,0.29639998,-0.2821,-0.4732,9.301589,-4.1416435,-1.6851541,-1
1294,1295,1583586413465,0.4333,-0.24409999,-0.44169998,9.648738,-4.2181525,-1.9395044999999997,-1
1295,1296,1583586413475,0.8469,-0.34739998,-0.75689995,10.383624000000001,-4.403435,-2.3864925,-1
1296,1297,1583586413485,1.6547999,-0.5826,-1.2309999999999999,11.627689,-4.721749,-2.982093,-1
1297,1298,1583586413496,2.9631,-0.8951,-1.9521998999999999,12.993217,-4.7223234000000005,-4.0590625,-1
1298,1299,1583586413506,4.2486,-0.82159996,-3.0411,13.790007999999998,-4.5281153,-4.64501,-1
1299,1300,1583586413516,4.9286,-0.67509997,-3.449,14.065829999999998,-4.4440594,-4.2366934,-1
1300,1301,1583586413526,5.0902,-0.65669996,-2.9268,14.181307,-4.4198685,-2.6758652,-1
1301,1302,1583586413536,5.1572,-0.7148,-1.5482,14.576675,-4.4269365999999994,-0.9527773000000002,-1
1302,1303,1583586413546,5.5250998,-0.8034,0.15959999,14.936266,-4.5766599999999995,-0.07124187,-1
1303,1304,1583586413557,5.8426,-1.0267,1.0291,15.183137,-4.7001724000000005,-0.35343206,-1
1304,1305,1583586413567,6.0516,-1.2459999,0.7362,15.428734,-4.665619400000001,-0.9152554,-1
1305,1306,1583586413577,6.2697,-1.3127999,0.1679,15.468525,-4.695355,-1.2031151000000002,-1
1306,1307,1583586413587,6.2697,-1.4449999,-0.1463,15.598270999999999,-4.643870400000001,-0.21945253,-1
1307,1308,1583586413597,6.3447,-1.4986999,0.81009996,16.017870000000002,-4.1353707,1.9868331000000001,-1
1308,1309,1583586413608,6.7209997,-1.1136,2.9592,15.886629999999998,-3.2502725,3.5865332999999997,-1
1309,1310,1583586413617,6.5457997,-0.3814,4.5256,15.292676,-2.7707233,4.1429267,-1
1310,1311,1583586413627,5.6935,-0.00049999997,5.1233,13.762638,-2.6059064999999997,4.064684,-1
1311,1312,1583586413637,4.3332,-0.0663,5.0175,12.118022999999999,-2.8468782999999998,3.9852160000000003,-1
1312,1313,1583586413648,1.8412,-0.8124,5.1973,11.222677000000001,-2.986872,4.167587,-1
1313,1314,1583586413658,1.8412,-0.8124,5.1973,10.851394,-2.9651517999999997,4.291108599999999,-1
