,Seq,Time,ACCx,ACCy,ACCz,ADGx,ADGy,ADGz,Keydown
0,1,1583934076761,0.38689998,-0.6085,-0.4191,5.206479,-8.25967,3.8887773,-1
1,2,1583934076772,0.318,-0.7808,0.17999999,9.599801,0.8764598,-0.6859867,-1
2,3,1583934076782,-0.2033,-0.0166,0.0087,9.539725,0.53476894,0.33138624,-1
3,4,1583934076793,-0.2465,-0.1586,0.80189997,9.597636999999999,0.39410478,0.54901916,-1
4,5,1583934076803,-0.1433,-0.21849999,0.94439995,9.873793,0.39831853,0.5858036999999999,-1
5,6,1583934076813,0.1364,-0.133,0.85289997,10.150428999999999,0.5745222,0.58636874,-1
6,7,1583934076823,0.387,0.075899996,0.5335,10.231697,0.7376918,0.47707823,-1
7,8,1583934076833,0.4274,0.21069999,0.3674,10.073737,0.7271191,0.35153586,-1
8,9,1583934076843,0.19389999,0.163,0.1273,9.747427,0.81651855,-0.008025364,-1
9,10,1583934076854,-0.0779,0.24329999,-0.26299998,9.60073,0.9636662,-0.16267164,-1
10,11,1583934076864,-0.21159999,0.3401,-0.41419998,9.585445,1.099178,-0.046323012999999996,-1
11,12,1583934076874,-0.168,0.42589998,-0.24039999,9.68873,1.2345558,0.27503629999999996,-1
12,13,1583934076884,-0.102,0.43129998,0.0914,9.556763,1.231539,0.6647453000000001,-1
13,14,1583934076894,-0.2625,0.3488,0.5078,9.414461,1.1499256000000002,1.2606525,-1
14,15,1583934076904,-0.3743,0.2243,1.0218999,9.344051,1.0511598999999998,1.5767924999999998,-1
15,16,1583934076914,-0.4177,0.1004,1.1751,9.321795,0.87304085,1.125543,-1
16,17,1583934076925,-0.4231,-0.1489,0.5002,9.554569,0.6306039999999999,0.01622311,-1
17,18,1583934076935,-0.2051,-0.3586,-0.46179998,10.023182,0.5471804,-0.41529822,-1
18,19,1583934076946,0.42299998,-0.4502,-0.8979,10.768458,0.6555899000000001,-0.10113108,-1
19,20,1583934076956,0.9327,0.0053,-0.0784,10.58853,1.0809245,0.45364377,-1
20,21,1583934076966,0.9327,0.0053,-0.0784,9.974129,1.3152115,0.5534245,-1
21,22,1583934076976,-0.6252,0.4996,0.3286,8.978639999999999,1.6136344999999999,0.9477495000000001,-1
22,23,1583934076986,-0.6252,0.4996,0.3286,8.538519,1.7265451,1.5220898,-1
23,24,1583934076996,-1.1481,0.5844,0.8425,8.460726,1.8250330000000001,1.9804837,-1
24,25,1583934077006,-1.1180999,0.5816,1.4372,8.656284,1.73141,2.040492,-1
25,26,1583934077016,-0.89849997,0.5671,1.2275,8.867117,1.7410157,1.8379903999999998,-1
26,27,1583934077026,-0.6893,0.4585,0.9244,9.071342,1.6050824,1.5448635,-1
27,28,1583934077037,-0.38239998,0.21429999,0.6246,9.401351,1.3808128,1.317826,-1
28,29,1583934077047,-0.0949,0.066,0.5618,9.660269,1.2556343,1.3094846000000002,-1
29,30,1583934077057,-0.120699994,0.0106,0.58,9.534908,1.2302461999999998,1.3689375,-1
30,31,1583934077067,-0.5187,0.0656,0.79109997,9.085785000000001,1.3528867,1.6265919,-1
31,32,1583934077078,-1.0534999,0.2428,1.0561,8.542301,1.5506574,1.8993107,-1
32,33,1583934077088,-1.5198,0.42859998,1.3542,7.9830440000000005,1.8702642,2.3379476,-1
33,34,1583934077098,-1.9964,0.7054,1.8115,7.4920125,2.094668,2.7419738999999996,-1
34,35,1583934077108,-2.5226998,0.73249996,2.1917999,6.950176,2.0962863,3.1748552000000005,-1
35,36,1583934077118,-3.0702,0.6791,2.5388,6.440536499999999,2.0295360000000002,3.358021,-1
36,37,1583934077128,-3.5314998999999996,0.59819996,2.5468,5.9968624,1.9264033999999999,3.3306410000000004,-1
37,38,1583934077138,-3.9062997999999998,0.5487,2.5582,5.7197094,1.8921664,3.3423917000000003,-1
38,39,1583934077148,-4.1946,0.53999996,2.5128,5.433698000000001,1.9455953999999998,3.1887894,-1
39,40,1583934077158,-4.3465,0.7459,2.2289,5.3265915,2.08263,2.8890257000000004,-1
40,41,1583934077168,-4.4792,0.7999,1.5698999,5.2042575,2.0293156999999997,1.9763848000000002,-1
41,42,1583934077178,-4.466,0.653,0.7053,5.282442,1.7736150000000002,1.121674,-1
42,43,1583934077189,-4.357199700000001,0.31829998,0.13859999,5.4028516,1.3087090000000001,0.6956688,-1
43,44,1583934077199,-4.3192997,-0.12619999,-0.019,5.383113400000001,0.78475225,0.57546073,-1
44,45,1583934077209,-4.4976997,-0.5658,0.0859,5.0563720000000005,0.37049790000000005,0.68937683,-1
45,46,1583934077220,-5.0188,-0.7874,0.50909996,4.41668,0.16361976,1.3566695,-1
46,47,1583934077230,-5.5481997000000005,-0.81079996,1.275,4.0027413,0.18098250000000002,1.9291998,-1
47,48,1583934077240,-6.1447997,-0.58489996,1.9074999,3.3718023,0.4017949,2.3279686,-1
48,49,1583934077250,-6.8483,-0.3403,1.9102,2.6634919999999997,0.41503963,1.9405388,-1
49,50,1583934077260,-7.3262997,-0.5204,1.2056,2.5293016,-0.08661264,1.2004814,-1
50,51,1583934077271,-7.1183,-0.8616,0.72429997,2.9573083,-0.66760874,0.7393008000000001,-1
51,52,1583934077281,-6.6556997,-1.4086,0.2408,3.4451987999999996,-1.796877,0.05431965,-1
52,53,1583934077292,-6.2896,-2.2628,-0.2591,3.7360082,-2.5285451,-0.21823627,-1
53,54,1583934077302,-5.9112,-2.8253999,-0.4798,4.14217,-2.8652272,-0.5105683,-1
54,55,1583934077312,-5.5393996,-2.7696,-0.8232,4.403099500000001,-2.7146416,-1.0198246,-1
55,56,1583934077322,-5.4291,-2.3851,-1.1564,4.1527047,-2.3897102,-1.0583904,-1
56,57,1583934077332,-5.865,-1.7610999,-0.90779996,3.485412,-1.9064933000000002,-0.41324878,-1
57,58,1583934077342,-6.433399700000001,-1.2624999,-0.4055,2.9776974,-1.9259819999999999,-0.08325118599999999,-1
58,59,1583934077353,-6.8943996,-1.2309999999999999,-0.1481,2.5632994,-2.4580407,-0.34821272,-1
59,60,1583934077363,-7.2503996,-1.6469999999999998,-0.57769996,2.5577736,-3.3726830000000003,-1.5554171,-1
60,61,1583934077373,-7.1296,-2.424,-1.9804,3.262684,-4.7449536,-3.4853157999999995,-1
61,62,1583934077383,-6.1963,-3.6769,-3.8355,4.9679112000000005,-6.497825,-4.6897910000000005,-1
62,63,1583934077393,-4.263099700000001,-5.2035,-4.7623997000000005,7.318480999999999,-8.068938000000001,-4.861072,-1
63,64,1583934077404,-1.8399999,-6.3384,-4.648,9.414278999999999,-8.665363000000001,-4.1322775,-1
64,65,1583934077414,0.1371,-6.4743,-3.8683,10.195851,-8.121084,-3.7655141000000003,-1
65,66,1583934077424,0.6825,-5.7054,-3.6425998,9.240852,-6.866675999999999,-3.683393,-1
66,67,1583934077434,-0.2263,-4.2606,-3.6172,7.509672,-6.136224299999999,-3.7189998999999996,-1
67,68,1583934077444,-1.8999,-3.3413,-3.7275998999999995,6.476306,-6.451722,-4.2682486,-1
68,69,1583934077454,-2.87,-3.4638998999999995,-4.3777,6.875496000000001,-7.389282000000001,-5.0401110000000005,-1
69,70,1583934077465,-2.1183,-4.4997997000000005,-5.4638,9.385127,-9.421394,-5.8194422999999995,-1
70,71,1583934077475,0.22109999,-5.9080997,-6.193,11.531568,-10.650730000000001,-5.948595,-1
71,72,1583934077485,2.9017,-7.1607,-6.4554,13.560078,-11.420352000000001,-6.1920660000000005,-1
72,73,1583934077495,4.6003,-7.4412,-6.8184,14.064632000000001,-11.336143,-6.684707,-1
73,74,1583934077505,5.2283998,-7.1236,-7.4740996,13.632872,-10.793377,-6.4721785,-1
74,75,1583934077516,3.1799,-5.2269998,-5.8408,11.396927,-9.750483000000001,-4.3627047999999995,-1
75,76,1583934077526,3.1799,-5.2269998,-5.8408,9.964083,-9.844823,-3.1625202,-1
76,77,1583934077536,1.4509999999999998,-5.115,-4.4535,9.19993,-10.594391,-2.7511196,-1
77,78,1583934077546,2.3444998,-6.3322997,-4.6221,11.067657,-11.522,-3.2079334,-1
78,79,1583934077556,4.7244,-7.0446,-5.8778,13.291429500000001,-12.486815,-4.5414176,-1
79,80,1583934077566,4.7244,-7.0446,-5.8778,14.845745999999998,-13.206254000000001,-5.932257,-1
80,81,1583934077576,8.0816,-7.8851,-9.0707,16.059566,-13.438481,-7.3750990000000005,-1
81,82,1583934077587,7.8813996,-7.6938996,-8.8531,15.416599,-13.327420000000002,-6.740884299999999,-1
82,83,1583934077598,6.1152,-7.3304,-7.0676,13.378617000000002,-13.009757,-4.754128,-1
83,84,1583934077608,3.9694,-6.6689997000000005,-4.8163,10.939739,-12.119296,-2.2842312000000002,-1
84,85,1583934077618,2.5864,-5.6252,-3.6134,10.023517,-11.1169195,-1.5916845,-1
85,86,1583934077628,2.6359,-4.740999700000001,-3.593,10.3896,-10.569032,-1.7130896,-1
86,87,1583934077638,4.0716,-4.3015,-4.0892,11.93794,-10.294378,-2.2017078,-1
87,88,1583934077648,5.7794,-4.1721997,-4.4768,13.7474,-10.305678,-2.5536366000000004,-1
88,89,1583934077659,6.9447,-4.3054,-4.6038,14.416072,-10.697379,-2.5592580000000003,-1
89,90,1583934077669,7.0958,-4.7908998,-4.3682,14.211828,-11.359366,-2.1940656,-1
90,91,1583934077679,6.6204996,-5.4379,-3.6244,13.617204000000001,-11.955399,-1.1852543,-1
91,92,1583934077689,6.0499997,-5.6686997,-2.148,13.171748000000001,-12.069141,-0.007144298,-1
92,93,1583934077699,5.6917,-5.522,-0.88159996,12.801921,-11.797027,1.2507885,-1
93,94,1583934077710,5.5403,-4.995,-0.0008,12.6581545,-11.275302,2.0354736,-1
94,95,1583934077720,5.3631997,-4.6337,0.84639996,12.482639,-11.1141815,2.8142693,-1
95,96,1583934077730,5.2618,-4.6602,1.7364998999999999,12.50934,-11.171948,3.6209907999999995,-1
96,97,1583934077740,5.473799700000001,-4.7191,2.3643,12.879465,-11.3947525,3.9350047,-1
97,98,1583934077751,5.8703,-5.0369997,2.5046,13.396142999999999,-11.871285,3.9609767999999996,-1
98,99,1583934077761,6.4953,-5.5392,2.5181,14.201735000000001,-12.162467999999999,3.958937,-1
99,100,1583934077771,7.2036996,-5.6151,2.6780999,14.329173,-12.084072,3.9602873,-1
100,101,1583934077782,6.968,-5.5085998,3.036,14.066184,-11.629672,4.8935474999999995,-1
101,102,1583934077792,6.4235,-5.0169997,4.143399700000001,13.099214,-11.011623,6.002139,-1
102,103,1583934077802,5.4474998,-4.6684,4.9814997000000005,12.3807335,-10.748509,6.208461799999999,-1
103,104,1583934077812,4.5,-4.4358,5.1770997,11.651823,-10.432486,5.9688025,-1
104,105,1583934077822,3.9422,-4.3306,4.9702997,11.548987,-10.178641,5.6775139999999995,-1
105,106,1583934077832,3.7666,-4.1447,4.7816,11.555902,-9.624184,5.794753599999999,-1
106,107,1583934077842,3.628,-3.7129998,5.059,11.269325,-9.063787,6.128773000000001,-1
107,108,1583934077852,3.1608,-3.3242,5.4514,10.816544,-8.633731,6.3863224999999995,-1
108,109,1583934077862,2.4637,-2.9491,5.7153997,10.272361,-8.088044,6.0895085,-1
109,110,1583934077872,2.0018,-2.71,5.3525,10.164095,-7.894698,5.4480925000000004,-1
110,111,1583934077882,1.7781999,-2.7398,4.7762,10.010484,-7.8487005000000005,5.2002825999999995,-1
111,112,1583934077893,1.4791,-2.9015,4.7043,9.652674000000001,-7.863525999999999,5.2743883,-1
112,113,1583934077903,0.9952,-3.0512,4.8589997,9.316777,-7.583088,5.2000720000000005,-1
113,114,1583934077913,0.4743,-2.748,4.7808,8.893311,-6.637206,5.0834074000000005,-1
114,115,1583934077924,0.0356,-2.1071,4.7388997,8.479448,-5.8624425,4.9793167,-1
115,116,1583934077934,-0.505,-1.5656999,4.686,7.970307400000001,-5.2996135,5.003096,-1
116,117,1583934077944,-1.1166999,-1.2663,4.7244997,7.519517,-4.880312,5.1245685,-1
117,118,1583934077954,-1.5435,-1.1172,4.8798,7.3126964999999995,-4.63891,5.1276236,-1
118,119,1583934077964,-1.8838999,-1.0007,4.8563,6.9974375,-4.405839,4.9138402999999995,-1
119,120,1583934077974,-2.2179,-1.0165,4.6668997,6.892763,-4.2652225,4.7560625,-1
120,121,1583934077985,-2.3796,-1.0481,4.5023,6.905164999999999,-3.9815383,4.681784599999999,-1
121,122,1583934077995,-2.4185,-0.93829995,4.4213,6.9367684999999994,-3.8273036,4.4750123,-1
122,123,1583934078005,-2.4435,-0.9532,4.232199700000001,7.152658,-3.3770504,4.231895,-1
123,124,1583934078017,-2.2883,-0.6728,3.9922998,7.069503,-2.8133687999999997,4.1372285,-1
124,125,1583934078027,-2.9875998,0.066,3.9238,6.327808,-2.125869,4.15576,-1
125,126,1583934078037,-3.6945,0.3992,4.0109997,5.7158403,-1.7006876,4.160183999999999,-1
126,127,1583934078047,-4.1019998,0.3791,3.8787,5.481007599999999,-1.678977,4.020899,-1
127,128,1583934078058,-4.0527,0.1582,3.8216,5.6174,-1.7272633000000002,3.9685330000000003,-1
128,129,1583934078068,-3.7043,0.089499995,3.6165,6.031559,-1.6670060000000002,3.6695452000000004,-1
129,130,1583934078078,-3.2935,0.0607,3.1720998,6.490298,-1.5094771,3.1039963,-1
130,131,1583934078088,-3.1550999,0.1239,2.5932999,6.5509667,-1.3076458999999998,2.4698777,-1
131,132,1583934078098,-3.2214,0.2942,2.073,6.3995,-1.0007955,2.0255904,-1
132,133,1583934078109,-3.4828,0.41419998,1.7279999,6.1094475,-0.8387941999999999,1.7847049,-1
133,134,1583934078119,-3.7918,0.3583,1.6017,5.874442,-0.86265004,1.6171396999999998,-1
134,135,1583934078129,-3.9324,0.1683,1.3407999,5.8477516,-0.9106586,1.3560375,-1
135,136,1583934078139,-3.8162,0.16059999,1.3162999,6.012128,-0.699739,1.3695791000000002,-1
136,137,1583934078149,-3.6980998999999994,0.31509998,1.3658999,6.1115065,-0.46245444,1.3295864,-1
137,138,1583934078159,-3.6469998,0.5027,1.3668,6.128304,-0.08326076,1.3526951999999999,-1
138,139,1583934078170,-3.6731,0.9478,1.7154,6.094766,0.4037486,1.6831716,-1
139,140,1583934078181,-3.9236,1.2586,2.1620998,5.573912,0.70151067,2.114578,-1
140,141,1583934078191,-4.4769,1.1147,2.211,5.018429,0.45745534,1.7093164,-1
141,142,1583934078201,-4.921,0.76839995,1.6222999,4.8279457,0.13236105,0.9396571,-1
142,143,1583934078211,-4.8732,0.3633,0.9043,5.30919,-0.15078682,0.25310543,-1
143,144,1583934078221,-4.1472,0.17459999,0.2767,6.176379,-0.17991947,-0.5238609000000001,-1
144,145,1583934078232,-3.3713998999999997,0.1769,-0.5365,6.770438700000001,-0.10251014,-1.4498615,-1
145,146,1583934078242,-2.8995,0.2922,-1.3578,7.026579400000001,0.04853525400000001,-2.11227,-1
146,147,1583934078252,-2.7710000000000004,0.3769,-1.8033999,6.985303999999999,0.16717274,-2.3518531000000005,-1
147,148,1583934078262,-2.8486,0.4477,-1.8922,6.827794,0.15767254,-2.3041317,-1
148,149,1583934078273,-3.0442,0.34919998,-1.7222998999999999,6.670428,-0.0552486,-1.983012,-1
149,150,1583934078283,-3.1615999,0.18069999,-1.4222,6.448907,-0.07255389,-1.7554381999999997,-1
150,151,1583934078294,-3.3967,0.1601,-1.2109999999999999,6.1936374,-0.15927188,-1.7321282999999998,-1
151,152,1583934078304,-3.6116998,0.0554,-1.181,6.266794,-0.27217284,-1.9711174999999999,-1
152,153,1583934078314,-3.4536998,-0.0792,-1.4818,6.734180499999999,-0.23422953,-2.3877852,-1
153,154,1583934078325,-2.9424,0.013999999499999999,-1.9029,7.436878699999999,0.07676768,-3.0320937999999997,-1
154,155,1583934078336,-2.3628,0.2839,-2.4292998,7.8292885,0.14031936,-3.4404392,-1
155,156,1583934078346,-1.7536,0.1576,-3.0537,8.075968,-0.19007088,-3.6967337,-1
156,157,1583934078356,-1.7536,0.1576,-3.0537,8.331372,-0.54143435,-3.7613769,-1
157,158,1583934078366,-1.4688,-0.25439999,-3.1532,8.762444,-0.9306165999999999,-3.604375,-1
158,159,1583934078377,-0.6242,-0.8207,-2.5756,9.2122755,-1.1152861,-3.0880987999999996,-1
159,160,1583934078387,-0.56479996,-0.6691,-2.1617,9.164095,-0.9158299999999999,-2.7242757999999996,-1
160,161,1583934078398,-0.9271,-0.43199998,-1.9199,8.70139,-0.61394036,-2.4995084,-1
161,162,1583934078408,-1.5245999,-0.16139999,-1.6932,8.070959,-0.34017777,-2.299487,-1
162,163,1583934078418,-1.8765999,0.0251,-1.5042,7.909207,-0.15012603,-2.1408186000000002,-1
163,164,1583934078428,-1.6989,0.1752,-1.4550999,8.290977,-0.02441128,-2.2008843,-1
164,165,1583934078438,-1.119,0.2706,-1.6743,8.9655285,0.11589851,-2.5820029,-1
165,166,1583934078448,-0.41149998,0.3964,-2.1415,9.490022,0.15072936,-2.982888,-1
166,167,1583934078459,0.1096,0.3005,-2.5326998,10.016238000000001,-0.03998317,-3.2970072999999998,-1
167,168,1583934078469,0.2774,0.1135,-2.4866,10.028812,-0.30343154,-3.1384442000000004,-1
168,169,1583934078479,0.1996,-0.1583,-2.2175,9.9508295,-0.5380729000000001,-2.8715482000000003,-1
169,170,1583934078490,0.0725,-0.2498,-1.9893999,9.797044999999999,-0.5241960999999999,-2.6575541,-1
170,171,1583934078500,0.0725,-0.2498,-1.9893999,9.758566,-0.3740222,-2.2904273999999996,-1
171,172,1583934078510,-0.064899996,0.1196,-1.2205,9.6473875,-0.12696931,-1.8798602,-1
172,173,1583934078520,-0.3105,0.26029998,-1.0409,9.378633500000001,0.022419303999999998,-1.6652630000000002,-1
173,174,1583934078530,-0.3989,0.37449998,-0.8014,9.389369,0.11221145,-1.4237456,-1
174,175,1583934078540,-0.37919998,0.4261,-0.5694,9.479794,0.0022984335999999997,-1.3700197,-1
175,176,1583934078551,-0.19209999,0.2994,-0.7269,9.80348,-0.20603542,-1.6490016,-1
176,177,1583934078561,0.17199999,0.1197,-1.0158,10.1595745,-0.34108755,-1.8675540000000002,-1
177,178,1583934078571,0.4974,0.0296,-1.1741999,10.386851,-0.46197557,-1.9199389999999998,-1
178,179,1583934078581,0.6461,-0.0639,-1.1074,10.404147,-0.6057905,-1.7336318,-1
179,180,1583934078591,0.5787,-0.1452,-0.8555,10.210476,-0.5832275,-1.3828813999999998,-1
180,181,1583934078601,0.3344,-0.0771,-0.4685,9.936454,-0.5167166,-1.0278308,d
181,182,1583934078612,0.040599998,-0.0519,-0.1227,9.662385,-0.5430145000000001,-0.66225535,-1
182,183,1583934078622,-0.1846,-0.0757,0.23959999,9.519364999999999,-0.6338600999999999,-0.38137716,-1
183,184,1583934078632,-0.2529,-0.1538,0.3742,9.561608,-0.6875668,-0.43060195,-1
184,185,1583934078642,-0.0955,-0.1661,0.2821,9.968833,-0.68290293,-0.65064824,-1
185,186,1583934078652,0.23879999,-0.1423,0.0722,10.149002000000001,-0.66567427,-0.79164755,-1
186,187,1583934078662,0.3967,-0.0954,-0.0616,10.1742935,-0.63582337,-0.89059514,-1
187,188,1583934078673,0.3681,-0.038799997,-0.1987,10.1312275,-0.68525887,-1.0092995999999999,-1
188,189,1583934078683,0.3786,-0.091699995,-0.2795,10.317162,-0.8409201999999999,-0.98047346,-1
189,190,1583934078693,0.6049,-0.22569999,-0.2597,10.520064,-0.92206454,-1.0257814,-1
190,191,1583934078703,0.7625,-0.2767,-0.30449998,10.488911,-0.92052263,-0.9263933000000001,-1
191,192,1583934078714,0.6846,-0.2676,-0.18869999,10.140546,-0.93343216,-0.72977185,-1
192,193,1583934078724,0.3707,-0.2677,-0.022699999,9.8363,-0.7891289,-0.4177116,-1
193,194,1583934078734,0.066199996,-0.1352,0.299,9.603162,-0.62580603,-0.20387106,-1
194,195,1583934078745,-0.21859999,0.0765,0.5495,9.3669405,-0.48286262,-0.05958689,-1
195,196,1583934078756,-0.3956,0.1748,0.6408,9.415485,-0.4876223,-0.12392388,-1
196,197,1583934078766,-0.2191,0.12979999,0.34379998,9.615449,-0.5828349,-0.40012857,-1
197,198,1583934078776,-0.2191,0.12979999,0.34379998,9.802369,-0.64561087,-0.46956998,-1
198,199,1583934078786,0.3217,0.0558,-0.1215,10.1426325,-0.6714491,-0.9014264999999999,-1
199,200,1583934078798,0.42029998,0.0166,-0.46789998,10.190641000000001,-0.7461673000000001,-1.1551927,-1
200,201,1583934078808,0.4991,-0.0288,-0.5767,10.307747,-0.77180445,-1.1513524,-1
201,202,1583934078818,0.5875,0.0163,-0.37649998,10.339839,-0.73232883,-0.9376843,-1
202,203,1583934078828,0.3518,0.015099999499999999,-0.0664,10.04652,-0.7370119,-0.59717137,-1
203,204,1583934078838,-0.060599997999999995,0.0278,0.40269998,9.529584,-0.6769845,-0.024372973,-1
204,205,1583934078849,-0.4534,0.1085,0.7269,9.193361,-0.6039901,0.121079564,-1
205,206,1583934078859,-0.7283,0.1846,0.60679996,9.0094385,-0.55331916,-0.07965988,-1
206,207,1583934078869,-0.72819996,0.17099999,0.38639998,9.13022,-0.5893375,-0.33744836,-1
207,208,1583934078879,-0.4136,0.1372,0.12459999,9.421097999999999,-0.66025376,-0.5254411,-1
208,209,1583934078889,0.0484,-0.0761,-0.060599997999999995,10.010196,-0.95682836,-0.7076303,-1
209,210,1583934078899,0.5007,-0.2201,-0.1883,10.391324000000001,-1.057452,-0.7917241999999999,-1
210,211,1583934078910,0.6976,-0.2418,-0.1813,10.44663,-1.0553545,-0.7074675,-1
211,212,1583934078920,0.5112,-0.1936,-0.078899994,10.122053,-1.0171335,-0.5931108,-1
212,213,1583934078930,0.108399995,-0.13419999,0.0752,9.759993,-0.9188466999999999,-0.39282146,-1
213,214,1583934078940,-0.196,-0.0491,0.2865,9.470916,-0.85070777,-0.1978281,-1
214,215,1583934078950,-0.3823,0.0084,0.4251,9.36877,-0.7832486999999999,-0.035913024,-1
215,216,1583934078960,-0.39159998,0.0711,0.53679997,9.39436,-0.73335356,0.042329486,-1
216,217,1583934078971,-0.33179998,0.090799995,0.5588,9.541181,-0.80128187,-0.07205589,-1
217,218,1583934078981,-0.1443,0.0475,0.3789,9.766294,-0.7906036999999999,-0.34572270000000005,-1
218,219,1583934078991,0.09219999599999999,0.096,0.0569,9.950905,-0.806597,-0.7000166999999999,-1
219,220,1583934079001,0.2111,0.076699995,-0.29729998,9.9860525,-0.8899630999999999,-0.9312966,-1
220,221,1583934079011,0.2121,-0.012999999,-0.4168,9.979961999999999,-0.9885371999999999,-0.88192815,-1
221,222,1583934079022,0.23259999,-0.0365,-0.2321,9.945561,-0.90036345,-0.5684409,-1
222,223,1583934079032,0.1646,0.07400000000000001,-0.047599997000000005,9.809389,-0.8415523000000001,-0.46458048,-1
223,224,1583934079042,-0.0212,0.133,0.06839999599999999,9.69598,-0.80383885,-0.33978509999999995,-1
224,225,1583934079052,-0.0501,0.1428,0.1384,9.74375,-0.8687216999999998,-0.2986144,-1
225,226,1583934079062,0.029199999,0.057099998,0.1814,9.868899,-1.1334534,-0.23521596,-1
226,227,1583934079072,0.14829999,-0.1925,0.22729999,10.025557000000001,-1.3292321000000002,-0.2559306,-1
227,228,1583934079083,0.2969,-0.3425,0.1954,10.158502,-1.3849403,-0.3401969,-1
228,229,1583934079093,0.4357,-0.3548,0.1015,10.210332000000001,-1.3025415,-0.36388993,-1
229,230,1583934079103,0.44669998,-0.2219,0.07279999599999999,10.067359,-1.1718851000000001,-0.35385343,-1
230,231,1583934079113,0.27109998,-0.110599995,0.0611,9.916888,-1.1637256999999999,-0.3727293,-1
231,232,1583934079123,0.16409999,-0.0787,0.060099997,9.936167,-1.1178431999999998,-0.32257559999999996,-1
232,233,1583934079134,0.1848,-0.0265,0.0813,9.940985000000001,-1.1194903999999999,-0.31609207,-1
233,234,1583934079144,0.19579999,-0.032199997,0.1135,9.959132,-1.1753328,-0.26814103,-1
234,235,1583934079154,0.25599998,-0.12619999,0.1281,10.141542,-1.3113521000000001,-0.28931534,-1
235,236,1583934079164,0.4339,-0.1815,0.114599995,10.177282,-1.3093218999999998,-0.18792568,-1
236,237,1583934079174,0.4351,-0.1699,0.2094,9.906344,-1.3215419,-0.027820623,-1
237,238,1583934079185,0.16149999,-0.17029999,0.37289998,9.714531,-1.3027138999999999,0.06673119,-1
238,239,1583934079195,-0.023799999,-0.1511,0.4274,9.645050999999999,-1.2325158,0.06630981,-1
239,240,1583934079205,-0.1011,-0.0413,0.41169998,9.700289999999999,-1.1570315,-0.05920382,-1
240,241,1583934079215,-0.0407,0.0231,0.31559998,9.882211,-1.1130261000000001,-0.30521283,-1
241,242,1583934079225,0.13759999,0.0814,0.0598,10.113625,-1.0456629000000002,-0.44943956,-1
242,243,1583934079235,0.3849,0.1707,-0.088999994,10.320628,-1.108774,-0.5956581999999999,-1
243,244,1583934079245,0.58309996,0.1313,-0.2571,10.4725065,-1.1972061,-0.50227475,-1
244,245,1583934079255,0.7417,0.0482,-0.1664,10.411972,-1.0872452,-0.38254556,-1
245,246,1583934079265,0.6839,0.1742,-0.0499,10.146196,-1.1352826,-0.31855333,d
246,247,1583934079276,0.4195,0.12719999,0.0128,10.041129,-1.1962868999999998,-0.121462636,-1
247,248,1583934079286,0.48909998,0.0713,0.29299998,10.264708500000001,-1.1817875,-0.09007944,-1
248,249,1583934079296,0.75479996,0.08800000000000001,0.14739999,10.550021000000001,-1.1874091999999998,-0.19560628,-1
249,250,1583934079306,0.95199996,-0.00049999997,0.3089,10.707692999999999,-1.3231700000000002,-0.012401965,-1
250,251,1583934079317,1.0217,-0.2148,0.33609998,10.779645,-1.5609142,-0.0014365210999999999,-1
251,252,1583934079327,1.2484,-0.46539998,0.0385,11.072972,-1.8162127000000001,-0.34957259999999996,-1
252,253,1583934079337,1.7495999,-0.5479999999999999,-0.34759998,11.585245,-1.8728212,-0.693945,-1
253,254,1583934079348,2.1915998,-0.4572,-0.6989,12.001386,-1.7922898999999997,-1.0062159,-1
254,255,1583934079358,2.6622,-0.4332,-1.0965999,12.4858,-1.7878557000000002,-1.3706709,-1
255,256,1583934079368,3.0532,-0.527,-1.2297,12.901950999999999,-1.9912671000000002,-1.2650962,-1
256,257,1583934079378,3.3648,-0.99329996,-0.7398,13.253544,-2.5364652000000003,-0.6919338,-1
257,258,1583934079388,3.7735999,-1.5954,-0.2259,13.634154999999998,-3.0924468,-0.2369302,-1
258,259,1583934079398,3.9756,-2.0095,0.0976,13.65192,-3.3125792,-0.12547532,-1
259,260,1583934079409,3.7645,-2.0502,-0.103999995,13.459963,-3.2461545,-0.35871845,-1
260,261,1583934079419,3.6996998999999997,-1.9122,-0.41459998,13.501707999999999,-2.994246,-0.6912921999999999,-1
261,262,1583934079429,3.9387,-1.7761999,-0.6152,13.841704,-2.895768,-0.8162024999999999,-1
262,263,1583934079439,4.3743,-1.8838999,-0.5618,14.304770000000001,-3.0952048,-0.5570636999999999,-1
263,264,1583934079449,4.829799700000001,-2.3838,-0.14119999,14.817760999999999,-3.6590872,-0.08885361,-1
264,265,1583934079459,5.3245,-3.0828,0.154,15.2154875,-4.310875,0.033279404,-1
265,266,1583934079469,5.5639,-3.5928998,0.0414,15.33965,-4.581104,-0.10974063,-1
266,267,1583934079479,5.4491997,-3.7157,0.012399998999999998,15.07988,-4.531841,-0.18846197,-1
267,268,1583934079490,4.9512,-3.6620998,-0.22389999,14.455548,-4.2950919999999995,-0.30949366,-1
268,269,1583934079500,4.1783,-3.3813,-0.1856,13.480965,-3.6935062000000007,-0.032551567999999996,-1
269,270,1583934079510,3.3767,-2.9665,0.22909999,12.905503999999999,-3.3061339999999997,0.5132594,-1
270,271,1583934079520,2.802,-2.7554,0.91209996,12.233153999999999,-2.9368045,1.3659686000000002,-1
271,272,1583934079531,2.1799,-2.5483,1.6197,11.657062,-2.6020377,1.8334126,-1
272,273,1583934079540,1.5891,-2.363,1.8706,11.142405,-2.3793766,1.9081213,-1
273,274,1583934079550,0.91209996,-2.3263,1.9800999,10.4617605,-2.2549452999999997,1.9720273000000001,-1
274,275,1583934079560,0.3057,-2.3787,1.8125999,9.962188000000001,-2.1233313,1.5435514,-1
275,276,1583934079570,0.093499996,-2.3304,1.355,9.868985,-1.8276762,1.1489774,-1
276,277,1583934079580,0.0499,-2.1325,1.0953,9.773782,-1.5143996000000002,0.9653229999999999,-1
277,278,1583934079591,-0.1486,-1.9751999,0.9801,9.460401,-1.2420161,0.929908,-1
278,279,1583934079601,-0.6685,-1.6754999,1.0863,8.70844,-0.6500161999999999,1.1824676,-1
279,280,1583934079611,-1.3722,-1.3224,1.3471,7.9016223,-0.14124832,1.3483665,-1
280,281,1583934079622,-2.1812,-1.0210999,1.4138,7.1699443,0.22255541,1.3904086000000002,-1
281,282,1583934079632,-2.7721999,-0.8655,1.5194,6.728606699999999,0.49525496,1.4789176000000002,-1
282,283,1583934079642,-3.0477,-0.8029999999999999,1.5856999,6.461931,0.6605219,1.2953683999999999,-1
283,284,1583934079652,-3.2726,-0.7542,1.3642,6.375500700000001,0.9708775,0.72517496,-1
284,285,1583934079663,-3.3195,-0.54469997,0.7934,6.2130013,1.4265898000000001,0.2958563,-1
285,286,1583934079674,-3.5214999,-0.2058,0.48889998,5.75681,1.8462551999999999,0.30582574,-1
286,287,1583934079684,-3.9764,0.044499997,0.60789996,5.226217,2.2960875,0.30611306,-1
287,288,1583934079694,-4.3803997,0.29549998,0.6095,4.883778599999999,2.79705,0.094197474,-1
288,289,1583934079704,-4.6949,0.6779999999999999,0.4335,4.266544000000001,3.2372669999999997,-0.22290018,-1
289,290,1583934079714,-5.2833,0.9967,0.1768,3.5453242999999994,3.5645354,-0.21477905,-1
290,291,1583934079724,-5.9694,1.203,0.2206,3.2155852000000005,3.7872536,-0.04499183599999999,-1
291,292,1583934079734,-6.4704,1.4583,0.48439997,2.7964084,4.2635274,0.3088903,-1
292,293,1583934079744,-6.699,1.7852999,0.8617,2.6344645,4.776787000000001,0.55374056,-1
293,294,1583934079755,-6.8033,2.1273,1.0424,2.4614499,4.9389415,0.23987985,-1
294,295,1583934079765,-6.9603996,2.22,0.7622,2.547335,5.0808506,-0.5784296,-1
295,296,1583934079775,-6.8661,2.3174,-0.0168,2.873023,5.408195500000001,-1.4037205,-1
296,297,1583934079785,-6.5298,2.6036,-0.8132,3.0915275,5.766932499999999,-2.0635147000000003,-1
297,298,1583934079796,-6.2932,2.9359999,-1.4398999,2.9196334,6.080458599999999,-2.5414642999999995,-1
298,299,1583934079806,-6.9079999999999995,3.5519,-1.6154,2.3277674,6.511194000000001,-2.1932325,-1
299,300,1583934079816,-7.524399799999999,3.7970998,-1.0173,1.7222738000000002,6.7554984,-1.5852871000000002,-1
300,301,1583934079827,-8.0845995,3.8551998,-0.3215,1.1403583000000002,6.7642136,-0.93434197,-1
301,302,1583934079837,-8.7184,3.5269999999999997,0.2058,0.49494849999999996,6.3455443,-0.49475699999999995,-1
302,303,1583934079847,-9.0845995,2.8769,0.366,0.2630749,5.6711073,-0.49266925,-1
303,304,1583934079857,-9.0845995,2.8769,0.366,0.546443,5.187842400000001,-0.89919513,-1
304,305,1583934079867,-8.135,1.8878,-0.8013,1.3516608,4.634341200000001,-1.7553425,-1
305,306,1583934079877,-7.7953,1.6056,-1.5683999,1.5987617,4.282681,-2.5236224999999997,-1
306,307,1583934079887,-7.9955997000000005,1.416,-2.0237,1.3305056999999998,4.0399756,-2.8945036,-1
307,308,1583934079897,-8.4696,1.5396999,-2.0872,0.81683457,4.248664,-2.8800522999999996,-1
308,309,1583934079907,-9.0803995,2.0363,-1.8304,0.16030617,4.619056700000001,-2.485507,-1
309,310,1583934079917,-9.9959,2.1438,-1.0317,-0.7855184000000001,4.4523150000000005,-1.6676668999999997,-1
310,311,1583934079927,-11.266299,1.5442,-0.014599998999999999,-1.9962758000000003,3.6435343999999996,-0.6167751,-1
311,312,1583934079938,-12.149099,0.48529997,1.1668999,-2.7157332999999997,2.3663332,0.66064644,-1
312,313,1583934079948,-12.4014,-0.9122,2.2946,-2.6678782,0.57199395,1.8115488000000002,-1
313,314,1583934079958,-11.688499,-1.8299999,2.6037,-1.5414541000000002,-0.15433982,1.8420604,-1
314,315,1583934079968,-10.369599000000001,-1.7448,2.1554,-0.3169923,0.04292325,1.120994,-1
315,316,1583934079978,-9.4498,-0.8386,0.6902,0.63417614,0.9606495,-0.5769643,-1
316,317,1583934079989,-8.5331,0.41329998,-1.0122,1.3482133,1.6706932,-1.726162,-1
317,318,1583934079999,-8.2458,0.91359997,-1.7146,1.3695791000000002,1.5433407,-2.159637,-1
318,319,1583934080009,-8.7354,0.0229,-1.3116,0.9212408999999999,-0.024296357999999997,-1.1794508,-1
319,320,1583934080019,-8.8358,-1.5732,0.38979998,1.0943992,-1.870628,0.6121303000000001,-1
320,321,1583934080029,-8.3712,-2.9594998,1.7801,1.6344353,-3.260376,1.4336001,-1
321,322,1583934080039,-7.910599700000001,-3.6383,1.6001999,2.0768263,-3.836536,0.61203456,-1
322,323,1583934080050,-7.4049997,-3.4984,0.2512,2.7177062000000003,-3.908946,-0.96868443,-1
323,324,1583934080060,-6.7447,-3.2847998,-0.7287,3.7114341,-4.1871715,-0.8973372,-1
324,325,1583934080070,-5.5825,-3.4605,-0.1396,4.6293135,-4.7987556,0.027791892999999998,-1
325,326,1583934080080,-4.3856997,-4.1373997000000005,0.90809995,6.2351813,-6.3330660000000005,1.2248545,-1
326,327,1583934080090,-2.75,-5.2606,1.4749999,7.5700827,-7.7006817,1.473363,-1
327,328,1583934080100,-1.0769,-6.7559,1.3666999,9.273548,-10.056892,1.2822673,-1
328,329,1583934080110,0.1418,-8.319799,1.1012,10.008922,-11.739461,1.0170857,-1
329,330,1583934080120,0.8347,-9.373799,0.8323,10.497425,-12.587553999999999,1.0613209,-1
330,331,1583934080130,1.6558,-9.5725,1.0581,11.135039,-12.699372,1.4305642,-1
331,332,1583934080140,2.2999,-8.809,1.2940999,11.719972,-12.008712,1.862507,-1
332,333,1583934080150,2.8453,-7.995199700000001,1.6704999,11.956882,-11.686615,2.513998,-1
333,334,1583934080160,3.2245998,-7.419699700000001,2.4459,12.265074,-11.762436,3.2980129999999996,-1
334,335,1583934080171,3.7319998999999995,-7.5674996,2.5498998,12.828315,-12.432350999999999,3.2851322,-1
335,336,1583934080181,4.4816,-7.9396,2.3158998,13.212153,-13.038708,2.89798,-1
336,337,1583934080191,4.7907,-8.2682,1.7853999,13.139915,-13.643204999999998,2.630835,-1
337,338,1583934080202,4.9307,-8.6558,1.6079999,13.414128,-14.200145000000001,2.4137287,-1
338,339,1583934080212,5.5909,-8.727,1.1495,14.334478,-13.931764000000001,1.8679465,-1
339,340,1583934080222,6.577999999999999,-8.116199499999999,0.728,14.993917999999999,-13.106311,2.082017,-1
340,341,1583934080232,7.2728,-7.0116997,0.91929996,14.669570000000002,-12.204663,2.344364,-1
341,342,1583934080242,6.8889,-5.9631,1.0346999,13.495512,-11.610174,2.6831627,-1
342,343,1583934080252,5.8085,-5.2620000000000005,1.2904999,12.473398,-11.335578,3.1758606,-1
343,344,1583934080263,4.7223,-4.8037,1.9261999,11.107600999999999,-11.079906,4.1301993999999995,-1
344,345,1583934080273,3.7933,-4.4937997,2.4687997999999998,10.162419,-11.469433,4.1745305,-1
345,346,1583934080283,3.2391999,-4.8901997,2.2324,10.594353,-12.275445,3.8003833,-1
346,347,1583934080293,4.1741,-5.4751997,1.7276,12.172609,-12.660528999999999,3.7937657999999996,-1
347,348,1583934080304,6.0182,-5.5969996,1.7455,13.25365,-12.424059,4.1467285,-1
348,349,1583934080314,6.9687996,-5.1303997,1.9584999,12.760347,-11.950696,4.0795856,-1
349,350,1583934080324,6.3519998,-4.552,1.7378999,11.423148,-11.462633,3.8684747,-1
350,351,1583934080334,5.1363,-3.9924,1.5752,10.380579,-11.074735,4.214523000000001,-1
351,352,1583934080344,4.3156,-3.5483,1.9568,9.750051,-10.817042,5.006429,-1
352,353,1583934080354,3.8516998,-3.2431997999999997,2.7359,9.24204,-10.916545,5.4971833,-1
353,354,1583934080365,3.5231998,-3.3425998999999997,2.9308999,9.513044,-11.1522875,4.196413,-1
354,355,1583934080375,3.9961,-3.4464998,1.6078999,10.362066,-10.971372,2.6436775000000003,-1
355,356,1583934080386,5.7125998,-2.8824,-0.6301,10.972023,-10.700875,2.196201,-1
356,357,1583934080396,5.6363997,-2.7194,0.1713,10.674242,-10.578387,3.1957326,-1
357,358,1583934080406,5.6363997,-2.7194,0.1713,9.796154,-10.308283,4.0711580000000005,-1
358,359,1583934080417,3.2972998999999996,-1.9932,1.7256999,8.047209,-9.887746,4.5450473,-1
359,360,1583934080427,2.2242,-1.6996,1.6631,7.066237400000001,-9.623485,4.5126967,-1
360,361,1583934080437,2.0105999,-1.26,1.6478,6.931482000000001,-9.142077,4.604835,-1
361,362,1583934080447,2.1554,-0.7298,1.8871,6.9779963,-8.692867,4.8999157,-1
362,363,1583934080457,2.0449998,-0.6013,1.8657999,6.776874,-8.653919,4.851801999999999,-1
363,364,1583934080468,2.0449998,-0.6013,1.8657999,6.6463037,-8.730821,4.469735,-1
364,365,1583934080478,2.0584,-0.66209996,0.78669995,6.8279853,-8.6998205,3.6407190000000003,-1
365,366,1583934080488,2.4145,-0.47759998,0.3048,7.060242,-8.533749,3.4142082,-1
366,367,1583934080498,2.5035,-0.4111,0.2917,6.9968147,-8.538364999999999,3.4804125,-1
367,368,1583934080508,2.1167998,-0.4253,0.67689997,6.5429125,-8.549292,3.9494559999999996,-1
368,369,1583934080518,1.5809,-0.36409998,1.2189,6.0981565,-8.501149,4.3551774000000005,-1
369,370,1583934080528,1.1671,-0.2769,1.505,5.521537,-8.415695,4.583766000000001,-1
370,371,1583934080539,0.8526,-0.2715,1.2019,5.289030599999999,-8.452288000000001,4.0939794,-1
371,372,1583934080549,0.8487,-0.3656,0.65029997,5.452641000000001,-8.572938,3.6012814,-1
372,373,1583934080559,1.2636,-0.547,0.14029999,5.9747496,-8.795895,3.1497445,-1
373,374,1583934080569,1.8585,-0.7468,-0.1943,6.467543599999999,-8.941721000000001,2.8987557999999995,-1
374,375,1583934080579,2.204,-0.8197,-0.3868,6.60973,-9.037364,2.7880093999999995,d
375,376,1583934080590,2.0783,-0.8853,-0.3067,6.3502846,-9.075441,3.093778,-1
376,377,1583934080600,1.7155,-0.9246,0.2811,5.825054,-9.169908,3.8382597,-1
377,378,1583934080610,1.2383,-1.0361,0.7614,5.505486,-9.205141000000001,4.0306864000000004,-1
378,379,1583934080620,0.93579996,-0.9848,0.82229996,5.2985690000000005,-9.118853999999999,3.8838546000000003,-1
379,380,1583934080631,0.9091,-0.94619995,0.52099997,5.4375577,-9.010196,3.5914464,-1
380,381,1583934080641,1.0695,-0.8012,0.2938,5.5147276,-8.865633,3.5186242999999995,-1
381,382,1583934080651,1.0504999,-0.7154,0.2365,5.4499884000000005,-8.895235000000001,3.5039525,-1
382,383,1583934080662,1.0267,-0.86469996,0.2355,5.6093845,-9.096224000000001,3.5056762999999997,-1
383,384,1583934080672,1.2731999,-1.0426999,0.242,5.9812330000000005,-9.221795,3.4587595,-1
384,385,1583934080682,1.5260999,-1.1528,0.13409999,6.14604,-9.307468,3.3029926,-1
385,386,1583934080692,1.6573,-1.2265999,0.024799999,6.1474385,-9.2670355,3.421065,-1
386,387,1583934080702,1.5281,-1.1959,0.2383,5.8563805,-9.339455000000001,3.6008315000000004,-1
387,388,1583934080712,1.2188,-1.3448,0.3322,5.74097,-9.472591,3.6370702000000006,-1
388,389,1583934080723,1.1335,-1.4757999,0.34600000000000003,6.095742700000001,-9.611849000000001,3.5463489999999998,-1
389,390,1583934080733,1.5577999,-1.6557,0.175,6.73895,-9.731817,3.1896703,-1
390,391,1583934080743,2.1656,-1.7863,-0.177,7.390507700000001,-9.822921000000001,2.8054490000000003,-1
391,392,1583934080753,2.7649999,-1.8879,-0.4978,7.901650999999999,-9.868286,3.0418906000000003,-1
392,393,1583934080764,3.1539998,-1.9514999,-0.0348,8.094327,-10.00875,3.9152668,-1
393,394,1583934080774,3.2131,-2.1555998,0.84849995,8.145946,-10.104460000000001,4.300627700000001,-1
394,395,1583934080784,3.2022,-2.2482,1.1682,8.517841,-10.157679,4.0685244,-1
395,396,1583934080794,3.5878,-2.3567998,0.8383,9.379802999999999,-10.216078,3.1723842999999996,-1
396,397,1583934080804,4.4495997,-2.4308999,-0.0411,10.751727,-10.139952000000001,2.7088954,-1
397,398,1583934080815,5.468499700000001,-2.4097,-0.2686,11.297357,-10.326019,3.0330129,-1
398,399,1583934080825,5.8935,-2.6481,0.1444,11.258388499999999,-10.627574000000001,3.4708934,-1
399,400,1583934080835,5.6755,-3.1009,0.7704,11.035009,-11.063117,3.7646617999999994,-1
400,401,1583934080845,5.3497996,-3.5152997999999998,1.0961,11.178824,-11.169611,3.5095549,-1
401,402,1583934080856,5.3366,-3.7033,0.9428,11.573580999999999,-11.287061999999999,3.1617444,-1
402,403,1583934080866,5.5808,-3.9085,0.6896,11.865798,-11.289839,2.9275053,-1
403,404,1583934080876,5.7297,-4.0018,0.5254,11.891645,-11.205649000000001,3.037313,-1
404,405,1583934080886,5.1538,-3.9731,1.4368,11.486279,-10.984712,3.8250148,-1
405,406,1583934080896,4.379699700000001,-3.8639997999999998,2.0368,10.83292,-10.739335,4.2740903,-1
406,407,1583934080906,4.379699700000001,-3.8639997999999998,2.0368,10.432456,-10.500164,4.199114,-1
407,408,1583934080917,3.3439,-3.5205,1.4151,10.245383,-10.089866,3.339768,-1
408,409,1583934080927,3.2515,-3.2415,0.56729996,10.314067999999999,-9.672833,2.532644,-1
409,410,1583934080937,3.0493999,-3.0765,0.1707,10.210944,-9.408868,2.2201334999999998,-1
410,411,1583934080947,2.4998,-3.0661,0.54679996,9.763287,-9.177817999999998,2.7261243,-1
411,412,1583934080958,1.7193999,-2.8388999,1.5425999,9.101271,-8.760786,3.6251086999999997,-1
412,413,1583934080968,0.90819997,-2.5523,2.2652,8.402441,-8.156174,4.26619,-1
413,414,1583934080978,0.287,-2.2326999,2.6365,8.048425,-7.7898417,4.3954477,-1
414,415,1583934080988,-0.2085,-2.0426,2.6131,7.767317,-7.3163165999999995,4.189393,-1
415,416,1583934080998,-0.34129998,-1.8319,2.3295999,7.8230925000000004,-7.007492999999999,3.8183974999999997,-1
416,417,1583934081008,-0.51379997,-1.6893,1.8330000000000002,7.735081699999999,-6.646227400000001,3.114052,-1
417,418,1583934081019,-0.738,-1.6945,1.3735,7.659271700000001,-6.4841685,2.6011564999999996,-1
418,419,1583934081029,-0.78999996,-1.6414,1.0174999,7.8295474,-6.149066400000001,2.3209965,-1
419,420,1583934081039,-0.6908,-1.4029,1.0482,7.987105000000001,-5.746745,2.3983293,-1
420,421,1583934081049,-0.8329,-1.3036,1.3677,7.8516026,-5.5059260000000005,2.7326653,-1
421,422,1583934081060,-1.1859,-1.3439,2.0093,7.499846000000001,-5.3719373,3.4557330000000004,-1
422,423,1583934081070,-1.6006,-1.4534,2.7280998,7.087650999999999,-5.3276067000000005,4.0154786,-1
423,424,1583934081080,-2.1733,-1.6492,3.3067,6.64458,-5.33296,4.2628093,-1
424,425,1583934081090,-2.7958,-1.7541,3.3831,6.0840015,-5.1092267,3.7853765,-1
425,426,1583934081100,-3.2819,-1.6876,2.7210999,5.8342957,-4.808964700000001,2.950327,-1
426,427,1583934081111,-3.3967998,-1.5146998999999999,1.9591999,6.141271,-4.366267,2.2941146,-1
427,428,1583934081121,-2.9354,-1.1738,1.484,6.841508,-3.7829822999999996,1.9434118000000002,-1
428,429,1583934081131,-2.2825,-0.74649996,1.2754999,7.3484755,-3.2067652,1.8508519,-1
429,430,1583934081141,-2.0486,-0.3478,1.3793,7.281370599999999,-2.7504972999999997,1.9454613,-1
430,431,1583934081151,-2.4017,-0.1498,1.5446,6.7720094,-2.4955529999999997,1.8852519,-1
431,432,1583934081162,-2.9975998,-0.1129,1.4944998999999999,6.289932,-2.2614002,1.8031307,-1
432,433,1583934081172,-3.4222998999999996,0.012,1.6352999,6.008795,-1.8557648999999998,1.6857287,-1
433,434,1583934081182,-3.6158997999999998,0.1994,1.5842999,6.089039,-1.4690439,1.3295767,-1
434,435,1583934081192,-3.5484998,0.42200000000000004,1.3669,6.145695,-1.0175741,1.0101806999999998,-1
435,436,1583934081202,-3.5342,0.75979996,1.1851,6.0395080000000005,-0.45033019999999996,0.7647368,-1
436,437,1583934081213,-3.7106998,1.1640999,1.0766,5.7656302,-0.12805149,0.5934268,-1
437,438,1583934081223,-4.1179,1.3513,1.0198,5.270461599999999,0.08272446,0.52348745,-1
438,439,1583934081233,-4.540499700000001,1.3245,1.1195998999999999,4.820112,0.1250348,0.46760675,-1
439,440,1583934081243,-4.9693,1.2335,1.1272,4.8182735,0.077275254,0.36018372,-1
440,441,1583934081253,-4.8364997,1.0824,1.0776,5.394040599999999,-0.056627657000000005,-0.033566706,-1
441,442,1583934081263,-4.1822,0.8717,0.6954,6.203166,-0.2635537,-0.71367323,-1
442,443,1583934081274,-3.4001,0.62329996,0.039899997,6.729536,-0.32172322,-1.1645683999999998,-1
443,444,1583934081284,-2.9617999,0.5516,-0.2854,6.802683999999999,-0.11669339,-1.061972,-1
444,445,1583934081295,-2.9851,0.7273,-0.037499998,6.244107,0.14137281,-0.4722419,-1
445,446,1583934081306,-4.3044,0.76919997,0.8526,5.4472785,0.17158765,-0.14723383,-1
446,447,1583934081316,-4.3044,0.76919997,0.8526,4.9142137,0.17722839,-0.015121778,-1
447,448,1583934081326,-5.1432,0.616,0.8904,4.6014643,0.15942511,-0.22743960000000002,-1
448,449,1583934081336,-5.1432,0.616,0.8904,4.758639,0.013330915,-0.66469747,-1
449,450,1583934081346,-5.0593,0.45049998,0.54399997,5.334301,-0.035501223,-0.5665926,-1
450,451,1583934081357,-3.685,0.2455,0.97209996,6.041059,-0.14303918,-0.30703244,-1
451,452,1583934081367,-3.4561,0.0859,1.1675,6.255589499999999,-0.30116183,-0.13728352,-1
452,453,1583934081377,-3.6604997999999997,-0.0144,0.986,5.9908004,-0.386654,-0.45704353,-1
453,454,1583934081387,-3.8955,-0.0058999998,0.37379998,5.836336,-0.31865865,-1.0951079,-1
454,455,1583934081397,-3.6397,0.259,-0.1184,6.249708999999999,0.06295793,-1.579541,-1
455,456,1583934081408,-3.1759,0.691,-0.5262,6.6124496,0.47896484,-2.0917950000000003,-1
456,457,1583934081418,-2.9833,0.7969,-1.0192,6.7794886,0.49420154,-2.5165644,-1
457,458,1583934081428,-2.5902,0.7012,-1.1201,7.1919713000000005,0.417702,-2.62891,-1
458,459,1583934081438,-2.2216,0.5597,-0.98789996,7.548928,0.23491907,-2.4976408,-1
459,460,1583934081448,-2.0453,0.3416,-0.5845,7.680388000000001,0.041706994,-2.061465,-1
460,461,1583934081458,-2.1515,0.077599995,0.1937,7.3419633,-0.27315927,-1.3732566000000002,-1
461,462,1583934081469,-2.4663,-0.3055,0.72459996,7.0522265,-0.5515762,-1.2526846999999999,-1
462,463,1583934081479,-2.6499,-0.47349998,0.5335,6.9661117,-0.6099851,-1.5383896000000001,-1
463,464,1583934081489,-2.408,-0.5672,0.2519,7.408034,-0.7571232,-1.8327134999999999,-1
464,465,1583934081499,-1.8069998999999999,-0.76309997,0.1182,8.077223,-0.93353754,-2.0060058,-1
465,466,1583934081510,-1.1386,-0.85069996,-0.27699998,8.694362,-0.9971754,-2.5921925999999997,-1
466,467,1583934081520,-0.54829997,-0.8656,-0.9948,9.44028,-1.0177943999999999,-3.4337258000000004,-1
467,468,1583934081530,0.0725,-0.86179996,-1.5602,9.841835000000001,-1.0167408000000002,-3.80544,-1
468,469,1583934081540,0.3992,-0.815,-1.8798,10.030650999999999,-0.96318734,-3.9990157999999996,-1
469,470,1583934081550,0.4707,-0.7403,-1.9937999,10.056451,-0.9183296000000001,-4.131961,-1
470,471,1583934081560,0.44239998,-0.8077,-2.1643999,10.025433,-0.95403194,-4.439079799999999,-1
471,472,1583934081571,0.4069,-0.78429997,-2.5774,9.959122,-0.84578526,-4.785071,-1
472,473,1583934081581,0.36229998,-0.70409995,-2.5361,9.866649,-0.67595977,-4.214781299999999,-1
473,474,1583934081591,0.2007,-0.5870000000000001,-1.5802,9.553842,-0.5833233,-2.9424740000000003,-1
474,475,1583934081601,-0.19409999,-0.5464,-0.2934,9.101759,-0.41125682,-2.1574342,-1
475,476,1583934081612,-0.5985,-0.366,0.080699995,8.810816,-0.03850834,-2.373487,-1
476,477,1583934081622,-0.7791,-0.0064999997,-0.3868,8.906009,0.46300990000000003,-3.120248,-1
477,478,1583934081632,-0.5991,0.3793,-0.9325,9.064706,0.699241,-3.4016914,-1
478,479,1583934081642,-0.39159998,0.6023,-1.2702999,9.357901,0.7799159999999999,-3.7228112,-1
479,480,1583934081652,-0.0579,0.5697,-1.5733,9.805099,0.6251644000000001,-3.9760508999999997,-1
480,481,1583934081662,0.3346,0.42299998,-1.7287999,10.095352,0.4635462,-3.9369967000000003,-1
481,482,1583934081673,0.5703,0.2645,-1.5900999,10.061307000000001,0.38862684,-3.4193797,-1
482,483,1583934081683,0.47259998,0.20799999,-1.0203999,9.713583,0.38003644,-2.9146533,-1
483,484,1583934081693,0.0611,0.19649999,-0.5882,9.351579,0.39756197,-2.7077463,-1
484,485,1583934081703,-0.34129998,0.2164,-0.43379998,9.06776,0.49093586,-2.7633683999999996,-1
485,486,1583934081713,-0.4798,0.31219998,-0.5079,9.138494999999999,0.5550526,-2.8082645,-1
486,487,1583934081724,-0.38299999999999995,0.33879998,-0.53209996,9.393699,0.41638997,-2.7539065,-1
487,488,1583934081734,-0.0797,0.17799999,-0.4948,9.808863,0.16225985,-2.7702446,-1
488,489,1583934081745,0.34129998,-0.0459,-0.525,10.307871,-0.12522632,-2.9719894,-1
489,490,1583934081755,0.7527,-0.24859999,-0.7119,10.508333,-0.391519,-3.4173687000000004,-1
490,491,1583934081765,0.9572,-0.4928,-1.1582,10.573044,-0.48846504,-3.3915303,-1
491,492,1583934081775,1.023,-0.5787,-1.1503,10.525686,-0.44108856,-2.9797373,-1
492,493,1583934081785,0.90279996,-0.52959996,-0.6313,10.11284,-0.40369114,-2.2737446,-1
493,494,1583934081795,0.5487,-0.5111,-0.0482,9.73018,-0.28518775,-1.8464754,-1
494,495,1583934081806,0.1765,-0.40089998,0.3843,9.634698,-0.19557755,-1.8308556,d
495,496,1583934081816,0.0011999999,-0.2007,0.28059998,9.688683000000001,-0.015409082,-2.3518436,-1
496,497,1583934081827,0.41399997,-0.2008,-0.7653,10.044356,-0.0707726,-3.1403594,-1
497,498,1583934081837,0.83529997,-0.3071,-1.2961,10.486737,-0.19614258,-3.593036,-1
498,499,1583934081847,1.2175,-0.47559997,-1.4545,10.824683,-0.359906,-3.6727436,-1
499,500,1583934081858,1.3936,-0.5252,-1.2214999,10.980661,-0.35197636,-3.3744263999999995,-1
500,501,1583934081867,1.4419,-0.3698,-0.92219996,10.946903,-0.14616123,-3.130476,-1
501,502,1583934081877,0.93039995,-0.1856,-0.9417,10.327658,0.07905654,-3.1818461,-1
502,503,1583934081887,0.17379999,-0.0857,-1.1976,9.607625,0.18454507,-3.5028415,-1
503,504,1583934081897,-0.0433,-0.0999,-1.7669,9.587408,0.17712304,-4.1092830000000005,-1
504,505,1583934081907,0.4849,-0.3085,-2.5207999,10.260676,-0.067526065,-4.82265,-1
505,506,1583934081918,1.681,-0.7216,-3.0238,11.502703,-0.5249048000000001,-5.3168225,-1
506,507,1583934081928,2.8481998,-1.3477,-3.7303,12.595416,-1.1348898,-6.0772786,-1
507,508,1583934081938,3.4750997999999997,-1.7958,-4.4226,13.071067999999999,-1.5161139,-6.675571000000001,-1
508,509,1583934081948,3.4034998,-1.9875,-4.3431997,12.763863,-1.5571504999999999,-6.212359999999999,-1
509,510,1583934081958,2.6243,-1.8190998999999999,-3.6583997999999998,11.964984,-1.3410115,-5.684658,-1
510,511,1583934081968,1.4618,-1.5509,-3.2384,10.64306,-0.89143795,-5.214561499999999,-1
511,512,1583934081980,0.48619998,-1.2125,-3.1557999,9.746584,-0.48989198,-5.293982499999999,-1
512,513,1583934081991,-0.1839,-1.0803,-3.6100998,9.347183,-0.41881293,-6.0258517,-1
513,514,1583934082001,-0.18509999,-1.2278,-4.3115,9.654207000000001,-0.6249537,-6.604444,-1
514,515,1583934082011,0.2575,-1.5279,-4.8156,10.037873,-0.8248791,-6.8615046,-1
515,516,1583934082022,0.555,-1.7802,-4.892299700000001,10.077042,-0.9623541999999999,-6.279828,-1
516,517,1583934082032,0.4226,-1.9434999,-4.145,9.4407015,-0.9243438,-4.9197397,-1
517,518,1583934082043,-0.35619998,-1.9611,-2.7769999999999997,8.1621685,-0.68293166,-3.9560256000000003,-1
518,519,1583934082053,-1.6657,-1.8075,-2.0311,7.1483774,-0.32179028,-3.7681959000000003,-1
519,520,1583934082063,-2.5463,-1.4905,-1.9969,6.728846000000001,0.23809858,-4.0348809999999995,-1
520,521,1583934082074,-2.8409998,-1.0407,-2.4032,7.021916,0.42671376,-4.6668644,-1
521,522,1583934082085,-2.5486,-1.0167,-3.0067,7.531372999999999,0.30577785,-4.946239,-1
522,523,1583934082095,-2.0400999,-1.1898,-3.3393,7.968621700000001,0.19366218,-5.27276,-1
523,524,1583934082105,-1.5974,-1.3535,-3.718,7.9893265,0.13313676,-5.1252965999999995,-1
524,525,1583934082115,-1.5733999,-1.4868,-3.6099,7.454078699999999,0.24123017,-3.9116561,-1
525,526,1583934082125,-2.1062999,-1.4461,-2.4371,6.46173,0.44682510000000003,-2.2904560000000003,-1
526,527,1583934082136,-3.0899,-1.3353,-0.87579995,5.205769999999999,0.78433084,-0.90896344,-1
527,528,1583934082146,-4.9058,-0.91709995,0.7884,4.483075599999999,1.0959315,-0.4291463,-1
528,529,1583934082156,-4.9058,-0.91709995,0.7884,4.388878,1.3194348999999999,-0.60203636,-1
529,530,1583934082166,-4.7082,-0.4533,-0.34039998,5.0524263,1.5643523000000001,-1.6461668999999999,-1
530,531,1583934082176,-3.9910997999999998,-0.4553,-0.8836,5.710382,1.5303162000000001,-1.8832695,-1
531,532,1583934082186,-3.9910997999999998,-0.4553,-0.8836,6.174301,1.4945277,-1.6179441,-1
532,533,1583934082196,-3.2331998,-0.6403,-0.0826,6.3334875,1.3081152,-0.77040625,-1
533,534,1583934082206,-3.2331998,-0.6403,-0.0826,6.098568,1.2118205,-0.114117235,-1
534,535,1583934082216,-4.0895,-1.0024998999999999,1.4045,5.3877873,0.9258761000000001,0.9305113000000002,-1
535,536,1583934082226,-4.0895,-1.0024998999999999,1.4045,4.8640985,0.7816303000000001,1.8297830000000002,-1
536,537,1583934082237,-5.3872,-1.2124,3.3028998,4.122116,0.7846469,2.9615605,-1
537,538,1583934082247,-5.621299700000001,-1.0081,3.7577,3.987811,1.0132741,3.4379587,-1
538,539,1583934082257,-5.621299700000001,-1.0081,3.7577,4.0151143,1.3088716999999999,3.5755584000000002,-1
539,540,1583934082268,-5.684,-0.43129998,4.062999700000001,3.9338267,1.4482048,3.9762422999999996,-1
540,541,1583934082278,-5.6884,-0.49089998,4.4072,3.9706972,1.1693281,4.6197557,-1
541,542,1583934082288,-5.683799700000001,-0.82229996,5.2209997,3.9780045,0.82170916,5.4528612999999995,-1
542,543,1583934082298,-5.6007,-1.1165,6.1636996,4.1942873,0.4140724,6.627035,-1
543,544,1583934082308,-5.2032,-1.1596999,7.0385,4.6976633,0.39505285,7.615514999999999,-1
544,545,1583934082318,-4.8143997,-0.8953,7.8486996,4.8918040000000005,0.70514023,8.255158999999999,-1
545,546,1583934082329,-4.9726,-0.3374,7.915,4.571374,1.2100773999999999,8.128239,-1
546,547,1583934082339,-5.4526997,0.1919,7.4286,4.1681614,1.5050048,7.801889,-1
547,548,1583934082349,-5.9908,0.4136,7.2939,3.5989258,1.4735258,8.005291,-1
548,549,1583934082359,-6.2258997,0.20729999,7.8497996,3.6094408,1.0000197,8.798988,-1
549,550,1583934082370,-5.825,-0.2965,8.786799,4.282269,0.3483755,9.824942,-1
550,551,1583934082380,-4.6796,-0.7152,9.7869,5.8900332,-0.23181619,10.743855,-1
551,552,1583934082390,-3.3564,-0.8875,10.1051,6.892935799999999,-0.3493715,10.581175,-1
552,553,1583934082400,-2.481,-0.69409996,9.4613,7.440709599999999,-0.16776649999999999,9.518483999999999,-1
553,554,1583934082410,-2.3871,-0.3207,8.4634,7.195217599999999,0.011520899,8.709914,-1
554,555,1583934082420,-2.8213,-0.102,7.922999999999999,6.739237299999999,-0.07874051,8.610363000000001,-1
555,556,1583934082431,-3.3529,-0.2574,8.2129,6.340631500000001,-0.7336216999999999,9.191513,-1
556,557,1583934082441,-3.3049998,-0.81799996,8.7922,6.985993400000001,-1.5055315,9.629412,-1
557,558,1583934082451,-2.3621,-1.4152,9.1663,8.15152,-2.1385682,9.533932,-1
558,559,1583934082461,-1.209,-1.7757,8.818,9.183937,-2.6155791,8.8504925,-1
559,560,1583934082472,-0.19579999,-1.9950999,8.049,10.219975,-2.8760107,7.892572400000001,-1
560,561,1583934082482,0.8459,-1.9434999,7.1768,11.152584,-2.9351572999999997,7.3965416,-1
561,562,1583934082492,1.4721999,-1.8946999,7.0072,11.112496,-3.5320222,7.366135000000001,-1
562,563,1583934082503,1.2771,-2.3922,6.9666,10.330252999999999,-4.28632,7.092573599999999,-1
563,564,1583934082513,0.46609998,-2.977,6.7373,9.718993,-5.129299,6.802376700000001,-1
564,565,1583934082523,0.0309,-3.5823998,6.496,9.898616,-5.907424400000001,6.3928156,-1
565,566,1583934082533,0.4046,-4.2595997,6.0569997,10.980576,-6.547203,5.652346,-1
566,567,1583934082543,1.6463,-4.6066,5.2338,12.338605000000001,-6.5923386,4.7027483,-1
567,568,1583934082553,2.9701998,-4.3752,4.3736,12.963281,-6.461633999999999,4.2910794999999995,-1
568,569,1583934082564,3.4127,-4.1046,4.0854,12.416148,-6.516174299999999,4.2080584000000005,-1
569,570,1583934082574,2.7168,-4.0748997000000005,4.0593,11.331048,-6.8960479999999995,4.4095260000000005,-1
570,571,1583934082584,1.6575999,-4.3215,4.3279,10.292587,-7.281553,4.586735,-1
571,572,1583934082594,0.7076,-4.5822,4.441,9.737964999999999,-8.13136,3.755296,-1
572,573,1583934082604,0.36859998,-5.2044997,3.6319999999999997,10.181974,-8.706102,2.3798459,-1
573,574,1583934082615,1.0727999,-5.725,1.8925999,11.787574000000001,-9.279169,0.23089679999999999,-1
574,575,1583934082625,2.5163999,-6.0453,0.0942,13.36248,-9.4929905,-0.8577084,-1
575,576,1583934082635,4.1464,-6.1172,-0.9593,14.25162,-9.080498,-0.37518096,-1
576,577,1583934082645,5.0852,-5.5797,-0.4443,13.462922,-8.811831,0.6147544,-1
577,578,1583934082655,4.3294,-5.214699700000001,0.5922,11.443833999999999,-8.684842,1.1989396,-1
578,579,1583934082665,2.3409998,-4.9976997,1.2133,9.555431,-8.612317,1.620185,-1
579,580,1583934082676,0.4799,-4.8519,1.6134,8.818745,-9.080200999999999,0.37527677,-1
580,581,1583934082686,-0.217,-5.2321,0.2749,10.286534,-9.516961,-3.6727436,-1
581,582,1583934082696,4.3673,-5.3858,-8.1324,13.88321,-9.430023,-8.320195,-1
582,583,1583934082706,6.9372997000000005,-5.0599,-9.6909,16.057959,-9.26038,-9.202449,-1
583,584,1583934082716,6.9372997000000005,-5.0599,-9.6909,15.968014000000002,-9.334006,-7.901124,-1
584,585,1583934082726,5.8504996,-5.1377,-6.6924,14.228138000000001,-9.513025,-5.8606133,-1
585,586,1583934082737,5.8504996,-5.1377,-6.6924,12.414204,-9.501025,-4.506932,-1
586,587,1583934082747,1.3969999999999998,-5.0106997,-4.0822,9.854132,-9.2916765,-3.6449040999999998,-1
587,588,1583934082757,0.2315,-4.8106,-4.4126997,9.004401,-9.080786,-4.155204299999999,-1
588,589,1583934082767,0.8731,-4.4282,-6.204,9.990438000000001,-8.6669235,-5.9965269999999995,-1
589,590,1583934082778,2.6938,-3.8816998,-8.4796,12.061634,-8.125394,-8.409863,-1
590,591,1583934082788,2.6938,-3.8816998,-8.4796,12.66141,-7.991481299999999,-9.133286,-1
591,592,1583934082798,3.7405998999999994,-3.4698,-10.212299,11.992011,-7.8416714999999995,-8.941807,-1
592,593,1583934082808,2.3521,-3.4111,-9.502299,10.445364999999999,-7.837237400000001,-8.191809,-1
593,594,1583934082818,1.004,-3.3537,-8.8737,9.521932000000001,-7.727066000000001,-7.74711,-1
594,595,1583934082828,0.3214,-3.1596,-8.4234,8.884815,-7.491687,-7.2390604000000005,-1
595,596,1583934082838,-0.015099999499999999,-3.0891,-8.145599,8.611772,-7.423375599999999,-7.033264,-1
596,597,1583934082849,-0.1918,-2.9173,-8.1047,8.490299,-7.1525435,-7.113067999999999,-1
597,598,1583934082859,-0.2768,-2.5651999,-8.399,8.390346000000001,-6.7584100000000005,-7.425444000000001,-1
598,599,1583934082870,-0.4272,-2.2089999,-8.7219,8.185727,-6.535472,-7.764042,-1
599,600,1583934082880,-0.6042,-2.1227999,-9.271999000000001,8.204996000000001,-6.488823,-8.21035,-1
600,601,1583934082891,-0.3284,-2.0906,-9.2766,8.523272,-6.461835400000001,-7.697473,-1
601,602,1583934082902,-0.103099994,-2.0077999,-8.5385,8.280624000000001,-6.3888025,-6.523845,-1
602,603,1583934082913,-0.53929996,-1.969,-7.5797,7.503562,-6.533919999999999,-5.6609172999999995,-1
603,604,1583934082923,-1.3126999,-2.1517,-6.7029,6.9645886,-6.702635000000001,-4.909598,-1
604,605,1583934082933,-1.7527,-2.2758,-6.0431,6.9505115,-6.638547,-4.621767,-1
605,606,1583934082943,-1.6784999,-2.1492,-5.8051996,7.20535,-6.4644403,-4.5169487,-1
606,607,1583934082954,-1.423,-1.9969999999999999,-5.7746,7.2600527,-6.443745,-4.567821,-1
607,608,1583934082964,-1.4096,-1.9689,-5.8216996,7.0503497,-6.4050837,-4.3628197,-1
608,609,1583934082974,-1.6631,-1.9408,-5.5994,6.6205134,-6.7264524,-3.8779937999999996,-1
609,610,1583934082984,-2.0751,-2.3,-5.0776,6.4345126,-7.0318274,-3.2450243999999997,-1
610,611,1583934082994,-2.1422,-2.4845,-4.4895997,6.6073455999999995,-6.9755259999999994,-2.7111366,-1
611,612,1583934083004,-1.9806,-2.4025,-4.0915,6.6971664,-6.9819994,-2.3537588,-1
612,613,1583934083014,-1.8657,-2.3732,-3.6376,6.655641,-6.9915,-1.9935464,-1
613,614,1583934083025,-1.9399998999999999,-2.3458,-3.3384,6.2080307,-6.947551700000001,-1.8257607,-1
614,615,1583934083035,-2.3298,-2.3006,-3.1913,5.8590136,-6.8404737,-1.6182889,-1
615,616,1583934083045,-2.728,-2.136,-2.9287999,5.5877123,-6.710861,-1.4854969,-1
616,617,1583934083055,-2.9157,-1.9954,-2.8513,5.403713,-6.807836,-1.6752325000000001,-1
617,618,1583934083065,-3.0779998,-2.053,-3.0372,5.4642290000000004,-6.9435199999999995,-1.7616824,-1
618,619,1583934083076,-2.9894,-2.1515,-3.1399,5.746132,-7.117923299999999,-1.3067936000000002,-1
619,620,1583934083087,-2.4290000000000003,-2.5462,-2.4456,6.0039206,-7.5534476999999995,-1.0165302,-1
620,621,1583934083097,-2.0207,-2.7797,-2.1892,6.406357,-7.772757,-0.68539286,-1
621,622,1583934083107,-1.7433,-2.7108,-1.6406,6.550986,-7.730934599999999,-0.12705550000000002,-1
622,623,1583934083117,-1.7433,-2.7108,-1.6406,6.199335,-7.791135000000001,0.5762556,-1
623,624,1583934083127,-2.8736,-2.7310000000000003,0.5548,5.226245400000001,-7.891174,2.1912787000000002,-1
624,625,1583934083137,-3.4494,-2.7152998,1.785,4.726192500000001,-7.9019575,3.2780644999999997,-1
625,626,1583934083148,-3.3878998999999994,-2.6719999999999997,2.0286999,4.868791000000001,-7.9785337,3.2599162999999995,-1
626,627,1583934083158,-2.6773999,-2.8148,1.2070999,5.876434,-8.218967999999998,2.229155,-1
627,628,1583934083168,-1.4294,-2.9103,0.3883,7.1303925999999995,-8.384514,1.6859201000000001,-1
628,629,1583934083178,-0.28939998,-3.0133,0.35169998,7.935505,-8.639975,2.1642243999999997,-1
629,630,1583934083188,-0.0223,-3.3100998,1.6337999,7.715363000000001,-9.037651,3.8345342000000002,-1
630,631,1583934083198,-0.7601,-3.6785,3.6373,6.7841334,-9.478261999999999,5.813131299999999,-1
631,632,1583934083209,-1.5547999,-3.8311,5.504699700000001,6.170058999999999,-9.432781,7.394875,-1
632,633,1583934083219,-1.8470999,-3.4366,6.451699700000001,5.975497,-8.949066,7.707710700000001,-1
633,634,1583934083229,-1.7169,-2.7733998,5.973,6.304431,-8.311404,6.8580666,-1
634,635,1583934083240,-1.0242,-2.0837,4.6959,7.076925,-7.7962584,5.5309987000000005,-1
635,636,1583934083250,-0.20449999,-1.8104999,3.3672,7.878580599999999,-7.798690299999999,4.375969,-1
636,637,1583934083260,0.51669997,-1.8021,2.8927,8.45476,-7.793164999999999,4.6526427,-1
637,638,1583934083270,1.1287999,-1.7213,3.6539,8.771589,-7.753909599999999,5.7254366999999995,-1
638,639,1583934083281,1.0455999,-1.6827999,5.0875,8.11553,-7.864167699999999,7.286034599999999,-1
639,640,1583934083291,0.16059999,-1.7192,6.0453,7.066927000000001,-7.776013000000001,7.524976299999999,-1
640,641,1583934083301,-0.7703,-1.5496,5.92,6.515274,-7.662777,6.8847947,-1
641,642,1583934083312,-0.9607,-1.5065,5.2046,6.8444576,-7.729766400000001,6.2813797,-1
642,643,1583934083322,-0.2678,-1.4850999,4.7328997,7.765603,-7.579401,6.0547059999999995,-1
643,644,1583934083333,0.6268,-1.2336,4.6735997000000005,8.279005999999999,-7.3866296,6.2559342000000004,-1
644,645,1583934083344,0.8509,-1.0842999,4.981,7.947638499999999,-7.322934,6.668474000000001,-1
645,646,1583934083354,0.54679996,-1.022,5.2462,7.660191,-7.278986,6.8686485,-1
646,647,1583934083364,0.2747,-0.9672,5.4572,7.6418996,-7.227156,6.8132277000000006,-1
647,648,1583934083375,0.2832,-0.8685,5.3027,7.911065,-7.0107493000000005,5.933617,-1
648,649,1583934083385,0.5448,-0.6757,4.5123,8.089872999999999,-6.7590995,5.2830167,-1
649,650,1583934083395,0.7247,-0.4188,3.8565998,7.970556299999999,-6.6948776,5.032085400000001,-1
650,651,1583934083405,0.6055,-0.36229998,3.5990998999999997,7.916313000000001,-6.6024804,5.166878700000001,-1
651,652,1583934083416,0.43179998,-0.0632,4.0913997,7.781682000000001,-6.336149,5.548515,-1
652,653,1583934083426,0.22299999,0.09219999599999999,4.1762,7.5674295,-6.178553599999999,5.5416,-1
653,654,1583934083436,0.0435,0.2857,3.9232,7.434207000000001,-5.970699,5.1978693,-1
654,655,1583934083446,-0.074999996,0.4502,3.3772,7.3014917,-5.824135299999999,4.6342645,-1
655,656,1583934083457,-0.19029999,0.52779996,2.7608,7.243417699999999,-5.7373405,4.054657499999999,-1
656,657,1583934083467,-0.19029999,0.52779996,2.7608,7.3579564,-5.6554875,3.7324742999999994,-1
657,658,1583934083477,0.038,0.64919996,2.1279,7.504367,-5.600536,3.4929008,-1
658,659,1583934083487,0.1629,0.6712,1.8541,7.624823599999999,-5.57396,3.2771163,-1
659,660,1583934083497,0.2077,0.7317,1.9193,7.632714699999999,-5.477301000000001,3.435622,-1
660,661,1583934083507,0.014699998999999998,0.7815,2.2085,7.4131575,-5.471057,3.7035427000000003,-1
661,662,1583934083518,-0.2473,0.6839,2.3813999,7.1589313,-5.5540886,3.8722955999999997,-1
662,663,1583934083528,-0.4581,0.6368,2.4317,6.9812335999999995,-5.6106300000000005,3.9066572,-1
663,664,1583934083538,-0.4294,0.5532,2.3841,7.1139584000000005,-5.6833177,3.8256183,-1
664,665,1583934083548,-0.18069999,0.4822,2.1704,7.339186,-5.7063403,3.6512246,-1
665,666,1583934083558,0.159,0.4427,1.795,7.720275999999999,-5.806169000000001,3.1625009,-1
666,667,1583934083568,0.4897,0.3547,1.2817,8.068881,-5.88694,2.7110217,-1
667,668,1583934083578,0.7795,0.2462,1.0084,8.247881,-5.9900913000000005,2.7081966,-1
668,669,1583934083589,0.8007,0.14469999,1.3409,8.135842,-6.113412,3.1620220000000003,-1
669,670,1583934083599,0.4456,-0.0687,1.7236999,7.7145677,-6.3754334,3.4847894,d
670,671,1583934083609,0.069299996,-0.3445,1.9244,7.459863,-6.566978999999999,3.5824248999999995,-1
671,672,1583934083619,0.086799994,-0.35619998,1.6654999,7.6492059999999995,-6.47237,3.1497161,-1
672,673,1583934083630,0.3308,-0.1818,0.98039997,7.892840400000001,-6.294184,2.481475,-1
673,674,1583934083640,0.60289997,-0.14739999,0.44959998,8.178104,-6.2870398000000005,2.180256,-1
674,675,1583934083650,0.80399996,-0.1387,0.40269998,8.270655999999999,-6.31893,2.3978984,-1
675,676,1583934083661,0.7348,-0.2527,0.7345,8.08725,-6.4647274,2.746724,-1
676,677,1583934083671,0.54539996,-0.42839998,1.0185,7.942927,-6.5648919999999995,2.9617807999999997,-1
677,678,1583934083681,0.3857,-0.4689,1.1966,7.769922,-6.531507,3.2002625,-1
678,679,1583934083691,0.21779999,-0.4719,1.4318999,7.621884,-6.5273504,3.3519974,-1
679,680,1583934083701,0.1114,-0.47579998,1.3794999,7.680790400000001,-6.3710184000000005,3.0991697,-1
680,681,1583934083713,0.262,-0.2744,0.92679995,7.9859557,-6.211105,2.6278853,-1
681,682,1583934083722,0.6188,-0.1901,0.5058,8.354318,-6.249403,2.5132222,-1
682,683,1583934083732,1.0122,-0.3504,0.5488,8.877355999999999,-6.3831525000000005,2.8657541,-1
683,684,1583934083742,1.3909999,-0.4527,0.8526,9.016822,-6.491964,3.1653452,-1
684,685,1583934083752,1.4413999,-0.6171,1.1161,8.933916,-6.6433063,3.3077332999999998,-1
685,686,1583934083762,1.3622,-0.7653,1.2707,8.946019999999999,-6.671433400000001,3.5493753,-1
686,687,1583934083773,1.3713,-0.8366,1.5682,9.133247,-6.769778,3.9072603999999997,-1
687,688,1583934083783,1.5788,-0.9572,1.8481,9.263358,-6.761273399999999,4.0343738,-1
688,689,1583934083794,2.0433,-0.9111,2.0231,10.142662,-6.616769000000001,4.171494,-1
689,690,1583934083804,2.6255,-0.8466,1.9609999999999999,10.878122,-6.6673922999999995,3.9578357000000004,-1
690,691,1583934083814,3.2047,-0.95119995,1.7376,11.424527000000001,-6.875621000000001,3.7570292999999997,-1
691,692,1583934083824,3.7291,-1.1970999,1.5148,12.036264,-7.024539999999999,3.8321497000000004,-1
692,693,1583934083834,4.3048,-1.3892,1.5909,12.442983,-7.169696000000001,4.0979733,-1
693,694,1583934083845,4.6765,-1.5885999,1.8542,12.48625,-7.2584539999999995,4.459182,-1
694,695,1583934083855,4.6580997,-1.7396,2.3652,12.323482499999999,-7.1925936,5.358903400000001,-1
695,696,1583934083865,4.4483,-1.7541,3.1362,12.028795,-7.1683455,5.92065,-1
696,697,1583934083875,4.1099,-1.8061,3.6987997999999997,11.758805,-7.1727605,5.972412599999999,-1
697,698,1583934083885,3.7826998,-1.8937,3.7268,11.898052999999999,-7.2250495,5.1378129999999995,-1
698,699,1583934083896,3.8704,-2.043,2.8597,12.356925,-7.1753173,4.4424124,-1
699,700,1583934083906,4.5604997,-2.2022,1.9354,12.716266000000001,-7.2199836,4.264121,-1
700,701,1583934083916,4.4467998,-2.3964999,1.9080000000000001,12.587765,-7.293447500000001,4.219292,-1
701,702,1583934083927,4.075999700000001,-2.447,1.9907999,12.274823,-7.197841599999999,4.345428,-1
702,703,1583934083937,3.6172,-2.4020998,2.2888,11.901319,-6.9892397,4.6098247,-1
703,704,1583934083948,3.2415,-2.1903,2.6381,11.5973215,-6.5170074,4.9698459999999995,-1
704,705,1583934083958,2.8260999,-1.9262999,3.0293,11.134599,-6.1467395,5.216056,-1
705,706,1583934083968,2.1392,-1.8041999,3.0818,10.516454,-5.939095,5.058143599999999,-1
706,707,1583934083978,1.4776,-1.801,2.7414,10.043485,-5.7919183,4.548791400000001,-1
707,708,1583934083988,1.0776,-1.8347,2.059,9.825507,-5.6973286,3.7049502999999997,-1
708,709,1583934083998,0.9669,-1.9326999,1.1427,9.932489,-5.6760397000000005,2.7904422,-1
709,710,1583934084009,1.2509999,-2.0848,0.4736,10.333642999999999,-5.6548266,2.3023027999999996,-1
710,711,1583934084019,1.6129,-2.1569,0.5897,10.718639,-5.564737999999999,2.631055,-1
711,712,1583934084029,1.757,-2.1742,1.3725,10.769013000000001,-5.458636299999999,3.6348769999999995,-1
712,713,1583934084040,1.3816998999999999,-2.1883,2.6901999,10.273615,-5.2649455000000005,4.7886714999999995,-1
713,714,1583934084050,0.58989996,-2.1095998,3.5595999,9.421816,-5.0380807,5.241942,-1
714,715,1583934084060,-0.4773,-2.198,3.4759998,8.413474,-5.1035185,4.7747660000000005,-1
715,716,1583934084070,-1.3283,-2.5537,2.6453,7.853834,-5.384464,3.7148242,-1
716,717,1583934084080,-1.4243,-3.0344,1.4009,8.280807000000001,-5.7141743,2.2790694,-1
717,718,1583934084090,-0.7183,-3.2292,0.3365,9.358408,-5.437175,1.6456017,-1
718,719,1583934084101,0.3929,-2.9318,-0.0756,10.227427,-4.9123178,1.5734407,-1
719,720,1583934084111,0.904,-2.519,0.1161,10.129216,-4.375307599999999,2.0948691000000004,-1
720,721,1583934084121,0.29189998,-2.1478,0.59749997,9.050763,-3.8922440000000003,2.3367984,-1
721,722,1583934084132,-0.9033,-1.8456999,0.6281,8.12841,-3.3104915999999998,2.087447,-1
722,723,1583934084142,-1.6294999,-1.3353,0.3486,7.652472,-2.4709885,1.7075734,-1
723,724,1583934084152,-2.1186,-0.7525,-0.1599,7.2360435,-1.8938136000000003,0.88395846,-1
724,725,1583934084162,-2.4563,-0.40609998,-0.97749996,7.127509599999999,-1.4767148,-0.07580043,-1
725,726,1583934084172,-2.5544,-0.2454,-1.8991,7.185813400000001,-1.2920166000000002,-1.2298535,-1
726,727,1583934084182,-2.4046,-0.29119998,-2.7522,7.649149,-1.1504233999999998,-1.8159254,-1
727,728,1583934084193,-1.9495,-0.2935,-3.1390998,8.045925,-0.9812588,-1.7556490000000002,-1
728,729,1583934084202,-1.5327,-0.18959999,-2.6850998,8.310533,-0.69192433,-0.8779537000000001,-1
729,730,1583934084212,-1.4577999,-0.0442,-1.5198,7.934748599999999,-0.33797508,0.008418013,-1
730,731,1583934084222,-1.9672999,0.0814,-0.89659995,7.238916400000001,-0.030329747,0.11381078,-1
731,732,1583934084232,-2.6873999,0.18259999,-0.7755,6.535567299999999,0.20030849,-0.08022491,-1
732,733,1583934084242,-3.4027,0.23879999,-0.89879996,5.969856,0.328111,-0.38267004,-1
733,734,1583934084253,-4.0745997,0.14019999,-1.1754999,5.3263326,0.11326489599999999,-0.69569755,-1
734,735,1583934084263,-4.5085,-0.2348,-1.3043,5.278698,-0.098267615,-0.7644303000000001,-1
735,736,1583934084273,-4.4604,-0.5398,-1.2491,5.876233,-0.32198182,-0.7856238,-1
736,737,1583934084283,-3.7345998,-0.86399996,-1.1699,6.681719,-0.46573925,-0.78967476,-1
737,738,1583934084294,-2.9879,-1.0569998999999999,-1.1238999,7.1519885,-0.58008635,-1.2224602,-1
738,739,1583934084304,-2.5923998,-1.2749,-1.5551,7.175767,-0.5930821,-1.895001,-1
739,740,1583934084314,-2.6071,-1.3384,-2.0465,6.836470599999999,-0.3416047,-2.008898,-1
740,741,1583934084324,-2.9436,-1.1818,-2.1238,6.530587000000001,-0.11258494,-1.6825491999999997,-1
741,742,1583934084335,-3.3179,-0.9808,-1.6566,6.089470400000001,0.22682668,-1.0477505,-1
742,743,1583934084345,-3.7695,-0.74259996,-0.9598,5.515838,0.7247536,-0.39896020000000004,-1
743,744,1583934084355,-4.2397,-0.41419998,-0.39679998,5.199746599999999,1.1178528,-0.45526224,-1
744,745,1583934084365,-4.5429,-0.109799996,-0.3996,5.250791,1.3822396000000001,-0.9605537000000001,-1
745,746,1583934084376,-4.4736,0.077,-0.85929996,5.7753606,1.5916749,-1.2816927,-1
746,747,1583934084386,-3.3762999,0.2118,-0.6357,6.462611,1.6204628,-0.6885724,-1
747,748,1583934084396,-3.0242999,0.0061,0.2216,6.6444554,1.3837144,0.16281529,-1
748,749,1583934084406,-3.0242999,0.0061,0.2216,6.2625804,1.0634469,0.65624106,-1
749,750,1583934084416,-3.5258,-0.7008,0.96599996,6.1460886,0.8017989999999999,0.43172243,-1
750,751,1583934084426,-3.3906998999999995,-0.76309997,0.3119,6.3745046,0.9006603999999999,-0.31719342,-1
751,752,1583934084436,-2.9146,-0.4109,-0.5489,6.851755000000001,1.2622997999999999,-1.233598,-1
752,753,1583934084446,-2.9146,-0.4109,-0.5489,7.1808815,1.4766575000000002,-1.9447142,-1
753,754,1583934084456,-2.0949,-0.0537,-1.8154,7.6327915,1.5928816000000001,-2.3549178,-1
754,755,1583934084466,-1.9166,-0.044099998,-1.4518,7.714549000000001,1.5557905,-1.9192974999999999,-1
755,756,1583934084477,-2.0713,-0.2401,-0.8459,7.564030000000001,1.3411263999999998,-1.3636032,-1
756,757,1583934084487,-2.0781,-0.4159,-0.40739998,7.612306599999999,1.1908184,-1.045883,-1
757,758,1583934084497,-1.9090999,-0.4288,-0.4578,7.7948985,1.1782537,-1.2683906999999999,-1
758,759,1583934084507,-1.9090999,-0.4288,-0.4578,8.043349000000001,0.9973957,-1.7745727,-1
759,760,1583934084517,-1.2217,-0.9073,-1.5058,8.488987,0.636465,-2.4008384,-1
760,761,1583934084527,-0.9967,-0.9967,-1.8491,8.680178999999999,0.6038081,-2.690786,-1
761,762,1583934084538,-0.9086,-0.7782,-1.6507,8.758421,0.8663371,-2.3940770000000002,-1
762,763,1583934084548,-0.91789997,-0.3222,-1.0668,8.726386999999999,1.4285818000000001,-1.69,-1
763,764,1583934084558,-0.9662,0.1299,-0.5175,8.661849,1.7524407,-1.3317508,-1
764,765,1583934084568,-1.2204,0.35689998,-0.4376,8.318261,1.8934976000000003,-1.4632307,-1
765,766,1583934084579,-1.4352,0.2836,-0.7327,8.226918,1.7263438999999998,-1.7566162,-1
766,767,1583934084589,-1.3558999,-0.0084999995,-0.9485,8.43551,1.4168215,-1.8834323,-1
767,768,1583934084599,-0.9237,-0.25509998,-0.82379997,8.930266,1.2006252,-1.7285273999999997,-1
768,769,1583934084609,-0.4621,-0.32279998,-0.6969,9.254021,1.1703528,-1.7253001000000001,-1
769,770,1583934084619,-0.2844,-0.2649,-0.7272,9.370091,1.2216367,-1.7916193999999999,-1
770,771,1583934084629,-0.22399999,-0.2304,-0.7421,9.456484,1.2588617,-1.7909203000000002,-1
771,772,1583934084640,-0.14459999,-0.2272,-0.56909996,9.55232,1.1698452,-1.5954673000000001,-1
772,773,1583934084650,-0.0757,-0.4306,-0.4132,9.531365,0.86734265,-1.6441365000000001,-1
773,774,1583934084660,-0.1346,-0.625,-0.6838,9.560335,0.7910155,-2.0053066999999998,-1
774,775,1583934084670,0.0023999998999999998,-0.5944,-0.96599996,9.762597,0.92375004,-2.2723942000000004,-1
775,776,1583934084680,0.1399,-0.4084,-1.1781,9.701305,1.1134857,-2.2610650000000003,-1
776,777,1583934084690,-0.0749,-0.2452,-0.89849997,9.438968,1.1806575000000001,-1.8132342000000001,-1
777,778,1583934084701,-0.39679998,-0.1938,-0.26369998,9.191063,1.1960473,-1.2233222,-1
778,779,1583934084711,-0.42459998,-0.1902,0.15519999,9.261682,1.2078173,-0.92903644,-1
779,780,1583934084721,-0.3162,-0.20019999,0.42549998,9.389935000000001,1.0925126,-0.72674555,-1
780,781,1583934084731,-0.21869999,-0.3802,0.5758,9.471615,0.81432545,-0.6293398,-1
781,782,1583934084741,-0.1223,-0.6532,0.5961,9.626232,0.61044484,-0.80057317,-1
782,783,1583934084751,0.071499996,-0.6863,0.2434,9.906785000000001,0.7046423,-1.5077916,-1
783,784,1583934084761,0.3536,-0.5603,-0.5986,10.157707,0.7518751,-2.4882555,-1
784,785,1583934084772,0.6166,-0.47529998,-1.4973999,10.496477,0.914451,-3.280066,-1
785,786,1583934084782,0.9791,-0.25869998,-2.1471999,10.73062,1.1104116000000002,-3.3567855000000004,-1
786,787,1583934084792,1.0785999,-0.1204,-1.9397999,10.6530485,1.0793445,-2.8673341,-1
787,788,1583934084802,0.85679996,-0.21939999,-1.2472,10.191638000000001,0.9597876000000001,-2.2878609,-1
788,789,1583934084812,0.3232,-0.25759998,-0.6946,9.538031,1.2680267,-1.6413977,-1
789,790,1583934084822,-0.21949999,0.096,-0.0993,9.058567,1.6600244999999998,-0.93844086,-1
790,791,1583934084833,-0.6354,0.45639998,0.63339996,9.04698,1.8813444,-0.57656205,-1
791,792,1583934084843,-0.5032,0.68189996,0.9279999999999999,9.474775,2.0077968,-0.67652476,-1
792,793,1583934084854,-0.049,0.7632,0.7891,9.92477,1.9301766,-1.3682001,-1
793,794,1583934084864,0.36499998,0.6823,-0.019299998999999998,10.036752,1.571487,-2.6338325,-1
794,795,1583934084874,0.4078,0.2935,-1.3039,10.082491000000001,1.0337396,-4.1072626,d
795,796,1583934084884,0.47219998,-0.1326,-2.4466999,10.296475,0.7767269,-4.6242475999999995,-1
796,797,1583934084894,0.7744,-0.4219,-2.9665,10.774971,0.72464824,-4.443714599999999,-1
797,798,1583934084904,1.1866,-0.44039997,-2.6994998,10.802974,0.83348864,-4.0065145,-1
798,799,1583934084915,1.1781,-0.3159,-2.056,10.278661999999999,1.0784155,-3.2780644999999997,-1
799,800,1583934084925,0.5322,-0.095699996,-1.3533,9.133946,1.1938831,-3.3373446,-1
800,801,1583934084935,-0.4276,-0.0651,-1.4689,8.5622015,1.1303983999999998,-4.284529,-1
801,802,1583934084945,-0.9784,-0.1521,-2.3973,8.824625,0.9454894,-5.39881,-1
802,803,1583934084956,-0.7194,-0.3584,-3.4922,9.586097,0.60882634,-6.238562,-1
803,804,1583934084966,0.2713,-0.7751,-4.4873,10.927338,0.15854403,-6.932938,-1
804,805,1583934084976,1.3880000000000001,-1.1291,-5.027199700000001,11.43849,-0.0091841575,-6.994948,-1
805,806,1583934084986,1.6808,-1.2536,-4.8592997,11.120387,0.066328965,-6.696457400000001,-1
806,807,1583934084997,0.99399996,-1.1465,-4.4702997,10.364672,0.20909043,-6.22864,-1
807,808,1583934085006,0.99399996,-1.1465,-4.4702997,9.664530000000001,0.29359615,-5.941853,-1
808,809,1583934085016,0.12,-1.0764999,-4.112,9.180327,0.20176417,-5.9788003,-1
809,810,1583934085026,-0.3197,-1.3759999,-4.4323997,9.273978,0.028797458999999997,-6.2297707,-1
810,811,1583934085037,-0.3197,-1.3759999,-4.4323997,9.535071,-0.21852358,-6.4606,-1
811,812,1583934085047,0.1741,-1.7816,-4.8768,9.778159,-0.34238043,-6.466298,-1
812,813,1583934085057,0.2429,-1.7972,-4.7935,9.835486,-0.2948603,-6.280421700000001,-1
813,814,1583934085067,0.1344,-1.6412,-4.4393997,9.639659,-0.11781388,-5.751140599999999,-1
814,815,1583934085078,-0.46399999999999997,-1.5223999,-3.5981998,8.983953999999999,0.06670246,-4.7374263,-1
815,816,1583934085088,-0.46399999999999997,-1.5223999,-3.5981998,8.107572,0.30589279999999996,-3.9711475,-1
816,817,1583934085098,-2.1464999,-1.101,-2.6703,7.2268114,0.6343485,-3.8588497999999998,-1
817,818,1583934085108,-2.6922,-0.8828,-2.9889997999999998,6.783482000000001,0.7865623,-4.0863085,-1
818,819,1583934085118,-3.0421999,-0.9794,-3.2621999,6.556234,0.6396828,-4.1550126,-1
819,820,1583934085129,-3.2349,-1.2845,-3.1517,6.3603787,0.31747112,-3.797338,-1
820,821,1583934085139,-3.2700999,-1.4182,-2.7849,6.402871,0.30217698,-3.2846913,-1
821,822,1583934085150,-3.2357,-1.2853,-1.7050999,6.3471722999999995,0.57069147,-1.4658548,-1
822,823,1583934085160,-3.5038,-0.9769,0.3331,5.788700599999999,0.9231275999999999,1.0873218999999998,-1
823,824,1583934085170,-4.1726,-0.7377,2.0532,5.182575,1.1347846000000001,2.3113143,-1
824,825,1583934085181,-4.928999999999999,-0.43429998,3.0244,4.330603599999999,1.4872016000000001,2.7458047999999997,-1
825,826,1583934085191,-5.5780997,-0.2659,2.3072999,3.8627569999999998,1.5139782,1.3251427,-1
826,827,1583934085202,-5.7576,-0.23879999,0.7396,4.1488543,1.5457445,0.28712225,-1
827,828,1583934085212,-5.2223997,-0.1281,-0.1336,5.117826,1.6012325,0.46526999999999996,-1
828,829,1583934085222,-4.4031,-0.0471,0.44349998,5.637033,1.6572951,2.5194376,-1
829,830,1583934085233,-4.0248,0.015899998999999998,2.7452,5.206393,1.4366933000000002,5.8181973,-1
830,831,1583934085243,-4.6953998,-0.2375,5.9742,4.0235996,1.1318061000000001,8.755939999999999,-1
831,832,1583934085253,-5.8768,-0.4217,8.7653,3.1916623,1.0221709,10.457863,-1
832,833,1583934085263,-6.5594997,-0.5237,9.9545,3.1191566,0.8721694,10.233526,-1
833,834,1583934085273,-6.4975996,-0.5211,9.4752,3.9403483999999995,1.1173452,9.830983999999999,-1
834,835,1583934085283,-5.4749,-0.12799999,9.0571995,5.4884585999999995,1.3949577,9.7653265,-1
835,836,1583934085294,-3.9117,0.2565,8.8526,6.7709839999999994,1.5055698,9.686959,-1
836,837,1583934085304,-2.7684999,0.44169998,8.7058,7.491744500000001,1.2394399999999999,9.996692999999999,-1
837,838,1583934085314,-2.2235,0.325,8.9094,7.352717999999999,0.81789756,10.346283999999999,-1
838,839,1583934085324,-2.3674998,0.025799999,9.2355995,6.4605236,0.07028419,10.906460000000001,-1
839,840,1583934085335,-3.2695,-0.6321,9.8139,6.1170800000000005,-0.340398,11.577124000000001,-1
840,841,1583934085345,-3.5834,-0.9428,10.6827,6.78556,-0.0751492,12.385665,-1
841,842,1583934085355,-2.4691,-0.113199994,11.241799,7.2876916,0.28978459999999995,12.270533,-1
842,843,1583934085365,-2.4691,-0.113199994,11.241799,7.328814,0.38152084,11.707149000000001,-1
843,844,1583934085375,-2.4241998,0.0861,10.684899,7.617114,0.13869132,11.488922,-1
844,845,1583934085386,-2.1441998,-0.039499998,10.4745,8.225806,-0.5539608,11.133297,-1
845,846,1583934085396,-1.2639999,-1.1635,9.2765,8.564538,-1.4949298999999998,9.891461999999999,-1
846,847,1583934085406,-0.9374,-2.2714,8.1062,8.959686,-2.7464174999999997,8.679095,-1
847,848,1583934085417,-0.9374,-2.2714,8.1062,9.624758,-3.3541233999999998,8.018689,-1
848,849,1583934085427,0.8092,-2.8039,7.3637,10.741088000000001,-3.18855,7.9761679999999995,-1
849,850,1583934085437,1.0645,-2.1833,8.010799,10.750789,-2.6630993,8.521347,-1
850,851,1583934085447,0.076799996,-1.7675999,8.3694,9.61636,-2.4307467999999997,8.629526,-1
851,852,1583934085457,-0.90849996,-1.8413,7.6545,8.824099,-2.7576222,7.530195,-1
852,853,1583934085468,-0.6137,-2.4854,5.7662997,9.554866,-3.9046267999999995,4.8626523,-1
853,854,1583934085478,0.6423,-3.6309998,3.1659,11.158847999999999,-5.1644273,1.9761453999999998,-1
854,855,1583934085489,2.5728,-4.6689,0.4373,12.670843,-6.0390196,-0.21154208,-1
855,856,1583934085499,3.9682,-5.2012,-1.1977999,13.982607999999999,-6.607336,-1.7144686000000002,-1
856,857,1583934085509,4.3747,-5.0388,-0.9420000000000001,13.796368,-6.2904963,-0.91184604,-1
857,858,1583934085519,3.4947998999999994,-4.4245,0.5976,12.468485000000001,-5.6932683,0.6452852,-1
858,859,1583934085529,1.6705999,-3.7833,1.9616,10.602972,-5.321458,1.2124141000000002,-1
859,860,1583934085539,0.0515,-3.6539,1.2308999,9.367755,-5.492193,-0.5541045,-1
860,861,1583934085550,-0.1125,-4.0652,-1.6106,10.016076,-6.164619,-3.9905405,-1
861,862,1583934085560,1.6733999,-4.6261,-5.1601,12.252059,-6.702375999999999,-7.400065400000001,-1
862,863,1583934085570,3.9972,-4.9086,-7.7414,14.252970000000001,-7.090178999999999,-9.726435,-1
863,864,1583934085580,4.8513,-4.9711,-8.879,14.041313,-7.033293,-10.264192,-1
864,865,1583934085590,4.1119,-4.6835,-8.8047,13.061932,-6.760105,-9.870028999999999,-1
865,866,1583934085600,2.8055,-4.2881,-7.9473,11.795026,-6.411279,-9.236734,-1
866,867,1583934085611,1.9139999,-3.8590998999999995,-7.8833,11.235673,-5.899955,-9.856574,-1
867,868,1583934085622,1.8915999,-3.3715,-8.6977,11.427209,-5.480087999999999,-11.008357,-1
868,869,1583934085631,2.1432,-2.9958,-9.8707,11.763211,-5.3323849999999995,-12.086064,-1
869,870,1583934085641,2.5211,-2.8834,-10.828899,12.025069,-5.300246,-12.828342999999998,-1
870,871,1583934085651,2.661,-2.8453999,-11.3932,11.9106655,-5.3644099999999995,-13.4176235,-1
871,872,1583934085661,2.4929,-2.9171,-12.0713,11.784002000000001,-5.4175806,-14.189993,-1
872,873,1583934085672,2.4477,-2.9048,-12.832999000000001,11.812091,-5.3389263,-14.767311,-1
873,874,1583934085682,2.5063999,-2.7603998,-13.0552,11.805646000000001,-5.173324,-14.372814000000002,-1
874,875,1583934085692,2.3062,-2.6527,-12.4011,11.163386000000001,-4.9693475,-13.090489,-1
875,876,1583934085702,1.6394,-2.4649,-11.1156,10.154853999999998,-4.634082299999999,-11.608996000000001,-1
876,877,1583934085712,0.5452,-2.1620998,-9.708099,9.285682000000001,-4.3855453,-10.765816000000001,-1
877,878,1583934085722,-0.4745,-1.9193,-8.9221,8.49501,-3.9975123,-10.364978,-1
878,879,1583934085733,-0.9756,-1.6286,-8.8061,8.396839,-3.8055453000000004,-10.277494,-1
879,880,1583934085743,-1.0142,-1.5218999,-8.711599,8.513292999999999,-3.9256864,-9.929224000000001,-1
880,881,1583934085753,-0.9129999999999999,-1.7116,-8.470699,8.63442,-4.1971602,-9.667900999999999,-1
881,882,1583934085763,-0.8402,-2.0165,-8.269899,8.649801,-4.319015,-9.163127000000001,-1
882,883,1583934085773,-0.8267,-2.0809999,-7.7457,8.426852,-4.15281,-8.327722999999999,-1
883,884,1583934085783,-1.1769,-1.949,-6.9708,7.936338,-4.051612,-7.345505999999999,-1
884,885,1583934085794,-1.6748999,-1.9253,-5.9921,7.5372725,-3.9817107000000003,-6.225661799999999,-1
885,886,1583934085804,-2.0746999,-1.8975999,-4.928999999999999,7.040093,-3.9654205,-4.9627013,-1
886,887,1583934085814,-2.5133997999999997,-1.9488,-3.9454,6.708917,-3.9760603999999997,-4.457582,-1
887,888,1583934085824,-2.9508997999999997,-2.0056998999999998,-3.4452998999999997,6.3733845,-4.014971,-4.3757486,-1
888,889,1583934085836,-3.2101998,-2.0836,-3.4805998999999996,6.3912163,-4.049629,-4.3261404,-1
889,890,1583934085846,-3.1629999,-2.1606998,-3.4218998,6.6211166,-4.0760517,-3.9387589,-1
890,891,1583934085856,-2.9859998,-2.1897,-3.1855998,6.6433063,-4.001208999999999,-3.6100252,-1
891,892,1583934085866,-2.9738998,-2.1255999,-2.9153,6.548726,-3.8804455,-3.0758214,-1
892,893,1583934085876,-3.2105,-1.9435999,-1.6108999,6.3496337,-3.7855105000000004,-1.9691352,-1
893,894,1583934085887,-3.5969,-1.9829999,-0.6143,5.9401965,-3.8277921999999998,-1.0460075,-1
894,895,1583934085899,-3.9134,-2.0571,-0.21339999,5.689571400000001,-3.9239433,-0.5923063000000001,-1
895,896,1583934085910,-3.9148998,-1.9771999,0.4008,5.6856256,-3.706368,0.20937774,-1
896,897,1583934085920,-4.1109,-1.7709999,0.9924,5.351098,-3.6210193999999998,0.66614354,-1
897,898,1583934085930,-4.4621,-1.7515,1.1839,5.1092553,-3.6117013,0.87813574,-1
898,899,1583934085941,-4.4679,-1.6027,1.3888999,5.2870007,-3.3550906000000005,1.1686482,-1
899,900,1583934085951,-4.2257,-1.3630999,1.5218999,5.550143,-3.289346,1.4000238,-1
900,901,1583934085961,-3.9517998999999997,-1.2811999,1.8513998999999999,5.7354155,-3.2570243,1.9908264999999998,-1
901,902,1583934085971,-3.8918998,-1.1753,2.4436,5.5262294,-3.1920743,2.6387935000000002,-1
902,903,1583934085981,-4.1741,-1.0676,3.0556997999999997,5.373412,-3.1328225,3.2587767000000003,-1
903,904,1583934085992,-4.2488,-0.946,3.5786998,5.2273755,-3.1412117000000004,3.594482,-1
904,905,1583934086002,-4.419699700000001,-0.956,3.7831998,5.10755,-3.211994,3.8705814,-1
905,906,1583934086012,-4.4119997,-0.90099996,4.1972,5.192439599999999,-3.1944203,4.5124955,-1
906,907,1583934086022,-4.2739997,-0.8179,4.9179,5.382845400000001,-3.2063818,5.479303,-1
907,908,1583934086033,-4.0741997,-0.71669996,5.687599700000001,5.57578,-3.1584213,5.857769,-1
908,909,1583934086043,-3.8321998,-0.5101,5.9588,5.754071,-2.9789423999999998,6.078524,-1
909,910,1583934086054,-3.715,-0.2785,6.2335997,5.262666,-3.0541297999999997,7.4705509999999995,-1
910,911,1583934086064,-4.1449,-0.2502,7.5192,4.6187787,-3.3562875,9.254480000000001,-1
911,912,1583934086074,-4.8961,-0.5427,9.778999,3.9757540000000002,-3.7087812000000007,10.954738,-1
912,913,1583934086084,-5.4771,-0.7109,11.1362,3.6505637,-3.9179193999999997,11.1125345,-1
913,914,1583934086094,-5.6305,-0.8073,11.1206,3.8498476000000004,-3.9230815999999997,10.781348,-1
914,915,1583934086104,-5.3346995999999995,-0.58239996,10.757199,4.298223999999999,-3.7648056000000003,10.507059,-1
915,916,1583934086114,-4.8926997000000005,-0.3019,10.500899,4.843135,-3.9975313999999997,10.455728,-1
916,917,1583934086124,-4.0993,-0.44129997,10.381599000000001,6.080123,-4.092055,10.663333999999999,-1
917,918,1583934086135,-2.9652998,-0.2699,10.5324,6.800969,-4.350236,11.296849,-1
918,919,1583934086145,-2.1598,-0.3518,11.137199,6.5593557,-5.075621599999999,11.890678,-1
919,920,1583934086155,-2.3337998,-0.89089996,11.7206,5.477847,-5.6897150000000005,12.097738,-1
920,921,1583934086165,-3.3314,-1.3496,11.9478,4.7399830000000005,-6.2563553,11.803205,-1
921,922,1583934086176,-3.9815,-1.7394999,11.6606,4.900021,-6.75502,10.791969,-1
922,923,1583934086186,-3.7199,-2.0613,10.6248,6.085333,-6.985542999999999,9.387549,-1
923,924,1583934086196,-2.4259999,-2.0963,9.191,7.3943768,-7.310925,8.287711,-1
924,925,1583934086206,0.2033,-2.5231,7.1096997,8.649811,-7.9341550000000005,7.236254,-1
925,926,1583934086216,0.9896,-2.998,6.3733,9.232942999999999,-8.590683,6.634964999999999,-1
926,927,1583934086226,1.3597,-3.6039999,6.5154,9.410017999999999,-9.3868885,6.9334836,-1
927,928,1583934086237,1.2429,-4.254699700000001,6.8865,9.078535,-10.15513,7.163164,-1
928,929,1583934086247,1.2429,-4.254699700000001,6.8865,8.5794115,-10.549207000000001,6.859215299999999,-1
929,930,1583934086258,0.1082,-4.7170997,5.7254,7.713667999999999,-10.779874000000001,5.7913440000000005,-1
930,931,1583934086268,-0.22739999,-4.5794997,4.3389,7.458742599999999,-10.71683,4.433104,-1
931,932,1583934086278,0.3126,-4.4927998,3.2344,8.259096000000001,-10.818747,3.2428696,-1
932,933,1583934086288,1.6216999,-4.4353,2.1220999,9.505192,-10.790792,2.2969779999999997,-1
933,934,1583934086298,3.0468,-4.245,1.0123,10.598049000000001,-10.761343,1.3803722,-1
934,935,1583934086309,3.8037998999999996,-4.2444,0.50049996,11.063768,-10.912216,1.2615336000000001,-1
935,936,1583934086319,3.5226,-4.2542,1.2118,10.235211999999999,-10.90805,2.2342691,-1
936,937,1583934086329,2.1159,-4.1759,2.093,8.8681135,-10.972673,2.7054193,-1
937,938,1583934086339,0.652,-4.4919,1.7185999,7.4499509999999995,-11.331977,1.758273,-1
938,939,1583934086349,0.49629998,-4.4747,-0.1466,7.870335000000001,-11.256177000000001,-0.49486235,-1
939,940,1583934086359,1.7530999,-4.2548,-2.7217999,9.375627,-11.0995,-2.845078,-1
940,941,1583934086370,3.5052998,-4.1187997,-4.532,10.920845,-11.078613,-4.0304184,-1
941,942,1583934086379,4.6059,-4.1135,-4.9048,11.525228,-11.110791,-3.9826586,-1
942,943,1583934086389,4.5172,-3.9915,-3.9933998999999996,10.892861,-10.995563,-2.53613,-1
943,944,1583934086399,3.2675,-3.8929,-2.5707998,9.447443,-10.9406395,-1.1835496,-1
944,945,1583934086409,2.0225,-3.8319,-1.4934,8.409517999999998,-10.9275675,-0.307789,-1
945,946,1583934086419,1.4386,-3.8021,-1.3239,8.081485,-10.904689,-0.5189384,-1
946,947,1583934086430,1.5390999,-3.7721,-2.2793999,8.409692,-10.954296000000001,-1.6475746999999998,-1
947,948,1583934086440,2.2324,-3.8218,-3.8095,9.347221000000001,-10.868316,-3.3429184000000003,-1
948,949,1583934086450,3.1483,-3.5700998,-5.1674,10.092326,-10.553938,-4.115422,-1
949,950,1583934086460,3.6697,-3.2549,-5.6341,10.050552,-10.279831,-3.9021752,-1
950,951,1583934086470,3.2414,-2.9873998,-5.1373,9.194213000000001,-10.112907,-3.039238,-1
951,952,1583934086481,2.3284,-2.9034,-4.2015,8.346972000000001,-10.132864999999999,-2.1349287,-1
952,953,1583934086490,1.4683,-3.0976999,-3.3760000000000003,7.7671924,-10.379631,-1.5681351000000001,-1
953,954,1583934086500,1.0892,-3.245,-2.9729997999999997,7.567095,-10.292137,-1.4213513,-1
954,955,1583934086510,0.9597,-2.8839998,-3.1731,7.4116054,-9.876389,-1.6391950000000002,-1
955,956,1583934086520,0.71559995,-2.5254998,-3.4339999999999997,7.047026,-9.530981,-1.7930943,-1
956,957,1583934086530,0.44239998,-2.3062,-3.5937,7.0046678,-9.223239999999999,-1.906771,-1
957,958,1583934086540,0.5312,-1.9983,-3.8339,7.1993837,-8.864322,-2.1606137999999997,-1
958,959,1583934086551,0.75369996,-1.6601,-4.1642,7.350477000000001,-8.556503,-2.4192355,-1
959,960,1583934086561,0.81329995,-1.3808999,-4.3262997,7.2079070000000005,-8.270980999999999,-2.3044097000000003,-1
960,961,1583934086571,0.4156,-1.1323999,-4.0299997,6.6087723,-8.118336,-1.7895796000000002,-1
961,962,1583934086581,-0.24149999,-1.0618,-3.4197,5.9127207,-8.039566,-1.0772469999999998,-1
962,963,1583934086592,-0.899,-0.9420000000000001,-2.6691,5.410350299999999,-7.965241000000001,-0.21769996,-1
963,964,1583934086602,-1.2485,-0.98609996,-1.9911,5.282088,-8.076236999999999,0.13482228,-1
964,965,1583934086612,-1.3075,-1.1151,-1.7333,5.4429110000000005,-8.121438000000001,-0.06327397,-1
965,966,1583934086623,-1.0472,-1.1532,-2.3082,6.051019,-8.170376,-1.1900905000000002,-1
966,967,1583934086633,-0.43109998,-1.1697,-3.3172998,6.8044553,-7.8687162,-2.0907893,-1
967,968,1583934086643,0.3093,-0.7935,-4.1667,7.247066499999999,-7.403082400000001,-2.4225779,-1
968,969,1583934086654,0.62049997,-0.3998,-4.3206997000000005,7.0619179999999995,-7.012453999999999,-1.7119883000000002,-1
969,970,1583934086664,0.2843,0.0095999995,-3.3752,6.351444,-6.792828999999999,-0.61303055,-1
970,971,1583934086674,-0.49899998,0.132,-2.2905998,5.601847599999999,-6.8641570000000005,0.034869153,-1
971,972,1583934086684,-1.2599,0.0298,-1.7112,5.1664863,-6.9082775,0.43440396,-1
972,973,1583934086694,-1.5983,-0.0167,-1.3018999,5.123199,-7.097314,0.72127724,-1
973,974,1583934086704,-1.5695,-0.2302,-1.0259,5.684831,-7.3227615,0.8063288000000001,-1
974,975,1583934086715,-1.0366,-0.39499998,-0.9808,6.424457,-7.4717,0.59466225,-1
975,976,1583934086725,-0.27899998,-0.5244,-1.2109999999999999,6.952101,-7.6818633,0.06515101,-1
976,977,1583934086735,0.27429998,-0.72249997,-1.7705,7.266,-7.6209545,-0.3448321,-1
977,978,1583934086746,0.607,-0.64059997,-2.1813,7.324016,-7.476192,-0.29061776,-1
978,979,1583934086756,0.3739,-0.4048,-1.5094,6.9292983999999995,-7.4029675,0.50339526,-1
979,980,1583934086766,0.3739,-0.4048,-1.5094,6.542779,-7.4377985,1.1330893999999998,-1
980,981,1583934086776,-0.11009999,-0.4439,-0.70129997,6.1952940000000005,-7.638844000000001,1.8521258000000003,-1
981,982,1583934086786,-0.47469997,-0.7935,0.3771,6.224465,-7.807587599999999,2.2056248,d
982,983,1583934086797,-0.0735,-0.8167,0.26049998,6.6747084,-7.8023679999999995,2.0260215,-1
983,984,1583934086807,0.4412,-0.78929996,-0.3023,7.1748285,-7.807204700000001,1.3802763999999998,-1
984,985,1583934086817,0.9378,-0.7928,-1.2868998999999999,7.636928599999999,-7.812079,0.4516901,-1
985,986,1583934086827,1.2825999,-0.77019995,-1.6588,7.9373627,-7.7831573,0.29786742,-1
986,987,1583934086837,1.3239,-0.8206,-1.3179,7.9085174,-7.866733999999999,0.70098394,-1
987,988,1583934086847,1.1206,-0.91529995,-0.8068,7.676232000000001,-7.9342117,1.2385302,-1
988,989,1583934086858,0.7933,-0.9848,-0.22049999,7.3674474000000005,-7.992553999999999,1.7761911,-1
989,990,1583934086868,0.6123,-1.0756,-0.0885,7.249135000000001,-8.073947,1.788641,-1
990,991,1583934086878,0.7391,-1.077,-0.2795,7.4522114,-8.0483675,1.6154733000000001,-1
991,992,1583934086888,1.0575,-1.0464,-0.3615,7.771742,-8.037996000000001,1.5484163999999998,-1
992,993,1583934086898,1.4195,-1.2887,-0.5597,8.254776,-8.374812,1.2359635,-1
993,994,1583934086908,1.9408,-1.5705,-0.9539,8.724978,-8.538872,0.96070695,-1
994,995,1583934086918,2.4708,-1.6882,-1.3522999,9.267667,-8.721962,0.47987464,-1
995,996,1583934086928,2.7698,-1.9677,-1.837,9.473683,-8.981244,0.1527405,-1
996,997,1583934086938,3.0423,-2.3597999,-1.9719,9.828418,-9.38235,0.16260460000000002,-1
997,998,1583934086949,3.4069998,-2.5981,-1.8424,10.266471000000001,-9.540424,0.31582394,-1
998,999,1583934086959,3.8435998,-2.7224998,-1.6846,10.625946,-9.576634,0.4414429,-1
999,1000,1583934086969,4.0764,-2.6964998,-1.6205,10.801048,-9.496487,0.60704505,-1
1000,1001,1583934086979,3.8901,-2.7075,-1.1644,10.53375,-9.519174000000001,1.1725842,-1
1001,1002,1583934086990,3.5338,-2.8133,-0.73649997,10.318166999999999,-9.527544,1.4896628,-1
1002,1003,1583934087000,3.6220999,-2.8337998,-0.7777,10.783360499999999,-9.508582,0.95008624,-1
1003,1004,1583934087010,4.1675,-2.8646,-1.6314,11.417556,-9.474095,0.19099984,-1
1004,1005,1583934087020,5.0474,-2.8567998,-2.6246,12.411819,-9.43305,-0.7289194999999999,-1
1005,1006,1583934087030,5.7706,-2.892,-3.2143,13.076651,-9.434965,-1.1523006000000002,-1
1006,1007,1583934087040,6.1313996,-2.9745998,-3.4324,13.116031,-9.46948,-0.8993674999999999,-1
1007,1008,1583934087051,5.8515,-3.1180000000000003,-2.8042,12.561131,-9.628828,-0.04525999,-1
1008,1009,1583934087061,5.022599700000001,-3.4417998999999995,-1.821,12.068462,-9.802168,0.52646583,-1
1009,1010,1583934087071,4.1753,-3.718,-0.70089996,11.257968,-9.857676,1.905411,-1
1010,1011,1583934087081,3.7217,-3.6971,0.1724,11.058656,-9.632285000000001,2.3551474,-1
1011,1012,1583934087091,3.4903998,-3.4945998,0.4809,11.008444,-9.3771305,2.4070153,-1
1012,1013,1583934087101,3.3242,-3.3453,0.51,10.897851,-9.107869,2.382432,-1
1013,1014,1583934087112,3.1720998,-3.2674,0.3987,10.951319,-8.860989,1.9887005000000002,-1
1014,1015,1583934087122,3.238,-3.1123998,-0.116299994,11.231631,-8.612478999999999,1.4608461000000001,-1
1015,1016,1583934087132,3.4113998,-3.0180000000000002,-0.5247,11.392982,-8.462067,1.2946693,-1
1016,1017,1583934087142,3.3862,-3.0353,-0.45929998,11.400192,-8.393229,1.4669178999999999,-1
1017,1018,1583934087153,3.3783,-3.0864,0.078899994,11.747380999999999,-8.296053,2.551654,-1
1018,1019,1583934087163,3.6255998999999997,-3.181,1.0317,12.231795,-8.209574,3.4855747000000004,-1
1019,1020,1583934087173,4.0129,-3.1037,1.9947,12.537026,-7.5572214,4.1889524,-1
1020,1021,1583934087183,4.159,-2.5913,2.6232,12.240356,-7.102284,4.5149093,-1
1021,1022,1583934087193,3.6118,-2.3694,2.8639997999999998,11.365496,-7.004198599999999,4.2286487,-1
1022,1023,1583934087203,2.6634,-2.4842,2.5023,10.934788000000001,-7.1196470000000005,3.666471,-1
1023,1024,1583934087214,2.2749,-2.7602,1.9534999,10.940686999999999,-7.205809599999999,3.2896235000000003,-1
1024,1025,1583934087224,2.2217999,-2.9563,1.7686,11.209164,-7.2704053,3.668444,-1
1025,1026,1583934087234,2.4643,-3.1746,2.4329998,11.28913,-7.322503,4.508464,-1
1026,1027,1583934087244,2.3437,-3.3279,3.3525998999999995,10.659158,-7.228133000000001,4.78327,-1
1027,1028,1583934087255,1.6922,-3.3890998,3.6481,9.667010000000001,-7.0241,4.1485863,-1
1028,1029,1583934087265,0.6184,-3.3546,3.1114,8.615898,-6.348973,3.2705273999999998,-1
1029,1030,1583934087276,-0.5233,-2.8699,2.3063,7.546092999999999,-5.352323999999999,2.9568198,-1
1030,1031,1583934087286,-2.9614,-1.3741,2.2024,6.088024,-4.252983599999999,3.136184,-1
1031,1032,1583934087296,-4.029,-0.9558,2.4315999,5.2305837,-3.657957,3.2418544,-1
1032,1033,1583934087306,-4.029,-0.9558,2.4315999,5.038837,-3.194344,3.2838202000000005,-1
1033,1034,1583934087316,-4.2202997,-0.163,2.7997,5.344596,-2.4104822,3.4961474000000003,-1
1034,1035,1583934087327,-4.1651998,0.1988,3.113,5.360474,-1.9041278000000001,3.6394355000000003,-1
1035,1036,1583934087337,-4.3566,0.18079999,3.1852999,5.2715440000000005,-1.8206083999999998,3.6241415,-1
1036,1037,1583934087347,-3.9915,-0.0232,3.0386999,5.757145400000001,-1.8424147000000002,3.3574370000000004,-1
1037,1038,1583934087357,-3.7875,-0.0253,2.4998999,5.8554699999999995,-1.6223398,2.7124486,-1
1038,1039,1583934087367,-4.040499700000001,0.059000000000000004,1.7156,5.587961,-1.3909738,1.9674305,-1
1039,1040,1583934087377,-4.4082,-0.0475,1.3658999,5.23768,-1.3607684,1.7420691000000001,-1
1040,1041,1583934087388,-4.8217,-0.2929,1.4478999,4.867939,-1.4227878,1.8379328000000001,-1
1041,1042,1583934087398,-4.9084997,-0.41689998,1.2153,4.862959,-1.3104903,1.3389716999999999,-1
1042,1043,1583934087408,-4.9084997,-0.41689998,1.2153,4.9728335999999995,-1.0868049,0.90471137,-1
1043,1044,1583934087418,-4.357599700000001,0.1471,0.085099995,5.587262,-0.2665321,0.41274120000000003,-1
1044,1045,1583934087428,-3.8184,0.4797,0.3387,6.1476296999999995,0.14379576,0.8245439,-1
1045,1046,1583934087438,-3.1982,0.7855,1.4045999,6.633796,0.5708064,2.1928205000000003,-1
1046,1047,1583934087449,-3.4678,0.6502,2.7263,5.930064,0.42248082,3.4045355,-1
1047,1048,1583934087459,-4.6369,0.243,3.6255998999999997,4.9255624000000005,0.18434395,3.88962,-1
1048,1049,1583934087469,-5.6466,-0.1996,3.5572,3.9927337,-0.18648916,3.3358986000000006,-1
1049,1050,1583934087479,-5.723099700000001,-0.5489,2.5265,4.429685,-0.28395233,2.2070901000000003,-1
1050,1051,1583934087489,-4.7394,-0.429,1.4153,5.268823599999999,0.012152966999999999,1.2629606000000002,-1
1051,1052,1583934087499,-4.0899997,-0.042799998,0.2057,5.6931624,0.5426985,-0.11243171,-1
1052,1053,1583934087509,-4.2924,0.188,-0.6616,5.3126473,0.68231875,-0.799309,-1
1053,1054,1583934087520,-4.7605,0.0628,-1.1069,4.951123,0.58570796,-0.8968584000000001,-1
1054,1055,1583934087530,-4.7764997000000005,0.0382,-0.7617,5.1801043,0.7350008000000001,-0.0012832921000000001,-1
1055,1056,1583934087540,-4.5081,0.1461,0.2852,5.417772,0.8233468,0.877609,-1
1056,1057,1583934087550,-4.200599700000001,0.07200000000000001,0.9594,5.7060146,0.770071,1.2029427,-1
1057,1058,1583934087560,-3.9717998999999997,0.0919,0.8427,5.8755336,0.90519017,0.9383068000000001,-1
1058,1059,1583934087571,-3.9296,0.2351,0.4005,5.8340945,1.0814801,0.42590934,-1
1059,1060,1583934087581,-3.9756,0.3617,-0.2224,5.782428299999999,1.2688311,-0.3187353,-1
1060,1061,1583934087591,-3.9821,0.5006,-0.8341,5.883023000000001,1.3127983,-0.76030266,-1
1061,1062,1583934087601,-3.7631,0.4558,-1.1345,6.282854599999999,1.2947268,-0.80961365,-1
1062,1063,1583934087611,-3.2696998,0.42339998,-1.1147,6.948998,1.2922657,-0.46887088,-1
1063,1064,1583934087622,-2.5019999,0.3716,-0.5656,7.534141,1.2420639999999998,0.07087795,-1
1064,1065,1583934087632,-1.8716999,0.2584,-0.0066,8.067578,0.9546544,0.6742454999999999,-1
1065,1066,1583934087642,-1.7312,-0.0758,0.28869998,7.7980776,0.64830196,0.79584223,-1
1066,1067,1583934087652,-2.1192,-0.42659998,0.3712,7.4919649999999995,0.5757768,0.7729633,-1
1067,1068,1583934087662,-2.2510998,-0.3205,0.2864,7.6695094,1.1180348,0.494508,-1
1068,1069,1583934087673,-2.0393,0.1803,-0.084,7.772498,1.8642595000000002,0.32805353,-1
1069,1070,1583934087682,-1.9648,0.90129995,-0.2038,7.600268400000001,2.2905998,0.44757205,-1
1070,1071,1583934087692,-2.3613,1.2621,0.056199998,6.9646463,2.4347692000000003,0.96751606,-1
1071,1072,1583934087702,-2.8964999,1.2569,0.62299997,7.08632,2.2273737999999996,1.4228836,-1
1072,1073,1583934087712,-2.5419,0.972,0.81369996,7.669614299999999,1.62822,1.0890458,-1
1073,1074,1583934087722,-1.9643999,0.30949998,0.37199998,8.321335000000001,0.8543565000000001,0.34757105,-1
1074,1075,1583934087733,-1.2512,-0.4342,-0.34059998,9.095975,0.50939995,0.0066463040000000004,-1
1075,1076,1583934087743,-0.49839997,-0.60179996,-0.534,9.56452,0.95013416,0.18947713,-1
1076,1077,1583934087753,-0.1847,-0.0453,-0.2616,9.173297999999999,1.5026585,0.7190937,-1
1077,1078,1583934087763,-0.72179997,0.42659998,0.2953,8.444704,1.8267951,1.2199893999999998,-1
1078,1079,1583934087773,-1.405,0.6827,0.7479,8.009438000000001,1.9957778000000002,1.398549,-1
1079,1080,1583934087784,-1.7358999,0.8152,0.8853,8.195362,2.100462,1.365327,-1
1080,1081,1583934087793,-1.4512999,0.86359996,0.8175,8.660929,2.0182545,1.0746806,-1
1081,1082,1583934087803,-0.9927,0.74039996,0.5001,8.879137,1.7466084,0.6201557,-1
1082,1083,1583934087814,-0.7707,0.3715,-0.0067,9.157380999999999,1.2788485,0.20925324,-1
1083,1084,1583934087824,-0.5099,0.0558,-0.1786,9.481633,1.1915368,0.33084035,-1
1084,1085,1583934087834,-0.2095,0.0449,0.0264,9.692724,1.3778438999999998,0.38553350000000003,-1
1085,1086,1583934087845,-0.045399997000000004,0.2163,0.0725,9.692418,1.7381042000000002,0.29208302,-1
1086,1087,1583934087855,-0.046699997,0.58599997,-0.008599999,9.568514,2.009463,-0.10853395,d
1087,1088,1583934087865,-0.17469999,0.8612,-0.37669998,9.705078,2.0170767,-1.2050208999999998,-1
1088,1089,1583934087875,-0.037499998,0.86789995,-1.4585999,10.135154,2.0431254,-1.7710293999999998,-1
1089,1090,1583934087886,0.39399999999999996,0.89,-1.9904,10.149979,1.7577751,-0.5886576,-1
1090,1091,1583934087896,-0.0929,0.2184,0.5362,9.502049000000001,1.3833313999999999,1.0088687,-1
1091,1092,1583934087906,-0.0929,0.2184,0.5362,8.89286,1.3634596,2.3581545,-1
1092,1093,1583934087917,-1.5848999,0.2827,3.2082999,8.017453,1.6090281000000002,3.325872,-1
1093,1094,1583934087926,-2.1601,0.5606,3.4247,7.470532,1.9305596,3.3945377,-1
1094,1095,1583934087937,-2.5607998,0.88379997,3.1459,7.0820966,2.2487204,3.087438,-1
1095,1096,1583934087947,-2.8757,1.0198,2.461,6.833989999999999,2.3197900000000002,2.3063439999999997,-1
1096,1097,1583934087957,-2.6538,0.8418,1.6488,7.234884700000001,2.0456538,1.6195146999999999,-1
1097,1098,1583934087967,-1.7572999,0.4851,1.4504,8.152869,1.6248393,1.5349993,-1
1098,1099,1583934087977,-1.1654999,-0.0324,1.5564,8.617239,1.0217592,1.5994513000000001,-1
1099,1100,1583934087987,-1.1708,-0.49749997,1.6724,8.516213,0.587403,1.7551796000000002,-1
1100,1101,1583934087997,-1.6157,-0.43649998,2.1817,7.8633533,0.83469534,2.3906009999999998,-1
1101,1102,1583934088007,-2.4315,0.090799995,2.7401,7.1086529999999994,1.2804861,2.822151,-1
1102,1103,1583934088017,-3.5698,0.7249,3.7191,5.9476949999999995,1.9610236,3.9668089999999996,-1
1103,1104,1583934088027,-5.0116,1.4627999,5.311899700000001,4.3926516,2.653666,5.56424,-1
1104,1105,1583934088038,-6.6502,1.7947999,6.5021996,2.6055232999999998,2.8009765,6.507421,-1
1105,1106,1583934088048,-7.5358996,1.5103999,6.1872997000000005,2.296729,2.3346725,5.568923000000001,-1
1106,1107,1583934088059,-6.7970996,1.0762,4.6319,3.7181091,1.9127851999999999,3.9156883000000002,-1
1107,1108,1583934088069,-4.8547997,0.8657,3.2695,5.2994986,1.6886688000000003,2.9426656,-1
1108,1109,1583934088079,-3.4615998,0.82119995,2.6315,6.5804825,1.4896148,2.4827392,-1
1109,1110,1583934088089,-3.2236,0.7615,2.9926999,6.294079,1.3351313999999999,3.0599334,-1
1110,1111,1583934088099,-4.3366,0.7244,3.9052,4.8008723,1.2237913999999999,4.0332913,-1
1111,1112,1583934088109,-5.928499700000001,0.6935,4.7928,3.4578687999999995,1.0904824,4.723396,-1
1112,1113,1583934088120,-6.5978,0.6559,5.2014,3.3430336000000005,0.93551993,4.777524,-1
1113,1114,1583934088130,-5.8343997000000005,0.5093,4.7858,4.923694599999999,0.5543726,3.8416307,-1
1114,1115,1583934088140,-4.1573,0.29979998,3.8160000000000003,6.6652565,0.12086888400000001,2.614947,-1
1115,1116,1583934088150,-2.6829,-0.0165,2.7256,7.675484700000001,-0.44280282,1.6464254,-1
1116,1117,1583934088160,-1.4889,-0.7859,1.3447,8.7361355,-1.5680871,-0.057949256,-1
1117,1118,1583934088170,-0.8402,-1.4623,0.40289998,9.013499000000001,-2.070764,-0.24885331,-1
1118,1119,1583934088181,-0.93039995,-1.9566,0.9564,8.478558,-3.155941,0.4808802,-1
1119,1120,1583934088191,-1.3680999,-2.9687997999999998,1.4453,8.496199,-4.213163,0.57781667,-1
1120,1121,1583934088202,-0.9295,-3.5988,1.5961,9.709216,-4.396425,0.32044953,-1
1121,1122,1583934088212,0.2742,-3.4115998999999997,1.1363,10.931714,-4.168851,-0.64016163,-1
1122,1123,1583934088222,1.7543,-2.9355,-0.3067,12.259807,-3.818704,-2.6969819999999998,-1
1123,1124,1583934088232,2.7467,-2.5221,-1.8851,12.723889,-3.884918,-3.5761137,-1
1124,1125,1583934088242,3.0949,-2.6151,-2.8283,12.667539,-4.511844,-4.507372,-1
1125,1126,1583934088253,3.0233,-3.0946,-3.5918998999999996,12.692314,-5.3638544,-5.6594906,-1
1126,1127,1583934088263,3.1685998,-3.8121998,-4.7404,13.382026999999999,-6.1664769999999995,-6.675675999999999,-1
1127,1128,1583934088273,3.9426,-4.4793,-5.6882997,14.085147000000001,-6.8440270000000005,-7.404720299999999,-1
1128,1129,1583934088283,4.6967998,-4.9495997,-6.2068996,14.588178,-6.964982000000001,-7.3112884000000005,-1
1129,1130,1583934088293,5.2022,-4.7955,-5.9014,14.545982,-6.4692574,-6.849869,-1
1130,1131,1583934088304,4.8869,-4.204,-5.5937,13.454801000000002,-6.036443,-6.7147684000000005,-1
1131,1132,1583934088314,3.7324,-3.7317,-5.5044,12.428139,-5.707326999999999,-6.5488787,-1
1132,1133,1583934088324,2.8109,-3.3428,-5.4026,12.023776,-5.452909,-6.696534,-1
1133,1134,1583934088334,2.5577,-3.0391998,-5.7943997000000005,12.382553,-5.7013316,-7.890877000000001,-1
1134,1135,1583934088344,3.103,-3.3574998,-7.2110996,13.658289000000002,-6.540155,-9.88316,-1
1135,1136,1583934088355,4.2317,-3.9773998,-8.901199,14.584577,-6.9286475,-11.003579,-1
1136,1137,1583934088365,5.1745,-4.2943997000000005,-10.026899,14.505109,-6.947906,-10.85713,-1
1137,1138,1583934088375,5.1113,-4.2634,-9.870299000000001,13.498969,-6.609893,-9.416203999999999,-1
1138,1139,1583934088385,4.1068997000000005,-3.9023,-8.4241,12.058425999999999,-6.0213019999999995,-7.704962299999999,-1
1139,1140,1583934088395,2.6713998,-3.3209998999999994,-6.7335,10.4817,-5.598534,-7.0966434000000005,-1
1140,1141,1583934088405,1.0833,-2.9157999,-6.171,9.566636,-5.3585486,-7.479601,-1
1141,1142,1583934088416,0.1521,-2.6801999,-6.6242,9.901461,-5.3443847,-8.348802000000001,-1
1142,1143,1583934088426,1.6853,-2.5456998,-7.7488,11.290088,-5.2370768,-8.36761,-1
1143,1144,1583934088436,2.0967999,-2.5888,-7.3497,11.440405,-5.335948,-7.83175,-1
1144,1145,1583934088446,1.2982,-2.6213,-6.6503997,10.512345,-5.324024,-7.052436999999999,-1
1145,1146,1583934088457,0.2502,-2.4757,-6.0063996,9.496151,-5.116007,-6.3458223,-1
1146,1147,1583934088467,0.2502,-2.4757,-6.0063996,8.716762,-4.8262410000000004,-5.506530000000001,-1
1147,1148,1583934088477,-1.2899,-2.0434,-4.3875,8.050061999999999,-4.6347528,-4.666998,-1
1148,1149,1583934088487,-1.7199,-1.8697,-3.7914,7.682983999999999,-4.464468,-4.108584,-1
1149,1150,1583934088497,-1.9509999999999998,-1.8616999,-3.7570998999999996,7.467553,-4.4702907,-4.106985,-1
1150,1151,1583934088507,-1.9434999,-1.9403,-4.117,7.573328999999999,-4.564584,-4.4543834,-1
1151,1152,1583934088518,-1.5108,-2.0381,-4.7144,8.076284,-4.6849932999999995,-4.983137999999999,-1
1152,1153,1583934088528,-1.0172,-2.1993,-5.0959,8.621185,-4.943299,-5.1557317000000005,-1
1153,1154,1583934088538,-0.612,-2.5398998,-4.7665997,8.917156,-5.2625704,-4.462121499999999,-1
1154,1155,1583934088548,-0.5718,-2.6929998,-3.8242,8.834882,-5.3353252,-3.6315345999999997,-1
1155,1156,1583934088558,-0.8971,-2.6306998999999998,-2.9071,8.454452999999999,-5.235458400000001,-2.7477965,-1
1156,1157,1583934088568,-1.4596,-2.3693,-2.3820999,7.7641277,-4.8279653,-2.1297,-1
1157,1158,1583934088579,-2.0514997999999998,-1.9713,-1.9449999,7.2161717,-4.445926999999999,-1.6682508999999999,-1
1158,1159,1583934088589,-2.4552999,-1.6262,-1.4283,6.948509700000001,-4.129768,-1.0810779,-1
1159,1160,1583934088599,-2.5813,-1.5241,-0.98649997,6.9391336,-4.1806784,-0.8220348,-1
1160,1161,1583934088609,-2.2419,-1.7198,-1.208,7.7361636,-4.523240599999999,-1.4311868,-1
1161,1162,1583934088620,-1.2702999,-2.0270998,-1.9088999,8.899104,-4.9662447,-1.9516669999999998,-1
1162,1163,1583934088630,-0.09999999400000001,-2.4141998,-2.1743,9.695233,-5.227251,-1.8181664,-1
1163,1164,1583934088640,0.5883,-2.5709,-1.6304,9.907589999999999,-5.3924026,-0.7230871999999999,-1
1164,1165,1583934088650,0.21329999,-2.6645,-0.45979998,9.035123,-5.449730000000001,0.5288503999999999,-1
1165,1166,1583934088660,-0.8226,-2.6843998,0.6533,8.080919,-5.483344000000001,1.5086919,-1
1166,1167,1583934088670,-1.4961,-2.6676998,1.4324,7.9318275,-5.376448,1.9997043999999997,-1
1167,1168,1583934088681,-1.2152,-2.5339,1.6935999,8.852781,-5.368423,2.0420816000000004,-1
1168,1169,1583934088691,0.011899999,-2.5232,1.525,10.218406,-5.3478804,1.9327718999999997,-1
1169,1170,1583934088701,1.2906,-2.457,1.5817,11.144405,-5.3231915999999995,2.565732,-1
1170,1171,1583934088711,1.8802999,-2.4663,2.5344,11.079102,-5.470683999999999,3.9066763,-1
1171,1172,1583934088721,1.4746,-2.6571,4.0171,10.3758955,-5.65792,5.751811,-1
1172,1173,1583934088732,0.70229995,-2.7328,6.1391,9.521061,-5.5967910000000005,8.219792,-1
1173,1174,1583934088742,-0.2175,-2.6067998,8.424399000000001,8.666493,-5.300619,9.795579,-1
1174,1175,1583934088752,-0.87829995,-2.2502,9.2441,8.546111999999999,-4.863648400000001,9.429333999999999,-1
1175,1176,1583934088762,-0.6779999999999999,-1.8603,8.3973,9.32713,-4.483755599999999,8.029282,-1
1176,1177,1583934088772,0.1972,-1.4362999,6.8420997,10.2810755,-4.1414804,7.1984167,-1
1177,1178,1583934088783,1.1538,-1.0853,6.1689997000000005,10.941885000000001,-3.9860870000000004,7.9845095,-1
1178,1179,1583934088793,1.7724999,-0.9461,7.1791,11.025039999999999,-4.058191000000001,9.88743,-1
1179,1180,1583934088803,1.6652,-1.0675,9.0989,10.340289,-4.248865,11.480762,-1
1180,1181,1583934088814,0.91959995,-1.1491,10.505,9.360678,-3.7801857000000005,11.935756,-1
1181,1182,1583934088824,0.100099996,-0.743,10.7536,9.03995,-3.112874,11.256225,-1
1182,1183,1583934088834,-0.2377,-0.10349999,10.067699000000001,9.046165,-2.588515,10.503964999999999,-1
1183,1184,1583934088844,-0.19909999,0.5024,9.0422,9.551811,-2.3343562999999996,8.920345,-1
1184,1185,1583934088855,0.28579998,0.6666,7.6686997,10.562107000000001,-2.4254987,7.871062299999999,-1
1185,1186,1583934088865,1.3037,0.5749,6.5674,11.392972,-2.6940227,7.119609,-1
1186,1187,1583934088875,2.3301,0.2505,5.6787996,12.207727,-3.0984993,6.958249,-1
1187,1188,1583934088885,2.9580998,-0.080299996,5.6327996,12.207201,-3.4757392,7.504874000000001,-1
1188,1189,1583934088896,2.9498,-0.46499997,6.2134,11.738225,-3.6465129999999997,8.183679,-1
1189,1190,1583934088907,1.3341,-0.57159996,7.9138,10.325675,-3.4968178,9.082022,-1
1190,1191,1583934088917,0.5886,-0.6333,7.4131,9.899094999999999,-3.4708837999999997,8.224763000000001,-1
1191,1192,1583934088927,0.84749997,-0.513,6.0228,10.335482,-3.3279977,6.839842,-1
1192,1193,1583934088937,1.8461,-0.52059996,4.2316,11.450211999999999,-3.349067,5.004255000000001,-1
1193,1194,1583934088948,3.0514997999999998,-0.7211,2.5303,12.5890665,-3.5247053999999998,3.4554650000000002,-1
1194,1195,1583934088958,3.7034998,-0.9098,2.0226998,13.096197,-3.6869747999999998,3.2935309999999998,-1
1195,1196,1583934088968,3.3873,-1.1654,2.7228,12.413179,-3.9508542999999996,4.2763696,-1
1196,1197,1583934088978,2.4178998,-1.4509999999999998,4.0503,11.636643,-4.0182652,5.3389163,-1
1197,1198,1583934088988,1.574,-1.4151,5.0330997,10.924857000000001,-3.8579879,6.062004,-1
1198,1199,1583934089000,1.3889999,-1.4003999,4.7214,10.925499,-3.7303195,5.1064205000000005,-1
1199,1200,1583934089010,1.736,-1.2454,3.2752,11.537955,-3.4334957999999998,3.4954576,-1
1200,1201,1583934089020,2.4675,-1.0661,1.7529,12.326346000000001,-3.2870474,2.0047321,-1
1201,1202,1583934089030,2.9543998,-1.1704999,0.98249996,12.620766,-3.3790135,1.7105708999999998,-1
1202,1203,1583934089040,3.0575,-1.3694998999999999,0.99869996,12.586261,-3.4448924,1.7564438999999998,-1
1203,1204,1583934089050,2.9631,-1.5188,0.927,12.471645,-3.4602248999999996,1.514457,-1
1204,1205,1583934089061,2.878,-1.5588,0.89239997,12.510958,-3.3897489999999997,1.530776,-1
1205,1206,1583934089071,2.8035997999999998,-1.6237999,0.98609996,12.361187,-3.3574752999999995,1.5074948000000001,-1
1206,1207,1583934089081,2.5446,-1.7421,1.0106,11.985805000000001,-3.351231,1.5386194,-1
1207,1208,1583934089091,2.1109999999999998,-1.8733,1.1417,11.566139,-3.3154044000000003,1.5989532,-1
1208,1209,1583934089101,1.6796,-1.9164,1.0697,11.121804,-3.2430708,0.8513398000000001,-1
1209,1210,1583934089112,1.2896,-1.986,-0.0932,11.1078415,-3.0647792999999997,-0.87611496,-1
1210,1211,1583934089122,1.4211,-1.8662,-1.3577,11.567624,-2.6209517000000004,-1.4396048000000001,-1
1211,1212,1583934089132,1.8971,-1.5116,-1.6417999,11.929981,-2.1996775,-1.1354643999999998,-1
1212,1213,1583934089143,2.1385999,-1.2623,-1.1886,11.5514,-2.0368528,-0.9866601,-1
1213,1214,1583934089153,1.6558,-1.2901,-0.98929995,10.9734125,-1.9875418000000002,-0.7900291,-1
1214,1215,1583934089163,1.0185,-1.3683,-0.6511,10.162841,-1.7889761999999998,-0.5856792,-1
1215,1216,1583934089173,0.2074,-1.2872,-0.4274,9.33278,-1.517876,-0.7800022,-1
1216,1217,1583934089184,-0.6692,-1.1681,-0.5586,8.510123,-1.2702388999999998,-0.98585564,-1
1217,1218,1583934089194,-1.4153999,-1.0845,-0.6495,8.002409,-1.1344876,-1.2703347,-1
1218,1219,1583934089204,-1.806,-1.1391,-0.856,8.06483,-0.9464758,-2.257397,-1
1219,1220,1583934089214,-1.7339,-1.0726,-1.7886,8.595882000000001,-0.604105,-2.7860652999999997,-1
1220,1221,1583934089225,-1.2092,-0.8574,-2.2666,8.875380999999999,-0.32747892,-2.6179063,-1
1221,1222,1583934089235,-0.91819996,-0.69729996,-2.0479998999999998,8.858393,-0.19529024,-2.1170204,-1
1222,1223,1583934089245,-0.92939997,-0.6785,-1.4954,8.095388999999999,-0.19868043,-1.8325603,-1
1223,1224,1583934089256,-1.6739,-0.8032,-1.1567999,7.0325940000000005,-0.47302723,-1.9219788,-1
1224,1225,1583934089266,-3.0289998,-1.4308,-1.5457,6.669767,-0.56620955,-2.4363492,-1
1225,1226,1583934089276,-3.0289998,-1.4308,-1.5457,6.650288000000001,-0.43093717,-2.6803088,-1
1226,1227,1583934089286,-3.0572999,-1.2109,-1.7860999,6.576536999999999,-0.03139277,-2.6291304,-1
1227,1228,1583934089296,-3.3258997999999997,-0.9975,-1.5807999,6.330030000000001,0.31482795,-2.4075327,-1
1228,1229,1583934089307,-3.6132998,-0.61649996,-1.1251,5.985762599999999,0.8189031999999999,-1.9360378,-1
1229,1230,1583934089317,-4.0371,-0.2135,-0.59099996,5.5084453,1.3022447,-1.4695129999999998,-1
1230,1231,1583934089327,-4.5383,-0.050699997999999996,-0.267,5.0354849999999995,1.5162001,-1.2190604,-1
1231,1232,1583934089337,-4.6566,-0.0755,-0.3293,5.010729,1.589999,-1.4405146,-1
1232,1233,1583934089347,-4.3932,-0.0403,-0.8908,5.260425,1.7038575,-2.0509020000000002,-1
1233,1234,1583934089358,-4.2481,0.032199997,-1.2659,5.343341000000001,1.8576994999999998,-2.3966439,-1
1234,1235,1583934089368,-4.3775997,0.1178,-1.4365,5.0374675,2.0426561999999997,-2.5815144,-1
1235,1236,1583934089378,-4.8507,0.19569999,-1.3182,4.5031962,2.1609395,-2.326149,-1
1236,1237,1583934089389,-5.3248997000000005,0.2188,-0.9321,4.0905895,2.2931378,-2.020036,-1
1237,1238,1583934089399,-5.566,0.4472,-0.66069996,3.8955097000000003,2.6530054,-1.8183099999999999,-1
1238,1239,1583934089410,-5.653,0.7861,-0.6576,3.8681297,3.0132082000000002,-1.8692490000000002,-1
1239,1240,1583934089420,-5.6738,0.9711,-0.6827,3.7779162000000004,3.1207366000000003,-2.0769606,-1
1240,1241,1583934089430,-5.7068,0.95239997,-1.0097,3.832188,3.0802746,-2.4142747000000004,-1
1241,1242,1583934089441,-5.5164,0.8655,-1.2876999,4.163632,3.0261464,-2.5798671000000004,-1
1242,1243,1583934089451,-5.239,0.8937,-1.3076,4.3331122,3.1263007999999997,-2.5567393,-1
1243,1244,1583934089461,-5.139199700000001,1.0041,-1.2903,4.25464,3.1223838,-2.68775,-1
1244,1245,1583934089471,-5.3738,1.0073999,-1.4359,3.9060636,3.2870283,-2.663377,-1
1245,1246,1583934089481,-5.7563996,1.2481999,-1.2712,3.4849427000000004,3.5625434,-2.5642762,-1
1246,1247,1583934089493,-6.1895,1.5239999,-1.2551,3.0548959,3.7539358,-2.4073603,-1
1247,1248,1583934089503,-6.6050997,1.6230999,-0.89589995,2.6465123,3.4750687999999994,-1.7756165000000002,-1
1248,1249,1583934089513,-6.8862996,1.3147,-0.3487,2.5517592000000002,3.1214547,-1.4015561,-1
1249,1250,1583934089523,-6.9544,1.0412999,-0.0437,2.6136734,2.8552866000000003,-1.6221386,-1
1250,1251,1583934089533,-6.8883,0.863,-0.4148,2.7140574,2.6828275,-2.3448522,-1
1251,1252,1583934089544,-6.7956996,0.7668,-1.0950999,2.7833169,2.3695414,-2.6012904999999997,-1
1252,1253,1583934089554,-6.7734,0.4637,-1.2412,2.6008885,1.7065104,-2.5488672,-1
1253,1254,1583934089564,-6.9779,0.008599999,-1.1994,2.3950062,1.6453433000000002,-2.0741737000000002,-1
1254,1255,1583934089574,-7.1933,0.0385,-0.73679996,2.1487768,1.6525737,-1.4824992000000001,-1
1255,1256,1583934089584,-7.5369,0.15269999,-0.0938,1.7673423,1.8141824,-1.3245969,-1
1256,1257,1583934089595,-7.9241996,0.5428,-0.0197,1.5871642,2.3225577,-1.1462767,-1
1257,1258,1583934089605,-8.1166,1.1517,0.1174,1.2479056999999998,2.6156557,-1.210901,-1
1258,1259,1583934089615,-8.429999,1.4948,0.0206,1.232085,2.5374517000000005,-1.1254663,-1
1259,1260,1583934089625,-8.458,1.5596,0.0942,1.5083088,2.158277,-0.6231724000000001,-1
1260,1261,1583934089636,-7.6794,0.9773,0.8117,2.141556,1.4436556999999999,-0.3888758,-1
1261,1262,1583934089646,-7.4108,0.5363,0.71029997,2.3949008,0.67692703,-0.38675934,-1
1262,1263,1583934089656,-7.246,-0.1443,0.94479996,2.5491352000000003,-0.34534925,0.05890694,-1
1263,1264,1583934089666,-7.0856,-1.0859999999999999,1.6954,2.8113482000000003,-1.559784,0.9261251,-1
1264,1265,1583934089676,-6.5065,-2.0841,2.2684999,3.2466237999999996,-2.4438958,1.3152306999999999,-1
1265,1266,1583934089686,-5.370199700000001,-2.9153,1.5209999,4.6660023,-3.6943487999999998,0.34517685,-1
1266,1267,1583934089697,-3.9113998,-3.0029,0.100899994,6.1204032999999995,-3.9145582,-0.9963709999999999,-1
1267,1268,1583934089707,-3.9113998,-3.0029,0.100899994,7.0703845,-3.8855980000000003,-1.664698,-1
1268,1269,1583934089717,-2.1447,-2.4838,-1.0094,7.5115204,-3.9796227999999996,-1.7064912,-1
1269,1270,1583934089727,-2.4464998,-2.5723999,-0.1114,7.064638,-4.3936853,-0.6319256,-1
1270,1271,1583934089738,-3.0249,-2.9826999,1.0109,6.4540687000000005,-5.189508999999999,0.45852792,-1
1271,1272,1583934089748,-3.0349,-3.9782998999999997,1.9669,6.7454906,-6.781442,1.5964056999999998,-1
1272,1273,1583934089759,-2.1908,-4.888099700000001,2.3040000000000003,7.671616,-7.779814699999999,1.5705676000000002,-1
1273,1274,1583934089769,-1.1883,-5.2386,1.8418,8.500566000000001,-8.278038,1.3189465,-1
1274,1275,1583934089779,-0.2128,-5.2844,1.6669999,9.404702,-8.536947,1.2745963,-1
1275,1276,1583934089789,0.6658,-5.1119,1.2578,10.128853,-8.573282,0.8900876,-1
1276,1277,1583934089799,1.2688999,-4.7735,0.8016,10.297279,-8.56585,0.6197535,-1
1277,1278,1583934089810,1.1148,-4.6316,0.4563,9.86823,-8.806295,0.34219846,-1
1278,1279,1583934089820,0.84,-4.6558,0.191,9.457374,-9.03927,0.47967353,-1
1279,1280,1583934089830,0.6816,-4.5864997,0.6301,9.373894,-9.506053999999999,1.3877368,-1
1280,1281,1583934089840,0.9949,-4.8816,1.5662999,9.795857,-10.08274,2.4316757,-1
1281,1282,1583934089850,1.5653,-5.354,2.4701,10.072206,-11.229045,3.2848735000000002,-1
1282,1283,1583934089860,2.0485,-6.4182997,2.9765,10.654878,-12.410411,3.4123886,-1
1283,1284,1583934089871,3.0010998,-7.0579996,2.6715999,11.861094999999999,-13.00992,2.9489956000000004,-1
1284,1285,1583934089881,4.5783,-7.3336,2.0781,13.080654,-13.339448,2.4145427,-1
1285,1286,1583934089891,5.633899700000001,-7.2251997,1.3599,13.331547,-13.085221,1.8587528000000002,-1
1286,1287,1583934089901,5.6695,-6.671,0.96629995,12.81507,-12.875758,1.8832504,-1
1287,1288,1583934089911,5.3385997000000005,-6.358,1.0343,12.613458999999999,-12.6695795,2.1133811000000002,-1
1288,1289,1583934089921,5.4881997,-5.9262,1.2791,12.706066,-12.4884815,2.447018,-1
1289,1290,1583934089932,5.6716,-5.790499700000001,1.5429,12.676359,-12.886312,3.0439115,-1
1290,1291,1583934089942,5.7622,-6.0572,2.0957,12.561955000000001,-12.952469,3.5189307,-1
1291,1292,1583934089952,5.7896,-5.8736997,2.3890998,12.410785,-12.52993,3.1738975,-1
1292,1293,1583934089962,5.7149,-5.2602,1.8140999,12.069775,-11.869657499999999,2.3763793,-1
1293,1294,1583934089972,5.4603996,-4.5,0.94939995,11.783014999999999,-11.384314999999999,1.8330392,-1
1294,1295,1583934089982,5.3789997000000005,-3.7287998,0.22659999,11.715614,-10.481575,1.1081036,-1
1295,1296,1583934089993,5.4504,-2.9252,-0.4131,11.660768,-10.166978,0.85454804,-1
1296,1297,1583934090003,5.5037,-2.6385,-0.6622,11.509062,-10.133746,0.9652655000000001,-1
1297,1298,1583934090013,5.4054,-2.5172,-0.5098,11.132473,-9.991052,1.373726,-1
1298,1299,1583934090023,5.0559998,-2.2972999,-0.0769,10.523895,-9.761447,1.7757889,-1
1299,1300,1583934090033,4.4876,-2.0372,0.3096,9.825363000000001,-9.631825,2.2491896000000002,-1
1300,1301,1583934090044,3.872,-1.8627,0.8132,9.401082,-9.5102005,2.6046617000000003,-1
1301,1302,1583934090054,3.5879998,-1.6826999,1.0699999,9.32532,-9.330338000000001,2.3245401,-1
1302,1303,1583934090064,3.6,-1.4758999,0.5751,9.376039500000001,-9.367123,1.3571198,-1
1303,1304,1583934090074,3.7310000000000003,-1.5069,-0.2565,9.726242999999998,-9.556035000000001,1.1372361999999998,-1
1304,1305,1583934090085,4.1334,-1.6486,-0.5078,10.037068,-9.606352000000001,0.9116162,-1
1305,1306,1583934090095,4.4967,-1.6777999,-0.7583,10.044596,-9.556284,0.9437177,-1
1306,1307,1583934090105,4.5305,-1.5971999,-0.7371,9.593067999999999,-9.400727,1.106715,-1
1307,1308,1583934090115,4.0971,-1.4367,-0.5651,8.903558,-9.200323,1.6321082,-1
1308,1309,1583934090125,3.4155,-1.2249,-0.023599999,8.209487,-8.927987,2.069452,-1
1309,1310,1583934090135,2.7166997999999998,-0.9596,0.4192,7.4642878,-8.683243,2.1251414,-1
1310,1311,1583934090145,1.9668,-0.7073,0.4702,7.0412803,-8.466232000000002,2.0286071,-1
1311,1312,1583934090156,1.5432999,-0.5044,0.3735,7.001258999999999,-8.197201,1.9089450000000001,-1
1312,1313,1583934090166,1.4799,-0.2496,0.28669998,7.2080984,-8.167139,1.6648703999999999,-1
1313,1314,1583934090176,1.9353,-0.3809,-0.3312,7.457095599999999,-8.413110000000001,1.3376405,-1
1314,1315,1583934090187,1.9353,-0.3809,-0.3312,7.653257400000001,-8.589381,1.2831676,-1
1315,1316,1583934090197,2.146,-0.618,-0.1286,7.5309805999999995,-8.577094,1.7101302999999999,-1
1316,1317,1583934090208,1.5711,-0.45189998,0.3734,6.9005775,-8.359058000000001,2.240446,-1
1317,1318,1583934090218,0.7126,-0.21339999,1.0242,5.9011807,-8.061555,3.0350337000000005,-1
