,Seq,Time,ACCx,ACCy,ACCz,ADGx,ADGy,ADGz,Keydown
0,1,1583586228343,1.5518,-1.1078,-0.4833,5.837513400000001,-10.236678,0.46970406,-1
1,2,1583586228353,1.3593,-1.8632,-2.072,10.163644999999999,1.1175462999999999,-1.6535793999999997,-1
2,3,1583586228363,0.8621,0.0815,-0.0911,10.914926,0.8561857,-0.5266286,-1
3,4,1583586228373,1.3307999,-0.1237,0.78239995,11.077521,0.81314754,-0.045240838,-1
4,5,1583586228384,1.3198999,-0.1218,0.95,10.686864,0.75948864,-0.15172535,-1
5,6,1583586228394,0.85859996,-0.2268,0.833,10.196206,0.67801875,0.062421627,-1
6,7,1583586228404,0.3981,-0.3082,1.1091,9.996615,0.6332472,0.4517667,-1
7,8,1583586228414,0.29979998,-0.3392,1.5254999,10.352385,0.7569604,1.0013988,-1
8,9,1583586228424,0.7391,-0.2175,1.9774,10.928046,0.88063526,1.549939,-1
9,10,1583586228434,1.3046,-0.1409,2.4661,11.247404,0.934591,1.8648244999999999,-1
10,11,1583586228444,1.5361999,-0.0748,2.6597,11.141053999999999,1.0382216999999998,1.8724095,-1
11,12,1583586228454,1.3356,-0.0168,2.5433,10.801259,1.0626903,1.7150241000000002,-1
12,13,1583586228464,0.9881,0.009099999000000001,2.2430000000000003,10.581242,1.168763,1.7465509999999997,-1
13,14,1583586228475,0.8375,0.081999995,2.3030999,10.634,1.2304186000000001,2.4617567000000005,-1
14,15,1583586228485,0.88439995,0.094799995,2.9866,10.611533,1.1003273,3.4785546999999997,-1
15,16,1583586228495,0.86439997,-0.0894,3.9599998,10.528741,1.0479517,4.856418,-1
16,17,1583586228505,0.7285,-0.1585,5.1804,10.009717,0.9185211,5.81926,-1
17,18,1583586228516,0.1046,-0.33769998,5.8613,8.788942,0.7625436,6.2340417,-1
18,19,1583586228526,-0.9472,-0.49049997,5.974,7.6311160000000005,0.8596142,6.254487999999999,-1
19,20,1583586228536,-2.0916,-0.43809998,5.7816997,6.6927705,0.9582649,6.523836,-1
20,21,1583586228546,-3.2656999,-0.3351,5.8998,5.1005597,1.0504512,7.687188000000001,-1
21,22,1583586228556,-4.5568,-0.3075,6.5376,3.83961,1.0842382,8.709043,-1
22,23,1583586228567,-5.7223997,-0.2976,6.9293,2.7378845000000003,1.3338864,9.080544999999999,-1
23,24,1583586228577,-6.3564,-0.093399994,5.6556,1.7541741000000002,1.7587901000000001,8.642263,-1
24,25,1583586228587,-7.2443,0.2767,4.9972997,0.91366565,2.071358,7.787160000000001,-1
25,26,1583586228597,-9.4307995,0.6113,2.6601,-0.7057245,2.1516309,6.0720305,-1
26,27,1583586228608,-10.656799000000001,0.3037,1.6358,-1.9104964,1.7800124,5.014378,-1
27,28,1583586228617,-10.656799000000001,0.3037,1.6358,-2.8928947,1.1855513,4.0994095999999995,-1
28,29,1583586228627,-11.9324,-0.4069,0.6584,-3.6927114000000003,0.45434287,3.018169,-1
29,30,1583586228637,-12.9781,-1.3216,-0.5166,-4.530682,-0.51829684,1.776603,-1
30,31,1583586228647,-13.8356,-2.2113,-1.4835,-5.2635856,-1.5004559,1.0746901000000002,-1
31,32,1583586228657,-14.519999499999999,-2.9443,-1.8018,-5.7725544,-2.4828637000000002,0.6993941999999999,-1
32,33,1583586228668,-15.3331995,-4.7366,-2.7824,-5.8667808,-3.7139144,-0.6079644000000001,-1
33,34,1583586228679,-14.838598999999999,-5.5077,-4.1288,-5.205119,-4.672486,-2.1448216,-1
34,35,1583586228689,-13.894098999999999,-6.2753997,-5.6443996,-4.127364,-5.563646,-3.8407977,-1
35,36,1583586228699,-12.7329,-6.3506,-7.0284,-2.8156865,-5.858238,-5.3938303,-1
36,37,1583586228710,-11.9616995,-6.562999700000001,-7.705,-2.0752175,-6.5046053,-6.0255547,-1
37,38,1583586228720,-11.9616995,-6.562999700000001,-7.705,-1.6699843,-7.0638046,-6.5444260000000005,-1
38,39,1583586228730,-10.6306,-7.6315,-9.5479,-0.6856802,-8.015184,-8.105963000000001,-1
39,40,1583586228740,-9.5674,-7.8292,-10.4093,0.59764063,-8.498095,-8.773792,-1
40,41,1583586228750,-8.2616,-8.051,-10.612599000000001,1.9415156999999998,-9.108003,-8.936933,-1
41,42,1583586228761,-6.6526,-8.495,-10.913799000000001,3.7245923999999997,-9.868008999999999,-9.191618,-1
42,43,1583586228771,-4.5622997000000005,-8.7322,-11.1456995,5.3580127,-10.286227,-9.3235,-1
43,44,1583586228781,-2.8034,-9.1816,-11.9556,7.1597740000000005,-11.297022,-10.539448,-1
44,45,1583586228791,-1.3641,-9.7012,-13.8366995,8.611331,-12.166903,-12.490761000000001,-1
45,46,1583586228801,0.5712,-10.2689,-15.938498999999998,10.681453,-13.146667,-14.054644,-1
46,47,1583586228811,3.0714998,-11.1992,-17.0047,13.175185999999998,-14.63768,-14.343758,-1
47,48,1583586228822,5.937999700000001,-12.4091,-17.000598999999998,16.345627,-16.345024,-14.236958,-1
48,49,1583586228832,8.6472,-13.1823,-17.233598999999998,18.142475,-16.95366,-14.202998000000001,-1
49,50,1583586228842,10.4811,-13.457,-17.115799,19.303539999999998,-18.029192000000002,-13.869926000000001,-1
50,51,1583586228852,11.1656,-14.335199,-17.167599,19.534185,-19.068820000000002,-13.853014000000002,-1
51,52,1583586228862,11.876599,-15.0794,-17.2038,20.263844,-19.810114000000002,-13.538866,-1
52,53,1583586228872,13.2984,-15.3327,-16.6709,22.070498,-20.080275,-12.014142999999999,-1
53,54,1583586228883,15.052898999999998,-15.1192,-15.0056,23.119293,-19.965832000000002,-9.861678999999999,-1
54,55,1583586228894,15.775398999999998,-14.7675,-12.963699,22.709175,-19.991508,-8.0079155,-1
55,56,1583586228904,15.1194,-14.649698999999998,-11.482599,21.80409,-19.957003,-6.577829400000001,-1
56,57,1583586228914,14.7478,-14.2455,-10.0039,21.879652,-19.56287,-5.001602,-1
57,58,1583586228924,15.202399,-13.7209,-8.370999000000001,22.332279999999997,-19.567417000000003,-2.5547473,-1
58,59,1583586228935,15.5498,-13.802199,-5.968,22.125383,-20.131166,-0.11710519,-1
59,60,1583586228945,15.2455,-14.375898999999999,-2.7078,21.631498,-20.545536,3.4923933,-1
60,61,1583586228956,14.920898999999999,-14.3598995,0.19209999,21.330804999999998,-20.112654,5.6545677,-1
61,62,1583586228966,14.532499,-13.7697,2.3374999,20.519123,-19.294622,6.9611415999999995,-1
62,63,1583586228976,13.498199,-12.8863,3.6278,18.827648,-18.031307,7.203377000000001,-1
63,64,1583586228986,11.9613,-11.809199000000001,3.9164,18.002462,-17.08983,7.04197,-1
64,65,1583586228997,10.892799,-10.6719,3.9515998,17.368172,-15.782367,7.3162303,-1
65,66,1583586229007,10.217,-9.693299,4.4308,16.514563,-15.064691,7.86932,-1
66,67,1583586229017,9.1943,-9.0996,5.1773996,15.319595999999999,-14.593205,7.860365400000001,-1
67,68,1583586229027,7.8163,-8.767799,5.3486,13.956320000000002,-13.794757999999998,7.6555266,-1
68,69,1583586229037,4.1203,-7.5298,5.9848,11.59055,-12.797028,8.452864,-1
69,70,1583586229048,4.1203,-7.5298,5.9848,9.804457000000001,-11.895017,9.688597,-1
70,71,1583586229058,1.7105,-6.7391996,7.6064997000000005,7.714654400000001,-10.244358,10.819875999999999,-1
71,72,1583586229068,-0.5812,-5.3712,8.8405,5.975372,-8.642503,11.061451,-1
72,73,1583586229078,-3.9929,-2.8300998,9.437099,4.505974,-6.7371683,11.270455,-1
73,74,1583586229088,-5.0383,-1.6970999,9.8259,3.6272347000000003,-5.365751,11.589822999999999,-1
74,75,1583586229098,-5.0383,-1.6970999,9.8259,2.8115876,-4.3797803,12.15404,-1
75,76,1583586229109,-6.8261,-0.42589998,10.775499,2.127622,-3.3713808,12.148026,-1
76,77,1583586229119,-7.6506,0.1867,10.2928,1.4130865,-2.5504088,11.377879,-1
77,78,1583586229129,-8.2979,0.5014,9.307,0.988949,-2.0491302,10.252604,-1
78,79,1583586229139,-8.5531,0.4732,8.1635,0.8859504,-1.8586953999999998,9.201827,-1
79,80,1583586229149,-8.6938,0.4621,6.9112,0.8088092,-1.6014241000000002,7.8219147,-1
80,81,1583586229159,-8.7723,0.6131,5.0383997,0.79496115,-1.0207727,5.4508023,-1
81,82,1583586229170,-8.7529,1.0231999,2.9908,0.87413263,-0.48185703,3.9028074999999998,-1
82,83,1583586229180,-8.7867,1.5159,1.5467,0.75903857,0.38725734,2.53183,-1
83,84,1583586229190,-9.1615,2.0307999,1.1359999,0.2624141,1.0594822,2.4413962000000002,-1
84,85,1583586229200,-9.828899,2.4619,1.4369,-0.28906634,1.5216876,2.64679,-1
85,86,1583586229210,-10.2581,2.707,1.6171,-0.57319105,1.9301958,2.6446638,-1
86,87,1583586229221,-10.1627,2.7329,1.415,-0.33052433,2.0418518,2.0748724999999997,-1
87,88,1583586229231,-9.8165,2.648,0.537,0.12020808,2.0196528000000002,0.9143935,-1
88,89,1583586229242,-9.3578,2.5389,-0.7377,0.52888876,1.9532377,-0.49206590000000006,-1
89,90,1583586229251,-9.061999,2.2672,-1.9993999,0.8546151,1.7524790000000001,-1.7302799999999998,-1
90,91,1583586229261,-8.7046995,2.0575,-2.9893,1.274242,1.5969516000000001,-2.71785,-1
91,92,1583586229271,-8.1495,1.8998,-3.9464998,1.9126606,1.3981563999999997,-3.6416957,-1
92,93,1583586229281,-7.4656,1.6245999,-4.5250998,2.6480064,1.1498106000000001,-4.0065913,-1
93,94,1583586229292,-6.5948,1.3551999,-4.6668,3.570339,0.7280959,-4.323421,-1
94,95,1583586229302,-5.6747,0.71419996,-5.2321,4.509976999999999,-0.049119443,-4.971857,-1
95,96,1583586229312,-4.5483,0.0298,-5.5952997,5.772889599999999,-0.66047406,-5.190486,-1
96,97,1583586229322,-3.2352998,-0.37039998,-5.5723,7.2082424,-1.1222963,-5.150646,-1
97,98,1583586229332,-2.3142,-0.7079,-5.3496,7.6626425000000005,-1.3700293,-4.8299093,-1
98,99,1583586229342,-2.0305998,-0.93969995,-4.6846,7.7397356,-1.527041,-4.1056633,-1
99,100,1583586229353,-2.2079,-0.9957,-3.9606998,7.443936999999999,-1.5305556,-3.5559068,-1
100,101,1583586229363,-2.5421,-0.99729997,-3.5479998999999998,7.1803737000000005,-1.5447581,-3.1576647999999996,-1
101,102,1583586229373,-2.5523,-0.96449995,-3.2161999,7.4676776,-1.4903331,-2.949647,-1
102,103,1583586229383,-2.0321,-0.8692,-3.1032999,8.586508,-1.3364433,-2.949599,-1
103,104,1583586229394,-0.97139996,-0.70989996,-3.0707,9.737802499999999,-1.2715031,-3.0244322,-1
104,105,1583586229403,0.1292,-0.6573,-3.1755998,10.46609,-1.4642075,-3.2072246,-1
105,106,1583586229413,0.9361,-0.8874,-3.3451,11.028728,-1.7044226000000002,-3.212712,-1
106,107,1583586229423,1.3701,-1.055,-3.1973,11.252863,-1.8855104,-2.946113,d
107,108,1583586229433,1.4406999,-1.1934999,-2.758,11.0757885,-1.9186941000000002,-2.4248857000000004,-1
108,109,1583586229443,1.1772,-1.0787,-2.2066,10.795485000000001,-1.7463977,-1.9354631999999998,-1
109,110,1583586229454,0.9034,-0.8829,-1.7772,10.555966999999999,-1.5659802999999999,-1.6359293,-1
110,111,1583586229464,0.69799995,-0.6992,-1.5149,10.410075,-1.365643,-1.3694066999999999,-1
111,112,1583586229474,0.5909,-0.46519998,-1.1805999,10.317985,-1.0944662,-1.0895245,-1
112,113,1583586229484,0.5136,-0.25689998,-1.0083,10.264536,-1.0057083,-1.2681321,-1
113,114,1583586229494,0.4957,-0.1708,-1.1840998999999999,10.475178999999999,-1.0021554,-1.5631933999999998,-1
114,115,1583586229504,0.77269995,-0.1574,-1.4785,10.937777,-1.0039462,-1.8026615000000001,-1
115,116,1583586229515,1.2760999,-0.120699994,-1.625,11.4799385,-1.0637534,-1.8391874,-1
116,117,1583586229525,1.7797999,-0.20189999,-1.5505999,11.685869,-1.3047058999999999,-1.6752805,-1
117,118,1583586229535,1.9009999,-0.40649998,-1.329,11.432696,-1.4411753,-1.5075903999999998,-1
118,119,1583586229545,1.5703,-0.5029,-1.1407,10.966439,-1.4411848999999999,-1.5773767,-1
119,120,1583586229556,1.1214,-0.4793,-1.2305,10.674548,-1.3783994,-1.8239411,-1
120,121,1583586229566,0.8979,-0.42929998,-1.4102,10.704399,-1.3308506000000002,-1.9311726000000002,-1
121,122,1583586229576,0.9885,-0.37899998,-1.4146999,10.996089999999999,-1.2445538999999999,-1.6774543999999998,-1
122,123,1583586229586,1.2457,-0.28939998,-1.1378,10.819148,-1.1846223,-1.3024648,-1
123,124,1583586229597,1.0612999,-0.24129999,-0.72889996,10.374976,-1.1950802,-0.92022574,-1
124,125,1583586229607,0.2215,-0.36839998,-0.0778,9.92477,-1.306286,-0.7115663000000001,-1
125,126,1583586229618,0.0276,-0.33159998,-0.032199997,9.747034,-1.2777758999999997,-0.70070624,-1
126,127,1583586229628,-0.048499997999999996,-0.3809,0.00049999997,9.720305,-1.318506,-0.7393774000000001,-1
127,128,1583586229639,0.14,-0.311,-0.1866,9.942172,-1.2078748,-0.9861046,-1
128,129,1583586229649,0.2692,-0.085099995,-0.3994,9.988667,-0.9797360999999999,-1.1776695,-1
129,130,1583586229659,0.074099995,0.048699997,-0.4317,9.752771000000001,-0.86144334,-1.2291638999999999,-1
130,131,1583586229669,-0.2588,0.1201,-0.4874,9.430233,-0.76191163,-1.2897278,-1
131,132,1583586229679,-0.50369996,0.2591,-0.48389998,9.177895,-0.6249824,-1.323237,-1
132,133,1583586229689,-0.8558,0.4172,-0.5421,8.814206,-0.49408662,-1.3533273000000001,-1
133,134,1583586229699,-1.1579,0.3527,-0.3462,8.571136,-0.57558525,-1.1468035,-1
134,135,1583586229710,-1.0468,0.18439999,-0.093499996,8.751813,-0.7279521999999999,-0.97880715,-1
135,136,1583586229720,-0.74899995,0.15789999,-0.0087,9.093753,-0.7155694,-0.9052573,-1
136,137,1583586229730,-0.5297,0.2419,0.1011,9.20989,-0.6403149,-0.8872336999999999,-1
137,138,1583586229740,-0.4678,0.32709998,-0.0209,9.247557,-0.55552185,-1.1240298,-1
138,139,1583586229750,-0.4847,0.4226,-0.2656,9.2692,-0.45307875,-1.3475142,-1
139,140,1583586229760,-0.4037,0.5282,-0.3266,9.331764,-0.38004598,-1.3231986,-1
140,141,1583586229771,-0.43069997,0.5647,-0.1924,9.201569000000001,-0.39568493,-1.1780621,-1
141,142,1583586229781,-0.6933,0.4926,-0.0506,8.970528999999999,-0.4775379,-1.0774482,-1
142,143,1583586229791,-0.89739996,0.40179998,0.0976,8.801986,-0.55304146,-0.9475676,-1
143,144,1583586229801,-0.82699996,0.4527,0.005,8.9958105,-0.460654,-1.1710999,-1
144,145,1583586229811,-0.5999,0.6364,-0.281,9.138573,-0.29527208,-1.4419128,-1
145,146,1583586229821,-0.5787,0.6856,-0.49049997,9.114533999999999,-0.32584128,-1.618442,-1
146,147,1583586229832,-0.52739996,0.62729996,-0.6063,9.301743,-0.42948148,-1.6644012,-1
147,148,1583586229842,-0.2694,0.56979996,-0.5493,9.653948,-0.5121293,-1.498502,-1
148,149,1583586229852,0.0872,0.5327,-0.302,9.95535,-0.6093435,-1.1998971999999999,-1
149,150,1583586229862,0.3558,0.40719998,0.0042999996999999995,10.14793,-0.7027653,-0.9649303,-1
150,151,1583586229872,0.5256,0.4093,0.3148,10.234666,-0.67574906,-0.80514127,-1
151,152,1583586229882,0.5474,0.4524,0.2122,10.232378,-0.6699264,-1.1147691000000002,-1
152,153,1583586229893,0.5979,0.46879998,-0.1357,10.467316,-0.69720113,-1.2989597,-1
153,154,1583586229902,1.0309,0.4789,-0.36969998,11.269708999999999,-0.72125804,-1.7633104,d
154,155,1583586229913,2.0235999,0.4436,-0.956,12.354836,-0.87874866,-2.246671,-1
155,156,1583586229923,3.0265,0.2394,-1.2235999,13.121097,-1.2024063999999999,-2.2060556,-1
156,157,1583586229933,3.6464999,-0.1206,-1.1812,13.607857999999998,-1.8127650000000002,-2.4630208,-1
157,158,1583586229943,4.1966,-0.7852,-1.6972,14.398776999999999,-2.2789736,-3.0320554,-1
158,159,1583586229953,5.1569,-1.0288,-2.0686998,15.553663,-2.4060479999999997,-2.9849374,-1
159,160,1583586229963,5.9775996,-1.1883,-1.9451,15.859193,-2.6096222,-2.7090582999999997,-1
160,161,1583586229973,6.1967998,-1.4652,-1.4779999,15.836762,-2.845164,-2.0916033,-1
161,162,1583586229983,6.1,-1.7378999,-0.8671,15.759891,-3.1107383,-1.4964813999999997,-1
162,163,1583586229994,6.121,-2.1373,-0.46289998,15.940853,-3.5775886,-1.4876708,-1
163,164,1583586230004,6.3683996,-2.7163,-0.6678,16.530507999999998,-4.210587,-1.7340244999999999,-1
164,165,1583586230014,6.9698,-3.2663999,-0.83709997,17.446327,-4.4621983,-2.0097888,-1
165,166,1583586230024,7.8947997,-3.5263,-1.1434,18.128704,-4.492106400000001,-2.1778138,-1
166,167,1583586230034,8.4458,-3.6216,-1.2418,18.085072,-4.6143446,-2.0864224,-1
167,168,1583586230044,8.2303,-3.8574,-1.1468999,17.346020000000003,-4.7051525000000005,-1.9662142,-1
168,169,1583586230055,7.0035996,-4.0937,-1.0145,15.473207999999998,-4.7975683,-1.6769468,-1
169,170,1583586230065,5.3652997000000004,-4.3296,-0.7248,13.683159,-5.0413747,-1.2178441999999998,-1
170,171,1583586230075,3.5626998,-4.7943,-0.2427,12.102708999999999,-5.208107,-0.55770534,-1
171,172,1583586230085,2.0778,-5.079799700000001,0.4843,11.133507,-4.9014196,0.55511004,-1
172,173,1583586230096,1.2358,-4.8858,1.6868,10.489102,-4.254937,1.7855955000000001,-1
173,174,1583586230106,0.5682,-4.4389,2.8964,9.166841999999999,-3.3374884,2.8184829,-1
174,175,1583586230116,-0.58809996,-3.8595998,3.7466998,7.154439999999999,-2.8046637000000003,2.8145757000000002,-1
175,176,1583586230126,-2.5806,-3.5546,3.7673,5.450812,-2.4268875,2.3284472999999997,-1
176,177,1583586230136,-4.6379,-3.2835,3.1603,3.7894945,-1.8001907,1.5016817,-1
177,178,1583586230146,-5.9087996,-2.9661999,2.4840999,3.5965126000000005,-1.3276615,0.9552578000000002,-1
178,179,1583586230156,-6.0709,-2.6766,1.9391999,3.7918887000000003,-0.85317856,0.6159707,-1
179,180,1583586230166,-5.83,-2.2533,1.5602,3.6291788,-0.17130992,0.63658947,-1
180,181,1583586230176,-6.1155,-1.7100999,1.6686,2.6459856,0.5928714,0.7139605,-1
181,182,1583586230186,-7.2293997,-1.1151,1.7465,0.93015695,1.5478034999999999,0.82075155,-1
182,183,1583586230196,-9.0244,-0.3015,1.9188,-1.5280945,2.7245631,1.1107084999999999,-1
183,184,1583586230207,-11.0123,0.5042,2.1812,-3.1738112000000003,3.7639245999999997,0.868942,-1
184,185,1583586230217,-12.6189995,1.3862,1.9595,-4.0921597,4.839429,0.21312225,-1
185,186,1583586230227,-13.4958,2.3372998,1.3318,-4.4715357000000004,5.7281947,-0.36072,-1
186,187,1583586230237,-13.8505,3.1262,0.7928,-4.9337599999999995,6.2211989999999995,-0.64395404,-1
187,188,1583586230248,-15.063298999999999,3.7336,0.6058,-5.871224,6.433210400000001,-0.5453895999999999,-1
188,189,1583586230258,-15.715698999999999,3.7136998,0.9334,-6.573587400000001,6.4048147,-0.17266025,-1
189,190,1583586230268,-16.3765,3.6425,0.9323,-7.193264,6.279627,-0.3574735,-1
190,191,1583586230278,-16.800499,3.4041,0.84209996,-7.4840064,5.9387693,-0.28265944,-1
191,192,1583586230288,-17.0158,2.8897,1.4212999,-7.6436133,5.301624299999999,0.41245392,-1
192,193,1583586230298,-17.0315,2.1290998,2.5528998,-7.643910000000001,4.4298763,1.5244648,-1
193,194,1583586230308,-17.0315,2.1290998,2.5528998,-7.697263,3.7771597000000003,2.0786076,-1
194,195,1583586230318,-17.1688,0.8779,3.2326999,-7.672161999999999,2.9106883999999997,1.8194017,-1
195,196,1583586230328,-16.886799,0.4619,2.2979,-7.237672,2.3401597,0.8146032,-1
196,197,1583586230338,-16.0774,0.26909998,1.3139,-6.321333999999999,1.8814117,-0.13787729,-1
197,198,1583586230348,-15.2667,-0.0128,0.7387,-5.5598434999999995,1.3573304,-0.64650154,-1
198,199,1583586230358,-15.2667,-0.0128,0.7387,-5.4075727,0.8803767,-0.6806045000000001,-1
199,200,1583586230369,-15.3237,-1.1676999,1.3675,-5.6926837,-0.63319933,0.30240682,-1
200,201,1583586230379,-15.422298999999999,-2.4986,2.7451,-5.684764,-2.2874967999999996,1.6225888000000002,-1
201,202,1583586230389,-14.8446,-3.3962,3.8414998,-4.9795565999999996,-3.3784292000000002,2.630088,-1
202,203,1583586230399,-14.8446,-3.3962,3.8414998,-4.275431,-4.447957499999999,3.1852076,-1
203,204,1583586230410,-13.771899,-4.4298997,4.1626997,-3.9478373999999996,-5.5064244,2.329807,-1
204,205,1583586230420,-13.241199499999999,-5.034,2.5514,-3.213258,-6.63168,0.6778847,-1
205,206,1583586230430,-11.908299000000001,-5.763,1.0911,-1.4962611000000001,-8.151003,-0.15394717,-1
206,207,1583586230440,-9.5084,-7.1955,1.1534,1.1236275,-10.184877,0.687088,-1
207,208,1583586230450,-6.6653,-8.222999999999999,2.2893,3.6307974,-11.489600999999999,2.2120794999999998,-1
208,209,1583586230461,-4.5882998,-8.9024,3.7947,5.0252,-12.822578,3.8158977,-1
209,210,1583586230471,-3.6764,-9.8974,5.223799700000001,5.391588700000001,-14.559083,5.360579,-1
210,211,1583586230481,-3.2924,-11.512,5.7637997,5.716281400000001,-16.998860999999998,5.088262599999999,-1
211,212,1583586230491,-1.8230000000000002,-13.7987995,3.5454998,7.1716585,-19.29805,2.9923978,-1
212,213,1583586230501,1.9066,-15.9256,0.2929,11.939463,-22.164696,-0.22208615,-1
213,214,1583586230511,6.8919997,-17.1826,-1.1388999,16.231367000000002,-23.600882000000002,-0.40161297,-1
214,215,1583586230521,10.2862,-17.9753,0.3272,18.223303,-24.736414,2.3483384,-1
215,216,1583586230531,11.3194,-18.402199,3.7192998,18.210777,-25.297863,5.563301,-1
216,217,1583586230542,11.1089,-17.723098999999998,5.8855996,17.697796,-24.539284,6.9495059999999995,-1
217,218,1583586230552,10.4723,-15.8333,6.4884996,16.102396,-22.274101,7.335719,-1
218,219,1583586230562,9.6277,-14.133598999999998,5.6285,15.445503,-21.287336,5.5681567,-1
219,220,1583586230572,9.9324,-13.276198999999998,3.0519,16.473152,-20.913505999999998,3.3455138,-1
220,221,1583586230582,11.8946,-12.673699000000001,0.9474,18.401642000000002,-20.215902,2.1759557999999997,-1
221,222,1583586230592,13.866798999999999,-11.649000000000001,-0.1041,19.042837,-19.671019,1.8012345,-1
222,223,1583586230602,14.2021,-10.8756,-0.2602,18.137045,-19.13083,2.1748545,-1
223,224,1583586230613,12.983399,-10.590799,0.145,16.457159,-18.898113000000002,2.7964947,-1
224,225,1583586230623,11.6852,-10.242,1.0687,15.282773,-18.497334,4.106152,-1
225,226,1583586230633,10.7708,-9.5884,1.9824,14.367365,-17.856023999999998,4.035906,-1
226,227,1583586230643,10.064099,-8.853,1.4836999,13.615604000000001,-16.98098,3.5958421,-1
227,228,1583586230653,9.4242,-7.7769,1.2092999,12.883123,-16.12967,3.392469,-1
228,229,1583586230663,8.8551,-7.0039,0.9264,12.242319,-15.156254999999998,2.9631502999999997,-1
229,230,1583586230674,8.350699,-5.875099700000001,0.3784,11.792563000000001,-14.197664000000001,2.461,-1
230,231,1583586230684,7.8648996,-4.7511,-0.2067,11.048849,-12.917857000000001,1.7726574000000002,-1
231,232,1583586230694,7.4564,-3.9243998999999996,-0.7259,10.716896,-12.296716,1.4035481,-1
232,233,1583586230704,7.1619997,-3.326,-0.9887,10.240805,-11.813355,1.5683745,-1
233,234,1583586230714,6.6724,-2.8883,-0.6881,9.58058,-11.918058,2.2599542,-1
234,235,1583586230725,5.995,-3.0347998,0.0638,8.819741,-11.63493,2.4773283,-1
235,236,1583586230735,5.1682997,-2.5914,0.1006,7.773657000000001,-11.006289500000001,1.8853955000000002,-1
236,237,1583586230745,4.0491,-1.9897,-0.5247,6.634103,-10.399694,1.5143422,-1
237,238,1583586230755,2.9387,-1.3928,-0.73929995,5.8192124000000005,-9.850214999999999,1.741255,-1
238,239,1583586230765,2.1324,-0.884,-0.42319998,5.4031769999999995,-9.4096155,1.965812,-1
239,240,1583586230776,1.7759,-0.5003,-0.23799999,5.467198000000001,-9.313627,1.8674389,d
240,241,1583586230786,1.8922,-0.48659998,-0.43339998,5.743939,-9.5092325,1.202368,-1
241,242,1583586230796,2.2031999,-0.7262,-1.1748999,6.4292264,-10.0198965,0.46158296,-1
242,243,1583586230806,2.7881,-1.1709,-1.7353,6.743499000000001,-10.283173,0.65445983,-1
243,244,1583586230816,3.0946999,-1.5285,-1.3851,6.4413123,-10.777366,1.7227143,-1
244,245,1583586230827,2.7233999,-1.9399998999999999,-0.4104,5.6805406,-10.895916,2.425767,-1
245,246,1583586230837,1.9035,-2.0744,0.3505,4.912193299999999,-10.799411,2.1661491,-1
246,247,1583586230847,1.0588,-1.9995999,0.11599999999999999,4.440564,-10.582889,1.2637553,-1
247,248,1583586230857,0.86899996,-1.7449,-1.2269,4.843489,-10.487696000000001,0.8029769,-1
248,249,1583586230868,0.86899996,-1.7449,-1.2269,5.6447997,-10.623380000000001,1.066502,-1
249,250,1583586230878,2.3305,-2.1989,-0.2695,6.3917904000000005,-10.913997,1.7310462,-1
250,251,1583586230888,2.3305,-2.1989,-0.2695,7.0768580000000005,-11.595291,2.5317917000000003,-1
251,252,1583586230898,3.6632,-3.645,1.1326,7.8405320000000005,-12.333594999999999,3.0492074000000002,-1
252,253,1583586230908,4.4048,-4.0924,1.7637,8.782171,-12.816257,3.7673050999999997,-1
253,254,1583586230918,4.7735,-4.4997,2.0867999,9.099613,-13.123625,3.9277453,-1
254,255,1583586230928,5.0685997,-4.9561,1.7528,9.600203500000001,-13.599582999999999,3.5052453999999997,-1
255,256,1583586230939,5.7170000000000005,-5.1152,1.1273999,10.409355999999999,-13.6387615,2.856005,-1
256,257,1583586230950,6.7001,-5.229,0.2331,11.511907,-13.736904000000001,1.9246794999999999,-1
257,258,1583586230960,7.8443,-5.3271,-0.87399995,12.787488,-13.7108555,0.96139646,-1
258,259,1583586230970,9.0597,-5.1653,-0.9733,14.086745,-13.476157,1.1051347,-1
259,260,1583586230980,9.8048,-5.2771,-0.087299995,14.785757,-13.7531185,2.344996,-1
260,261,1583586230990,9.5352,-5.8943996,1.2013,14.453432000000001,-14.287964,3.4230475,-1
261,262,1583586231000,8.9435,-6.3247,1.8335999,14.1985445,-14.401842000000002,3.5090284,-1
262,263,1583586231011,8.804,-6.3231997,1.5101,14.444927999999999,-14.134160000000001,2.884716,-1
263,264,1583586231021,8.8164,-6.1345,0.92859995,14.498213,-13.736531,1.9749004000000001,-1
264,265,1583586231032,8.310599,-6.0175,0.19469999,14.070129999999999,-13.556267000000002,1.3800658000000001,-1
265,266,1583586231042,7.3633,-5.8687,-0.1937,13.375082999999998,-13.083267999999999,0.95770943,-1
266,267,1583586231053,6.5871,-5.4433,-0.3579,12.980317,-12.240269999999999,0.590391,-1
267,268,1583586231063,6.0193,-5.0439,-0.4335,12.61888,-11.780583,0.5675503000000001,-1
268,269,1583586231073,5.2335997,-4.9358,0.0055,11.9764,-11.476069,1.0117801,-1
269,270,1583586231083,4.285599700000001,-4.9721,0.9467,11.2771015,-11.1693535,2.0206008,-1
270,271,1583586231094,3.2512,-4.9256,2.2770998,10.393727,-10.723849000000001,2.967613,-1
271,272,1583586231104,1.8998,-4.917,3.4699,9.274889,-9.989367,3.4627912000000003,-1
272,273,1583586231114,0.5286,-4.2883,3.8386998,7.5441966,-9.069063,3.3514992999999995,-1
273,274,1583586231124,-1.176,-3.9610999,3.9364,6.447039,-8.290747,3.6261047999999994,-1
274,275,1583586231134,-2.3072999,-3.5256,4.442,6.121466000000001,-7.5736737000000005,3.9425797,-1
275,276,1583586231144,-2.7071,-3.2375998,4.7827,6.1548223,-7.123947,3.4685757000000006,-1
276,277,1583586231155,-2.7897,-3.1353998,4.2815,6.1726540000000005,-6.5545583,2.5271375,-1
277,278,1583586231165,-2.9494998,-2.9092999,3.4685,5.9910398,-5.9409623,2.2571,-1
278,279,1583586231175,-3.2769999999999997,-2.6232,3.5878,5.622457,-5.1504645,3.0789720000000003,-1
279,280,1583586231185,-3.8035,-2.1894,4.659,4.672974,-4.6072296999999995,4.3575044,-1
280,281,1583586231196,-5.0025997,-2.0273,6.0662,2.8572595,-4.052694,5.1652510000000005,-1
281,282,1583586231206,-7.0038,-1.8067,6.7272997000000005,1.0153618,-3.528086,4.895308999999999,-1
282,283,1583586231216,-8.7676,-1.5899999,6.3799,-0.09165961,-2.9459312,4.2228255,-1
283,284,1583586231226,-9.7547,-1.2645998999999999,5.6584997,-0.376742,-2.1364324,3.0545418,-1
284,285,1583586231236,-9.956099499999999,-0.8161,4.6544,-0.04207091,-1.9865743999999999,1.9815563000000003,-1
285,286,1583586231246,-9.598499,-0.8865,3.4320998,0.9931627000000001,-2.2886363999999997,0.6037794,-1
286,287,1583586231256,-8.644999499999999,-1.3061999,2.2036,1.9130342,-1.9160413,-0.48869488,-1
287,288,1583586231267,-7.7344,-1.0835999,1.1359,2.18491,-1.2902832,-1.3900448,-1
288,289,1583586231277,-7.4670997,-0.64489996,0.2791,1.5647448,-0.5957923,-0.7779144,-1
289,290,1583586231287,-8.0848,-0.051,0.9202,0.078386165,-0.25147736,0.57928187,-1
290,291,1583586231297,-10.6362,-0.037499998,2.8813,-1.131902,-0.26589048,1.0012264000000002,-1
291,292,1583586231307,-10.916699000000001,0.0222,2.8230999,-1.3277285,0.027820623,0.87383574,-1
292,293,1583586231318,-10.916699000000001,0.0222,2.8230999,-1.2850447,0.36762488,0.62730956,-1
293,294,1583586231328,-10.7125,0.21509999,2.5556997999999997,-1.0745944,0.27452874,0.54798484,-1
294,295,1583586231338,-10.073999,-0.0138,2.6273,-0.26959667,0.13360603,0.5707968000000001,-1
295,296,1583586231348,-8.7126,0.22919999,1.9520998999999999,1.2496775,0.45119209999999993,-0.32923147,-1
296,297,1583586231358,-6.8603,0.5026,0.5062,3.1114087,0.6392614000000001,-1.7700619999999998,-1
297,298,1583586231368,-6.8603,0.5026,0.5062,4.449882499999999,0.5063545,-2.1368155,-1
298,299,1583586231379,-4.2422,-0.0698,0.2783,5.4063663,-0.05914636,-1.7531973,-1
299,300,1583586231389,-4.4000998,-0.4164,0.2794,5.067567299999999,-0.4037103,-1.9073551,-1
300,301,1583586231399,-4.9323,-0.6947,-0.15959999,4.532396,-0.6180966999999999,-2.492249,-1
301,302,1583586231409,-5.0765,-0.58989996,-0.6573,4.6093554,-0.37226963,-2.840663,-1
302,303,1583586231419,-5.0765,-0.58989996,-0.6573,5.007003299999999,-0.0047405194,-2.6806345,-1
303,304,1583586231429,-3.9691,0.23279999,0.1338,5.713733,0.40701428,-1.8251383,-1
304,305,1583586231439,-3.4854998999999998,0.3251,1.0797,6.1596394,0.38643375,-0.923616,-1
305,306,1583586231449,-3.0472999,0.0088,1.7673,6.593430000000001,-0.0026144682999999997,-0.36740459999999997,-1
306,307,1583586231459,-2.5874999,-0.3779,1.7468,7.1060195,-0.43854114,-0.62689775,-1
307,308,1583586231470,-1.8043,-0.57839996,0.7140000000000001,8.166613,-0.7318309000000001,-2.2008076,-1
308,309,1583586231480,-0.6394,-0.70419997,-0.94339997,9.426403,-0.8649676,-4.0229964,-1
309,310,1583586231490,0.63199997,-0.62939996,-2.8154,10.557184,-0.7850396,-5.6921763,-1
310,311,1583586231500,1.4416,-0.3981,-3.8009,11.065388,-0.64696115,-6.1833515,-1
311,312,1583586231510,1.5759,-0.2574,-3.6722,10.981064,-0.6246089,-5.804723,-1
312,313,1583586231520,1.1244,-0.259,-2.8439999,10.344847999999999,-0.6362543,-4.753592,-1
313,314,1583586231531,0.3423,-0.2983,-1.64,9.5411625,-0.7330661999999999,-3.6880187999999996,-1
314,315,1583586231541,-0.24159999,-0.3911,-0.77199996,9.19543,-0.7413119,-3.0669916,-1
315,316,1583586231551,-0.21769999,-0.24039999,-0.3087,9.373289999999999,-0.55241895,-2.6943099999999998,-1
316,317,1583586231561,0.1486,-0.066599995,0.0598,9.795703999999999,-0.48479712,-2.4877192999999997,-1
317,318,1583586231571,0.6322,-0.1541,-0.0276,10.321528,-0.8821962999999999,-3.0510652,-1
318,319,1583586231582,1.0258,-0.5272,-0.67289996,10.59736,-1.194879,-3.6529580000000004,-1
319,320,1583586231592,1.3678,-0.78169996,-1.3585,10.995610000000001,-1.3771545,-4.3383512,-1
320,321,1583586231602,1.6571,-0.6701,-1.8506999,11.143275,-1.1434323999999998,-4.7065215,d
321,322,1583586231613,1.6204,-0.3464,-2.1034,10.772739,-0.8169112,-4.626871599999999,-1
322,323,1583586231623,1.1136,-0.078499995,-1.7129999,10.113109,-0.63486564,-4.059387999999999,-1
323,324,1583586231633,0.4131,0.0387,-1.1247,9.613122,-0.5898164,-3.6688267999999997,-1
324,325,1583586231643,0.0109,0.08249999599999999,-0.7273,9.344818,-0.5927373,-3.4335055,-1
325,326,1583586231653,-0.0243,-0.036199998,-0.6805,9.419374000000001,-0.7676194000000001,-3.5668721,-1
326,327,1583586231663,0.0799,-0.1683,-0.7558,9.562978,-0.9456905000000001,-3.7704847000000004,-1
327,328,1583586231674,0.2747,-0.41259998,-1.1790999,9.805731,-1.1971775,-4.7892747,-1
328,329,1583586231684,0.5875,-0.64309996,-2.4468,10.191245,-1.381464,-6.772191,-1
329,330,1583586231694,0.9279999999999999,-0.6681,-4.0643997,10.328059,-1.2808788,-8.214554,-1
330,331,1583586231704,1.0103999,-0.5721,-5.4068,10.169974,-1.3799222,-9.256539,-1
331,332,1583586231714,0.8452,-0.7513,-6.3132997,9.924474,-1.8291892,-9.911698,-1
332,333,1583586231724,0.6009,-1.2638999,-6.9161,9.909189,-2.3474956000000002,-10.445184,-1
333,334,1583586231735,0.6698,-1.785,-7.3622,10.167178999999999,-2.7900782000000004,-10.905512,-1
334,335,1583586231745,0.9543,-2.2753,-7.8374996,10.307699000000001,-3.4747431000000004,-11.535264,-1
335,336,1583586231755,1.0519999,-3.0221,-8.430099499999999,10.1645355,-4.0138216,-12.060916,-1
336,337,1583586231765,0.8552,-3.5488,-8.9242,9.680025,-4.2031455,-12.838561,-1
337,338,1583586231775,0.32189998,-3.7580998,-9.700399,9.175701,-4.246567,-13.231029500000002,-1
338,339,1583586231786,-0.1602,-3.8716998,-9.930099499999999,8.704513,-4.197706,-13.129907999999999,-1
339,340,1583586231796,-0.6638,-3.8869998,-9.8799,8.036483,-4.142888,-13.668804000000002,-1
340,341,1583586231806,-1.3833,-3.9315998999999997,-10.616099,7.2094107,-3.7835763,-14.036132,-1
341,342,1583586231816,-2.0980000000000003,-3.7266998,-10.901,6.2175603,-3.708762,-12.885354,-1
342,343,1583586231827,-3.1160997999999998,-3.7900998999999995,-9.8382,4.645709,-3.9001930000000002,-10.201732000000002,-1
343,344,1583586231837,-4.7085,-4.1523,-7.2433,2.5065281,-3.9464297,-7.208041000000001,-1
344,345,1583586231847,-6.8771996,-4.3807,-4.3315,0.12378023,-3.9220665,-4.058201,-1
345,346,1583586231857,-9.2848,-4.5239,-1.298,-1.8823214,-3.9843059000000003,-1.4926125,-1
346,347,1583586231867,-11.2987995,-4.7335997,1.1189,-2.6957371,-3.9956546000000004,-0.59267986,-1
347,348,1583586231877,-12.156799000000001,-4.8318,1.8266,-1.7438982,-3.5115564,-0.9057744000000001,-1
348,349,1583586231888,-11.257899,-4.3726997,1.2845,-0.05176264,-2.765705,-1.4245404,-1
349,350,1583586231898,-9.8695,-3.7436,0.6304,0.66145086,-2.3799324,-1.8386128000000002,-1
350,351,1583586231908,-8.8255,-2.8404999,-0.5563,0.72715735,-2.0596168,-1.9707057000000001,-1
351,352,1583586231918,-9.8243,-3.0365,0.34129998,-0.41055772,-2.3379380000000003,-0.5140159000000001,-1
352,353,1583586231928,-10.943299,-3.3369999999999997,3.5505998,-1.4117458999999999,-2.5944526000000003,3.3305836,-1
353,354,1583586231938,-11.4312,-3.0804,8.3357,-1.783508,-2.2289155,8.188303999999999,-1
354,355,1583586231949,-11.6242,-2.0646,11.7016,-1.9168266,-1.1368437,11.263397,-1
355,356,1583586231959,-11.878099,-1.0992,12.986799000000001,-2.1610734000000003,-0.38187519999999997,12.345538000000001,-1
356,357,1583586231969,-11.8674,-0.4235,12.8996,-1.9345629,0.25132415,12.405145,-1
357,358,1583586231980,-11.304299,-0.1504,13.0013,-1.3423618,0.063388884,12.738781,-1
358,359,1583586231990,-9.9998,-0.81329995,13.759998999999999,0.7016448000000001,-1.1934617,14.361131,-1
359,360,1583586232000,-7.6183,-1.7278,16.0991,2.7350209999999997,-2.0809731,16.685162,-1
360,361,1583586232010,-4.8448,-1.861,19.063599,6.0987883,-2.0068197,20.230478,-1
361,362,1583586232020,-2.4055,-0.8576,21.3335,7.9074735999999985,-1.3907056,22.225296,-1
362,363,1583586232030,-1.7249,-0.49609998,22.5859,7.733194999999999,-1.6856137999999998,23.124493,-1
363,364,1583586232040,-2.9036999,-0.99909997,22.8288,6.154075,-2.5516925,23.08226,-1
364,365,1583586232051,-4.2248,-1.8011999,22.4553,5.371688400000001,-3.71854,22.569115,-1
365,366,1583586232061,-3.8504998999999995,-2.5583,21.2715,6.960317999999999,-4.479044,20.552526,-1
366,367,1583586232071,-1.6997,-2.6664999,19.1773,8.917061,-4.7429805,18.996927,-1
367,368,1583586232081,0.8728,-2.9503999,17.876998999999998,11.373942,-5.5323296,18.392881,-1
368,369,1583586232091,2.9097,-3.7531,17.687199,12.772644999999999,-6.701236200000001,18.162405,-1
369,370,1583586232101,3.5667998999999995,-4.7348,17.1952,12.933699,-8.405956,16.88776,-1
370,371,1583586232111,3.5015,-6.0559998,15.4829,12.735381,-9.481125,14.9408245,-1
371,372,1583586232122,3.2152,-7.0038,12.781899000000001,12.318522,-10.464261,12.342215,-1
372,373,1583586232132,2.747,-7.6168,10.8454,11.778945,-11.366118,11.069333,-1
373,374,1583586232142,2.5774,-8.4713,10.379399000000001,12.029886,-12.596192,10.632171000000001,-1
374,375,1583586232152,3.4313,-9.281899000000001,9.4812,13.542074,-13.716257,8.479324,-1
375,376,1583586232162,5.179199700000001,-10.1757,6.651,15.019612,-14.633925,5.468175,-1
376,377,1583586232172,7.414499799999999,-11.3363,1.4963,17.460472,-15.8029375,-1.1833582,-1
377,378,1583586232182,9.1708,-11.645999999999999,-3.7609,18.549623,-15.805370000000002,-5.0667343,-1
378,379,1583586232192,9.8729,-11.1761,-6.2118998,18.153479,-15.037617000000001,-5.324800499999999,-1
379,380,1583586232202,8.6446,-10.284699,-5.0924,15.746932999999999,-14.257184,-2.9453182,-1
380,381,1583586232212,5.7223,-9.528299,-2.5667,13.089196000000001,-13.926842,-1.5969805000000001,-1
381,382,1583586232222,2.665,-9.5852995,-2.8997,10.61523,-14.476493,-4.6639433,-1
382,383,1583586232232,2.182,-10.1758995,-7.4550996,12.334257000000001,-14.778573999999999,-10.459999,-1
383,384,1583586232243,5.1226,-10.0001,-13.3758,16.02446,-13.844126999999999,-15.237685,-1
384,385,1583586232253,8.6343,-8.6205,-16.779,18.271732,-12.435722,-16.47747,-1
385,386,1583586232263,9.5807,-7.3627996,-16.7074,17.026451,-11.478847,-14.719073000000002,-1
386,387,1583586232273,7.1366997,-6.4544,-14.179198999999999,13.629864999999999,-10.574508999999999,-12.146780999999999,-1
387,388,1583586232283,3.5916,-5.6138,-11.7901,10.511762,-9.505958,-10.625361,-1
388,389,1583586232294,0.8822,-4.4572,-10.918799,8.480128,-8.323164,-10.662999000000001,-1
389,390,1583586232303,-0.7682,-3.4993,-11.4592,7.5181759999999995,-7.639428,-11.973777,-1
390,391,1583586232313,-1.3399999,-3.1736,-13.279098999999999,7.661838,-7.7275443,-14.209376,-1
391,392,1583586232323,-0.6562,-3.3393998,-15.4416,9.022434,-7.557882000000001,-15.676275,-1
392,393,1583586232333,0.797,-2.9837,-16.364199,9.735887,-7.173986,-15.81035,-1
393,394,1583586232343,0.8038,-2.8195,-16.1552,8.882757000000002,-7.1236215,-15.116385000000001,-1
394,395,1583586232353,-0.4737,-2.7103999,-14.775499,7.582197,-6.846172,-12.842355,-1
395,396,1583586232363,-1.7861999,-2.5045,-12.0833,6.206422,-6.7644625,-10.730275,-1
396,397,1583586232373,-3.1764997999999998,-2.5753999,-10.5632,4.9550014000000004,-6.80933,-10.365103,-1
397,398,1583586232383,-4.3361998,-2.7080998,-10.715099,4.167338,-6.972921,-11.076343,-1
398,399,1583586232393,-4.811899700000001,-2.8862,-11.5042,4.202552,-7.1001199999999995,-11.813748,-1
399,400,1583586232404,-4.5729,-3.037,-12.114599,4.505064,-7.524880400000001,-12.260468,-1
400,401,1583586232414,-4.376,-3.4975,-12.3877,4.599683,-7.88628,-11.511847999999999,-1
401,402,1583586232424,-4.3129,-3.7649,-11.3777,4.363787,-7.796736699999999,-9.673637,-1
402,403,1583586232434,-4.6516,-3.5907,-9.4669,3.7642405,-7.6413727,-7.2031856,-1
403,404,1583586232444,-5.2667,-3.4685998,-6.902,3.1359541,-7.445028999999999,-5.3779325,-1
404,405,1583586232455,-6.1102,-3.1264,-5.2964997,2.0562744,-7.052725,-5.3303165,-1
405,406,1583586232465,-7.0211997,-2.8595,-5.7271,1.290331,-6.99648,-5.820553299999999,-1
406,407,1583586232475,-7.6910996,-2.8453,-6.093999999999999,1.0519068,-7.2793694,-5.613599,-1
407,408,1583586232485,-7.763099700000001,-3.1647,-5.7956,1.7021241000000003,-7.530081,-4.732695,-1
408,409,1583586232496,-6.9305997,-3.3135998,-4.7685,2.6889853,-7.7498493,-3.3144658,-1
409,410,1583586232506,-5.9396996,-3.4708,-3.4071998999999997,3.6299352999999996,-8.134205,-1.9736648999999997,-1
410,411,1583586232516,-5.1176,-3.7129,-2.3801,4.195149,-8.338189999999999,-1.5130493999999999,-1
411,412,1583586232526,-4.5069,-3.8116,-1.9470999,4.550889,-8.447874,-1.4871727,-1
412,413,1583586232536,-4.0411,-3.8590998999999995,-1.956,4.7038593,-8.566711999999999,-1.2320944999999999,-1
413,414,1583586232546,-3.8786,-3.8678,-1.5406,4.8190684,-8.612911,0.0356353,-1
414,415,1583586232556,-3.6762,-3.7684998999999997,-0.089899994,5.203836,-8.21781,2.263325,-1
415,416,1583586232566,-3.2753,-3.2937999,1.7752999,5.5422416,-7.9246254,3.9072699999999996,-1
416,417,1583586232577,-2.8790998,-2.8917,3.4266998999999996,5.74346,-7.8810606,5.4134245000000005,-1
417,418,1583586232587,-2.5447,-2.8048,5.2872996,6.347268,-8.898999,6.940532000000001,-1
418,419,1583586232597,-1.9268999,-3.6295998,6.4990997,7.3394732000000005,-10.1916,7.430749400000001,-1
419,420,1583586232607,-0.8401,-4.7901998,6.9848,8.666129,-10.671254,7.632111999999999,-1
420,421,1583586232618,0.564,-5.1274,7.1851997,9.782076,-10.404069999999999,8.126495,-1
421,422,1583586232628,1.7773999,-4.7402,7.6762,10.046061,-9.333566000000001,9.210188,-1
422,423,1583586232638,1.8010999,-2.6346,9.375899,9.542492999999999,-8.304748,9.987929,-1
423,424,1583586232648,1.0043,-1.9813999,10.6402,8.625026,-7.890886999999999,11.32445,-1
424,425,1583586232658,0.1034,-1.9347999,11.877999,7.7862789999999995,-7.891356,12.322199000000001,-1
425,426,1583586232668,0.1065,-1.8090998999999999,11.851999000000001,7.9860415,-7.8455787,11.9531765,-1
426,427,1583586232678,1.1256,-1.9721999,10.2554,9.118049000000001,-8.08339,10.099777,-1
427,428,1583586232689,2.8822,-1.7521,8.2185,10.877135,-7.8049539999999995,8.161968,-1
428,429,1583586232699,4.1408,-1.2678,6.7226,11.809955,-7.409116,6.7669334,-1
429,430,1583586232709,4.0295,-1.0,6.2893,11.44778,-7.1992016,6.631689999999999,-1
430,431,1583586232719,2.8906999,-0.78249997,6.9702997,10.208817999999999,-7.018325,7.305495,-1
431,432,1583586232729,1.7028999,-0.70449996,7.1396,9.087595,-6.913803,7.237748599999999,-1
432,433,1583586232739,1.043,-0.41329998,6.4659,8.561943,-6.5845428,6.4539824,-1
433,434,1583586232749,0.9751,-0.0106,5.771,8.566042,-6.1585193,5.769116400000001,-1
434,435,1583586232760,0.9794,0.16049999,5.1022997000000005,8.592857,-6.0716863,5.0989510000000005,-1
435,436,1583586232770,1.3197,0.20729999,3.9185998,9.074810000000001,-6.114772,3.5506105000000003,-1
436,437,1583586232780,1.8672999,0.059299998,2.5404,9.623695,-6.2743405999999995,2.47073,-1
437,438,1583586232790,2.2358,-0.1108,1.81,9.838866000000001,-6.448753400000001,1.858207,-1
438,439,1583586232801,2.2944,-0.18959999,1.3966,9.770669999999999,-6.3765254,1.6936295,-1
439,440,1583586232811,1.9431,0.104899995,1.9244,9.195736,-6.0852566,2.699855,-1
440,441,1583586232821,0.9869,0.1857,3.0944998,8.061057,-6.083772,3.5793220000000003,d
441,442,1583586232831,-0.1672,0.13599999,3.3414998,7.123276700000001,-6.03924,3.437767,-1
442,443,1583586232841,-0.73899996,0.2963,2.7775,6.8237433,-5.861839,2.7779922000000004,-1
443,444,1583586232851,-0.71459997,0.36749998,2.174,7.1295779999999995,-5.877219,2.076807,-1
444,445,1583586232862,-0.2216,0.2714,1.421,7.8855042,-5.980476400000001,1.1966411,-1
445,446,1583586232872,0.62909997,0.2206,0.5665,8.558313,-6.0033555,0.6934661999999999,-1
446,447,1583586232882,1.3815,0.1997,0.2302,9.208215,-6.025478,0.6089891,-1
447,448,1583586232892,1.6679,0.1542,0.34759998,9.126094,-6.1353908,0.88630474,-1
448,449,1583586232903,1.3495,0.022599999,0.8609,8.668255,-6.286608,1.4683447,-1
449,450,1583586232912,0.9295,-0.1329,1.268,8.4488125,-6.429303,1.4770212999999999,-1
450,451,1583586232922,0.9422,-0.3759,1.2206,8.774175,-6.718609,1.5048516,-1
451,452,1583586232932,1.4095,-0.6252,1.3432,9.443766,-6.8912787,1.6500839,-1
452,453,1583586232942,2.1039,-0.7259,1.4686999,10.091513,-6.925171000000001,1.7105517,-1
453,454,1583586232952,2.6492999,-0.6922,1.494,10.479095,-6.871828,1.8457379,-1
454,455,1583586232962,2.9448,-0.7137,1.6137999,10.7128935,-6.9319224,2.0126904999999997,-1
455,456,1583586232972,3.1766,-0.7905,1.8501999,10.946653999999999,-6.969846700000001,2.4444605999999998,-1
456,457,1583586232983,3.3841,-0.8339,2.2654,11.211768,-7.0302954,2.9259443,-1
457,458,1583586232993,3.6764,-0.9898,2.8669,11.488116999999999,-7.1255465,3.5499117,-1
458,459,1583586233003,4.0938,-1.1786,3.5939998999999996,12.194771000000001,-7.4685880000000004,4.299881,-1
459,460,1583586233013,4.7936997,-1.6061,4.0189,13.104614999999999,-7.7774589999999995,4.6623535,-1
460,461,1583586233024,5.7953,-1.7731999,4.344599700000001,14.184045999999999,-7.7909717999999994,5.0314917999999995,-1
461,462,1583586233034,6.7633,-1.8592,4.5621,15.143259,-7.9017467,5.015507700000001,-1
462,463,1583586233044,7.4396,-2.0351999,4.3409,15.736666,-8.013077000000001,4.579657599999999,-1
463,464,1583586233054,7.9683,-2.1775,3.8358,16.096907,-7.9661990000000005,4.308825499999999,-1
464,465,1583586233064,8.1607,-2.2496998,3.5579,15.861002,-8.164888000000001,4.3126273,-1
465,466,1583586233074,7.7317,-2.5869999999999997,3.6174,15.415163,-8.307324000000001,4.677800700000001,-1
466,467,1583586233085,7.1039996,-2.8460999,4.152199700000001,14.898857999999999,-8.271431,5.2845683,-1
467,468,1583586233095,6.6148996,-2.9057,4.5209,14.622941,-8.127711,5.371784,-1
468,469,1583586233105,6.2672,-2.9619,4.5343,14.427535999999998,-8.005732,5.044525599999999,-1
469,470,1583586233116,5.9588,-2.9808,4.1327,14.050554,-7.7683606,4.0449753,-1
470,471,1583586233126,5.541,-2.9336,3.2528,13.852775,-7.451474,3.4231242999999996,-1
471,472,1583586233136,5.2033,-2.7252,2.4851,13.654612,-7.231025,2.6128976,-1
472,473,1583586233146,4.9165,-2.7475998,1.6644,13.537726000000001,-7.031492699999999,1.6025829,-1
473,474,1583586233156,4.7191997,-2.7666,0.85459995,13.380408,-6.8957224,1.0144712,-1
474,475,1583586233166,4.4140997,-2.8237997999999997,0.1787,13.052603999999999,-7.0066314,0.56127745,-1
475,476,1583586233177,4.0392,-3.1590998,-0.0942,12.86439,-6.994535400000001,0.8554866,-1
476,477,1583586233187,3.7508,-3.3838,0.2889,12.730699000000001,-6.4560319999999995,1.4116501000000001,-1
477,478,1583586233197,3.5109,-3.1083,0.96239996,11.805139,-6.132182599999999,1.9281464,-1
478,479,1583586233208,2.4893,-3.0584,1.6041,11.49575,-6.109906700000001,2.0673451000000003,-1
479,480,1583586233219,-0.8458,-3.0038998,2.7619998,8.394252999999999,-5.382376,2.799023,-1
480,481,1583586233229,-0.8458,-3.0038998,2.7619998,7.501647,-4.8147397000000005,2.3200388,-1
481,482,1583586233239,-2.0629,-2.5990999,2.3327,6.694953999999999,-4.052464,1.2016498,-1
482,483,1583586233249,-3.4266998999999996,-1.64,0.2796,6.139058599999999,-3.1164557999999998,-0.2648083,-1
483,484,1583586233259,-3.5867998999999995,-1.3068,-0.4073,6.178984,-2.7458047999999997,-0.7422025,-1
484,485,1583586233269,-3.5867998999999995,-1.3068,-0.4073,6.912586699999999,-2.5233066,-0.8814396999999999,-1
485,486,1583586233279,-2.3751,-0.97639996,-0.4258,7.3868017,-1.9912096999999997,-0.82511854,-1
486,487,1583586233289,-2.3751,-0.97639996,-0.4258,6.672573,-1.4856691,-0.5840607,-1
487,488,1583586233299,-4.3807,-0.65459996,-0.0574,5.054140599999999,-1.4561726000000002,-0.7384676,-1
488,489,1583586233309,-5.8877,-0.9305,-0.2136,3.4253267999999997,-1.5834483999999998,-1.0267487,-1
489,490,1583586233320,-7.1944,-1.1119,-0.3579,2.3102036,-1.5313027,-1.2187348999999998,-1
490,491,1583586233330,-7.8013997,-0.98249996,-0.41239998,1.9162233,-1.091756,-1.2710721,-1
491,492,1583586233340,-7.7393,-0.48889998,-0.259,2.1075678,-0.56577855,-1.182592,-1
492,493,1583586233350,-7.2249,0.06399999599999999,-0.19119999,2.6979012000000004,0.057623647,-1.3628083,-1
493,494,1583586233360,-6.9354997,0.0815,-0.71639997,2.8595867000000004,-0.09531795,-2.0983262000000003,-1
494,495,1583586233371,-6.8025,-0.17109999,-1.5959999999999999,3.013687,-0.23124158,-2.9392272999999998,-1
495,496,1583586233381,-6.473099700000001,-0.1909,-2.8492,3.3747232000000005,-0.19131587,-4.5193048,-1
496,497,1583586233391,-6.1334,-0.0546,-3.7681,3.789533,0.043449975999999994,-4.945865,-1
497,498,1583586233401,-5.7528996,0.024999999,-3.3051,3.9536412000000003,-0.026929982,-4.0797099999999995,-1
498,499,1583586233411,-5.9493,-0.2775,-2.2856998,3.409506,-0.4516709,-2.6809887999999997,-1
499,500,1583586233421,-6.576699700000001,-0.70489997,-0.6012,2.891104,-0.5928235,-1.3564972,-1
500,501,1583586233432,-7.2233996,-0.7959,1.0119,2.152263,-0.6532532,0.10295068,-1
501,502,1583586233442,-7.9979,-0.9414,2.3360999,1.3941245,-0.7334109999999999,1.1596746,-1
502,503,1583586233452,-8.390699,-1.0108,2.5980000000000003,1.3642257,-0.75761163,0.62173593,-1
503,504,1583586233462,-7.9244,-1.0329,1.1838,2.5407363999999997,-0.8864004999999999,-1.8575941000000002,-1
504,505,1583586233472,-6.4719996,-1.0776,-1.2246,4.3031373,-0.9551523999999999,-4.257561,-1
505,506,1583586233482,-4.6688,-1.0329,-3.4124,6.012185,-1.0818632,-5.987707,-1
506,507,1583586233492,-3.0904999,-1.2038,-4.7282,7.3122177,-1.4237456,-6.3561554000000005,-1
507,508,1583586233502,-2.0286999,-1.4912,-4.3115,7.8442855,-1.7317452000000002,-5.3509736,-1
508,509,1583586233512,-1.8058,-1.9939,-2.5068,7.799227,-2.3637377999999996,-3.3048027,-1
509,510,1583586233522,-2.0114,-2.4338999,-0.2633,7.467314,-2.5209507999999996,-1.0942651,-1
510,511,1583586233533,-2.3047,-2.2391999,1.0209,7.172961,-2.019471,-0.8210675,-1
511,512,1583586233543,-2.58,-1.6435,0.7654,6.894937,-1.4347876,-1.5058761999999999,-1
512,513,1583586233553,-2.9061,-1.1479,0.07719999599999999,6.6277056,-1.216561,-2.1094162,-1
513,514,1583586233563,-2.9482,-1.1307,-0.5161,7.048386,-1.5183548999999998,-2.5611541,-1
514,515,1583586233574,-2.1461,-1.5102999,-0.60749996,8.522295,-1.8966196,-2.7036092000000003,-1
515,516,1583586233583,-0.8341,-1.6909,-0.79999995,9.476595,-1.8906341,-3.192103,-1
516,517,1583586233593,0.2311,-1.6019999999999999,-1.4918,10.285347,-1.8251191000000002,-3.8906927000000002,-1
517,518,1583586233603,0.90169996,-1.4117998999999999,-2.0392,10.694017,-1.2961441,-4.224454,-1
518,519,1583586233614,1.0800999,-0.8639,-2.2013,10.355412,-0.92167187,-4.102176999999999,-1
519,520,1583586233624,0.621,-0.4922,-1.9491999,9.584105000000001,-0.6918572,-3.1484041,-1
520,521,1583586233634,-0.17909999,-0.3249,-0.821,8.957849000000001,-0.6126954000000001,-2.1667428,-1
521,522,1583586233644,-0.8491,-0.2729,0.34,8.725438,-0.5176456,-1.1994183999999999,-1
522,523,1583586233655,-0.792,-0.175,0.9571,9.261816,-0.3636601,-1.5003886999999998,-1
523,524,1583586233665,-0.1665,-0.0223,0.53929996,9.876024000000001,-0.3108344,-2.1345172000000003,-1
524,525,1583586233675,0.4078,0.017199999,-0.0958,10.190623,-0.32502726,-3.1040058,-1
525,526,1583586233685,0.6665,0.0347,-1.2017,10.475906,-0.33558092,-4.454556,d
526,527,1583586233696,0.9932,0.051999997,-2.4678,10.838044,-0.36794093,-5.053298000000001,-1
527,528,1583586233706,1.3600999,0.0605,-2.7969999999999997,11.157574,-0.31643686,-4.500649,-1
528,529,1583586233716,1.6227,0.0817,-2.0389,11.205285,-0.28061959999999997,-3.2892593999999997,-1
529,530,1583586233726,1.6938,0.123799995,-0.7683,11.0697155,-0.27676973,-2.8280787,-1
530,531,1583586233736,1.5429,0.0963,-0.4544,10.755683,-0.26236620000000005,-3.457524,-1
531,532,1583586233746,1.1661999,0.0863,-1.2415999,10.349903999999999,-0.20020314,-4.986088,-1
532,533,1583586233757,0.856,0.121999994,-2.4816,10.266067999999999,-0.40657377,-6.0922856,-1
533,534,1583586233767,0.7768,-0.1073,-3.5635998,10.311099,-0.81139493,-6.896527000000001,-1
534,535,1583586233777,0.8315,-0.5146,-4.3462,10.813623,-1.3902458,-7.5817947,-1
535,536,1583586233787,1.3439,-1.0939,-5.0136,11.244061,-1.8659642,-7.919473,-1
536,537,1583586233798,1.8627,-1.6566,-5.4188,11.508257,-2.3360322,-8.145992999999999,-1
537,538,1583586233808,2.026,-2.0541,-5.5964,11.093035,-2.6432943,-8.84828,-1
538,539,1583586233818,1.7182,-2.3501,-6.0881996,10.533338,-2.8749862,-10.010789,-1
539,540,1583586233828,0.456,-2.9766,-8.9206,9.868861,-3.1572816,-11.648912,-1
540,541,1583586233838,0.1594,-3.3502,-10.005899000000001,9.632113,-3.5053123999999998,-12.795867999999999,-1
541,542,1583586233848,0.2456,-3.8411998999999994,-11.0231,9.799305,-3.8688288,-13.513104,-1
542,543,1583586233859,0.3706,-3.9246998,-10.0344,9.7994,-3.813475,-12.180903,-1
543,544,1583586233869,-0.3478,-4.0552,-8.2671995,8.910452000000001,-3.8558812000000007,-10.383567,-1
544,545,1583586233879,-1.9217,-4.1281,-6.6721,7.192048,-3.8011496,-8.861381,-1
545,546,1583586233890,-1.9217,-4.1281,-6.6721,5.333544,-3.986499,-8.0155,-1
546,547,1583586233900,-5.2021,-4.7830997,-5.264199700000001,4.2102512999999995,-4.2672143,-7.527417999999999,-1
547,548,1583586233910,-5.2546,-4.8726,-5.4428997,4.503982,-4.096096,-7.808076400000001,-1
548,549,1583586233921,-4.7629,-4.5027,-6.0018,4.889247,-3.5994525,-8.044977000000001,-1
549,550,1583586233931,-4.9193,-4.1194,-5.7247,4.4628496,-3.2385314,-6.9101740000000005,-1
550,551,1583586233941,-5.6124,-3.8992998999999995,-3.8363,3.7450870000000003,-2.9296026,-4.5351443,-1
551,552,1583586233951,-6.2327,-3.4678,-1.4555,3.2996504,-2.4774241000000004,-2.4944327,-1
552,553,1583586233961,-7.0059,-3.2695,1.0381,2.3138812,-2.1799016,0.89352566,-1
553,554,1583586233971,-8.089499,-2.8695,3.7342,1.0236458000000002,-1.6283636000000001,3.2706997,-1
554,555,1583586233982,-9.494599000000001,-2.4652,4.7795,-0.22103270000000003,-1.2916527,3.8116746,-1
555,556,1583586233992,-10.2528,-2.0465,4.6067,-0.543886,-0.672991,3.5637116,-1
556,557,1583586234002,-9.8941,-1.2242,3.9232,0.19002299,0.19671719,3.0610635,-1
557,558,1583586234012,-8.8499,-0.3435,4.0698,1.6652726000000002,1.2606429,4.702394,-1
558,559,1583586234023,-7.6777997000000004,0.5974,6.2633,2.6174946,1.9872736,8.053127,-1
559,560,1583586234033,-6.915899799999999,1.2171999,10.0873995,2.7758182999999996,2.2316356,12.748272,-1
560,561,1583586234043,-7.1222,1.3641,14.8917,2.3730946,2.2390573,17.724438,-1
561,562,1583586234053,-7.6984,1.4653,19.167799,1.7671218999999998,2.096526,20.781517,-1
562,563,1583586234063,-8.0662,1.3407999,21.0634,1.9829258,1.8156381000000001,21.658352,-1
563,564,1583586234074,-7.5200996,1.2922,21.2896,3.1049634999999998,1.8227153000000003,21.566423,-1
564,565,1583586234084,-6.0009,1.4983,20.912198999999998,4.89145,1.8949148999999998,21.430817,-1
565,566,1583586234094,-4.1355,1.7364,20.7999,7.125603999999999,1.7288626,21.444262,-1
566,567,1583586234104,-2.3736,1.7102,20.6407,8.293667999999998,0.9398008,21.144737,-1
567,568,1583586234114,-1.3090000000000002,0.9946,20.3507,8.963652,0.0112240175,21.097685000000002,-1
568,569,1583586234124,-0.7438,0.2784,20.265999,9.376307,-1.0114927,20.769356,-1
569,570,1583586234135,-0.2963,-0.5846,19.9062,10.075528,-1.9236741000000002,19.820322,-1
570,571,1583586234145,0.4755,-1.2962999,18.8416,10.780764999999999,-2.8104384,17.970724,-1
571,572,1583586234155,1.1510999,-2.0883,16.989199,11.44369,-4.1057878,15.649412,-1
572,573,1583586234165,1.8586999,-3.2456,14.631599,12.29866,-5.2943940000000005,12.566849000000001,-1
573,574,1583586234175,2.7559,-4.2018,11.6535,13.148793,-6.346712999999999,9.537082,-1
574,575,1583586234185,3.5781,-5.1356,8.7705,13.754593,-7.6025386,6.4485717000000005,-1
575,576,1583586234196,4.2077,-6.2750998,5.8806996,14.638292999999999,-8.617949000000001,3.7444260000000003,-1
576,577,1583586234206,5.1843,-6.9624,3.4787,15.57593,-8.713046,1.96744,-1
577,578,1583586234216,6.0368,-6.8258996,2.1543999,15.384585000000001,-8.443373,1.4364061000000001,-1
578,579,1583586234226,5.5168,-6.4024997,1.9210999,12.921783999999999,-8.107782,0.98617166,-1
579,580,1583586234236,3.3472998,-6.0561,1.6377,10.846184,-8.441122,-0.50468814,-1
580,581,1583586234246,1.2940999,-6.3054,0.2755,10.627383,-9.150677,-3.6946077000000006,-1
581,582,1583586234256,1.1069,-6.9177,-2.8272,12.452943,-9.790408,-7.998376400000001,-1
582,583,1583586234266,2.9663,-7.4563,-7.0432,14.733697,-10.131869,-11.955896000000001,-1
583,584,1583586234277,5.2844996,-7.6783,-10.856999,15.687710000000001,-9.918096,-14.16109,-1
584,585,1583586234287,6.3216996,-7.3136997,-12.7855,15.055334,-9.8348055,-14.255861999999999,-1
585,586,1583586234297,5.7118998,-7.2023997,-12.8076,12.869256,-9.4394655,-12.972263,-1
586,587,1583586234307,3.5479998999999998,-6.7935996,-11.3512,10.229639,-8.618982,-12.485914999999999,-1
587,588,1583586234317,0.9284,-5.9809,-10.741,8.501542,-7.851679300000001,-14.559687,-1
588,589,1583586234327,-0.7883,-5.2313,-12.7493,8.529009,-7.396062400000001,-17.754652,-1
589,590,1583586234338,-0.74909997,-4.7823997,-15.8838,9.97568,-7.120911,-20.322474,-1
590,591,1583586234348,0.7068,-4.4958,-18.4084,11.258954,-6.868917,-21.273937,-1
591,592,1583586234358,2.0096,-4.1568,-18.92,11.093217999999998,-6.7541194,-20.859653,-1
592,593,1583586234368,0.9229999999999999,-3.8916,-18.076,9.858652000000001,-6.3261514000000005,-19.991997,-1
593,594,1583586234378,-0.7227,-3.2445998,-16.7728,8.1626,-5.629438400000001,-18.669544000000002,-1
594,595,1583586234389,-2.5527,-2.9187999,-15.2814,6.3763533,-5.2318096,-17.207253,-1
595,596,1583586234399,-4.0056,-2.5353,-13.7771,5.045617,-4.7363343,-15.778144000000001,-1
596,597,1583586234409,-4.9216,-2.2467,-12.956699,4.267453700000001,-4.417628,-15.102174,-1
597,598,1583586234419,-5.2690997,-2.2028,-12.5338,4.056592,-4.343905400000001,-14.574079999999999,-1
598,599,1583586234429,-5.0074997,-2.1994998,-11.5681,4.453703400000001,-4.309793,-13.399149,-1
599,600,1583586234440,-4.5288997,-2.2147,-9.8841,4.9108524000000005,-4.247237,-11.598212,-1
600,601,1583586234450,-4.4702997,-2.1492999,-8.5307,4.8242683,-4.2025037,-10.230433,-1
601,602,1583586234460,-4.9308,-2.3411,-7.8215,4.277710400000001,-4.409258,-9.534631,-1
602,603,1583586234470,-5.361000000000001,-2.5247998,-7.245899700000001,3.9935765,-4.5253377,-8.855051,-1
603,604,1583586234480,-5.4764,-2.6378999,-6.3561997,3.9876292,-4.6082925999999995,-7.7970915,-1
604,605,1583586234490,-5.4733,-2.9243999,-4.8202,3.9097120000000003,-4.97585,-5.899925700000001,-1
605,606,1583586234501,-5.8033,-3.3063,-3.0525,3.5018358,-5.219197,-4.0897946,-1
606,607,1583586234511,-6.3093,-3.3801,-1.4944998999999999,2.9276299999999997,-5.2064023,-2.7196026,-1
607,608,1583586234521,-6.9804997,-3.4155998,-0.64669997,2.3066218,-5.30128,-2.0251787,-1
608,609,1583586234531,-7.4238,-3.4571,0.0103,2.0902817,-5.249670500000001,-1.3638426000000001,-1
609,610,1583586234541,-7.353399799999999,-3.1971,0.75509995,2.3549273,-4.972881299999999,-0.44481394,-1
610,611,1583586234552,-6.8188,-3.1345,1.4064,2.8742582999999997,-5.0373526,0.20608331,-1
611,612,1583586234562,-6.0264997000000005,-3.1065,2.5319,3.7877324,-5.005595700000001,1.9013505000000002,-1
612,613,1583586234572,-5.5269,-2.9438,4.1017,3.9318347,-4.8443413,3.3440008000000003,-1
613,614,1583586234582,-5.7623997000000005,-2.7602,4.5250998,3.4460892999999997,-4.7406154,3.5594692,-1
614,615,1583586234592,-6.3203998,-2.6352,4.8293,2.8713086,-4.6767764000000005,4.361527,-1
615,616,1583586234602,-6.8261,-2.4301,5.883899700000001,2.5863509999999996,-4.396616000000001,6.2431779999999995,-1
616,617,1583586234613,-6.9744997,-1.9738,8.2921,2.5674942,-3.9121733,8.783866,-1
617,618,1583586234623,-6.9610996,-1.0837,11.781799000000001,2.4913967,-2.9306464,12.760118499999999,-1
618,619,1583586234633,-7.0113997,-0.33159998,14.400499,2.5592005,-2.5035017,14.492447,-1
619,620,1583586234643,-6.8294997,0.036000000000000004,15.533999,2.8835862,-2.616489,15.173214999999999,-1
620,621,1583586234654,-6.3338,-0.22209999,15.9189,3.4677906000000003,-3.4352486000000004,15.393117000000002,-1
621,622,1583586234664,-5.5621,-0.95309997,15.8094,4.4977089999999995,-4.187056500000001,15.230226000000002,-1
622,623,1583586234674,-4.3775997,-1.2843,15.528198999999999,5.9094357,-4.400648,15.450004000000002,-1
623,624,1583586234684,-3.1259,-1.1103,15.8243,6.8449364,-4.1032114,16.298738,-1
624,625,1583586234694,-2.2618,-0.618,16.539299,7.160904400000001,-3.9900519999999995,16.70715,-1
625,626,1583586234704,-1.9058,-0.37129998,16.834,7.343457000000001,-4.088664499999999,17.163898,-1
626,627,1583586234715,-1.6947,-0.3373,17.2906,7.172492,-4.6830297,17.522683999999998,-1
627,628,1583586234725,-1.8409,-0.86939996,17.5403,7.075564999999999,-5.5567985,17.031757,-1
628,629,1583586234735,-1.7718999,-1.5292,16.735899,7.372685400000001,-6.452115,15.227085,-1
629,630,1583586234745,-1.2774,-2.2509,14.6751995,8.253148,-7.402555499999999,12.93229,-1
630,631,1583586234755,-0.1698,-2.9784,12.3032,9.651621,-8.404548,10.819386999999999,-1
631,632,1583586234766,1.4496,-3.7303998,10.1037,11.361692999999999,-9.116104,8.722631,-1
632,633,1583586234776,3.2893999,-4.157099700000001,7.8982,12.920702,-9.498316,7.0264745,-1
633,634,1583586234786,4.8901,-4.2497,6.377000000000001,13.620643,-9.513677000000001,6.707624000000001,-1
634,635,1583586234796,5.5087,-4.0836997,6.268399700000001,13.141429,-9.654388,7.2413490000000005,-1
635,636,1583586234806,4.8676,-4.1019998,6.7748,11.337769999999999,-10.045688,7.9172993,-1
636,637,1583586234816,3.3818,-4.3188,7.2662997,9.71138,-10.743885,7.656905999999999,-1
637,638,1583586234826,1.8539,-4.9003997,6.9350996,8.933035,-11.065675,6.1819725,-1
638,639,1583586234836,1.1651,-5.1123,5.337999999999999,9.222465,-11.469222,4.126282,-1
639,640,1583586234846,1.5651,-5.4003,3.1334,10.122876,-11.858797000000001,1.9050183999999997,-1
640,641,1583586234856,2.8845,-5.7851,0.1616,12.124869,-12.153944000000001,-1.7426915,-1
641,642,1583586234866,4.6914,-5.8707,-2.9661999,13.291401,-12.070588,-3.1730258,-1
642,643,1583586234877,5.9442997,-5.6840997,-4.4732,13.02394,-12.240807,-2.254658,-1
643,644,1583586234887,5.7518,-5.7806,-3.5623,10.9487705,-12.302826,0.24193887,-1
644,645,1583586234897,2.1959999,-5.6966,-0.47149998,9.108367,-12.309280000000001,0.6571413,-1
645,646,1583586234907,1.6697999,-5.9722,-2.6459,8.967913000000001,-12.574069,-2.1079988,-1
646,647,1583586234917,1.6697999,-5.9722,-2.6459,10.157305000000001,-12.420361999999999,-5.626182599999999,-1
647,648,1583586234928,3.0414,-5.7964997,-7.0202,11.928947,-12.017752999999999,-8.764799,-1
648,649,1583586234938,5.7763,-4.9256997,-10.8826,12.852697000000001,-11.489075999999999,-9.299808,-1
649,650,1583586234948,5.2676,-4.4498997000000005,-9.786699,12.069352,-11.034771000000001,-8.043292,-1
650,651,1583586234958,3.7812997999999998,-3.8614,-8.246699000000001,10.529803999999999,-10.382139,-6.56922,-1
651,652,1583586234968,2.2988,-3.1348,-7.2465997,9.149624000000001,-9.629249,-5.725398,-1
652,653,1583586234978,2.2988,-3.1348,-7.2465997,8.392586999999999,-9.25155,-5.5464269999999996,-1
653,654,1583586234988,1.1017,-2.3097,-7.4298,8.276774000000001,-8.819271,-6.1319237,-1
654,655,1583586234998,1.1017,-2.3097,-7.4298,8.642379,-8.504692,-6.7230716,-1
655,656,1583586235008,1.9668,-1.7005,-9.0314,9.17822,-8.226275999999999,-7.677075,-1
656,657,1583586235018,2.1445,-1.4832,-9.012199,9.266154,-8.036665,-7.366757400000001,-1
657,658,1583586235028,2.1445,-1.4832,-9.012199,8.867549,-8.003021,-6.043980599999999,-1
658,659,1583586235038,0.6964,-1.3633,-5.3237,7.693355599999999,-7.8259077,-3.5670349999999997,-1
659,660,1583586235049,-0.4592,-1.1944,-3.6517,6.554079,-7.610583,-2.0167317,-1
660,661,1583586235059,-1.6882,-1.0346999,-2.4924,5.4170346,-7.424850500000001,-0.96153057,-1
661,662,1583586235070,-2.2877998,-0.9755,-2.0849,5.017777400000001,-7.3713546,-0.7280289000000001,-1
662,663,1583586235080,-1.9691,-0.9912,-2.4143999,5.754186,-7.374227499999999,-1.1211376,-1
663,664,1583586235090,-0.8638,-0.96459997,-2.6682,6.935016,-7.321822999999999,-1.1507586,-1
664,665,1583586235100,0.20709999,-0.94079995,-2.5802,7.724719,-7.3324050000000005,-1.0262314000000001,-1
665,666,1583586235110,0.46379998,-0.9501,-2.4886,7.7154493,-7.3338804,-0.92878747,-1
666,667,1583586235120,0.0036,-1.0451,-2.1592999,7.0715523000000005,-7.49931,-0.47529694,-1
667,668,1583586235131,-0.50299996,-1.1262,-1.6616,6.7276783,-7.4038386,0.05269159,-1
668,669,1583586235141,-0.66819996,-0.8563,-1.0552,6.665831,-7.103720699999999,0.63080513,d
669,670,1583586235151,-0.7635,-0.63549995,-0.5825,6.531526,-6.8966417,0.9272073000000001,-1
670,671,1583586235161,-0.96419996,-0.4831,-0.4933,6.3589325,-6.7317100000000005,0.9879817,-1
671,672,1583586235171,-1.0819,-0.2791,-0.3083,6.3591914,-6.5342839999999995,1.1746528,-1
672,673,1583586235182,-0.91889995,-0.23709999,-0.3788,6.7321506,-6.5778490000000005,0.8197171999999998,-1
673,674,1583586235192,-0.43649998,-0.3074,-0.8566,7.343466800000001,-6.647683,0.3001371,-1
674,675,1583586235202,0.2243,-0.41329998,-1.3384,7.969512,-6.880859,0.024258051,-1
675,676,1583586235212,0.7945,-0.70519996,-1.3749,8.312084,-7.1174539999999995,0.3529724,-1
676,677,1583586235222,0.9468,-0.9026,-0.84679997,8.165358,-7.357267,1.0846596000000002,-1
677,678,1583586235232,0.593,-1.1557,0.025999999,7.680896000000001,-7.5492625,1.9686468000000001,-1
678,679,1583586235243,0.070599996,-1.2958,0.7213,7.354949,-7.6347647,2.1655076,-1
679,680,1583586235252,-0.0357,-1.4264,0.63909996,7.5707436,-7.8493133,2.0019164000000003,-1
680,681,1583586235262,0.32569999,-1.7105,0.52639997,8.130412,-8.176428999999999,1.8241901000000003,-1
681,682,1583586235272,1.0461999,-2.0205,0.066599995,9.021314,-8.311825,1.101352,-1
682,683,1583586235282,1.9747,-2.0648,-0.7313,9.864016000000001,-8.42805,0.6244748999999999,-1
683,684,1583586235293,1.9747,-2.0648,-0.7313,10.464711,-8.709311,0.30467653,-1
684,685,1583586235304,3.5512,-2.8437997999999998,-1.7521,11.763183,-9.682363,-0.90637773,-1
685,686,1583586235314,4.5765,-3.6030998,-2.7947,12.90445,-10.2874155,-1.7525172999999998,-1
686,687,1583586235324,5.7316,-4.1527,-3.5317998,14.105870000000001,-10.530676,-1.9662813000000001,-1
687,688,1583586235334,6.8647,-4.4073997,-3.6504,14.816106,-10.796365,-1.6696971999999999,-1
688,689,1583586235344,7.3931,-4.6865,-3.1801999,14.879504,-10.855234,-0.90088063,-1
689,690,1583586235354,7.2395997,-4.8247,-2.188,14.525727,-10.935296000000001,-0.115946405,-1
690,691,1583586235365,6.8908997,-4.9462,-1.6775,14.641692,-10.925968,0.035817258,-1
691,692,1583586235375,7.0789,-4.986000000000001,-1.5834999,15.327727,-10.740993,-0.21242316,-1
692,693,1583586235385,7.7664,-4.8721,-1.8834,16.119308,-10.544437,-0.7548822,-1
693,694,1583586235395,8.4204,-4.7745,-2.4243,16.537794,-10.453439,-1.3911556,-1
694,695,1583586235405,8.6923,-4.7864,-3.0084999,16.647804,-10.474853,-1.8899254,-1
695,696,1583586235416,8.6781,-4.94,-3.4041997999999998,16.732654999999998,-10.257181,-2.1106515,-1
696,697,1583586235426,8.6529,-4.8540998,-3.4534998,16.652592000000002,-10.009516,-1.8809806,-1
697,698,1583586235436,8.401999,-4.6864,-2.9582,16.005114000000003,-9.751267,-0.53240347,-1
698,699,1583586235446,7.6823997,-4.6638,-1.6294,15.202089,-9.497069999999999,0.64822537,-1
699,700,1583586235456,6.5171,-4.5031,-0.090399995,13.948552,-9.163059,1.5687193000000001,-1
700,701,1583586235467,5.127000000000001,-4.3782997,0.8129,12.818374,-8.48802,2.271676,-1
701,702,1583586235477,4.1229997,-3.9910997999999998,1.5066998999999999,12.396583,-7.6331169999999995,2.755793,-1
702,703,1583586235488,3.3453998999999994,-2.6618,2.0851,12.220024,-6.5598927,2.639665,-1
703,704,1583586235498,3.0202,-2.2515,1.9225999,11.990641,-5.9421597,2.4513272999999995,-1
704,705,1583586235508,3.0202,-2.2515,1.9225999,11.537006,-5.4751463,2.6231258,-1
705,706,1583586235518,2.3929,-1.9028,2.2263,10.504254,-5.1400255999999995,3.3964818,-1
706,707,1583586235528,1.2597,-1.8326,3.1575,9.495108,-4.7060237,4.3701077,-1
707,708,1583586235538,-0.4809,-1.122,5.0587,8.840618,-3.703131,5.0352554000000005,-1
708,709,1583586235549,-1.0353,-0.74579996,5.4670997,8.3578615,-3.145502,5.180842,-1
709,710,1583586235559,-1.0353,-0.74579996,5.4670997,7.8960295,-2.9636292,4.8117323,-1
710,711,1583586235569,-2.3685,-0.86079997,4.732199700000001,7.093895,-2.7625928,4.1685156999999995,-1
711,712,1583586235579,-3.2278,-0.90569997,4.7263,6.2514234,-2.3890302000000005,3.9837887000000003,-1
712,713,1583586235589,-4.1679,-0.30719998,3.9299,5.359325,-1.4381491000000002,2.9620488,-1
713,714,1583586235599,-5.0523,0.45889997,2.7457,4.3800483,-0.2954445,1.682463,-1
714,715,1583586235609,-6.0669,1.199,1.7994,3.4162673999999997,0.61507046,0.93325984,-1
715,716,1583586235620,-6.9758997,1.5324999,1.5604,2.4818868999999997,1.0341036,0.86286074,-1
716,717,1583586235630,-7.593,1.3442,1.7587,2.1064665000000002,0.8800894,1.2528761999999998,-1
717,718,1583586235640,-7.6046,0.85069996,2.6894,2.305559,0.5677227,2.4109323,-1
718,719,1583586235650,-7.2079997,0.2285,4.091,2.7741327,0.05266286,3.6959674,-1
719,720,1583586235660,-6.6512,-0.3387,5.2156,3.2153937999999997,-0.2390754,4.4474883,-1
720,721,1583586235670,-6.4571,-0.64879996,5.8824997,3.0917764,-0.3168678,5.007520700000001,-1
721,722,1583586235680,-7.2558,-0.7736,5.7806,2.0454624,-0.3587759,4.4127529999999995,-1
722,723,1583586235690,-8.361,-1.0421,4.3736,1.2337513,-0.45298296,3.088434,-1
723,724,1583586235700,-8.8011,-1.0351,2.5400999,1.0516386999999998,-0.23251529,1.1210129999999998,-1
724,725,1583586235710,-8.2706995,-0.9536,1.1976,1.9224386000000002,-0.19205329,0.031478964,-1
725,726,1583586235720,-7.0137,-1.0653,0.2607,3.2822974,-0.14149731,-0.8072003000000001,-1
726,727,1583586235730,-5.5393,-0.867,-0.3196,4.942753,0.16707696,-1.0548948999999999,-1
727,728,1583586235741,-3.7098,-0.5846,-0.0642,6.70205,0.50550216,-0.55941004,-1
728,729,1583586235751,-2.231,-0.3296,0.8752,7.6626906,0.67323035,0.40554905,-1
729,730,1583586235762,-2.4268,-0.53529996,1.8118,6.669049,0.3404459,1.4008187,-1
730,731,1583586235772,-4.2978997,-1.155,2.7015,4.668980599999999,-0.16929879999999997,2.0644337999999998,-1
731,732,1583586235782,-5.8167,-1.4554,2.9283,3.6995587,0.04012682,1.9076233,-1
732,733,1583586235792,-5.8199,-0.9921,2.4074,4.304449,0.8241896000000001,1.0049422,-1
733,734,1583586235802,-5.0527,-0.259,1.2663,5.0776324,1.4987607,-0.10893618,-1
734,735,1583586235813,-4.3066,0.3041,0.2565,5.7839602999999995,1.9509968,-0.75911516,-1
735,736,1583586235823,-3.5897,0.583,-0.2043,6.607757,2.0269887,-0.97533077,-1
736,737,1583586235833,-2.7735,0.52349997,-0.3926,7.2995470000000005,1.8717486,-1.03328,-1
737,738,1583586235843,-2.1813,0.3066,-0.34329998,7.818581599999999,1.6932943,-0.7870124,-1
738,739,1583586235853,-1.6468999,0.12529999,0.1339,8.296388,1.6188825,-0.08842266,-1
739,740,1583586235863,-1.318,0.058799997,0.83449996,8.33232,1.4566706,0.6252601,-1
740,741,1583586235874,-1.4010999,-0.147,1.3709999,8.116439999999999,1.3786386999999998,0.7546811,-1
741,742,1583586235884,-1.8966,-0.3031,1.214,7.374122,1.1737909,0.09058701,-1
742,743,1583586235894,-2.4721,-0.5026,0.38959998,7.162014999999999,1.2054517,-0.78258795,-1
743,744,1583586235904,-2.3339,-0.3089,-0.37219998,7.753124000000001,1.5477748,-1.308096,-1
744,745,1583586235914,-1.5706999,0.0074,-0.76409996,8.764646,1.7862468,-1.4584998,-1
745,746,1583586235924,-0.76989996,0.1775,-0.83129996,9.24973,1.7501997,-1.4187081,-1
746,747,1583586235934,-0.371,0.0953,-0.7811,9.4525385,1.5356505,-1.289881,-1
747,748,1583586235945,-0.18679999,-0.0971,-0.6425,9.627400999999999,1.2716371000000002,-1.097071,-1
748,749,1583586235955,0.0083,-0.35259998,-0.4463,9.815891,1.0605738,-0.9666636999999999,-1
749,750,1583586235965,0.2245,-0.6128,-0.2719,9.868411,0.79173374,-0.88901496,-1
750,751,1583586235975,0.1573,-0.8103,-0.214,9.762166,0.7248206,-0.82373947,-1
751,752,1583586235986,0.1006,-0.84669995,-0.141,9.703978,0.8886318999999999,-0.96010363,-1
752,753,1583586235996,0.0242,-0.6714,-0.3326,9.6001835,1.125744,-1.0702943,-1
753,754,1583586236006,-0.101799995,-0.4263,-0.3757,9.440116999999999,1.4372871,-0.8726578000000002,-1
754,755,1583586236016,-0.2279,-0.1715,-0.203,9.403054,1.6226846000000001,-0.75822455,-1
755,756,1583586236026,-0.2564,0.0084999995,-0.0962,9.481641999999999,1.6144294,-0.6007818,-1
756,757,1583586236036,-0.1478,-0.0025,0.1063,9.699017,1.5397493999999998,-0.677674,-1
757,758,1583586236047,0.107499994,-0.1073,-0.0654,10.142978999999999,1.4463181,-1.0784633999999997,-1
758,759,1583586236057,0.49049997,-0.16129999,-0.3705,10.396083,1.6264386999999998,-1.1205151000000002,-1
759,760,1583586236067,0.7366,0.0169,-0.4033,10.304913,1.7133863999999999,-1.1624709999999998,d
760,761,1583586236078,0.6497,0.0907,-0.4341,9.948454,1.8844187,-1.2376107,-1
761,762,1583586236088,0.28849998,0.2563,-0.5045,9.480406,2.0040236,-1.1502416000000002,-1
762,763,1583586236098,-0.0823,0.3694,-0.4353,9.130575,2.0037458,-1.0033716000000001,-1
763,764,1583586236108,-0.67719996,0.3811,-0.2101,8.943349000000001,2.0496092,-0.89578575,-1
764,765,1583586236119,-0.7349,0.39299998,-0.0254,8.912014,2.0925993999999997,-0.6538661,-1
765,766,1583586236129,-0.6651,0.4973,0.51089996,8.999996000000001,2.1912787000000002,-0.04277002,-1
766,767,1583586236139,-0.5463,0.5661,1.2027999,9.123756,2.2258317,0.5974491,-1
767,768,1583586236149,-0.48659998,0.3821,1.5827,9.17143,2.032409,0.89290315,-1
768,769,1583586236160,-0.5251,0.3743,1.4599999,9.108203999999999,2.059933,0.46906242,-1
769,770,1583586236170,-0.6324,0.39479998,0.7527,8.978735,2.0709844,-0.17492995,-1
770,771,1583586236180,-0.8081,0.4121,0.0427,8.704293,2.1108333999999997,-0.8565495999999999,-1
771,772,1583586236190,-1.1295998999999999,0.4439,0.11229999,8.438402,2.1432126,-0.50048393,-1
772,773,1583586236200,-1.5768,0.4023,1.3003,7.822392999999999,2.0601819,1.2679213,-1
773,774,1583586236211,-2.2487,0.33859998,3.2194,7.0023884999999995,2.145061,3.1040153999999998,-1
774,775,1583586236221,-3.2747998,0.6688,5.0092,6.129836599999999,2.5092478,4.5786138,-1
775,776,1583586236231,-4.4901,1.367,7.2084,4.57011,3.4104733,7.252103999999999,-1
776,777,1583586236241,-5.954,1.8402,9.0736,3.1857152,3.5566633000000003,8.871035000000001,-1
777,778,1583586236251,-7.0298,1.6651,10.1732,2.3962703,3.223084,9.554119,-1
778,779,1583586236262,-7.3146,1.3557999,10.060599,2.4519594,2.8523178,8.997917999999999,-1
779,780,1583586236272,-6.9639997000000005,1.0015,9.057799000000001,2.8034953999999996,2.5079741,8.181714999999999,-1
780,781,1583586236282,-6.4557,0.74899995,8.9015,3.3908407999999994,2.1591868,8.632054,-1
781,782,1583586236292,-6.129699700000001,0.588,10.5479,3.4589896,1.7728488000000002,11.216021000000001,-1
782,783,1583586236303,-6.4063,0.19,13.070499,3.018533,1.2342589,12.89879,-1
783,784,1583586236313,-7.1396,-0.5185,14.6178,2.13445,0.24937047,13.655128,-1
784,785,1583586236324,-7.6949997,-1.1814,14.533098999999998,1.9651224999999999,-0.5377377,11.928238,-1
785,786,1583586236334,-7.624399700000001,-1.666,12.751699,2.671527,-1.0196618,9.402538,-1
786,787,1583586236344,-6.7983,-1.8966999,10.371699000000001,3.717228,-1.7785183,6.663197,-1
787,788,1583586236354,-5.7471,-2.6857998,7.6468997000000005,4.3882747,-2.7755406000000002,4.7211456,-1
788,789,1583586236364,-4.8759,-3.8327,5.388499700000001,5.726068499999999,-4.4865613,1.7737778000000002,-1
789,790,1583586236375,-3.6218,-4.8986,3.0807,7.3551693,-5.433928,-0.7654454,-1
790,791,1583586236385,-1.895,-5.4797,0.80039996,8.94786,-5.5981510000000005,-2.4331028,-1
791,792,1583586236395,-0.42159998,-5.2636,-0.45799997,9.478961,-5.5269957000000005,-3.072709,-1
792,793,1583586236405,-0.0985,-5.0924997,-0.8107,8.941185,-6.146921,-3.9240105000000005,-1
793,794,1583586236415,-0.6868,-5.6305,-1.8752999,8.284359,-7.264553500000001,-7.35923,-1
794,795,1583586236426,-1.1579,-6.5687,-5.7426996,8.930985,-8.335815,-12.465622,-1
795,796,1583586236436,-0.1266,-7.3441997,-10.789000000000001,10.997008000000001,-9.003157,-16.704039,-1
796,797,1583586236446,2.1724,-7.6752,-14.492,13.687891,-8.889527000000001,-18.514477,-1
797,798,1583586236456,4.421,-7.2704,-15.706698999999999,14.499495999999999,-8.425426,-18.29467,-1
798,799,1583586236466,5.2984,-6.4758997,-15.2998,13.404035,-7.8771152,-16.931019,-1
799,800,1583586236476,4.2139,-5.9012,-14.0868,10.792199,-8.175059,-17.029383,-1
800,801,1583586236487,1.617,-6.0873,-14.2093,9.358608,-8.791068,-18.500744,-1
801,802,1583586236497,0.0826,-6.7827,-16.1259,9.854238,-9.631453,-20.870333,-1
802,803,1583586236507,0.7048,-7.3128,-18.125999999999998,11.261138,-9.675362,-22.003653,-1
803,804,1583586236518,2.1315,-7.2408,-19.320798999999997,11.883688000000001,-9.685647,-22.582952,-1
804,805,1583586236528,2.76,-7.1447997,-19.9618,11.37877,-9.491008,-22.43619,-1
805,806,1583586236538,2.2724,-6.8732,-19.880299,10.240882000000001,-9.17866,-21.435966,-1
806,807,1583586236548,-0.41509998,-6.1972,-17.8088,8.39771,-8.820881,-20.018620000000002,-1
807,808,1583586236558,-1.9751999,-6.0719,-16.5791,6.9018803,-8.724988,-18.637625,-1
808,809,1583586236568,-3.2175,-5.9147,-15.092298999999999,5.8148456,-8.438335,-17.079507999999997,-1
809,810,1583586236578,-3.6604997999999997,-5.4776998,-13.7429,5.5463309999999995,-8.031857,-15.677175,-1
810,811,1583586236589,-3.5949998,-5.2181,-13.1544,5.667803299999999,-7.799887700000001,-15.171826000000001,-1
811,812,1583586236599,-3.5370998,-5.1682997,-12.896899000000001,5.7572985,-7.8650384,-14.553517999999999,-1
812,813,1583586236609,-3.6311,-5.6492,-11.2407,5.624209400000001,-8.368855,-12.516044,-1
813,814,1583586236619,-3.9649,-6.1464,-8.956699,5.255675,-8.842897,-10.174686,-1
814,815,1583586236629,-4.6294,-6.4126,-7.1749,4.560198000000001,-9.045668,-8.497615,-1
815,816,1583586236640,-5.3329,-6.6176996,-6.2632,3.9075095999999996,-9.258962,-7.583347,-1
816,817,1583586236650,-5.6245,-6.6573997,-5.138099700000001,3.7509574999999997,-9.205696000000001,-6.156153,-1
817,818,1583586236660,-5.4732,-6.3009996,-3.235,4.065843,-8.668897,-3.5913217000000004,-1
818,819,1583586236670,-5.1026998,-5.6245,-1.2901,4.5000553,-7.999420599999999,-1.5351716999999998,-1
819,820,1583586236681,-4.4811997,-4.9202,0.76909995,5.189212,-7.4698899999999995,0.89511544,-1
820,821,1583586236691,-4.0179,-4.8451,3.1829998,5.3789477,-7.8750944,3.6717381000000002,-1
821,822,1583586236701,-4.1931,-5.736799700000001,6.1651998,5.157992,-9.115233,7.125172599999999,-1
822,823,1583586236711,-3.9081,-6.8901,9.5619,6.0511823,-10.126237,10.52945,-1
823,824,1583586236721,-1.9470999,-7.2068,12.339499,8.489139999999999,-9.963346000000001,13.178605,-1
824,825,1583586236732,0.6759999999999999,-6.0105,14.408299,10.78834,-8.475714,15.009347,-1
825,826,1583586236742,2.2491,-4.4835997,15.4212,11.917244,-7.1649449999999995,15.980568,-1
826,827,1583586236752,2.9550998,-3.3586,16.4483,12.273664,-6.4463115,17.321635999999998,-1
827,828,1583586236762,3.0895,-3.063,17.2557,12.484699,-6.467189,18.271867999999998,-1
828,829,1583586236772,3.5282998,-3.0785,18.188,13.305382999999999,-6.403953,19.40781,-1
829,830,1583586236782,4.666,-2.8118,19.0833,14.356983,-6.127605,20.052406,-1
830,831,1583586236793,5.9802,-2.3941998,19.5733,15.698148999999999,-5.654664,20.742645,-1
831,832,1583586236803,6.8472,-1.9916999,19.911998999999998,16.158133,-5.337279,21.051182,-1
832,833,1583586236813,7.0952997,-1.6901,19.9707,16.142971,-5.032449199999999,20.652815,-1
833,834,1583586236823,6.9479999999999995,-1.3455,19.0598,15.9097,-4.583268,19.332335999999998,-1
834,835,1583586236833,6.77,-0.8569,17.5528,16.001665,-4.0042352999999995,17.249275,-1
835,836,1583586236844,6.9164,-0.514,15.6236,16.153584,-3.8615506,15.311179000000001,-1
836,837,1583586236854,7.015,-0.4436,13.137198999999999,16.029448000000002,-3.7715669000000003,12.936877,-1
837,838,1583586236864,6.6636,-0.4897,10.9376,15.566610999999998,-3.5573912000000005,10.709877,-1
838,839,1583586236874,6.2465997,-0.36679998,9.374,15.024304999999998,-3.3063733999999996,9.771274,-1
839,840,1583586236884,5.6096,-0.25759998,8.5602,14.371042000000001,-3.3339257000000004,8.756476,-1
840,841,1583586236894,4.9417,-0.4714,7.5200996,14.093085,-3.5344355000000003,7.180910000000001,-1
841,842,1583586236905,4.7065,-0.82549995,5.9076,14.157509,-3.7427404,5.1498227,-1
842,843,1583586236915,4.7581,-1.2093999,3.9180998999999996,14.315392000000001,-4.201479,3.1357627,-1
843,844,1583586236925,4.8996,-1.8506999,2.0347,14.743034,-4.4436193,1.537949,-1
844,845,1583586236936,5.3366,-2.1049,0.7083,15.290157,-4.2800474,1.1308773,-1
845,846,1583586236946,5.8044996,-2.0825,0.7190000000000001,15.324203500000001,-4.2044287,2.2537577,-1
846,847,1583586236956,5.6162,-2.2201,2.0953999,14.107528,-4.557382,2.7684345,-1
847,848,1583586236966,4.4686,-2.7333998999999998,2.4436,12.8859005,-5.044324400000001,1.3849978,-1
848,849,1583586236976,3.2061,-3.4136,1.1549,11.960503,-5.496273,-0.8212016,-1
849,850,1583586236987,2.2423,-4.0578,-0.92109996,11.516167999999999,-5.7392173,-2.3990571,-1
850,851,1583586236998,1.7742,-4.495199700000001,-2.3866,12.090709,-5.430375,-2.380593,-1
851,852,1583586237008,2.3313,-4.3817,-2.2551,12.60688,-4.817929,-1.9420327000000002,-1
852,853,1583586237018,2.8342,-3.9671,-1.704,11.591384,-4.5617013,-1.8217577,-1
853,854,1583586237028,-0.2548,-4.0614,-1.0127,9.089768,-4.4496910000000005,-1.4113723,-1
854,855,1583586237039,-2.4321,-4.1625,-0.5636,6.962453999999999,-4.298406,-1.1667424,-1
855,856,1583586237049,-4.0831,-4.1993,-0.5462,5.484474700000001,-4.092236499999999,-1.3247118,-1
856,857,1583586237059,-4.7086997,-3.9534998,-0.6282,5.057597599999999,-3.5435812000000007,-1.4483483999999998,-1
857,858,1583586237069,-4.5263,-3.4411,-0.5144,5.279454,-2.8651028,-1.5460126,-1
858,859,1583586237079,-4.3409,-3.0688,-1.5453999,5.423287999999999,-2.3293378,-2.8889587000000003,-1
859,860,1583586237089,-4.3294,-2.6887,-2.8864,5.3574,-1.7291307,-4.131339,-1
860,861,1583586237100,-4.691,-2.2373,-3.0939999,4.657948,-1.0921677,-4.075371700000001,-1
861,862,1583586237110,-5.6177998,-2.1062999,-2.2826,3.6151774,-0.84069043,-3.074289,-1
862,863,1583586237120,-6.5333,-2.0377,-1.1961,2.6754055,-0.55697745,-2.2089383999999996,-1
863,864,1583586237131,-7.6018,-1.8887999,-0.5239,1.6490973999999998,-0.24842237,-1.8554680000000001,-1
864,865,1583586237141,-8.6194,-1.6132,-0.3389,0.5798948,0.3620129,-1.9502017,-1
865,866,1583586237151,-9.3348,-1.1136,-0.6971,-0.03053086,1.0305315000000002,-2.5820699,-1
866,867,1583586237161,-9.7311,-0.54219997,-1.6018,-0.42987412,1.7530345,-3.6167097000000004,-1
867,868,1583586237171,-10.0047,0.0611,-2.4006,-0.63442516,2.4408886,-4.2107779999999995,-1
868,869,1583586237181,-10.0956,0.5348,-2.8233,-0.7289099,2.9044442000000004,-4.6455655,-1
869,870,1583586237192,-10.1298,0.815,-3.0219,-0.8316978,3.2527626,-4.369102,-1
870,871,1583586237201,-10.263,0.8768,-2.1808999,-1.0090795,3.2023406000000003,-3.3679905,-1
871,872,1583586237211,-10.263,0.8768,-2.1808999,-1.4093803,3.2872867999999995,-2.0779946,-1
872,873,1583586237221,-11.130999999999998,1.0238,0.0499,-2.1313088,3.8015422999999995,-1.7818894,-1
873,874,1583586237231,-11.9894,1.5623,-0.2891,-3.0989206,4.346080000000001,-2.3320768,-1
874,875,1583586237241,-12.9438,2.1015,-0.9052,-3.9361346,4.867009599999999,-2.8498662,-1
875,876,1583586237252,-13.4661,2.4916,-1.3924999,-4.161936799999999,5.230641,-3.5189017999999996,-1
876,877,1583586237262,-13.311298999999998,2.7082,-2.0098,-3.7990043,5.295246,-3.8897160000000004,-1
877,878,1583586237273,-12.722999999999999,2.6811,-2.1641,-3.0309348,4.802663,-3.3664966,-1
878,879,1583586237283,-12.1394,2.0785,-1.1377,-2.5627534,4.002186,-2.0825243,-1
879,880,1583586237294,-11.9206,1.2949,0.0117,-2.8490043,2.8940248,-1.1077683999999999,-1
880,881,1583586237304,-12.3716,0.5244,0.6457,-3.2683918,2.193721,-1.0382599000000001,-1
881,882,1583586237314,-12.7385,-0.0234,0.5035,-3.4216684999999996,1.5941936,-1.4221556999999998,-1
882,883,1583586237324,-12.884999,-0.46159998,0.2376,-3.3052912000000005,0.9222752000000001,-0.9270349,-1
883,884,1583586237334,-12.760099,-0.97489995,0.73649997,-2.9713382999999998,0.34955344,-0.5860048000000001,-1
884,885,1583586237345,-12.4606,-1.2787,0.96919996,-2.6923182,0.26697266,-0.10470323,-1
885,886,1583586237355,-12.2596,-1.0712,1.4332,-2.6254049999999998,0.11705731,0.7246003000000001,-1
886,887,1583586237365,-12.2816,-1.0769,2.2456,-2.733058,-0.46565306,1.6851254,-1
887,888,1583586237375,-12.4253,-1.4621998999999999,3.0951,-2.636466,-1.4614016,2.3327856,-1
888,889,1583586237386,-12.2472,-2.2231,3.6258998,-1.9687424999999998,-2.5778944,2.5405066,-1
889,890,1583586237396,-11.5106,-2.9852998,3.6067998,-0.8977299000000001,-3.7241137,2.160901,-1
890,891,1583586237406,-10.6262,-3.4556,3.2289,-0.13109691,-4.748995,2.1087842,-1
891,892,1583586237416,-9.8578,-4.266,3.1364,0.5536352,-5.7671247,2.3931675,-1
892,893,1583586237426,-9.1851,-4.8993998,3.3155,1.4779311000000002,-6.5294766,2.324971,-1
893,894,1583586237437,-8.2214,-5.2583,3.1088,2.3089106,-7.204592999999999,2.199266,-1
894,895,1583586237447,-7.3353996,-5.5119,2.8172998,2.6248496,-8.360821000000001,2.236098,-1
895,896,1583586237457,-6.9448,-6.2342,2.6911,2.9348697999999995,-9.581576,2.7907486,-1
896,897,1583586237467,-6.5375,-8.2076,4.1749,4.302122,-11.500319000000001,4.3650794,-1
897,898,1583586237477,-5.3568997000000005,-8.2076,4.1749,6.2546988,-12.214557000000001,5.497039,-1
898,899,1583586237488,0.6809999999999999,-8.3994,6.2774,10.334783,-12.398871,6.654501400000001,-1
899,900,1583586237498,3.9424998999999996,-8.5113,5.6696,13.148889000000002,-13.171968,5.858267,-1
900,901,1583586237508,5.6998,-9.387199,3.7524,14.195642999999999,-14.966577,3.968552,-1
901,902,1583586237518,5.3573,-11.5019,2.3000998,13.297510999999998,-17.461,2.9661093,-1
902,903,1583586237528,5.3573,-11.5019,2.3000998,13.583609,-19.34516,2.6235855,-1
903,904,1583586237539,7.9042997,-14.682099,2.1401,16.068953,-21.025517,3.6349727999999994,-1
904,905,1583586237549,11.2436,-14.9247,3.4304,19.070677,-21.36532,4.974117,-1
905,906,1583586237560,13.8856,-14.0018,3.4255,21.034498000000003,-20.545238,4.860583999999999,-1
906,907,1583586237570,14.868198999999999,-12.022699000000001,2.2164,21.329235,-18.447860000000002,3.5387163,-1
907,908,1583586237580,14.6249,-10.5883,0.8964,20.622734,-17.719676999999997,2.4639304,-1
908,909,1583586237591,14.2766,-10.2492,0.0969,20.164589000000003,-17.76083,2.146268,-1
909,910,1583586237601,14.073998999999999,-10.167399000000001,0.23889999,19.732359,-17.683594,2.5357277000000003,-1
910,911,1583586237611,13.624498999999998,-9.6352,0.74369997,18.86763,-17.043879999999998,2.919882,-1
911,912,1583586237621,12.455899,-8.7416,0.9475,17.321934,-16.35826,3.1124527000000004,-1
912,913,1583586237631,11.0647,-8.1816,1.1538,16.046705,-15.982322,3.0962680000000002,-1
913,914,1583586237641,10.4471,-7.5888995999999995,0.5818,15.624063,-15.211607999999998,2.3491044,-1
914,915,1583586237652,10.267000000000001,-6.404,-0.3611,15.109051000000001,-13.690467000000002,1.1645205,-1
915,916,1583586237661,9.6833,-5.0976,-1.3556,14.373667000000001,-12.722816,0.52046114,-1
916,917,1583586237671,8.6612,-3.9415998,-1.9803,13.234313,-11.756325,0.16728766,-1
917,918,1583586237681,7.5337,-3.2259,-1.7799,12.0916195,-11.133632,0.7125719,-1
918,919,1583586237691,6.4038,-2.5744,-0.852,10.895188000000001,-10.521299,1.7481886000000002,-1
919,920,1583586237701,5.1408997,-1.9864998999999999,0.20199999,9.762166,-9.95849,2.587931,-1
920,921,1583586237712,4.2042,-1.5008,0.7589,8.902847999999999,-9.517516,2.7913616,-1
921,922,1583586237722,3.4436,-1.1359999,0.5401,8.200342,-9.145841,2.0904540000000003,-1
922,923,1583586237732,2.9791,-0.8326,-0.1927,7.836117,-8.803403,1.2830143999999999,-1
923,924,1583586237742,2.6725,-0.5308,-1.0037999,7.596198599999999,-8.656217,0.6614413,-1
924,925,1583586237752,2.3158998,-0.45569998,-1.4926,7.238581699999999,-8.601361,0.37093845,-1
925,926,1583586237762,2.0626,-0.39119998,-1.5216999,7.138312299999999,-8.5503645,0.38236359999999997,-1
926,927,1583586237772,1.9113,-0.4258,-1.2633,6.964301600000001,-8.647846000000001,0.91567683,-1
927,928,1583586237783,1.7436999,-0.50159997,-0.5920000000000001,6.616204300000001,-8.737678,1.6725032,-1
928,929,1583586237794,1.2274,-0.58129996,0.25599998,5.9777569999999995,-8.615229,2.5965787999999996,d
929,930,1583586237804,0.6214,-0.45909998,0.9835,5.369447,-8.633807000000001,2.8470697,-1
930,931,1583586237815,0.0491,-0.5161,1.1765,5.099238,-8.586497999999999,2.7070186,-1
931,932,1583586237825,-0.18239999,-0.44619998,0.8937,5.3229809999999995,-8.310821,1.8045386000000003,-1
932,933,1583586237835,0.113,-0.1695,-0.1231,5.771578,-8.129655999999999,1.0281564,-1
933,934,1583586237845,0.5286,-0.0482,-0.77669996,6.0925155,-8.321986,1.0569252,-1
934,935,1583586237855,0.76129997,-0.26,-0.6928,6.2383223,-8.581509,1.5861204,-1
935,936,1583586237866,0.88479996,-0.6005,0.028099999,6.212867299999999,-8.920288000000001,2.4160464,-1
936,937,1583586237876,0.7513,-0.9543,0.8698,6.0405707,-9.144146000000001,3.1939704,-1
937,938,1583586237886,0.5439,-1.1652,1.6818,6.0174236,-9.258808,3.5479293,-1
938,939,1583586237896,0.53529996,-1.3600999,1.9504999,6.263662999999999,-9.510861,3.3739855000000003,-1
939,940,1583586237906,0.7119,-1.5764999,1.7500999,6.658524000000001,-9.704102,2.880761,-1
940,941,1583586237916,1.0746,-1.8036,1.2008,7.446877000000001,-9.857695,1.7723126,-1
941,942,1583586237926,1.8359999999999999,-1.9820999,0.0327,8.7303705,-9.896566,0.8893597,-1
942,943,1583586237937,3.0978,-2.0521998,-0.9242,10.1133375,-10.174228,0.89897484,-1
943,944,1583586237947,4.4572,-2.3688,-0.9503,10.859801,-10.656477,2.0185706999999997,-1
944,945,1583586237957,5.1408997,-2.8781,0.1743,11.095697999999999,-11.574786999999999,3.5526218000000003,-1
945,946,1583586237967,5.3069997,-3.8483998999999995,1.716,11.752245,-12.777491,4.809050599999999,-1
946,947,1583586237977,5.8985996,-5.1124997,2.9773,12.895916999999999,-13.4317875,4.788978,-1
947,948,1583586237988,6.964699700000001,-5.8373,2.9057999,14.095823999999999,-13.425937,3.3509532999999996,-1
948,949,1583586237997,8.093599000000001,-5.907099700000001,1.3515999,15.265726,-13.406954999999998,1.3003197,-1
949,950,1583586238007,9.1968,-5.9811,-0.8228,16.667475,-13.36475,0.57438815,-1
950,951,1583586238017,10.5069,-6.0466,-1.6443,17.91676,-13.413697,1.3328426000000002,-1
951,952,1583586238027,11.479099,-6.4591,-0.1399,17.749776999999998,-13.562569,2.1860209999999998,-1
952,953,1583586238038,10.0238,-6.723099700000001,0.3525,16.382431,-13.571139000000002,2.5289855,-1
953,954,1583586238048,8.3708,-6.4656997,0.4682,14.996648,-13.038314999999999,2.5030229999999998,-1
954,955,1583586238058,6.9639997000000005,-5.8492,0.4386,13.867934,-12.123241,2.3920374,-1
955,956,1583586238068,5.83,-4.9388,0.6529,12.971105,-10.960072,2.6058395,-1
956,957,1583586238078,4.4537997,-4.2114997,1.12,11.754678,-10.048847,2.9787126,-1
957,958,1583586238088,4.4537997,-4.2114997,1.12,10.518332000000001,-9.505871,3.189364,-1
958,959,1583586238098,2.9045,-3.9139,1.4724,9.732114,-8.899878999999999,2.8346581000000004,-1
959,960,1583586238108,1.7549,-3.6857,1.3359,9.498449,-8.310647,2.2697415000000003,-1
960,961,1583586238118,1.1546999,-2.5609999,0.21499999,9.561762,-7.2950463,1.6708941000000002,-1
961,962,1583586238128,1.2093999,-1.9302,0.26999998,9.799496000000001,-6.3705110000000005,1.7536665,-1
962,963,1583586238138,1.0741999,-1.4153999,0.65669996,9.700865,-5.627418,2.0277643,-1
963,964,1583586238148,0.3744,-1.2679,1.2012,9.142844,-5.2834764000000005,2.5660095000000003,-1
964,965,1583586238159,-0.3574,-1.6423,2.1288,8.540932000000002,-5.3580413,3.3736887,-1
965,966,1583586238169,-1.1564,-1.8381,2.7633997999999997,7.884202,-5.1932054,3.7004495000000004,-1
966,967,1583586238179,-1.8419999999999999,-1.9678999,2.5981,7.366805,-4.967528,3.3279405,-1
967,968,1583586238189,-2.1878,-1.9882,2.4129,7.2076674,-4.6509089999999995,2.9983737,-1
968,969,1583586238199,-2.2137,-1.7398,1.8215,7.350477000000001,-4.02744,2.3015845,-1
969,970,1583586238210,-2.0576,-1.357,1.6062,7.547884,-3.3761019999999995,2.0612926,-1
970,971,1583586238220,-2.1238,-1.4513999,1.9933,7.4771304,-3.2477825,2.5022759999999997,-1
971,972,1583586238230,-2.6189999999999998,-1.7155,2.5985,6.744457000000001,-3.1451382999999997,3.0175080000000003,-1
972,973,1583586238241,-3.5338,-1.7416999,2.9652,6.0035567,-2.871979,3.1616583,-1
973,974,1583586238251,-4.2706,-1.7196,2.7113,5.4538574,-2.720589,2.8192873,-1
974,975,1583586238261,-4.213,-2.0739,2.7481,5.6722660000000005,-2.6902877999999997,2.8088965,-1
975,976,1583586238272,-3.9810000000000003,-1.9548,2.4768999,5.792091,-2.1713877,2.195435,-1
976,977,1583586238282,-4.2629,-1.4763,1.6789999,5.2383313,-1.4834281999999999,1.3412606000000002,-1
977,978,1583586238292,-4.8343997000000005,-1.3585,1.2294999,4.6205796999999995,-1.2782258999999998,0.90616703,-1
978,979,1583586238302,-5.4511,-1.2228,0.7072,4.0263862999999995,-0.57109374,0.106599435,-1
979,980,1583586238312,-5.9466996,-0.5789,-0.16149999,3.6747165,0.010965443,-0.6384187,-1
980,981,1583586238322,-6.2430997,-0.41759998,-0.5329999999999999,3.3511546,0.11293928,-0.33345485,-1
981,982,1583586238333,-6.6245,-0.56729996,0.295,2.758494,0.1743362,0.89689666,-1
982,983,1583586238343,-7.4140997,-0.5573,1.5568,1.7974708,0.42577526,1.7791984,-1
983,984,1583586238353,-8.2694,-0.5291,2.3507,1.1542543,0.49586788,2.1651149,-1
984,985,1583586238364,-8.6914,-0.5737,2.6092,0.9835189000000001,0.7883915,1.8802911,-1
985,986,1583586238374,-8.721499,-0.4296,2.2605,1.1838466,1.0520219,1.1421587,-1
986,987,1583586238384,-8.4795,-0.2609,1.6164999,1.2588903999999999,1.2814821,0.81014997,-1
987,988,1583586238394,-8.4277,-0.12709999,1.3978,1.4018242,1.1546277,0.61368173,-1
988,989,1583586238404,-8.1844,-0.40089998,1.1637,1.9971759999999998,0.893133,0.11702858,-1
989,990,1583586238414,-7.2193,-0.68369997,0.33699998,3.566939,0.9103138000000001,-1.3319998,-1
990,991,1583586238425,-5.8438,-0.5826,-0.9278,4.8061685999999995,1.0527593000000002,-2.1840386,-1
991,992,1583586238435,-4.6727,-0.4833,-1.5869,5.4663260000000005,1.0474728000000002,-2.2063718,-1
992,993,1583586238445,-4.1843,-0.534,-1.4273,5.249957599999999,0.97895074,-1.4932253,-1
993,994,1583586238455,-4.5155997,-0.65779996,-0.49409997,4.7045392999999995,0.8696698,-0.19350895,-1
994,995,1583586238465,-5.0211,-0.83769995,0.83669996,4.4175606,0.74855196,0.5299229999999999,-1
995,996,1583586238476,-5.2135,-0.9737,1.4156,4.5170155,0.88394886,0.30736762,-1
996,997,1583586238485,-5.0467,-0.79209995,1.1029999,4.7887864,1.3698089,-0.2626535,-1
997,998,1583586238496,-4.7369,-0.3111,0.58669996,5.296012999999999,1.6707793000000002,-0.7402584,-1
998,999,1583586238506,-4.1759,-0.0995,0.1196,6.1672626,1.5227601999999998,-1.3260238000000002,-1
999,1000,1583586238516,-3.215,-0.3155,-0.4631,7.675265,1.0115694,-1.7073435000000001,-1
1000,1001,1583586238526,-1.9309,-0.7385,-0.7011,8.924387,0.5069291,-1.8267089,-1
1001,1002,1583586238536,-0.6845,-1.2307,-0.7791,9.640321,0.28478548,-2.069318,-1
1002,1003,1583586238547,0.1424,-1.4575,-1.0201,9.780621,0.41533655,-1.8943976999999999,-1
1003,1004,1583586238557,0.1865,-1.3191,-0.7751,9.100629,0.84137994,-0.9611569999999999,-1
1004,1005,1583586238567,-0.4935,-0.9242,0.16899999999999998,7.9020724,1.1386441,-0.52865887,-1
1005,1006,1583586238577,-1.6833999,-0.65669996,0.5987,7.153338400000001,1.380468,-0.32101455,-1
1006,1007,1583586238588,-2.4338,-0.4437,0.79319996,7.3279905,1.5517299999999998,-0.44072464,-1
1007,1008,1583586238599,-1.2559,-0.1994,0.295,8.563322,1.6446825,-0.9051519,-1
1008,1009,1583586238609,-0.110599995,-0.2974,-0.1516,9.695952,1.4757476999999999,-1.3817226,-1
1009,1010,1583586238619,0.8782,-0.5288,-0.6958,10.629423,1.2234083,-1.9504987,-1
1010,1011,1583586238629,1.6136999,-0.7564,-1.0316,11.307172999999999,0.98087573,-2.242639,-1
1011,1012,1583586238639,1.851,-0.71419996,-1.0997,11.255419999999999,1.1421012,-2.2633731,-1
1012,1013,1583586238649,1.2656,-0.5521,-0.99899995,10.453611,1.2802753,-2.1368442,-1
1013,1014,1583586238660,0.31829998,-0.4824,-0.78459996,9.589323,1.4135749,-1.8225334,-1
1014,1015,1583586238670,-0.2269,-0.1818,-0.41200000000000003,9.311789,1.7710101999999999,-1.5132695,-1
1015,1016,1583586238680,-0.3809,0.1727,-0.1481,9.215138,2.09032,-1.2462969,-1
1016,1017,1583586238690,-0.2411,0.1434,-0.100499995,9.496025999999999,1.9692310000000002,-1.2706795,-1
1017,1018,1583586238700,0.2516,-0.0337,-0.20539999,10.061547000000001,1.8290552,-1.3952353000000002,-1
1018,1019,1583586238710,0.86219996,-0.14639999,-0.3969,10.633434,1.6973740000000002,-1.7079947,-1
1019,1020,1583586238720,1.2875,-0.3285,-0.8179,10.889902000000001,1.5826726,-2.0849759999999997,-1
1020,1021,1583586238730,1.3116,-0.3126,-1.0683,10.7383,1.6569505,-2.1695870999999998,-1
1021,1022,1583586238740,0.8653,-0.25869998,-0.66749996,10.155035,1.7019039,-1.5820597,-1
1022,1023,1583586238750,0.1741,-0.3021,-0.1136,9.463512,1.6581379,-1.243443,-1
1023,1024,1583586238760,-0.26229998,-0.32909998,-0.1771,9.261768,1.8063581000000002,-1.3732374,-1
1024,1025,1583586238770,-0.1602,-0.059000000000000004,-0.32209998,9.397012,2.0497047999999998,-1.4489038,d
1025,1026,1583586238781,-0.06839999599999999,0.1463,-0.36749998,9.458294,2.2995255,-1.3744154,-1
1026,1027,1583586238791,-0.06399999599999999,0.2749,-0.039699998,9.404808000000001,2.4419804,-0.8918688,-1
1027,1028,1583586238801,-0.2447,0.3759,0.4869,9.134903999999999,2.5455248,-0.4151833,-1
1028,1029,1583586238811,-0.552,0.3127,0.8498,8.845139,2.4144566000000003,-0.11062169999999999,-1
1029,1030,1583586238821,-0.6731,0.19479999,1.0131,8.855319,2.3796356,-0.11473972,-1
1030,1031,1583586238831,-0.5704,0.1809,0.87869996,8.982384,2.4083562,-0.35949418,-1
1031,1032,1583586238842,-0.4502,0.3092,0.5879,9.058413999999999,2.5938206000000004,-0.67210984,-1
1032,1033,1583586238852,-0.49839997,0.4797,0.2793,8.939939500000001,2.7275896,-0.91208553,-1
1033,1034,1583586238862,-0.6942,0.48439997,0.1343,8.641383,2.6783167999999997,-1.0837113999999999,-1
1034,1035,1583586238872,-0.9684,0.42100000000000004,-0.1166,8.284963000000001,2.6305668,-1.446433,-1
1035,1036,1583586238882,-1.3699,0.3687,-0.4813,7.9762735000000005,2.4963672000000003,-1.5491443,-1
1036,1037,1583586238892,-1.5553,0.1806,-0.1626,7.9870663,2.3153078999999996,-0.5096298,-1
1037,1038,1583586238903,-1.4747,0.0326,1.1678,8.032844,2.195598,0.91809016,-1
1038,1039,1583586238913,-1.5106,-0.0676,2.5649998,7.761829400000001,2.1914701,2.0569544,-1
1039,1040,1583586238923,-1.9869,0.025799999,3.5221,6.969405999999999,2.399622,2.7184725,-1
1040,1041,1583586238933,-2.9343,0.31399998,4.0125,5.9209757000000005,2.8774571,2.9981916,-1
1041,1042,1583586238943,-4.0512,0.82199997,4.3018,4.688843,3.2224422,3.225478,-1
1042,1043,1583586238953,-5.2604,1.0545,4.3794,3.4114212999999998,3.396721,3.41439,-1
1043,1044,1583586238964,-6.3071,1.2113,4.7014,2.5597942000000002,3.4930158,4.30511,-1
1044,1045,1583586238974,-7.5326,1.2911999,6.0249996,0.78086406,3.4509065000000003,6.7745852,-1
1045,1046,1583586238984,-8.9749,1.3314999,8.4458,-0.03016694,3.5696206,8.879472,-1
1046,1047,1583586238994,-9.8214,1.5694,10.8049,-0.5335814,3.8284051,10.831349000000001,-1
1047,1048,1583586239004,-10.0457,1.8855,12.157,-0.36820906,4.021435299999999,11.460086,-1
1048,1049,1583586239014,-9.8716,2.1485999,12.5963,-0.075388625,3.6435633000000003,10.787189999999999,-1
1049,1050,1583586239025,-9.580299,1.7499,11.7141,0.26387933,2.5794075,9.043973,-1
1050,1051,1583586239035,-9.2452,0.7639,9.7897,0.77069354,1.3482133,6.4470105,-1
1051,1052,1583586239045,-8.4113,-0.5676,6.4416,2.600534,-0.47227067,2.1389225,-1
1052,1053,1583586239055,-6.5761,-1.7881,3.1773,5.1220403,-1.6050919,-0.49237236,-1
1053,1054,1583586239065,-3.9136,-2.5091,1.0143,7.667718400000001,-1.681534,-1.951418,-1
1054,1055,1583586239076,-1.5332999,-2.1591,0.03,8.67562,-1.5059338,-1.6605321,-1
1055,1056,1583586239086,-0.9475,-1.9088999,0.8628,7.382052000000001,-2.0890560000000002,-1.3707379,-1
1056,1057,1583586239096,-2.1185,-2.2203999,1.1301,6.420473,-2.9874560000000003,-2.6391953999999997,-1
1057,1058,1583586239106,-3.1471999,-3.2112,-0.4256,6.9339813999999995,-5.2575807999999995,-6.672688000000001,-1
1058,1059,1583586239116,-2.447,-4.9542,-3.8137999,8.847677000000001,-6.727257000000001,-10.411713,-1
1059,1060,1583586239126,0.122999996,-6.4793997,-8.459499000000001,12.997163,-8.361788,-16.75359,-1
1060,1061,1583586239137,3.7389997999999998,-7.4779,-13.6271,16.521906,-8.731749,-20.314714000000002,-1
1061,1062,1583586239147,7.3290997,-7.5467997,-17.08,18.922554,-8.369076,-20.960201,-1
1062,1063,1583586239158,9.786099,-6.944,-17.632599,18.591904,-7.9581256,-19.812804999999997,-1
1063,1064,1583586239168,9.517099,-6.3703,-16.409198999999997,16.006569,-8.679258,-19.11978,-1
1064,1065,1583586239178,4.9509,-7.5140996,-16.0755,13.742382999999998,-9.254864,-19.8034,-1
1065,1066,1583586239188,4.5062,-7.3567,-16.9511,13.501163,-9.117311500000001,-20.737772,-1
1066,1067,1583586239198,4.7627,-7.3691998,-17.6665,13.784606,-9.149049,-21.346119,-1
1067,1068,1583586239208,5.0118,-6.9419,-17.801899,13.960609,-8.616741000000001,-21.35555,-1
1068,1069,1583586239219,4.4782,-6.205899700000001,-17.4012,13.231556,-7.902819,-20.672907000000002,-1
1069,1070,1583586239229,3.0174,-5.6419997,-15.895499,11.690723,-7.3107714999999995,-18.941872,-1
1070,1071,1583586239239,1.0653,-5.0053,-13.9038,9.7036705,-6.5689616,-16.779972,-1
1071,1072,1583586239250,-1.3246,-4.288,-11.48,7.3065195,-5.7826295,-14.105457999999999,-1
1072,1073,1583586239260,-3.8253998999999994,-3.7652997999999998,-8.3578,4.5440607,-4.973676,-10.158368,-1
1073,1074,1583586239271,-5.8157997,-3.1659,-5.3806,2.8133976,-4.3457349999999995,-7.395190700000001,-1
1074,1075,1583586239281,-5.8157997,-3.1659,-5.3806,1.6368103,-3.9359336000000003,-5.7852435,-1
1075,1076,1583586239291,-8.066299,-2.5400999,-2.4333,1.2402444,-3.5429684999999997,-4.704281,-1
1076,1077,1583586239301,-8.2136,-2.1429,-1.594,1.1484507,-3.0909815,-3.8630733,-1
1077,1078,1583586239311,-8.4438,-1.8182,-1.018,0.851608,-2.8360757999999997,-3.0900526000000004,-1
1078,1079,1583586239322,-8.991899499999999,-1.6797999,-0.2083,0.22894314,-2.702575,-1.9798613,-1
1079,1080,1583586239332,-8.991899499999999,-1.6797999,-0.2083,-0.50798255,-2.6793895,-0.11535264,-1
1080,1081,1583586239342,-10.3927,-1.6617,3.4629,-1.0964869,-2.551951,3.1827464,-1
1081,1082,1583586239353,-10.774099,-1.276,6.1057,-1.3617261999999999,-1.9248807000000001,5.3611059999999995,-1
1082,1083,1583586239364,-11.0692,-0.5879,7.6667,-1.7639233,-1.2636021000000002,6.61924,-1
1083,1084,1583586239374,-11.4987,0.1648,8.7302,-1.9941306,-0.32881009999999994,8.117158,-1
1084,1085,1583586239384,-11.578899,1.0651,9.8229,-1.7216896000000002,0.06522763,9.715795,-1
1085,1086,1583586239394,-11.2283,1.401,11.5092,-1.1000112,-0.53624374,12.824492999999999,-1
1086,1087,1583586239404,-10.5321,0.8551,14.682799,-0.17403929999999998,-1.2183805,15.679310999999998,-1
1087,1088,1583586239415,-9.5176,0.46299999999999997,17.1545,0.91066813,-1.9031796000000003,17.148891,-1
1088,1089,1583586239424,-8.037,-0.2687,18.3964,2.4983494,-2.828414,17.6805,-1
1089,1090,1583586239434,-6.277,-0.7195,18.4133,4.349259,-3.3637385,17.678335,-1
1090,1091,1583586239444,-4.2762,-0.8842,18.2568,6.8643866,-3.9130545,17.764412,-1
1091,1092,1583586239454,-2.0528998,-1.0366,18.158699,9.023679,-4.310348,18.111273,-1
1092,1093,1583586239464,0.1563,-1.1205,18.435098999999997,10.325627,-4.758112000000001,18.512169,-1
1093,1094,1583586239474,1.5232999,-1.453,18.6524,10.648059,-5.752807,18.495216,-1
1094,1095,1583586239484,1.5409,-2.0836,18.3528,10.343036999999999,-6.540978,18.252485,-1
1095,1096,1583586239494,1.4521998999999999,-2.7842999,18.0604,10.825335,-7.413454,18.367386,-1
1096,1097,1583586239504,2.6432,-3.3586998,18.3111,13.060063000000001,-8.310628999999999,18.651512,-1
1097,1098,1583586239514,4.861399700000001,-3.842,18.1696,14.841484,-8.947208,17.874506,-1
1098,1099,1583586239524,7.1161,-4.4926,16.7417,17.090854999999998,-10.211394,15.687307,-1
1099,1100,1583586239534,9.0293,-5.3192997,14.4808,18.222652,-11.167314,13.082493,-1
1100,1101,1583586239544,10.0841,-6.0948,11.7164,18.440601,-11.922089999999999,11.64487,-1
1101,1102,1583586239554,10.2752,-6.8911,10.2429,18.159904,-13.376060500000001,10.978143,-1
1102,1103,1583586239564,10.0716,-8.1579,9.607699,17.986624,-14.724188,10.242299000000001,-1
1103,1104,1583586239574,10.241099,-9.7564,8.1024,19.185743,-16.500732,7.161536,-1
1104,1105,1583586239585,11.7961,-10.9677,4.804199700000001,21.629984,-16.935453,3.5553894,-1
1105,1106,1583586239595,14.419498999999998,-11.1525,1.0188,23.8607,-16.660877,0.6496810000000001,-1
1106,1107,1583586239605,16.4016,-10.7989,-1.7878,23.962713,-16.284843,-0.6543257,-1
1107,1108,1583586239615,16.060799,-10.465899,-2.8453999,22.261154,-16.103966,-0.26321852,-1
1108,1109,1583586239625,14.158,-10.4086,-2.3839998,20.126925,-16.343452,-0.31790209999999997,-1
1109,1110,1583586239635,12.058,-10.7738,-2.8504,19.007883,-16.246487,-2.0409707999999998,-1
1110,1111,1583586239646,11.216,-10.6463995,-4.7966,19.649233,-15.578094,-4.0750175,-1
1111,1112,1583586239656,12.042,-10.052899,-6.7453,20.908783,-15.117057,-5.367954,-1
1112,1113,1583586239666,13.161798999999998,-9.8165,-7.7777996,21.424543,-14.849279000000001,-5.239145300000001,-1
1113,1114,1583586239676,13.3707,-9.7052,-7.49,20.258460999999997,-13.886848,-4.3451023,-1
1114,1115,1583586239686,12.0776,-8.9198,-6.5039,18.718224,-12.624118,-3.5605322999999998,-1
1115,1116,1583586239696,10.0013,-7.5044,-5.5052,16.857805,-10.883811999999999,-3.0790296,-1
1116,1117,1583586239707,8.0615,-5.9806,-4.9625,15.180857999999999,-9.026131,-2.757833,-1
1117,1118,1583586239717,6.5393,-4.7302,-4.5709,14.106473999999999,-7.8899289999999995,-2.442287,-1
1118,1119,1583586239727,5.3020997,-3.8546,-4.0987,13.07938,-6.9656615,-2.0508349999999997,-1
1119,1120,1583586239737,2.7670999,-2.7072,-3.1515,11.603728,-6.082268,-1.9426074,-1
1120,1121,1583586239748,1.3794999,-2.3428,-2.6522,10.385022,-5.368327,-1.5337638999999998,-1
1121,1122,1583586239758,0.2235,-1.8105999,-1.5882,9.377025999999999,-4.603733999999999,-0.69149333,-1
1122,1123,1583586239768,-0.8466,-1.6676999,-0.4035,8.388306,-4.266936299999999,0.18213171,-1
1123,1124,1583586239778,-0.8466,-1.6676999,-0.4035,7.22187,-4.191950299999999,0.24777114,-1
1124,1125,1583586239788,-4.1516,-2.0456,-0.30879998,4.9619349999999995,-4.069875,-0.7006583000000001,-1
1125,1126,1583586239799,-5.2878,-1.9079,-0.90889996,4.326811,-3.5044887000000005,-1.4414339,-1
1126,1127,1583586239810,-5.1917,-1.2396,-1.0964999,4.550439,-2.405809,-1.7915237000000002,-1
1127,1128,1583586239820,-5.2693,-0.5631,-1.0605,4.2155476,-1.6619878000000001,-1.8543953999999998,-1
1128,1129,1583586239830,-6.0234,-0.25669998,-0.94979995,3.4583192000000005,-1.3332734,-2.01021,-1
1129,1130,1583586239841,-7.2393,-0.24229999,-1.1214,1.9492824,-1.1162822000000001,-2.526333,-1
1130,1131,1583586239851,-8.486,-0.43649998,-1.4169999,0.8387559000000001,-1.3685161,-2.9137816,-1
1131,1132,1583586239861,-9.0093,-1.2445998999999999,-1.6588999,0.65377027,-2.0449452,-3.4287267,-1
1132,1133,1583586239871,-8.7536,-2.2242,-2.7898998,0.9935937,-2.779735,-4.9982885999999995,-1
1133,1134,1583586239882,-8.732699,-2.4036,-3.9555998,0.6862931,-2.6389465,-6.2366657,-1
1134,1135,1583586239892,-9.380899000000001,-2.2898,-4.7377996,-0.34644097,-2.5559635,-7.1359754,-1
1135,1136,1583586239902,-10.3536,-2.5175,-5.5962,-1.3095709,-2.946295,-8.874875,-1
1136,1137,1583586239912,-11.013599000000001,-3.2257,-7.507899799999999,-1.2162354,-3.9271038000000003,-10.48962,-1
1137,1138,1583586239922,-10.370399,-4.3715,-8.596499,-0.008063671,-4.9533157,-10.840371000000001,-1
1138,1139,1583586239933,-8.8855,-5.3422,-8.42,1.7363133000000002,-5.770668,-10.324286,-1
1139,1140,1583586239943,-7.1966996,-6.1473,-7.7734,3.0272574,-6.4100150000000005,-9.823160000000001,-1
1140,1141,1583586239953,-6.2563996,-6.6699996,-7.3471,3.3721087,-6.6113100000000005,-9.610239,-1
1141,1142,1583586239963,-6.2439,-6.699,-7.2307,3.0800257,-6.393716,-9.732717,-1
1142,1143,1583586239973,-6.6580997,-6.437,-7.5965,2.5453908,-6.013488,-10.562211999999999,-1
1143,1144,1583586239983,-7.1552997000000005,-6.1222997,-8.8056,2.3604338,-5.796755,-11.799182,-1
1144,1145,1583586239994,-7.0676,-5.9948997,-9.7934,3.1246152,-5.5957475,-12.196121,-1
1145,1146,1583586240004,-6.2355,-5.8592,-9.8934,4.23179,-5.5371084,-11.415277,-1
1146,1147,1583586240014,-5.1186,-5.8567,-9.0117,5.23339,-5.601273,-10.078104,-1
1147,1148,1583586240024,-4.1665998,-5.9435,-7.6625,6.106622,-5.538057,-8.680628,-1
1148,1149,1583586240034,-3.3330998,-5.8346995999999995,-6.3476,6.715324000000001,-5.268258599999999,-7.4019713000000005,-1
1149,1150,1583586240044,-2.8374,-5.5285,-5.1924,6.707768,-4.685596,-6.8285985,-1
1150,1151,1583586240054,-2.9557,-4.9353,-4.9519997,6.6985073,-4.090205999999999,-7.067281200000001,-1
1151,1152,1583586240065,-2.8931,-4.3747,-5.3731,7.4710399999999995,-3.5543456,-7.4515313999999995,-1
1152,1153,1583586240076,-1.93,-3.8144998999999995,-5.9031,8.967511,-3.0447732999999997,-7.659463000000001,-1
1153,1154,1583586240086,-0.3964,-3.3349998,-6.1724997,10.52312,-2.7472793999999996,-6.7588606,-1
1154,1155,1583586240096,1.0228,-3.0648,-5.0652,10.799497,-2.6389275000000003,-3.2403223999999997,-1
1155,1156,1583586240106,1.0489,-3.0137,-2.1471999,9.22326,-3.1693006,1.779907,-1
1156,1157,1583586240116,-0.5335,-3.5607998,2.7194998,7.65048,-3.3100699999999996,6.970556,-1
1157,1158,1583586240126,-2.5398998,-3.7601,9.0231,5.6424627,-3.7106488,12.871056,-1
1158,1159,1583586240136,-4.4767,-4.2601,14.315,4.8081510000000005,-4.2490764,16.244083,-1
1159,1160,1583586240147,-4.9895,-4.6226,16.5289,6.2772809999999994,-3.9990351000000004,15.8744,-1
1160,1161,1583586240157,-3.5354997999999997,-4.2929,15.879999,8.890456,-3.3581838999999998,13.339811,-1
1161,1162,1583586240167,-0.91679996,-3.5314,13.077499000000001,11.167399000000001,-2.8030357000000006,10.980087,-1
1162,1163,1583586240177,1.3643999,-2.8634,10.512099000000001,12.69559,-2.446041,10.1717,-1
1163,1164,1583586240187,2.8917,-2.4132,9.5696,12.266491,-2.9851482000000003,12.031295,-1
1164,1165,1583586240197,0.643,-3.2886,13.7402,10.047574000000001,-3.3713233,14.725902,-1
1165,1166,1583586240208,0.643,-3.2886,13.7402,8.813459,-2.8541086,15.016048999999999,-1
1166,1167,1583586240218,-1.5514,-1.4753,13.2462,8.237039999999999,-1.567005,13.987070000000001,-1
1167,1168,1583586240228,-1.2358,-0.39799999999999996,11.3592,8.549282,-0.49510175,12.117647999999999,-1
1168,1169,1583586240238,-0.6949,0.0326,9.526,9.176861,-0.02657564,10.005981,-1
1169,1170,1583586240248,-0.1937,0.2138,8.024799,9.69554,0.16512331,8.543671,-1
1170,1171,1583586240259,0.1792,0.4244,6.7861,9.967359,0.34051293,7.388794,-1
1171,1172,1583586240269,0.25779998,0.5719,6.0313,10.041358,0.53067005,6.6188474,-1
1172,1173,1583586240279,0.3066,0.7622,5.6127,10.125625,0.67112345,6.32754,-1
1173,1174,1583586240290,0.42369998,0.9483,5.2379999999999995,10.200525,0.8544905999999999,5.920535,-1
1174,1175,1583586240300,0.3441,1.0914,4.6040998,10.074025,1.0123450999999999,5.086778,-1
1175,1176,1583586240310,0.127,1.2221999,3.8860997999999998,9.8597145,1.1289235,4.4967804000000005,-1
1176,1177,1583586240320,-0.20789999,1.2745,3.2091,9.515544,1.1374086,3.8201404,-1
1177,1178,1583586240330,-0.5036,1.084,2.6704,9.224859,0.93122,3.1731696,-1
1178,1179,1583586240340,-0.5148,0.9772,2.1599998,9.357632,0.8274457000000001,2.5900474,-1
1179,1180,1583586240351,-0.24139999,0.8777,1.5115,9.7071,0.6945196,2.0381264999999997,-1
1180,1181,1583586240361,0.13059999,0.7396,1.2865,10.05987,0.57451266,1.9348884999999998,-1
1181,1182,1583586240371,0.3848,0.6161,1.2724,10.256108,0.36463693,1.8399727,-1
1182,1183,1583586240381,0.5798,0.326,1.0481,10.499808999999999,0.07953538,1.5508298999999999,-1
1183,1184,1583586240392,0.8332,0.1328,0.66539997,10.650099,-0.08019618,1.1567155,d
1184,1185,1583586240401,0.90989995,-0.052899998,0.2069,10.750072,-0.33878914,0.7564624,-1
1185,1186,1583586240411,0.92789996,-0.2226,0.31689999,10.685159,-0.44368386,0.96967083,-1
1186,1187,1583586240422,0.75979996,-0.2579,0.5412,10.392904,-0.51486826,1.0598556000000001,-1
1187,1188,1583586240432,0.5039,-0.3432,0.5427,10.281123,-0.5757097,0.9513983,-1
1188,1189,1583586240442,0.54249996,-0.4263,0.23339999,10.506916,-0.73276937,0.38485354,-1
1189,1190,1583586240453,0.87579995,-0.55509996,-0.3383,10.958663,-0.75903857,-0.29415159999999996,-1
1190,1191,1583586240463,1.3367,-0.47759998,-0.92219996,11.356283,-0.59893346,-0.6290142,-1
1191,1192,1583586240473,1.65,-0.3455,-1.0275999,11.498469,-0.60156715,-0.41113234,-1
1192,1193,1583586240483,1.6586,-0.447,-0.5977,11.392636,-0.7435911999999999,0.23297498,-1
1193,1194,1583586240493,1.5389999,-0.5664,0.16,11.287263000000001,-0.81982255,0.8303666,-1
1194,1195,1583586240504,1.439,-0.62299997,0.5184,11.221135,-0.782042,0.76011115,-1
1195,1196,1583586240514,1.4080000000000001,-0.555,0.35909998,11.210284,-0.632414,0.41769242,-1
1196,1197,1583586240524,1.4069999999999998,-0.42859998,-0.0563,11.247548,-0.55284035,-0.088010855,-1
1197,1198,1583586240534,1.4650999,-0.39999998,-0.4242,11.343124000000001,-0.5044104,-0.097922854,-1
1198,1199,1583586240544,1.5332999,-0.3811,-0.2782,11.410736,-0.49053362,0.03824977,-1
1199,1200,1583586240555,1.6309999,-0.3725,-0.23339999,11.621704,-0.40652588,-0.16124469,-1
1200,1201,1583586240565,1.8661,-0.3144,-0.45409998,11.8860235,-0.35720533,-0.49841535,-1
1201,1202,1583586240575,2.1208,-0.2856,-0.77019995,12.113761,-0.42308417,-0.83310556,-1
1202,1203,1583586240585,2.3558,-0.4052,-1.0900999,12.447378,-0.5809674,-1.0587159,-1
1203,1204,1583586240595,2.7084,-0.5866,-1.2385,12.759217999999999,-0.71793485,-0.91557145,-1
1204,1205,1583586240606,2.9729,-0.77309996,-1.0023999,12.905763,-0.86525494,-0.5831988,-1
1205,1206,1583586240616,3.1002998,-0.9284,-0.7209,12.864802000000001,-0.8196597,-0.69503677,-1
1206,1207,1583586240626,3.0221,-0.8868,-0.87909997,12.771027,-0.6447394000000001,-0.9515994000000001,-1
1207,1208,1583586240636,2.9443998,-0.7643,-1.1238999,12.801136,-0.5587588000000001,-1.1951566999999998,-1
1208,1209,1583586240646,2.9849,-0.77419996,-1.3343999,12.872387,-0.516822,-1.2455403,-1
1209,1210,1583586240656,3.0649998,-0.7873,-1.3892,12.695945,-0.54034257,-1.1876773,-1
1210,1211,1583586240667,2.8025,-0.8933,-1.3044,12.094664,-0.70628947,-1.0809628999999998,-1
1211,1212,1583586240677,2.2856,-1.1222,-1.2243,11.7836,-0.746378,-1.1739058,-1
1212,1213,1583586240688,2.0873,-1.1538,-1.4117,11.937921000000001,-0.5404959,-1.2880614,-1
1213,1214,1583586240698,2.3374,-1.0342,-1.4528999,12.140374000000001,-0.3560465,-1.2564387,-1
1214,1215,1583586240708,2.2456,-0.8814,-0.99399996,11.95514,-0.097482316,-0.63043165,-1
1215,1216,1583586240719,1.5180999,-0.7387,-0.2171,11.053944,0.1521946,0.08672756,-1
1216,1217,1583586240729,0.1452,-0.55579996,0.11449999,9.613142,0.4255933,0.45392147,-1
1217,1218,1583586240739,-1.2655,-0.3841,0.4482,8.232731,0.7150523,0.75928754,-1
1218,1219,1583586240750,-2.2447999,-0.2244,0.32979998,7.350094,1.0252641,0.50130755,-1
1219,1220,1583586240760,-2.3818998,-0.070199996,0.024799999,7.484447,1.1861162,0.2854942,-1
1220,1221,1583586240770,-1.9418,-0.048699997,-0.0734,8.033189,1.2713499,0.2055087,-1
1221,1222,1583586240780,-1.4828999,-0.00029999999,-0.1361,8.244577,1.3662368,0.20108421,-1
1222,1223,1583586240790,-1.5727999,-0.0117,0.030199998999999998,7.987277499999999,1.4109701000000001,0.46941674,-1
1223,1224,1583586240800,-1.9950999,-0.0078,0.3074,7.5575470000000005,1.5167651000000002,0.6170624,-1
1224,1225,1583586240811,-2.3088999,0.1024,0.35709998,7.2854600000000005,1.7500752,0.6608763000000001,-1
1225,1226,1583586240820,-2.5342,0.3522,0.5032,7.106613,2.005843,0.80363774,-1
1226,1227,1583586240830,-2.7598,0.4297,0.5129,6.816924,2.0838556,0.7080612,-1
1227,1228,1583586240840,-2.9566998,0.3563,0.3606,6.7041960000000005,2.0846412,0.5737465,-1
1228,1229,1583586240850,-2.8411,0.36929998,0.2826,6.881481599999999,2.1548965,0.52065265,-1
1229,1230,1583586240860,-2.4916,0.4206,0.34649998,7.294998599999999,2.1719720000000002,0.54028517,-1
1230,1231,1583586240870,-2.2510998,0.233,0.38349998,7.461653999999999,1.9687138,0.5551961999999999,-1
1231,1232,1583586240881,-2.0990999,-0.0004,0.32889998,7.59617,1.8005258999999998,0.43030509999999994,-1
1232,1233,1583586240891,-1.9079,-0.0853,0.24499999,7.7636395,1.8239411,0.3653935,-1
1233,1234,1583586240901,-1.7069,0.046299997999999995,0.2006,7.948299400000001,2.0272663,0.28859708,-1
1234,1235,1583586240912,-1.7411,0.1679,0.0515,7.778042999999999,2.1345744,0.13537775,-1
1235,1236,1583586240922,-1.9319998999999999,0.1716,-0.027199998,7.623090299999999,2.1439597999999997,0.09267476,-1
1236,1237,1583586240932,-2.0646,0.1477,-0.0106999995,7.565313300000001,2.1278994,0.17602171,-1
1237,1238,1583586240942,-1.9233999,0.1381,0.19139999,7.8602505,2.1117241,0.35493562,-1
1238,1239,1583586240952,-1.6364,0.0558,0.26229998,8.116572999999999,2.0625473999999997,0.33531275,-1
1239,1240,1583586240962,-1.2911999,-0.0134,0.23719999,8.498153,1.9735691999999998,0.1842865,-1
1240,1241,1583586240973,-0.9952,-0.120299995,0.0109,8.756736,1.8275516,-0.032340877000000004,-1
1241,1242,1583586240983,-0.77739996,-0.1989,-0.0985,8.842582,2.0376284,-0.15039419,-1
1242,1243,1583586240995,-0.78419995,0.022499999,-0.18159999,8.588375,2.285974,-0.054089807000000004,-1
1243,1244,1583586241005,-1.0649998999999999,0.2513,-0.0482,8.299653,2.4138055,0.18057069,-1
1244,1245,1583586241015,-1.3359999999999999,0.3527,0.16229999,8.045744000000001,2.4666502,0.38405868,d
1245,1246,1583586241025,-1.5785999,0.3213,0.3477,8.027318,2.2503006,0.5425548000000001,-1
1246,1247,1583586241035,-1.5282999,0.0902,0.45319998,8.546869000000001,2.1116189999999997,0.34009156,-1
1247,1248,1583586241047,-0.85209996,0.0039999996999999995,0.1748,9.639191,2.128493,-0.10433931,-1
1248,1249,1583586241057,0.0484,0.030399999,-0.14829999,10.258723,2.0924366,0.007297527,-1
1249,1250,1583586241067,0.6656,-0.0058999998,-0.0508,10.316117,2.1136298,0.15464628,-1
1250,1251,1583586241077,0.72609997,0.0061,0.0971,9.819886,2.2950049999999997,0.7262284000000001,-1
1251,1252,1583586241087,0.2304,0.1724,0.6562,9.21261,2.4879777,1.4025905,-1
1252,1253,1583586241098,-0.5376,0.36859998,1.4826,8.15059,2.5401618,2.2276611,-1
1253,1254,1583586241107,-1.4110999,0.3493,2.1095,7.412946000000001,2.4141787999999997,2.385305,-1
1254,1255,1583586241117,-2.1509,0.20899999,2.2495,7.1803737000000005,2.4785542,2.8227158,-1
1255,1256,1583586241127,-2.3813,0.2391,2.6466,6.9528479999999995,2.5959084,3.8821309999999998,-1
1256,1257,1583586241137,-2.6042,0.3577,3.6711,6.572438000000001,2.496846,5.025736,-1
1257,1258,1583586241148,-2.9854,0.24749999,4.7794,6.1815705,2.3415582,6.470732,-1
1258,1259,1583586241158,-4.3768997,0.31669998,8.306000000000001,4.824775700000001,2.6544898,9.007705,-1
1259,1260,1583586241168,-6.6306996,0.7719,10.0457,2.3737552,3.1252472,10.600308,-1
1260,1261,1583586241178,-9.5314,1.3152,11.005899000000001,-0.5670523000000001,3.6717956,11.44778,-1
1261,1262,1583586241189,-12.3956995,1.7630999,11.542299,-3.321907,4.0878024,11.972138000000001,-1
1262,1263,1583586241199,-14.208798999999999,1.9390999,11.660299,-4.830436,4.125612,11.960407,-1
1263,1264,1583586241209,-14.453899,1.6893,11.414599,-4.806598999999999,3.7039068,11.675746,-1
1264,1265,1583586241219,-13.6795,1.0649998999999999,11.0892,-3.8684936000000003,2.8562922000000004,11.3095,-1
1265,1266,1583586241229,-12.5772,0.2807,11.0401,-2.5924895,1.8275708,11.183249,-1
1266,1267,1583586241239,-12.033299000000001,-0.2777,10.9053,-2.3895283,1.2185242,10.832269,-1
1267,1268,1583586241250,-12.475599,-0.93509996,10.4084,-2.9582467,0.31778717,10.167916,-1
1268,1269,1583586241260,-13.5594,-1.7513,9.5239,-4.2551760000000005,-1.0087442,8.46968,-1
1269,1270,1583586241270,-14.3824,-2.7960000000000003,7.267299700000001,-4.701389,-2.0495707999999997,6.1797605,-1
1270,1271,1583586241280,-14.306398999999999,-3.9001,4.0998,-4.278256400000001,-3.810803,2.2873437,-1
1271,1272,1583586241290,-13.3487,-5.5264997000000005,1.7257999,-2.9935472,-5.9332724,0.19275239,-1
1272,1273,1583586241301,-11.5939,-7.3329,0.3717,-1.0255898,-7.9543232999999995,-1.1753040000000001,-1
1273,1274,1583586241311,-9.4999,-8.7956,-0.72789997,0.98684204,-9.564271000000002,-2.4735456,-1
1274,1275,1583586241321,-7.8515,-9.603,-1.5227,2.4578013,-10.581462,-3.143491,-1
1275,1276,1583586241331,-6.4164996,-10.0206995,-1.3558999,3.5429684999999997,-11.058588,-2.6782498,-1
1276,1277,1583586241341,-6.1127,-9.8277,-0.76379997,3.1599824,-11.254558,-2.5308243999999998,-1
1277,1278,1583586241352,-6.8753996,-9.375,-1.3808,2.2222214,-10.669597,-3.8486983999999995,-1
1278,1279,1583586241362,-7.3433,-8.2654,-2.9864,2.1329944,-10.857273,-6.033771499999999,-1
1279,1280,1583586241372,-6.9537997,-9.0744,-5.871299700000001,3.5290532,-12.92912,-9.365858,-1
1280,1281,1583586241382,-4.6001,-10.7108,-9.312099,6.884288000000001,-14.588216000000001,-11.618851,-1
1281,1282,1583586241393,-0.80149996,-11.613899,-10.8038,10.090985,-15.728449,-12.280894,-1
1282,1283,1583586241403,1.9663999,-12.169,-11.1428995,11.546353,-15.961414999999999,-11.49418,-1
1283,1284,1583586241413,2.6464999,-11.465,-9.831799499999999,10.448985,-15.469474,-9.644007,-1
1284,1285,1583586241423,0.6903,-11.0035,-8.1573,7.56358,-15.850755,-8.038485000000001,-1
1285,1286,1583586241434,-1.8465999,-11.1297,-6.8985,5.8825827,-16.268620000000002,-7.1721277,-1
1286,1287,1583586241444,-2.5335999,-11.4151,-7.0738997,7.3001413,-17.795920000000002,-8.579421,-1
1287,1288,1583586241454,-0.0686,-12.5991,-8.976399,11.857735,-18.9772,-10.668007000000001,-1
1288,1289,1583586241464,4.9270997,-13.3392,-11.462,16.53541,-19.634666,-13.068252000000001,-1
1289,1290,1583586241474,9.6789,-13.573,-14.115298999999998,19.21026,-19.830963,-14.88843,-1
1290,1291,1583586241484,12.030399000000001,-13.4149,-15.8623,19.305301999999998,-19.629946,-14.581377999999999,-1
1291,1292,1583586241494,11.9098,-12.9663,-15.2612,17.350004000000002,-19.914625,-12.774522,-1
1292,1293,1583586241505,9.8213,-13.2251,-13.6296,14.929418,-20.072891000000002,-11.099165,-1
1293,1294,1583586241515,7.8064,-13.039599,-12.047999,13.931370999999999,-19.469706,-9.70005,-1
1294,1295,1583586241525,7.2778997,-12.2912,-11.0169,14.63655,-19.135427,-9.117983,-1
1295,1296,1583586241535,8.5029,-11.928599,-10.6988,16.328235999999997,-19.009483,-9.086148,-1
1296,1297,1583586241545,10.9403,-11.5758,-10.8362,18.806175,-18.426563,-8.77249,-1
1297,1298,1583586241555,12.9179,-10.8866,-10.5255995,19.609488,-17.853428,-7.8834553,-1
1298,1299,1583586241565,13.615398999999998,-10.2999,-9.5598,19.480497,-17.64924,-6.0390863,-1
1299,1300,1583586241575,13.4564,-10.0433,-7.4747996,18.755476,-17.739943,-3.0890470000000003,-1
1300,1301,1583586241586,12.6929,-10.1475,-4.3724,17.413861999999998,-18.098604,0.36739504,-1
1301,1302,1583586241596,11.2878,-10.5162,-0.76019996,15.762322,-18.5893,5.384742,-1
1302,1303,1583586241606,9.9649,-10.8729,3.5695998999999996,15.166051999999999,-18.490591000000002,9.366548,-1
1303,1304,1583586241616,9.3598995,-10.752999,7.6356997,15.264348000000002,-18.006254000000002,12.022982,-1
1304,1305,1583586241626,9.5035,-10.107699,10.9914,15.579473000000002,-16.901772,15.034448000000001,-1
1305,1306,1583586241637,9.7015,-9.186,13.4402,15.645448000000002,-15.944838,16.13464,-1
1306,1307,1583586241647,9.6881,-8.2795,14.6303,14.465776000000002,-15.195098000000002,16.430555,-1
1307,1308,1583586241657,8.6705,-7.7379,15.0441,13.166731,-14.499639499999999,16.526293,-1
1308,1309,1583586241667,6.9128,-7.0273,15.2879,11.369116,-13.051052,17.143902,-1
1309,1310,1583586241677,2.6248999,-4.1878,17.1356,8.851345,-10.996721,18.21636,-1
1310,1311,1583586241687,0.2272,-2.6764,17.7507,6.7499924,-9.283603999999999,18.490372,-1
