,Seq,Time,ACCx,ACCy,ACCz,ADGx,ADGy,ADGz,Keydown
0,1,1583586367605,0.97319996,-0.8186,-0.0115,4.596417,-9.227387,3.8218546,-1
1,2,1583586367615,0.4998,-1.0155,0.31599998,9.827173,0.91366565,-0.45591345,-1
2,3,1583586367626,0.0607,0.0055,-0.0026999997999999996,9.643558,0.42155188,0.08969637,-1
3,4,1583586367636,-0.1389,-0.5754,0.626,9.793569,0.16701952,0.53905934,-1
4,5,1583586367646,0.019299998999999998,-0.66609997,0.8208,10.2213545,0.29577968,-0.08414182,-1
5,6,1583586367656,0.4333,-0.4725,0.1284,10.338709,0.45216894,-0.8883542,-1
6,7,1583586367666,0.54829997,-0.2911,-0.7173,10.246062,0.63919437,-1.6594021,-1
7,8,1583586367676,0.44939998,-0.0947,-1.5002999,10.123001,0.6955922,-1.7815158,-1
8,9,1583586367687,0.3419,-0.036399997999999996,-1.6055,10.140564999999999,0.7477954000000001,-1.6392716,-1
9,10,1583586367697,0.3533,0.0139,-1.412,10.325886,0.9402796,-1.4967113,-1
10,11,1583586367707,0.527,0.0995,-0.88079995,10.299828,0.9134071,-1.0548565,-1
11,12,1583586367717,0.527,0.0995,-0.88079995,10.290815,0.9443402,-0.43172243,-1
12,13,1583586367728,0.5118,0.109299995,-0.0613,10.434927,0.81532145,0.39187336,-1
13,14,1583586367738,1.0962,-0.14819999,1.581,10.92478,0.78065336,1.365394,-1
14,15,1583586367748,1.2062,-0.0672,1.7889999,10.934951,0.87015826,1.4182389,-1
15,16,1583586367758,1.0519,-0.14819999,1.5038999,10.757694,0.8305582,1.2513246999999998,-1
16,17,1583586367768,0.7317,-0.24409999,1.5205,10.404099,0.7816398,1.425546,-1
17,18,1583586367779,0.3437,-0.16899999999999998,2.4856,9.966956,0.97096366,2.7263923,-1
18,19,1583586367789,-0.5721,-0.109299995,4.1597,8.958145,1.0070395,4.5492516,-1
19,20,1583586367800,-1.6615,-0.1304,5.716,7.671482000000001,1.1771236999999999,6.435365,-1
20,21,1583586367811,-2.5568,0.12239999,6.6211996,6.8661685,1.5030607,7.4658484,-1
21,22,1583586367821,-3.2335,0.1709,7.1457,6.1645904,1.4178654,8.640233,-1
22,23,1583586367831,-3.9320998,-0.0422,8.0727,5.1338577,1.3213216,10.85215,-1
23,24,1583586367841,-5.2464,-0.1832,9.7613,3.2235243,1.1727949,13.195326000000001,-1
24,25,1583586367852,-7.5937996,-0.47309998,11.436999,0.6058288000000001,0.90189576,14.694384,-1
25,26,1583586367862,-10.17,-0.7158,12.209399000000001,-2.3270299999999997,0.8432187,15.18985,-1
26,27,1583586367872,-12.2906,-0.6803,11.945399,-3.7978551,1.0176793,14.648741000000001,-1
27,28,1583586367882,-13.782,-0.527,10.8234,-5.268508,1.0433357,13.042366000000001,-1
28,29,1583586367893,-14.671,-0.7396,9.1226,-5.728472,0.732597,11.466856,-1
29,30,1583586367904,-15.0532,-1.3622999,6.7609,-6.0141582,-0.28265944,8.309968,-1
30,31,1583586367914,-15.1182995,-2.3248,4.1886997,-6.0749325999999995,-1.5442793,5.485930000000001,-1
31,32,1583586367924,-15.3355,-3.3434,2.074,-6.50156,-2.4368567000000003,3.9925132000000003,-1
32,33,1583586367934,-16.109,-4.5203,0.6495,-7.433642,-3.9439013,2.766586,-1
33,34,1583586367944,-17.134698999999998,-6.0218997000000005,-0.233,-8.135795,-5.6792955,1.2949375,-1
34,35,1583586367955,-17.5614,-7.2618,-1.3364999,-7.885350999999999,-6.7220087,-0.041276038,-1
35,36,1583586367965,-17.2564,-8.1327,-2.3971999,-7.259268,-7.735819,-1.175668,-1
36,37,1583586367975,-16.6099,-8.9758,-3.4355998,-6.314333400000001,-8.642647,-2.6673607999999995,-1
37,38,1583586367985,-15.2962,-9.9263,-5.5585,-4.2820295999999995,-9.863392999999999,-6.439914,-1
38,39,1583586367995,-13.5271,-10.5366,-8.9095,-2.2414707999999997,-10.041771,-10.019227,-1
39,40,1583586368006,-11.4379,-10.2645,-12.2753,0.45651679999999994,-10.165339,-11.269249,-1
40,41,1583586368016,-9.2167,-10.145599,-12.9588995,1.9358843999999997,-11.342167,-10.400039,-1
41,42,1583586368026,-7.3942,-11.3664,-11.9534,3.5736239999999997,-12.800302499999999,-10.359145,-1
42,43,1583586368036,-5.7043,-12.268599499999999,-12.311,5.673923,-13.512357999999999,-12.407175,-1
43,44,1583586368046,-3.9175,-12.5146,-14.2188,6.9830146,-14.011741,-13.809907999999998,-1
44,45,1583586368056,-2.2442,-12.7817,-15.991199499999999,8.972941,-14.950439000000001,-15.671123499999998,-1
45,46,1583586368067,-0.4608,-13.3179,-17.8309,11.503077000000001,-16.26589,-18.390285000000002,-1
46,47,1583586368077,2.2029,-14.2935,-20.835499,14.863175,-17.871883,-19.732466,-1
47,48,1583586368087,5.723799700000001,-15.5446,-22.4665,17.880627,-19.921098999999998,-20.24105,-1
48,49,1583586368099,8.9452,-17.224498999999998,-23.253199,20.60697,-22.129875,-19.485544,-1
49,50,1583586368109,11.4597,-18.668,-23.0023,22.551464000000003,-23.414402,-18.756512,-1
50,51,1583586368119,15.651998999999998,-20.233,-22.2966,24.574852,-24.140266,-18.584827,-1
51,52,1583586368129,17.350399,-20.2622,-22.3993,26.248321999999998,-24.248857,-18.272144,-1
52,53,1583586368139,19.215,-20.0721,-22.158298000000002,27.5075,-24.361107,-17.54382,-1
53,54,1583586368150,20.327,-20.187399,-21.3175,27.978077000000003,-24.737917000000003,-16.385025,-1
54,55,1583586368160,20.423,-20.303,-19.8648,27.4455,-25.160626999999998,-14.310153,-1
55,56,1583586368170,19.669199,-20.6475,-17.1311,26.499215999999997,-25.424170999999998,-11.110676,-1
56,57,1583586368180,19.111399,-20.1203,-13.5693,26.045965,-24.911295000000003,-7.484868,-1
57,58,1583586368190,18.9482,-19.3895,-10.0331,25.818228,-24.443985,-4.697692,-1
58,59,1583586368200,18.2044,-18.6985,-6.2339,24.50246,-23.942698,-0.019201498,-1
59,60,1583586368211,16.4462,-18.4865,-1.7472999,22.398438,-23.907053,4.4389650000000005,-1
60,61,1583586368221,14.303699499999999,-18.1122,2.3369,20.614296,-23.303944,7.6970425,-1
61,62,1583586368231,13.1758995,-16.834,4.5824,20.000069,-21.667278,9.055465,-1
62,63,1583586368241,12.7497,-14.8977995,5.5676,19.525068,-19.714891,9.882412,-1
63,64,1583586368252,11.6866,-12.846399,7.0755,18.18534,-17.650265,11.701335,-1
64,65,1583586368262,9.5117,-11.1743,9.7355995,15.799489999999999,-16.12582,14.279383,-1
65,66,1583586368272,6.5256996,-10.0432,12.522599000000001,12.447186,-14.904126000000002,16.947079000000002,-1
66,67,1583586368282,3.6603,-9.352099,14.548599,10.046242999999999,-13.901299,17.995827,-1
67,68,1583586368292,1.1320000000000001,-8.397699000000001,15.358398999999999,7.8220963,-12.607895,17.808092000000002,-1
68,69,1583586368303,-1.1546,-7.1816998,14.888599,6.2859764,-10.745723,16.886248000000002,-1
69,70,1583586368313,-2.5296,-5.3596,14.299399,4.95639,-7.979615700000001,16.694262,-1
70,71,1583586368324,-3.8904998,-3.3156998,14.4321995,4.097245,-6.6672864,16.688812,-1
71,72,1583586368334,-5.7043,-1.666,14.2772,2.1822288,-4.598342400000001,16.019037,-1
72,73,1583586368344,-7.226999799999999,-0.48200000000000004,13.5796995,1.1421492,-3.6954885,14.832826999999998,-1
73,74,1583586368354,-8.090799,-0.2914,12.3938,0.88672614,-3.6160681000000006,12.882902,-1
74,75,1583586368364,-8.312699,-0.6477,10.8705,0.98330826,-3.5011177000000004,11.22533,-1
75,76,1583586368374,-8.3336,-0.6515,9.3764,0.80793774,-2.8073452000000003,9.597569,-1
76,77,1583586368385,-8.651,-0.1249,7.8032,0.314713,-1.856713,7.659712,-1
77,78,1583586368395,-9.2462,0.59169996,5.933799700000001,-0.12249693,-0.7592397,6.124521,-1
78,79,1583586368405,-9.7409,1.4613,4.574,-0.7481593000000001,0.22120509,5.160903,-1
79,80,1583586368415,-10.432,2.0867999,3.7141,-1.3244243999999998,0.858101,4.467906,-1
80,81,1583586368425,-11.0273,2.4615,3.1311998,-1.8063006000000001,1.4267334999999999,4.0822959999999995,-1
81,82,1583586368435,-11.5776,2.7965999,2.8852,-2.4465392,1.7967813999999998,3.7815459000000002,-1
82,83,1583586368445,-12.2199,2.9106,2.6304,-2.544883,1.6802603999999999,3.2513737999999996,-1
83,84,1583586368455,-12.099899,2.5365999,2.1657,-1.0801681,1.2405221000000002,2.3758526,-1
84,85,1583586368465,-10.3834,1.9739,1.2564,1.1293448999999998,1.2167811000000002,0.89201254,-1
85,86,1583586368476,-8.2479,1.9896,-0.3026,2.4501877,1.6307962,-1.3442677,-1
86,87,1583586368486,-7.2152,2.3487,-2.6029,2.5472295,1.944494,-3.4579839999999997,-1
87,88,1583586368496,-7.2977,2.4917998,-4.5659,2.0835683,1.9950979,-5.192382,-1
88,89,1583586368506,-7.7823,2.4689,-6.3044,2.0046842000000002,2.0633805,-6.1791663,-1
89,90,1583586368516,-7.768399700000001,2.4435,-6.9312997,2.5615373,1.8406718999999998,-5.225632,-1
90,91,1583586368526,-7.2271,2.1675,-5.9042997,3.0761852000000003,1.5254225000000001,-3.7159445,-1
91,92,1583586368537,-6.6077,1.7204,-3.8765,3.6481504,0.9304251,-1.7035033,-1
92,93,1583586368547,-6.0358,0.99399996,-1.8554,4.4450746,-0.16502754,-0.6208931,-1
93,94,1583586368557,-5.3536,0.0857,-0.99329996,5.17976,-0.5395956000000001,-1.5858809,-1
94,95,1583586368567,-4.6299,-0.2886,-1.9113,6.1676745,-0.6295793000000001,-3.6851741999999996,-1
95,96,1583586368577,-3.6399998999999994,-0.36609998,-3.9854998999999998,7.3876348,-0.749117,-5.4328265,-1
96,97,1583586368588,-2.4239,-0.4727,-5.7151,8.490682000000001,-0.9151501,-6.198703299999999,-1
97,98,1583586368598,-1.3155999,-0.6044,-6.4584,9.474469000000001,-1.1102966,-6.173449,-1
98,99,1583586368608,0.0663,-0.95699996,-5.6524,9.866821,-1.3254588,-5.260128,-1
99,100,1583586368618,-0.091199994,-0.97029996,-4.3389997000000005,9.655211,-1.3148668,-3.9918716,-1
100,101,1583586368628,-0.091199994,-0.97029996,-4.3389997000000005,9.397155,-1.2447549999999998,-3.0163589,-1
101,102,1583586368638,-0.4055,-0.8809999999999999,-3.0721,9.123335,-1.1008921999999999,-2.0385478,d
102,103,1583586368649,-0.61149997,-0.6784,-1.2277,9.271861999999999,-1.0427994,-1.1928582,-1
103,104,1583586368659,-0.2874,-0.6656,-1.3027999,9.537265,-1.0284437,-1.4628668,-1
104,105,1583586368669,-0.2082,-0.71709996,-2.2454998,9.6297865,-1.1342674,-2.5604742000000003,-1
105,106,1583586368679,0.126,-0.687,-3.4129998999999995,10.036005000000001,-1.0492350000000001,-3.6463117999999994,-1
106,107,1583586368690,0.59779996,-0.3698,-3.9545,10.556217,-0.66043574,-4.1024165,-1
107,108,1583586368700,0.8441,-0.0449,-3.9847998999999996,10.66182,-0.4548696,-4.053757,-1
108,109,1583586368710,0.7568,0.1757,-3.596,10.503066,-0.28807992,-3.616279,-1
109,110,1583586368720,0.4635,0.2427,-2.7933,10.199002,-0.22518905,-2.7675536,-1
110,111,1583586368730,0.1116,0.2174,-1.8238,9.890697,-0.3602316,-1.6033203999999999,-1
111,112,1583586368740,0.18169999,-0.1218,-0.6512,10.121278,-0.73531675,-0.5914156999999999,-1
112,113,1583586368750,0.5466,-0.2438,-0.0823,10.419882000000001,-0.70700777,-0.5355925,-1
113,114,1583586368760,0.5682,-0.1795,-0.60069996,10.185882000000001,-0.71446806,-1.2896223999999998,-1
114,115,1583586368770,0.109,-0.2436,-1.2990999,9.833734,-0.73404306,-1.8748035,-1
115,116,1583586368780,0.042099997,-0.1486,-2.2776,9.986962,-0.65689236,-3.2404947,-1
116,117,1583586368791,0.456,-0.0884,-3.4613998,10.354338,-0.5875467,-4.1005683,-1
117,118,1583586368802,0.9489,0.0791,-3.6766998999999996,10.876484,-0.39170098,-3.9195476,-1
118,119,1583586368812,1.0797,0.1513,-2.7482998,10.666091999999999,-0.4190236,-2.7017417,-1
119,120,1583586368822,0.67179996,0.046499997,-1.6089,10.112169999999999,-0.57706004,-1.5013081,-1
120,121,1583586368832,0.1372,-0.114999995,-0.35189998,9.610737,-0.65583885,-0.6358520999999999,-1
121,122,1583586368843,-0.3478,-0.20899999,0.40289998,9.23523,-0.790891,-0.13265793,-1
122,123,1583586368853,-0.5586,-0.3471,0.7716,9.307967,-0.8312860000000001,-0.41382340000000006,-1
123,124,1583586368863,-0.3584,-0.3089,0.0911,9.57222,-0.65898013,-1.442813,-1
124,125,1583586368873,-0.061499998,-0.1037,-0.8172,9.918372999999999,-0.6429293,-2.4363012000000004,-1
125,126,1583586368883,0.2051,-0.15799999,-1.6675999,10.080873,-0.675366,-3.138808,-1
126,127,1583586368893,0.39319998,-0.1639,-2.4998,10.201694,-0.70939237,-3.7340352999999995,-1
127,128,1583586368903,0.484,-0.1559,-2.7726998,10.19203,-0.64006585,-3.4229326,-1
128,129,1583586368913,0.3506,-0.0893,-2.0363998,9.938877,-0.61054057,-2.4062207000000004,-1
129,130,1583586368923,0.100899994,-0.14,-0.91249996,9.754667,-0.6753946999999999,-1.4127035,-1
130,131,1583586368934,-0.0598,-0.1856,0.0585,9.487953,-0.7326928,-0.6805853000000001,-1
131,132,1583586368944,-0.4077,-0.3191,0.7066,9.026150999999999,-0.86646163,-0.2646742,-1
132,133,1583586368954,-0.7377,-0.37919998,0.9546,8.919886,-0.7431026999999999,-0.6095733,-1
133,134,1583586368964,-0.7949,-0.2244,0.45929998,8.981378,-0.45720634,-1.5007622,-1
134,135,1583586368974,-0.7744,0.0661,-0.3989,8.789622,-0.31590053,-2.1090522000000003,-1
135,136,1583586368984,-0.9888,0.1841,-0.9615,8.708784,-0.26786327,-2.4660087,-1
136,137,1583586368995,-0.9569,0.3044,-1.3289,9.035669,-0.10545979400000001,-2.6529097999999998,-1
137,138,1583586369005,-0.6092,0.426,-1.2907,9.341419,-0.083279915,-2.0605073,-1
138,139,1583586369016,-0.3284,0.40829998,-0.5919,9.435414999999999,-0.29125944,-1.5656643,-1
139,140,1583586369026,-0.28239998,0.1708,-0.1433,9.386458,-0.60253435,-1.3466235,-1
140,141,1583586369036,-0.3058,-0.0607,0.0734,9.233478999999999,-0.70939237,-1.3660549,-1
141,142,1583586369046,-0.5076,-0.14800000000000002,0.023,8.896489,-0.47085327,-1.8488026000000002,-1
142,143,1583586369057,-0.7995,0.067499995,-0.39339998,8.6420145,-0.30413064,-1.8312578000000002,-1
143,144,1583586369067,-1.053,0.2351,-0.3637,8.538729,-0.2083147,-1.5807574,-1
144,145,1583586369077,-1.1588,0.3649,-0.0862,8.526527999999999,0.1281281,-1.6311026000000002,-1
145,146,1583586369087,-1.1557,0.6547,-0.13679999,8.588747999999999,0.32191479999999995,-1.8564064999999998,d
146,147,1583586369097,-1.092,0.8605,-0.3247,8.8429365,0.39832813,-2.2335699,-1
147,148,1583586369107,-0.8297,0.9564,-0.6676,9.357958,0.3740988,-2.8064833,-1
148,149,1583586369118,-0.3035,0.95129997,-1.2114999,10.1220045,0.36190754,-2.9651517999999997,-1
149,150,1583586369128,0.4585,0.9522,-1.3246,10.857417,0.18945797,-1.9585718999999997,-1
150,151,1583586369138,1.6299,0.2791,0.6109,11.315485,-0.44844353,-0.8307401,-1
151,152,1583586369148,1.5857999,0.023599999,1.216,11.177398,-0.6596888000000001,-0.45211148,-1
152,153,1583586369158,1.3521999,-0.2625,-0.2289,11.029397,-0.9922625,-2.4037786,-1
153,154,1583586369169,2.0204,-0.55439997,-3.3665998,12.025462,-1.2867013999999999,-5.366276999999999,-1
154,155,1583586369179,4.054199700000001,-0.70849997,-4.824,14.202260999999998,-1.3883593,-6.328439700000001,-1
155,156,1583586369189,6.1019998,-0.5947,-4.6867,16.036814,-1.3122236999999999,-5.975171,-1
156,157,1583586369199,6.7117996,-0.9938,-2.9326,16.34486,-1.7005153000000002,-3.8230803,-1
157,158,1583586369209,6.1180997,-1.4678,-0.0411,15.628564,-2.121234,-1.0973775,-1
158,159,1583586369219,5.2414,-1.8712,1.7017,14.736168,-2.3707097000000004,0.20642807,-1
159,160,1583586369229,4.6271996,-2.21,1.6380999,14.414924,-2.8183873,-0.27556306,-1
160,161,1583586369239,5.4012,-2.6622,0.6371,15.721966,-3.0315285,-1.6619495,-1
161,162,1583586369250,7.053,-2.7554998,-1.0659999999999998,17.035492,-3.0447636,-2.9872935000000003,-1
162,163,1583586369260,8.2012,-2.8695,-2.185,17.960888,-3.2181134,-3.9153817,-1
163,164,1583586369270,8.0248995,-3.3021998,-2.6896,17.455406,-3.6480641000000005,-4.1485962999999995,-1
164,165,1583586369280,7.0572996,-3.6564,-2.2323,16.227133,-3.9606513999999997,-3.3551195,-1
165,166,1583586369290,5.7620000000000005,-4.1493998,-1.2404,14.993094000000001,-4.381408,-2.2866638,-1
166,167,1583586369300,4.6577,-4.6486998,-0.058399998,14.1152935,-4.651733,-1.3228921999999999,-1
167,168,1583586369310,3.2324,-4.9142,1.1259,12.200268,-4.6434489999999995,0.013225569,-1
168,169,1583586369320,1.3758,-4.8605,2.0976,10.270408,-4.3331413,0.78818077,-1
169,170,1583586369331,-0.53099996,-4.5754,2.5521,8.515754,-3.8159075,1.0291523999999999,-1
170,171,1583586369341,-1.8989999,-4.1096997,2.0557,7.4176583,-3.0507684,0.06891470400000001,-1
171,172,1583586369351,-2.6973999,-3.2754,0.93149996,6.437501,-1.8340733,-0.87363464,-1
172,173,1583586369361,-3.6969,-2.5421999,0.3981,5.408214599999999,-1.2816162,-1.0511216,-1
173,174,1583586369371,-5.1296,-2.0858,0.74469995,3.8555648000000002,-0.62182206,-0.15567099,-1
174,175,1583586369381,-6.9254,-1.5453999,2.2977,1.7502763,0.11420342,1.5736704,-1
175,176,1583586369391,-9.458099,-1.0820999,3.8723,-1.6471533999999999,0.91628015,2.8649017999999997,-1
176,177,1583586369401,-12.3403,-0.5262,4.5453,-4.4433413,1.9031605999999999,3.148203,-1
177,178,1583586369412,-14.882,0.3742,4.7704997,-6.676672,2.8666065,3.2491328999999998,-1
178,179,1583586369422,-16.8032,1.2105,4.5961,-8.091147,4.0551076,2.2020717,-1
179,180,1583586369432,-17.8597,2.4196,3.0913,-8.754982,5.122557,0.83022296,-1
180,181,1583586369442,-18.7764,3.4982998,1.4320998999999999,-10.178508,6.066055,-1.068829,-1
181,182,1583586369452,-20.080599,3.8909998,0.1946,-11.242617,6.0973997,-1.3002048000000002,-1
182,183,1583586369463,-20.791399,3.6366,0.8233,-11.230856,5.4549494,0.06727707,-1
183,184,1583586369473,-20.38,2.9152,2.1408,-10.593921,4.677350499999999,0.7954496,-1
184,185,1583586369483,-19.748998999999998,2.2454998,2.592,-10.138314,3.925897,1.1598088,-1
185,186,1583586369493,-19.5459,1.4478999,3.2168,-10.264527000000001,2.8310096000000002,1.9041563999999997,-1
186,187,1583586369503,-19.8004,0.48229998,3.8506,-10.392234,1.9752929,2.0105739,-1
187,188,1583586369514,-19.6814,-0.023,3.5258,-9.648814,1.5528601,0.9820824,-1
188,189,1583586369524,-18.6286,-0.100899994,2.1453,-8.130775,1.1258206,-0.8490030999999999,-1
189,190,1583586369534,-17.4613,-0.34129998,0.7662,-7.346636999999999,0.49724695,-1.2240499,-1
190,191,1583586369544,-16.615599,-1.0292,0.8818,-6.3912354,-1.0557281,-0.09358456,-1
191,192,1583586369554,-15.812798999999998,-1.9567,1.8678,-5.4646215,-1.7721403000000002,0.67474353,-1
192,193,1583586369564,-14.9239,-2.2323,2.5816,-4.6466093,-1.9651321,1.9994744999999998,-1
193,194,1583586369575,-14.1824,-2.0219998,4.1384,-4.354488,-2.3280451,3.9446485,-1
194,195,1583586369585,-14.0068,-2.1062,5.8419,-4.5201187,-3.7751292999999997,4.157292,-1
195,196,1583586369595,-14.158999,-3.4347,5.6334995999999995,-4.0881763,-5.794409,3.345236,-1
196,197,1583586369605,-13.4381,-4.8234997,4.7131,-2.542173,-7.339971,2.3066218,-1
197,198,1583586369615,-11.7002,-5.9914,3.4373998999999995,-0.35483027,-10.056958999999999,0.9012446,-1
198,199,1583586369625,-9.1739,-8.3026,1.8721,3.7861523999999998,-12.799852,0.19521362,-1
199,200,1583586369635,-4.5085,-10.3779,1.1333,8.697627,-15.064345000000001,0.32089007,-1
200,201,1583586369645,0.3376,-11.9606,1.2681999,11.57812,-16.586819000000002,1.6471436999999998,-1
201,202,1583586369655,2.7768998,-12.6669,2.4219,11.404531500000001,-17.522396,3.3815608,-1
202,203,1583586369666,2.7080998,-12.9852,3.8063,9.6152,-17.686935000000002,4.2888293,-1
203,204,1583586369676,0.625,-12.6481,4.6064,6.442260299999999,-18.275766,5.013228400000001,-1
204,205,1583586369686,-1.7271999,-12.8312,5.0109997,6.209965,-20.493792000000003,6.3563275,-1
205,206,1583586369696,-1.1113,-15.246799,6.325599700000001,11.044098,-23.167618,6.0705276,-1
206,207,1583586369706,4.9739,-17.098999,4.9323997,19.097216,-23.718054000000002,2.1265779,-1
207,208,1583586369716,12.078099,-16.9089,1.2236999,23.000185000000002,-22.878149,0.15202223,-1
208,209,1583586369727,16.407299,-15.688498999999998,-1.0122,22.254429000000002,-22.005568,1.3648673,-1
209,210,1583586369737,16.056798999999998,-14.5048,0.011899999,18.06227,-21.580645,3.7969165,-1
210,211,1583586369747,12.2116995,-13.8405,2.2949998,14.322076000000001,-21.708370000000002,6.050167,-1
211,212,1583586369757,8.7817,-13.7568,4.4101,13.532459,-22.591007,6.116515,-1
212,213,1583586369767,8.321899,-14.456099499999999,4.3202,17.192265,-23.358809,3.1271532000000004,-1
213,214,1583586369777,11.5232,-15.0679,1.7318,20.183666,-22.773982999999998,0.7081090999999999,-1
214,215,1583586369788,15.663098999999999,-14.3245,-1.4237,22.31756,-21.251642,-1.347045,-1
215,216,1583586369799,17.2241,-10.7043,-2.2566,20.648726,-19.028904,0.44590572,-1
216,217,1583586369809,13.7605,-9.2294,0.41669998,16.784445,-17.795773999999998,3.2340877,-1
217,218,1583586369820,13.7605,-9.2294,0.41669998,15.930836,-17.606853,3.8660898,-1
218,219,1583586369831,7.0044,-7.2381997,3.273,10.399579,-15.882185999999999,5.163393,-1
219,220,1583586369841,6.468899700000001,-6.207000000000001,1.3586,10.336784,-14.720462,2.5368578,-1
220,221,1583586369851,7.653,-5.3739,-1.199,11.66207,-13.940163,0.38415444,-1
221,222,1583586369861,9.0005,-4.4923,-2.4476,12.470266,-13.139801,0.04448427,-1
222,223,1583586369871,8.917399000000001,-3.9359998999999997,-1.5926,11.3224,-12.708212,2.0422733,-1
223,224,1583586369882,7.4968,-3.5811,0.4746,9.667519,-12.235443,3.9523482000000003,-1
224,225,1583586369892,5.7792,-2.9347,2.1684,7.8392296,-11.365353,5.0189557,-1
225,226,1583586369902,3.9582,-1.9678999,2.8160000000000003,6.1711599999999995,-10.561886999999999,4.867766400000001,-1
226,227,1583586369912,2.3767,-1.3528999,2.2714999,5.018314,-9.982892999999999,3.8674498,-1
227,228,1583586369922,1.5884999,-0.8014,1.2454,4.7874074,-9.54164,2.932083,-1
228,229,1583586369932,1.6583999,-0.3768,0.2786,5.2050996,-9.141436,1.9012164,-1
229,230,1583586369942,2.1613998,-0.067099996,-0.78099996,5.792244,-9.045533,0.7498544,-1
230,231,1583586369953,2.8146,-0.0971,-1.9685999,6.333027400000001,-9.204346000000001,0.21151336,-1
231,232,1583586369963,3.1473,-0.33949998,-1.5939,6.2293773,-9.501285000000001,1.7384968999999997,-1
232,233,1583586369973,2.7284,-0.64919996,0.163,5.5361986,-9.85303,3.2016127,-1
233,234,1583586369983,1.8812,-0.9432,1.4785,4.7335763,-9.940841,4.3650703,-1
234,235,1583586369993,1.0925,-0.85139996,2.5389,3.9219897000000006,-9.607788000000001,4.6322155,-1
235,236,1583586370003,0.18509999,-0.501,2.3016999,3.1509035,-9.324237,3.9722872000000002,-1
236,237,1583586370014,-0.42319998,-0.2329,1.5802,2.9940927000000004,-8.91705,3.2101072999999998,-1
237,238,1583586370024,-0.4143,0.0652,0.9259999999999999,3.4417703,-8.723934,2.3331783,-1
238,239,1583586370034,0.0651,0.2488,0.0047999997999999995,3.8658695,-8.543297,1.5274718999999999,d
239,240,1583586370044,0.4709,0.41599998,-0.8807,4.2503785999999995,-8.433834,0.6949793000000001,-1
240,241,1583586370054,0.9165,0.49789998,-1.6079999,4.5586843,-8.565381,1.3965473999999998,-1
241,242,1583586370064,0.99549997,0.2392,-0.3764,4.2773848,-9.135928999999999,3.3491626000000005,-1
242,243,1583586370075,0.6457,-0.3339,1.5019,3.9271038000000003,-9.450575,4.0241456,-1
243,244,1583586370085,0.3001,-0.54969996,1.8377,3.7604290000000002,-9.38958,3.2601652000000003,-1
244,245,1583586370095,0.1213,-0.5161,0.9245,3.7805593,-9.384869,2.4448437999999997,-1
245,246,1583586370105,0.17300000000000001,-0.5186,0.17899999,3.9704580000000003,-9.163108,1.9320825000000001,-1
246,247,1583586370115,0.3231,-0.2593,-0.3584,4.118975,-8.9051,1.6764201,-1
247,248,1583586370126,0.3929,-0.041899998,-0.46469998,3.964779,-8.770477,2.059971,-1
248,249,1583586370136,0.112799995,0.0104,-0.032199997,3.4574091,-9.107275,2.7259135,-1
249,250,1583586370146,-0.345,-0.3084,0.5661,3.4961858,-9.260332,3.2267232000000003,-1
250,251,1583586370156,-0.29549998,-0.4982,1.1298,3.9404345000000003,-9.368166,3.1166666000000003,-1
251,252,1583586370166,0.0698,-0.60969996,0.96639997,4.2761974,-9.604475,2.9032378,-1
252,253,1583586370177,0.3849,-0.8506,0.7213,4.4659333,-9.886598,2.4201642999999997,-1
253,254,1583586370187,0.6056,-1.2127,0.0545,4.908314,-10.034616,1.5672061000000002,-1
254,255,1583586370197,1.3603,-1.1905,-1.5159999,5.303252,-9.881091,0.8299165000000001,-1
255,256,1583586370207,1.3603,-1.1905,-1.5159999,5.3311209999999996,-9.784891,1.0392463,-1
256,257,1583586370217,0.62,-1.4171,-0.1726,4.665112000000001,-10.049844,2.1823435,-1
257,258,1583586370227,-0.1564,-2.0599,1.4268999,3.8681107000000003,-10.830928,4.1057687000000005,-1
258,259,1583586370238,-0.4249,-3.0649,3.1060000000000003,3.8474534,-11.827002,5.6068945,-1
259,260,1583586370248,0.5435,-3.7956998,3.2271,4.7673345000000005,-12.357183000000001,5.5406904,-1
260,261,1583586370258,0.5435,-3.7956998,3.2271,6.545096400000001,-13.018998,3.7273697999999995,-1
261,262,1583586370268,4.2904,-5.0832,-1.1909,8.956622,-13.689326999999999,0.79346716,-1
262,263,1583586370278,6.245,-5.5829,-3.327,10.935037,-14.109748999999999,-1.02604,-1
263,264,1583586370288,7.9858,-5.9191,-3.6395998,12.577910000000001,-14.439305,-0.8452298,-1
264,265,1583586370298,9.0126,-6.5716996,-2.1295,13.630277,-15.129774,0.85195273,-1
265,266,1583586370308,9.8588,-7.4254,0.2616,14.421866,-15.752851500000002,2.7953932,-1
266,267,1583586370318,11.0562,-8.1296,3.1383997999999997,15.762426999999999,-16.398329,5.590394,-1
267,268,1583586370328,11.0562,-8.1296,3.1383997999999997,17.138443,-17.235378,7.1540666,-1
268,269,1583586370338,13.6782,-10.3314,5.1197,19.038002,-18.641197000000002,7.3813815,-1
269,270,1583586370348,15.508598999999998,-11.0411,4.196399700000001,21.125689,-19.0702,6.2429285000000005,-1
270,271,1583586370358,15.508598999999998,-11.0411,4.196399700000001,22.81656,-18.939954999999998,4.892982,-1
271,272,1583586370369,18.420399,-10.6256,1.1651,23.991615,-18.255634,3.3774238,-1
272,273,1583586370379,17.422499,-10.3603,1.0306,22.936817,-17.838009,3.4087495999999997,-1
273,274,1583586370389,17.422499,-10.3603,1.0306,20.461948,-17.264378,4.439817400000001,-1
274,275,1583586370399,11.3728,-9.3733,3.9287,17.256554,-16.202492000000003,6.1964239999999995,-1
275,276,1583586370409,7.6705,-8.2816,5.8438,13.631626999999998,-14.517396,7.764673700000001,-1
276,277,1583586370420,4.311899700000001,-7.1257,6.9528,10.44392,-12.814208,8.445172999999999,-1
277,278,1583586370430,0.9853,-5.8911,7.5685997,7.7591577,-11.212812,8.401513000000001,-1
278,279,1583586370441,-1.4927,-4.7165,7.3806996,5.866378299999999,-9.723591,7.970642,-1
279,280,1583586370451,-3.4239,-4.0673,7.876,4.561835299999999,-8.763899,8.768007,-1
280,281,1583586370462,-4.3417997,-2.9078999,9.2009,4.087429,-6.922154400000001,9.55206,-1
281,282,1583586370471,-4.9684,-1.9151,9.495299000000001,3.5593257000000005,-6.0752387,9.081648,-1
282,283,1583586370481,-6.0959,-1.8707999,8.3539,2.3239846,-5.649300599999999,7.163978,-1
283,284,1583586370491,-7.7685,-1.6408,6.278,0.71306986,-4.870764299999999,5.0613523,-1
284,285,1583586370501,-9.5176,-1.0288,5.1362,-0.8806927,-3.74954,4.470377,-1
285,286,1583586370511,-11.0776,-0.21669999,5.5797,-2.3111422000000004,-2.5332567999999998,4.920592299999999,-1
286,287,1583586370521,-12.6732,0.61869997,6.1067,-3.793306,-1.348424,5.1792903,-1
287,288,1583586370531,-13.9123,1.2544,6.6179,-4.664048,-0.57259727,5.688183,-1
288,289,1583586370541,-14.364699,1.4593999,7.2465,-4.8171625,-0.32217336,5.9474745,-1
289,290,1583586370551,-14.2416,0.9199,7.2626995999999995,-4.518835500000001,-0.7659243,5.3602824,-1
290,291,1583586370561,-13.657,0.4772,6.1032996,-3.724966,-0.8169016,3.8526535,-1
291,292,1583586370571,-12.830299,0.4491,4.2848,-2.982141,-0.6393380999999999,1.7034745,-1
292,293,1583586370581,-12.2344,0.3324,2.181,-2.357484,-0.8941386,-0.7938215000000001,-1
293,294,1583586370592,-11.6735,-0.1598,0.1951,-1.603033,-1.2407231,-2.8815367000000003,-1
294,295,1583586370602,-10.9029,-0.48819998,-1.5002999,-1.1002793,-1.2428013999999998,-3.3873167,-1
295,296,1583586370612,-10.4213,-0.3222,-0.8538,-1.0193265999999999,-0.8238255999999999,-1.6159042,-1
296,297,1583586370622,-10.9239,-0.2707,1.4979,-1.8153412,-0.81686336,0.38204753,-1
297,298,1583586370632,-12.0694,-0.41849998,3.9717,-3.0188777,-0.8926638000000001,2.6560602,-1
298,299,1583586370642,-12.605,-0.5858,5.2894,-2.750411,-1.0483634,2.9599900000000003,-1
299,300,1583586370653,-11.7397995,-0.9165,5.0573,-1.0984405000000002,-1.6160573999999999,1.599997,-1
300,301,1583586370663,-9.624499,-1.6908,3.0985,1.4148104,-2.5944814999999997,-1.183789,-1
301,302,1583586370673,-7.0632,-2.496,0.0942,3.7811722999999997,-3.0307912999999997,-4.103154,-1
302,303,1583586370683,-4.9651,-2.4698,-2.4215,5.2147055,-2.6339857999999996,-6.0212355,-1
303,304,1583586370693,-4.0315,-1.9065,-3.7491,5.2842426,-1.8516563999999998,-6.251203,-1
304,305,1583586370703,-4.3075,-1.2419,-3.4201,4.487443,-1.5261695,-5.322722,-1
305,306,1583586370714,-5.4293,-1.0179,-1.8859999,3.458338,-1.5272709,-3.619219,-1
306,307,1583586370724,-6.0056,-1.1228,-0.1478,3.7041748,-1.6119682,-2.3123967999999997,-1
307,308,1583586370734,-5.1773996,-1.2846,0.9912,5.3803844000000005,-2.0399268,-1.8933442999999999,-1
308,309,1583586370744,-3.6006,-1.6709,1.0903,6.6478553,-2.5676088,-2.7186543999999997,-1
309,310,1583586370754,-2.0437,-2.3371,-0.30719998,8.366624,-3.3483677000000003,-5.1549654,-1
310,311,1583586370764,-0.63839996,-2.8183,-2.4213,9.632908,-3.3967687999999994,-6.9895754,-1
311,312,1583586370775,0.564,-2.6271,-4.0754,10.288957,-2.7305775000000003,-7.5910463,-1
312,313,1583586370785,1.0088,-1.8416,-4.3603997,9.893971,-1.960334,-6.734267,-1
313,314,1583586370795,0.4554,-1.0495,-3.3183,8.892564,-1.2908194,-5.776529,-1
314,315,1583586370805,-0.6113,-0.4601,-2.4187999,7.8125772,-0.9807703999999999,-5.0688889999999995,-1
315,316,1583586370815,-1.5349,-0.2129,-1.6185,7.797953,-0.69241273,-4.0356665000000005,-1
316,317,1583586370826,-1.306,0.0718,-0.5322,8.429247,-0.49786943,-3.2984917,-1
317,318,1583586370836,-0.6448,0.2374,0.1978,8.914168,-0.5456769,-3.0509121,d
318,319,1583586370846,-0.17359999,0.1556,0.32479998,9.237386,-0.70176923,-3.6373286,-1
319,320,1583586370856,0.11599999999999999,0.029299999,-0.3107,9.430483,-0.9970892,-4.0641193,-1
320,321,1583586370866,0.3716,-0.2067,-0.5985,10.031417999999999,-0.8785858,-4.5040298,-1
321,322,1583586370876,1.0275,0.106599994,-1.1955,10.344330000000001,-0.27259424,-5.9445157,-1
322,323,1583586370887,1.2221999,0.6498,-2.4303,9.899622,-0.1280036,-7.2477465,-1
323,324,1583586370897,0.6056,0.8455,-4.0077,9.088744,-0.1889121,-8.378375,-1
324,325,1583586370907,-0.0999,0.7122,-4.9014,8.881665,-0.6663063,-8.436123,-1
325,326,1583586370917,-0.1768,0.30249998,-4.7752,9.517468,-1.3860799,-8.327684,-1
326,327,1583586370927,0.4906,-0.4172,-4.5688,9.790351,-1.8663855999999999,-9.156481,-1
327,328,1583586370937,0.8161,-0.9062,-5.303,9.624077999999999,-2.5974119,-10.507567,-1
328,329,1583586370948,0.095199995,-2.1573,-7.7727,8.836472,-3.182957,-12.066786,-1
329,330,1583586370958,-0.6755,-2.8004,-9.2682,8.115960000000001,-3.9524152000000004,-13.548979000000001,-1
330,331,1583586370968,-1.0569998999999999,-3.9940998999999997,-10.721499,7.8772397,-5.086759,-15.150652,-1
331,332,1583586370978,-1.0569998999999999,-3.9940998999999997,-10.721499,8.367391,-5.791823,-17.006485,-1
332,333,1583586370988,0.52599996,-5.3553,-15.096399,9.568676,-6.3228664000000006,-19.476477,-1
333,334,1583586370998,1.1495,-6.2619996,-15.1838,10.016698,-7.1691303,-19.13743,-1
334,335,1583586371008,1.1495,-6.2619996,-15.1838,9.647771,-7.510917,-17.392265,-1
335,336,1583586371018,-0.6996,-7.0355,-10.540999000000001,7.612546400000001,-7.4377027,-14.553692000000002,-1
336,337,1583586371028,-0.6996,-7.0355,-10.540999000000001,5.893155,-7.2123218,-14.100546,-1
337,338,1583586371038,-6.9371996,-6.4852,-10.288099,1.3552905000000002,-6.5172663,-14.707973499999998,-1
338,339,1583586371048,-9.0714,-6.5709995999999995,-11.632,-0.31585267,-6.5773034,-16.004261,-1
339,340,1583586371058,-8.9519,-7.0256,-11.757,0.28682540000000006,-6.9137262999999995,-15.164203,-1
340,341,1583586371069,-7.7591996,-7.4986997,-7.6783,1.4863587999999999,-7.3091526,-10.290681,-1
341,342,1583586371079,-7.6513995999999995,-8.1071,-2.0613,1.2906471000000002,-7.6632169999999995,-4.673692,-1
342,343,1583586371089,-9.2366,-7.712999999999999,1.642,-0.5768398,-6.8962107,-1.3177974,-1
343,344,1583586371099,-9.2366,-7.712999999999999,1.642,-3.5539339,-5.551857,0.5926607,-1
344,345,1583586371110,-15.2671995,-5.5745997,5.4467998,-6.556866,-4.510293,2.784696,-1
345,346,1583586371120,-17.119999,-4.7528996,7.8890996,-8.001661,-3.2106724,6.0211205,-1
346,347,1583586371130,-17.1784,-3.2071,10.4221,-7.618531699999999,-1.4982532,8.75708,-1
347,348,1583586371140,-16.5233,-1.8075,12.8842,-6.711024,-0.45304042,10.965684,-1
348,349,1583586371151,-15.390699,-0.83739996,14.0116,-5.331944999999999,0.5583278,12.173998,-1
349,350,1583586371161,-14.0429,0.21,15.969899,-4.3334765,1.1377726000000001,14.406054999999999,-1
350,351,1583586371171,-13.4609995,0.0656,19.7843,-4.031433600000001,0.35863227,19.380160999999998,-1
351,352,1583586371181,-13.7255,-0.5002,22.5914,-4.230698,-0.15666698,21.732810999999998,-1
352,353,1583586371192,-13.642999999999999,-0.5933,24.1524,-3.7116637000000003,-0.22103270000000003,22.232212,-1
353,354,1583586371202,-12.448899,-0.23969999,23.880299,-1.6329701,0.09026141,21.620426000000002,-1
354,355,1583586371212,-10.2394,0.2703,23.4655,0.51626647,0.14156435,21.919548000000002,-1
355,356,1583586371222,-7.3141,0.38979998,24.3815,4.1543994,-0.37998852,23.488901000000002,-1
356,357,1583586371232,-4.4049997,0.1232,25.9748,6.1289263,-1.0832422,25.32031,-1
357,358,1583586371244,-2.7054,-0.9255,28.2764,7.1989913,-3.9271708,27.419546,-1
358,359,1583586371254,-2.3037,-2.9262,28.9674,8.053309,-6.1356206,27.276775,-1
359,360,1583586371264,-1.1520000000000001,-4.6138997,28.5856,10.102382,-8.026877,25.663315,-1
360,361,1583586371275,1.1716,-6.1865,26.371399,13.023997999999999,-9.7887125,22.270636,-1
361,362,1583586371284,4.3058,-7.2145996,22.6531,16.30461,-10.055992,18.908476,-1
362,363,1583586371294,7.608,-7.0202,19.0672,18.554478,-11.151972,15.986870000000001,-1
363,364,1583586371304,9.682799000000001,-8.0114,16.2425,19.433601,-13.224573999999999,15.326243,-1
364,365,1583586371314,10.4616995,-9.7927,15.7911,19.40895,-15.709306,14.885039,-1
365,366,1583586371325,10.495,-12.0886,14.896999,19.350006,-17.828526999999998,12.985766,-1
366,367,1583586371335,10.690599,-14.253599,11.7720995,19.930042,-19.625261,8.5903,-1
367,368,1583586371345,11.46,-15.0932,8.1044,20.701810000000002,-20.245207,5.809482599999999,-1
368,369,1583586371355,12.273399000000001,-15.421498999999999,5.1310997,20.672266,-20.310837,2.809567,-1
369,370,1583586371365,12.126599,-15.2275,1.9043,19.860027,-20.447067,0.002528277,-1
370,371,1583586371375,11.3299,-15.2886,-1.1632999,18.970007,-20.381982999999998,-2.2824404,-1
371,372,1583586371385,10.1832,-14.8083,-3.9529998,17.034239000000003,-19.716661,-4.652298,-1
372,373,1583586371396,8.498099,-14.3686,-6.0383,15.400117999999999,-19.964941,-7.8625964999999995,-1
373,374,1583586371406,7.0497,-14.601299,-9.7653,14.986295000000002,-20.028608,-13.052095,-1
374,375,1583586371416,6.8785996,-14.5948,-14.1571,16.250788,-19.702297,-16.460041,-1
375,376,1583586371426,8.152699,-14.255899,-17.5515,17.272575,-18.668298999999998,-17.301937,-1
376,377,1583586371436,9.1643,-13.228,-18.3416,15.549085999999999,-17.450052,-17.1661,-1
377,378,1583586371446,7.3961,-12.0577,-18.1185,11.518868,-16.116425,-17.397507,-1
378,379,1583586371457,3.3353,-10.7561,-18.321299,6.8575683000000005,-15.131901000000001,-17.786611999999998,-1
379,380,1583586371466,-1.3719,-9.8653,-18.706298999999998,3.5931797,-14.81013,-20.297516,-1
380,381,1583586371476,-4.6893997,-9.627299,-21.2361,3.7538784,-14.551422,-23.378977,-1
381,382,1583586371486,-4.578,-9.4314995,-24.3244,6.706245,-13.648060999999998,-23.557116,-1
382,383,1583586371496,-1.6387999,-8.557,-24.4515,8.181208,-12.758624000000001,-20.682942999999998,-1
383,384,1583586371506,-0.19219999,-7.686,-21.4664,6.782725999999999,-11.908922,-17.330103,-1
384,385,1583586371517,-2.2828999,-6.6056,-17.2202,2.1491888,-10.245230000000001,-14.412481,-1
385,386,1583586371527,-6.3174,-5.2879,-14.917299,-0.5271266,-9.132558,-14.107566,-1
386,387,1583586371537,-9.0216,-4.2542,-14.560599,-0.6130114000000001,-8.360561,-13.733485,-1
387,388,1583586371547,-9.135099,-3.5339,-14.1903,0.85446185,-8.225711,-13.016604,-1
388,389,1583586371557,-7.6850996,-3.3938,-13.5202,2.0916128,-8.308569,-12.572547,-1
389,390,1583586371568,-5.8752,-3.6871,-12.924399000000001,2.6780102,-8.65682,-12.009363,-1
390,391,1583586371578,-5.7264,-4.0634,-11.150499,2.7712789,-9.097382000000001,-9.675218,-1
391,392,1583586371588,-5.7359,-4.388099700000001,-8.0002,2.704021,-9.392071000000001,-6.744888,-1
392,393,1583586371599,-5.8729,-4.7202,-4.6756997,2.5114026000000003,-9.787276,-3.626028,-1
393,394,1583586371609,-5.9476,-5.107,-2.6692,2.5183458,-10.177005,-2.0925898999999997,-1
394,395,1583586371619,-5.357199700000001,-5.0432,-2.6216,3.2292035,-10.067722999999999,-2.257761,-1
395,396,1583586371629,-4.4435,-4.6644998,-3.0263,4.0213013,-9.779844,-2.6225605,-1
396,397,1583586371639,-4.0038,-4.5924997,-3.2366,4.337776,-9.87341,-2.670033,-1
397,398,1583586371650,-3.5899,-4.9575,-2.2254,4.9293356,-10.445452000000001,-0.7764013000000001,-1
398,399,1583586371660,-2.8715,-5.2513,0.2298,5.524371599999999,-10.74737,1.8970122,-1
399,400,1583586371671,-2.3908,-5.4881,2.9054,5.888204,-11.057122,4.466833599999999,-1
400,401,1583586371681,-2.0318,-5.6716,5.532099700000001,6.167023,-11.255429,6.945091000000001,-1
401,402,1583586371691,-1.7344998999999999,-5.4688,7.5909996,6.549339,-10.571962,8.9490185,-1
402,403,1583586371703,-1.2815,-4.4662,9.0926,7.083169,-9.459893,10.146692999999999,-1
403,404,1583586371713,-0.6717,-3.3595998,9.8413,7.6866803,-8.471193,10.195824,-1
404,405,1583586371723,0.0287,-2.2431997999999997,9.6362,8.254011,-7.6024523,10.044107,-1
405,406,1583586371733,0.8969,-1.3332,9.6775,9.340135,-6.847991499999999,10.590952,-1
406,407,1583586371743,1.7803999,-0.8107,10.485499,9.886923,-6.611569,12.055073,-1
407,408,1583586371755,2.0558999,-0.7204,11.8003,9.462133,-6.958804600000001,13.137942,-1
408,409,1583586371764,1.4768,-1.114,12.7266,8.6644535,-7.374945599999999,13.324019,-1
409,410,1583586371774,0.5374,-1.5373,12.9157,8.164572999999999,-7.529496000000001,13.411676000000002,-1
410,411,1583586371784,0.5201,-1.5008999,12.879499000000001,8.947582,-7.2619869999999995,12.826486000000001,-1
411,412,1583586371794,1.3594998999999999,-1.1874,12.132,9.658171000000001,-6.9252095,11.220129,-1
412,413,1583586371804,2.0028,-0.8264,10.2947,9.815988,-6.533757,9.397577,-1
413,414,1583586371815,2.0819,-0.2184,7.9866996,9.675496,-5.6246595,6.986625699999999,-1
414,415,1583586371824,1.8880999,0.5462,6.0877,9.451475,-5.173075,5.915057,-1
415,416,1583586371834,1.5776,0.9977,5.0761,8.963709,-4.766367,5.575425,-1
416,417,1583586371844,1.0925,1.2851,5.0385,8.308253,-4.648208599999999,5.6619134,-1
417,418,1583586371854,0.3967,1.3129,5.157,7.760766499999999,-4.7761927,5.654932,-1
418,419,1583586371864,-0.2394,1.0955,5.0903997,7.4026513,-5.0020809999999996,5.332663,-1
419,420,1583586371874,-0.4387,0.88269997,4.4779,7.4587525999999995,-5.2039886,3.875839,-1
420,421,1583586371884,-0.2979,0.67609996,3.0888999,7.8179398,-5.452105,2.7788732000000005,-1
421,422,1583586371895,0.0729,0.45459998,2.0871,7.9570240000000005,-5.325279,2.4930055,-1
422,423,1583586371905,0.0998,0.65389997,1.9734999,7.520120599999999,-5.1789265,2.7758279999999997,-1
423,424,1583586371915,-0.4563,0.73039997,2.1845,6.8351297,-4.9950614,2.6993284,-1
424,425,1583586371925,-1.1049,0.97849995,2.0198998,6.4987636,-4.626115,2.0304842,-1
425,426,1583586371936,-1.3312,1.2767,1.1816,6.6840367,-4.6161933,1.4013643999999998,-1
426,427,1583586371945,-1.0332999,1.2666,0.7705,7.1265135,-4.5177627000000005,1.8141824,-1
427,428,1583586371955,-0.6611,1.3513,1.2846,7.239310000000001,-4.7851377,2.5738819,d
428,429,1583586371965,-0.6389,0.96849996,1.9985,7.015873,-5.322215,2.9621255,-1
429,430,1583586371975,-0.8804,0.4692,2.1613,6.870870599999999,-5.481266000000001,2.4097927,-1
430,431,1583586371986,-0.95269996,0.3849,1.4409,7.008603999999999,-5.524324,1.5152711,-1
431,432,1583586371996,-0.7374,0.3153,0.5714,7.688269999999999,-5.86837,1.2910494,-1
432,433,1583586372006,-0.1281,0.024999999,0.46559998,8.131322,-6.109648,1.3787633,-1
433,434,1583586372016,0.5783,-0.3419,0.616,8.697455,-6.4113083,1.4593809,-1
434,435,1583586372026,0.89919996,-0.4962,0.6789,8.714991,-6.434417,1.2072332000000001,-1
435,436,1583586372036,0.9228,-0.50769997,0.45619997,8.670591,-6.418299,1.1215398,-1
436,437,1583586372047,0.8664,-0.4538,0.39049998,8.6897745,-6.280824,1.343061,-1
437,438,1583586372056,0.8983,-0.3426,0.5976,8.573013000000001,-6.1893754,1.4541614999999999,-1
438,439,1583586372066,0.74439996,-0.2419,0.6853,8.339808,-6.217080999999999,1.3611133,-1
439,440,1583586372076,0.5227,-0.2981,0.5674,8.191915,-6.374150299999999,1.0356072,-1
440,441,1583586372086,0.41009998,-0.4317,0.24100000000000002,8.363598,-6.6307415999999995,0.5220317,-1
441,442,1583586372096,0.69119996,-0.78859997,-0.4053,9.297413,-7.193312,-0.07505344,-1
442,443,1583586372106,1.5325999,-1.2406,-0.8763,10.45523,-7.396417,-0.027035326000000002,-1
443,444,1583586372117,2.6928,-1.4325,-0.825,11.220915,-7.358579,0.93823975,-1
444,445,1583586372127,3.4545999,-1.4057,0.117199995,11.301207000000002,-7.2121973,2.4721954,-1
445,446,1583586372137,3.5317,-1.272,1.6662999,11.136764,-7.3147364,3.7755985,-1
446,447,1583586372147,3.3388,-1.392,2.9672,11.4104395,-7.5169505999999995,4.416134,-1
447,448,1583586372157,3.6069998999999995,-1.6122999,3.5932,12.696394999999999,-7.984308199999999,4.373067,-1
448,449,1583586372167,4.8686,-2.1053998,3.5109,14.812256,-8.9600315,3.5399038999999997,-1
449,450,1583586372177,6.973099700000001,-3.109,2.6462,17.084602,-9.616224,3.1056724,-1
450,451,1583586372188,9.2262,-3.7975998,2.2031,18.968866000000002,-9.626569,3.9144049,-1
451,452,1583586372198,11.6307,-3.3967,5.9319,19.564985,-8.997927,7.609567599999999,-1
452,453,1583586372208,11.0755,-3.2972,9.7621,18.931786,-8.895809,11.268837,-1
453,454,1583586372218,11.0755,-3.2972,9.7621,18.357504000000002,-8.998722,12.443883,-1
454,455,1583586372228,10.184899,-3.6071,9.5004,18.487844,-8.877134,9.768506,-1
455,456,1583586372238,10.907599000000001,-3.3867998,5.3517,19.400906,-8.430501,5.7600183,-1
456,457,1583586372248,11.8959,-2.8858,2.7363,20.41733,-7.762442599999999,3.8615696,-1
457,458,1583586372259,12.1772995,-2.5733,3.5514997999999998,20.567026000000002,-7.359775999999999,5.243378599999999,-1
458,459,1583586372269,11.072599,-2.9889,6.4142,19.392872,-7.660028,8.090122000000001,-1
459,460,1583586372279,9.2651,-3.3832,8.7744,17.604834,-7.632083000000001,9.926523,-1
460,461,1583586372289,6.8248,-3.1855998,8.7787,15.252310000000001,-7.137211,9.219171000000001,-1
461,462,1583586372299,4.3212,-3.1406999,6.6579,12.999989,-6.801582000000001,6.760594,-1
462,463,1583586372309,2.5963,-3.2707,4.5014997,11.561993,-6.6581600000000005,4.6352897,-1
463,464,1583586372321,2.5963,-3.2707,4.5014997,10.754055000000001,-6.617851299999999,3.8308758999999997,-1
464,465,1583586372331,0.3172,-3.6401,2.9454,9.486871,-6.270855,2.814748,-1
465,466,1583586372341,-0.5032,-3.5233998,2.1819,8.6323805,-5.675733,1.8231175,-1
466,467,1583586372352,-1.2404,-3.2847,1.8912,7.929031,-5.2461843,1.5915983,-1
467,468,1583586372362,-2.5523,-3.1453,1.8228999,6.0101260000000005,-4.816502,1.1409042,-1
468,469,1583586372372,-4.4288,-3.0584998,1.4642,4.1162167,-4.254860400000001,0.26385063,-1
469,470,1583586372382,-6.2212,-2.7342,0.5941,2.6958137000000004,-3.4294066,-1.0464003000000002,-1
470,471,1583586372392,-7.4289,-2.0846999,-0.46809998,1.7550839,-2.5137587000000003,-2.1238678,-1
471,472,1583586372402,-8.2886,-1.5152,-1.1814,0.93013775,-1.7908055,-2.7786627,-1
472,473,1583586372412,-9.088699,-1.0803,-1.3848,0.11768938,-1.1054221000000002,-2.6803088,-1
473,474,1583586372422,-9.863,-0.63769996,-0.745,-0.5374408,-0.6629065,-1.9510446,-1
474,475,1583586372432,-10.751599,-0.39839998,0.5458,-1.6951331000000003,-0.20460847,-0.60514885,-1
475,476,1583586372442,-11.6383,-0.29819998,1.6035,-2.357197,-0.30957988,-0.27981517,-1
476,477,1583586372452,-11.9747,-0.7047,1.3869999999999998,-2.176272,-0.5120239999999999,-1.2268465,-1
477,478,1583586372462,-11.0866995,-0.6839,-0.2527,-0.74971074,-0.09045294,-3.8432205,-1
478,479,1583586372472,-9.7027,-0.35979998,-2.6071,0.784216,-0.069901116,-6.0694065,-1
479,480,1583586372483,-8.1655,-0.5858,-4.2620997,2.0218171999999996,-0.41674432,-6.4939275,-1
480,481,1583586372493,-7.2391,-0.94009995,-3.5084998999999994,2.2672993999999997,-0.8019714,-4.308299,-1
481,482,1583586372503,-7.4810996,-1.2774999,-0.7539,1.6678583999999999,-0.90569776,-2.080111,-1
482,483,1583586372513,-8.479199000000001,-1.3565999,1.6024,0.3733901,-0.9423004,-0.2911158,-1
483,484,1583586372523,-9.4201,-1.3449,2.2763999,-0.13435303,-0.8452777,-0.5012501,-1
484,485,1583586372533,-9.4894,-1.2356,1.5288999,0.5002732,-0.9708009,-1.8878568,-1
485,486,1583586372543,-8.4017,-1.6028,0.138,2.0979047000000004,-1.6111445,-3.0510652,-1
486,487,1583586372553,-6.6365,-2.1331,-0.8556,3.7916492999999996,-2.05615,-4.3069487,-1
487,488,1583586372563,-5.0456,-2.4383,-2.2356,5.208442,-2.3752014999999997,-5.619651,-1
488,489,1583586372573,-3.8258997999999997,-2.5528,-3.1827,6.0125394,-2.2736392000000003,-6.0781217000000005,-1
489,490,1583586372583,-3.2621,-2.3193998,-3.3544,6.2662195999999994,-2.1480297999999998,-6.023668,-1
490,491,1583586372593,-3.0117998,-2.1807,-2.7631,6.490929599999999,-2.139698,-4.6209625999999995,-1
491,492,1583586372604,-2.9097,-2.1708998999999998,-1.5201,6.405926,-1.9934506,-3.6393206,-1
492,493,1583586372614,-3.0031,-1.9411,-0.5703,6.2652335,-1.7135206000000003,-3.0732548,-1
493,494,1583586372624,-3.1132,-1.671,-0.092999995,6.440795400000001,-1.5769457,-3.425011,-1
494,495,1583586372634,-2.7612,-1.5093,-0.5451,7.416585400000001,-1.5677233,-4.081444,-1
495,496,1583586372644,-1.6656,-1.5394,-1.1119,8.594322,-2.0465636000000003,-4.715715400000001,-1
496,497,1583586372655,-0.51629996,-2.0221,-1.7454,9.531892,-2.4144566000000003,-5.213087000000001,-1
497,498,1583586372666,0.3703,-2.2322,-2.1675,10.003108000000001,-2.3135364,-5.6790943,-1
498,499,1583586372676,0.701,-1.9926,-2.6492999,9.761562,-1.7625633,-5.859157,-1
499,500,1583586372686,0.44979998,-1.4961,-2.7677,9.293046,-1.2039291,-5.060136,-1
500,501,1583586372696,-0.024699999,-0.9303,-1.9856,8.748816,-0.6013181,-3.6865919000000003,-1
501,502,1583586372706,-0.5721,-0.3294,-0.6066,8.396686,-0.34993652,-3.0277076000000003,-1
502,503,1583586372716,-0.98709995,-0.0652,0.18899999999999997,8.30313,-0.2646072,-2.8359224999999997,-1
503,504,1583586372726,-0.9691,-0.0082,0.2235,8.800309,-0.4257944,-3.4292532999999996,-1
504,505,1583586372736,-0.50189996,-0.15339999,-0.2881,9.426364,-0.6392518,-4.0712824,-1
505,506,1583586372746,0.1281,-0.34719998,-0.92999995,9.855837,-0.7064619000000001,-4.716625,-1
506,507,1583586372756,0.5577,-0.391,-1.5755,10.221814,-0.5212273000000001,-4.8419094000000005,-1
507,508,1583586372767,0.9166,-0.18439999,-1.7167,10.384371,-0.27834988,-4.636458,-1
508,509,1583586372777,1.0792999,0.062299997,-1.5239999,10.242711,-0.06709511,-3.6306634,d
509,510,1583586372787,0.9302,0.27879998,-0.5298,9.808575999999999,0.16282487,-2.4399502,-1
510,511,1583586372798,0.5099,0.4867,0.6716,9.217053,0.47775814,-2.510847,-1
511,512,1583586372808,-0.5844,0.6519,-0.0121,8.719807000000001,0.2555954,-3.2528197999999997,-1
512,513,1583586372818,-0.0646,0.317,-0.34669998,9.441659,-0.03898718,-3.6172172999999996,-1
513,514,1583586372828,1.1690999,0.3452,-0.8059,10.66093,0.0016567876,-4.095148,-1
514,515,1583586372838,1.1690999,0.3452,-0.8059,11.1510515,0.07296569,-4.506031,-1
515,516,1583586372848,1.6416998999999999,0.53069997,-1.3726,10.765423,0.16247052,-4.5840154,-1
516,517,1583586372858,0.7958,0.4168,-1.3988,9.907341,-0.0025091234,-4.5998745,-1
517,518,1583586372868,0.7958,0.4168,-1.3988,9.3004675,-0.43660662,-4.5670547,-1
518,519,1583586372878,0.0321,-0.069299996,-1.3543,8.714847,-1.303528,-5.3188148,-1
519,520,1583586372888,-0.7089,-1.8391998999999999,-4.5966997,8.619566,-2.3172712000000004,-8.429305000000001,-1
520,521,1583586372898,-0.7089,-1.8391998999999999,-4.5966997,9.029147,-2.594041,-10.828878999999999,-1
521,522,1583586372908,0.1405,-2.3537,-10.218599000000001,9.392118,-2.7613192000000004,-14.005094,-1
522,523,1583586372919,0.0959,-2.8718998,-12.431299000000001,9.294961,-3.3495934000000003,-16.057499,-1
523,524,1583586372929,0.0191,-3.7421,-13.906799,9.308053,-4.1947756,-17.297419,-1
524,525,1583586372939,0.4165,-4.3999,-12.9885,9.651228999999999,-4.746179,-15.922753,-1
525,526,1583586372949,0.4165,-4.3999,-12.9885,9.286313,-5.073428,-14.132676000000002,-1
526,527,1583586372959,-1.3828,-5.1235,-9.017099,7.4339580000000005,-5.202141,-12.232216000000001,-1
527,528,1583586372970,-3.5256998999999998,-5.1752,-8.9095,4.8739243,-5.179654,-12.6867895,-1
528,529,1583586372981,-5.3325996,-5.2242,-10.068399000000001,3.4618528,-5.110232,-13.6698,-1
529,530,1583586372991,-6.2688,-5.2086,-10.8251,2.9255517,-5.10078,-14.119804,-1
530,531,1583586373002,-6.3768997,-5.2531,-10.9584,3.1940472,-4.9859443,-13.138901,-1
531,532,1583586373012,-6.0724998,-5.1647,-9.472199,3.3381587999999995,-4.7948965999999995,-11.43373,-1
532,533,1583586373022,-6.361799700000001,-4.9066997,-7.4645,2.5572755000000003,-4.394538,-8.501954,-1
533,534,1583586373032,-7.4017,-4.699,-4.6225,1.1916612,-4.0233316,-4.583814,-1
534,535,1583586373042,-9.0054,-4.3499,-0.25959998,-0.6091901999999999,-3.602728,0.39051345,-1
535,536,1583586373052,-10.8329,-4.0780997,4.7111998,-2.1932417999999996,-2.8043666000000003,5.832917,-1
536,537,1583586373063,-12.220799000000001,-2.9113998,9.779799,-3.0856662,-1.4733726,9.351196,-1
537,538,1583586373073,-13.2892,-1.2391,12.6247,-4.171628500000001,0.359657,11.78495,-1
538,539,1583586373083,-13.929898999999999,0.0371,13.8244,-4.1595235,1.2949758999999998,12.90196,-1
539,540,1583586373093,-13.519999499999999,0.89919996,14.6472,-2.6088178,2.0677955000000003,13.814506,-1
540,541,1583586373103,-11.13,1.7673999,15.1762,0.5151173,2.6092967999999996,15.062497,-1
541,542,1583586373114,-8.0722,2.0866,16.744,2.7341976000000003,2.3701925,16.864222,-1
542,543,1583586373123,-5.8648996,1.6401999,19.3692,4.599922,1.4914056,20.938892000000003,-1
543,544,1583586373133,-5.0039997000000005,1.1753,23.2941,4.7975783,1.2867973,25.736193,-1
544,545,1583586373143,-5.1682,1.3766999,27.963,4.404575,1.5471332,29.554734999999997,-1
545,546,1583586373154,-5.4953,1.8750999,30.689498999999998,4.4445386,1.9929718,30.98777,-1
546,547,1583586373164,-5.111799700000001,2.4220998,31.171598,5.6225624000000005,2.0521371,29.90987,-1
547,548,1583586373174,-3.8395998,2.4206,29.531599,7.746449,0.7616243,26.838062,-1
548,549,1583586373184,-1.5009999,1.0984,26.1512,10.567929,-1.4393557,23.063776,-1
549,550,1583586373194,1.3848,-0.85969996,22.4441,13.371569000000001,-3.3377566,19.524523000000002,-1
550,551,1583586373204,4.1507998,-2.4052,19.045599,15.649403,-4.8152184,16.616564,-1
551,552,1583586373215,6.2955,-3.5654,16.4674,16.815273,-5.6920996,14.784167000000002,-1
552,553,1583586373225,7.4944997,-4.378,14.3033,17.237658,-6.8696446,11.609694500000002,-1
553,554,1583586373235,7.5502996,-5.2163997,11.715,16.615807999999998,-8.076916,7.963067,-1
554,555,1583586373245,6.9235,-6.2886,7.921,16.214579,-9.088417999999999,3.857873,-1
555,556,1583586373255,6.6259,-7.4129996,2.7856998,16.276107999999997,-10.588874,-2.4949498,-1
556,557,1583586373266,6.8936,-8.4655,-2.2714999,16.39035,-11.761085000000001,-8.223929,-1
557,558,1583586373276,7.0104,-9.4896,-7.93,16.451114999999998,-12.897267,-13.499620000000002,-1
558,559,1583586373286,7.1603,-10.376699,-12.745,16.581896,-13.42879,-17.121225,-1
559,560,1583586373296,7.3879,-10.6482,-15.738898999999998,16.330092999999998,-13.121298000000001,-18.536264000000003,-1
560,561,1583586373306,7.1682997,-10.2183,-16.5501,14.611497,-12.35523,-19.179479999999998,-1
561,562,1583586373317,5.4961,-9.3931,-17.0439,12.146503,-11.837432000000002,-20.684092,-1
562,563,1583586373327,3.0734,-8.8555,-18.4207,10.517652,-11.532267,-23.038033,-1
563,564,1583586373337,1.4748,-8.531799000000001,-20.6721,9.743816,-11.2011,-25.719109,-1
564,565,1583586373347,0.7233,-8.1964,-23.274,9.5428,-10.658574,-27.689306,-1
565,566,1583586373358,0.5338,-7.6561,-25.174799,9.50365,-9.863594,-28.433320000000002,-1
566,567,1583586373367,0.5013,-6.8896,-25.853699,8.679891,-8.424525,-26.937440000000002,-1
567,568,1583586373377,-0.32999998,-5.518399700000001,-24.3211,6.2220225,-7.364699000000001,-23.635216,-1
568,569,1583586373387,-6.2483997,-3.8499,-17.9579,2.1645787,-6.400515,-20.15191,-1
569,570,1583586373398,-6.2483997,-3.8499,-17.9579,0.07433517,-5.776299,-18.78388,-1
570,571,1583586373408,-10.1882,-2.7052999,-15.3826,-1.0371202,-5.1025515,-17.818443,-1
571,572,1583586373418,-10.1882,-2.7052999,-15.3826,-0.20865947,-5.252112400000001,-17.443185999999997,-1
572,573,1583586373428,-9.667399000000001,-2.8174,-15.145999999999999,0.92043644,-5.517936,-16.746751999999997,-1
573,574,1583586373439,-7.3198,-3.6601998999999994,-12.6319,2.0566385,-6.0023403,-14.279364000000001,-1
574,575,1583586373449,-7.3198,-3.6601998999999994,-12.6319,1.7148997,-6.1624165,-10.825258999999999,-1
575,576,1583586373459,-8.8068,-4.1707997,-6.066,0.23730369,-6.331802,-7.529439,-1
576,577,1583586373469,-10.3951,-4.1657,-3.3779,-1.4355729,-6.1536345,-4.655449,-1
577,578,1583586373479,-10.3951,-4.1657,-3.3779,-1.8691723000000002,-6.0065446,-3.7386800000000004,-1
578,579,1583586373490,-11.4326,-3.5865998,0.1715,-1.7606002,-5.416287400000001,-1.2064096000000002,-1
579,580,1583586373500,-10.7445,-3.0504,1.0297999,-1.0684844,-4.8962193,-0.46412078,-1
580,581,1583586373510,-10.2085,-2.7788,1.517,-0.6603113,-4.886268599999999,0.062421627,-1
581,582,1583586373520,-9.823,-3.0589999999999997,2.9394,-0.27445212,-5.2890882,2.5845884999999997,-1
582,583,1583586373530,-9.7542,-3.0094,5.8367,-0.51525134,-4.991441200000001,5.733912,-1
583,584,1583586373540,-10.5629,-2.263,8.847000000000001,-1.5527931000000001,-4.226896,8.979951,-1
584,585,1583586373551,-11.435699000000001,-1.4765999,12.657499000000001,-2.1509603999999998,-3.663301,13.050966,-1
585,586,1583586373561,-11.516999,-1.1697999,16.382,-1.8397907999999998,-3.7358167,16.608192000000003,-1
586,587,1583586373571,-10.4505,-1.5153999,19.3727,-0.37650259999999997,-4.50742,19.39286,-1
587,588,1583586373581,-8.703,-2.1395,21.4615,1.289268,-5.088368,21.304564000000003,-1
588,589,1583586373591,-7.312999700000001,-2.0170999,22.7927,2.2979738999999997,-4.914961,22.74933,-1
589,590,1583586373601,-6.6442,-1.3622999,24.0437,2.712075,-4.4309970000000005,23.960903,-1
590,591,1583586373611,-6.3845997,-0.6767,24.303998999999997,2.8742967,-3.9969857,23.967195999999998,-1
591,592,1583586373622,-5.9955997000000005,-0.011399999,23.8391,3.4441550000000003,-3.5529474999999997,23.626404,-1
592,593,1583586373632,-4.7216997,0.6084,23.4284,5.077728700000001,-3.7072392,23.698632999999997,-1
593,594,1583586373642,-3.2391999,0.1173,23.723299,6.009331700000001,-4.764289,24.062847,-1
594,595,1583586373652,-2.1654,-1.2499,23.7888,7.0663905,-6.776892999999999,23.476967000000002,-1
595,596,1583586373662,-1.1071,-2.5528998,22.5586,8.016544,-8.079386999999999,21.69933,-1
596,597,1583586373672,-0.0548,-3.5017,20.4252,8.744162,-9.236543,19.61382,-1
597,598,1583586373683,0.70309997,-4.2314997000000005,18.2085,9.106969,-9.9775095,17.322058,-1
598,599,1583586373693,1.1330999,-4.7776,15.6255,9.3984585,-11.203733999999999,14.499007999999998,-1
599,600,1583586373703,1.7416999,-5.9469,12.3877,10.107064999999999,-12.385147,11.318157000000001,-1
600,601,1583586373713,2.7619,-6.6517,9.421599,10.854037,-13.110275,9.291868,-1
601,602,1583586373723,3.4062997999999998,-7.1089997,7.7962,10.695876,-13.567519,8.331678,-1
602,603,1583586373734,2.9559,-7.3318,7.0797,9.092030000000001,-13.962485999999998,8.003433,-1
603,604,1583586373744,1.5189999,-7.4378,6.6987,7.2950273,-14.377583,7.479926600000001,-1
604,605,1583586373754,-0.0273,-7.8546,5.8328,6.390287,-15.323301999999998,5.006381,-1
605,606,1583586373764,-0.51199996,-8.6943,2.6167,6.957904300000001,-16.590113,0.20905212,-1
606,607,1583586373774,0.54499996,-9.9016,-2.5070999,8.405622,-17.53429,-3.6227720000000003,-1
607,608,1583586373784,2.7745,-10.630099000000001,-6.8992,11.123757000000001,-17.871776999999998,-7.124761,-1
608,609,1583586373795,5.0787,-10.686399,-9.283199,12.351476,-17.634281,-7.782774000000001,-1
609,610,1583586373805,6.1147,-10.121099000000001,-9.4551,11.753786999999999,-16.335445,-5.9330044,-1
610,611,1583586373815,5.2032,-8.668,-7.2913,9.345048,-15.173368,-3.5857193,-1
611,612,1583586373825,2.6715999,-7.5263,-5.1846,6.7234645,-14.357539000000001,-3.3414434999999996,-1
612,613,1583586373835,0.2695,-6.8264,-5.7139997000000005,5.471689,-14.391373999999999,-6.798891,-1
613,614,1583586373845,-0.429,-6.9284,-9.9999,6.756609399999999,-14.562215,-11.677412,-1
614,615,1583586373856,1.4706999,-7.0722,-14.8057995,10.066881,-14.640026,-14.206512,-1
615,616,1583586373866,4.9486,-7.0044,-16.480999,12.748472,-14.274182000000001,-12.692515,-1
616,617,1583586373876,7.2878,-6.5098996,-14.3565,12.408755000000001,-13.379814000000001,-7.976101,-1
617,618,1583586373886,6.7088,-5.7064,-10.2002,9.507546000000001,-12.835641,-4.0990553,-1
618,619,1583586373896,3.8042998,-5.1438,-6.2753997,6.7461996,-12.103666,-2.0922737000000002,-1
619,620,1583586373907,1.04,-4.4151,-4.2664,5.6207137000000005,-11.284744,-2.2502142999999997,-1
620,621,1583586373917,-0.08109999400000001,-3.6162998999999996,-4.4927,5.8011029999999995,-10.614147,-4.1735916,-1
621,622,1583586373927,0.1236,-2.965,-6.5351,6.4260470000000005,-10.096625999999999,-6.070364499999999,-1
622,623,1583586373937,0.7999,-2.4566998,-8.5636,6.969827700000001,-9.926514,-5.973026,-1
623,624,1583586373948,1.3604,-2.2828999,-8.541699000000001,7.206394,-9.8877945,-4.105586499999999,-1
624,625,1583586373958,1.6164,-2.2364,-6.6709,7.1034429999999995,-9.878324000000001,-1.2335215,-1
625,626,1583586373968,1.0318999,-2.1224,-0.74979997,6.5485153,-9.765191999999999,2.2142150000000003,-1
626,627,1583586373978,0.4983,-1.9887999,1.1452,6.041682,-9.627535,3.714403,-1
627,628,1583586373988,0.1524,-1.6087999,1.1338999,5.748823000000001,-9.1956215,3.3131921,d
628,629,1583586373998,-0.035,-1.138,-0.37799999999999995,5.5558505,-8.680245,1.7581006000000001,-1
629,630,1583586374009,-0.17729999,-0.5913,-2.0081,5.4034166,-8.172225,0.197378,-1
630,631,1583586374019,-0.23449999,-0.38509998,-3.3957,5.367101,-8.01868,-0.94843906,-1
631,632,1583586374029,-0.1157,-0.4066,-3.1487,5.517773,-8.0703945,-0.30678340000000004,-1
632,633,1583586374039,0.06,-0.5858,-1.5942,5.71925,-8.283794,1.258153,-1
633,634,1583586374049,0.3875,-0.6138,-0.0632,6.147448000000001,-8.205992,2.994907,-1
634,635,1583586374060,0.62799996,-0.33929998,1.3145,6.253549,-7.9456754,3.9353206,-1
635,636,1583586374070,0.3041,-0.0315,2.0763,5.7354536,-7.668982499999999,4.465195700000001,-1
636,637,1583586374080,-0.2198,-0.024899999,1.8015,5.319466,-7.684850999999999,3.9229856,-1
637,638,1583586374090,-0.3051,0.0367,1.1837,5.4031487,-7.5871005,3.4767449999999998,-1
638,639,1583586374100,-0.0404,0.29279998,0.3983,5.66539,-7.2994423,2.438073,-1
639,640,1583586374110,0.1134,0.34600000000000003,-0.7035,5.807452,-7.3427296,1.3889243999999998,-1
640,641,1583586374121,0.2546,0.2519,-1.5837,5.980169999999999,-7.4090104000000006,0.83121896,-1
641,642,1583586374131,0.506,0.18949999,-1.4981999,6.2051773,-7.551494,1.3854383,-1
642,643,1583586374141,0.5342,-0.096599996,-0.4393,6.0901117,-7.847303,2.491464,-1
643,644,1583586374151,0.2641,-0.3348,0.54719996,5.8057574999999995,-8.026867999999999,3.2370565,-1
644,645,1583586374161,-0.024699999,-0.5075,0.8853,5.5633300000000006,-8.228871,3.3036919,-1
645,646,1583586374172,-0.16059999,-0.73149997,0.6729999999999999,5.5784616,-8.395164,2.9400318,-1
646,647,1583586374182,0.024999999,-0.82839996,0.0008,5.8106413,-8.522975,2.1728241,-1
647,648,1583586374192,0.2757,-1.1106,-0.7802,6.125182,-8.947391,1.4065648000000002,-1
648,649,1583586374202,0.6346,-1.5191,-1.3615999,6.637024,-9.352221,0.86719906,-1
649,650,1583586374212,1.2549,-1.9544,-1.9472,7.477552,-9.987164,0.35890043,-1
650,651,1583586374223,2.2215,-2.6822,-2.2287,8.480176,-10.569328,0.44619298,-1
651,652,1583586374233,3.2577,-3.2050998,-2.0909998,9.45726,-11.280693,0.44684425,-1
652,653,1583586374243,3.944,-4.0863,-2.1011,9.775736,-12.274411,0.55182517,-1
653,654,1583586374253,4.0873,-4.9365,-1.9801999,9.978353,-12.959268,0.38620389,-1
654,655,1583586374263,4.4484,-5.6944,-2.4696,10.743779,-13.652428,-0.62239665,-1
655,656,1583586374274,5.4579997,-6.4065,-3.7452998,12.10833,-14.322909,-1.9816425,-1
656,657,1583586374284,6.9929,-7.138499700000001,-5.0703,13.785132999999998,-15.106914999999999,-3.1116387999999997,-1
657,658,1583586374294,8.5449,-7.9495997,-5.8690996,15.317010999999999,-16.044485,-3.375834,-1
658,659,1583586374304,9.6461,-8.7444,-5.8082,16.196610999999997,-16.683487,-2.6500366,-1
659,660,1583586374315,10.7155,-9.6139,-4.4556,17.670559,-17.655495000000002,-0.5172816,-1
660,661,1583586374325,11.8561,-10.4246,-2.5154998,18.814125,-18.078915,0.7775218,-1
661,662,1583586374335,12.8363,-10.8617,-1.3821,19.66328,-18.215403,0.7834114999999999,-1
662,663,1583586374346,13.4579,-11.016299,-1.619,19.751972,-18.066933,-0.41550893,-1
663,664,1583586374356,13.245199,-10.8778,-2.8632,18.889513,-17.337027,-1.6796092,-1
664,665,1583586374366,12.3122,-10.3602,-3.7907,17.8751,-16.513079,-1.4916068,-1
665,666,1583586374376,11.1135,-9.6862,-3.4961998,16.676132,-15.677223000000001,-0.019201498,-1
666,667,1583586374387,9.6996,-9.011499,-1.8395,15.571485500000001,-15.158103,1.8118936,-1
667,668,1583586374397,8.0602,-8.5531,0.7255,13.85176,-14.169336,4.765715599999999,-1
668,669,1583586374408,6.3954997,-7.9104996,3.4984998999999997,12.129610000000001,-12.631846000000001,6.8508070000000005,-1
669,670,1583586374418,4.6893997,-6.8476996,5.6207,10.775967,-11.302451,8.147775,-1
670,671,1583586374428,3.0084999,-5.9639997000000005,7.4382,9.069207,-9.993274000000001,9.786788,-1
671,672,1583586374438,-1.1273,-3.8183,10.8124,6.6596155,-8.806984,10.983792999999999,-1
672,673,1583586374448,-3.988,-2.9998999,10.8089,4.0070415,-7.710114999999999,10.293947,-1
673,674,1583586374459,-6.1106,-2.1102,8.099999,2.3730369,-6.552154,7.116755,-1
674,675,1583586374469,-6.1394997,-1.4484999,4.7314997000000005,2.9448392000000005,-5.679238,3.7410263999999995,-1
675,676,1583586374479,-4.1203,-0.64129996,2.2842999,5.2629247,-4.5626016,1.5476886,-1
676,677,1583586374489,-2.2407,0.3241,1.8188,6.8751802,-3.4580507000000007,1.3498796,-1
677,678,1583586374499,-2.7161,0.3154,3.1437,5.986576599999999,-3.3306506000000002,2.6809982999999997,-1
678,679,1583586374509,-5.3099,0.0642,5.3436,2.6634727000000002,-3.0697975,5.006525,-1
679,680,1583586374520,-8.4042,0.1769,7.1169,0.31749988,-2.6556964,6.00574,-1
680,681,1583586374530,-11.0706,0.2845,7.8436,-2.54405,-2.0685232,6.2658362,-1
681,682,1583586374540,-12.857999999999999,0.54859996,7.7675996,-3.8348214999999994,-1.3407434,5.8770947,-1
682,683,1583586374550,-13.3585,0.9736,7.3121,-3.5148125,-0.6646208,5.212254,-1
683,684,1583586374560,-11.859099,1.4329,6.3622,-1.9102952000000002,-0.09000283,4.2917695,-1
684,685,1583586374570,-9.6855,1.8993,4.5797,0.21239443,0.5374217,2.3215904,-1
685,686,1583586374581,-7.8504,1.8666999,1.9674,2.361334,0.40636307,-0.766135,-1
686,687,1583586374591,-6.5211997,1.4166,-0.110599995,3.3210832999999997,0.23827095,-2.1638699,-1
687,688,1583586374601,-6.3452,1.2430999,-0.2658,2.9617424,0.10341994,-1.634148,-1
688,689,1583586374611,-7.2323,0.65169996,0.7054,1.6645734,-0.45671794,-0.15829505,-1
689,690,1583586374622,-8.4172,0.1428,2.3823,0.5387816,-0.32937512,1.9850613999999998,-1
690,691,1583586374632,-9.5384,0.2083,4.7263,-0.41921514,-0.23462220000000003,4.323995,-1
691,692,1583586374642,-10.3263,-0.0718,6.9754996,-0.99973243,-0.41574833,5.786431299999999,-1
692,693,1583586374652,-10.6579,-0.2658,7.6713,-0.8972606,-0.25383326,5.7122779999999995,-1
693,694,1583586374662,-10.0149,0.0796,6.6172,0.20267397,0.27394456,3.8096059999999996,-1
694,695,1583586374673,-8.3941,0.6059,3.2647,2.1071754,0.7734133000000001,0.06529467,-1
695,696,1583586374684,-6.2226,1.0288,-0.49719998,4.961303,1.0726023999999998,-3.566221,-1
696,697,1583586374694,-3.7510998,1.2219,-2.7563999,7.243035000000001,1.1463151000000003,-4.75204,-1
697,698,1583586374704,-1.8898,1.1018,-3.2112,8.023975,0.41289443,-3.6115766000000002,-1
698,699,1583586374715,-1.806,0.28939998,-1.6645,6.9251804,-0.42735544,-1.1650951999999999,-1
699,700,1583586374725,-3.0605998,-0.53679997,0.98179996,5.511720700000001,-0.7532254,1.39581,-1
700,701,1583586374735,-4.4014997000000005,-0.79749995,3.4082,4.720896700000001,-0.40721540000000006,2.7424622000000003,-1
701,702,1583586374745,-5.0204997,-0.43609998,4.5139,4.662075499999999,-0.020982785,2.4894526000000003,-1
702,703,1583586374755,-4.9304,-0.15959999,3.8843,5.3056849999999995,0.14206235,0.46219587,-1
703,704,1583586374766,-4.1601,0.0358,1.6733999,6.693038499999999,0.3624055,-1.9163956999999998,-1
704,705,1583586374776,-2.9884,0.2401,-0.2658,8.106527,0.16260460000000002,-3.1883202,-1
705,706,1583586374786,-1.5690998999999999,0.0862,-1.5439999,9.025346,-0.06072653,-3.6405945,-1
706,707,1583586374796,-0.047399998,-0.2258,-2.121,10.661649,-0.4597825,-3.7115970000000003,-1
707,708,1583586374806,1.1934999,-0.4159,-1.9726,11.177369,-0.32827377,-3.3468544000000002,d
708,709,1583586374816,1.4646,-0.268,-1.5249,10.578675,-0.14112383,-2.8216145,-1
709,710,1583586374827,0.7242,-0.046499997,-0.98709995,9.293764999999999,0.32335132,-2.5307095,-1
710,711,1583586374837,-0.3604,0.30679998,-0.76,8.432674,0.5511261,-2.4267342,-1
711,712,1583586374847,-1.2202,0.4996,-0.6446,8.193265,0.5711895,-2.7054574000000002,-1
712,713,1583586374857,-1.4618,0.4933,-0.9008,8.489255,0.50789636,-2.9012938,-1
713,714,1583586374867,-1.0554,0.39929998,-1.1136999,9.232942999999999,0.44774446,-3.4245129,-1
714,715,1583586374877,-0.4024,0.34309998,-1.5643,9.901729,0.39016867,-3.8668177000000004,-1
715,716,1583586374888,0.7208,0.040599998,-1.1646999,10.387627,0.08546343,-2.7779827,-1
716,717,1583586374898,0.8771,-0.3849,0.85069996,10.490186,-0.31753817,-0.70616496,-1
717,718,1583586374908,0.8771,-0.3849,0.85069996,10.307335,-0.32416534,0.54971826,-1
718,719,1583586374918,0.6997,-0.4782,2.5486,9.877892,-0.37069905,1.3406093000000001,-1
719,720,1583586374928,-0.3784,-0.48259997,3.4717,9.052629,-0.16856137,1.3687651,-1
720,721,1583586374939,-0.3784,-0.48259997,3.4717,8.213883000000001,0.28269777,0.82047373,-1
721,722,1583586374949,-2.0676,0.6045,2.6165,7.346819,1.069509,0.59333104,-1
722,723,1583586374959,-2.8883997999999997,1.0873,2.9343998,6.605716999999999,1.5106455,1.110967,-1
723,724,1583586374969,-3.4564998,1.3978,3.978,6.040236,1.7562810000000002,2.3345191,-1
724,725,1583586374979,-4.2227,1.2204,5.7967997,5.0799885,1.4023318,4.941249,-1
725,726,1583586374989,-4.9126,0.85609996,8.242,4.567332700000001,1.03758,7.4251475000000005,-1
726,727,1583586375000,-5.3004,0.6196,11.6174,4.287201400000001,0.9854343000000001,10.900704,-1
727,728,1583586375010,-5.6794,1.0202,14.6304,3.7720550999999998,1.3721266,13.682929999999999,-1
728,729,1583586375020,-6.8823,1.5365,16.520899,2.4127520000000002,1.907968,15.174535999999998,-1
729,730,1583586375030,-9.2196,2.5514,17.169898999999997,-0.5741295999999999,2.9701126,15.672435,-1
730,731,1583586375040,-11.8161,2.8448,16.7923,-2.9543395,2.6637504,15.015533,-1
731,732,1583586375051,-13.1593,2.1317,15.8925,-3.4237564,1.8859893,14.246476000000001,-1
732,733,1583586375061,-12.0603,1.3283,14.600698999999999,-1.5084524,0.73880273,12.3912,-1
733,734,1583586375071,-9.7053995,0.49499997,12.6712,1.1010072,-0.36238638,9.857358999999999,-1
734,735,1583586375081,-6.7026997,0.043899997999999996,9.3615,4.073332,-0.77097124,6.296952,-1
735,736,1583586375091,-4.179199700000001,-0.0596,6.357,6.024060700000001,-1.4053102,3.6665377999999995,-1
736,737,1583586375102,-3.1720998,-0.7815,4.47,6.2621303,-2.9969083999999997,1.7158668999999998,-1
737,738,1583586375112,-3.4736,-2.3499,2.9336998,5.6076803,-5.6142693,-1.2845371,-1
738,739,1583586375122,-3.8741,-5.1440997,-1.2717,5.7952995000000005,-8.120778,-5.8359146,-1
739,740,1583586375133,-2.6385,-7.5999,-7.4168,7.5155710000000004,-10.5820265,-12.24818,-1
740,741,1583586375143,-0.1783,-9.3645,-13.8011,10.959506,-12.666965,-19.586044,-1
741,742,1583586375153,3.1608,-10.309899,-19.193699,14.372010000000001,-13.047461,-23.133974,-1
742,743,1583586375163,6.4873,-9.749,-21.105,16.699135000000002,-12.088353,-22.913153,-1
743,744,1583586375173,7.837000000000001,-8.4358,-19.9656,15.693016,-11.3869095,-20.744034,-1
744,745,1583586375184,6.2356,-8.0285,-18.3158,13.381433,-12.044866,-20.521881,-1
745,746,1583586375194,3.4252,-9.0601,-18.767,11.115253,-13.850285000000001,-21.873322,-1
746,747,1583586375204,2.1341999,-10.4225,-19.9175,11.146274,-14.885117000000001,-22.578836,-1
747,748,1583586375214,2.4338,-11.1972,-20.595999,11.439217999999999,-15.393069,-23.55404,-1
748,749,1583586375224,2.6780999,-11.5432,-21.7741,11.377524000000001,-15.256437,-25.014294,-1
749,750,1583586375234,2.6022,-11.0342,-23.1822,11.061643,-13.942529,-24.863966,-1
750,751,1583586375244,2.1638,-9.6038,-22.791199,10.003884,-12.71074,-23.191292,-1
751,752,1583586375255,0.9619,-8.389299000000001,-20.9597,8.410955,-11.798492,-20.164263000000002,-1
752,753,1583586375266,-0.7625,-7.5555997,-17.8876,6.7507677,-11.270771,-17.372147000000002,-1
753,754,1583586375276,-2.9643,-7.0614996,-14.5796995,4.0348334,-11.050927,-13.923518,-1
754,755,1583586375286,-5.2356997000000005,-7.0477,-12.0734,2.3504452999999996,-10.968364999999999,-11.838542,-1
755,756,1583586375296,-6.7172,-6.9676,-10.16,2.0885293000000003,-10.893666,-9.561052,-1
756,757,1583586375306,-6.8162,-6.9364,-8.347199,2.9591374,-10.621502,-7.823436999999999,-1
757,758,1583586375317,-5.9642,-6.667000000000001,-6.7022,3.7337863,-10.356005,-6.9595227,-1
758,759,1583586375327,-5.1935997,-6.3729,-5.9479999999999995,4.268268,-10.418206,-6.287193,-1
759,760,1583586375337,-4.6547,-6.4068,-5.391,4.533478700000001,-10.437819500000002,-5.070881,-1
760,761,1583586375347,-4.3884,-6.4026,-4.2735,4.7304254,-10.244732,-2.7707617,-1
761,762,1583586375357,-4.1903,-6.1874,-2.0581,5.078983,-9.9352665,0.6009159000000001,-1
762,763,1583586375367,-3.8342,-5.8659,1.2317,5.278218700000001,-9.63988,4.571680000000001,-1
763,764,1583586375377,-3.622,-5.5495,5.1468,5.169062599999999,-9.579191,7.564834599999999,-1
764,765,1583586375387,-3.7280998,-5.4563,8.068399000000001,5.420511,-9.848222999999999,9.982634,-1
765,766,1583586375397,-3.6399998999999994,-5.5895,10.077,5.9605184,-9.942057,10.40045,-1
766,767,1583586375407,-0.56769997,-5.3841,12.2627,8.719683,-9.670066,12.577221,-1
767,768,1583586375418,1.7919999,-5.065,14.7323,10.952103999999999,-9.483395,15.261868,-1
768,769,1583586375428,3.6378998999999994,-4.8473997,17.319000000000003,12.638282,-9.314631,17.930454,-1
769,770,1583586375438,4.8266,-4.5249,19.7704,13.663545999999998,-9.036359,20.366766000000002,-1
770,771,1583586375448,5.5615997,-4.1291,21.267899,14.381519,-8.640166,21.702345,-1
771,772,1583586375458,6.5014997,-3.5878,22.0416,15.397379,-8.113433,22.51037,-1
772,773,1583586375468,7.3831,-3.3479,22.6484,16.151869,-7.940303,23.026178,-1
773,774,1583586375479,7.704799700000001,-3.1190999,22.1196,16.404629,-7.59594,22.349022,-1
774,775,1583586375489,7.6714997,-2.4034,20.9541,16.332056,-6.73985,21.118736,-1
775,776,1583586375499,7.4012,-1.4650999,18.9937,16.1129,-5.773579,19.034095999999998,-1
776,777,1583586375509,7.365999700000001,-0.93829995,16.7904,16.17132,-5.221888,16.946447,-1
777,778,1583586375519,7.43,-0.7323,15.401198999999998,16.254963,-5.005098,15.710647,-1
778,779,1583586375530,7.0439,-0.8301,14.4234,15.760043,-4.9392953,14.633466,-1
779,780,1583586375540,5.9634,-0.85109997,12.864699,14.46231,-4.7953176,12.22648,-1
780,781,1583586375550,4.8406997,-0.93619996,9.7662,13.619905,-4.6848207,8.441352,-1
781,782,1583586375561,4.2783,-0.8517,5.8187,13.335981,-4.4410143,4.914865,-1
782,783,1583586375570,4.2194,-0.9159,3.698,13.502398000000001,-4.426975,3.8331459000000003,-1
783,784,1583586375580,4.37,-1.1867,3.9615,13.625736999999999,-4.5340815,4.228639,-1
784,785,1583586375590,4.2194,-1.6674999,3.9527,13.408179999999998,-4.984967,3.5396739999999998,-1
785,786,1583586375600,3.7874,-2.2803,2.4573998,12.946549000000001,-5.4315050000000005,1.6402676,-1
786,787,1583586375610,3.2905998,-2.9250998,0.69409996,12.614322,-5.808917500000001,0.16883911,-1
787,788,1583586375620,3.0632,-3.267,0.1927,12.433597,-5.8104115,0.176807,-1
788,789,1583586375631,2.6146998,-3.3063998,0.70919997,12.008453999999999,-5.6948099999999995,0.47296977,-1
789,790,1583586375640,1.8914,-3.4750997999999997,0.5787,11.3084755,-5.644838,0.07240066,-1
790,791,1583586375650,1.1808,-3.4483,-0.0937,10.65911,-5.409123999999999,-0.7122845999999999,-1
791,792,1583586375660,0.5595,-3.3200998,-0.8753,9.945916,-5.025468,-1.9524715,-1
792,793,1583586375670,-0.0469,-3.1125,-2.296,9.414796,-4.555409,-3.5570559999999998,-1
793,794,1583586375680,-0.62839997,-2.7515,-3.4132998,8.894287,-4.1004915,-4.253874,-1
794,795,1583586375691,-1.7429999,-2.4779,-3.3158,7.377157700000001,-3.6463980000000005,-3.9935572,-1
795,796,1583586375701,-3.2428,-2.3704,-2.3739998,5.8439207,-3.197782,-2.9405491,-1
796,797,1583586375711,-4.7847,-1.9404999,-1.2059,4.346108,-2.5291677000000004,-2.2097812,-1
797,798,1583586375722,-6.1359997,-1.4697,-0.8973,3.1095412000000002,-1.8378371,-2.354343,-1
798,799,1583586375732,-7.142299700000001,-0.8206,-1.3577,2.1715793999999997,-0.7508024999999999,-3.5692758999999996,-1
799,800,1583586375742,-7.7455997000000005,-0.1364,-2.7271,1.5474299999999999,-0.23308033,-5.1400065,-1
800,801,1583586375752,-8.4256,0.0488,-3.9580998,0.9599504000000001,-0.1600859,-5.630376999999999,-1
801,802,1583586375762,-8.9148,-0.1258,-3.7637,0.5590844,-0.32551566,-4.7517242,-1
802,803,1583586375772,-9.2021,-0.3816,-2.5971,0.2545611,-0.23170127,-3.8294683,-1
803,804,1583586375783,-9.6615,-0.2216,-1.7127,-0.60433483,0.065122284,-3.209102,-1
804,805,1583586375793,-10.6005,-0.085599996,-1.0708,-1.5977848999999997,0.36004004,-2.899522,-1
805,806,1583586375803,-11.562699,0.2181,-0.8759,-2.5712674,0.8488786,-3.064875,-1
806,807,1583586375813,-12.5597,0.6376,-1.1702,-3.5821471,1.2942001,-3.5199459,-1
807,808,1583586375823,-13.502998999999999,0.9694,-1.6827999,-4.6406813,1.6911396,-4.2461457000000005,-1
808,809,1583586375833,-14.3616,1.2619,-2.1996,-5.440823,1.8124778000000001,-4.1739845,-1
809,810,1583586375844,-15.1133995,1.3159999999999998,-1.8835,-5.854953299999999,1.9330497,-3.0375714,-1
810,811,1583586375854,-15.4716,1.5212,-0.6372,-6.2515480000000005,2.5368197,-1.8872726000000002,-1
811,812,1583586375864,-15.8975,2.1634998,0.5087,-6.7762227,3.020659,-0.83038574,-1
812,813,1583586375874,-16.422698999999998,2.6319999999999997,1.5849999,-7.2226076,3.1641865,-0.014844051,-1
813,814,1583586375884,-16.8141,2.7602,2.2586,-7.2386103,2.855306,0.09310571,-1
814,815,1583586375894,-16.7197,2.4691,2.2384999,-6.8918247,2.3072922,-0.16085204,-1
815,816,1583586375905,-16.2076,1.8973999,2.0219,-6.2717934,1.2054614,0.096093684,-1
816,817,1583586375915,-15.7555,1.0694,2.2975,-5.888558,0.17739119,0.09544246,-1
817,818,1583586375925,-15.3707,0.3103,2.0960999,-5.435853,-0.33148202,-0.5983015,-1
818,819,1583586375935,-14.922298999999999,0.2208,1.3067,-4.9276404000000005,-0.034581847,-1.4429278,-1
819,820,1583586375945,-14.356,0.8746,0.3793,-4.291999,0.2043499,-0.9182338,-1
820,821,1583586375955,-13.833798999999999,1.2895,1.0482,-4.2690244,-0.11776599,1.3228252,-1
821,822,1583586375966,-13.825999,1.1825,3.8765,-4.8187523,-0.785959,4.1678457,-1
822,823,1583586375976,-14.453199,0.69299996,6.4968996,-5.461107,-2.5478232000000003,5.446426,-1
823,824,1583586375986,-14.783899,-0.94979995,7.3671,-3.9452326,-5.050003500000001,4.877726,-1
824,825,1583586375996,-13.2525,-2.5372999,6.6172,-2.1915662,-6.878062700000001,3.2363575,-1
825,826,1583586376006,-11.3905,-3.9067,4.7998,-0.9403370999999999,-9.058424,0.58537275,-1
826,827,1583586376017,-10.0078,-5.5902,1.9497999,1.576055,-10.872041000000001,-0.65957385,-1
827,828,1583586376027,-3.5728,-7.8588996,1.9058,5.7454233,-12.456380000000001,1.36232,-1
828,829,1583586376038,-3.5728,-7.8588996,1.9058,7.348389,-12.721160000000001,3.0760224,-1
829,830,1583586376048,-1.2192999,-7.9898,5.6678,6.6699779999999995,-13.517911999999999,5.2883510000000005,-1
830,831,1583586376059,-2.6099,-8.7543,6.3083,5.0549645,-14.867389999999999,5.8455585999999995,-1
831,832,1583586376069,-2.9635,-10.179,6.1017,4.691113,-16.813856,5.8662634,-1
832,833,1583586376079,-1.9356999,-12.7676,4.745199700000001,5.7243447,-20.100614999999998,4.235237000000001,-1
833,834,1583586376089,1.5869,-15.61,1.6933,9.454769,-23.012722,1.582165,-1
834,835,1583586376099,1.5869,-15.61,1.6933,15.156014,-24.206068,0.058399368,-1
835,836,1583586376111,13.130199,-16.4825,-0.83739996,19.888070000000003,-24.022213,0.0046734820000000005,-1
836,837,1583586376121,15.4633,-15.046498999999999,-0.5129,20.676125,-22.562017,0.8326266999999999,-1
837,838,1583586376131,13.832,-13.8508,0.5018,17.776201,-21.837055,2.3401406000000002,-1
838,839,1583586376142,11.2226,-13.303598999999998,1.9017998999999999,14.692287,-21.373976000000003,4.204945599999999,-1
839,840,1583586376152,9.2506,-12.707299,3.5182998,13.155785,-21.000673000000003,5.986030599999999,-1
840,841,1583586376163,8.5348,-12.226399,4.3933,13.267104000000002,-20.503992,5.0372376,-1
841,842,1583586376173,9.6888,-11.495,2.0985,14.868960000000001,-19.725204,2.4763515,-1
842,843,1583586376184,11.716,-10.7176,-0.188,16.363487,-19.387125,1.4368178999999999,-1
843,844,1583586376194,13.087,-10.4531,-0.4678,16.636148000000002,-19.000107,2.592547,-1
844,845,1583586376204,12.771899000000001,-9.6546,1.1685,14.510182999999998,-17.736486,4.4015293,-1
845,846,1583586376215,10.693299,-8.570499,2.3813999,12.060781500000001,-16.68139,4.8190017,-1
846,847,1583586376226,8.4508,-7.3954,2.5465,10.528474000000001,-15.307607,3.8489953999999997,-1
847,848,1583586376236,7.2548,-5.996299700000001,1.2261,10.121488000000001,-14.0382395,1.8821776999999997,-1
848,849,1583586376246,7.067,-4.8094997,-0.7509,9.804879,-13.301993,0.31628364,-1
849,850,1583586376256,6.8348,-4.2427998,-2.0486999,9.622047,-12.645196,-0.7928926,-1
850,851,1583586376266,6.7074,-3.5874,-3.1884,9.299252000000001,-11.967666,-0.13261005,-1
851,852,1583586376276,6.4330997000000005,-2.8897,-2.5269,8.607347,-11.707302,1.2298056999999998,-1
852,853,1583586376286,5.5094,-2.5727,-0.8513,7.310828999999999,-11.462729,2.6166232000000003,-1
853,854,1583586376296,4.1769,-2.3272998,0.5196,5.8443613,-11.382628,3.7818330000000002,-1
854,855,1583586376306,2.9852998,-2.2831,1.4472,5.1392016,-10.851882000000002,3.6019997999999998,-1
855,856,1583586376316,2.2749,-1.7549,1.2806,4.5862947,-10.14431,2.5884097,-1
856,857,1583586376327,1.7141998999999999,-1.0547,0.23969999,4.1793949999999995,-9.677247999999999,1.5073607,-1
857,858,1583586376337,1.3097999,-0.5907,-0.862,4.283591,-9.398726,0.53974885,-1
858,859,1583586376347,1.6638,-0.15179999,-2.1037,4.561031,-9.256405,0.27248890000000003,-1
859,860,1583586376357,1.6638,-0.15179999,-2.1037,4.538583,-9.439217,0.70485294,-1
860,861,1583586376367,1.2415999,-0.504,-0.43989998,4.0641384,-9.60004,2.0456824,-1
861,862,1583586376377,1.2415999,-0.504,-0.43989998,3.5927867999999994,-9.620851,2.8319097,-1
862,863,1583586376387,0.62939996,-0.5205,0.63729995,2.9503939999999997,-9.534362,3.5659146,-1
863,864,1583586376397,-0.0524,-0.4339,1.4135,2.4432447,-9.207516,3.4662678,-1
864,865,1583586376408,-0.5839,-0.1166,1.3227999,2.198787,-8.930017,2.6030622,-1
865,866,1583586376418,-0.76199996,0.4529,-0.405,2.3776243,-8.579632,1.6252129,-1
866,867,1583586376428,-0.4499,0.58379996,-0.9938,2.708886,-8.456244,1.1037365,-1
867,868,1583586376439,-0.1662,0.57159996,-0.9303,2.9906547000000003,-8.539973,1.3562100000000001,-1
868,869,1583586376449,-0.1662,0.57159996,-0.9303,3.2272785,-9.052572,2.1453290000000003,d
869,870,1583586376459,0.2936,-0.2996,0.43449998,3.4471717000000006,-9.376824000000001,2.690671,-1
870,871,1583586376469,0.243,-0.35999998,1.087,3.3541427,-9.476297,3.2916442999999997,-1
871,872,1583586376479,-0.0177,-0.63089997,1.4129,3.1155171000000004,-9.726453999999999,3.4364263999999998,-1
872,873,1583586376489,-0.2683,-0.7786,0.9449,2.9115887000000003,-9.849956500000001,2.9201121,-1
873,874,1583586376500,-0.35909998,-0.83059996,0.4822,2.8817856,-9.8642645,2.5345786,-1
874,875,1583586376509,-0.2207,-0.853,0.0056,3.082391,-9.880755,2.028837,-1
875,876,1583586376519,0.0858,-0.8542,-0.2701,3.4754998999999995,-9.886377,1.9419273000000001,-1
876,877,1583586376529,0.5466,-1.0297999,0.0858,3.9570024,-10.145085,2.3847207999999998,-1
877,878,1583586376539,0.983,-1.5869,0.6195,4.436407599999999,-10.808192,2.9399933999999996,-1
878,879,1583586376549,1.5424,-2.3811998,1.1725,5.0011616,-11.49959,3.4432836000000004,-1
879,880,1583586376559,2.03,-2.9543,1.6538999,5.4737196,-12.001261999999999,3.8583806000000003,-1
880,881,1583586376570,2.3281999,-3.3082,1.4965998999999999,5.778673599999999,-12.310296000000001,3.5908809999999995,-1
881,882,1583586376580,2.6833,-3.6187,0.9087,6.194278700000001,-12.621897,3.0425131000000003,-1
882,883,1583586376590,3.142,-4.0506997,0.2166,6.7638783,-13.037241999999999,2.3610852,-1
883,884,1583586376600,4.0565,-4.532099700000001,-0.39799999999999996,8.105464,-13.570239,1.9362772000000001,-1
884,885,1583586376610,5.3619,-5.0213,-0.1823,9.497089,-14.041591,2.5074282,-1
885,886,1583586376620,6.6419,-5.499399700000001,0.81979996,10.848567999999998,-14.520335000000001,3.6246011,-1
886,887,1583586376631,8.0728,-6.1169996,1.9,12.368091999999999,-15.249436,4.5441947,-1
887,888,1583586376641,9.275,-7.0555997,2.685,13.599832000000001,-16.085855,5.231647,-1
888,889,1583586376651,10.3071995,-7.6819997,3.0619,14.659698,-16.58817,5.1277574999999995,-1
889,890,1583586376661,11.0617,-8.2539,2.1009,15.369185,-17.010918,3.7091260000000004,-1
890,891,1583586376671,11.2942,-8.5668,0.3857,15.5870285,-17.06993,2.1155837,-1
891,892,1583586376681,11.1407995,-8.403299,-0.7854,15.500445000000001,-16.750917,1.382843,-1
892,893,1583586376692,10.623099,-8.3111,-0.6753,15.074776000000002,-16.6271,1.8499613000000001,-1
893,894,1583586376702,9.8498,-8.2130995,0.41509998,14.569934,-16.278885,3.1008932999999996,-1
894,895,1583586376712,9.0646,-7.8388,2.0176,13.8692465,-15.561851500000001,4.5651589999999995,-1
895,896,1583586376722,8.0559,-7.3694997,3.1246,13.250354999999999,-15.074248,4.9652205,-1
896,897,1583586376732,6.8952,-7.0723,3.7264998,12.248544,-14.574626,5.400218,-1
897,898,1583586376742,5.8443,-6.7805995999999995,3.9828,11.673513999999999,-13.928115,4.2608557000000005,-1
898,899,1583586376753,4.982599700000001,-6.2804,2.1752,11.104987,-13.129179999999998,1.0407212,-1
899,900,1583586376763,4.0449,-5.8458,-1.4125999,10.453218,-12.611448,-2.3818188,-1
900,901,1583586376773,3.1578,-5.6233997,-3.6125998,10.033755000000001,-11.998292999999999,-2.7476528,-1
901,902,1583586376783,2.5174,-5.2521996,-2.4622,9.690521,-11.101492,-0.52173483,-1
902,903,1583586376793,1.7932999,-4.4939,0.5207,8.8829,-9.784854,2.2166765,-1
903,904,1583586376804,0.33519998,-3.5488,3.2645998,6.804914999999999,-8.459213,3.8758676,-1
904,905,1583586376814,-1.8476,-2.9984999,4.4245,4.8574905,-7.586573599999999,3.4512897000000002,-1
905,906,1583586376824,-3.9805998999999996,-2.5088,4.0797,3.3887434,-6.5555353,2.6869361,-1
906,907,1583586376834,-5.5189,-1.9205999,3.6053998,2.6809982999999997,-5.8482494,2.432346,-1
907,908,1583586376844,-6.2379,-1.7185999,3.5598,2.5639029,-5.490479,1.7994724999999998,-1
908,909,1583586376855,-6.3984,-1.7587,2.9004,2.9407215,-5.3044305,1.0397922,-1
909,910,1583586376865,-6.0871,-1.8873999,2.4048,3.4751933,-4.7859426,1.5265238,-1
910,911,1583586376875,-5.6724,-1.6278,3.0986998,3.5821471,-4.227672,2.1928782000000004,-1
911,912,1583586376886,-5.8139,-1.4036,3.7282,3.1116770000000002,-3.8869385999999997,2.7665957999999997,-1
912,913,1583586376896,-6.4047,-1.4547,4.3108997,2.6584547,-3.6729638999999996,2.5960232999999997,-1
913,914,1583586376906,-6.9149,-1.4833,3.9613,2.1996295,-3.1636217,2.0491015999999997,-1
914,915,1583586376916,-7.6092997,-1.063,3.4427,0.9653325,-2.0209648999999996,2.1516693,-1
915,916,1583586376926,-8.6163,-0.54429996,3.7043,-0.27245057,-1.0693271,2.3530693,-1
916,917,1583586376936,-9.8682995,0.1407,3.9255998,-1.0195277,-0.25648606,2.3504642999999996,-1
917,918,1583586376946,-10.7878,0.8767,3.8686998,-1.5531187,0.35946545,1.8687605999999999,-1
918,919,1583586376956,-11.2674,1.1532,3.3158998,-1.7010516,0.32522836,1.53091,-1
919,920,1583586376966,-11.2595,0.65889996,3.0865,-0.55202633,-0.57338256,1.4639107,-1
920,921,1583586376976,-10.2073,-0.0898,3.0261998,1.0963528,-0.83356524,0.38986220000000005,-1
921,922,1583586376987,-8.5847,-0.44619998,1.9490999,2.1142237,-0.85376275,-0.6695241999999999,-1
922,923,1583586376997,-7.4231,-0.5273,0.6879,2.4858804,-0.5063162,-1.4156532,-1
923,924,1583586377007,-7.2124,-0.2827,0.1312,2.2539396000000003,-0.022697033,-1.2784559,-1
924,925,1583586377018,-7.9372997000000005,0.2324,1.0231,1.6290339,0.24076092,-0.2524159,-1
925,926,1583586377028,-7.9372997000000005,0.2324,1.0231,1.0609187,-0.02066675,1.2117821000000002,-1
926,927,1583586377038,-8.6263,-0.11639999599999999,2.8003,0.59432703,-0.36336318,2.8342657000000004,-1
927,928,1583586377048,-8.842899000000001,-0.8443,4.9453998,0.97076255,-0.6068631,3.1444871,-1
928,929,1583586377058,-7.7983,-0.75439996,3.6687,2.1448407000000005,-0.4981759,1.5193892,-1
929,930,1583586377068,-6.2676997000000005,-0.7668,1.1956999,3.7034566,-0.61773276,-1.1274104,-1
930,931,1583586377078,-4.6909,-0.97749996,-1.5467,5.2936760000000005,-0.7684333999999999,-3.6845421999999997,-1
931,932,1583586377089,-3.2017,-0.60249996,-2.9338,6.7122020000000004,-0.39615417,-4.732293,-1
932,933,1583586377099,-3.2017,-0.60249996,-2.9338,7.496743700000001,-0.16310260000000001,-4.618616,-1
933,934,1583586377109,-2.2148,-0.282,-2.2793,7.391619,-0.16166608,-3.7677839,-1
934,935,1583586377119,-2.6755998,-0.2068,-0.48119998,6.838644500000001,-0.10685801,-1.9090407,-1
935,936,1583586377129,-3.2515,-0.4152,1.5426999,6.2984743,-0.29712042,0.02557965,-1
936,937,1583586377139,-3.5037,-0.5869,2.6341,6.1415677,-0.42729798,0.7035505,-1
937,938,1583586377150,-2.9845998,-0.6771,2.1494,6.8420057,-0.47716440000000004,-0.055918977,-1
938,939,1583586377160,-1.6755999,-0.5128,0.5664,8.456014,-0.27093744,-2.2491324,-1
939,940,1583586377170,-0.4689,-0.2392,-1.2810999,9.33526,-0.08167101,-3.5998930000000002,-1
940,941,1583586377180,0.2462,-0.0296,-2.5177999,10.029263,0.085645385,-4.8672013,-1
941,942,1583586377190,0.61939996,0.006,-3.2884998,10.395833999999999,-0.032254685,-5.4124374,-1
942,943,1583586377201,0.9756,-0.081,-3.2735,10.64758,-0.13744633,-5.078005999999999,-1
943,944,1583586377211,1.0306,-0.1859,-2.5196,10.524307,-0.28695944,-4.1383395,-1
944,945,1583586377221,0.7039,-0.38439998,-1.1745,10.135499000000001,-0.5287164000000001,-2.5814664,-1
945,946,1583586377231,0.415,-0.65889996,0.4971,10.0054455,-0.7045273,-1.2565538,-1
946,947,1583586377241,0.4964,-0.6364,0.8147,10.1463,-0.55849063,-1.8545677999999999,-1
947,948,1583586377251,0.5757,-0.44009998,-0.17189999,10.118164,-0.35635296,-2.7387368999999997,-1
948,949,1583586377262,0.4594,-0.2695,-1.1854,10.001576,-0.2855612,-3.62417,-1
949,950,1583586377272,0.4432,-0.3444,-1.7292999,10.128805,-0.41283697,-3.9940553,-1
950,951,1583586377282,0.72349995,-0.4305,-1.8806,10.618734,-0.47169605,-4.0416903,-1
951,952,1583586377292,1.2894,-0.45139998,-1.7716999,11.170474,-0.45290634,-3.7338437999999994,d
952,953,1583586377302,1.767,-0.4016,-1.2616,11.430330999999999,-0.38885665,-3.1683621,-1
953,954,1583586377312,1.8507999,-0.4314,-0.19919999,11.171996,-0.5015182,-1.5602151000000002,-1
954,955,1583586377322,1.3446,-0.5417,1.3064,10.425742999999999,-0.49517837,-0.32443348,-1
955,956,1583586377333,0.60069996,-0.5591,2.2038999,9.695464,-0.44370303,-0.10686758,-1
956,957,1583586377343,-0.125,-0.5026,1.8684,9.150476,-0.2601348,-1.15729,-1
957,958,1583586377353,-0.4693,-0.2861,0.4606,9.163308,-0.044369347,-2.8959403,-1
958,959,1583586377363,-0.2059,-0.1426,-1.3693,9.751047,0.09298122,-4.5172360000000005,-1
959,960,1583586377373,0.51809996,0.0383,-2.5233,10.466147,0.33368468,-4.659969,-1
960,961,1583586377384,1.0467,0.26479998,-2.0860999,10.523407,0.43778458,-3.6660589999999997,-1
961,962,1583586377394,0.7423,0.2418,-0.9217,9.658277,0.26713544,-2.2017176,-1
962,963,1583586377404,-0.072399996,0.0672,0.2992,8.849093,0.35564429999999997,-1.0961421999999998,-1
963,964,1583586377414,-0.8405,0.2276,1.3036,8.175059,0.7741603,-0.7077356,-1
964,965,1583586377424,-1.5231999,0.5974,1.4125,7.549856699999999,0.96582097,-1.2705166,-1
965,966,1583586377434,-2.1306,0.7783,0.802,7.173402,1.3029723999999998,-1.5606651000000002,-1
966,967,1583586377444,-2.6027,1.3136,0.51449996,6.5123053,1.9945423999999998,-0.84260577,-1
967,968,1583586377455,-3.2652,1.8298,1.6744,5.1391444,2.6563764,2.2083254,-1
968,969,1583586377465,-4.876,2.4664,5.1012,2.51531,2.873559,6.701542999999999,-1
969,970,1583586377475,-7.6991,2.4977999,9.6123,-0.44204623,2.814135,10.304769,-1
970,971,1583586377486,-10.4934,2.5052,12.8083,-2.2807355,3.1071568,11.525266,-1
971,972,1583586377496,-12.1068,2.8602,13.562598999999999,-3.0233786,3.5082907999999997,11.271949000000001,-1
972,973,1583586377506,-12.6092,3.2463999,13.2606,-2.6415994,3.6590872,11.292328999999999,-1
973,974,1583586377516,-12.134299,3.5054998,13.304998999999999,-1.9630729999999998,3.196853,12.596422,-1
974,975,1583586377526,-11.576799000000001,3.2134,14.468599,-1.3058742,2.343569,14.186076000000002,-1
975,976,1583586377537,-10.918099,2.5412998,16.0544,-0.89619756,1.4175589,14.8843975,-1
976,977,1583586377547,-10.4473,1.5228,16.9163,-0.7835264000000001,-0.6630981,14.6353245,-1
977,978,1583586377557,-10.3404,-0.0411,16.702,-0.06379111,-2.4719846000000003,12.363236,-1
978,979,1583586377567,-9.5633,-1.6122999,14.566298999999999,1.2254770000000001,-3.5866482000000004,9.160741999999999,-1
979,980,1583586377577,-7.8353996,-2.7094,10.555699,3.6562620000000003,-4.9835595999999995,3.0357711,-1
980,981,1583586377588,-5.7335,-3.5593998,5.5025,5.546197,-6.0876603,-0.9974531999999999,-1
981,982,1583586377598,-3.7545998,-4.3536,1.6143999,7.137842999999999,-7.347862200000001,-3.2401116,-1
982,983,1583586377608,-0.4455,-7.1445,-2.9375,9.014974,-9.985344,-6.5461497,-1
983,984,1583586377618,1.7830000000000001,-9.0033,-6.5400996,11.208464999999999,-11.957275,-10.249203999999999,-1
984,985,1583586377628,4.1865,-10.0652,-9.4466,13.368935,-13.175053,-13.303832,-1
985,986,1583586377638,5.8785,-10.5969,-13.12,14.772205,-13.853024,-17.252607,-1
986,987,1583586377649,6.7774997,-10.308599000000001,-17.1504,15.423054999999998,-13.715998,-21.306910000000002,-1
987,988,1583586377660,7.0877,-10.064199,-20.7195,15.6142845,-13.853071,-25.064571,-1
988,989,1583586377670,7.3061,-10.3362,-23.5246,15.760492999999999,-14.507101,-27.401196999999996,-1
989,990,1583586377680,7.4339,-10.9161,-24.438799,15.627251000000001,-15.241354000000001,-27.770481,-1
990,991,1583586377691,7.0232,-11.3667,-24.5254,15.08823,-15.495301999999999,-27.94632,-1
991,992,1583586377701,6.4832997,-11.049000000000001,-24.728699,14.600617999999999,-15.122592000000001,-27.922366999999998,-1
992,993,1583586377711,5.638,-10.1272,-23.8023,13.320897,-13.951061,-26.466079999999998,-1
993,994,1583586377721,4.0146,-9.0774,-22.1978,11.459003,-12.816804,-24.769070000000003,-1
994,995,1583586377731,1.9059,-7.919699700000001,-20.411998999999998,9.331832,-11.594209,-22.906133999999998,-1
995,996,1583586377741,-0.3626,-6.7822,-18.8183,7.1037784,-10.34004,-21.399326000000002,-1
996,997,1583586377752,-2.6496,-5.4547,-17.3963,5.3125706,-9.188898,-20.123160000000002,-1
997,998,1583586377762,-5.3591,-4.4551,-15.8286,1.5429097,-7.923189,-17.25209,-1
998,999,1583586377772,-8.0816,-3.85,-13.2076,-0.8883542,-7.315894999999999,-13.757131,-1
999,1000,1583586377782,-10.4072,-3.3969998,-9.5103,-2.7400105,-6.898384599999999,-9.729116000000001,-1
1000,1001,1583586377793,-12.035399,-3.2519,-5.6412,-3.8491101000000003,-6.532503,-5.892265,-1
1001,1002,1583586377803,-12.993899,-2.7482,-1.9375,-4.537022,-5.7076144,-1.9715773,-1
1002,1003,1583586377813,-13.7458,-2.0175,1.8738999,-5.4933043,-4.9515634,1.4877761999999999,-1
1003,1004,1583586377823,-14.910298999999998,-1.2428,4.7936,-6.850989,-3.9996671999999998,4.461901,-1
1004,1005,1583586377833,-15.9955,-0.5329,6.9733996,-7.3847135999999995,-3.467053,6.012185,-1
1005,1006,1583586377843,-16.4664,0.10229999599999999,8.3801,-7.3054466,-3.0170581000000003,6.8951955,-1
1006,1007,1583586377854,-15.9663,0.5301,9.1675,-6.164657599999999,-2.866118,8.393018,-1
1007,1008,1583586377864,-14.373698999999998,0.7574,10.903999,-4.13018,-2.6868689999999997,10.518102,-1
1008,1009,1583586377874,-12.317699000000001,1.0311999,13.0152,-2.4930822999999998,-3.035455,13.336229999999999,-1
1009,1010,1583586377884,-11.2451,0.7116,15.365298999999998,-2.1384149,-4.0199795,15.9562435,-1
1010,1011,1583586377894,-10.913799000000001,-0.1866,17.93,-2.1278226000000005,-5.408846400000001,18.691801,-1
1011,1012,1583586377905,-10.7746,-1.3582,20.5763,-1.3446316,-6.306241,21.195332,-1
1012,1013,1583586377914,-9.6377,-1.8089998999999999,22.7753,0.05851429,-6.483249,22.284714,-1
1013,1014,1583586377924,-7.5944996,-1.7396,23.5239,2.7061565,-7.097515,22.430079,-1
1014,1015,1583586377934,-5.0825,-2.1459,23.3177,5.6674776,-8.524842999999999,22.658276,-1
1015,1016,1583586377944,-1.8362999,-3.4691,23.5593,8.682477,-10.54053,23.978975,-1
1016,1017,1583586377954,1.3048999,-5.1429996,24.921999,11.12055,-12.310938,25.691374,-1
1017,1018,1583586377965,3.81,-6.5856,26.3786,12.604744,-13.495464000000002,26.5385,-1
1018,1019,1583586377975,5.8561997,-7.5399,26.8853,14.921928,-14.772713000000001,25.334408,-1
1019,1020,1583586377985,8.1086,-8.3699,24.700499,17.398615,-15.493932999999998,21.223803,-1
1020,1021,1583586377995,10.946799,-8.7073,20.1751,20.169819,-15.778967000000002,17.527386,-1
1021,1022,1583586378005,13.7953,-8.8218,16.6043,21.928320000000003,-16.372528,15.920435999999999,-1
1022,1023,1583586378015,15.472898999999998,-9.3282995,15.212198999999998,22.290985,-17.290121,15.903235,-1
1023,1024,1583586378026,15.695298999999999,-10.1894,15.0422,21.522560000000002,-18.41258,15.168061999999999,-1
1024,1025,1583586378036,14.962,-11.227799000000001,13.687999999999999,20.844503,-19.165901,11.85014,-1
1025,1026,1583586378046,14.5231,-11.764299000000001,9.4298,21.026281,-19.23154,5.6778010000000005,-1
1026,1027,1583586378056,15.059099,-11.764199000000001,2.4023,22.348991,-19.10323,-0.22070709,-1
1027,1028,1583586378066,16.1696,-11.6619,-1.9109999,23.231514,-18.755132999999997,-1.0869867,-1
1028,1029,1583586378076,17.036299,-11.3554,-2.8737,22.665888,-18.443512,0.41774032,-1
1029,1030,1583586378086,16.3993,-11.0926,-1.4061999,20.289479999999998,-18.303078,0.7504386,-1
1030,1031,1583586378097,13.9154,-11.0559,-1.0426999,18.019012,-18.050673,-0.1922927,-1
1031,1032,1583586378107,10.986899000000001,-10.8897,-2.34,16.369434,-17.282992999999998,-2.8776200000000003,-1
1032,1033,1583586378117,9.7115,-10.275,-4.6184998,16.815964,-16.752413,-4.8764905999999995,-1
1033,1034,1583586378127,10.4934,-9.7971,-8.3432,17.586082,-16.394133,-6.9482990000000004,-1
1034,1035,1583586378137,10.679999,-9.0335,-9.0478,17.794138,-15.328991,-7.413454,-1
1035,1036,1583586378148,10.679999,-9.0335,-9.0478,17.108707,-14.340224,-6.651485000000001,-1
1036,1037,1583586378158,7.4384,-7.0875998,-6.6867,14.451622,-12.992068,-5.049112999999999,-1
1037,1038,1583586378168,4.3501997,-6.0983996,-4.7625,11.577862,-11.708844000000001,-3.3466915999999998,-1
1038,1039,1583586378178,1.7149999,-4.9923,-3.3558,9.362602,-10.345872,-2.3295102,-1
1039,1040,1583586378188,-0.120299995,-4.1981997,-2.7991998,7.796076299999999,-9.419048,-2.1224024,-1
1040,1041,1583586378199,-1.6707,-3.9341998,-2.4096,6.475157,-8.916774,-1.8914673,-1
1041,1042,1583586378209,-2.8968,-3.6281998,-2.1411,5.488228299999999,-8.296494000000001,-1.9330115,-1
1042,1043,1583586378219,-4.0441,-3.4132998,-2.5872,4.4214199999999995,-7.903557000000001,-2.7634928,-1
1043,1044,1583586378229,-4.0441,-3.4132998,-2.5872,3.2867122,-7.8794518,-4.2954946,-1
1044,1045,1583586378239,-6.7661,-3.2296999,-7.0234,2.1205637000000004,-7.017367,-7.875928,-1
1045,1046,1583586378249,-6.6358,-2.2855,-9.3575,2.588946,-5.8629017,-9.995563,-1
1046,1047,1583586378260,-5.7156,-1.6093998999999999,-9.4036,3.5818884,-5.038291,-9.776685,-1
1047,1048,1583586378270,-5.3619,-1.3817999,-7.3789,3.779678,-4.670675800000001,-7.8301506,-1
1048,1049,1583586378280,-6.125499700000001,-1.4756,-5.1424,2.5860062000000004,-4.576469,-5.667075,-1
1049,1050,1583586378290,-7.6622,-1.7399,-3.9232998,0.770636,-4.593687999999999,-5.5915527,-1
1050,1051,1583586378300,-10.1493,-2.1118999,-4.7837996,-1.9964002,-4.764308,-7.079597,-1
1051,1052,1583586378310,-12.9607,-2.5825,-6.0360000000000005,-4.502737000000001,-4.947522,-8.324926,-1
1052,1053,1583586378321,-14.7132,-2.9031,-6.8072996,-5.445583,-5.084413,-9.05943,-1
1053,1054,1583586378331,-14.0938,-3.2721999,-7.4579,-3.7136462,-5.4330945,-10.180299,-1
1054,1055,1583586378341,-11.230499,-4.0885,-9.4362,-0.56709063,-6.549885,-12.744288000000001,-1
1055,1056,1583586378351,-7.9031997,-5.5448,-11.8095,2.8121526,-7.7661295,-14.522548,-1
1056,1057,1583586378361,-5.0003,-6.1672997,-12.4403,4.8801494000000005,-7.898759,-14.517012,-1
1057,1058,1583586378371,-4.7967997,-6.0743,-11.6494,3.2379184,-7.687657400000001,-13.202174,-1
1058,1059,1583586378382,-7.4417,-5.990999700000001,-10.5201,0.05748957,-7.298877,-12.284955,-1
1059,1060,1583586378392,-10.4787,-5.4862,-9.8567,-1.8691244999999999,-6.637090700000001,-11.849881,-1
1060,1061,1583586378402,-11.9365,-4.8248997000000005,-9.5225,-2.1120882,-5.8186765,-11.553431,-1
1061,1062,1583586378412,-10.904799,-4.4186997,-9.3642,-0.96151143,-5.638527,-11.299875,-1
1062,1063,1583586378422,-8.88,-4.4741,-8.7385,1.8477970000000001,-6.0405326,-9.806525,-1
1063,1064,1583586378432,-7.0712,-5.3094,-6.8032,3.1882818,-7.1209784,-7.008863000000001,-1
1064,1065,1583586378442,-6.0632997,-6.4252,-3.9143,3.6722267,-7.827497500000001,-5.2478604,-1
1065,1066,1583586378454,-5.8419,-6.7072997,-3.4313,4.003383,-7.247478500000001,-6.560649000000001,-1
1066,1067,1583586378464,-5.4233,-6.0759,-4.8884,4.936461,-6.559136,-7.444425,-1
1067,1068,1583586378474,-4.4395,-5.4715,-5.683,6.0208044,-6.213375,-6.920507000000001,-1
1068,1069,1583586378484,-3.3952,-5.1366997,-4.8732,7.0205082999999995,-5.894083999999999,-4.252676999999999,-1
1069,1070,1583586378494,-2.4438999,-4.8543,-1.9422,7.6871114,-5.8112736,-1.0490626,-1
1070,1071,1583586378504,-1.7245,-4.8848,2.1883,8.2746105,-5.937955400000001,4.3799715,-1
1071,1072,1583586378515,-1.3395,-5.0105,6.6689,8.228996,-6.505496,8.841509,-1
1072,1073,1583586378525,-1.5252,-5.7107997,10.8189,7.937678999999999,-7.5421759999999995,12.30771,-1
1073,1074,1583586378535,-1.7781,-6.5778,13.785398999999998,8.449531,-7.644447,14.410029000000002,-1
1074,1075,1583586378545,-1.0143,-6.4888997,15.472098999999998,9.986272999999999,-7.4904037,15.30684,-1
1075,1076,1583586378555,0.5812,-6.1766996,15.7308,11.494485000000001,-6.7794504,14.244131,-1
1076,1077,1583586378566,1.9945998999999999,-5.2462,14.339398999999998,12.040853,-5.3532720000000005,13.319931,-1
1077,1078,1583586378577,2.2498,-3.7373,13.6384,11.202259,-4.4220904999999995,14.247991,-1
1078,1079,1583586378587,1.2071999,-3.0421999,14.732598999999999,9.572776,-3.9239144,15.454381,-1
1079,1080,1583586378597,-0.16129999,-2.6441,15.6117,8.852838499999999,-3.2302282000000004,15.235598999999999,-1
1080,1081,1583586378607,-1.1218,-1.2257999,13.314198999999999,8.667086999999999,-2.2527237,12.728811,-1
1081,1082,1583586378617,-0.72179997,-0.3005,10.463699,9.126275,-1.3170121000000001,10.015807,-1
1082,1083,1583586378628,-0.3209,0.57049996,8.4964,9.427264,-0.47658977,8.306884,-1
1083,1084,1583586378638,-0.3209,0.57049996,8.4964,9.213338,-0.080090836,7.40291,-1
1084,1085,1583586378648,-0.52849996,1.0949,7.4349,8.736232000000001,0.069958575,6.973284700000001,-1
1085,1086,1583586378658,-1.4362999,1.2069,6.3873,8.267225999999999,0.118532136,6.281418,-1
1086,1087,1583586378668,-1.5956999,1.2933999,5.619,8.145869,0.24818295,5.427214599999999,-1
1087,1088,1583586378678,-1.5956999,1.2933999,5.619,8.200754,0.40509894,4.7754845999999995,-1
1088,1089,1583586378689,-1.3816998999999999,1.5784,4.1247997000000005,8.3952875,0.53432834,3.9051633000000003,-1
1089,1090,1583586378699,-1.2337999,1.5640999,3.6132,8.520246,0.44042775,3.433649,-1
1090,1091,1583586378709,-1.2337999,1.5640999,3.6132,8.615075,0.17417338,3.1578946,-1
1091,1092,1583586378719,-0.86649996,1.0321,2.8163,8.941730499999998,-0.16780479999999998,2.6025164000000003,-1
1092,1093,1583586378729,-0.608,0.76669997,2.299,9.19903,-0.44547474,2.0376573000000002,-1
1093,1094,1583586378740,-0.2902,0.5236,1.6685,9.548354,-0.7287471,1.3928028000000001,-1
1094,1095,1583586378750,0.2729,0.2897,1.1527,10.117839,-0.97448796,0.92817456,d
1095,1096,1583586378760,0.75729996,0.12969999,1.0057,10.561763000000001,-1.1292205,0.7657326999999999,-1
1096,1097,1583586378770,1.0056,0.0696,0.8013,10.689622,-1.2434143,0.47671428,-1
1097,1098,1583586378780,0.79179996,-0.019,0.6238,10.3951645,-1.3337715,0.3440851,-1
1098,1099,1583586378790,0.48889998,-0.065799996,0.7093,10.130835000000001,-1.3641587,0.5994124,-1
1099,1100,1583586378801,0.1857,-0.17379999,1.2253,9.816601,-1.5711038999999998,1.03735,-1
1100,1101,1583586378811,-0.048499997999999996,-0.48589998,1.6021,9.679642999999999,-1.8551998,1.3550128000000001,-1
1101,1102,1583586378821,0.060999997,-0.6058,1.7220999,9.916879,-1.9169703000000002,1.3233328000000002,-1
1102,1103,1583586378831,0.4364,-0.69979995,1.5969,10.306693,-2.000298,1.0750061000000002,-1
1103,1104,1583586378841,0.77309996,-0.6532,1.1503999,10.600041000000001,-1.9084468999999997,0.4287345,-1
1104,1105,1583586378851,1.0414,-0.479,0.36200000000000004,10.860892999999999,-1.7476428,-0.4176254,-1
1105,1106,1583586378862,1.2602,-0.3076,-0.2996,11.045247,-1.6260557,-0.8629469000000001,-1
1106,1107,1583586378872,1.4491,-0.2589,-0.40289998,11.204491,-1.6017784,-0.9610517,-1
1107,1108,1583586378882,1.5388,-0.1881,-0.5767,11.184369,-1.5177515,-1.2085643,-1
1108,1109,1583586378892,1.3626,-0.1739,-0.6347,10.947486999999999,-1.5736896,-1.0234925,-1
1109,1110,1583586378902,1.0876,-0.3516,-0.1156,10.704761999999999,-1.8338148999999997,-0.3019663,-1
1110,1111,1583586378912,0.9790000000000001,-0.502,0.5301,10.654725,-1.7341202000000002,0.32390678,-1
1111,1112,1583586378923,0.94869995,-0.3477,1.1233,10.667442,-1.6171205,0.73963594,-1
1112,1113,1583586378933,0.9673,-0.289,1.3547,10.73855,-1.5951321000000003,0.6864368000000001,-1
1113,1114,1583586378943,1.0936999,-0.27539998,1.1731,10.938839999999999,-1.5121874,0.374434,-1
1114,1115,1583586378953,1.3181,-0.1901,0.7572,11.186983999999999,-1.4745888999999999,-0.041821916,-1
1115,1116,1583586378963,1.5521,-0.1827,0.4159,11.399942999999999,-1.5099177,-0.3300551,-1
1116,1117,1583586378973,1.7171999,-0.20699999,0.163,11.540522,-1.4262738000000001,-0.5407544,-1
1117,1118,1583586378984,1.9016,-0.088599995,-0.09559999400000001,11.731626499999999,-1.3698665,-0.72271377,-1
1118,1119,1583586378994,2.0758,-0.1033,-0.1813,11.900408,-1.3857639,-0.47426262,-1
1119,1120,1583586379004,2.2006,-0.1539,0.14289999,12.052536,-1.4765521000000001,0.13672808,-1
1120,1121,1583586379014,2.3641,-0.2412,0.81689996,12.228079,-1.4128184,0.91600245,-1
1121,1122,1583586379024,2.5073,-0.2259,1.5376999,12.255028999999999,-1.4193403,1.2397271,-1
1122,1123,1583586379035,2.5223,-0.2234,1.8564999,12.367919,-1.1340951000000001,1.3910886,-1
1123,1124,1583586379044,2.674,0.0526,1.8604,12.544362,-0.8228966999999999,1.1982691,-1
1124,1125,1583586379054,2.8549,0.37899998,1.4699999,12.583991000000001,-0.56031984,0.6075718000000001,-1
1125,1126,1583586379064,2.8102,0.4798,0.9464,12.574050999999999,-0.6375663,0.1757344,-1
1126,1127,1583586379074,2.8639997999999998,0.3339,0.53099996,12.874044,-0.7938598000000001,-0.12530294,-1
1127,1128,1583586379084,3.2324998,0.1379,0.27969998,13.526378,-0.93331724,0.0025857379999999998,-1
1128,1129,1583586379095,3.8760000000000003,-0.0314,0.49229997,13.93842,-0.9353763,0.4177786,-1
1129,1130,1583586379105,4.1853,-0.050899997,0.94009995,13.786283,-0.8309125,0.9594524,-1
1130,1131,1583586379116,3.9169,-0.011299999,1.5293,13.130033,-0.86671054,1.441003,-1
1131,1132,1583586379126,3.1857998,-0.134,1.9301,12.178728999999999,-0.94831455,1.4595723999999999,-1
1132,1133,1583586379136,2.2092,-0.306,1.8841,11.130682,-1.0175165000000002,1.0742687,-1
1133,1134,1583586379146,1.3397,-0.47169998,1.5307,10.64034,-0.83852607,0.2926289,-1
1134,1135,1583586379156,0.84559995,-0.3559,0.7431,10.40363,-0.6893864000000001,-0.45270523,-1
1135,1136,1583586379166,0.5670000000000001,-0.29279998,0.0094,10.221594,-0.5510016,-0.88471496,-1
1136,1137,1583586379176,0.41669998,-0.2349,-0.43109998,9.817635000000001,-0.70079243,-1.0148734000000001,-1
1137,1138,1583586379186,0.0123,-0.4703,-0.56369996,9.370915,-0.8945408000000001,-0.6590184,-1
1138,1139,1583586379196,-0.4301,-0.73759997,-0.20369999,9.07231,-1.0986513,-0.0864211,-1
1139,1140,1583586379206,-0.7342,-1.0266,0.3838,9.100448,-1.0835774,0.2038998,-1
1140,1141,1583586379216,-0.6938,-1.0532,0.6749,9.013834,-0.63037413,-0.094130434,-1
1141,1142,1583586379226,-0.7898,-0.72999996,0.43829998,8.395843,-0.18812679,-0.75673056,-1
1142,1143,1583586379237,-1.4046999,-0.382,-0.2112,7.4012723,0.18765754,-1.3174908,-1
1143,1144,1583586379247,-2.4012,-0.1231,-0.7371,6.684439,0.46481988,-1.6611642,-1
1144,1145,1583586379256,-3.2305999,0.1222,-1.1202999,6.2306989999999995,0.69219244,-1.981106,-1
1145,1146,1583586379266,-3.5989999999999998,0.2538,-1.4283,6.2950172,0.6705966999999999,-2.1205924,-1
1146,1147,1583586379276,-3.4873,0.146,-1.4928,6.7385,0.42259577,-1.891362,-1
1147,1148,1583586379286,-3.0426998,-0.1549,-1.2558,7.213930599999999,0.252617,-1.522176,-1
1148,1149,1583586379296,-2.4415,-0.3802,-0.74539995,7.6398399999999995,0.1386147,-0.8390049,-1
1149,1150,1583586379307,-2.1343,-0.5173,-0.17559999,7.511846,0.28984207,-0.08534850000000001,-1
1150,1151,1583586379317,-2.2579,-0.4037,0.59349996,7.107073,0.6162196,0.119892046,-1
1151,1152,1583586379327,-2.6555,-0.1256,0.78639996,6.711302000000001,0.90616703,-0.11388739,-1
1152,1153,1583586379338,-3.0535,0.1171,0.5924,6.446292400000001,1.2826505,-0.74309313,-1
1153,1154,1583586379348,-3.2159998,0.51019996,-0.7959999999999999,6.614969,1.3297396000000001,-1.6333818000000002,-1
1154,1155,1583586379358,-2.7651,0.21419999,-1.4181,7.121725,0.9409021000000001,-2.22112,-1
1155,1156,1583586379368,-2.0498,-0.2488,-1.8395,7.872499,0.5163048,-2.6187682,-1
1156,1157,1583586379378,-1.1381,-0.514,-2.0686998,8.8017845,0.26015395,-2.7538779,-1
1157,1158,1583586379388,-1.1381,-0.514,-2.0686998,9.388594,0.22893356,-2.5313416,-1
1158,1159,1583586379399,-0.1551,-0.25849998,-1.0763,9.550738,0.64047766,-1.6114414,-1
1159,1160,1583586379409,-0.7012,-0.0569,-0.26729998,8.885993,0.7844361999999999,-0.8824644,-1
1160,1161,1583586379419,-1.5798,-0.12719999,0.35619998,8.000666,0.75911516,-0.28252540000000004,-1
1161,1162,1583586379429,-2.2526999,-0.086399995,0.8329,7.4056487,0.8279915999999999,0.12006443,-1
1162,1163,1583586379439,-2.4462,-0.1612,0.7202,7.348456,0.73813236,-0.20296127,-1
1163,1164,1583586379449,-1.8471999,-0.2182,-0.0133,8.308703,0.6992505999999999,-1.1469855,-1
1164,1165,1583586379460,-0.78889996,-0.2395,-0.8268,9.310007,0.64758366,-1.8894465,-1
1165,1166,1583586379470,-0.0061,-0.3037,-1.3895,9.853711,0.5446713000000001,-2.3048213,-1
1166,1167,1583586379480,0.5708,-0.38059998,-1.847,10.468389,0.4944697,-2.8512452,-1
1167,1168,1583586379490,0.87399995,-0.23189999,-2.1389,10.641671,0.6620063,-2.9266818,-1
1168,1169,1583586379500,0.77629995,-0.1454,-1.5873,10.325014,0.6245706,-2.030599,-1
1169,1170,1583586379511,0.17979999,-0.405,-0.5427,9.611426,0.35735855,-0.92480356,-1
1170,1171,1583586379521,-0.5237,-0.55399996,0.5033,9.020432000000001,0.38137716,-0.043651085,-1
1171,1172,1583586379531,-0.90389997,-0.41669998,1.0095999,8.795693,0.5843959,0.23298456,-1
1172,1173,1583586379541,-0.85349995,-0.2012,1.0045998999999999,9.079023,0.8460534,-0.06461471,-1
1173,1174,1583586379551,-0.50049996,0.0163,0.4967,9.483184,1.0363636999999999,-0.8906238999999999,-1
1174,1175,1583586379562,-0.0896,0.1943,-0.3761,9.773773,1.1495328000000002,-1.5631168,-1
1175,1176,1583586379572,0.12459999,0.30769998,-0.90629995,10.03386,1.2166471,-1.9596828000000002,-1
1176,1177,1583586379582,0.40739998,0.3033,-1.2131,10.335213000000001,1.0871209,-2.1173935,-1
1177,1178,1583586379592,0.6805,0.1865,-1.2283,10.5509405,1.039007,-1.8867842000000001,-1
1178,1179,1583586379602,0.8174,0.1891,-0.946,10.467459,1.0004986999999999,-1.6424702000000002,-1
1179,1180,1583586379612,0.6022,0.0751,-0.6421,10.12711,0.8776951999999999,-1.0950313,d
1180,1181,1583586379623,0.2602,0.031999997999999995,0.0446,9.81141,0.9964763000000001,-0.27612808,-1
1181,1182,1583586379633,-0.061899997000000005,0.1823,0.8673,9.5137825,1.2115042999999999,0.45890144,-1
1182,1183,1583586379643,-0.3354,0.3543,1.5218999,9.245372999999999,1.2642821000000002,0.98126835,-1
1183,1184,1583586379653,-0.6193,0.297,1.8815,9.022884,1.0963241000000001,0.9549609,-1
1184,1185,1583586379663,-0.6688,0.120299995,1.6309999,9.2937355,1.1491593,0.108648874,-1
1185,1186,1583586379673,-0.3466,0.3154,0.6821,9.843817999999999,1.4369233000000001,-1.0489955,-1
1186,1187,1583586379684,0.2104,0.5837,-0.385,10.421329,1.6683276999999999,-1.0896587,-1
1187,1188,1583586379694,0.7489,0.8279,-0.1013,10.613984,1.8122957999999998,0.32349497,-1
1188,1189,1583586379704,0.8287,0.8926,1.5288999,10.025471000000001,1.5415595,2.4747715,-1
1189,1190,1583586379714,0.048,0.5579,3.7379,8.593430999999999,1.2423416,4.601301,-1
1190,1191,1583586379724,-1.4672999,0.2794,5.8243,7.039393400000001,1.3534231,6.450343,-1
1191,1192,1583586379735,-2.9939999999999998,0.4418,7.6264997,5.499423999999999,2.0364888,7.7386536999999995,-1
1192,1193,1583586379745,-4.5828,1.2429999,8.7162,3.5171974,2.9503174,8.306979,-1
1193,1194,1583586379756,-6.6362,2.0735,9.1178,1.5504755,3.4259589,8.367735,-1
1194,1195,1583586379766,-8.4763,2.4889,9.096399,0.6299049,3.571651,8.684239,-1
1195,1196,1583586379776,-9.1797,2.6508,9.512,0.73752904,3.5289001000000004,9.704906,-1
1196,1197,1583586379786,-8.979899000000001,2.5953,10.6264,0.5881596,2.7910166000000003,10.773591999999999,-1
1197,1198,1583586379796,-9.3075,1.8402,11.6992,-0.42413762,1.8023360000000002,11.1930275,-1
1198,1199,1583586379806,-10.4557,0.9934,12.0335,-2.1214256000000002,1.1795753,10.943532000000001,-1
1199,1200,1583586379817,-12.2493,0.57559997,11.7836,-4.6048636,0.8174763,10.341544,-1
1200,1201,1583586379827,-14.336499,0.41849998,11.3315,-6.275643,0.6182786,9.745953,-1
1201,1202,1583586379837,-16.0107,0.3672,10.815599,-7.506972,0.2913073,8.577524,-1
1202,1203,1583586379847,-17.230099,0.23709999,9.7291,-8.030363000000001,-0.68983656,6.7950125,-1
1203,1204,1583586379857,-17.745699,-0.4939,8.0423,-7.128017,-2.4056172,4.8175073,-1
1204,1205,1583586379867,-16.8181,-1.9194,6.1846,-5.64728,-3.826164,2.490573,-1
1205,1206,1583586379877,-15.2977,-2.9970999,3.9664,-4.595402,-4.9012275,0.71907455,-1
1206,1207,1583586379887,-14.1838,-3.7117,2.3079,-4.476937,-6.0335317,-0.2898708,-1
1207,1208,1583586379897,-14.0064,-4.4693,1.3955,-4.412552400000001,-7.0532509999999995,-0.36395696,-1
1208,1209,1583586379907,-13.853499,-5.0875998,1.3817999,-4.2248944999999996,-8.451349,0.26563188,-1
1209,1210,1583586379918,-13.5671,-6.0834,2.036,-3.8244116000000004,-9.697283,0.22701820000000003,-1
1210,1211,1583586379928,-13.0484,-6.9058,1.9943999,-3.3353144999999995,-10.924599,-0.9920326999999999,-1
1211,1212,1583586379938,-11.2422,-8.323,-1.5648999,-1.9709643000000001,-12.195518,-3.8197381,-1
1212,1213,1583586379948,-9.2626,-8.5877,-4.9161997,0.25875574,-12.968797,-7.29745,-1
1213,1214,1583586379958,-6.3536,-8.965099,-7.4427,3.0843925,-13.940287,-8.774032,-1
1214,1215,1583586379968,-6.3536,-8.965099,-7.4427,4.9930596,-14.776592,-8.682907,-1
1215,1216,1583586379979,-0.75479996,-10.482599,-7.5432997,7.711197,-16.323322,-7.932163,-1
1216,1217,1583586379989,0.92609996,-12.106,-7.6148,8.884796000000001,-18.63071,-7.91547,-1
1217,1218,1583586379999,1.8557999,-14.9063,-8.6994,9.522266,-21.869127,-8.798594999999999,-1
1218,1219,1583586380009,3.3588,-17.664799,-10.631599000000001,10.962255,-24.877144,-10.546142999999999,-1
1219,1220,1583586380020,6.4611998,-19.865,-13.1015,14.949376,-27.433289000000002,-12.861632,-1
1220,1221,1583586380030,10.906199,-20.8998,-14.6233,18.919672,-28.567673,-13.346525,-1
1221,1222,1583586380040,14.361099,-21.622799,-14.586599,21.313854,-29.279757,-12.57656,-1
1222,1223,1583586380050,16.049099,-22.011,-14.055598999999999,21.971169,-29.754735999999998,-12.046215,-1
1223,1224,1583586380060,16.3897,-22.4231,-14.4246,22.048174,-30.3788,-12.317785,-1
1224,1225,1583586380070,17.1567,-22.893599,-15.1779995,22.71924,-30.899424,-12.856825,-1
1225,1226,1583586380081,19.014398999999997,-23.1731,-15.709399,24.777458,-30.989426,-12.602407000000001,-1
1226,1227,1583586380091,20.3491,-22.5026,-13.904698999999999,25.119991,-30.273857,-9.920001,-1
1227,1228,1583586380101,20.3491,-22.5026,-13.904698999999999,23.619154,-29.617846000000004,-6.71813,-1
1228,1229,1583586380111,16.499199,-20.3956,-6.0333,20.213852,-27.746959999999998,-1.8824171000000003,-1
1229,1230,1583586380121,14.059799,-18.1633,-2.4805,17.870897,-24.988667,2.028885,-1
1230,1231,1583586380132,12.566999000000001,-16.0446,0.82629997,17.125608,-23.549885,4.508674,-1
1231,1232,1583586380142,12.0511,-14.5639,3.3739998,17.044159,-22.199009,6.471642,-1
1232,1233,1583586380152,12.2911,-13.221399,5.3002,17.392257999999998,-20.724,8.693777,-1
1233,1234,1583586380162,12.179,-11.688499,8.4984,16.893621,-19.230179,12.292301,-1
1234,1235,1583586380172,10.603,-10.443999,12.7493,14.396526000000001,-17.698284,17.484222,-1
1235,1236,1583586380182,7.8135996,-9.145599,17.5797,12.143410000000001,-16.379559,21.345964000000002,-1
1236,1237,1583586380193,4.6098,-7.2976,22.2888,8.517775,-13.660279999999998,25.644104000000002,-1
1237,1238,1583586380203,1.3167,-5.0065,25.0052,5.6831646,-11.073537,26.918468,-1
1238,1239,1583586380213,-1.6667,-2.5798,25.831799,3.229673,-8.5041275,26.714857000000002,-1
1239,1240,1583586380223,-4.2204,-0.3204,25.3745,1.1973593,-6.224417,25.503773000000002,-1
1240,1241,1583586380233,-6.3089,1.6042999,23.851799,-0.061023414000000005,-4.60902,23.849035,-1
1241,1242,1583586380243,-7.8202996,3.1434999,21.7515,-1.2534125,-2.849397,21.11978,-1
1242,1243,1583586380253,-8.8027,4.0280000000000005,19.702,-1.8238933000000002,-2.1028464,19.162827,-1
1243,1244,1583586380264,-9.5497,4.3879,18.0255,-2.4419994,-1.6124278,17.454556,-1
1244,1245,1583586380274,-10.4538,4.6257,16.5576,-3.4547467000000003,-1.2239636999999999,15.639538,-1
1245,1246,1583586380284,-11.4541,4.6672,15.2169,-3.8569727,-1.0368426,14.146419,-1
1246,1247,1583586380294,-11.929399499999999,4.7555,13.2553,-3.82988,-0.59365666,11.019466,-1
1247,1248,1583586380304,-11.888499000000001,4.966,10.6438,-3.4479472999999996,-0.37403178,8.11077,-1
1248,1249,1583586380314,-11.5786,4.9584,7.8039,-3.0156503,-0.44885534,4.986260400000001,-1
1249,1250,1583586380324,-11.2128,4.7082,4.8087,-2.532127,-0.7363415,2.5476797,-1
1250,1251,1583586380335,-10.755199000000001,4.2999,2.6011,-1.8174863999999997,-1.3428407,0.5882458,-1
1251,1252,1583586380345,-10.0189,3.5709998999999994,0.8369,-0.9189904000000001,-2.0678047999999998,-0.96888554,-1
1252,1253,1583586380355,-9.1326,2.7735999,-0.6295,0.10583329,-2.7649007,-2.775799,-1
1253,1254,1583586380365,-8.1282,2.0521,-2.4392998,0.89682007,-3.4714105,-4.224607499999999,-1
1254,1255,1583586380375,-7.1457,1.0591999,-4.0111,2.1638412000000002,-4.542701,-5.354498,-1
1255,1256,1583586380386,-6.0596,0.2625,-4.5603,3.2295768,-4.9753904,-5.476889599999999,-1
1256,1257,1583586380396,-5.0678997,-0.1241,-4.6506,3.9907798999999997,-5.374016,-5.838778,-1
1257,1258,1583586380406,-4.3395,-0.5542,-5.0344,4.666816000000001,-5.900146,-6.4478626,-1
1258,1259,1583586380417,-3.5904,-1.0679,-5.7479997,5.9248347,-6.5117593000000005,-7.3542119999999995,-1
1259,1260,1583586380427,-2.5156,-1.5667,-6.4698,7.0137753,-7.1517677,-7.4681854,-1
1260,1261,1583586380437,-1.4203,-2.1919999999999997,-6.581,8.013067,-7.588614,-7.606273700000001,-1
1261,1262,1583586380448,-0.4152,-2.6252,-6.7281,8.689966,-7.583328,-7.669911,-1
1262,1263,1583586380458,0.3726,-2.2807,-6.3683996,8.754561,-7.1577344,-7.075469,-1
1263,1264,1583586380469,-0.0424,-1.8479999,-5.3026,8.278029,-6.709846000000001,-5.8572516,-1
1264,1265,1583586380479,-0.6369,-1.39,-3.998,7.729259,-6.2198677,-4.619315599999999,-1
1265,1266,1583586380490,-1.0533,-1.0555,-3.2811,7.374189,-5.948777,-3.9603447999999997,-1
1266,1267,1583586380500,-1.1702,-1.2112,-2.9742,7.403561,-6.1547647,-3.6241510000000003,-1
1267,1268,1583586380510,-0.7507,-1.2860999,-2.8587,8.009122,-6.170902,-3.5021042999999996,-1
1268,1269,1583586380520,-0.0312,-1.3019999,-2.7656999,8.758113999999999,-6.27798,-3.2719543,-1
1269,1270,1583586380531,0.71,-1.4426999,-2.4654,9.313818,-6.373154,-2.9476645,-1
1270,1271,1583586380541,1.1158,-1.3714,-2.0586,9.627276,-6.2062116,-2.4197526000000003,-1
1271,1272,1583586380551,1.1043999,-1.1631,-1.7867998999999999,9.530455,-5.9904456,-2.1505392000000003,-1
1272,1273,1583586380561,0.96159995,-0.82629997,-1.5465,9.339522,-5.604223,-1.8356439999999998,-1
1273,1274,1583586380571,0.59819996,-0.5079,-1.2185999,8.928505,-5.3213525,-1.4249715,-1
1274,1275,1583586380582,0.1152,-0.3117,-0.7226,8.462708000000001,-5.0914426,-0.8267849,-1
1275,1276,1583586380592,-0.24,-0.037699997,-0.0473,8.144777000000001,-4.8222575,-0.15713625,d
1276,1277,1583586380602,-0.6031,0.1507,0.5006,7.7390656,-4.6786437,0.32292992,-1
1277,1278,1583586380612,-1.0512,0.1577,0.86079997,7.3698125,-4.722879,0.59316826,-1
1278,1279,1583586380622,-1.1913999,0.043899997999999996,1.0007,7.525972400000001,-4.895491000000001,0.5770122,-1
1279,1280,1583586380632,-0.81689996,-0.0909,0.8447,8.08159,-4.9466790000000005,0.21995051,-1
1280,1281,1583586380643,-0.2039,-0.0625,0.3743,8.620017,-4.8619437,-0.44145247,-1
1281,1282,1583586380653,0.21329999,0.0165,-0.3335,8.7546,-4.911743,-1.1795178999999998,-1
1282,1283,1583586380663,0.17729999,-0.1041,-1.1645,8.644476,-5.018975,-1.9424254,-1
1283,1284,1583586380673,0.1082,-0.113699995,-1.6773,8.549723,-4.866722599999999,-1.8036096000000001,-1
1284,1285,1583586380683,-0.0425,0.0167,-1.3203,8.289138000000001,-4.764117,-1.2822673,-1
1285,1286,1583586380694,-0.3732,0.1302,-0.5728,7.796009,-4.585058999999999,-0.27147377,-1
1286,1287,1583586380705,-0.8231,0.27899998,0.30429998,7.5532947,-4.5073433,0.19410272,-1
1287,1288,1583586380715,-1.1155,0.3399,0.9404,7.3803277000000005,-4.427137999999999,0.6608093,-1
1288,1289,1583586380726,-1.1399,0.3775,1.0986999,7.6508055,-4.4103010000000005,0.37825513,-1
1289,1290,1583586380736,-0.81689996,0.3847,0.7603,8.029309,-4.505456400000001,-0.42153272,-1
1290,1291,1583586380746,-0.5201,0.30159998,0.0685,8.154709,-4.5928354,-0.98655474,-1
1291,1292,1583586380756,-0.3692,0.21229999,-0.6387,8.334877,-4.6470785,-1.5297321000000002,-1
1292,1293,1583586380766,-0.20809999,0.1733,-1.0868,8.529698,-4.6616063,-1.553291,-1
1293,1294,1583586380777,-0.0075999996999999994,0.1731,-1.1394,8.720382,-4.671844,-1.1616379,-1
1294,1295,1583586380787,0.18259999,0.1717,-0.7625,8.722555999999999,-4.716472,-0.601184,-1
1295,1296,1583586380798,0.17899999,0.1644,0.1999,8.711821,-4.701848,-0.1566191,-1
1296,1297,1583586380808,0.1827,0.0148,0.2085,8.731233,-4.922526400000001,-0.16797718,-1
1297,1298,1583586380818,0.41329998,-0.4064,0.0844,8.989125999999999,-5.344538,-0.31309456,-1
1298,1299,1583586380828,0.41329998,-0.4064,0.0844,9.351666,-5.5063863,-0.5015182,-1
1299,1300,1583586380838,1.3159,-0.8357,-0.5843,9.910242,-5.7548184000000004,-0.96246904,-1
1300,1301,1583586380848,1.6602,-0.79249996,-1.0084,10.205160000000001,-5.64887,-1.3345568,-1
1301,1302,1583586380858,1.6602,-0.79249996,-1.0084,10.342894,-5.594416000000001,-1.6558108,-1
1302,1303,1583586380868,1.9144,-0.6608,-1.7623999,10.482188,-5.524611,-1.9937571,-1
1303,1304,1583586380878,1.9144,-0.6608,-1.7623999,10.817233,-5.5351357000000005,-2.0537271,-1
1304,1305,1583586380888,2.8257,-0.92139995,-1.5846,11.499227000000001,-5.825131,-1.6727138,-1
1305,1306,1583586380898,3.5396998,-1.2853999,-1.0518,12.253907,-6.1702695,-1.1071746,-1
1306,1307,1583586380909,4.3497,-1.5649998999999999,-0.4806,13.087539999999999,-6.4222546,-0.5560390000000001,-1
1307,1308,1583586380919,5.0181,-1.7836,-0.1121,13.662951999999999,-6.5691440000000005,-0.25775018,-1
1308,1309,1583586380929,5.1895,-1.8769999999999998,0.0029,13.778812,-6.599483,-0.18421945,-1
1309,1310,1583586380939,4.9124,-1.9058,-0.33969998,13.481156,-6.5576034,-0.632663,-1
1310,1311,1583586380950,4.589699700000001,-1.8396,-1.0309,13.252336499999998,-6.3809309999999995,-1.2469959,-1
1311,1312,1583586380960,4.8125,-1.6645,-1.1273,13.684414000000002,-6.135716400000001,-1.0966401000000001,-1
