,Seq,Time,ACCx,ACCy,ACCz,ADGx,ADGy,ADGz,Keydown
0,1,1583586337738,2.1008,-1.3327999,0.3459,6.657078,-7.805519,5.186473400000001,-1
1,2,1583586337748,2.0279,-0.6511,0.303,9.617556,0.9931723,-1.1943618999999999,-1
2,3,1583586337758,-0.1281,-0.010799999,0.0067,9.664492999999998,0.794626,-0.37132153,-1
3,4,1583586337768,0.0084999995,-0.1594,0.5617,9.830028,0.62773097,0.15106454,-1
4,5,1583586337778,0.1633,-0.37759998,0.6167,9.990966,0.34865323,0.27806258,-1
5,6,1583586337788,0.28669998,-0.4658,0.48319998,10.09384,0.2714929,0.17661548,-1
6,7,1583586337798,0.48049998,-0.42949998,0.2995,10.314967999999999,0.32288206,0.0025474306,-1
7,8,1583586337808,0.68509996,-0.2452,0.040599998,10.508592,0.52726066,-0.23685358,-1
8,9,1583586337818,0.68509996,-0.2452,0.040599998,10.524997,0.6987238,-0.46019432,-1
9,10,1583586337828,0.58669996,0.13759999,-0.6351,10.33891,0.90368664,-0.8481315999999999,-1
10,11,1583586337839,0.32299998,0.2095,-0.5458,10.036866999999999,0.9488603999999999,-0.6538278000000001,-1
11,12,1583586337849,-0.042999998,0.0576,-0.061699998,9.689554,0.87580854,-0.17787002,-1
12,13,1583586337859,-0.042999998,0.0576,-0.061699998,9.578013,0.8834987,0.40133524,-1
13,14,1583586337869,-0.1959,-0.079799995,1.3156999,9.612098,0.78774023,1.4067945,-1
14,15,1583586337879,-0.0173,-0.1087,1.9217,9.824022,0.7780102,2.3264554,-1
15,16,1583586337889,0.0969,-0.1557,1.8912,9.821800999999999,0.69720113,2.7024026,-1
16,17,1583586337900,-0.0556,-0.3692,1.8091999,9.613975,0.4595718,2.8276383999999997,-1
17,18,1583586337909,-0.2529,-0.48499998,1.3413,9.415992999999999,0.33323455,2.662582,-1
18,19,1583586337919,-0.33049998,-0.4974,1.1395,9.287289999999999,0.33111809999999997,2.7142396,-1
19,20,1583586337929,-0.6982,-0.4364,1.7727,8.828849,0.45738829999999997,3.6350207,-1
20,21,1583586337939,-0.6982,-0.4364,1.7727,7.962242999999999,0.6461088,5.2995367,-1
21,22,1583586337949,-2.5914,-0.1213,4.919699700000001,6.8190312,0.85134935,6.967395,-1
22,23,1583586337959,-3.6160997999999998,0.0559,6.1976,5.7700644,1.0466492,8.1429,-1
23,24,1583586337969,-4.7481,0.117199995,6.9357996,4.585155,1.1577402,8.9455805,-1
24,25,1583586337979,-6.1235,0.2025,7.7432,3.1713402000000004,1.2930701,9.821819,-1
25,26,1583586337989,-7.5754,0.1758,8.571,1.6814862000000002,1.2384343,10.700444000000001,-1
26,27,1583586337999,-9.0374,-0.069699995,9.0664,0.23811772,0.97759086,11.1776085,-1
27,28,1583586338009,-10.2184,-0.48209998,9.1342,-0.9247173000000001,0.58067054,11.1981125,-1
28,29,1583586338020,-11.1312,-0.86329997,8.4997,-1.7645936999999998,0.23670036,10.398507,-1
29,30,1583586338030,-11.7078,-1.0263,7.0669,-2.4787266,0.110133275,8.397067999999999,-1
30,31,1583586338040,-12.3022995,-1.0383999,4.9275,-2.939189,0.1189631,6.392739,-1
31,32,1583586338050,-12.6015,-0.8964,2.9664,-3.0967848,0.264837,4.6871862,-1
32,33,1583586338060,-12.723499,-0.7637,2.4419999999999997,-3.3914347,0.10592906,4.50448,-1
33,34,1583586338071,-13.363199,-1.3075,2.6193,-4.0839620000000005,-0.75161654,4.3466252999999995,-1
34,35,1583586338081,-14.0657,-2.3611,2.1141,-4.6547785,-2.0216832,3.3397867999999993,-1
35,36,1583586338091,-14.4648,-3.5561,0.7669,-4.859099400000001,-3.2859843,1.6179727,-1
36,37,1583586338101,-14.546598999999999,-4.4519997,-0.9981,-4.767737,-4.261497,-0.53574574,-1
37,38,1583586338112,-14.1458,-5.1766,-3.2150998,-3.9466593,-5.378804,-3.2009517999999995,-1
38,39,1583586338122,-13.216399,-5.9814,-5.0983,-2.9504514,-6.25807,-4.6121516,-1
39,40,1583586338133,-11.7971,-6.8313,-6.6141,-1.2293556,-7.495585,-6.6428084,-1
40,41,1583586338143,-10.4161,-7.5604997,-8.386499,0.2121167,-8.516147,-8.375003999999999,-1
41,42,1583586338153,-8.9552,-8.2354,-9.8912,1.6624092000000001,-9.380099000000001,-9.82363,-1
42,43,1583586338163,-7.5597997,-8.7916,-11.2281,2.9204472999999997,-10.246752,-10.736195,-1
43,44,1583586338173,-6.2676997000000005,-9.2034,-11.7104,4.188473999999999,-10.757569,-10.7806015,-1
44,45,1583586338183,-4.9992,-9.364699,-11.717299,5.1027236,-11.276201,-10.659245,-1
45,46,1583586338194,-4.2234,-9.457399,-11.728399000000001,5.673511,-11.434353,-10.870652,-1
46,47,1583586338204,-3.5756997999999998,-9.4453,-12.53,6.3091145,-12.492006,-12.355307,-1
47,48,1583586338214,-2.6116,-10.7458,-14.8111,7.8974757,-14.361839000000002,-14.8120165,-1
48,49,1583586338224,-0.33179998,-12.0484,-17.2589,11.163636,-15.782979999999998,-15.920905,-1
49,50,1583586338234,2.6153,-12.809999000000001,-17.663399,13.426779999999999,-16.918541,-14.3433275,-1
50,51,1583586338244,4.8069997,-13.5034,-15.9949,14.182992,-17.326033,-12.480294,-1
51,52,1583586338255,5.3789997000000005,-13.565,-14.5859995,13.582469,-17.844215,-11.923411999999999,-1
52,53,1583586338265,4.6986,-14.0856,-14.5083,13.121307,-18.957634,-12.39484,-1
53,54,1583586338275,5.0288,-14.758698999999998,-15.590198999999998,15.045882,-19.524706,-13.701547,-1
54,55,1583586338285,7.6744,-15.026198999999998,-17.192799,18.784810999999998,-20.078743,-14.138882,-1
55,56,1583586338295,11.8473,-15.368098999999999,-17.579898999999997,22.313404000000002,-20.746399,-12.751049,-1
56,57,1583586338306,15.326799,-15.735498999999999,-16.055,23.570198,-21.19154,-9.466511,-1
57,58,1583586338316,16.3942,-15.7984,-13.4232,22.416862,-21.464458,-7.644274,-1
58,59,1583586338326,15.0113,-15.9532995,-11.2775,20.561932000000002,-21.74979,-5.9013624,-1
59,60,1583586338336,13.4716,-15.958699,-9.6887,19.903803,-21.401186,-4.8144236,-1
60,61,1583586338346,13.2668,-15.3508,-8.7316,20.74522,-20.559402,-3.9436237999999997,-1
61,62,1583586338356,14.213698999999998,-14.4781,-8.026199,21.529734,-19.839678,-3.2168398,-1
62,63,1583586338367,15.252998999999999,-13.437798999999998,-7.0285997,22.014626999999997,-19.043968,-1.6945872,-1
63,64,1583586338376,15.6772995,-12.683599000000001,-5.6493998,21.801764000000002,-18.801752,-0.07528328,-1
64,65,1583586338386,15.3813,-12.316899000000001,-3.4018998,21.035629999999998,-18.991056,2.9186084,-1
65,66,1583586338396,14.5355,-12.49,-0.046099997999999996,19.9462,-19.114061,6.9238973,-1
66,67,1583586338406,13.5738,-12.456799499999999,3.5217,19.239995999999998,-18.768847,9.519126,-1
67,68,1583586338416,12.7737,-12.078899,6.3662,18.381712,-18.039919,11.184791,-1
68,69,1583586338427,11.8025,-11.3529,8.2667,17.44989,-16.864689000000002,11.170187,-1
69,70,1583586338437,10.7354,-10.231,8.4475,16.630854,-15.457569,10.173183,-1
70,71,1583586338447,8.6645,-7.9754996,6.9136,15.509169,-14.184016,9.293304,-1
71,72,1583586338457,8.6645,-7.9754996,6.9136,14.481616,-13.363036,9.716609,-1
72,73,1583586338467,5.2172,-6.0814,9.2774,12.28282,-11.855789999999999,11.670910000000001,-1
73,74,1583586338478,2.7845,-4.9525,11.2258,10.0531,-10.461991000000001,13.32921,-1
74,75,1583586338488,0.3902,-3.8630998,12.9135,7.9586716,-9.1740055,14.620095999999998,-1
75,76,1583586338498,-1.6442,-3.0949,13.6299,6.265912999999999,-8.143034,14.841339999999999,-1
76,77,1583586338508,-2.9657,-2.3011,13.0924,5.311278,-7.084778,13.931026000000001,-1
77,78,1583586338518,-3.5031,-1.8618,12.0807,5.0075400000000005,-6.45811,12.795169,-1
78,79,1583586338528,-3.9775,-1.4126999,11.2088995,4.6497793,-5.646562,11.812541,-1
79,80,1583586338539,-3.9775,-1.4126999,11.2088995,4.0774403,-4.791171,9.681577,-1
80,81,1583586338549,-5.0112,-0.2758,6.5494,3.9842962999999996,-3.9964876000000005,6.77268,-1
81,82,1583586338559,-5.0111,0.6139,4.9091997,4.0329559999999995,-2.8234055000000002,5.547030400000001,-1
82,83,1583586338569,-5.6631,1.2369,5.3875,3.3253832,-2.1116857999999996,6.234214,-1
83,84,1583586338579,-6.8206997000000005,1.1381,6.9961996,2.23244,-2.0070975,7.7938160000000005,-1
84,85,1583586338589,-8.1362,1.1165999,8.4473,0.724993,-1.6525258999999999,9.01685,-1
85,86,1583586338599,-9.439199,1.0932,8.7979,-0.31977916,-1.6109433000000002,8.756217999999999,-1
86,87,1583586338610,-10.0616,0.8426,8.019299499999999,-0.58146536,-1.5189295,7.7980203999999995,-1
87,88,1583586338620,-10.0616,0.8426,8.019299499999999,-0.39723635,-0.98558754,6.2714868,-1
88,89,1583586338630,-9.632,1.9188,4.0178,0.041161112,0.16461574,3.1382334,-1
89,90,1583586338640,-9.5953,2.3602998,1.8599999,0.009279925,0.6327396,0.98785716,-1
90,91,1583586338650,-9.718699,2.4903998,-0.2392,-0.07996634,0.82067484,-0.9411128000000001,-1
91,92,1583586338661,-9.66,2.4854998999999998,-1.7752,0.16254714,0.89972186,-2.2055194,-1
92,93,1583586338671,-9.243199,2.3565,-2.6339,0.70407724,0.65958345,-2.8543289,-1
93,94,1583586338681,-8.547999,1.8551999,-3.0628998,1.5429097,0.20937774,-3.1278903,-1
94,95,1583586338691,-7.4284,1.2998999,-3.0321,2.8385751,-0.32515174,-3.0151525,-1
95,96,1583586338701,-6.1309,0.83059996,-3.0541,3.9865184,-0.63851446,-3.3760638,-1
96,97,1583586338712,-5.3234997,0.5854,-3.8590998999999995,4.490306400000001,-0.8165473000000001,-4.3770986,-1
97,98,1583586338722,-5.2914,0.31419998,-4.8037,4.3619385,-1.0212803,-5.2042665,-1
98,99,1583586338732,-5.5243,0.1559,-5.2788,4.144593,-0.98537683,-5.341071,-1
99,100,1583586338742,-5.5898,0.25419998,-4.9491997,4.2729893,-0.8273690999999999,-4.825983,-1
100,101,1583586338752,-5.3008,0.2832,-4.4684,4.8510933,-0.86573374,-4.434148,-1
101,102,1583586338762,-4.588,0.1786,-3.9694998,5.482530000000001,-0.89943457,-3.9371784,-1
102,103,1583586338772,-3.8734,0.1567,-3.3162,6.2881985,-0.9327331,-3.5245620000000004,-1
103,104,1583586338782,-3.2061,0.0685,-3.3270998,6.9588814,-1.0642705,-3.89437,-1
104,105,1583586338792,-2.577,-0.0581,-3.593,7.681576,-1.1392665000000002,-4.034718,-1
105,106,1583586338802,-1.6925,-0.107099995,-3.6957998,8.649178,-1.2039291,-4.280746499999999,-1
106,107,1583586338813,-0.7981,-0.1801,-4.040499700000001,9.277695,-1.2158905,-4.5993476,-1
107,108,1583586338823,-0.3653,-0.106599994,-4.2241,9.424182,-1.1540531,-4.5363708,-1
108,109,1583586338833,-0.3743,-0.1161,-4.0476,9.272619,-1.314206,-4.122863300000001,d
109,110,1583586338843,-0.5309,-0.2782,-3.4736998,9.188649,-1.4058752,-3.4869347,-1
110,111,1583586338853,-0.55009997,-0.2954,-2.8908,9.266863,-1.3440473,-2.9988525000000004,-1
111,112,1583586338863,-0.4217,-0.2436,-2.4153,9.485405,-1.4472374,-2.4086146,-1
112,113,1583586338874,-0.2339,-0.3655,-1.8844999,9.698107,-1.5944521,-1.8983912,-1
113,114,1583586338884,0.022799998999999998,-0.514,-1.3727,9.971908,-1.6716220000000002,-1.5782673,-1
114,115,1583586338894,0.2602,-0.5427,-1.1093,10.07076,-1.5934848999999998,-1.7422606,-1
115,116,1583586338904,0.3111,-0.44309998,-1.3627,9.997611000000001,-1.4874696000000003,-2.1731689999999997,-1
116,117,1583586338914,0.2538,-0.3353,-1.7468,10.026438,-1.4048697,-2.2022154,-1
117,118,1583586338925,0.2944,-0.2304,-1.6566,10.0071125,-1.3138995,-1.9196900000000001,-1
118,119,1583586338935,0.24669999,-0.1488,-1.3622,9.894306,-1.380832,-1.7289008999999997,-1
119,120,1583586338945,0.1504,-0.2568,-1.1625,9.815145,-1.5794643999999998,-1.6403346,-1
120,121,1583586338955,0.084199995,-0.4737,-1.0386,9.826386999999999,-1.7145452,-1.5492879,-1
121,122,1583586338965,0.0871,-0.5714,-0.9134,9.84648,-1.7149571,-1.6140941,-1
122,123,1583586338975,0.1291,-0.5209,-0.9528,9.955081,-1.4998332,-1.6153392,-1
123,124,1583586338986,0.2688,-0.2826,-0.88439995,10.122158,-1.2856671,-1.4383694,-1
124,125,1583586338996,0.4278,-0.0927,-0.68479997,10.165436,-1.1618678999999998,-1.2512864,-1
125,126,1583586339006,0.4495,0.0072999996999999995,-0.4843,10.156041,-1.1384621000000001,-1.3664954,-1
126,127,1583586339016,0.44169998,0.0264,-0.58559996,10.140191,-1.0971093,-1.7631953999999999,-1
127,128,1583586339026,0.42389998,0.063099995,-0.96089995,10.141025,-1.0554503,-1.9695468999999997,-1
128,129,1583586339036,0.4256,0.0972,-1.1387,10.090822,-0.9220933000000001,-1.9607936999999998,-1
129,130,1583586339047,0.37829998,0.2269,-1.099,9.758058,-0.8401254000000001,-1.7417147000000002,-1
130,131,1583586339057,0.046299997999999995,0.3055,-0.8448,9.445471000000001,-0.81272614,-1.2761766,-1
131,132,1583586339067,-0.266,0.3154,-0.3566,9.390959,-0.75980467,-0.83592117,-1
132,133,1583586339077,-0.2622,0.3479,0.2409,9.443642,-0.7787284000000001,-0.7155406999999999,-1
133,134,1583586339088,-0.2622,0.3479,0.2409,9.312975999999999,-0.9259335999999999,-0.8822441999999999,-1
134,135,1583586339098,-0.35779998,0.24399999,0.1727,9.197747,-1.1098848999999997,-1.2212822,-1
135,136,1583586339108,-0.50189996,0.0275,-0.2199,9.267007000000001,-1.217643,-1.5266005,-1
136,137,1583586339118,-0.4303,-0.0813,-0.5056,9.441946000000002,-1.261026,-1.658655,-1
137,138,1583586339128,-0.2601,-0.0971,-0.6155,9.557443,-1.2482027,-1.4839741000000002,-1
138,139,1583586339138,-0.0775,0.0267,0.0791,9.598872,-1.1466694,-0.8897332,-1
139,140,1583586339148,-0.0775,0.0267,0.0791,9.483022,-1.1122598999999997,-0.62488663,-1
140,141,1583586339159,-0.396,0.0541,0.51739997,9.268635,-1.1628924999999999,-0.6254420999999999,-1
141,142,1583586339169,-0.45229998,0.042799998,0.0603,9.236102,-1.1461427,-1.212577,-1
142,143,1583586339179,-0.37109998,0.1901,-0.6034,9.359633,-0.9513983,-1.9113581999999998,-1
143,144,1583586339189,-0.1915,0.36699998,-1.1169,9.543192,-0.85049707,-2.3862052000000005,-1
144,145,1583586339199,-0.1915,0.36699998,-1.1169,9.540224,-0.83740556,-2.3022068,-1
145,146,1583586339209,-0.29209998,0.43629998,-0.6947,9.251339,-0.7974224,-1.5923452,-1
146,147,1583586339220,-0.6019,0.3768,0.034399997,8.981541,-0.8911793,-0.95670384,-1
147,148,1583586339230,-0.6958,0.28039998,0.6245,8.968727000000001,-0.9815844000000001,-0.5292144,-1
148,149,1583586339240,-0.6958,0.28039998,0.6245,9.162628999999999,-1.1467459,-0.23635559,-1
149,150,1583586339250,-0.32479998,-0.0486,0.8598,9.37213,-1.3497552,-0.5293293,-1
150,151,1583586339260,-0.0667,-0.0651,0.2916,9.684038000000001,-1.315202,-1.2366818000000002,-1
151,152,1583586339271,0.2004,0.078999996,-0.3249,9.897151,-1.2231401000000002,-1.832589,-1
152,153,1583586339281,0.33949998,0.1051,-0.82809997,10.042527,-1.2132473,-2.1946497000000003,-1
153,154,1583586339291,0.48819998,0.1372,-1.0363,10.168452,-1.2242128,-2.3473903999999997,-1
154,155,1583586339301,0.55829996,0.1635,-1.0133,10.150323,-1.2116767,-2.0369484,-1
155,156,1583586339312,0.41329998,0.1636,-0.6744,9.940438,-1.2521771000000002,-1.7968099999999998,-1
156,157,1583586339321,0.1312,0.1478,-0.2985,9.619931,-1.2551842,-1.4062392,-1
157,158,1583586339331,-0.25849998,0.15959999,0.051,9.135354,-1.2675287,-1.1038611,-1
158,159,1583586339342,-0.6091,0.0857,0.23169999,8.986272999999999,-1.3740516,-1.0437186999999999,-1
159,160,1583586339351,-0.55759996,-0.0008,0.267,9.202688,-1.4320008,-1.0332321,-1
160,161,1583586339361,-0.1531,0.0083,0.3033,9.618725,-1.3863481000000002,-1.0124217,-1
161,162,1583586339371,0.14289999,0.1296,0.2033,9.770354,-1.2718669,-1.1616763,-1
162,163,1583586339381,0.0951,0.33879998,-0.0876,9.664703,-1.0169708,-1.4863298999999999,-1
163,164,1583586339391,0.0083,0.635,-0.3867,9.5927515,-0.769008,-1.7259034,-1
164,165,1583586339402,-0.097399995,0.81299996,-0.5136,9.466252,-0.68393725,-1.7533696,d
165,166,1583586339412,-0.2805,0.8246,-0.5931,9.292203,-0.7845033,-1.8991,-1
166,167,1583586339422,-0.23709999,0.5341,-0.65849996,9.574566,-1.1698452,-1.8406527,-1
167,168,1583586339432,0.4438,0.2474,-0.3746,10.225147,-1.3982233999999998,-1.5503414,-1
168,169,1583586339443,1.4769999999999999,0.0023,-0.0134,11.7293,-1.8152071,-1.3665242,-1
169,170,1583586339453,2.4782,-0.2856,-0.3346,12.567317999999998,-1.9986509,-1.8438321,-1
170,171,1583586339463,3.2010999,-0.3197,-0.8685,12.993333,-1.9364591,-2.3096,-1
171,172,1583586339473,3.7436,-0.2716,-1.5311999,13.850887,-2.1385967999999997,-2.8829062000000003,-1
172,173,1583586339483,4.3327,-0.5441,-1.8305,14.150269,-2.4180287999999996,-2.8190863,-1
173,174,1583586339494,4.4788,-1.0501,-1.6896,13.93931,-3.154648,-2.5529947,-1
174,175,1583586339504,4.203,-1.9106,-1.5756999,13.830201999999998,-4.018361,-2.8574319999999997,-1
175,176,1583586339514,4.2114,-2.6160997999999998,-2.0035,14.043697,-4.289318,-3.1050402999999998,-1
176,177,1583586339524,4.8568997000000005,-2.8453999,-2.1348,15.231978,-4.1855145,-2.5520754,-1
177,178,1583586339534,5.7278,-2.7479,-1.5820999,15.944989999999999,-4.211238,-1.8721700000000001,-1
178,179,1583586339544,6.3142,-2.8316,-1.0018,15.911204000000001,-4.282518,-1.3649726999999998,-1
179,180,1583586339555,6.1256,-2.9873,-0.5851,15.484269,-4.45945,-1.2404549999999999,-1
180,181,1583586339565,5.6917,-3.2661,-0.5534,15.230522,-4.741755,-0.9299271000000001,-1
181,182,1583586339575,5.513,-3.5958,-0.1734,15.30141,-4.7147193,-0.5056554,-1
182,183,1583586339585,5.5801,-3.5723,0.20009999,15.2622595,-4.3468647,-0.03530011,-1
183,184,1583586339595,5.4516,-3.2868,0.7344,14.661267,-3.9663877,0.68083435,-1
184,185,1583586339606,4.716,-3.0451,1.4597,13.7295685,-3.5489826,1.3138709,-1
185,186,1583586339616,3.7463,-2.7466,2.0843,12.453325,-3.2206419,1.5010208999999999,-1
186,187,1583586339626,2.6797,-2.6492,2.1943,11.680659,-3.2205079,1.3942968999999998,-1
187,188,1583586339636,1.8986,-2.7870998,2.0960999,11.344944,-3.0409715,1.4242626,-1
188,189,1583586339646,1.4916999,-2.6857998,2.0679998,10.937633,-2.7698522,0.8519336,-1
189,190,1583586339657,1.0471,-2.5534,1.3594998999999999,10.324515,-2.4676175,-0.5634323,-1
190,191,1583586339667,0.5361,-2.4233,0.1672,9.625802,-2.1551932999999996,-1.1105744,-1
191,192,1583586339677,-0.1582,-2.2611,-0.3653,8.646075,-1.6893392,-0.4921521,-1
192,193,1583586339687,-1.1431999,-1.9434999,0.2846,7.513005000000001,-1.0970423,0.43245986,-1
193,194,1583586339697,-2.2616,-1.5180999,1.2307999,6.2290425,-0.35691799999999996,1.4621773,-1
194,195,1583586339708,-3.5331,-0.9511,2.3107998,4.9387593,0.41699332,1.9329443,-1
195,196,1583586339718,-4.8115,-0.3621,2.8313,3.8198915,0.8973564,1.8862861000000002,-1
196,197,1583586339728,-5.9117,-0.0383,2.8251998,2.9135616,1.1743655000000002,1.3370467,-1
197,198,1583586339738,-7.5543,0.2512,1.198,1.9932592,1.5284775,-0.10226115,-1
198,199,1583586339748,-8.3523,0.5571,-0.13509999,1.163266,1.9590986000000001,-1.3122619,-1
199,200,1583586339758,-9.2084,0.81939995,-0.3303,0.26812187,2.3169167,-1.225927,-1
200,201,1583586339769,-10.200399,1.0848,0.74469995,-0.81353056,2.6894355,-0.04437892,-1
201,202,1583586339779,-11.4656,1.393,1.8857,-2.137706,3.1268656000000004,0.992502,-1
202,203,1583586339789,-13.0349,1.8774998999999999,2.4025,-3.7696707000000003,3.7526622000000005,1.3489506000000002,-1
203,204,1583586339799,-14.4007,2.5175,2.2817,-5.0523496,4.462619999999999,1.060392,-1
204,205,1583586339810,-15.3592,3.2017999,1.7542,-5.9453297,5.200924400000001,0.51799035,-1
205,206,1583586339820,-15.980398999999998,3.8458997999999998,1.3395,-6.693422,5.877296,0.07571423,-1
206,207,1583586339830,-16.666199,3.9505,1.1108,-7.3815637,5.6502013,-0.14797124,-1
207,208,1583586339840,-17.2004,3.4764998,0.8551,-7.648632000000001,5.0876019999999995,-0.60530204,-1
208,209,1583586339850,-16.9652,3.0049,0.0819,-7.143321,4.543611,-1.3876027,-1
209,210,1583586339860,-16.3821,2.4764,-0.1619,-6.718379,4.0041585,-1.3037481000000002,-1
210,211,1583586339871,-16.1451,1.7658999,0.7989,-6.488899,2.9572222000000004,0.14638148,-1
211,212,1583586339881,-16.0675,1.0081,2.3504,-6.427732499999999,2.0451272,1.6412060000000002,-1
212,213,1583586339891,-16.1395,0.285,3.3123998999999995,-6.575694599999999,1.2673563,1.9330497,-1
213,214,1583586339901,-16.2523,0.0703,2.359,-6.539858000000001,1.0882508999999998,0.30670682,-1
214,215,1583586339911,-16.1005,0.1829,0.3834,-6.308405400000001,0.81762946,-1.357723,-1
215,216,1583586339922,-15.7106,-0.1325,-0.2756,-5.8384237,0.2837608,-1.4065648000000002,-1
216,217,1583586339931,-14.6966,-0.3771,0.4369,-4.636726,-0.27617598,-0.41345948,-1
217,218,1583586339941,-13.811198999999998,-0.60209996,1.4688,-3.7812777000000004,-1.2598288999999998,1.1379736999999999,-1
218,219,1583586339951,-13.3164,-1.4302,2.8291,-3.4319062000000007,-2.2946603,2.0874373999999998,-1
219,220,1583586339961,-12.9641,-2.0379,3.4213998,-3.1584978,-3.282776,2.494988,-1
220,221,1583586339971,-12.7415,-2.9801,3.6541,-3.0275352000000004,-4.5785084000000005,2.7405374,-1
221,222,1583586339981,-12.311299,-4.6835,3.6664,-2.350043,-7.2111053,2.4400842000000003,-1
222,223,1583586339992,-10.9929,-6.429199700000001,2.5815,-0.6546991999999999,-9.436813,1.4016902,-1
223,224,1583586340002,-8.6038,-8.1507,1.645,2.6754344,-11.893446,0.34748486,-1
224,225,1583586340012,-5.2173,-9.3512,0.40899998,6.1483870000000005,-13.356570999999999,-0.22739169,-1
225,226,1583586340022,-1.8726,-10.3159,0.5275,8.06211,-15.057537,1.8735586,-1
226,227,1583586340032,-0.8139,-11.638,3.5409,7.3528899999999995,-17.006762,6.0282645,-1
227,228,1583586340042,-2.0307999,-13.160998999999999,7.4441,5.662316000000001,-18.880169,8.567048,-1
228,229,1583586340052,-2.9412,-14.351398999999999,8.4036,6.1548123,-19.911541,7.529563400000001,-1
229,230,1583586340062,-0.69699997,-14.443299,6.0448,10.055341,-20.135303,4.257829,-1
230,231,1583586340072,4.2323,-14.184999,2.3242,14.8060875,-20.134441,1.0327342,-1
231,232,1583586340082,9.0043,-13.6837,-0.5983,18.085933999999998,-20.219072,-0.7937736,-1
232,233,1583586340092,11.613199,-13.5063,-1.7558999,18.424263,-20.570053,-0.24020548,-1
233,234,1583586340103,11.212,-13.494499,-0.3358,16.191067,-21.1017,2.7653987,-1
234,235,1583586340113,8.7635,-13.9451,2.9301,13.456907000000001,-22.104927,6.083934999999999,-1
235,236,1583586340123,6.9736,-14.824698999999999,5.7661,12.725928,-23.081310000000002,7.982987,-1
236,237,1583586340133,7.6807,-15.104000000000001,6.0509996,14.381642999999999,-22.610592,6.1128373,-1
237,238,1583586340143,10.4115,-13.850598999999999,2.5695,16.651615,-21.237297,2.2865393,-1
238,239,1583586340154,12.6103,-12.340899,-1.0781,17.916779000000002,-20.05074,0.15233827,-1
239,240,1583586340164,13.6774,-11.127,-2.1153,17.54045,-18.61423,1.3228252,-1
240,241,1583586340174,13.1140995,-9.809899,-0.6748,15.397466,-17.848526,3.136165,-1
241,242,1583586340186,10.9114,-9.0335,1.1245999,12.787575,-17.110699,4.517207599999999,-1
242,243,1583586340196,8.5658,-8.1771,2.314,10.663122999999999,-15.9201,4.570770700000001,-1
243,244,1583586340206,7.027,-7.1089997,2.2194,9.74238,-15.34825,3.821395,-1
244,245,1583586340217,6.2718997000000005,-6.4818997000000005,1.42,10.000227,-15.262212,2.652699,-1
245,246,1583586340227,7.9143,-6.1463,-1.1330999,11.0594015,-15.092148000000002,1.4280169,-1
246,247,1583586340237,7.9143,-6.1463,-1.1330999,11.690398,-14.402215,1.2673947,-1
247,248,1583586340247,8.4702,-4.5889997000000005,-0.7335,11.355124,-13.607904999999999,1.8919269,d
248,249,1583586340258,7.3307,-3.8458,0.2699,10.158176,-12.884051,2.860056,-1
249,250,1583586340268,7.3307,-3.8458,0.2699,8.488412,-12.16854,3.964961,-1
250,251,1583586340278,4.007,-2.3873,2.2103999,6.5085225,-11.342808999999999,4.743392500000001,-1
251,252,1583586340288,2.7343,-1.9674,2.0398,5.3526115,-10.992067,4.399221400000001,-1
252,253,1583586340299,2.2533,-1.5814999,1.2651,4.991537,-10.613726,3.5875769999999996,-1
253,254,1583586340309,2.457,-1.4713999,0.3105,5.2571115,-10.577583,2.6520764999999997,-1
254,255,1583586340319,3.0288,-1.6942999,-0.5385,5.9024730000000005,-10.849363,1.8730509999999998,-1
255,256,1583586340329,3.826,-1.7779,-0.96699995,6.685990299999999,-10.881771,1.5991448,-1
256,257,1583586340339,4.502,-1.8503,-1.0922999,7.166554,-10.946903,1.5388492,-1
257,258,1583586340350,4.3946,-1.7275,-0.6333,6.8858967,-10.792007,2.1222205,-1
258,259,1583586340360,3.6348,-1.402,0.2908,6.092678,-10.460402,2.9897354,-1
259,260,1583586340370,2.5082,-1.2193999,0.867,4.9602404,-10.304233,3.3860620000000003,-1
260,261,1583586340380,1.4393,-1.1112,0.7385,3.9883857000000003,-10.218252,3.0300439999999997,-1
261,262,1583586340390,1.234,-1.1826,0.1372,4.134557,-10.324391,2.2581248,-1
262,263,1583586340400,1.7193999,-1.3031,-0.96989995,4.698123000000001,-10.421643,1.3070233999999998,-1
263,264,1583586340411,2.6836998,-1.6672,-1.9916999,5.906122,-10.897363,0.37148434,-1
264,265,1583586340421,3.5365,-2.0576,-2.0765,6.5838823,-11.25383,0.7920115,-1
265,266,1583586340431,3.8637,-2.3975,-1.0296999,6.697339,-11.593548,1.9904915,-1
266,267,1583586340441,3.5235,-2.7884998,0.318,6.2169275,-11.915645,3.3823078,-1
267,268,1583586340451,2.9601,-2.9984999,1.6984999,5.8468227,-12.10516,4.4165363,-1
268,269,1583586340462,2.7421,-3.235,2.0068,5.954092500000001,-12.363322,4.234318,-1
269,270,1583586340472,3.1999998,-3.5863,1.2145,6.745787599999999,-12.636951,3.0450892000000005,-1
270,271,1583586340482,4.139199700000001,-3.7366,-0.4075,8.072473,-12.770529,1.0773046,-1
271,272,1583586340492,5.1426,-3.9778,-1.7459999,8.951653,-13.156147,0.64779437,-1
272,273,1583586340502,5.7601,-4.5435,-1.4965998999999999,9.399608,-13.833420000000002,1.5973921999999998,-1
273,274,1583586340512,5.9568996,-5.239,-0.361,9.733139,-14.268265,2.8027387000000004,-1
274,275,1583586340523,6.2551,-5.5378,0.8359,10.26286,-14.423073,3.7179942,-1
275,276,1583586340533,6.6584,-5.687599700000001,1.5718,10.851527,-14.428571,4.077498,-1
276,277,1583586340543,7.178499700000001,-5.718999999999999,1.724,11.699238000000001,-14.368131,3.8107169,-1
277,278,1583586340553,7.8932,-5.7799997,1.4406999,12.499849000000001,-14.506601999999999,3.7604097999999997,-1
278,279,1583586340563,8.3564,-6.077999999999999,1.6310999,12.821122,-14.756538,3.9914120000000004,-1
279,280,1583586340573,8.312099,-6.4375,1.7493,12.849834,-14.966192999999999,3.8544347,-1
280,281,1583586340584,8.1125,-6.6547,1.6686,12.875259,-14.855179000000001,3.8767297,-1
281,282,1583586340594,7.835099700000001,-6.5339,1.7899,12.746606,-14.465537,3.7488315,-1
282,283,1583586340604,7.468899700000001,-6.3124,1.6983999,12.507453,-13.98976,3.597604,-1
283,284,1583586340614,6.896,-6.0023,1.704,11.947851,-13.594152,3.7309419999999998,-1
284,285,1583586340624,5.982,-5.8114,2.0349,11.139876,-13.273942000000002,4.1559606,-1
285,286,1583586340634,4.8415,-5.6825,2.7026,10.308446,-12.800217,4.683518,-1
286,287,1583586340645,3.7094998,-5.3991,3.3400998,9.531671000000001,-12.131497,4.67532,-1
287,288,1583586340655,2.6324,-4.9502,3.372,8.60615,-11.508851,4.2859178,-1
288,289,1583586340665,1.3503,-4.6274,3.1127,7.5550666,-10.8038645,3.9735608,-1
289,290,1583586340675,0.061699998,-4.133,3.0361,6.8722973,-9.790877,4.194507,-1
290,291,1583586340685,-0.7898,-3.3936,3.4963,6.618311,-9.0476885,4.7346106,-1
291,292,1583586340695,-1.2329999,-3.0439,4.1774,6.443496,-8.5199,5.1399393,-1
292,293,1583586340706,-1.6804999,-2.7805,4.6577,5.756235,-7.73013,4.92312,-1
293,294,1583586340716,-2.5163999,-2.4587998,4.5527997000000004,4.906782,-7.204890299999999,4.5135393,-1
294,295,1583586340726,-3.758,-2.1439,4.2304,4.35173,-6.7090893,3.9725935,-1
295,296,1583586340736,-4.3024,-2.072,3.8941998,4.940789700000001,-6.237547,2.5685569999999998,-1
296,297,1583586340746,-3.8837998,-1.9136,2.6236,5.426783599999999,-5.490268700000001,1.245119,-1
297,298,1583586340756,-3.5368998,-1.4779999,1.4165,5.152255,-4.8156395,1.191077,-1
298,299,1583586340766,-3.9436,-1.1183,1.4828999,4.2096004,-4.1004057000000005,2.504948,-1
299,300,1583586340777,-5.0064,-0.7301,2.9134,2.6689317000000004,-3.4005324999999997,3.6555724,-1
300,301,1583586340787,-6.6531997,-0.36659998,4.2121997,1.0305123,-2.9062354999999997,4.3505807,-1
301,302,1583586340797,-8.38,-0.1918,5.0622997000000005,0.124182455,-2.349746,4.6300697,-1
302,303,1583586340807,-9.3597,0.0558,5.500499700000001,0.0877044,-1.6418669,4.506118,-1
303,304,1583586340817,-9.435699000000001,0.5097,5.530999700000001,0.7589619000000001,-1.2057200000000001,4.150070700000001,-1
304,305,1583586340827,-7.8090997,0.5383,4.9407997,1.9208392,-1.1700081,3.5173218,-1
305,306,1583586340837,-7.8090997,0.5383,4.9407997,2.3384167999999996,-0.99816185,2.6420496,-1
306,307,1583586340847,-7.245899700000001,0.60539997,3.9877,2.4375749,-1.0937192,1.3365679,-1
307,308,1583586340858,-7.3100996,-0.071899995,1.5056,2.2809944,-1.432585,-0.17797537,-1
308,309,1583586340868,-7.3991,0.0069,0.3841,2.2280632999999996,-1.1517451,-1.2943723999999999,-1
309,310,1583586340878,-7.5527997000000004,0.4164,-0.1759,2.0001926,-0.6538469,-1.680605,-1
310,311,1583586340888,-8.1216,0.6426,0.5201,1.3601268999999998,-0.3378506,-0.7939076999999999,-1
311,312,1583586340898,-8.1216,0.6426,0.5201,0.680978,-0.044206537000000004,0.4217913,-1
312,313,1583586340908,-9.551,1.0939,3.1871,0.059108052,0.18963993,1.450685,-1
313,314,1583586340919,-9.029699,0.5979,3.0869999999999997,0.820876,-0.44942996,0.99014604,-1
314,315,1583586340929,-7.3682,-0.304,2.0156,2.5967702999999998,-1.3039781000000001,-0.31188790000000005,-1
315,316,1583586340939,-5.4539,-0.8373,0.9174,4.415942,-1.8263258000000002,-1.3721169,-1
316,317,1583586340949,-4.143,-1.0408,0.1629,5.5343027000000005,-1.9540324,-2.1693287,-1
317,318,1583586340959,-3.7889,-0.8321,-0.3978,5.652959,-1.6836601000000002,-2.6910157000000003,-1
318,319,1583586340970,-4.2226,-0.5682,-0.45729998,5.1437798,-1.4823747999999999,-2.7275512,-1
319,320,1583586340979,-4.9512997,-0.4015,-0.4385,4.422971700000001,-1.3448997,-2.744416,-1
320,321,1583586340989,-5.2749,-0.3892,-0.6245,4.269091,-1.3438558999999999,-2.9968796,-1
321,322,1583586340999,-4.6313,-0.3358,-0.7622,5.070871,-1.2941713,-3.179385,-1
322,323,1583586341009,-3.3727,-0.2792,-1.0559,6.323872,-1.2899097,-3.6665475,-1
323,324,1583586341019,-2.3161,-0.491,-1.7129999,7.2375565,-1.6204339,-4.379828,-1
324,325,1583586341030,-1.8396,-0.8548,-1.9652,7.5948677,-1.9480661,-4.6070185,-1
325,326,1583586341040,-1.7500999,-1.051,-1.7816999,7.629784599999999,-2.1759462000000003,-4.205846299999999,-1
326,327,1583586341050,-1.6951,-1.2933999,-0.9183,7.701390299999999,-2.400714,-3.474111,-1
327,328,1583586341060,-1.4067,-1.3807,-0.1696,8.107887,-2.5141609000000003,-2.931681,-1
328,329,1583586341070,-1.0694,-1.3468,-0.31599998,8.360284,-2.4494696,-3.3781996,-1
329,330,1583586341080,-0.8508,-1.3283,-0.7624,8.559443,-2.4390497000000004,-3.716328,-1
330,331,1583586341091,-0.5459,-1.1205,-0.91279995,8.904324,-2.0904830000000003,-3.8462849,-1
331,332,1583586341101,-0.5459,-1.1205,-0.91279995,9.127865,-1.6632231,-4.2733817,-1
332,333,1583586341111,-0.1732,-0.332,-1.7888998999999999,9.092737,-1.4882932,-5.0332823,-1
333,334,1583586341122,-0.24049999,-0.2768,-2.5056,9.055033,-1.5350567,-5.867901,-1
334,335,1583586341132,-0.2279,-0.34399998,-3.1081998,9.05217,-1.5699834,-6.2132025,-1
335,336,1583586341142,-0.1171,-0.2786,-3.2384999,9.208809,-1.5213141000000001,-5.9750943,-1
336,337,1583586341152,0.122999996,-0.35349998,-1.9599999,9.4955,-1.723356,-3.9495807000000003,-1
337,338,1583586341164,0.3234,-0.518,-0.1925,9.626137,-1.7359589,-2.3992774,-1
338,339,1583586341174,0.36499998,-0.4924,0.8318,9.422802,-1.7226568,-2.129566,-1
339,340,1583586341184,0.0985,-0.45049998,0.9098,9.034376,-1.7001226999999999,-2.615675,-1
340,341,1583586341194,-0.2376,-0.4219,0.3057,9.022329,-1.6775883000000003,-3.4246757000000003,-1
341,342,1583586341204,-0.1784,-0.37799999999999995,-0.5272,9.285777000000001,-1.7041832,-4.1509523,-1
342,343,1583586341215,0.1392,-0.37,-1.2135999,9.733992,-1.5868768999999998,-4.594760400000001,-1
343,344,1583586341225,0.5879,-0.21759999,-1.5648999,10.022041999999999,-1.4107306999999998,-4.693459,-1
344,345,1583586341235,0.81299996,-0.0044,-1.6033,9.946127,-1.303595,-4.486983,-1
345,346,1583586341246,0.70519996,0.0709,-1.3220999,9.508495,-1.4364061000000001,-3.7714519999999996,-1
346,347,1583586341256,0.3028,-0.058599997,-0.6166,9.110128999999999,-1.7884494,-2.9705627,-1
347,348,1583586341267,-0.0806,-0.4186,0.20639999,9.100006,-1.8787875,-2.343799,-1
348,349,1583586341277,-0.0818,-0.52239996,0.86109996,9.363934,-1.6501412,-2.3344617000000003,-1
349,350,1583586341287,0.19209999,-0.2872,0.8975,9.700501,-1.5154818,-2.9052298,-1
350,351,1583586341298,0.5151,-0.1735,0.42100000000000004,9.733752,-1.2793368999999999,-3.1511428,-1
351,352,1583586341308,0.2571,0.3922,-0.19659999,9.301981,-0.97894114,-3.5816205,-1
352,353,1583586341318,-0.2561,0.43069997,-0.5748,8.807751,-0.95353395,-3.9558244,d
353,354,1583586341328,-0.5047,0.51949996,-0.7576,8.622803999999999,-0.8848874,-4.0657760000000005,-1
354,355,1583586341338,-0.5047,0.51949996,-0.7576,8.805797,-1.095692,-3.7226195,-1
355,356,1583586341348,0.058599997,0.083299994,0.124,9.308953,-1.3919697,-3.0927532,-1
356,357,1583586341359,0.8527,0.0357,0.8807,10.116086,-1.3832548,-2.341673,-1
357,358,1583586341369,1.3727,0.102699995,1.3359999999999999,10.441161,-1.2998025,-2.1428678,-1
358,359,1583586341379,1.0776,0.30179998,0.8878,10.027280000000001,-1.1026063999999998,-2.7310371,-1
359,360,1583586341390,0.2129,0.5161,-0.2668,8.930669,-0.8500181999999998,-4.2555976,-1
360,361,1583586341400,-0.4561,0.6616,-1.3741,8.562633,-0.746378,-5.060701,-1
361,362,1583586341410,-0.43739998,0.7812,-1.9203,8.775103999999999,-0.6225595,-5.657652,-1
362,363,1583586341420,0.0142,0.787,-2.4252,9.283766,-0.79417586,-6.0402164,-1
363,364,1583586341430,0.5367,0.2628,-2.6207,9.776043,-1.5475546,-6.246865000000001,-1
364,365,1583586341440,1.0907999,-0.5701,-2.8778,10.321297999999999,-2.2577515,-6.7449164,-1
365,366,1583586341451,1.5093,-1.2746998999999999,-3.7157,10.650155999999999,-3.1060362,-7.775103,-1
366,367,1583586341460,1.7508,-2.0514,-4.5796,10.748338,-3.6358635,-8.551878,-1
367,368,1583586341470,1.4325,-2.4937,-6.0182,10.138524,-3.9646447,-10.413006,-1
368,369,1583586341480,1.4325,-2.4937,-6.0182,9.576932000000001,-4.0598097,-11.620641,-1
369,370,1583586341491,0.3568,-2.7303998,-8.3291,8.394243,-3.8599894,-13.804095000000002,-1
370,371,1583586341502,-1.7911999,-2.511,-10.5092,6.905414,-3.6786141000000003,-14.067209,-1
371,372,1583586341512,-2.2242,-2.9636,-9.575,6.7947926999999995,-4.9171059999999995,-12.761602,-1
372,373,1583586341522,-1.9426999,-4.6414,-8.5112,7.792916,-6.4984956,-12.254559,-1
373,374,1583586341532,-0.48009998,-5.9212,-8.6689,9.535263,-7.1587973,-13.596059,-1
374,375,1583586341542,1.0771998999999999,-6.4202,-10.4741,10.313053,-7.41535,-15.475267,-1
375,376,1583586341553,1.2025,-6.6429996,-12.0056,9.556313000000001,-7.417936,-16.109156,-1
376,377,1583586341563,-0.1074,-6.7049,-12.121699000000001,7.720046000000001,-7.270146400000001,-15.30256,-1
377,378,1583586341573,-2.1076,-6.5091996,-10.640699,5.6688085,-6.6179085,-12.707724,-1
378,379,1583586341583,-4.3301997000000005,-5.9463,-7.8275,3.2427257999999997,-5.9613323,-10.045658,-1
379,380,1583586341593,-6.9191,-5.6229,-5.8283997,1.2505969,-5.653887999999999,-9.106078,-1
380,381,1583586341604,-9.1771,-5.3719,-5.3101997,-0.8055914000000001,-5.097102,-8.235345,-1
381,382,1583586341614,-10.3372,-4.9653,-4.3746,-1.2599916000000002,-4.4941463,-6.15578,-1
382,383,1583586341625,-10.497,-4.6646,-2.4784,-0.9777345,-4.3044777000000005,-3.5246672999999995,-1
383,384,1583586341636,-10.2041,-4.5134,-0.0082,-0.37570772,-3.8296309,-0.661154,-1
384,385,1583586341647,-9.7506,-4.1551,2.1901999,-0.36755782,-2.7961786,0.77143097,-1
385,386,1583586341657,-9.7849,-3.1645,3.4573998,-0.8837860000000001,-1.8026901000000002,1.6793984,-1
386,387,1583586341667,-11.0064,-1.2350999,5.0299997,-1.6462436000000003,-0.6325481,2.9760022,-1
387,388,1583586341677,-11.7324,-0.389,6.6998,-2.3534523999999997,0.16338032,4.8938246,-1
388,389,1583586341688,-11.7324,-0.389,6.6998,-2.9766536,0.60135645,7.0877275,-1
389,390,1583586341698,-12.466,0.1037,8.6546,-2.7975097,0.9418694,9.632333000000001,-1
390,391,1583586341708,-12.5004,0.53569996,10.9477,-2.1806294999999998,1.0746708999999999,12.069813,-1
391,392,1583586341718,-10.908299000000001,1.1018,16.338299,-1.0502596000000002,1.237132,15.10295,-1
392,393,1583586341728,-9.8894,0.7809,17.3044,0.06504567,0.5664873,15.897681,-1
393,394,1583586341738,-8.4443,-0.1577,17.5416,1.5895296,-0.60337716,16.280666,-1
394,395,1583586341748,-8.4443,-0.1577,17.5416,2.741792,-1.3246639999999998,16.71057,-1
395,396,1583586341758,-6.9824996,-0.8698,17.934,4.0401387,-1.6819457999999998,17.353355,-1
396,397,1583586341768,-4.3883,-0.7597,19.456999,5.5524316,-1.7255585999999998,18.768042,-1
397,398,1583586341778,-3.4120998,-0.48259997,20.4875,6.468079599999999,-1.6730490000000002,19.956064,-1
398,399,1583586341788,-2.6125998,-0.1785,21.7475,7.1829405,-1.6890327,21.323603,-1
399,400,1583586341800,-2.0973,-0.3166,22.7195,7.597003,-2.1909626,22.297651000000002,-1
400,401,1583586341810,-1.9742998999999999,-1.3356999,22.9137,7.5604963000000005,-3.9649034,22.28567,-1
401,402,1583586341820,-2.0577,-2.6836998,22.3365,7.5649877000000005,-5.561826,21.562676999999997,-1
402,403,1583586341831,-1.5527999,-3.9663,21.2734,8.413244,-6.971359700000001,20.513071,-1
403,404,1583586341841,-0.32209998,-4.6752,20.2866,9.663295,-7.754378999999999,19.521994,-1
404,405,1583586341851,1.1424,-5.0042,18.8274,10.954622,-8.170606,17.751753,-1
405,406,1583586341861,2.3387,-5.0168,16.4362,12.041455000000001,-8.493402,14.856089,-1
406,407,1583586341872,3.0688,-5.1089997,14.177898999999998,12.231632000000001,-9.057264,13.125798999999999,-1
407,408,1583586341882,3.0665998,-5.625,12.8145,11.9298,-10.138630000000001,12.400078,-1
408,409,1583586341892,2.7926998,-6.5931,12.1889,11.341764,-11.346879,11.705405,-1
409,410,1583586341902,2.149,-7.6589,11.2644,10.64914,-12.997058,10.582496,-1
410,411,1583586341912,1.7831999,-9.4194,9.6736,10.581922,-15.167144,8.114592,-1
411,412,1583586341923,2.167,-11.245399,6.4529,11.539774000000001,-16.789376999999998,4.4291487,-1
412,413,1583586341933,3.7022,-12.3137,2.57,13.482123000000001,-17.419943,1.1330512,-1
413,414,1583586341943,5.8549,-12.394099,-0.106599994,14.990566000000001,-17.226032,-0.10010636,-1
414,415,1583586341953,6.6847997,-11.880199000000001,-0.63159996,14.337332,-16.949675,0.28522605,-1
415,416,1583586341964,5.2714996,-11.6657,-0.23249999,12.010455,-17.267817,0.121615864,-1
416,417,1583586341974,2.9993,-12.1005,-1.3223,10.42153,-18.031929,-2.3100886000000003,-1
417,418,1583586341984,2.3701,-12.990299,-4.8086,11.62293,-19.431599,-7.832152000000001,-1
418,419,1583586341994,4.0681,-14.0457,-9.846399,14.483992,-20.090149,-12.414394999999999,-1
419,420,1583586342004,7.1882997,-14.384,-14.1805,17.298529000000002,-19.625845,-15.499267000000001,-1
420,421,1583586342014,9.7267,-13.717998999999999,-17.1141,17.838766,-18.340015,-16.713520000000003,-1
421,422,1583586342025,9.7458,-12.2161,-17.754599,15.670289000000002,-16.721334,-14.764054999999999,-1
422,423,1583586342035,7.1294,-10.6706,-15.347199,11.725507,-15.326147,-11.870251,-1
423,424,1583586342045,2.9454,-9.317599000000001,-12.6313,7.5143933,-13.759669,-10.270417,-1
424,425,1583586342055,-1.1401,-7.8335996,-11.3866,4.6063194,-12.546575,-10.869935,-1
425,426,1583586342065,-3.6883998,-6.8143,-12.4914,4.089804,-12.246888,-13.333032000000001,-1
426,427,1583586342076,-3.6989,-6.7223997,-15.1479,5.960202,-12.392503,-15.583935999999998,-1
427,428,1583586342086,-1.5459,-6.8571,-17.161299,8.194319,-12.483032000000001,-16.995184,-1
428,429,1583586342096,0.4434,-6.9298997,-18.4324,8.668753,-12.2202635,-17.328035,-1
429,430,1583586342106,0.46539998,-6.5547,-18.320798999999997,7.1256330000000005,-11.371471000000001,-16.129488000000002,-1
430,431,1583586342116,-1.3756,-5.6756997,-16.8603,4.53231,-10.402422999999999,-13.71574,-1
431,432,1583586342126,-3.5672,-4.936,-14.6858,3.216993,-9.629297,-11.533961,-1
432,433,1583586342137,-4.9209,-4.2049,-12.4085,2.6383145,-9.09992,-10.343124000000001,-1
433,434,1583586342149,-5.5236998,-3.3845,-11.0089,2.670818,-8.738491,-10.234408,-1
434,435,1583586342159,-5.5236998,-3.3845,-11.0089,2.7948666,-8.583769,-10.454464,-1
435,436,1583586342169,-5.2075996,-3.0188,-10.9585,2.9758587000000003,-8.421864,-9.877557000000001,-1
436,437,1583586342179,-5.0281,-3.2336,-9.8811,3.1258793,-8.793424,-8.704102,-1
437,438,1583586342189,-5.0281,-3.2336,-9.8811,3.2964902,-9.227416,-7.644647999999999,-1
438,439,1583586342199,-4.7081,-3.8953,-6.9985,3.3465097000000004,-9.404798,-5.7858186,-1
439,440,1583586342209,-4.9813,-3.8883997999999997,-4.8826,2.9903772,-9.501744,-3.5383809999999998,-1
440,441,1583586342220,-5.3799996,-4.0281,-2.6132998,2.4935226000000004,-9.557375,-1.2783886999999998,-1
441,442,1583586342230,-5.8121,-3.7324998,-1.4609,2.1138694,-9.294636,-0.6382175,-1
442,443,1583586342240,-5.9782,-3.6917,-1.8815,1.9670953000000002,-9.396485,-1.1930882,-1
443,444,1583586342250,-5.7995996,-3.7556998999999998,-2.2942998,2.3158731,-9.522677999999999,-1.4564694999999999,-1
444,445,1583586342260,-5.1308,-3.8058,-2.4071999,3.051257,-9.766782000000001,-1.3704123,-1
445,446,1583586342270,-4.1426997000000005,-4.2272,-1.9669,4.085963700000001,-10.362977,-0.7041155,-1
446,447,1583586342281,-2.9880998,-4.4888,-0.9131,5.0989985,-10.431949000000001,0.60594374,-1
447,448,1583586342292,-2.2203,-4.1861,0.90889996,5.501387,-10.156117,2.715992,-1
448,449,1583586342303,-2.3309999,-3.8825998,3.3407998,4.7828684,-9.93973,5.5732327,-1
449,450,1583586342313,-3.0707,-3.6934998,5.672000000000001,4.081434,-10.155476,7.765344,-1
450,451,1583586342323,-3.4304,-3.8943,7.1875,4.2355730000000005,-10.273155000000001,8.1766205,-1
451,452,1583586342334,-2.8841999,-3.9777,7.2615,5.4931220000000005,-10.425781,7.8968625,-1
452,453,1583586342344,-1.5623,-3.9157,6.9985,6.780552,-10.094932,7.974559299999999,-1
453,454,1583586342354,-0.2303,-3.4218,7.1299996,7.614845,-9.686949,8.287241999999999,-1
454,455,1583586342364,0.6884,-2.7991998,7.6575,8.026427,-9.040668,9.321709,-1
455,456,1583586342374,0.9134,-2.2006,8.689899,7.901134,-8.459184,10.334169000000001,-1
456,457,1583586342384,0.78169996,-1.5661,9.7354,7.574785,-7.8843265,11.017168,-1
457,458,1583586342395,0.4872,-0.9693,10.3536,7.398418400000001,-7.6304355,10.975269,-1
458,459,1583586342405,0.4087,-0.7288,10.2787,7.6003838,-7.531613,10.67813,-1
459,460,1583586342415,0.7457,-0.5669,9.9157,8.000503,-7.2251644,9.824626,-1
460,461,1583586342425,1.1725999,-0.24929999,8.9208,8.185939,-7.305609,8.712902,-1
461,462,1583586342436,1.3419999999999999,-0.3671,7.849,8.356128,-7.5534669999999995,7.952178,-1
462,463,1583586342446,1.6143,-0.5581,7.0596,9.021696,-7.603209,6.9399,-1
463,464,1583586342456,2.234,-0.5379999999999999,6.232599700000001,9.437551,-7.230767299999999,6.7564660000000005,-1
464,465,1583586342467,2.6668,-0.1537,6.0607,9.087154,-6.848432000000001,7.028878,-1
465,466,1583586342477,2.322,0.2392,6.3543,8.142555,-6.645174000000001,7.240028,-1
466,467,1583586342487,1.3867999,0.4545,6.6021,7.446322,-6.5363430000000005,7.235009,-1
467,468,1583586342497,0.3653,0.5431,5.7655997,7.1934557,-6.5611467,6.1741676,-1
468,469,1583586342508,0.3653,0.5431,5.7655997,7.656274000000001,-6.640682000000001,5.4158664000000005,-1
469,470,1583586342518,0.8886,0.44599998,4.7665,8.239519999999999,-6.6638865,4.7061677,-1
470,471,1583586342528,1.4501,0.4195,3.0867999,8.138878,-6.670398700000001,3.6583687999999994,-1
471,472,1583586342538,1.0073,0.502,2.3587,7.685722999999999,-6.565102,3.054015,-1
472,473,1583586342548,0.6863,0.561,2.0793,7.4131860000000005,-6.5074496,2.8988516,-1
473,474,1583586342559,0.597,0.6088,2.3583,7.391953999999999,-6.4087705999999995,3.251441,-1
474,475,1583586342569,0.6726,0.67609996,2.7591999,7.48008,-6.408627,3.6265644999999997,d
475,476,1583586342579,0.6597,0.3803,2.8953,7.448658,-6.712499,3.6305672999999996,-1
476,477,1583586342590,0.6087,0.15269999,2.3236,7.448687,-6.892053999999999,2.9470707999999997,-1
477,478,1583586342600,0.72639996,0.2488,1.4596,7.563963,-6.693987,2.0509403,-1
478,479,1583586342610,0.65959996,0.42369998,0.9277,7.388037,-6.534753299999999,1.7397706999999998,-1
479,480,1583586342621,0.33789998,0.4513,0.9159,7.0430803,-6.575847,1.8399918999999998,-1
480,481,1583586342630,0.0266,0.3627,1.0,6.843203,-6.6241335999999995,1.9147581000000002,-1
481,482,1583586342640,-0.1266,0.2765,1.1435,6.7123265,-6.7617617,2.1715984,-1
482,483,1583586342650,-0.101799995,0.085,1.3449,6.811513000000001,-6.930821400000001,2.274482,-1
483,484,1583586342660,0.0515,-0.0659,1.3419,6.954801600000001,-7.0839734,2.2369602000000004,-1
484,485,1583586342671,0.11669999,-0.1487,1.2069,7.0013833,-7.069876700000001,2.0058333999999998,-1
485,486,1583586342681,0.1026,-0.0764,0.77089995,6.964637299999999,-7.014819,1.5152233,-1
486,487,1583586342691,0.078,-0.0641,0.2732,6.9963455,-7.0349693,1.0228891,-1
487,488,1583586342701,0.2201,-0.110199995,-0.2608,7.174608,-7.0607114,0.5953135,-1
488,489,1583586342711,0.4305,-0.1365,-0.3196,7.402191999999999,-7.0530214,0.99127614,-1
489,490,1583586342722,0.5126,-0.123399995,0.22659999,7.318203,-7.1028210000000005,1.3971316,-1
490,491,1583586342732,0.2597,-0.34700000000000003,0.6572,7.0788402999999995,-7.399155599999999,1.7592499,-1
491,492,1583586342742,0.18339999,-0.6494,0.8005,7.281150299999999,-7.675447,1.6977859,-1
492,493,1583586342752,0.5697,-0.8134,0.606,7.7166367,-7.776089,1.514888,-1
493,494,1583586342762,1.1833,-0.996,0.4662,8.515668,-7.9747314,1.4854298000000001,-1
494,495,1583586342772,1.8743,-1.1308,0.5108,9.255678,-8.062311,1.7592211,-1
495,496,1583586342782,2.6218,-1.2291,0.9264,9.9581175,-8.141263,2.223361,-1
496,497,1583586342792,3.2272,-1.3327999,1.2306,10.407392999999999,-8.318462,2.2633153999999998,-1
497,498,1583586342802,3.6114,-1.5511,1.1657,10.896844999999999,-8.530704,2.4506952999999996,-1
498,499,1583586342812,4.1369,-1.7759,1.6580000000000001,11.45752,-8.607308,3.4248192000000004,-1
499,500,1583586342822,4.6468,-1.8793,2.7289999,11.987356,-8.801066,4.496042299999999,-1
500,501,1583586342832,5.2104,-2.2048,3.7091,12.747361999999999,-9.133227999999999,5.285028,-1
501,502,1583586342842,6.093899700000001,-2.5066,4.1626997,13.968779000000001,-9.189559,5.2266765,-1
502,503,1583586342853,7.3771996,-2.5391,3.8009998999999994,15.27583,-9.23569,4.862183,-1
503,504,1583586342863,8.5667,-2.717,3.4633,16.309025,-9.422783,4.812901,-1
504,505,1583586342873,9.342,-3.0161998,3.6322,16.811415,-9.571521,5.4079843,-1
505,506,1583586342883,9.5006,-3.1288,4.2683,16.665627,-9.503573,6.0017467,-1
506,507,1583586342894,9.0706,-3.1852,4.8803,16.146065,-9.5072975,6.741459,-1
507,508,1583586342904,8.4284,-3.3209,5.5827,15.597516,-9.2608385,7.201739999999999,-1
508,509,1583586342914,7.9034996,-3.1785997999999998,5.7637997,15.332946,-8.875766,6.704521700000001,-1
509,510,1583586342924,7.4986,-2.9427,5.1503,14.949232,-8.487733,5.775504,-1
510,511,1583586342934,6.9505,-2.7292,4.2079997,14.508067,-8.209699,4.994783999999999,-1
511,512,1583586342945,6.1716,-2.6055,3.3391,13.503957999999999,-7.8222494000000005,4.2311,-1
512,513,1583586342955,5.1236997,-2.4929,2.9789,12.624454,-7.6448584,4.438073999999999,-1
513,514,1583586342965,4.1236,-2.5477,3.3776998999999996,11.911593,-7.3491173,4.5892253,-1
514,515,1583586342975,3.3216,-2.4654,3.5911,11.4854355,-7.295238,4.7682150000000005,-1
515,516,1583586342985,2.8177,-2.717,3.9756,11.285549000000001,-7.310848,5.072030000000001,-1
516,517,1583586342995,2.4352999,-2.9317,4.3024,10.715442,-7.1103380000000005,4.753563,-1
517,518,1583586343005,1.6344999,-2.9466999,3.9685,9.605346,-6.7563414999999996,3.9307046000000003,-1
518,519,1583586343015,0.33859998,-2.8587,3.2096,8.436784,-6.297545400000001,2.885195,-1
519,520,1583586343025,-0.8789,-2.62,2.2237,7.909858,-5.6458626,1.9000671000000002,-1
520,521,1583586343036,-1.3671,-2.2389997999999998,1.4088,7.851764999999999,-4.9953294,1.2464788999999998,-1
521,522,1583586343047,-1.5172,-1.865,0.82729995,7.6862016,-4.289308,0.5118229000000001,-1
522,523,1583586343057,-1.7328,-1.5264,0.30969998,7.1891169999999995,-3.731028,0.31188790000000005,-1
523,524,1583586343067,-2.3014,-1.2085999,0.1981,6.4463882,-3.268545,0.11671255,-1
524,525,1583586343078,-4.0776,-0.2837,0.2007,5.458339,-2.183378,0.1486512,-1
525,526,1583586343088,-4.0998,0.2171,0.8229,5.647012,-1.5248863000000001,0.67084575,-1
526,527,1583586343099,-4.0998,0.2171,0.8229,6.1617846,-1.5723488,1.2027032,-1
527,528,1583586343109,-3.3992998999999995,-0.833,2.1626,6.1996317,-2.5071409,1.637883,-1
528,529,1583586343119,-4.1401997,-1.7191,2.4835,5.3551397000000005,-3.1441329,1.7955938999999999,-1
529,530,1583586343129,-5.3293,-2.3128998,2.178,3.8780513,-3.6068455999999998,0.94508713,-1
530,531,1583586343140,-6.3794,-2.5002,0.83599997,3.1176817000000003,-3.3561633,-0.8682046,-1
531,532,1583586343149,-6.3794,-2.5002,0.83599997,2.984698,-2.793229,-2.560005,-1
532,533,1583586343159,-6.6198997,-1.1977999,-2.4517,3.1679502,-1.8518959,-3.4434369,-1
533,534,1583586343169,-6.6198997,-1.1977999,-2.4517,3.4210844,-1.2048485,-3.1593406,-1
534,535,1583586343180,-6.1777997000000004,-0.37109998,-1.5337,3.5696684999999997,-1.0925221,-2.411756,-1
535,536,1583586343190,-6.1393,-0.62839997,-0.5668,3.6491754000000003,-1.4972476000000001,-1.3723085,-1
536,537,1583586343200,-5.791,-1.2824999,0.3901,4.1681905,-2.1442759999999996,-0.67673546,-1
537,538,1583586343210,-5.115,-1.8971,0.94659996,4.768196,-2.5799917999999997,-0.51310617,-1
538,539,1583586343220,-4.8308,-2.0468,1.2164,4.688843,-2.5071697,0.057939682,-1
539,540,1583586343230,-5.5102,-1.9391999,2.6176999,3.9076150000000003,-2.3357064999999997,1.1912398000000002,-1
540,541,1583586343241,-6.9393,-1.7163,3.3978,2.043997,-1.9953851999999999,1.3385311000000002,-1
541,542,1583586343251,-8.4223995,-1.3986,2.2215,0.99623686,-1.6524013,-0.0013503297,-1
542,543,1583586343261,-8.937099,-1.01,0.1222,0.8570476,-1.2487198,-2.6006777000000003,-1
543,544,1583586343271,-8.0679,-0.82739997,-1.8508999,2.6639612,-1.1335875,-4.587127,-1
544,545,1583586343281,-6.0768,-0.6712,-2.9587998,3.9895059999999996,-1.0847266000000002,-4.965862,-1
545,546,1583586343292,-3.7960000000000003,-0.7457,-3.0561,6.9292507,-1.3979840000000001,-4.8239813,-1
546,547,1583586343302,-2.1101,-0.95659995,-2.4438999,7.867471000000001,-1.565377,-3.8753412000000003,-1
547,548,1583586343312,-1.7567999,-1.0081,-1.2846,7.292585000000001,-1.6948075,-2.9198918,-1
548,549,1583586343322,-2.748,-1.1977,-0.44849998,6.0166,-1.9848027,-2.393196,-1
549,550,1583586343333,-3.8974,-1.5625,0.1389,5.347487999999999,-2.2320375,-1.7309504,-1
550,551,1583586343343,-4.1157,-1.5458,0.8488,5.6667023,-1.9074413000000001,-1.5233827,-1
551,552,1583586343353,-3.5883,-1.2513,0.6627,6.263308,-1.7317357,-2.4941165,-1
552,553,1583586343364,-2.9837,-1.0687,-0.5829,6.689208,-1.5481770000000001,-3.8418796000000004,-1
553,554,1583586343374,-2.6165,-0.7865,-1.8894,7.2741213,-1.1127004999999999,-5.485307700000001,-1
554,555,1583586343384,-2.0649,-0.4005,-3.0979997999999997,7.9172899999999995,-0.8060128000000001,-6.044976,-1
555,556,1583586343394,-1.4073,-0.113699995,-3.4115,8.457861999999999,-0.8537435999999999,-5.751849,-1
556,557,1583586343404,-0.8868,-0.2165,-2.9878,8.724317999999998,-1.3284947,-4.9570317,-1
557,558,1583586343414,-0.65929997,-0.7216,-2.0771,8.895033999999999,-1.83732,-4.038913,-1
558,559,1583586343425,-0.4601,-1.1963999,-1.161,9.260753,-2.0768933,-3.564382,-1
559,560,1583586343435,-0.036199998,-1.3327999,-0.79679996,9.563667,-1.8950106,-3.7839975,-1
560,561,1583586343445,0.1892,-1.1104,-1.0376999,9.390212,-1.5575911,-4.2378807,-1
561,562,1583586343455,-0.052199997000000005,-0.7739,-1.5336,8.814694,-1.1971775,-4.845644,-1
562,563,1583586343466,-0.5593,-0.50229996,-2.0112,8.532801,-0.8800607,-4.722352,-1
563,564,1583586343476,-0.8994,-0.114199996,-1.7523999,8.349903,-0.6412534000000001,-3.9790578,-1
564,565,1583586343486,-1.0023,0.0418,-0.9291,8.559654,-0.6330557,-3.0532105,-1
565,566,1583586343496,-0.7503,0.0296,0.0056,8.828992,-0.7381803000000001,-2.500763,-1
566,567,1583586343506,-0.45839998,-0.089499995,0.42999998,9.293476,-0.96909624,-2.703906,-1
567,568,1583586343516,-0.049,-0.2674,0.2236,9.697503,-0.9769300999999999,-3.1491318,-1
568,569,1583586343527,0.45679998,-0.2527,-0.3326,10.264421,-0.99147725,-3.88781,d
569,570,1583586343537,0.92179996,-0.2393,-0.93329996,10.522871,-0.7112024,-4.175229,-1
570,571,1583586343547,1.1903,0.049399998,-1.2096,10.277082,-0.3541216,-4.480404,-1
571,572,1583586343557,0.94879997,0.4134,-1.5121,9.406359,-0.18705419,-4.8596260000000004,-1
572,573,1583586343567,0.079399996,0.5686,-1.8812,8.577448,0.1327537,-4.643861,-1
573,574,1583586343577,-0.7396,0.84389997,-1.6364,8.391026,0.3488735,-4.487481,-1
574,575,1583586343588,-0.91969997,1.0533999,-1.4659,8.926397999999999,-0.05091988,-3.9114745,-1
575,576,1583586343598,-0.3715,0.6641,-0.8588,9.986455,-0.7362553000000001,-3.0237043,-1
576,577,1583586343608,0.6893,-0.02,0.0681,10.956431,-1.529464,-3.0335205000000003,-1
577,578,1583586343618,1.6811,-0.8056,0.0897,11.0900955,-2.35554,-4.679716,-1
578,579,1583586343628,1.8147999,-1.6195998999999999,-1.5415,10.908777,-2.4587207,-7.925909,-1
579,580,1583586343639,1.1939,-1.0964,-8.5215,10.355947500000001,-1.6963876,-12.185452,-1
580,581,1583586343649,0.3692,-0.6444,-10.3988,9.46652,-1.3152306999999999,-13.492868,-1
581,582,1583586343659,-0.7784,-1.0602,-9.5706,8.297077,-1.9268439999999998,-12.300499,-1
582,583,1583586343669,-1.5065,-2.8623998,-7.6291,7.988034,-4.191002,-9.945207,-1
583,584,1583586343680,-1.5065,-2.8623998,-7.6291,9.101979,-5.376572599999999,-8.719884,-1
584,585,1583586343690,1.2268,-5.4112,-5.8669,10.925155,-5.718187,-9.907341,-1
585,586,1583586343700,2.0172,-5.2265997,-7.5997,11.1561365,-5.292833,-11.373617,-1
586,587,1583586343710,1.4037,-4.6665998,-8.2448,10.05671,-4.5481596,-11.571349,-1
587,588,1583586343720,-0.4534,-4.1607,-8.4128,7.868380999999999,-4.2519774,-11.864180000000001,-1
588,589,1583586343731,-2.74,-4.4488,-9.3354,5.937074,-4.603552,-13.031984,-1
589,590,1583586343741,-3.9348,-4.8645997,-10.707399,5.305416999999999,-4.841258,-13.847344,-1
590,591,1583586343751,-4.0435,-5.072,-10.7993,5.365722,-4.8814993,-13.327008,-1
591,592,1583586343761,-4.1377997,-5.1264997,-9.6182995,5.1008177,-4.7983055,-11.835803,-1
592,593,1583586343771,-4.9747,-5.1717,-7.6428,3.9158510000000004,-4.744388,-9.565717,-1
593,594,1583586343781,-6.3608,-5.2243,-5.5993,2.5319831,-4.568213500000001,-7.087019000000001,-1
594,595,1583586343791,-7.7502,-4.9309,-2.7735,1.2499744,-4.02042,-4.003966999999999,-1
595,596,1583586343801,-8.8997,-4.4841,0.1305,0.11777557400000001,-3.3149924,-0.5918945,-1
596,597,1583586343812,-9.632899,-3.6966998999999996,2.2396998,-0.33691204,-2.2605478999999997,0.51826805,-1
597,598,1583586343822,-10.271299,-2.2096,2.4243999,-0.90022945,-0.80447096,0.25866956,-1
598,599,1583586343833,-10.5945,-0.9069,1.7335999,-0.7577265000000001,0.6114983,0.35213920000000004,-1
599,600,1583586343843,-10.0774,-0.027199998,2.3961,0.0943507,0.9736451999999999,2.2591782000000005,-1
600,601,1583586343853,-9.2491,0.047599997000000005,4.9199,0.79984534,0.76024526,5.8704967,-1
601,602,1583586343863,-8.7878,-0.14559999,8.827499000000001,0.9727066999999999,0.7157321999999999,10.216499,-1
602,603,1583586343874,-8.736899000000001,0.0875,13.1093,1.112959,1.2309549,14.321608,-1
603,604,1583586343884,-8.4733,0.8573,16.6838,1.6942041,1.9789896,17.450885999999997,-1
604,605,1583586343894,-7.6629,1.6272,19.3207,2.6039432999999996,2.4857752,19.412848,-1
605,606,1583586343904,-6.4002,2.3794,21.0648,4.385487599999999,3.1650581,21.603437,-1
606,607,1583586343915,-5.200999700000001,2.8323,22.3758,5.3062309999999995,2.795872,23.483059,-1
607,608,1583586343925,-4.3577,2.428,24.2178,6.055683,1.6156648,25.645126,-1
608,609,1583586343935,-3.5965998,1.3758999,26.264599,6.842225999999999,0.56128705,27.138525,-1
609,610,1583586343945,-2.8011,0.58489996,27.4501,7.653075,-0.03788585,27.339771000000002,-1
610,611,1583586343955,-1.5895,0.1462,27.207698999999998,9.660661,-0.49009308,25.86208,-1
611,612,1583586343966,0.1856,0.012499999,25.6426,10.912264,-1.0726215000000001,23.604454,-1
612,613,1583586343976,1.2598,-0.4488,23.3028,11.348908999999999,-2.1430402,21.108355,-1
613,614,1583586343986,1.6133,-1.4419999,20.8919,11.434171000000001,-3.7653418,18.462418,-1
614,615,1583586343996,1.7465,-2.9108,18.23,12.112755,-5.980898000000001,14.988898999999998,-1
615,616,1583586344007,2.4055,-4.589699700000001,15.4845,13.152929,-7.711532000000001,12.004650999999999,-1
616,617,1583586344017,3.4833998999999998,-6.1369,12.654099,14.310267000000001,-8.860519,8.167656,-1
617,618,1583586344027,4.6865,-7.1018,9.0035,14.898907000000001,-9.197383,4.9846992,-1
618,619,1583586344038,5.4048,-7.290899799999999,5.3346,14.762619,-9.119055,2.2699616000000002,-1
619,620,1583586344048,5.3698,-7.0734,3.5533997999999998,13.878641,-9.095582,1.9234537,-1
620,621,1583586344058,4.4209,-6.8564,3.2598,12.128039,-9.532083,-0.29011020000000004,-1
621,622,1583586344068,1.4079,-7.6684,-2.8790998,10.643691,-10.311739999999999,-5.387633999999999,-1
622,623,1583586344078,1.3283,-8.3793,-7.1833,10.752483999999999,-11.098322,-9.726578,-1
623,624,1583586344088,2.1427,-8.446,-10.5195,11.578617999999999,-11.092986999999999,-12.917311999999999,-1
624,625,1583586344099,2.1427,-8.446,-10.5195,12.36384,-10.834749,-14.454485,-1
625,626,1583586344109,3.1202,-7.9568,-12.1244,12.389716,-11.069457,-15.174517999999999,-1
626,627,1583586344119,2.8005998,-7.968499700000001,-13.9551,11.610672000000001,-10.989367,-16.705227,-1
627,628,1583586344129,1.9051,-8.0005,-15.8348,10.538319,-11.272525,-19.34494,-1
628,629,1583586344140,1.056,-8.2226,-19.0606,9.834729,-11.300652000000001,-22.48547,-1
629,630,1583586344149,0.6814,-7.6973996,-21.2508,9.449733,-10.648067999999999,-24.501524,-1
630,631,1583586344159,0.6814,-7.6973996,-21.2508,9.089567,-10.039539,-25.70502,-1
631,632,1583586344169,-0.25349998,-5.605,-23.5219,8.505871,-8.4978075,-26.225817,-1
632,633,1583586344179,-0.8847,-4.3216,-22.634698999999998,7.639208,-7.177510300000001,-25.246435,-1
633,634,1583586344189,-1.6309999,-3.9368,-21.870699,7.081886,-6.9974566,-24.528654,-1
634,635,1583586344199,-2.3413,-3.6910000000000003,-19.919898999999997,6.3124948,-6.6106973,-22.365129999999997,-1
635,636,1583586344209,-2.3413,-3.6910000000000003,-19.919898999999997,5.1449766,-6.4352407,-20.287029999999998,-1
636,637,1583586344219,-5.7509,-3.7519998999999995,-15.0794,2.5345308999999996,-6.558915600000001,-17.364494,-1
637,638,1583586344229,-7.0139,-3.6943,-13.765699,1.7743142,-6.195016000000001,-16.536482,-1
638,639,1583586344239,-7.3525,-3.1805,-13.7383995,1.7541069999999999,-5.6249757,-16.573555,-1
639,640,1583586344250,-7.1218,-2.9615,-13.7736,2.261965,-5.680683999999999,-16.062624,-1
640,641,1583586344260,-6.2946,-3.4534,-12.2739,2.9965064999999997,-6.090523200000001,-14.345444,-1
641,642,1583586344270,-5.7121997,-3.807,-9.5088,3.5414553,-6.406989,-10.724846000000001,-1
642,643,1583586344280,-5.7611,-4.1444,-6.3680997,3.193166,-6.62285,-7.719672,-1
643,644,1583586344291,-6.5436997,-4.176,-4.137,2.475844,-6.485499400000001,-6.302401000000001,-1
644,645,1583586344301,-7.3967,-3.9768999,-3.2157,1.6883814,-6.1675878,-5.213872,-1
645,646,1583586344311,-7.6777997000000004,-3.7024,-2.1545,1.6109433000000002,-5.867853,-3.8063116000000004,-1
646,647,1583586344322,-7.6309,-3.6669998,-0.67219996,1.6953918000000001,-5.9965177,-2.3897293,-1
647,648,1583586344332,-7.6836,-3.9232,0.19929999,1.6205393,-6.153414700000001,-1.7031009999999998,-1
648,649,1583586344342,-7.8399997,-3.9185,0.7258,1.4193307,-6.1382732,-0.9684642,-1
649,650,1583586344352,-8.0793,-3.9406,1.5737,1.2716083999999999,-6.1770787,0.36929125,-1
650,651,1583586344362,-7.9795,-3.952,2.9133,1.7848294999999998,-6.097285,2.2233229,-1
651,652,1583586344373,-7.3051,-3.6195,4.8258,2.464074,-5.5083685,4.350542,-1
652,653,1583586344383,-6.7931,-2.9634,7.0685,2.589626,-5.078772,6.905931,-1
653,654,1583586344393,-6.8875,-2.6114,9.5788,2.1701236,-5.014397,8.983792,-1
654,655,1583586344403,-7.4322996,-2.6059,10.8581,1.6230294,-5.210501,9.303542,-1
655,656,1583586344414,-7.8478,-2.7919998,10.7948,1.4283137,-5.4761424000000005,9.536373,-1
656,657,1583586344424,-7.8953,-2.7368,11.3455,1.5416456,-5.3022084000000005,10.725497,-1
657,658,1583586344434,-7.581,-2.1032999,13.1017,2.106955,-4.158135,13.48604,-1
658,659,1583586344444,-7.0992,-0.92719996,14.8294,2.4071686000000003,-3.2172517999999997,14.695246,-1
659,660,1583586344454,-6.7338,0.4154,15.995899,2.8042613999999997,-2.239297,15.815551000000001,-1
660,661,1583586344464,-6.1407,1.2104,17.156,3.5616239999999997,-2.6628982999999997,17.849789,-1
661,662,1583586344474,-5.4463,0.5994,18.9631,4.2409067,-4.2098684,19.452562,-1
662,663,1583586344485,-4.6604,-0.7592,20.272299,5.005481,-5.379187,19.450026,-1
663,664,1583586344495,-3.8033,-1.5918,19.833199,5.805144,-6.325586299999999,18.388964,-1
664,665,1583586344505,-2.8855999,-2.2947,18.7054,6.5373964,-6.940666,17.290007,-1
665,666,1583586344516,-2.0361,-2.5424,17.3724,7.3488393,-7.042889,15.583207999999999,-1
666,667,1583586344526,-1.1099,-2.2834,15.596499,8.105982000000001,-6.612249,14.354331,-1
667,668,1583586344536,-0.2768,-1.6116999,14.425699,8.563428,-6.3739300000000005,13.696931,-1
668,669,1583586344546,0.2658,-1.2631999,13.874,9.010798,-7.0621,13.810570000000002,-1
669,670,1583586344556,0.7748,-1.704,14.0264,9.409806,-8.043704,13.785766,-1
670,671,1583586344566,1.4096,-2.7526,13.8301,9.642513000000001,-9.650127000000001,12.277064,-1
671,672,1583586344577,1.7093999,-3.8597998999999996,12.4092,9.329255999999999,-10.870413000000001,11.085987,-1
672,673,1583586344587,1.5648999,-4.8715,11.1401,9.250611,-12.064929,10.158942,-1
673,674,1583586344597,1.6424999,-5.8490996,10.1088,9.790302,-12.847755000000001,8.348821000000001,-1
674,675,1583586344607,2.3631,-6.4316998,8.1619,11.07053,-13.244148999999998,5.806628,-1
675,676,1583586344617,3.8023,-6.632899799999999,5.4764,12.071038,-13.216079,3.7505553,-1
676,677,1583586344628,4.9797,-6.4414997000000005,3.2851998999999994,12.036811,-12.989521,2.9702466,-1
677,678,1583586344638,4.1489,-5.733,3.2976,10.648059,-12.790735,4.1943827,-1
678,679,1583586344648,2.5546,-5.944,4.5573,8.909044999999999,-13.200623499999999,5.373776400000001,-1
679,680,1583586344658,2.5546,-5.944,4.5573,7.555191000000001,-13.643559,5.3568635,-1
680,681,1583586344668,0.1151,-6.891,2.9303,6.56537,-14.331825,3.3097732000000004,-1
681,682,1583586344678,0.5479999999999999,-7.2942995999999996,0.1845,7.096423,-14.771085000000001,0.5867805,-1
682,683,1583586344689,1.9240999,-7.5631,-2.5442,8.431421,-15.147664,-1.9503549,-1
683,684,1583586344700,3.2693,-7.7618,-4.6672,9.610622,-15.324117999999999,-3.7661078000000003,-1
684,685,1583586344710,4.0622,-7.5129,-5.553999999999999,10.158895,-15.119833999999999,-4.297640299999999,-1
685,686,1583586344720,3.9566,-7.2117996,-4.7418,9.6384535,-14.766642000000001,-2.9920914,-1
686,687,1583586344730,2.9273999,-6.7805995999999995,-3.8205998,8.234589,-14.279565,-2.6687784,-1
687,688,1583586344740,1.3052,-6.0917,-4.4726,6.907406,-13.641625,-3.4116894999999996,-1
688,689,1583586344751,-0.0749,-5.2759,-5.795,5.4269753,-12.725191,-4.9575486,-1
689,690,1583586344760,-0.7744,-4.6294,-7.2686996,5.0618787,-12.243478999999999,-6.0727777000000005,-1
690,691,1583586344770,-0.5954,-4.0285,-8.8961,5.510274400000001,-11.514606,-7.850520599999999,-1
691,692,1583586344780,0.2316,-3.5196998,-9.972199,6.3683366999999995,-11.184954,-8.277589,-1
692,693,1583586344791,1.0409,-3.4466,-9.5405,6.969157000000001,-11.190576,-7.650154,-1
693,694,1583586344801,1.6019,-3.4118,-8.4418,7.419190400000001,-11.173719,-6.373480000000001,-1
694,695,1583586344811,1.4152,-3.2347,-7.3620996,6.880715400000001,-10.795082,-5.3808627,-1
695,696,1583586344821,0.4134,-2.6848,-6.4346,5.6975775,-10.240575,-4.5325017,-1
696,697,1583586344832,-0.75879997,-2.1028,-5.6259,4.545689,-9.573905,-3.741103,-1
697,698,1583586344842,-1.495,-1.64,-5.1654,4.1294613,-9.207554,-3.6750422,-1
698,699,1583586344852,-1.7005,-1.2918,-5.358,4.288044,-8.8407135,-4.149209,-1
699,700,1583586344862,-1.295,-0.95699996,-6.1154,4.9085064,-8.64553,-5.126053,-1
700,701,1583586344872,-0.4684,-0.8304,-7.0348,5.681613,-8.637369999999999,-5.408721400000001,-1
701,702,1583586344883,0.4373,-0.991,-6.5501,6.499099,-8.859878,-3.9330127,-1
702,703,1583586344893,0.8045,-1.1294999,-4.9729,6.445651,-9.120089,-2.0633614,-1
703,704,1583586344903,0.473,-1.4771999,-2.7282999,5.789543599999999,-9.5262985,0.17440324,-1
704,705,1583586344913,-0.2393,-1.694,-0.54109997,5.1048694,-9.370417,1.8175343000000002,-1
705,706,1583586344923,-0.9009,-1.4352,0.6349,4.484051999999999,-9.1290245,1.9565799,-1
706,707,1583586344933,-1.4064,-1.1689,0.1744,4.3253746,-8.701372000000001,0.8985822,-1
707,708,1583586344943,-1.2817999,-0.63589996,-1.1373,4.803688,-8.148033,-0.30144915,-1
708,709,1583586344953,-0.5969,-0.1661,-2.1272,5.564939,-7.944986,-0.7570274,-1
709,710,1583586344963,0.1612,-0.1417,-2.3186,6.155895,-8.202621,-0.49013140000000005,-1
710,711,1583586344973,0.70989996,-0.5555,-1.814,6.549923000000001,-8.733300999999999,0.27922140000000006,-1
711,712,1583586344983,1.0225999,-0.9999,-1.0034,6.6559,-9.034606,1.0175357,-1
712,713,1583586344993,0.9413,-1.1744,-0.35119998,6.339664,-9.088658,1.4683543,-1
713,714,1583586345004,0.55759996,-1.13,0.062,5.9013624,-8.932048,1.7619696,d
714,715,1583586345014,0.1231,-0.91429996,0.26929998,5.4906135,-8.640961,1.6758741000000001,-1
715,716,1583586345024,-0.1716,-0.6818,0.0503,5.445056,-8.342097,1.2624625,-1
716,717,1583586345034,-0.1581,-0.3715,-0.3924,5.5580335,-8.1137295,0.7857770000000001,-1
717,718,1583586345044,-0.0241,-0.19759999,-0.9773,5.71382,-8.077921,0.115525015,-1
718,719,1583586345054,0.15959999,-0.16899999999999998,-1.5755999,5.8564854,-8.056345,0.17809029999999998,-1
719,720,1583586345064,0.2915,-0.1774,-1.2991999,6.0171747,-8.294578999999999,0.83119017,-1
720,721,1583586345075,0.43799999999999994,-0.4888,-0.66789997,6.127969,-8.640301,1.5885912,-1
721,722,1583586345085,0.5398,-0.76269996,0.1214,6.0421605000000005,-8.691028999999999,2.170248,-1
722,723,1583586345095,0.3832,-0.7754,0.64059997,5.788079,-8.591124,2.0824287,-1
723,724,1583586345106,0.10569999,-0.6861,0.3672,5.638699,-8.409442,1.4371531000000002,-1
724,725,1583586345116,0.0002,-0.4784,-0.2839,5.570953,-8.238448,0.8910453000000002,-1
725,726,1583586345126,-0.0654,-0.361,-0.7407,5.5803,-8.236399,0.6953431999999999,-1
726,727,1583586345136,-0.059899997,-0.36949998,-0.96269995,5.7217684,-8.374228,0.7302314999999999,-1
727,728,1583586345147,0.1338,-0.5617,-0.93359995,6.101115,-8.792304,0.7702241999999999,-1
728,729,1583586345157,0.46539998,-0.93789995,-0.9145,6.511357,-9.224628,0.80055404,-1
729,730,1583586345167,0.8638,-1.3722,-0.8859999999999999,6.9804770000000005,-9.756295,0.7935916999999999,-1
730,731,1583586345177,1.3183,-1.9052999,-0.89089996,7.478241400000001,-10.240556,0.78045225,-1
731,732,1583586345188,1.8090998999999999,-2.3918,-0.89699996,7.836614599999999,-10.575591000000001,0.7440988000000001,-1
732,733,1583586345198,2.2273,-2.8337998,-0.95049995,8.145361,-10.968268,0.44594399999999995,-1
733,734,1583586345208,2.5908,-3.2977,-1.9151,8.359307000000001,-11.138995,-0.33001676,-1
734,735,1583586345218,2.5908,-3.2977,-1.9151,8.739162,-11.4126425,-0.86983263,-1
735,736,1583586345228,3.7726,-4.1257,-3.3881997999999998,9.664022000000001,-12.008827,-1.7173035,-1
736,737,1583586345238,3.7726,-4.1257,-3.3881997999999998,10.4528265,-12.696748,-2.255204,-1
737,738,1583586345249,5.3352,-5.468,-4.19,11.313483999999999,-13.287359,-2.3228736,-1
738,739,1583586345259,6.0649,-5.9781,-3.9359998999999997,12.016633,-13.740782999999999,-2.0863457,-1
739,740,1583586345269,6.4273,-6.4761996,-3.705,12.44732,-14.3173065,-1.8124106,-1
740,741,1583586345279,6.8364997,-7.0126,-3.3307,13.000228,-14.660521,-1.5124748,-1
741,742,1583586345289,7.3746,-7.0971,-3.1773,13.53766,-14.646854000000001,-1.5026393,-1
742,743,1583586345300,7.5495996,-7.2128997,-3.1797,13.695829999999999,-14.674732,-1.4989233999999998,-1
743,744,1583586345310,7.2795,-7.0871,-3.1829998,13.4627495,-14.422796,-1.542067,-1
744,745,1583586345320,6.7785997,-6.8174,-3.1548,13.045402000000001,-14.038957,-1.5571504999999999,-1
745,746,1583586345330,6.1951,-6.4407,-3.0642,12.537104,-13.411523999999998,-1.3805253999999998,-1
746,747,1583586345340,5.6997,-5.9838,-2.5036,12.198611,-12.813125999999999,-0.8201673,-1
747,748,1583586345350,5.1886997,-5.4841,-1.8772999,11.774119,-12.243611999999999,-0.36170644,-1
748,749,1583586345361,4.5878,-5.1566997,-1.1544,11.386555,-11.966028,0.49907613,-1
749,750,1583586345371,4.2229,-5.2760997000000005,0.13159999,11.325752,-11.936589999999999,1.6359101999999999,-1
750,751,1583586345381,4.1819,-5.266,1.3677,11.505144,-11.772788,2.7606392000000004,-1
751,752,1583586345391,4.2566,-5.3069997,2.8337,11.678742999999999,-11.68833,4.181971,-1
752,753,1583586345401,4.0308,-5.1903,4.3406997,11.358266,-11.162841,5.2232285,-1
753,754,1583586345412,3.0888,-4.5994997,4.7878,10.334639,-10.343575,4.973733999999999,-1
754,755,1583586345422,1.6963999,-3.9972,4.1277,9.124466,-9.470274,3.9911342000000003,-1
755,756,1583586345432,0.49769998,-3.3095,3.4473998999999997,8.099537,-8.315503,3.1927924,-1
756,757,1583586345442,-0.4008,-2.5672,3.1741998,7.52692,-7.272406599999999,3.0903971,-1
757,758,1583586345452,-1.0913,-1.8318,3.4745998,7.0486355,-6.596572,3.2638333,-1
758,759,1583586345462,-1.9827,-1.3048999,3.8774998,6.0405617,-5.561797,3.3256803,-1
759,760,1583586345472,-2.9956,-0.62909997,3.9271,5.3058195,-4.7747082999999995,3.0808299999999997,-1
760,761,1583586345482,-3.9138,0.1331,3.8490998999999997,4.641457,-3.912346,3.0886254,-1
761,762,1583586345492,-4.2654,0.3321,4.7256,5.1073875,-3.7044716,4.6460347,-1
762,763,1583586345502,-3.1499,-0.1204,6.5634,6.743949400000001,-4.182316,6.009015,-1
763,764,1583586345512,-1.0038999,-0.6613,7.7296,8.710192999999999,-4.0034019999999995,5.8576727,-1
764,765,1583586345522,-0.43799999999999994,-0.35959998,6.4609,7.896757000000001,-3.3442016000000003,3.4925656000000003,-1
765,766,1583586345532,-2.1358,-0.0339,3.9731998,6.094507,-2.921175,1.4711603000000002,-1
766,767,1583586345542,-4.6176,0.3294,1.4986999,3.5463011,-1.8857977,-1.3254013999999998,-1
767,768,1583586345552,-6.3061,1.1032,-0.3389,2.597067,-0.79614866,-2.3074167,-1
768,769,1583586345562,-6.8402,1.9073999,-0.589,2.8039167000000003,0.24010013,-1.7110115000000001,-1
769,770,1583586345572,-6.4068,2.5221999,0.48819998,3.4892616000000003,0.7915230999999999,-0.22511242,-1
770,771,1583586345583,-5.7629,2.6741998,2.2598,3.8972623,0.9049125,1.7733086,-1
771,772,1583586345593,-5.6768,2.3803,4.4811,3.5156457000000003,0.56972426,3.819288,-1
772,773,1583586345603,-6.2899,1.6316998999999999,6.3606997000000005,2.9385185000000003,-0.19445707,4.904819,-1
773,774,1583586345613,-6.6259,0.7003,6.9879,3.0959708999999997,-0.81623125,4.529609,-1
774,775,1583586345624,-6.4144998,0.18949999,6.240999700000001,3.2924294,-0.52336293,2.4524574,-1
775,776,1583586345634,-6.256,0.4678,3.9422998,3.3441443,-0.06516059,0.68902254,-1
776,777,1583586345644,-6.3166,0.90959996,1.9842999,2.987485,0.6363501,-0.8943205,-1
777,778,1583586345654,-6.6712,1.3306999,0.89809996,2.5654635,1.0559100000000001,-1.3994014,-1
778,779,1583586345664,-7.1393,1.6521,0.44959998,2.4455047000000003,1.2423513000000002,-0.90796745,-1
779,780,1583586345674,-7.1491,1.6707,1.1085,2.996602,1.0437665999999999,0.22488259,-1
780,781,1583586345684,-6.4364,1.3449999,2.2357,3.8886912000000002,0.7488871,1.1519270000000001,-1
781,782,1583586345695,-5.2788997,0.8922,3.3753,5.1000614,0.006617573000000001,2.0916226000000004,-1
782,783,1583586345705,-4.3954,0.1514,3.955,5.71834,-0.6249345000000001,2.1652873,-1
783,784,1583586345716,-3.8381,-0.41369998,3.8815,6.088972,-0.76791626,1.377911,-1
784,785,1583586345726,-3.5102,-0.49289998,2.9032998,6.191290400000001,-0.45653594,-0.3459813,-1
785,786,1583586345736,-3.4692,-0.2084,1.4014,5.986376,-0.18638381,-1.6652918,-1
786,787,1583586345746,-3.6727,0.034399997,0.058399998,5.8278794000000005,-0.11708604,-2.3627226,-1
787,788,1583586345756,-3.8444,0.078899994,-0.67329997,6.0855722000000005,-0.13179602,-2.2984047000000003,-1
788,789,1583586345767,-3.5805,0.046,-0.60719997,6.6538982,-0.27944165,-1.7399143,-1
789,790,1583586345777,-2.8319,-0.18789999,0.1389,7.6954720000000005,-0.7455161,-0.42994115,-1
790,791,1583586345787,-1.9636999,-0.60249996,1.3169999,8.433844,-0.86713195,0.43664494,-1
791,792,1583586345797,-1.2233,-0.7288,2.1780999,8.767682,-0.8236533000000001,0.44876915,-1
792,793,1583586345807,-0.8886,-0.69549996,2.1954,8.761121000000001,-0.77117234,0.008465897,-1
793,794,1583586345817,-0.9503,-0.6512,1.6012,8.416998,-0.7300304,-1.1765202,-1
794,795,1583586345827,-1.2501999,-0.6157,0.5498,8.311049,-0.6040858,-2.1711864,-1
795,796,1583586345838,-1.364,-0.4892,-0.47379997,8.5271225,-0.5180478000000001,-2.8593182999999995,-1
796,797,1583586345848,-1.1428,-0.3988,-1.1954,8.863335000000001,-0.5228265999999999,-2.856905,-1
797,798,1583586345858,-0.8111,-0.39479998,-1.2059,9.22665,-0.6017395000000001,-2.5818784,-1
798,799,1583586345868,0.0363,-0.5764,-0.80009997,9.787486999999999,-0.7289003000000001,-2.4334952999999997,-1
799,800,1583586345879,0.4025,-0.7431,-0.3883,10.119985,-0.89960694,-1.9870628000000001,-1
800,801,1583586345889,0.61079997,-0.74649996,0.2529,10.295316999999999,-0.8615966,-1.3272305,-1
801,802,1583586345899,0.61079997,-0.74649996,0.2529,10.241513000000001,-0.8458235000000001,-0.96050584,-1
802,803,1583586345909,0.3446,-0.70229995,0.7459,9.964361,-0.79319906,-1.044389,-1
803,804,1583586345920,0.1453,-0.66209996,0.090799995,9.769971,-0.7219859000000001,-1.9031988000000002,-1
804,805,1583586345930,0.0828,-0.5233,-0.59679997,9.786549,-0.53365797,-2.3586717,-1
805,806,1583586345940,0.19739999,-0.3258,-0.7714,9.934059,-0.34181540000000005,-2.4321928,-1
806,807,1583586345951,0.34289998,-0.19739999,-0.7899,10.095477,-0.24212083,-2.3593805,-1
807,808,1583586345961,0.4901,-0.12879999,-0.56369996,10.171717999999998,-0.18480363,-2.1227183,-1
808,809,1583586345971,0.491,-0.14999999,-0.2539,10.17687,-0.22609884,-1.7084352999999999,-1
809,810,1583586345981,0.5017,-0.1638,0.252,10.16532,-0.20530759,-1.2454445,-1
810,811,1583586345991,0.44309998,-0.19899999999999998,0.5675,10.089597,-0.23149057,-1.0557758999999998,-1
811,812,1583586346002,0.40289998,-0.2546,0.6107,10.062753,-0.26428154,-1.0933362,-1
812,813,1583586346012,0.3813,-0.29029998,0.452,10.082022,-0.2773922,-1.2636118,-1
813,814,1583586346023,0.4082,-0.26639998,0.2597,10.092288,-0.16007632,-1.3913089,-1
814,815,1583586346033,0.3958,-0.1244,0.205,10.061585000000001,-0.014978126000000001,-1.4087197,-1
815,816,1583586346043,0.26639998,0.0275,0.2315,9.742515,0.09602664400000001,-1.3320379999999998,-1
816,817,1583586346053,-0.038599997999999996,-0.035299998,0.23429999,9.619318,0.011654973999999999,-1.4340598999999998,-1
817,818,1583586346063,-0.038799997,-0.086899996,0.1541,9.781492,0.017630901,-1.371868,-1
818,819,1583586346074,0.2261,-0.096599996,0.30179998,10.133889,-0.03013821,-1.1809256000000001,-1
819,820,1583586346084,0.5499,-0.1358,0.4201,10.324678,-0.056541465,-1.1578263999999998,-1
820,821,1583586346094,0.6482,-0.1495,0.4204,10.290488999999999,0.00014365209999999998,-1.2173367,-1
821,822,1583586346104,0.53099996,-0.1334,0.3331,9.970758,0.13976392,-1.2799209999999999,-1
822,823,1583586346114,0.198,-0.0055,0.3046,9.605758,0.23988943,-1.2673563,-1
823,824,1583586346125,-0.2523,0.0659,0.32529998,9.215876,0.27550557,-1.2455307,d
824,825,1583586346135,-0.5164,0.060599997999999995,0.36569998,9.12303,0.32494104,-1.1914889,-1
825,826,1583586346146,-0.5646,0.1777,0.4173,9.178353999999999,0.5704329,-1.2641288999999998,-1
826,827,1583586346156,-0.48479998,0.35979998,0.2856,9.245967,0.7286226,-1.4160073999999998,-1
827,828,1583586346166,-0.41439998,0.47829998,0.1972,9.297892,0.85077477,-1.3939042,-1
828,829,1583586346176,-0.38239998,0.5711,0.2312,9.319296000000001,0.9296015,-1.4371436000000002,-1
829,830,1583586346186,-0.35,0.6656,0.17009999,9.287204,0.9524709000000001,-1.7285561999999999,-1
830,831,1583586346196,-0.39569998,0.6436,-0.1639,9.194444,0.7371268,-2.1979919999999997,-1
831,832,1583586346207,-0.48099998,0.3766,-0.5785,9.242461,0.18095377,-2.4276056,-1
832,833,1583586346217,-0.4199,-0.1056,-0.74219996,9.607155,0.067870826,-2.7258847,-1
833,834,1583586346227,-0.1457,-0.25439999,-0.9802,9.84989,0.43678859999999997,-3.0606419999999996,-1
834,835,1583586346239,0.1735,0.14299999,-1.3978,9.760682000000001,1.1274871000000002,-3.0576735,-1
835,836,1583586346249,-0.33929998,1.1031,-0.6289,9.197498,1.4536347,-1.8520778000000002,-1
836,837,1583586346259,-1.1479,1.2085999,1.3738999,8.33728,1.6271473,0.28827146,-1
837,838,1583586346269,-2.3074,1.4911,3.5328,7.1308229999999995,1.9894859,2.4402087000000003,-1
838,839,1583586346279,-3.6531,1.7131,5.4544997,5.421938,2.2623675,4.6991663,-1
839,840,1583586346290,-5.2857,1.8052,7.0855,3.7598736000000006,2.3572830000000002,6.182958999999999,-1
840,841,1583586346300,-6.7165,1.8848,8.0525,2.8111088,2.4648687999999996,6.829575,-1
841,842,1583586346310,-7.2496996,2.2252998,8.4907,2.471027,2.8902802000000003,7.373873,-1
842,843,1583586346320,-7.2379999999999995,2.7891998,9.327,2.4666216,3.422818,8.45022,-1
843,844,1583586346330,-7.4519997,3.1666,10.4859,2.2481362999999996,3.664766,9.873688000000001,-1
844,845,1583586346341,-7.9853997,3.1820998,12.3286,1.5189103000000002,3.5358338,12.42154,-1
845,846,1583586346351,-8.5423,2.9099,14.6085,1.1359528,3.170019,14.257337,-1
846,847,1583586346361,-9.0736,2.3367,16.4802,0.48028645,2.2595997000000003,16.010275,-1
847,848,1583586346371,-9.5008,1.3436999,16.6946,0.25966552,1.1072226,15.326147,-1
848,849,1583586346381,-9.3258,0.578,15.248899,0.69912606,0.5150598,13.406657999999998,-1
849,850,1583586346391,-8.530399000000001,0.5085,12.8967,1.5418755,0.24750300000000003,10.67609,-1
850,851,1583586346402,-7.7028,0.013999999499999999,10.143499,2.4241102000000003,-1.1749688,7.316623,-1
851,852,1583586346412,-7.0664,-1.3069,7.3602996,2.9492637999999998,-2.523297,4.872861400000001,-1
852,853,1583586346422,-6.2736998,-2.5321,4.6398997,3.9195860000000002,-4.0373616000000005,2.2841547,-1
853,854,1583586346432,-4.8009996,-4.0668,2.5393,5.8570986,-6.0508084,0.20582473,-1
854,855,1583586346442,-3.1076,-5.1842,1.2559,7.291531599999999,-6.9468913,-1.097119,-1
855,856,1583586346452,-1.7854999,-5.5662,0.2241,8.151721,-7.409058,-2.1811655,-1
856,857,1583586346463,-1.1748999,-5.777199700000001,-0.9896,8.36355,-7.9079237000000004,-3.7474617999999995,-1
857,858,1583586346473,-1.0148,-6.5122,-3.5159998,8.490883,-9.700491,-7.9990179999999995,-1
858,859,1583586346483,-0.4976,-8.283999,-8.0268,9.7975235,-12.093237,-13.249397,-1
859,860,1583586346493,1.5,-10.3004,-13.1244,12.461303,-13.736694,-17.66582,-1
860,861,1583586346503,4.5822997,-10.9969,-16.7236,15.624982000000001,-14.022696,-20.185093,-1
861,862,1583586346514,7.5488,-11.012,-18.9916,17.594642999999998,-14.102337,-22.769163,-1
862,863,1583586346524,8.6484995,-10.5795,-21.022,17.405981,-13.273914000000001,-23.504807,-1
863,864,1583586346534,8.0051,-9.3475,-21.4322,15.375717000000002,-12.650924,-22.297594,-1
864,865,1583586346544,5.9593997000000005,-9.0645,-20.1496,13.180558999999999,-12.862934,-20.869806,-1
865,866,1583586346555,3.9034998,-9.2529,-18.8541,11.852542999999999,-12.973461,-19.767803,-1
866,867,1583586346565,2.6971,-9.300799000000001,-17.8676,10.806258,-12.675737,-18.991919,-1
867,868,1583586346575,1.6635,-8.9108,-17.088998999999998,9.807627,-12.048715,-18.08735,-1
868,869,1583586346585,0.643,-8.2417,-16.2546,8.922155,-11.340701,-17.41911,-1
869,870,1583586346596,-0.1505,-7.515,-15.6613,8.480731,-10.643165,-16.719955,-1
870,871,1583586346606,-0.7927,-6.6998997000000005,-14.8615,7.564672,-9.797830000000001,-15.700398999999999,-1
871,872,1583586346616,-1.6337,-6.0643,-14.2102995,6.7504615999999995,-9.394541,-14.843112,-1
872,873,1583586346626,-2.445,-5.7356,-13.4291,6.186464,-9.254413000000001,-13.243488000000001,-1
873,874,1583586346636,-2.9882998,-5.674299700000001,-11.7416,5.4936776,-9.594428,-10.445575999999999,-1
874,875,1583586346647,-3.6064,-6.0171,-9.5015,5.0565443,-9.717097,-8.547175,-1
875,876,1583586346657,-4.0643997,-6.1639,-7.7023997,5.073428,-9.596707,-7.1131444,-1
876,877,1583586346667,-4.0583,-6.0622,-6.3445,5.304114299999999,-9.190335000000001,-5.941354799999999,-1
877,878,1583586346677,-3.8323,-5.6598997,-5.2497997000000005,5.435651999999999,-9.012609,-5.487357,-1
878,879,1583586346688,-3.6803,-5.4646,-4.7748,5.620561,-8.882852999999999,-4.556482,-1
879,880,1583586346697,-3.5238998,-5.348,-3.9814,5.8581996,-8.722249,-3.461125,-1
880,881,1583586346707,-3.2845,-5.1629,-2.9462,6.3571134,-8.435222999999999,-2.578651,-1
881,882,1583586346717,-2.7759,-4.8501,-2.1134,6.917126700000001,-8.498938,-1.6017209,-1
882,883,1583586346727,-1.7584,-4.9859,0.5458,7.3808355,-8.747551,0.6832477,-1
883,884,1583586346738,-1.7584,-4.9859,0.5458,7.528175,-9.233067,2.9743934,-1
884,885,1583586346748,-1.5558,-5.5291,3.2542999,7.6612635,-9.954459,5.940167400000001,-1
885,886,1583586346758,-1.4107,-6.1974998,6.1612,8.442166,-10.046319,8.775888,-1
886,887,1583586346768,0.0018,-5.9986997,10.268499,9.151299,-9.755614999999999,10.489111999999999,-1
887,888,1583586346778,0.60069996,-5.2546,11.4528,9.717461,-8.980851,11.699075,-1
888,889,1583586346789,1.179,-4.1819997,12.5517,10.304884,-7.901833,13.027465,-1
889,890,1583586346799,1.8046,-3.1448,14.4451,10.953664,-6.819309,15.494354000000001,-1
890,891,1583586346809,1.8046,-3.1448,14.4451,11.199357000000001,-6.289817,17.591425,-1
891,892,1583586346819,2.1735,-1.8677,19.792,11.063511,-5.8768167,20.457506,-1
892,893,1583586346829,1.9549999,-1.5904,21.066599,10.901183,-5.552795400000001,21.522429000000002,-1
893,894,1583586346840,2.2252,-1.2098,21.098999,11.38758,-5.1256123,21.142295999999998,-1
894,895,1583586346850,2.8874998,-0.7341,19.8666,12.115216,-4.4971440000000005,19.681535999999998,-1
895,896,1583586346860,3.6464999,0.0106,18.162699,12.697227499999999,-3.9187336000000004,18.378984,-1
896,897,1583586346870,4.2046,0.6766,16.5098,13.334879999999998,-3.1172793,16.511143,-1
897,898,1583586346880,4.6770997,1.1439999,15.2695,13.681857,-2.8562827,15.624397,-1
898,899,1583586346891,4.6703,1.0389,14.772599,13.518189000000001,-3.101497,15.255767,-1
899,900,1583586346901,4.3029,0.5481,14.2588,13.095699,-3.5406699999999995,14.371445000000001,-1
900,901,1583586346911,3.9599998,0.145,12.7983,12.918892999999999,-3.8782046,12.463514,-1
901,902,1583586346921,3.9882998,-0.2531,10.3502,13.22601,-4.2632113,9.037977,-1
902,903,1583586346932,4.3982,-0.6161,7.3743,13.876438,-4.46668,6.023782700000001,-1
903,904,1583586346943,5.0425,-0.8458,4.5526,14.467097,-4.666098000000001,3.5718424,-1
904,905,1583586346953,5.4982,-1.2009999999999998,2.5449,14.798159,-5.1090446,1.803351,-1
905,906,1583586346964,5.6366997,-1.7153,1.4181,14.762255,-5.603974,1.232832,-1
906,907,1583586346973,5.5365,-2.2921999,1.0361999,14.723813,-5.8587646,0.96896213,-1
907,908,1583586346983,5.4540997,-2.6452,0.83,14.662857,-5.943260700000001,0.80614686,-1
908,909,1583586346993,5.3419,-2.7712998,0.8129,14.515479000000001,-5.8449163,0.75310093,-1
909,910,1583586347003,5.0334,-2.7575,0.80189997,14.093344,-5.593114,0.6167751,-1
910,911,1583586347013,4.4502,-2.6434,0.64959997,13.365554999999999,-5.478977700000001,0.37702929999999996,-1
911,912,1583586347024,3.6422,-2.7312,0.3721,12.681875999999999,-5.427282,-0.15872599,-1
912,913,1583586347034,2.9831,-2.8628,-0.3365,12.127139999999999,-5.5699760000000005,-1.5992885000000001,-1
913,914,1583586347044,2.5523999,-3.194,-1.5777999,11.972866,-5.748411,-2.669238,-1
914,915,1583586347054,2.4587998,-3.4596998999999995,-2.3305,12.10946,-5.5849447,-2.5436572999999996,-1
915,916,1583586347064,2.5358999,-3.3981,-1.8649,11.826657,-5.204209,-1.7529004000000001,-1
916,917,1583586347075,2.1060998,-3.1991,-0.9335,11.00014,-4.808122,-1.1775928999999998,-1
917,918,1583586347084,1.1394,-2.9717999,-0.2764,9.768343,-4.2460309999999994,-0.78465647,-1
918,919,1583586347094,-0.1478,-2.5649,0.1732,8.611628,-3.6437644999999996,-0.8599015,-1
919,920,1583586347105,-1.2666,-2.2268,0.1206,7.6768546,-3.102809,-1.4726448,-1
920,921,1583586347115,-2.2072,-1.8276999,-0.4655,6.620408,-2.7249846,-2.0692127,-1
921,922,1583586347125,-3.2809,-1.7138,-0.9023,5.6816699999999996,-2.641542,-2.5994040000000003,-1
922,923,1583586347135,-4.1412997,-1.8168999,-1.2873,5.177144999999999,-2.5154057,-3.1926007000000003,-1
923,924,1583586347145,-4.5439,-1.8009,-1.7741,4.9817395,-2.1537952000000002,-3.785482,-1
924,925,1583586347155,-4.7160997,-1.5799999,-2.1845,4.7299657,-1.9068955,-4.0850824999999995,-1
925,926,1583586347165,-4.9733,-1.5129,-2.2682,4.2863492999999995,-1.6216694,-3.8354057999999998,-1
926,927,1583586347176,-5.3366,-1.4175,-1.8925999,3.6265163,-1.1915271,-3.2921614999999997,-1
927,928,1583586347186,-5.9735,-1.1405,-1.2365,2.742491,-0.8852513000000001,-3.111629,-1
928,929,1583586347196,-7.06,-0.9256,-1.0217999,1.3799508,-0.46790360000000003,-3.7067604,-1
929,930,1583586347206,-8.1741,-0.7177,-1.4717,0.7082432,-0.07320510599999999,-3.840242,-1
930,931,1583586347216,-8.9822,-0.4034,-1.4843998999999999,-0.03706224,0.37151307,-3.2227871,-1
931,932,1583586347226,-9.5145,-0.1846,-0.82559997,-0.40292498,0.7300208,-2.3636994,-1
932,933,1583586347237,-9.871099000000001,0.060099997,0.108799994,-0.70221937,1.0327437,-1.8909116999999998,-1
933,934,1583586347247,-10.142000000000001,0.2553,0.6396,-0.97948706,1.2871037,-1.9575377,-1
934,935,1583586347257,-10.396999000000001,0.4314,0.6188,-1.143509,1.6504861000000002,-2.415788,-1
935,936,1583586347267,-10.5486,0.7344,0.1925,-1.3160063999999998,1.9933357,-3.1691186,-1
936,937,1583586347278,-10.8946,1.3471,-1.2638999,-1.5426416,2.4212177,-3.9815767,-1
937,938,1583586347288,-10.8946,1.3471,-1.2638999,-1.7202626,2.8497322,-4.0708227,-1
938,939,1583586347299,-11.3977995,2.2905998,-0.9795,-2.0916799999999998,3.3886955000000003,-3.4939833,-1
939,940,1583586347309,-11.3977995,2.2905998,-0.9795,-2.5224159999999998,3.663301,-2.3751726000000004,-1
940,941,1583586347319,-12.3813,2.7263,1.4085,-3.0972257,3.7453837,-1.0251206,-1
941,942,1583586347330,-12.872,2.8202999,2.1834,-3.6345515,3.829966,-0.39037937,-1
942,943,1583586347340,-13.222098999999998,2.9389999999999996,2.1313999,-3.8565322999999996,3.8019252,-0.53704816,-1
943,944,1583586347350,-13.2536,2.6536,1.7947999,-3.6951629999999995,3.1608155,-0.90425164,-1
944,945,1583586347360,-12.8075,2.1492999,1.3808999,-3.049418,2.5504665,-1.2469673000000001,-1
945,946,1583586347371,-12.127399,1.8808,1.0057,-2.4678473,2.1542451000000002,-1.6008495,-1
946,947,1583586347381,-11.8487,1.6137999,0.6288,-2.3114963,1.6285646999999999,-1.655169,-1
947,948,1583586347391,-11.8519,1.2741,1.0946,-2.3728838,1.0358849,-0.64517033,-1
948,949,1583586347401,-11.979099,0.77269995,2.6575,-2.471525,0.028845342000000003,1.6226558999999998,-1
949,950,1583586347411,-12.0722,0.2004,4.2753997,-2.531447,-0.58522904,2.7124486,-1
950,951,1583586347421,-12.1004,-0.2306,5.4438,-2.540813,-1.1152096000000002,3.740969,-1
951,952,1583586347431,-12.1182995,-0.5755,6.0716,-2.5290048,-2.3534333999999997,4.025112600000001,-1
952,953,1583586347441,-11.9737,-1.4873999,5.2929,-2.0570886,-3.6615963,2.992819,-1
953,954,1583586347451,-11.1417,-2.3875,4.1675997,-1.0104966999999998,-4.7674303,2.4135947,-1
954,955,1583586347461,-9.4226,-3.5751,3.5463998,0.6952762,-6.280661599999999,1.8847826,-1
955,956,1583586347472,-7.8191,-4.2904,2.9373,1.8319187,-6.9630375,1.6450654999999998,-1
956,957,1583586347482,-6.6289,-4.3294997,3.1611998,2.8542142000000004,-7.5195746,2.4692168,-1
957,958,1583586347492,-6.2752,-4.5515,4.5866,2.6687112,-8.40858,4.991805,-1
958,959,1583586347502,-6.5687,-5.0586,6.7837996,2.2847004,-9.659224499999999,7.1417503,-1
959,960,1583586347512,-6.5413,-6.2106,8.4223995,2.609105,-11.713287,8.115893,-1
960,961,1583586347523,-5.6960998,-8.247499000000001,8.4828,3.7440333,-14.582787,6.950348399999999,-1
961,962,1583586347533,-4.0494,-10.5868,5.9322996,5.664307599999999,-16.752937,3.4835730000000003,-1
962,963,1583586347543,-1.2491,-11.7414,2.1692998,9.207544,-17.592537,0.9186743,-1
963,964,1583586347553,2.8781998,-11.8294,0.2962,12.389764,-17.843132,0.6125709,-1
964,965,1583586347563,5.8423,-11.753699000000001,0.46769997,14.292025,-18.441720999999998,1.8987073,-1
965,966,1583586347573,7.4206,-12.0769,2.0503,14.745754000000002,-19.078972,3.9563608,-1
966,967,1583586347583,7.7988,-12.3526,3.7998998,14.448988,-19.587961,5.422119599999999,-1
967,968,1583586347593,7.6902,-12.433,4.8522,13.846157,-19.660686,6.435432,-1
968,969,1583586347603,7.3216996,-12.0904,5.410599700000001,13.101627,-19.388227,6.145523000000001,-1
969,970,1583586347613,6.9220996,-11.5464,3.8848998999999997,12.690447,-18.998192,3.7020583,-1
970,971,1583586347623,7.2181997,-10.8244,0.8312,13.387120999999999,-18.181932,0.9119226999999999,-1
971,972,1583586347634,8.6159,-9.7869,-1.9627,15.036401000000001,-17.302618,-1.1803606000000002,-1
972,973,1583586347644,10.2978,-8.9876995,-3.1597,15.965035,-16.766613,0.07086837,-1
973,974,1583586347654,11.202399,-8.3681,-1.5916,15.497228,-16.770445000000002,1.7891487000000001,-1
974,975,1583586347664,10.4277,-8.561,0.406,13.872320000000002,-17.512522,3.3732483,-1
975,976,1583586347674,9.3554,-9.0104,1.3554,13.253114000000002,-17.543053,3.5164117999999993,-1
976,977,1583586347684,9.1158,-8.8609,1.2343998999999999,13.260160999999998,-17.279816,2.8746414000000002,-1
977,978,1583586347694,9.3375,-8.3067,0.21100000000000002,13.146791,-16.282764,1.8894944,-1
978,979,1583586347704,9.287399,-7.3452997,-0.5949,12.53242,-15.475458999999999,1.0997909,-1
979,980,1583586347714,8.76,-6.5123997000000005,-1.4929,11.847487,-14.530726000000001,0.5652615,-1
980,981,1583586347724,8.1926,-5.5182,-1.9159,11.168146,-13.701489000000002,0.85032463,-1
981,982,1583586347735,7.5649,-4.7117,-1.4518,10.332397,-13.108245000000002,1.8262491,-1
982,983,1583586347745,6.7531,-4.1123,-0.3822,9.395298,-12.679969999999999,2.7272830000000003,-1
983,984,1583586347756,5.8427,-3.7026,0.49929997,8.359567,-12.348258,3.189795,-1
984,985,1583586347766,5.008899700000001,-3.4062997999999998,0.8882,7.8799787,-12.001261999999999,3.00864,-1
985,986,1583586347776,4.4448,-2.9394999,0.64419997,7.295343400000001,-11.331202000000001,2.2857156,-1
986,987,1583586347786,3.9756,-2.37,0.0415,6.863592,-11.0402775,1.7445111,-1
987,988,1583586347796,3.4332,-2.0103,-0.6085,6.2960224,-10.679758,1.0680053999999999,-1
988,989,1583586347807,2.9817,-1.7019999,-1.1394,6.0398235,-10.162514999999999,0.7076110999999999,-1
989,990,1583586347816,2.7182,-1.1884999,-1.4747,5.7744026,-9.796786,0.7398083000000001,-1
990,991,1583586347826,2.3574998,-0.74369997,-1.3354,5.253779,-9.545136,1.1473972,-1
991,992,1583586347836,1.7824,-0.5251,-0.8504,4.7858367,-9.373836,1.6460042000000001,-1
992,993,1583586347846,1.3194,-0.35689998,-0.25239998,4.367828,-9.12572,2.4993742,-1
993,994,1583586347856,0.9439,-0.1314,0.51809996,3.9597797,-8.985544,2.6447215,-1
994,995,1583586347866,0.5017,-0.0069,0.7151,3.7083025000000003,-8.876971000000001,2.1457505,d
995,996,1583586347877,0.2207,0.105,0.23539999,3.829947,-8.754772,1.3361368999999998,-1
996,997,1583586347887,0.3173,0.21609999,-0.57089996,4.0648375,-8.772555,0.809087,-1
997,998,1583586347897,0.5439,0.1907,-1.0835,4.2491330000000005,-8.954411,1.0248427,-1
998,999,1583586347907,0.7004,0.0,-0.8515,4.328208999999999,-9.113357,1.7298107,-1
999,1000,1583586347917,0.7549,-0.1513,-0.13,4.051028,-9.141886,2.1141088,-1
1000,1001,1583586347927,0.056399997,-0.37399998,0.32,3.677628,-9.314086,2.1451377999999997,-1
1001,1002,1583586347938,-0.033099998,-0.59209996,0.3312,3.6749847,-9.556083000000001,2.2076838,-1
1002,1003,1583586347948,0.1249,-0.70339996,0.4802,3.8961129999999997,-9.655603999999999,2.2659395,-1
1003,1004,1583586347958,0.382,-0.87469995,0.23969999,4.167529,-9.806008,1.9872256999999998,-1
1004,1005,1583586347968,0.382,-0.87469995,0.23969999,4.2238407,-9.818698,1.7415135,-1
1005,1006,1583586347978,0.54499996,-0.8569,-0.54829997,4.379148000000001,-9.782258,1.2241936000000002,-1
1006,1007,1583586347988,0.8231,-1.0576999,-0.7309,4.7095957,-9.940399000000001,1.1842104,-1
1007,1008,1583586347999,1.0886999,-1.2771,-0.3432,5.014924,-10.223203,1.6344161,-1
1008,1009,1583586348009,1.1934999,-1.6059999999999999,0.0069,5.095235,-10.532189,1.9072115,-1
1009,1010,1583586348019,1.2662,-2.1728,0.4788,5.2682495000000005,-11.059344,2.3776338,-1
1010,1011,1583586348029,1.5922999,-2.4972,0.85429996,5.772497,-11.354397,2.7727346,-1
1011,1012,1583586348039,1.5922999,-2.4972,0.85429996,6.0931096,-11.4773245,2.8929331,-1
1012,1013,1583586348049,2.4308999,-2.9111,0.8559,6.604673399999999,-11.666179,2.5773102999999997,-1
1013,1014,1583586348060,2.8033,-2.9717999,0.1433,7.119656599999999,-11.735927,1.6840241000000002,-1
1014,1015,1583586348070,3.1783,-3.2022,-0.564,7.608237,-11.9795885,1.1111683,-1
1015,1016,1583586348080,3.7027997999999998,-3.5221,-0.9043,8.136358999999999,-12.240174,0.93226385,-1
1016,1017,1583586348090,4.3563,-4.0979,-0.71529996,9.070442,-13.019209,1.346317,-1
1017,1018,1583586348100,5.1289997000000005,-4.8999,-0.1196,9.963796,-13.645839000000002,1.7840537,-1
1018,1019,1583586348110,5.9598,-5.3375998,0.023599999,10.847389999999999,-13.991570999999999,1.6752805,-1
1019,1020,1583586348121,6.4342,-5.7439,-0.15879999,11.226583999999999,-14.277563,1.5390024,-1
1020,1021,1583586348132,6.522,-5.9151998,-0.1166,11.38556,-14.313792000000001,1.5805178999999998,-1
1021,1022,1583586348142,6.5102997,-5.9687,0.011899999,11.560748,-14.209712,1.7650247,-1
1022,1023,1583586348152,6.5270996,-5.8164,0.2382,11.751633,-13.800906,1.8759526999999998,-1
1023,1024,1583586348162,6.5144,-5.526799700000001,0.3872,11.745973,-13.593195000000001,2.0311831999999996,-1
1024,1025,1583586348172,6.2374997,-5.5611,0.51989996,11.582669000000001,-13.681560500000002,1.8550561999999997,-1
1025,1026,1583586348182,5.9726,-5.8212,0.20449999,11.631501,-13.77524,1.1933755,-1
1026,1027,1583586348193,5.9564,-5.875,-0.5753,11.930469500000001,-13.466732999999998,0.30976182,-1
1027,1028,1583586348203,5.9564,-5.875,-0.5753,12.381039,-13.180597,-0.020647597,-1
1028,1029,1583586348213,6.2402997000000004,-5.5006,-1.2041,12.308332,-12.79469,0.43728656,-1
1029,1030,1583586348223,5.6808996,-5.2321,-0.302,11.483722,-12.432152,1.4522653,-1
1030,1031,1583586348234,4.4126,-5.1513,0.8059999999999999,10.312334,-12.078643,2.2372665,-1
1031,1032,1583586348244,3.0291,-4.8268,1.5408,9.025308,-11.193707,2.2308407000000003,-1
1032,1033,1583586348254,1.7543,-4.2736998,1.4633,8.224753,-10.452845,2.0356557,-1
1033,1034,1583586348264,0.80079997,-3.7707,1.4958,7.911620599999999,-9.696986,1.9950212,-1
1034,1035,1583586348275,0.39949998,-3.2233,1.5518999,8.004937,-8.836232,1.6424894,-1
1035,1036,1583586348285,0.3087,-2.6076,1.3319999999999999,8.007369,-8.020392999999999,1.4213705,-1
1036,1037,1583586348296,0.0762,-2.0602999,1.3166,7.894325,-7.561799000000001,1.4025425,-1
1037,1038,1583586348307,-0.2609,-1.8281,1.4853,7.6141553,-7.544886,1.9409218999999998,-1
1038,1039,1583586348317,-0.6159,-2.1964,2.1371999,7.5588493,-7.697004,2.8606496,-1
1039,1040,1583586348327,-0.78569996,-2.5856,4.1396,7.7338366999999995,-7.28004,3.7698336,-1
1040,1041,1583586348337,-0.78569996,-2.5856,4.1396,7.371900599999999,-6.756436999999999,3.5951428,-1
1041,1042,1583586348347,-1.1532999,-2.3583998999999998,4.2655997,6.886107000000001,-6.1858606,3.1032014,-1
1042,1043,1583586348358,-2.7691998,-1.2082,2.8127,6.0382915,-4.994927400000001,1.7431225,-1
1043,1044,1583586348367,-2.7691998,-1.2082,2.8127,5.695078,-4.368269000000001,0.92438215,-1
1044,1045,1583586348377,-3.4629998,-0.4578,1.5476999,4.9727955,-3.1822197,-0.18107826,-1
1045,1046,1583586348387,-4.182699700000001,0.2298,0.7987,4.258116200000001,-2.4428517999999997,-0.26948178,-1
1046,1047,1583586348397,-4.9870996,0.69,0.7862,3.6345131,-1.9646723000000001,0.5379675,-1
1047,1048,1583586348407,-5.6797,0.90559995,1.6735,3.2445264,-1.8172566000000003,1.6383426,-1
1048,1049,1583586348417,-6.1327,0.8113,2.8734,3.0164165,-1.7391961,2.2345755,-1
1049,1050,1583586348428,-6.4157,0.65569997,3.5772,3.2822495000000003,-1.8948957999999998,2.208335,-1
1050,1051,1583586348438,-5.5509,-0.043199997000000004,3.5876,4.0830717000000005,-1.9928473000000002,2.0146728,-1
1051,1052,1583586348448,-5.5509,-0.043199997000000004,3.5876,4.4110192999999995,-1.7806252,1.5218216,-1
1052,1053,1583586348458,-5.4677997000000005,0.3493,2.2289999,3.9059483999999998,-1.1148839,0.40935105,-1
1053,1054,1583586348468,-6.4667997,0.80609995,1.3651999,2.9109375,-0.4748085,-0.41775945,-1
1054,1055,1583586348478,-7.3559,1.2116,0.97599995,2.1171832000000004,0.10807426,-0.6741497,-1
1055,1056,1583586348488,-7.9055995999999995,1.2803999,1.0606999,1.6709038,0.24219745,-0.57806563,-1
1056,1057,1583586348498,-7.9055995999999995,1.2803999,1.0606999,1.7856531000000002,0.1536024,-0.5974395,-1
1057,1058,1583586348508,-7.1168,0.62259996,0.9799,2.730539,-0.25614128,-0.70888484,-1
1058,1059,1583586348518,-5.9957,0.0994,1.3445,3.8467064,-0.65161556,-0.36850595,-1
1059,1060,1583586348528,-5.058799700000001,-0.2289,1.6509999,4.699789,-0.8152256999999999,-0.17167385,-1
1060,1061,1583586348539,-4.6826,-0.0686,1.5991,4.9152,-0.45757025,-0.28160602,-1
1061,1062,1583586348549,-5.223099700000001,0.4394,1.7641,4.197141,0.17696023,-0.06223009,-1
1062,1063,1583586348559,-6.356,0.8587,2.0988,3.042015,0.6410906,0.26120740000000003,-1
1063,1064,1583586348569,-7.3241,1.0745,2.1132,2.2026944,0.94303775,0.26886886,-1
1064,1065,1583586348580,-7.6046,1.1496998999999999,2.0393,2.0918715,0.99193686,0.17976624,-1
1065,1066,1583586348591,-6.8711,0.9137,1.7658999,3.3385801,0.7443573,-0.32449093,-1
1066,1067,1583586348601,-5.3104,0.67759997,0.8809999999999999,5.0620127,0.4314064,-1.4303153,-1
1067,1068,1583586348611,-3.4536998,0.2636,-0.27969998,6.879949000000001,-0.031459812000000004,-2.4487224,-1
1068,1069,1583586348621,-1.9883,-0.0911,-0.67109996,8.030439999999999,-0.29663202,-2.4447386000000004,-1
1069,1070,1583586348631,-1.3090998999999999,-0.0284,-0.3053,8.289675,-0.09611283,-1.9377041000000002,-1
1070,1071,1583586348641,-1.7903999,0.1336,0.5255,7.3441944,0.008494628,-0.9393028,-1
1071,1072,1583586348651,-3.1852999,0.0942,1.3977,5.8948693,-0.110104546,-0.35972401,-1
1072,1073,1583586348662,-4.4042997,-0.1524,1.4231,5.0599245999999996,-0.2628546,-0.53262365,-1
1073,1074,1583586348672,-4.534,-0.2165,1.01,5.5790935,-0.36789304,-1.2348527,-1
1074,1075,1583586348682,-3.5140998,-0.37399998,0.28399998,7.220884,-0.62199444,-2.1062748,-1
1075,1076,1583586348692,-1.5897,-0.5983,-0.6272,9.288947,-0.823184,-2.9675841,-1
1076,1077,1583586348702,0.16899999999999998,-0.71529996,-1.2982,10.608392,-0.8947514999999999,-3.4244747,-1
1077,1078,1583586348713,1.2708,-0.695,-1.5479,10.965157000000001,-0.90139776,-3.2341547000000004,-1
1078,1079,1583586348723,1.1362,-0.7564,-1.1130999,10.213519999999999,-1.0540425,-2.595238,-1
1079,1080,1583586348733,0.1576,-0.9594,-0.39479998,9.186494,-1.1432122,-1.9356354,-1
1080,1081,1583586348744,-0.70309997,-0.92179996,0.1085,8.694102,-0.7730206999999999,-1.8864106,-1
1081,1082,1583586348753,-0.9176,-0.5805,-0.020499998999999998,8.796096,-0.47296977,-2.126913,-1
1082,1083,1583586348763,-0.741,-0.29099998,-0.2545,8.997947,-0.2884151,-2.1742702,-1
1083,1084,1583586348773,-0.4477,-0.17029999,-0.1405,9.358408,-0.26516262,-1.8610799999999998,-1
1084,1085,1583586348783,-0.174,-0.2592,0.1982,9.512556,-0.37316027,-1.5576389,-1
1085,1086,1583586348794,-0.09559999400000001,-0.37399998,0.4238,9.518742999999999,-0.51026183,-1.5671295,-1
1086,1087,1583586348805,-0.114,-0.5254,0.26319999,9.727737,-0.6571318,-1.9734255,-1
1087,1088,1583586348815,0.1916,-0.62409997,-0.1205,10.146522000000001,-0.69295853,-2.3333795,-1
1088,1089,1583586348825,0.8107,-0.64199996,-0.5848,10.94108,-0.6427282,-2.869623,-1
1089,1090,1583586348835,1.4185,-0.5833,-0.98819995,11.220828,-0.5300092,-3.0251408,-1
1090,1091,1583586348846,1.5830000000000002,-0.4649,-1.0968,10.943063,-0.32874304,-2.9224486,-1
1091,1092,1583586348856,1.178,-0.2906,-0.945,10.175358000000001,-0.12747687,-2.4366844,-1
1092,1093,1583586348866,0.3807,-0.0787,-0.41099998,9.208473,0.22479638,-1.7015209,-1
1093,1094,1583586348876,-0.4253,0.14909999,0.19569999,8.71048,0.31783506,-1.0519357,-1
1094,1095,1583586348887,-0.9259,0.217,0.8397,8.955952,0.34792540000000005,-0.6169379,-1
1095,1096,1583586348897,-0.66929996,0.23099999,1.2784,9.730505,0.32586044,-0.5755373,-1
1096,1097,1583586348907,0.1081,0.21229999,1.3317,10.460056,0.06162675,-0.9267093000000001,-1
1097,1098,1583586348917,0.83699995,-0.0514,1.0052,10.823765,-0.20309533,-1.5743216,-1
1098,1099,1583586348928,1.2023,-0.2857,0.3613,10.867751,-0.2369685,-2.2293465,-1
1099,1100,1583586348938,1.2228999,-0.30089998,-0.4475,10.553507000000002,-0.14217728,-2.9503365,-1
1100,1101,1583586348948,0.58349997,-0.0993,-0.94909996,10.147815,0.03424666,-2.8153992000000003,-1
1101,1102,1583586348958,0.39699998,-0.0469,-0.4613,9.996625,0.13371138,-2.2806687,-1
1102,1103,1583586348968,0.26049998,0.1384,0.0014,9.853164999999999,0.35795229999999995,-1.8636273999999997,-1
1103,1104,1583586348978,0.26049998,0.1384,0.0014,9.652377,0.44723687,-1.6710666,-1
1104,1105,1583586348989,-0.1459,0.118599996,0.4633,9.458113,0.2991124,-1.4434928999999999,-1
1105,1106,1583586348999,-0.1328,-0.1201,0.76119995,9.513992,0.11605174,-1.1790295,d
1106,1107,1583586349009,0.1148,-0.25419998,0.76159996,9.784623,0.025809495,-1.2503,-1
1107,1108,1583586349019,0.3994,-0.276,0.45679998,10.060905,0.016510413999999998,-1.6459658,-1
1108,1109,1583586349029,0.5833,-0.2005,-0.45909998,10.214861,0.1602104,-2.6549015,-1
1109,1110,1583586349039,0.6854,0.1513,-1.4024999,10.323233,0.5449107,-3.412561,-1
1110,1111,1583586349050,0.6405,0.42749998,-1.4459,10.218433000000001,0.8304049000000001,-3.2821730000000002,-1
1111,1112,1583586349060,0.2624,0.6162,-1.1593,9.770451,1.0682832,-2.9697583,-1
1112,1113,1583586349070,-0.3002,0.9083,-0.88839996,9.13659,1.5252023000000001,-2.484377,-1
1113,1114,1583586349080,-0.7028,1.2189,-0.1454,8.72155,1.8977305,-1.3625976999999998,-1
1114,1115,1583586349091,-1.2878,1.4742998999999999,1.4373,8.035927000000001,2.1850252,0.33281320000000003,-1
1115,1116,1583586349101,-2.1343,1.6169,3.2342,7.088464999999999,2.4143226,2.1338751,-1
1116,1117,1583586349111,-3.2687,1.8268,5.0341,6.0926304,2.65426,3.6224557999999996,-1
1117,1118,1583586349122,-4.5347,2.2640998,6.5063996,4.5710864,3.278256,4.981625,-1
1118,1119,1583586349132,-5.8173,2.7117999,6.6833,3.3537017999999996,3.738728,4.8896017,-1
1119,1120,1583586349142,-6.9677997000000005,3.1704998,6.4747996,2.1946497000000003,4.142505,5.017787,-1
1120,1121,1583586349152,-8.1684,3.3711,6.97,0.7949516,4.241338,5.9495525,-1
1121,1122,1583586349163,-9.2977,3.3818,7.8995,-0.2110441,4.123208,7.3927107,-1
1122,1123,1583586349173,-10.1965,3.2912,9.5931,-0.9724959999999999,3.893154,9.498085000000001,-1
1123,1124,1583586349183,-10.8645,2.9840999,11.987599000000001,-1.367319,3.4032426,12.213982000000001,-1
1124,1125,1583586349193,-11.0576,2.4931997999999997,14.847199,-1.4859853,2.689043,14.693302,-1
1125,1126,1583586349203,-11.2015,1.8750999,16.800299,-1.6327018999999998,2.0196338,15.417174,-1
1126,1127,1583586349214,-11.2611,1.4115,16.7396,-1.3380905,1.3571292,13.888429,-1
1127,1128,1583586349224,-10.8814,1.0009,15.0803995,-0.57199395,0.43539992,11.0647745,-1
1128,1129,1583586349234,-10.035299,0.2929,12.015999999999998,0.6211134,-1.0833761999999998,7.550307000000001,-1
1129,1130,1583586349244,-8.7432995,-1.1675,8.5879,2.4423057999999997,-3.1129507999999997,4.6331058,-1
1130,1131,1583586349255,-6.7141,-3.0007,5.9128,5.3284106,-5.380087400000001,2.329271,-1
1131,1132,1583586349265,-3.6260998,-4.9403,3.8123998999999995,8.535272,-7.088561,0.38779363,-1
1132,1133,1583586349275,-0.4253,-6.1471,2.1703,10.476931,-7.706465700000001,-0.60576177,-1
1133,1134,1583586349285,1.6180999,-6.5077,1.0879999,11.458602,-8.594552,-2.5751746,-1
1134,1135,1583586349295,2.0372999,-7.1362,-0.64559996,11.168175,-9.892564,-4.918715,-1
1135,1136,1583586349306,1.8391998999999999,-8.241199499999999,-2.9308999,11.304089,-11.138209,-7.8493710000000005,-1
1136,1137,1583586349316,2.2237,-9.2261,-5.9887,12.450184,-12.491833999999999,-12.229467,-1
1137,1138,1583586349326,3.6611998,-10.2947,-10.6729,15.03754,-13.420448,-18.776947,-1
1138,1139,1583586349336,5.9926996,-10.7364,-16.0763,17.256505999999998,-13.245098,-21.437279,-1
1139,1140,1583586349346,8.745,-10.2499,-19.133298999999997,18.85771,-13.339735000000001,-23.20151,-1
1140,1141,1583586349356,9.971,-10.1904,-20.4497,18.6375,-13.772673999999999,-23.087104999999998,-1
1141,1142,1583586349367,9.823999,-10.4881,-20.279,17.40599,-14.173703,-22.38638,-1
1142,1143,1583586349376,8.6465,-10.8073,-19.4996,15.930845000000001,-14.375668,-22.324265,-1
1143,1144,1583586349386,6.8585997,-10.908,-19.4639,14.338366500000001,-13.847707999999999,-23.167023,-1
1144,1145,1583586349396,5.3828998,-10.2598,-20.317999,13.071603999999999,-12.752696,-24.24155,-1
1145,1146,1583586349406,4.3995,-9.3343,-21.144499,12.621006,-11.855023,-24.047909,-1
1146,1147,1583586349416,3.8309,-8.2416,-20.781,11.302461,-10.604753,-22.907770000000003,-1
1147,1148,1583586349426,2.5997,-7.2714,-19.8263,9.396533,-9.716723,-21.593258,-1
1148,1149,1583586349437,0.65889996,-6.4579997,-18.5366,7.3487053,-8.856966,-19.038874,-1
1149,1150,1583586349447,-1.4396,-5.7019997,-16.0154,5.200618,-7.9447274000000006,-15.985117,-1
1150,1151,1583586349457,-3.642,-4.9191,-12.984099,3.5591724,-7.3476133,-13.575401000000001,-1
1151,1152,1583586349467,-5.7387,-4.3345,-10.0722,1.4993545,-6.7308865,-10.88994,-1
1152,1153,1583586349477,-7.4623,-3.9852,-7.9614,0.08205408,-6.401866,-8.793051,-1
1153,1154,1583586349487,-8.9386,-3.7937999,-5.9096,-1.0540425,-6.173142400000001,-7.2986474,-1
1154,1155,1583586349498,-10.1093,-3.6755998,-4.4814997000000005,-1.8152646000000001,-5.961093,-5.9728246,-1
1155,1156,1583586349508,-10.914599,-3.5686,-3.2254999,-2.2461154,-5.5637517,-4.4111156,-1
1156,1157,1583586349518,-11.9115,-2.8483,-0.020499998999999998,-2.84458,-5.0235233,-2.2066493,-1
1157,1158,1583586349528,-12.687799,-2.5676,1.9932,-3.604911,-4.706062,-0.06763141,-1
1158,1159,1583586349538,-13.259298999999999,-2.3009999,4.3178997,-4.093807,-4.4870980000000005,2.4065175,-1
1159,1160,1583586349548,-13.5195,-2.2271,6.8445,-4.2608747000000005,-4.392364,5.0231595,-1
1160,1161,1583586349559,-13.361899,-1.9489,9.3267,-4.049428,-4.1343555,7.4974713,-1
1161,1162,1583586349569,-13.030499,-1.5047,10.920199,-3.7141633,-3.7610513999999995,8.958078,-1
1162,1163,1583586349579,-12.9255,-1.0826,11.3147,-3.6804242,-3.5555427,9.290134,-1
1163,1164,1583586349589,-12.9746,-1.0594,11.4063,-3.6484187000000006,-3.7452881000000002,9.604168,-1
1164,1165,1583586349599,-12.0548,-0.93719995,12.3426,-2.2415762000000004,-3.7281167999999996,11.181257,-1
1165,1166,1583586349609,-10.4386,-0.69549996,14.4586,-0.97957325,-3.8186655,13.37788,-1
1166,1167,1583586349620,-8.922299,-1.0452,18.5464,0.7612604000000001,-4.7086573,18.864798,-1
1167,1168,1583586349630,-7.4301996,-1.7219,23.499199,2.0094726,-5.714672599999999,23.782946,-1
1168,1169,1583586349640,-6.4350996,-2.5660000000000003,27.6409,2.640996,-6.957282000000001,27.08908,-1
1169,1170,1583586349650,-5.9147,-3.4808,28.3951,3.0468132000000003,-8.117301,26.122989999999998,-1
1170,1171,1583586349660,-5.0778,-4.0204,24.7923,4.1152782,-8.762098,22.141308,-1
1171,1172,1583586349670,-3.0937997999999998,-3.8758,20.879799,6.514632,-8.727565,19.410349,-1
1172,1173,1583586349681,0.2316,-3.3762,19.8232,9.84352,-8.741824000000001,20.07339,-1
1173,1174,1583586349691,3.6035,-3.6016998,21.9714,12.635045,-9.744344,22.977306,-1
1174,1175,1583586349701,5.8413997,-4.7281,25.1791,13.986888,-11.314499,26.007553,-1
1175,1176,1583586349711,6.4284,-6.2362,26.536797999999997,14.026297,-12.831599,26.246723,-1
1176,1177,1583586349722,6.6717997,-7.8743,23.6953,14.322957,-14.927904999999999,21.968467999999998,-1
1177,1178,1583586349732,7.9325,-9.020599,18.6946,15.960045999999998,-16.187542,17.204829999999998,-1
1178,1179,1583586349742,10.5404,-10.0124,13.784699,18.567167,-17.247446,12.882041000000001,-1
1179,1180,1583586349752,13.3923,-10.4802,9.6503,21.383928,-17.724419,9.021322999999999,-1
1180,1181,1583586349762,15.319099,-10.6097,6.7181997,22.01026,-18.006926,6.886777400000001,-1
1181,1182,1583586349772,15.425699,-10.9036,4.7377996,21.212818,-18.450743,5.906697,-1
1182,1183,1583586349783,14.4331,-11.1988,4.0505,19.987015,-18.567234,5.689887000000001,-1
1183,1184,1583586349793,13.299399,-11.260099,3.3783998,18.956993,-18.794598,4.3131733,-1
1184,1185,1583586349803,12.496699000000001,-11.5508995,1.4051,18.481148,-18.96404,2.0056229,-1
1185,1186,1583586349813,12.273999,-11.7318,-1.3058,18.672897,-19.228668,-0.90429956,-1
1186,1187,1583586349823,12.7293,-11.9931,-4.0905,19.25804,-19.296910999999998,-3.222337,-1
1187,1188,1583586349833,13.1754,-12.0869,-6.1154,19.417828,-19.394325,-4.9856476999999995,-1
1188,1189,1583586349844,12.8961,-12.1445,-7.7524996,18.927753,-19.178665,-6.3518653,-1
1189,1190,1583586349854,12.277699,-11.847199,-8.8952,18.51099,-18.423046,-7.215482000000001,-1
1190,1191,1583586349864,11.8056,-10.998899,-9.2574,18.273401,-17.157770000000003,-7.304394,-1
1191,1192,1583586349874,11.548599000000001,-10.0131,-9.1401,18.228035000000002,-16.24505,-7.155444999999999,-1
1192,1193,1583586349884,11.2646,-9.007999,-8.6426,17.670835,-14.840689999999999,-6.2308617,-1
1193,1194,1583586349894,10.4244995,-8.0151,-7.6542997,16.846197,-14.105248000000001,-5.602192400000001,-1
1194,1195,1583586349904,9.1005,-7.2806997,-6.7665,15.203114000000001,-12.864573,-4.837207,-1
1195,1196,1583586349915,7.3764,-6.3824997,-5.877000000000001,13.397541,-11.659456,-3.3997184999999996,-1
1196,1197,1583586349925,5.393399700000001,-5.3872,-4.0887,12.083929,-10.789432000000001,-1.9131874,-1
1197,1198,1583586349935,3.5017,-4.7890997,-2.1418,9.913374000000001,-10.421481,-0.5698966,-1
1198,1199,1583586349945,1.5007,-4.8202,-1.0696,8.564873,-9.902466,-0.17709431,-1
1199,1200,1583586349955,0.1486,-4.4488,-0.4957,8.182864,-8.987958,0.022744916,-1
1200,1201,1583586349966,-0.2553,-3.7972,-0.1134,8.138658,-8.321268,-0.21904072,-1
1201,1202,1583586349976,-0.49499997,-3.4733998999999995,-0.1885,7.5934405,-8.039634,-1.0373596999999999,-1
1202,1203,1583586349986,-1.3486999,-3.5326,-0.8408,5.797310400000001,-7.846794999999999,-2.8737411,-1
1203,1204,1583586349996,-3.0526998,-3.6439998,-2.1701,3.8284337999999996,-7.4152255,-4.9389505,-1
1204,1205,1583586350006,-5.1335998,-3.5069999999999997,-3.9696,2.1889613,-6.804369,-7.044,-1
1205,1206,1583586350016,-6.8634,-3.1889999999999996,-5.8363,1.1559396999999998,-6.324283599999999,-8.844180999999999,-1
1206,1207,1583586350027,-7.9673,-2.9837,-7.424299700000001,1.2502521,-5.9996877,-8.1400175,-1
1207,1208,1583586350037,-7.9358997,-2.9201,-6.5118,1.9605543999999997,-5.8564377,-6.07385,-1
1208,1209,1583586350047,-7.2584,-3.0209,-4.2335997,2.442555,-6.043175700000001,-4.2606926,-1
1209,1210,1583586350057,-6.7913,-3.4624998999999996,-2.1796,1.6639317999999998,-5.9223356,-3.4973349999999996,-1
1210,1211,1583586350068,-7.5973997,-3.5799,-1.1985999,-0.17822438,-5.661885,-4.309343,-1
1211,1212,1583586350078,-11.2472,-3.2770998,-3.758,-2.3030305,-5.0518136,-6.887161,-1
1212,1213,1583586350088,-12.527999999999999,-2.9101,-6.0203,-3.454967,-4.566174,-9.175089,-1
1213,1214,1583586350098,-12.527999999999999,-2.9101,-6.0203,-3.6470397000000006,-4.7050757,-10.665498,-1
1214,1215,1583586350108,-12.2329,-4.0839,-8.800799000000001,-2.703973,-5.790386,-11.953799,-1
1215,1216,1583586350118,-10.7028,-5.397599700000001,-10.0816,-1.1069735,-6.921015,-13.2025,-1
1216,1217,1583586350129,-8.9347,-6.0873,-10.5854,0.6947399000000001,-7.3771863,-13.455786999999999,-1
1217,1218,1583586350139,-7.7559,-6.1022997000000005,-9.7564,1.5454860000000001,-7.204334700000001,-12.559523,-1
1218,1219,1583586350149,-8.378,-5.9716997,-8.8546,0.5628768,-7.0407534,-11.782977,-1
1219,1220,1583586350159,-10.2724,-6.1679997,-8.6227,-1.3419118,-7.0987315,-11.703519,-1
1220,1221,1583586350169,-11.4383,-6.0044,-9.0279,-2.1876397,-6.724613000000001,-12.111596,-1
1221,1222,1583586350180,-11.1395,-5.6197,-9.2871,-1.4563641999999999,-6.2535973,-12.260333000000001,-1
1222,1223,1583586350190,-10.0996,-5.6099,-9.1682,-0.4654424,-6.274053,-11.907523,-1
1223,1224,1583586350200,-8.717899000000001,-5.8648996,-8.454599,1.244803,-6.619728599999999,-10.952562,-1
1224,1225,1583586350210,-7.297000000000001,-6.245,-7.8356,2.6773207,-6.838769,-10.162889,-1
1225,1226,1583586350221,-6.0231,-6.1923,-6.7994,3.7036862,-6.589571,-8.937679,-1
1226,1227,1583586350230,-5.464299700000001,-5.7718997000000005,-5.4312,4.027727,-6.1205277,-7.320779300000001,-1
1227,1228,1583586350240,-5.7977,-5.4357,-3.1153,3.4234786,-5.791823,-4.6233087,-1
1228,1229,1583586350250,-6.866699700000001,-5.3027,-0.32569999,2.414313,-5.6054487,-1.5517396,-1
1229,1230,1583586350260,-7.0358,-4.9625,1.7757,2.9736366000000003,-5.068956,0.26110205,-1
1230,1231,1583586350271,-5.6679,-4.308399700000001,2.9254,4.694388,-4.5667386,1.2595032,-1
1231,1232,1583586350282,-3.7022998,-4.1644,3.4196,7.2117476,-4.9651337,2.493743,-1
1232,1233,1583586350293,-1.6848999,-4.8761997,4.9456,8.939834,-6.321047,5.355705,-1
1233,1234,1583586350302,-0.3196,-6.4986997,8.336599,9.7138605,-7.8523784,8.817317999999998,-1
1234,1235,1583586350312,0.38189998,-7.8925996,12.783999,10.273797,-8.851383,14.131881,-1
1235,1236,1583586350322,0.5177,-7.9593997000000005,16.044898999999997,10.164181,-8.482235000000001,15.441298499999998,-1
1236,1237,1583586350332,0.203,-6.8294997,15.727098999999999,9.808891000000001,-6.564776400000001,14.011682500000001,-1
1237,1238,1583586350342,0.0195,-4.9147997000000005,14.0021,9.795637,-4.910843,12.83883,-1
1238,1239,1583586350353,0.1831,-3.4729,13.1432,10.286602,-3.9909332,12.554035,-1
1239,1240,1583586350363,0.80109996,-2.9024,12.758599,10.967531,-3.8923876,12.198735000000001,-1
1240,1241,1583586350373,1.4308,-2.8228,12.3147,11.403468,-3.7101983999999995,11.992077,-1
1241,1242,1583586350383,1.6983,-2.477,12.0035,11.456542,-3.3377376000000005,11.656994000000001,-1
1242,1243,1583586350393,1.6909999999999998,-2.1448998,11.5688,11.311731,-2.9785497000000003,11.226115,-1
1243,1244,1583586350404,1.4180000000000001,-1.5839,10.967299,10.89988,-2.1829947999999995,11.047144,-1
1244,1245,1583586350414,0.9087,-0.72249997,11.014000000000001,9.99493,-1.3521973,11.303064,-1
1245,1246,1583586350424,0.065,-0.1346,11.0238,9.309536999999999,-0.9974052999999999,10.626377,-1
1246,1247,1583586350434,-0.4748,0.1873,10.204599,9.259882000000001,-0.64744,9.682428999999999,-1
1247,1248,1583586350444,-0.4746,0.4973,9.2171,9.391247,-0.54831046,8.572171,-1
1248,1249,1583586350454,-0.33589998,0.54219997,7.9845,9.661676,-0.7310169,7.364210000000001,-1
1249,1250,1583586350464,0.16659999,0.3008,6.4149,10.705759,-0.94030833,5.469669000000001,-1
1250,1251,1583586350475,1.1797999,0.1926,4.7999,11.658431,-0.9071246999999999,3.768828,-1
1251,1252,1583586350485,2.0456,0.26909998,3.0825999,12.027989999999999,-0.721009,2.8129475,-1
1252,1253,1583586350495,2.2428,0.48079997,2.4162998,11.476863999999999,-0.6457162,3.1878414,-1
1253,1254,1583586350505,1.5352,0.47039998,2.9916,10.422928,-0.87974465,4.2002916,-1
1254,1255,1583586350515,0.4727,0.24039999,4.0173,9.549188000000001,-0.7485328,4.55992,-1
1255,1256,1583586350525,-0.345,0.3983,4.1324,8.949258,-0.49582002,3.775254,-1
1256,1257,1583586350536,-0.8875,0.6292,3.2352998,8.707088,-0.37498945,2.5482352,-1
1257,1258,1583586350546,-1.0170000000000001,0.6841,1.9961,9.258550999999999,-0.23829968,1.3567941000000001,-1
1258,1259,1583586350556,-0.49789998,0.83159995,1.0676,9.845245,-0.28980374,0.75093657,-1
1259,1260,1583586350566,0.1986,0.74539995,0.37759998,10.226479,-0.65694976,0.40288670000000004,-1
1260,1261,1583586350576,0.46399999999999997,0.43739998,0.2126,10.285461999999999,-1.199926,0.18390343,-1
1261,1262,1583586350586,0.5236,-0.0968,0.047399998,10.378989,-1.5162385,-0.08857589,-1
1262,1263,1583586350596,0.6616,-0.4481,-0.2075,10.552875,-1.5775683,-0.21914607,-1
1263,1264,1583586350607,0.79929996,-0.4517,-0.2269,10.466789,-1.4911758999999998,-0.26528713,d
1264,1265,1583586350617,0.7109,-0.3649,-0.2312,10.207142999999999,-1.4853436000000002,0.107135735,-1
1265,1266,1583586350627,0.4551,-0.37359998,0.1607,9.875785,-1.4669752,0.93932194,-1
1266,1267,1583586350638,0.1205,-0.36679998,1.0297999,9.676128,-1.4030501,1.2685534,-1
1267,1268,1583586350648,-0.2437,-0.1708,0.8759,9.533022,-1.2441708999999999,0.6005807,-1
1268,1269,1583586350658,-0.2437,-0.1708,0.8759,9.691517999999999,-1.1649802,0.019919759,-1
1269,1270,1583586350668,-0.0669,-0.0828,0.1832,9.980421,-1.2778237,-0.61838394,-1
1270,1271,1583586350678,0.2285,-0.1839,-0.40699998,10.530666,-1.4404284,-0.8777334999999999,-1
1271,1272,1583586350688,1.242,-0.4693,-0.7816,11.024676,-1.6129354,-1.058534,-1
1272,1273,1583586350699,1.3211,-0.6257,-0.723,11.08186,-1.7480067,-1.012029,-1
1273,1274,1583586350709,1.3105,-0.5769,-0.62079996,11.023288,-1.650668,-0.8975192,-1
1274,1275,1583586350719,1.3105,-0.5769,-0.62079996,10.742841,-1.6014527,-0.6222626,-1
1275,1276,1583586350729,0.5902,-0.55399996,0.30789998,10.284149000000001,-1.587145,0.13738887,-1
1276,1277,1583586350739,0.3913,-0.46379998,1.0103999,10.142392999999998,-1.412828,0.9269008,-1
1277,1278,1583586350750,0.3888,-0.332,1.5231999,10.14226,-1.307464,1.3430227,-1
1278,1279,1583586350760,0.3868,-0.3042,1.7508999,10.122694000000001,-1.2797774,1.4121097,-1
1279,1280,1583586350770,0.3164,-0.2635,1.6056,10.054307000000001,-1.1971583000000001,1.2698655,-1
1280,1281,1583586350780,0.2954,-0.24949999,1.6084,10.120012,-1.1687056,1.354352,-1
1281,1282,1583586350791,0.5003,-0.2332,1.7723999,10.4002495,-1.1342292,1.5391845,-1
1282,1283,1583586350801,0.8231,-0.12789999,1.9971999,10.666474000000001,-0.9843424999999999,1.7052557000000002,-1
1283,1284,1583586350811,0.9985,0.0044,2.0052,10.834184,-0.88911074,1.6286126,-1
1284,1285,1583586350821,1.1539999,0.0346,1.9153999,10.956528,-0.7976618000000001,1.5539806,-1
1285,1286,1583586350832,1.2013,0.1188,1.9354999,10.961029,-0.6596313,1.6165555,-1
1286,1287,1583586350842,1.1306,0.25669998,2.1526,10.759619,-0.49501556,2.076041,-1
1287,1288,1583586350852,0.8341,0.35209998,2.6725,10.505412,-0.45768517,2.386502,-1
1288,1289,1583586350862,0.38059998,0.3585,2.991,9.985593,-0.26956797,2.5412345000000003,-1
1289,1290,1583586350872,0.13319999,0.5754,2.8033,9.874674,-0.052883125999999996,2.1340957,-1
1290,1291,1583586350883,0.1021,0.71099997,2.2510998,9.928161,-0.03137362,1.4218016000000002,-1
1291,1292,1583586350893,0.20899999,0.63699996,1.5388,10.172791499999999,-0.20069157,0.7117004,-1
1292,1293,1583586350903,0.58169997,0.42069998,0.8506,10.732632,-0.33048603,0.12420160000000001,-1
1293,1294,1583586350913,1.2199,0.3536,0.401,11.316999000000001,-0.37659836,-0.3348435,-1
1294,1295,1583586350924,1.6622,0.2635,-0.0005999999700000001,11.436048,-0.4499567,-0.73215646,-1
1295,1296,1583586350935,1.555,0.19309999,-0.31309998,11.003445,-0.40167043,-0.9389197,-1
1296,1297,1583586350945,1.1330999,0.2197,-0.3777,10.556571,-0.38271794,-0.7897705,-1
1297,1298,1583586350955,0.6911,0.22819999,-0.1718,10.227724,-0.21439599,-0.687021,-1
1298,1299,1583586350965,0.39589998,0.34,-0.048,9.979646,-0.105814144,-0.6319448000000001,-1
1299,1300,1583586350975,0.1501,0.4131,0.017099998999999998,9.875430999999999,-0.04082593,-0.6813610999999999,-1
1300,1301,1583586350986,0.091199994,0.40109998,-0.051999997,9.987374,-0.049454633,-0.955727,-1
1301,1302,1583586350996,0.2584,0.3561,-0.3275,10.299864999999999,-0.07720821,-1.3340969999999999,-1
1302,1303,1583586351006,0.5631,0.2976,-0.7129,10.3622875,-0.13443922,-2.0415645000000002,-1
1303,1304,1583586351016,0.5834,0.22199999,-1.2991999,10.288249,-0.23679613,-2.4496992000000004,-1
1304,1305,1583586351026,0.47599998,0.047799997000000004,-1.7418,10.119199,-0.49049529999999997,-2.7156568,-1
1305,1306,1583586351037,0.3391,-0.18699999,-1.9305999,10.132434,-0.48499823,-2.789446,-1
1306,1307,1583586351047,0.35889998,-0.2065,-1.9964998999999999,10.198313,-0.46274173,-2.6554377000000002,-1
1307,1308,1583586351057,0.41759998,-0.2164,-1.8515999,10.156500999999999,-0.44850102,-2.297112,-1
1308,1309,1583586351067,0.37829998,-0.228,-1.4807,10.090478,-0.5284386,-2.1101058,-1
1309,1310,1583586351077,0.2902,-0.35779998,-1.2656,9.904477,-0.5658169,-2.067939,-1
1310,1311,1583586351087,-0.102199994,-0.3001,-1.288,9.609655,-0.39840475,-2.173686,-1
1311,1312,1583586351097,-0.102199994,-0.3001,-1.288,9.39885,-0.38668275,-2.4075037999999997,-1
1312,1313,1583586351107,-0.3771,-0.30089998,-1.5821999,9.314881,-0.44855848,-2.8001816,-1
1313,1314,1583586351117,-0.4653,-0.3664,-1.9724,9.527562,-0.40407422,-3.1144924,-1
1314,1315,1583586351127,0.2617,-0.161,-2.2680000000000002,10.113501,-0.16711529,-3.0359337,-1
1315,1316,1583586351138,0.2617,-0.161,-2.2680000000000002,10.2139225,-0.16036363,-2.4463859,-1
1316,1317,1583586351148,0.4396,-0.1309,-1.5841,9.85938,-0.27427018,-1.145865,-1
1317,1318,1583586351158,-0.6069,-0.3958,0.6421,9.027788000000001,-0.41105568,-0.18128896,-1
1318,1319,1583586351169,-1.0573,-0.5479999999999999,0.6579999999999999,8.702618,-0.49773538,-0.33307177,-1
