,Seq,Time,ACCx,ACCy,ACCz,ADGx,ADGy,ADGz,Keydown
0,1,1583586255413,2.129,-2.435,-2.938,7.4073443,-10.087337,0.0027102362,-1
1,2,1583586255423,2.0549,-2.2979998999999998,-2.6617,9.560459,1.0062064,0.17772637,-1
2,3,1583586255433,-0.1908,-0.0201,0.0,9.566272999999999,0.9860184000000001,-0.053390697,-1
3,4,1583586255443,-0.2383,-0.0933,-0.0093,9.323528999999999,0.838708,0.11733504,-1
4,5,1583586255454,-0.51159996,-0.24329999,0.1601,9.01957,0.8653603000000001,0.33193213,-1
5,6,1583586255464,-0.8143,-0.15699999,0.4782,8.942842,0.97927636,0.6864272,-1
6,7,1583586255474,-0.71529996,-0.11639999599999999,0.8328,9.371863000000001,0.9139816999999999,1.2296236999999999,-1
7,8,1583586255484,-0.3128,-0.2082,1.2705,9.664261999999999,0.83229154,1.4737078000000001,-1
8,9,1583586255494,0.049999997000000004,-0.3062,1.4423,9.90125,0.69739264,1.2153829,-1
9,10,1583586255504,0.1775,-0.3635,0.8387,10.034645,0.9556024999999999,0.29299283,-1
10,11,1583586255514,0.2859,-0.061499998,0.0391,9.918986,1.3291937,-0.30037656,-1
11,12,1583586255524,0.0885,0.2223,-0.3497,9.572372999999999,1.623489,-0.41234857,-1
12,13,1583586255534,-0.2155,0.289,-0.1495,9.3679085,1.7463689999999998,-0.04180276,-1
13,14,1583586255544,-0.3241,0.2884,0.3329,9.479784,1.6094207,0.7986960999999999,-1
14,15,1583586255554,-0.20979999,0.10439999400000001,1.1722,9.555833999999999,1.5048516,1.6462914,-1
15,16,1583586255564,-0.1269,-0.0218,1.9257,9.590243,1.4945374,2.2328514999999998,-1
16,17,1583586255574,-0.103099994,-0.0635,2.2673,9.545385000000001,1.4640735,2.2855625,-1
17,18,1583586255584,-0.1565,-0.107099995,2.0695999,9.535703,1.5942031,2.1025112,-1
18,19,1583586255595,-0.1282,0.0378,1.6988,9.646056,1.8716528000000001,1.8887953000000002,-1
19,20,1583586255605,-0.0149,0.3218,1.2507,9.62628,2.1954062000000003,1.7673901,-1
20,21,1583586255616,-0.0809,0.5505,1.0242,9.177741000000001,2.2686977,2.2337997000000005,-1
21,22,1583586255626,-0.58309996,0.5757,1.4796,8.374725,2.3643603,3.2179601000000004,-1
22,23,1583586255636,-1.4329,0.6155,2.5326998,7.426833,2.3503877999999996,4.760324,-1
23,24,1583586255646,-2.3622,0.5672,4.0812,6.2072268,2.397975,6.507555,-1
24,25,1583586255656,-3.6843998,0.59639996,5.8181996,4.5708660000000005,2.558559,8.155475,-1
25,26,1583586255666,-5.3311,0.6951,7.3587,2.7194684,2.5039902,9.9348545,-1
26,27,1583586255677,-6.8518996,0.5958,8.8229,1.5130683999999999,2.4911765999999997,10.861832000000001,-1
27,28,1583586255687,-8.052,0.5699,9.7294,0.5949304,2.5729623,10.778792,-1
28,29,1583586255697,-8.9614,0.65099996,9.615399,-0.2421304,2.512705,10.21739,-1
29,30,1583586255707,-10.0225,0.58489996,8.8299,-1.5772331,2.1245284,8.772355000000001,-1
30,31,1583586255717,-11.127999,0.26229998,7.5892,-2.2881577,1.6508787,7.2883716,-1
31,32,1583586255728,-12.1327,-0.5657,4.7577,-2.5894057999999998,1.0317093000000002,5.60248,-1
32,33,1583586255738,-12.3439,-1.0533,3.4122999,-2.7522017999999995,0.41271248,4.1841836,-1
33,34,1583586255748,-12.5686,-1.7404,2.1826,-3.0234362999999997,-0.48352340000000005,2.9672682,-1
34,35,1583586255758,-12.5686,-1.7404,2.1826,-3.6104657999999996,-1.5647928,2.7622766,-1
35,36,1583586255769,-14.207499499999999,-3.7889,2.3469,-4.7649117,-2.881144,3.102378,-1
36,37,1583586255780,-14.207499499999999,-3.7889,2.3469,-5.7711463,-3.9822087,2.8452787,-1
37,38,1583586255790,-16.2034,-5.7864,1.0529,-6.486390599999999,-5.211305599999999,0.9373011999999998,-1
38,39,1583586255800,-16.0196,-6.3536,-0.5846,-5.8466983,-6.040676,-1.2434813,-1
39,40,1583586255810,-14.8392,-6.6495,-3.0581,-4.5173607,-6.491964,-3.9058912000000006,-1
40,41,1583586255820,-13.541599,-6.8402996,-5.3905997,-3.2184775,-7.175767,-5.8673934999999995,-1
41,42,1583586255831,-12.0949,-7.3903,-6.6117,-1.6926718999999997,-8.090266,-6.816426299999999,-1
42,43,1583586255841,-10.5174,-7.8967,-7.3054,-0.10860099,-8.880123,-7.3325205,-1
43,44,1583586255851,-9.0435,-8.3663,-7.4823,1.0954239,-9.748644,-7.2674174,-1
44,45,1583586255862,-8.2223,-8.7183,-7.1032,1.7040108,-10.386076,-6.8984137,-1
45,46,1583586255872,-7.7194996,-9.2095995,-7.625,2.1390853,-11.53625,-8.033686999999999,-1
46,47,1583586255882,-6.9147,-10.1921,-9.7878,3.4933796000000004,-13.050956,-10.85101,-1
47,48,1583586255892,-5.1861,-10.9465,-12.3327,5.77152,-14.059586,-12.526435000000001,-1
48,49,1583586255902,-2.4703,-11.5188,-13.6565,8.505335,-14.856185,-12.700761,-1
49,50,1583586255912,0.3214,-11.817599000000001,-13.454598999999998,10.415992999999999,-15.124594,-11.622603999999999,-1
50,51,1583586255922,2.4304,-11.5673,-11.8914995,11.91395,-15.422844,-9.484152,-1
51,52,1583586255933,3.0885,-11.9369,-10.9615,11.662003,-16.647488,-9.101874,-1
52,53,1583586255943,2.8421,-13.1061,-11.468699,11.24817,-18.476025,-10.049269,-1
53,54,1583586255953,2.9343998,-14.8811,-12.7469,12.08573,-20.573395,-10.563074,-1
54,55,1583586255963,4.990999700000001,-16.3974,-13.2595,15.243576000000001,-21.597797,-10.247021,-1
55,56,1583586255973,8.9583,-16.5796,-13.1916,19.009348000000003,-21.247103,-9.673447,-1
56,57,1583586255983,12.7028,-15.665,-12.839999,21.295218,-20.776757999999997,-8.815786,-1
57,58,1583586255994,14.2955,-15.539598999999999,-12.0575,20.963017999999998,-22.001345,-7.252889,-1
58,59,1583586256004,13.342998999999999,-17.2137,-10.6382,19.098623,-24.86528,-5.548208,-1
59,60,1583586256014,12.3974,-19.2652,-9.4692,19.915697,-25.665237,-4.4443660000000005,-1
60,61,1583586256024,13.988999,-19.454698999999998,-8.464,22.514565,-24.8888,-3.6257599999999996,-1
61,62,1583586256035,16.812898999999998,-18.3989,-7.7359,24.384007,-24.235432,-2.2783895,-1
62,63,1583586256047,18.5529,-17.6855,-6.1495,24.647617,-24.112934,-1.4542955,-1
63,64,1583586256057,18.5106,-17.2787,-3.8316998,23.941042000000003,-23.897667000000002,1.2965847,-1
64,65,1583586256067,17.32,-17.046298999999998,-1.4971,21.911945000000003,-23.380489999999998,4.760267,-1
65,66,1583586256077,16.1688,-16.489199,0.769,21.282213,-22.810382999999998,6.3431690000000005,-1
66,67,1583586256088,14.9172,-14.486899,4.6759,20.631449,-21.228334,8.605882000000001,-1
67,68,1583586256098,14.9172,-14.486899,4.6759,19.82739,-20.039735999999998,9.569068,-1
68,69,1583586256108,12.622499000000001,-12.068,6.6779,18.305108999999998,-18.831554,10.059153,-1
69,70,1583586256118,10.5081,-10.8765,7.5769,16.361506,-17.564716,10.830094,-1
70,71,1583586256128,8.5504,-9.7803,8.9592,14.724607999999998,-16.40254,12.008492,-1
71,72,1583586256138,7.1289997000000005,-8.9323,10.091000000000001,13.631406,-15.508307,12.686798,-1
72,73,1583586256148,6.0955,-8.332,10.073999,12.894739,-14.696720999999998,12.337321000000001,-1
73,74,1583586256158,5.1176,-7.4409,9.8846,12.118664,-13.564387,11.984636,-1
74,75,1583586256168,3.8202998999999997,-6.6422,9.690499,10.992432,-12.638435000000001,11.620823,-1
75,76,1583586256178,2.4496,-6.1512,9.8526,9.745847,-11.687727,11.782289,-1
76,77,1583586256188,0.94949996,-5.2883,10.609099,8.446543,-10.480216,12.3990345,-1
77,78,1583586256198,-0.8118,-4.5018997,11.1967,6.9331584,-9.449109,12.692438000000001,-1
78,79,1583586256208,-2.4052,-3.8736,11.5828,5.749895599999999,-8.618772,12.856346,-1
79,80,1583586256219,-3.9580998,-3.6564998999999996,11.5566,4.460216,-8.137986999999999,12.52045,-1
80,81,1583586256229,-4.777199700000001,-3.6322,11.2953,4.0184182999999996,-7.7980967,12.134456,-1
81,82,1583586256239,-4.9701,-3.7921,10.7556,4.0296330000000005,-7.6046166,11.35089,-1
82,83,1583586256249,-5.0021,-3.6868,9.7771,4.1697607,-7.0813785000000005,10.331458999999999,-1
83,84,1583586256259,-5.006,-3.2912,9.300799000000001,4.2813215,-6.392126,9.942746000000001,-1
84,85,1583586256270,-5.0743,-3.1403,9.1124,4.2429084999999995,-5.9340285999999995,9.705060000000001,-1
85,86,1583586256280,-5.6211,-2.9129999,9.0982,3.480815,-5.269743,9.769913,-1
86,87,1583586256290,-6.6747,-2.701,9.279799,2.4993455,-4.6756459999999995,9.837094,-1
87,88,1583586256300,-7.5825,-2.3694,9.1606,1.7358537,-4.106458,9.428299,-1
88,89,1583586256311,-8.3867,-2.0753999,8.3961,0.9969456,-3.288436,8.312878999999999,-1
89,90,1583586256321,-9.208,-1.1471,6.8395,0.21262427,-1.941803,6.276467,-1
90,91,1583586256331,-9.959,-0.1299,4.5464997,-0.49441224,-0.7395115,4.130362,-1
91,92,1583586256341,-10.6022,0.7923,3.2107,-1.0302728,0.43933599999999995,3.4110096,-1
92,93,1583586256351,-10.9923,1.6019,3.4659998,-1.2720106000000002,1.2133718999999998,3.8523471,-1
93,94,1583586256361,-11.023,1.6033,3.6438,-1.1080748,1.1314708999999998,3.5231730000000003,-1
94,95,1583586256372,-10.568299,1.2961,2.7315,-0.5578394,1.1184943999999999,2.2162647,-1
95,96,1583586256382,-10.0808,1.4017998999999999,1.1958,-0.13507129,1.5908896000000001,0.16281529,-1
96,97,1583586256392,-9.875,1.7580999,-0.4971,-0.07397125,2.0276110000000003,-1.2767701999999999,-1
97,98,1583586256402,-9.9317,2.1269999,-2.12,-0.20626526,2.565368,-2.9722195,-1
98,99,1583586256413,-10.0061,2.4328,-3.0001,-0.15026967,2.847424,-3.3551385000000002,-1
99,100,1583586256423,-9.8145,2.5319998,-3.0087,0.30896693,2.8933449,-3.3704998,-1
100,101,1583586256434,-9.161699,2.3985999,-3.0463,1.4620911,2.5614128,-3.9593968,-1
101,102,1583586256444,-8.1174,1.9754,-3.6652,2.739733,2.0784637999999998,-4.8280993,-1
102,103,1583586256454,-6.7798996,1.5518,-4.4448,4.0247774,2.0106888,-5.5573254,-1
103,104,1583586256464,-5.5414,1.5023999,-5.0973,5.0492277,1.8156573,-5.730771,-1
104,105,1583586256474,-4.5874,1.2195,-5.0478997,5.469381299999999,1.5463381999999999,-5.4153585,-1
105,106,1583586256484,-4.2897,0.8727,-4.6225,5.173975,1.0845829,-5.1742053,-1
106,107,1583586256495,-4.6972,0.47149998,-4.5041,4.704434,0.79755646,-5.49001,-1
107,108,1583586256505,-5.1335998,0.2085,-4.8333,4.7137519999999995,0.7422121,-5.816196,-1
108,109,1583586256515,-4.9525,0.16239999,-5.0064,5.563234,0.7302986,-5.43999,-1
109,110,1583586256525,-3.9684,0.1533,-4.4193997000000005,6.661952499999999,0.5905921,-4.465148,-1
110,111,1583586256535,-2.9171,-0.0158,-3.3607,7.430108000000001,0.12414415,-3.5742366000000003,-1
111,112,1583586256546,-2.2008,-0.489,-2.4917998,8.060875,-0.63043165,-2.787617,d
112,113,1583586256556,-1.7017,-1.0648,-1.8633,8.346273,-0.9443593000000001,-2.7464939999999998,-1
113,114,1583586256566,-1.341,-1.3833,-1.8953999,8.801286,-0.99069196,-3.3926604,-1
114,115,1583586256576,-0.83379996,-1.2994,-2.6316,9.5233965,-0.7411681999999999,-4.210041,-1
115,116,1583586256586,-0.248,-1.0501,-3.3005,9.987575999999999,-0.57731867,-4.5289197,-1
116,117,1583586256596,0.2109,-0.8452,-3.6223,10.356158,-0.36270240000000004,-4.4208746,-1
117,118,1583586256607,0.583,-0.5992,-3.5219,10.508515,-0.19130629999999998,-3.835377,-1
118,119,1583586256617,0.74079996,-0.4019,-2.9178,10.308513,-0.08450574400000001,-3.0820749,-1
119,120,1583586256627,0.5372,-0.2823,-2.1357,9.798731,-0.17345512,-2.2664185000000003,-1
120,121,1583586256637,0.039899997,-0.3734,-1.2904999,9.470121,-0.42557412,-1.3442677,-1
121,122,1583586256647,-0.3005,-0.6102,-0.34,9.5921,-0.49386635,-0.8880094000000001,-1
122,123,1583586256657,0.24100000000000002,-0.65459996,-0.0263,10.086705,-0.5043337999999999,-1.1131027,-1
123,124,1583586256668,0.24100000000000002,-0.65459996,-0.0263,10.414021,-0.42945275,-1.2874101,-1
124,125,1583586256678,0.877,-0.2243,-0.5912,10.657577999999999,-0.101207696,-1.7005153000000002,-1
125,126,1583586256688,0.877,-0.2243,-0.5912,10.623887,-0.0032848446,-2.145741,-1
126,127,1583586256698,0.8681,-0.058199997999999996,-1.4031,10.654237,-0.057901375,-2.497928,-1
127,128,1583586256708,1.0568,-0.12329999,-1.5274,10.862637,-0.15382268,-2.5598229999999997,-1
128,129,1583586256718,1.3252,-0.2616,-1.2202,11.124716000000001,-0.32404083,-2.2071285,-1
129,130,1583586256729,1.4762,-0.4946,-0.62659997,11.262545,-0.5648496999999999,-1.6394153000000002,-1
130,131,1583586256739,1.4762,-0.4946,-0.62659997,11.293717,-0.5880159,-1.295924,-1
131,132,1583586256750,1.3546,-0.43129998,0.0804,11.034884,-0.42391735,-1.070438,-1
132,133,1583586256760,0.8853,-0.2593,0.22019999,10.433241,-0.26016355,-0.90658844,-1
133,134,1583586256770,0.4648,-0.2146,0.4455,10.119286,-0.30366138,-0.6226457,-1
134,135,1583586256780,0.3681,-0.3525,0.6821,10.17101,-0.39959225,-0.532662,-1
135,136,1583586256790,0.60539997,-0.4067,0.5606,10.48373,-0.49139553,-0.80664486,-1
136,137,1583586256801,0.9219,-0.47700000000000004,0.18899999999999997,10.761563,-0.53964347,-1.2160819999999999,-1
137,138,1583586256811,1.1503999,-0.4991,-0.19039999,10.92072,-0.55651784,-1.6333627,-1
138,139,1583586256821,1.1631,-0.46699998,-0.57989997,10.837172,-0.5063354,-1.9861627,-1
139,140,1583586256831,0.9596,-0.4116,-0.6892,10.536442,-0.41965568,-1.8892167000000002,-1
140,141,1583586256841,0.46109998,-0.3329,-0.3137,9.924445,-0.35589328,-1.523105,-1
141,142,1583586256851,-0.26299998,-0.3065,-0.1256,9.173478999999999,-0.2986144,-1.4853436000000002,-1
142,143,1583586256861,-0.8494,-0.2967,-0.2092,8.810816,-0.3694349,-1.5336777,-1
143,144,1583586256872,-0.7883,-0.35599998,-0.0947,9.084280999999999,-0.37112042,-1.3934636999999999,-1
144,145,1583586256882,-0.41369998,-0.31559998,0.0067,9.396562,-0.30591193,-1.3817321000000002,-1
145,146,1583586256892,-0.3146,-0.2201,0.0337,9.408725,-0.22737254,-1.2690896999999999,-1
146,147,1583586256902,-0.4125,-0.1436,0.387,9.150342,-0.12931563,-0.63789195,-1
147,148,1583586256912,-0.6679999999999999,0.03,0.95159996,8.925373,0.01837789,-0.28779262,-1
148,149,1583586256922,-0.87409997,0.0949,1.0374,8.757530000000001,0.020321983999999998,-0.5918179,-1
149,150,1583586256933,-1.0699999,0.13,0.4992,8.39366,0.09270349,-1.4711316,-1
150,151,1583586256943,-1.452,0.22379999,-0.3714,8.144250999999999,0.20372742,-2.2496781,-1
151,152,1583586256953,-1.5489,0.3678,-1.0906,8.359318,0.3189268,-2.6182702,-1
152,153,1583586256963,-1.1945,0.5147,-1.1126,8.71,0.43992978,-2.1097322,-1
153,154,1583586256973,-0.9578,0.6426,-0.34059998,8.781808,0.53262365,-1.1830708,-1
154,155,1583586256983,-0.96599996,0.7001,0.6095,8.614243,0.51407343,-0.36312377,-1
155,156,1583586256993,-1.2386,0.7090000000000001,1.2285,8.239694,0.43511266,-0.05605305,-1
156,157,1583586257003,-1.5698999,0.5855,1.3769999999999998,8.086761,0.17179833,-0.2818167,-1
157,158,1583586257013,-1.5187,0.28579998,0.8656,8.565056,-0.14511736,-1.1556811000000002,-1
158,159,1583586257023,-0.7718,0.1551,-0.1427,9.529364,-0.061396908,-2.1640037999999997,-1
159,160,1583586257033,0.2188,0.3655,-1.095,10.421682,0.13379756,-3.0406362999999996,-1
160,161,1583586257043,0.94299996,0.584,-1.8648,10.840083,0.18453549,-3.398914,-1
161,162,1583586257054,1.2152,0.6358,-1.9440998999999999,10.962121,0.17041928,-3.0959613,-1
162,163,1583586257064,1.2526,0.6256,-1.4669,10.9252405,0.057001155,-2.3496599999999996,d
163,164,1583586257074,1.1939,0.50549996,-0.6979,10.952947,-0.23612575,-1.5372785,-1
164,165,1583586257084,1.3040999,0.22289999,-0.1166,11.4916315,-0.6326822,-1.578028,-1
165,166,1583586257094,1.9635999,-0.18519999,-0.2615,12.47154,-0.9509674000000001,-1.816634,-1
166,167,1583586257104,2.9743,-0.4394,-0.4806,13.419854,-1.1856278,-2.1559307999999997,-1
167,168,1583586257115,3.8848998999999997,-0.6627,-0.91719997,14.237532999999999,-1.3084023999999999,-2.6797533,-1
168,169,1583586257125,4.6745996,-0.7222,-1.4459,14.860235000000001,-1.3999854,-3.1921124,-1
169,170,1583586257135,5.237,-0.8412,-2.0519,15.294745,-1.5920483,-4.056916999999999,-1
170,171,1583586257145,5.6819997,-1.0732,-2.9945,16.001177,-1.8285571,-4.5238824,-1
171,172,1583586257155,6.4627,-1.3600999,-3.2861998,16.850277,-2.2983284,-3.954704,-1
172,173,1583586257165,7.266,-1.9475,-2.5082,17.45283,-2.86177,-2.5607135,-1
173,174,1583586257176,7.8069,-2.5219998,-0.97209996,17.599365,-3.249631,-1.1156883,-1
174,175,1583586257186,7.8287997,-2.9622,0.39119998,17.170965,-3.478076,-0.6270701,-1
175,176,1583586257196,7.329799700000001,-3.2349,0.62479997,16.56485,-3.4949407999999997,-1.4298364,-1
176,177,1583586257207,6.8385997000000005,-3.3251998,-0.092999995,16.124422,-3.5378256,-1.9633029,-1
177,178,1583586257217,6.3954997,-3.4668998999999996,-0.63839996,15.818691000000001,-3.7039452000000006,-2.0154006,-1
178,179,1583586257227,6.0899,-3.7203,-0.6979,15.60418,-3.9047132000000007,-2.2684104,-1
179,180,1583586257237,5.8733997,-4.0284,-0.9553,15.417031,-3.9486227,-2.1314235,-1
180,181,1583586257248,5.6878,-4.1898,-0.82919997,14.717503,-3.8780706,-1.3608163999999998,-1
181,182,1583586257258,3.6202,-4.2567997,0.7797,13.050678,-3.6875013999999995,-0.37313157,-1
182,183,1583586257268,3.6202,-4.2567997,0.7797,11.971669,-3.3537116,0.22589771,-1
183,184,1583586257278,0.8197,-3.8327,2.3727,10.211127000000001,-2.8953368999999998,1.2101540000000002,-1
184,185,1583586257289,-0.6551,-3.8219,3.1276,8.7066965,-2.7344656,1.8196508000000002,-1
185,186,1583586257299,-2.2437,-4.0387,3.1641,7.0800757,-2.7358255000000002,1.6798102,-1
186,187,1583586257309,-3.5849,-3.8693,2.5818,5.807395,-2.2665908,0.9675544,-1
187,188,1583586257319,-4.3366,-3.3005,1.7734,5.029873,-1.3508948,0.07922892,-1
188,189,1583586257330,-4.9388,-2.5304,1.2171,4.3898263,-0.44341573,-0.27620468,-1
189,190,1583586257340,-4.9388,-2.5304,1.2171,3.3935032,0.2752949,0.4362427,-1
190,191,1583586257350,-6.7939997000000005,-1.6293,2.7329,2.0784066,0.79826516,1.8038585999999999,-1
191,192,1583586257360,-8.2422,-1.3116,4.1229997,0.501681,1.2434238000000002,2.8290653,-1
192,193,1583586257372,-8.2422,-1.3116,4.1229997,-0.09246407400000001,1.4298556,2.92627,-1
193,194,1583586257383,-10.9821,-0.37039998,3.9471998,-1.938451,2.5521617,2.0780523,-1
194,195,1583586257392,-11.8608,0.4553,2.6239998,-2.8709066,3.6698132000000006,0.36569038,-1
195,196,1583586257402,-12.2657995,1.3354,1.3648,-3.2003677,4.7221417,-0.76252455,-1
196,197,1583586257412,-12.5689,2.3049,0.5159,-3.7824461000000005,5.850002,-1.7303088,-1
197,198,1583586257422,-13.2584,3.0137,-0.20639999,-4.826537999999999,6.413434,-2.1327357000000005,-1
198,199,1583586257432,-14.450398999999999,3.4299,-0.2766,-6.070144,6.8019175999999995,-1.7432374,-1
199,200,1583586257442,-15.537298999999999,3.7124998999999996,0.46469998,-7.0203357,6.939344999999999,-0.6411481,-1
200,201,1583586257453,-16.434399,3.6645,1.859,-7.787016400000001,6.586966,0.9221889999999999,-1
201,202,1583586257463,-17.027898999999998,3.0502,3.3360000000000003,-8.053118,5.6546736,1.8041459,-1
202,203,1583586257473,-17.0476,2.1432,3.7507,-7.6736655,4.7599029999999996,1.5754327,-1
203,204,1583586257484,-16.505499,1.3981,3.2119999999999997,-6.9805727,4.03989,0.53197247,-1
204,205,1583586257494,-15.8509,0.9662,1.9896,-6.3434663,3.6574593,-1.1101339,-1
205,206,1583586257504,-15.4597,0.86759996,0.65959996,-6.047121499999999,3.2361562000000004,-1.8276473000000002,-1
206,207,1583586257514,-15.2486,0.5545,0.17809999,-5.774202,2.6170444,-1.5562694,-1
207,208,1583586257524,-15.0082,0.1691,0.5588,-5.3193220000000005,2.102023,-0.76322365,-1
208,209,1583586257535,-14.5798,-0.1409,1.4527,-4.8815184,1.2505298999999999,0.36713648,-1
209,210,1583586257545,-14.2365,-0.8659,2.5872998,-4.7036104000000005,0.34045547,1.356277,-1
210,211,1583586257555,-14.1158,-1.4245,3.5161,-4.7227445,-0.20122786,2.018427,-1
211,212,1583586257565,-14.309199,-1.6715,4.0761,-5.2641215,-0.9182434000000002,2.0235791,-1
212,213,1583586257575,-14.887,-2.12,3.9069,-5.230086,-1.8475096000000002,1.514074,-1
213,214,1583586257585,-14.6608,-2.6713,3.2863,-4.070928,-2.4029357000000005,1.0807618,-1
214,215,1583586257596,-13.4179,-2.7542,2.8365998,-2.84593,-3.307992,1.4396334,-1
215,216,1583586257606,-12.344000000000001,-3.4266,3.2285,-2.1249017999999995,-4.769499,2.2984240000000002,-1
216,217,1583586257616,-11.6383,-4.4072,3.9838998,-1.3011528,-6.720553,3.2599737999999996,-1
217,218,1583586257626,-10.9255,-5.5627,4.6387997,-0.011511322,-8.372869,3.9039087,-1
218,219,1583586257636,-9.5859995,-6.7117,5.1356,1.8310471999999998,-9.543412,4.1155944,-1
219,220,1583586257647,-7.6737,-7.3508997,5.1973,2.6007352000000004,-10.392511,3.8459785,-1
220,221,1583586257657,-6.517299700000001,-8.3252,4.606,2.994773,-13.0471735,3.6194296,-1
221,222,1583586257667,-6.3156,-11.2472,4.5748997000000005,2.6828275,-15.63272,3.9038991999999997,-1
222,223,1583586257678,-5.2061,-13.828899,4.0761,4.0368633,-19.00029,3.5208747000000002,-1
223,224,1583586257688,-1.3855,-16.691,3.2315998,7.970967999999999,-22.313328,2.9100563999999998,-1
224,225,1583586257698,-1.3855,-16.691,3.2315998,11.260475999999999,-24.297401,2.6732507,-1
225,226,1583586257708,7.9501,-20.2822,2.8689999999999998,16.652248,-26.916162,3.2506554,-1
226,227,1583586257718,11.0947,-20.885,3.1445,18.687202,-27.527258000000003,3.933089,-1
227,228,1583586257728,11.9369,-19.9833,3.9901,18.566086,-26.801643,4.908841000000001,-1
228,229,1583586257739,10.864699,-18.4299,4.1116,16.903543,-25.498726,5.068027,-1
229,230,1583586257749,10.864699,-18.4299,4.1116,15.638159,-24.1474,4.852530000000001,-1
230,231,1583586257759,9.9569,-14.6988,1.7773,15.868279999999999,-22.35357,2.8102278999999997,-1
231,232,1583586257769,12.085899000000001,-13.8123,-0.2086,18.285563,-21.826729999999998,1.1207258999999998,-1
232,233,1583586257779,14.5791,-13.3904,-0.94689995,20.140102,-21.571316,0.90377283,-1
233,234,1583586257790,15.870999,-12.956799499999999,-0.672,20.359716,-21.276897,1.631524,-1
234,235,1583586257800,15.1936,-12.525399,0.37109998,18.785395,-20.944563,2.7307785,-1
235,236,1583586257810,13.304898999999999,-11.9668,0.99939996,16.649174,-20.382069,3.0333384999999997,-1
236,237,1583586257820,11.7016,-11.2446995,0.9869,15.192617000000002,-19.704242999999998,3.1191754,-1
237,238,1583586257830,10.8868,-10.4208,0.978,14.513345000000001,-18.830597,2.9816813,-1
238,239,1583586257840,10.8428,-9.3151,0.3225,14.509398000000001,-17.646960999999997,2.3034902,-1
239,240,1583586257851,11.000299,-7.8771,-0.33269998,14.377028,-16.125647,1.7756932,-1
240,241,1583586257861,10.5905,-6.3210998,-0.8612,13.606285999999999,-14.730603,1.3246733999999998,-1
241,242,1583586257871,9.5983,-5.1556997,-1.1294999,12.435435,-13.689212,1.4283999,-1
242,243,1583586257881,8.2843,-4.1823997,-0.3164,10.713391,-12.738914999999999,2.8062822999999995,-1
243,244,1583586257891,6.7874,-3.5874,0.875,9.159248,-12.252815,3.3041134,-1
244,245,1583586257902,5.2795,-3.0874999,0.85969996,7.98562,-11.534267,2.6575064999999998,-1
245,246,1583586257912,4.2613997,-2.2206,-0.098,7.17638,-10.680591,1.6016635000000001,-1
246,247,1583586257923,3.5795999,-1.5026,-0.95949996,6.691794,-10.165196,1.2670403000000001,-1
247,248,1583586257933,3.1632,-1.1266,-0.93399996,6.4240837,-9.958692,1.6291106000000002,-1
248,249,1583586257943,2.9485,-0.9349,-0.6001,6.2690353,-9.661131,1.5041142,-1
249,250,1583586257953,2.8042998,-0.6742,-1.0375,6.2522660000000005,-9.426173,0.8748030000000001,d
250,251,1583586257964,2.8279998,-0.39409998,-1.4318,6.177807,-9.088495,1.0337396,-1
251,252,1583586257974,2.5669999999999997,-0.1532,-0.99509996,5.4757404,-9.022291000000001,2.0774965,-1
252,253,1583586257985,1.7472,-0.1296,0.23789999,4.5577555,-9.12505,3.4567002999999996,-1
253,254,1583586257995,0.7391,-0.2656,1.6139,3.784275,-9.250036,3.980485,-1
254,255,1583586258005,0.032899998,-0.3848,1.9173,3.6174185,-9.2477,3.2335032999999997,-1
255,256,1583586258016,-0.0603,-0.3584,0.9431,3.986767,-9.266183,1.8822447,-1
256,257,1583586258026,0.41,-0.4588,-0.3778,5.103394000000001,-9.482409,0.7197832,-1
257,258,1583586258036,1.3576,-0.635,-1.3159999999999998,5.996795,-9.752933500000001,0.4606923,-1
258,259,1583586258047,2.5600998,-1.2277,-0.7795,6.3555136,-10.055858,1.2205353,-1
259,260,1583586258057,2.1038,-1.5629,0.3917,5.9489207,-10.382552,2.3457432000000003,-1
260,261,1583586258067,1.3307999,-1.8061,1.2696999,5.246337400000001,-10.607702,3.160576,-1
261,262,1583586258077,1.3307999,-1.8061,1.2696999,4.6497407,-10.772778,3.2145317,-1
262,263,1583586258087,0.7399,-2.1577,1.0187,4.956955000000001,-10.956489999999999,2.6467805,-1
263,264,1583586258097,0.7399,-2.1577,1.0187,6.0234,-11.0708275,2.0645201,-1
264,265,1583586258107,1.5618,-2.2942,0.37939999,6.889066000000001,-11.3054495,1.7429883000000002,-1
265,266,1583586258117,4.0283,-2.9917,-0.4288,8.225997999999999,-11.679309,1.4177313,-1
266,267,1583586258127,4.0283,-2.9917,-0.4288,9.457154,-12.182780000000001,1.3769628999999999,-1
267,268,1583586258137,6.1123,-4.2696,-0.35169998,10.593681,-13.067188,1.4912524,-1
268,269,1583586258147,6.1123,-4.2696,-0.35169998,11.201827999999999,-13.537803,1.6746866999999999,-1
269,270,1583586258158,7.1094,-5.1651,0.26319999,11.6632,-13.755129,2.0290573,-1
270,271,1583586258168,7.182699700000001,-5.4188,0.3719,11.815969,-14.000017000000001,2.1069167,-1
271,272,1583586258178,7.1127,-5.8606,0.60749996,11.881647000000001,-14.281757,2.2602700000000002,-1
272,273,1583586258188,7.2465997,-6.1259,0.97099996,12.229171000000001,-14.529242499999999,2.6908243,-1
273,274,1583586258198,7.5878997,-6.4589996,1.3925999,12.798675,-14.718298,3.001534,-1
274,275,1583586258208,8.0962,-6.468999999999999,1.2254,13.46815,-14.566888,2.6247442000000003,-1
275,276,1583586258219,8.4426,-6.2376,0.46769997,13.899854000000001,-14.208332999999998,1.7868023000000002,-1
276,277,1583586258229,8.2388,-6.1208,-0.0911,13.819610999999998,-14.033681,1.3012678999999998,-1
277,278,1583586258239,7.700599700000001,-6.3655996,0.2041,13.430054,-14.224355,1.9071156999999999,-1
278,279,1583586258249,7.1857,-6.6201,1.3385,13.213598999999999,-14.205919,2.7304527999999997,-1
279,280,1583586258259,6.561,-6.6224,2.1285,12.66887,-13.855034,3.18719,-1
280,281,1583586258270,5.5351,-6.2476997,1.7651,11.743253,-13.194235999999998,2.204715,-1
281,282,1583586258280,4.3772,-5.8671,0.6914,10.9889555,-12.634931,1.234163,-1
282,283,1583586258290,3.6021998,-5.6429,0.2525,10.67835,-12.171576,0.79607207,-1
283,284,1583586258300,3.2828998999999994,-5.4546,0.2563,10.714225,-11.6684675,0.87632567,-1
284,285,1583586258310,3.0486999,-5.1271996,0.83349997,10.66116,-11.128729,1.2117821000000002,-1
285,286,1583586258320,2.4011,-4.6935,1.3309,10.030681,-10.211835,1.5504371000000001,-1
286,287,1583586258330,1.5394,-4.1739999999999995,2.0997999,9.520323,-9.484812,2.0548954,-1
287,288,1583586258340,0.5269,-3.6538,2.9726999,8.470734,-8.574641,2.798228,-1
288,289,1583586258351,-0.72249997,-3.5614,3.8743,7.412142299999999,-8.246771,3.390678,-1
289,290,1583586258361,-1.8728,-3.6848998,4.4893,6.6742873,-8.057361,3.6140857000000004,-1
290,291,1583586258371,-2.9424999,-3.8316,4.8113,5.6572685,-7.676567599999999,3.7247937000000007,-1
291,292,1583586258381,-3.7259,-3.6915998,4.9821,5.053825,-7.0661130000000005,3.5559258000000002,-1
292,293,1583586258391,-4.4328,-3.3079,4.894,4.3992305,-5.7778025,3.121809,-1
293,294,1583586258401,-5.0111,-2.3771,4.6047,3.8877047999999994,-4.5920214999999995,2.8915827000000003,-1
294,295,1583586258412,-5.7011,-1.6127,4.6777997000000004,3.108038,-3.5186144999999995,3.1663412999999996,-1
295,296,1583586258422,-6.6779,-0.9411,5.3747,1.9689148999999997,-2.5479765,4.084403,-1
296,297,1583586258432,-7.9613,-0.35779998,6.5102,0.7780005999999999,-1.6734608,4.9873133,-1
297,298,1583586258442,-9.0625,0.21519999,7.3027997000000004,0.063331425,-0.8942631,5.248435,-1
298,299,1583586258452,-9.8463,0.8592,7.4035997,-0.758282,0.047673345,5.0620036,-1
299,300,1583586258463,-10.375199,1.0629,7.2896,-1.0511886000000001,0.032647334,4.672524,-1
300,301,1583586258473,-10.4965,0.5362,6.6635,-0.82094306,-0.58377343,3.5511663,-1
301,302,1583586258483,-10.0385,-0.1434,5.4814,-0.074632056,-0.6848183000000001,2.3855157000000005,-1
302,303,1583586258493,-9.2282,-0.2707,4.2709,0.8864579,-0.47567040000000005,0.29660326,-1
303,304,1583586258504,-8.475699,-0.1628,2.3097,1.5003886999999998,-0.033796553,-1.6481013999999998,-1
304,305,1583586258514,-7.909,0.2483,0.55189997,1.9160031000000002,0.54602164,-2.1980880000000003,-1
305,306,1583586258524,-7.5334997,0.73569995,0.3233,2.137687,0.9631969000000001,-1.4956578,-1
306,307,1583586258534,-7.354099799999999,0.9812,1.2171,2.028856,1.092886,-0.50048393,-1
307,308,1583586258544,-7.4873996,0.9683,2.2431,1.7845422,1.1555853999999999,0.06905836,-1
308,309,1583586258554,-7.6910996,0.9022,2.8198,1.5211704,0.89148575,0.33135749999999997,-1
309,310,1583586258565,-7.9507,0.4698,3.1938,1.347495,0.5252974,0.65219015,-1
310,311,1583586258575,-8.017000000000001,0.0534,3.5061998,1.440821,0.09329725,-0.040988732,-1
311,312,1583586258585,-7.8465996,-0.4179,2.6251,1.9879248,-0.42995074,-1.7104751,-1
312,313,1583586258596,-7.1489997,-0.89409995,0.9837,3.2236105999999998,-0.5523806,-3.1365,-1
313,314,1583586258605,-5.8329,-0.89229995,-0.3594,4.517409,-0.38779363,-4.3737755,-1
314,315,1583586258615,-4.5712,-0.7014,-1.5609,5.7163005,-0.30279946,-5.0908675,-1
315,316,1583586258625,-3.4183,-0.5499,-2.109,6.508206400000001,-0.14924496,-4.9777656,-1
316,317,1583586258635,-2.7323,-0.3593,-1.9015,6.8824587,0.08575072,-4.4962344000000005,-1
317,318,1583586258646,-2.4522998,-0.1147,-1.3435,6.6467447,0.12683523,-3.6989074,-1
318,319,1583586258656,-2.804,-0.1663,-0.39699998,5.816426,-0.19922632,-2.259341,-1
319,320,1583586258666,-3.4961,-0.4183,0.85179996,5.362369999999999,-0.7986099,-1.9156389999999999,-1
320,321,1583586258676,-3.9436998,-1.0133,1.226,5.734017,-1.2983756000000002,-2.5721867,-1
321,322,1583586258686,-3.5616999,-1.4702,0.6082,6.7763667000000005,-1.6703675,-3.6708379,-1
322,323,1583586258696,-2.5063999,-1.7894,-0.47959998,7.880285300000001,-1.9276005,-4.762230000000001,-1
323,324,1583586258707,-1.4047999,-1.9891,-1.5566,8.743383999999999,-1.8398098999999999,-5.3255186,-1
324,325,1583586258717,-0.5403,-1.8362,-2.1104998999999998,9.220185,-1.5730958000000002,-5.4272914000000005,-1
325,326,1583586258727,-0.058399998,-1.5179,-2.205,9.576213000000001,-1.1978191,-4.888175,-1
326,327,1583586258737,0.2988,-1.1068,-1.6639999,9.77519,-0.9686078000000001,-3.6198894999999998,-1
327,328,1583586258747,0.2923,-0.9438,0.2927,9.465208,-1.1229093,-2.9259443,-1
328,329,1583586258758,0.2923,-0.9438,0.2927,8.971122,-1.3354282,-3.0869975,-1
329,330,1583586258768,-0.597,-1.4866999,-0.1677,8.622948,-1.6745621,-3.6038387000000003,-1
330,331,1583586258778,-0.45399999999999996,-1.3646,-0.49929997,8.81208,-1.4869812,-4.026233,-1
331,332,1583586258789,-0.1169,-1.018,-1.0339,9.139289999999999,-1.1762233999999998,-4.5773883,-1
332,333,1583586258799,0.1793,-0.7363,-1.3579,9.421566,-0.95385957,-4.88399,-1
333,334,1583586258809,0.62369996,-0.48499998,-1.5325999,9.859658,-0.72708076,-5.0707273,-1
334,335,1583586258819,1.0684,-0.24859999,-1.344,10.343057,-0.5211986,-4.6261053,-1
335,336,1583586258829,1.2392,-0.3041,-0.48659998,10.303208,-0.82502276,-3.6362178,-1
336,337,1583586258839,1.0363,-0.7879999999999999,0.6623,10.104604,-1.2216079,-2.771748,-1
337,338,1583586258849,0.8224,-0.8617,1.0824,9.871906,-1.1266443000000002,-2.7073824,-1
338,339,1583586258860,0.64699996,-0.4903,0.4608,9.659866000000001,-0.6740156999999999,-3.662487,-1
339,340,1583586258870,0.4418,0.0801,-0.6921,9.454291,-0.1428668,-4.810889700000001,-1
340,341,1583586258880,0.27699998,0.5035,-1.5582,9.3055725,0.17293797,-5.460743,-1
341,342,1583586258890,0.25169998,0.5704,-1.801,9.353111,0.059041015999999995,-5.5063477,-1
342,343,1583586258900,0.4948,0.40649998,-1.525,9.684594,-0.10631213,-5.1334944,d
343,344,1583586258910,0.84849995,0.2862,-0.9187,9.929789,-0.36253002,-4.3969417,-1
344,345,1583586258920,0.93759996,-0.2798,0.1977,9.965405,-0.92944825,-3.3237076,-1
345,346,1583586258931,0.9766,-0.44599998,0.6443,9.948779,-0.8811141,-3.4199542999999997,-1
346,347,1583586258941,0.8261,-0.1873,-0.4861,9.728446,-0.58959615,-4.947005,-1
347,348,1583586258951,0.7115,0.0133,-1.5264,9.615286,-0.4074261,-5.926119,-1
348,349,1583586258961,0.6256,0.1616,-2.5191998,9.594495,-0.28853962,-6.842025,-1
349,350,1583586258971,0.7371,0.067499995,-2.9104,9.718161,-0.6248771,-6.801266,-1
350,351,1583586258981,0.92209995,-0.53819996,-2.0349,9.893292,-1.2632669,-5.197285,-1
351,352,1583586258991,0.93649995,-0.95129997,-0.5083,9.761610000000001,-1.4348643,-4.44496,-1
352,353,1583586259002,0.62149996,-1.0762,-0.062299997,9.309394000000001,-1.3898532,-4.7633886,-1
353,354,1583586259012,0.18869999,-0.8139,-1.8346,8.748039,-0.9712415000000001,-7.836203,-1
354,355,1583586259022,-0.17989999,-0.5157,-4.7262,8.5713,-0.77696633,-10.214536,-1
355,356,1583586259032,-0.22999999,-0.41329998,-7.1973,8.470963000000001,-0.8321765999999999,-12.379871000000001,-1
356,357,1583586259042,-0.3211,-0.69449997,-8.2204,8.667183,-1.3535571000000002,-12.579556,-1
357,358,1583586259052,0.16129999,-1.3939999,-8.057099000000001,9.245985000000001,-2.1047237,-12.723621000000001,-1
358,359,1583586259062,0.6824,-2.2749,-8.5335,9.348649,-2.8495789,-13.540551999999998,-1
359,360,1583586259073,0.5136,-3.0326,-9.2549,9.031255,-3.3312922,-14.023922,-1
360,361,1583586259083,0.110199995,-3.5595999,-9.5854,8.440949,-3.6204447999999996,-14.379001,-1
361,362,1583586259093,-0.4172,-3.7444,-9.6665,7.8411636,-3.4798286,-14.207298000000002,-1
362,363,1583586259103,-1.0490000000000002,-3.6581,-9.1754,6.831854300000001,-3.3102902999999997,-13.5099535,-1
363,364,1583586259114,-2.3040000000000003,-3.6862,-8.565599,5.3090269999999995,-3.5930552000000002,-13.065102,-1
364,365,1583586259124,-3.451,-4.1493,-8.2523,4.756867400000001,-3.81947,-12.645513000000001,-1
365,366,1583586259134,-3.8467,-4.4276,-7.8184996,4.8292294,-3.9315762999999997,-12.088994999999999,-1
366,367,1583586259144,-3.7831998,-4.6475,-7.3781,4.778338400000001,-4.102216,-11.972886,-1
367,368,1583586259154,-3.8862997999999997,-4.9419,-7.3313,4.6751575,-4.3205480000000005,-11.591346000000001,-1
368,369,1583586259164,-4.1710997,-5.329799700000001,-6.8483996,4.0757165,-4.57372,-10.362451,-1
369,370,1583586259174,-4.808,-5.6245,-5.6363,3.2241375,-4.583776,-8.210025,-1
370,371,1583586259185,-5.7545,-5.6716,-3.4162998,1.881718,-4.2049556,-5.7689247,-1
371,372,1583586259195,-7.2755,-5.4052997000000005,-1.2373999,-0.011626243999999999,-3.8207150000000003,-4.287757,-1
372,373,1583586259205,-9.1901,-5.1928,0.0004,-1.6789292000000002,-3.3268964,-2.9865557999999996,-1
373,374,1583586259215,-10.7872,-4.7634,1.2147,-2.5553026,-2.7467911,-1.5056176000000001,-1
374,375,1583586259225,-11.5323,-4.2888,2.5274,-2.4939918999999997,-2.3464517999999996,-0.7524401,-1
375,376,1583586259236,-11.2908,-3.9657,2.9262998,-1.0729567,-1.8151113,-0.3335123,-1
376,377,1583586259246,-10.1069,-3.4944,3.0864,0.15348749,-1.5817341999999999,0.7433709,-1
377,378,1583586259256,-8.9626,-3.2445998,3.9615998,0.5147151,-1.7243233,2.8243918,-1
378,379,1583586259267,-8.675,-3.3521,5.8658,-0.05593813,-1.882168,5.389645,-1
379,380,1583586259276,-9.271999000000001,-3.4798,8.2625,-0.77604693,-1.4698674999999999,8.477953999999999,-1
380,381,1583586259286,-10.062799,-3.0307,11.2001,-1.3206034,-0.6755288,10.411128999999999,-1
381,382,1583586259296,-10.730499,-1.9490999,13.270999999999999,-1.2463927,0.61048317,11.378645,-1
382,383,1583586259306,-10.6509,-0.8064,13.7315,-0.23884557,1.3983288,11.219268,-1
383,384,1583586259316,-9.7122,0.1398,13.3546,1.6442611,1.2793656999999998,11.835324,-1
384,385,1583586259327,-7.9270997,0.2051,13.7627,3.3118036,0.31015447,14.163456,-1
385,386,1583586259337,-6.3191,-0.539,15.8907995,4.024069,-0.9262017,16.622225,-1
386,387,1583586259347,-5.5225,-1.8425,18.758,4.754904,-2.3836193,19.28814,-1
387,388,1583586259357,-4.9509,-2.7626998,20.6868,6.058555999999999,-1.96812,21.001507,-1
388,389,1583586259368,-2.2238,-0.4935,22.7918,7.7910295,-0.3523403,21.673367000000002,-1
389,390,1583586259378,-1.1740000000000002,0.57089996,22.219099,8.6757345,0.30068302,21.155874,-1
390,391,1583586259388,-1.1712999,0.5712,21.400599,8.486564,-0.271445,20.416985999999998,-1
391,392,1583586259398,-1.7454,-0.912,20.192,7.9145417,-2.247552,19.04935,-1
392,393,1583586259408,-1.4455999,-2.9419999999999997,18.2451,8.582533,-4.441262999999999,17.137714000000003,-1
393,394,1583586259418,0.7474,-3.8797,16.7163,11.013682000000001,-5.394845,15.810714,-1
394,395,1583586259428,3.5486,-3.7717998,15.8743,13.638465,-5.519008,15.027016,-1
395,396,1583586259439,5.3078,-3.8699,14.874498999999998,15.072716,-6.0101457,13.990248999999999,-1
396,397,1583586259449,5.7869,-4.2801,13.512198999999999,15.288826,-6.685185400000001,12.581050999999999,-1
397,398,1583586259459,5.5825996,-4.8462996,12.1029,14.950909,-7.587053,11.244866,-1
398,399,1583586259469,5.1853,-5.8852997,10.6470995,14.53471,-8.934969,9.777412,-1
399,400,1583586259479,5.0859,-7.0773997,9.1658,14.442611,-10.358064,8.389274,-1
400,401,1583586259490,5.3238997,-8.2829,7.6614,14.654248,-11.7241955,6.873178500000001,-1
401,402,1583586259500,5.7911,-8.877,5.7089996,15.237025,-12.474845,4.611041,-1
402,403,1583586259510,6.5709995999999995,-8.9213,4.0144997,15.977637,-12.602139,3.4292245,-1
403,404,1583586259520,7.2411,-8.6503,3.4343,16.281423999999998,-12.442369,3.2147617000000004,-1
404,405,1583586259531,6.8431997,-8.3234,3.2549,15.314980499999999,-12.331642,2.831584,-1
405,406,1583586259541,5.4674,-8.3147,1.9828999,13.709064499999998,-12.567642999999999,1.0179476,-1
406,407,1583586259551,3.9884998999999994,-8.519,-0.4066,12.407289500000001,-13.041485,-1.5353633,-1
407,408,1583586259561,3.2447999,-9.2396,-3.3834,11.977646,-14.1209345,-4.6586566,-1
408,409,1583586259571,3.6109998,-10.1378,-6.2795997,12.840046000000001,-14.847919000000001,-6.823369500000001,-1
409,410,1583586259582,5.1046,-10.255899000000001,-7.1039,14.396612,-14.771898,-6.630128999999999,-1
410,411,1583586259592,5.835,-9.813399,-6.1698,13.77028,-14.099376999999999,-5.372876,-1
411,412,1583586259602,4.361000000000001,-9.0222,-4.9554,12.160179,-13.655971,-4.894591,-1
412,413,1583586259612,1.9764999,-8.5292,-5.5011,9.143907,-13.166903,-7.269859299999999,-1
413,414,1583586259622,0.024799999,-8.2867,-9.1158,8.336668,-13.103064,-11.354942,-1
414,415,1583586259632,0.1944,-8.038899,-14.681999,9.771532,-12.607866,-17.1842,-1
415,416,1583586259643,2.1739,-7.3992,-18.2636,11.885976,-11.885814,-18.906828,-1
416,417,1583586259654,3.9847,-6.7341,-18.5431,12.661553,-11.364835000000001,-17.238232,-1
417,418,1583586259664,3.7424,-6.2706,-15.812798999999998,10.160963,-11.135442,-13.488404999999998,-1
418,419,1583586259674,1.0101,-6.2242,-12.6971,7.020689999999999,-11.053158,-11.723036,-1
419,420,1583586259684,-2.0774,-6.1886,-11.3371,5.0601835,-10.972673,-12.194685,-1
420,421,1583586259694,-4.0475,-6.0917,-12.682899,4.718742,-10.630533,-14.884819,-1
421,422,1583586259705,-3.5561,-5.7685,-14.9609995,6.5843324999999995,-10.285653,-16.284270000000003,-1
422,423,1583586259715,-1.6219999999999999,-5.4948997,-16.1729,8.036559,-10.276124000000001,-16.3564,-1
423,424,1583586259725,-0.41200000000000003,-5.5339,-16.0369,8.083907,-10.202307000000001,-15.295117999999999,-1
424,425,1583586259735,-0.6904,-5.4412,-14.776798999999999,7.013526400000001,-10.005235,-13.363294,-1
425,426,1583586259745,-1.8808,-5.2405,-12.644199,5.5227337,-9.463436,-11.066192,-1
426,427,1583586259755,-3.4503,-4.7004,-10.379499000000001,3.9350812000000004,-8.919675,-9.281611,-1
427,428,1583586259765,-5.040499700000001,-4.2904,-8.6678,2.7853665000000003,-8.723628,-8.15104,-1
428,429,1583586259776,-6.0281997,-4.1846,-7.7065997,2.660887,-8.616339,-8.177166,-1
429,430,1583586259786,-5.9781,-4.11,-8.0815,3.3115928,-8.475695,-9.417956,-1
430,431,1583586259796,-5.2918997,-3.9689998999999996,-9.4599,3.8603245999999998,-8.349654,-10.051702,-1
431,432,1583586259806,-4.8264,-3.9175,-9.8061,3.8873887000000003,-8.54935,-8.351818,-1
432,433,1583586259816,-4.87,-4.1013,-8.2874,3.5342437999999996,-8.533462,-6.7404823,-1
433,434,1583586259826,-5.326699700000001,-4.0826,-6.297000000000001,2.9702275,-8.391083,-4.4887643,-1
434,435,1583586259837,-5.7929997,-3.9657998,-4.463,2.6796095,-8.35631,-3.4508395,-1
435,436,1583586259847,-6.0898,-3.9317,-3.4282,2.6931992,-8.244481,-2.9301965,-1
436,437,1583586259857,-6.0677,-3.8091,-2.9169,2.9093093999999997,-8.146042,-2.5894152999999998,-1
437,438,1583586259867,-5.8525,-3.7027,-2.6178,3.299095,-8.485224,-2.3165624,-1
438,439,1583586259877,-4.6763997,-4.2181,-1.8331,4.1109686000000005,-8.749275,-1.6733363,-1
439,440,1583586259888,-4.3961,-4.1716,-2.082,4.318651,-8.744142,-1.8723519,-1
440,441,1583586259898,-4.2613997,-4.064,-1.5548999,4.418508999999999,-8.647454,-1.0791241000000003,-1
441,442,1583586259908,-4.0656,-3.7760000000000002,-0.33879998,4.632043,-8.355955,0.13907439,-1
442,443,1583586259918,-4.0656,-3.7760000000000002,-0.33879998,5.114647,-7.966092999999999,1.5413008999999998,-1
443,444,1583586259928,-3.0547,-3.1139,2.8286998,5.582656,-7.983226299999999,3.5795230000000005,-1
444,445,1583586259938,-2.7587,-3.7984,4.7608,5.8213577,-8.8414135,5.530950499999999,-1
445,446,1583586259949,-2.3218,-4.4291,6.6431,6.291282,-9.4588585,7.3635592,-1
446,447,1583586259959,-1.5282999,-4.594599700000001,8.1654,7.0753639999999995,-9.594438,8.87565,-1
447,448,1583586259969,-0.624,-4.1595,9.5337,7.9263496,-9.104775,10.232521,-1
448,449,1583586259979,0.3017,-3.2832,10.7123995,8.797724,-8.304039999999999,11.444456,-1
449,450,1583586259989,0.91359997,-2.6653,11.4205,9.306942,-7.8337994,12.062994,-1
450,451,1583586260000,1.3364999,-2.3976998,11.201699000000001,9.698422,-7.656388799999999,11.626914,-1
451,452,1583586260010,1.892,-2.0885,10.456799499999999,10.317171,-7.431449000000001,10.879904,-1
452,453,1583586260020,2.5771,-1.8665999,10.099,10.920088,-7.199986999999999,10.9637575,-1
453,454,1583586260030,2.8978999,-1.5978,10.8064995,10.965022,-7.1228647,11.885736,-1
454,455,1583586260040,2.6385,-1.6271,11.8314,10.54461,-7.066706699999999,12.562883,-1
455,456,1583586260050,2.097,-1.2174,11.7765,10.073967999999999,-6.60838,12.088113,-1
456,457,1583586260061,1.6119,-0.51019996,10.401199,9.55866,-5.7864122,10.2605715,-1
457,458,1583586260071,1.3232,0.0673,8.781799000000001,9.335194,-5.4072185,8.470953999999999,-1
458,459,1583586260082,1.2513,0.22299999,6.6039,9.460841,-5.274637,6.233619999999999,-1
459,460,1583586260092,1.7376,0.4754,4.777,10.033104,-4.9576254,4.9167614,-1
460,461,1583586260102,2.0923,0.7238,4.2560997,10.002448,-4.856226400000001,4.935235,-1
461,462,1583586260112,1.7143999,0.6401,4.5968,9.384935,-5.057732,5.183993,-1
462,463,1583586260123,1.035,0.44889998,4.8287997,8.841308,-5.085619400000001,5.4063754,-1
463,464,1583586260133,0.5703,0.48099998,5.1334,8.418453999999999,-4.9667525,5.4821089999999995,-1
464,465,1583586260143,0.1467,0.622,4.9282,8.077022,-4.8287888,4.8368335,-1
465,466,1583586260153,-0.0968,0.7173,4.0388,8.030756,-4.726030000000001,3.6342065000000003,d
466,467,1583586260163,-0.0034999999,0.82589996,2.7538998,8.21171,-4.6359982,2.5562317,-1
467,468,1583586260174,0.14029999,0.8382,1.8159,8.369477,-4.7450395,1.8704845,-1
468,469,1583586260184,0.25349998,0.73109996,1.3555,8.281227000000001,-4.809798000000001,1.9809720000000002,-1
469,470,1583586260194,0.0887,0.6397,1.6154,7.9216666,-4.861427,2.6252327,-1
470,471,1583586260204,-0.30449998,0.5743,2.2405999,7.6507,-5.0001373,2.81154,-1
471,472,1583586260214,-0.5115,0.40109998,2.2993999,7.842925500000001,-5.1241856,2.7418877999999998,-1
472,473,1583586260225,-0.255,0.3195,2.2446,8.157237,-4.965669999999999,2.4097831000000003,-1
473,474,1583586260235,0.014699998999999998,0.4872,1.7669,8.215942,-4.946143,1.6543263,-1
474,475,1583586260245,0.0313,0.4407,1.0117999,8.217483999999999,-5.0782647,1.2081621,-1
475,476,1583586260256,0.039,0.3163,0.5652,8.328882,-5.1937513,0.87544465,-1
476,477,1583586260266,0.14549999,0.20269999,0.2656,8.569728999999999,-5.3856134,0.9263261999999999,-1
477,478,1583586260276,0.3893,0.010799999,0.28399998,8.886377,-5.491082700000001,1.0220655,-1
478,479,1583586260286,0.69949996,-0.1072,0.34289998,9.147891,-5.497346,1.0487369,-1
479,480,1583586260296,0.9615,-0.122899994,0.35889998,9.348248,-5.4671307,1.3650014,-1
480,481,1583586260306,1.2120999,-0.07200000000000001,0.81,9.584105000000001,-5.4320892999999995,2.0838363,-1
481,482,1583586260317,1.3801999,-0.0766,1.367,9.634919,-5.455083,2.3030016,-1
482,483,1583586260327,1.4296,-0.1135,1.5725,9.548489,-5.4160385,2.3622727,-1
483,484,1583586260337,1.3316,-0.0936,1.5996,9.663161,-5.4155407,2.37342,-1
484,485,1583586260347,1.4404,-0.1129,1.571,10.115243,-5.541868,2.1863945,-1
485,486,1583586260357,1.8840000000000001,-0.2582,1.3455,10.837717999999999,-5.6036577,2.3462026000000002,-1
486,487,1583586260368,3.2115998,-0.53709996,1.8986,11.668975999999999,-5.896948,2.9804173,-1
487,488,1583586260378,3.8760000000000003,-0.89169997,2.5851,12.369566,-6.185841,3.7105818,-1
488,489,1583586260388,4.6451,-1.0646,3.1750998,13.075923,-6.2791004,4.14895,-1
489,490,1583586260398,5.3429,-1.1459,3.49,13.779263,-6.3454294,4.4770136,-1
490,491,1583586260408,5.791,-1.3354,3.7228,14.134523999999999,-6.4761143,4.700948,-1
491,492,1583586260419,5.8108997,-1.4599999,3.6595,14.140720000000002,-6.519823000000001,4.6582737000000005,-1
492,493,1583586260429,5.6471,-1.4318,3.6627,13.998859,-6.4108577,4.72307,-1
493,494,1583586260439,5.4761,-1.4147999,3.7463,13.890009,-6.323575,4.860536,-1
494,495,1583586260449,5.4167,-1.4156,3.8112998,13.938928,-6.2209597,4.909483,-1
495,496,1583586260459,5.5085,-1.4138,3.6834998,14.054001999999999,-6.152447,4.771625,-1
496,497,1583586260470,5.4179997,-1.43,3.7645,13.972562,-6.017567,4.827467400000001,-1
497,498,1583586260480,5.1161,-1.3191998999999999,3.8532,13.708107,-5.783587000000001,4.8678913,-1
498,499,1583586260490,5.1161,-1.3191998999999999,3.8532,13.196045000000002,-5.425912,5.042783,-1
499,500,1583586260500,4.5985,-1.2615,4.1011,12.541786,-5.1486254,4.696514,-1
500,501,1583586260510,3.1696,-0.8894,3.4046998,11.765183,-4.9330707,3.8883655,-1
501,502,1583586260520,2.5204,-0.81229997,2.5184999,11.299502,-4.712584,3.002415,-1
502,503,1583586260531,2.1097,-0.74509996,1.7197,11.062178999999999,-4.4381794999999995,2.2310896000000002,-1
503,504,1583586260541,1.9073,-0.56979996,1.2149,10.943914999999999,-4.1221833,1.8631293999999998,-1
504,505,1583586260551,1.7457,-0.47329998,1.2289,10.867932000000001,-3.9647502999999995,2.0038128,-1
505,506,1583586260561,1.6449,-0.57379997,1.6114,10.829214,-3.9896211999999998,2.3693404,-1
506,507,1583586260571,1.537,-0.8129,2.1578999,10.714876,-4.08854,2.8193736,-1
507,508,1583586260581,1.3238,-1.0646,2.4018,10.557711,-4.246423200000001,2.7730122,-1
508,509,1583586260591,1.0352,-1.5245999,2.2388,10.252527,-4.529302599999999,2.3722517000000005,-1
509,510,1583586260602,0.6708,-1.7729,1.7077,10.03046,-4.5009456,1.6962727,-1
510,511,1583586260612,0.5051,-1.7696999,1.0325999,10.001318,-4.121321,0.62295216,-1
511,512,1583586260622,0.5385,-1.5239999,0.1721,10.117360000000001,-3.7051132000000004,-0.14514609,-1
512,513,1583586260632,0.5855,-1.2986,-0.1954,10.09768,-3.418968,-0.17114711,-1
513,514,1583586260642,0.41099998,-1.2409999,0.1305,9.819301,-3.2533083,0.40484035,-1
514,515,1583586260652,0.0251,-1.2921,0.99109995,9.376365,-3.1150860000000002,1.160144,-1
515,516,1583586260663,-0.4739,-1.2842,1.6951,8.886961,-2.9606217999999997,1.4638628,-1
516,517,1583586260673,-0.9194,-1.3217,1.8712,8.62764,-2.737348,0.90699065,-1
517,518,1583586260683,-1.0857999,-1.2255,1.2555,8.600518,-2.3024272999999997,-0.17394355,-1
518,519,1583586260694,-1.1205,-0.9259,0.2996,8.534352,-1.9422722,-0.7814770000000001,-1
519,520,1583586260704,-1.2200999,-0.6893,-0.15869999,8.371604,-1.7417051,-0.99998146,-1
520,521,1583586260714,-1.3944,-0.7507,-0.18339999,8.334666,-1.7127736,-1.3083546,-1
521,522,1583586260724,-1.3591,-0.7951,-0.4326,8.782774,-1.3878995,-1.5894434,-1
522,523,1583586260734,-0.80079997,-0.56619996,-0.50659996,9.390844,-1.0543969,-1.0172197,-1
523,524,1583586260744,-0.2795,-0.3699,0.3055,9.372677000000001,-0.7866102,-0.016280571,-1
524,525,1583586260754,-0.47309998,-0.2225,1.3931,8.348179,-0.7282874,0.745315,-1
525,526,1583586260764,-1.7055999,-0.3798,2.0477,7.056584,-0.8571049999999999,0.8107054,-1
526,527,1583586260774,-3.2807,-0.6006,2.0449998,5.564661,-0.98436165,0.34510022,-1
527,528,1583586260784,-4.256,-0.8461,1.5800999,5.4181356,-1.0688578000000002,-0.38386714,-1
528,529,1583586260795,-4.1019998,-0.94119996,0.4671,6.169695,-0.74271005,-2.0961714,-1
529,530,1583586260805,-3.3888,-0.6105,-0.7478,6.690682400000001,-0.33566707,-2.1701523999999996,-1
530,531,1583586260815,-2.9587,-0.2977,-0.49699998,6.821310499999999,-0.33257377,-1.1125473,-1
531,532,1583586260826,-2.8501,-0.4148,0.78349996,6.681891,-0.59118587,0.35461956,-1
532,533,1583586260836,-3.0828998,-0.7001,2.2773,5.9670496,-0.6845979999999999,1.2697216999999998,-1
533,534,1583586260846,-3.9019999999999997,-0.8211,3.0228999,4.9559975,-0.9438805,0.73415804,-1
534,535,1583586260856,-4.8466,-1.194,2.3139,4.15756,-1.6338894,-1.0710796,-1
535,536,1583586260866,-5.4666,-1.8238,0.8606,3.871137,-1.9322644,-2.3628855,-1
536,537,1583586260876,-5.7334,-2.1430000000000002,-0.34989998,3.919854,-1.7617015999999999,-2.9871497000000002,-1
537,538,1583586260887,-5.6647,-1.9885999,-0.8785,4.1960015,-1.2945161,-2.7385166,-1
538,539,1583586260897,-5.3666,-1.5534999,-0.53139997,4.0586505,-0.65489084,-2.1463346000000003,-1
539,540,1583586260907,-5.4767,-0.9464,0.1683,3.3630872000000003,-0.5414727,-1.9722955000000002,-1
540,541,1583586260917,-6.143399700000001,-0.86039996,0.4597,2.790107,-0.7887171,-2.1867201,-1
541,542,1583586260927,-6.6815996,-1.1405,0.3574,2.7158580000000003,-1.0042335,-2.140464,-1
542,543,1583586260938,-6.7282996,-1.3535,0.5215,3.157368,-1.3224708,-2.2880905,-1
543,544,1583586260948,-5.4758,-2.0956,-0.2793,4.081884,-1.8876939999999998,-3.467283,-1
544,545,1583586260958,-4.5481997000000005,-2.4593,-2.0365,5.0218096,-2.2693777,-5.344835,-1
545,546,1583586260968,-3.5605,-2.4196,-3.9701,5.9964794999999995,-2.2479447999999995,-7.253569000000001,-1
546,547,1583586260979,-3.5605,-2.4196,-3.9701,6.666913,-2.110546,-8.354346000000001,-1
547,548,1583586260989,-2.2096999,-1.9329,-5.914,7.222713000000001,-1.8637613999999998,-8.835888,-1
548,549,1583586261000,-1.9742998999999999,-1.6847,-4.8831,7.346042999999999,-1.727359,-7.097984299999999,-1
549,550,1583586261010,-2.2022,-1.9226999,-2.7409,7.0257087,-2.179049,-4.812393,-1
550,551,1583586261020,-2.3669,-2.4011,-0.22379999,6.8975610000000005,-2.4444605999999998,-2.6343112,-1
551,552,1583586261030,-2.4517999,-2.3306,1.0698999,6.803468700000001,-2.2261765,-2.1204104,-1
552,553,1583586261041,-2.4808,-2.031,0.6766,6.7997913,-1.9147197,-3.1149714,d
553,554,1583586261051,-2.291,-1.6130999,-0.7861,7.184290400000001,-1.4995556,-4.687416000000001,-1
554,555,1583586261062,-1.5988,-1.2138,-2.2515,8.079913000000001,-1.224548,-5.9939704,-1
555,556,1583586261072,-0.39229998,-0.9598,-2.9587998,9.390758,-1.0607271,-6.2298565,-1
556,557,1583586261082,0.9209,-0.81589997,-2.6989,10.679002,-1.0294014,-5.7015139999999995,-1
557,558,1583586261092,1.6079999,-0.83339995,-2.1703,10.8629055,-1.2226998,-5.0058737,-1
558,559,1583586261103,1.4647,-1.0845,-1.3672,10.3595,-1.5479376,-4.380249500000001,-1
559,560,1583586261113,0.8814,-1.3689,-0.9801,9.893886,-1.6175992000000001,-4.2353525,-1
560,561,1583586261123,0.636,-1.2616,-0.8056,9.974149,-1.3059796000000001,-4.080035700000001,-1
561,562,1583586261133,0.81369996,-0.9202,-0.73539996,10.092326,-0.95762324,-4.4024005,-1
562,563,1583586261143,0.8731,-0.7133,-1.3733,9.960223,-1.028166,-5.5505447,-1
563,564,1583586261154,0.6454,-0.8653,-2.6468,9.758652,-1.2093688,-6.960691499999999,-1
564,565,1583586261164,0.58169997,-1.0152,-3.7219,9.962014,-1.5438386999999998,-7.994565,-1
565,566,1583586261174,0.8419,-1.4103999,-4.7472,10.414136,-1.980407,-9.01213,-1
566,567,1583586261184,1.341,-1.8391998999999999,-5.7335,10.926160000000001,-2.3518531000000005,-9.987211,-1
567,568,1583586261194,1.8443999,-2.1991,-6.6397,11.229132,-2.5328642999999995,-10.478032,-1
568,569,1583586261204,2.1144,-2.4464998,-6.9227,11.174936,-2.6620169999999996,-10.047535,-1
569,570,1583586261215,1.9518,-2.5358,-6.3357997,10.600595,-2.6537142000000005,-9.594542500000001,-1
570,571,1583586261224,1.3146,-2.6008,-5.9265,9.810452,-2.6279714,-9.7039,-1
571,572,1583586261234,0.1612,-2.616,-6.3872,8.069772,-2.5172637000000004,-11.036073,-1
572,573,1583586261244,-1.1654,-2.6036,-7.5332,7.58327,-2.4640167,-11.652560000000001,-1
573,574,1583586261254,-1.5755,-2.5978,-8.184,7.726825999999999,-2.4385613999999998,-11.856613000000001,-1
574,575,1583586261264,-1.3804,-2.6866,-8.3139,7.8087273,-2.535,-11.824733,-1
575,576,1583586261274,-1.3851,-2.8753998,-8.2689,7.4603133,-2.7827040000000003,-11.532391,-1
576,577,1583586261285,-1.8449,-3.2294,-7.982599700000001,6.8008065,-2.896419,-11.0801735,-1
577,578,1583586261295,-2.5340000000000003,-3.359,-7.5343,6.3953724,-2.7984482999999996,-9.714464,-1
578,579,1583586261305,-2.8639,-3.3418,-5.9842,6.227309,-2.5760747999999998,-7.394138000000001,-1
579,580,1583586261315,-3.1159,-3.1847,-3.786,5.529485,-2.0669622,-6.1410029999999995,-1
580,581,1583586261325,-3.9757998,-2.7454998,-3.0068998,4.082506700000001,-1.5687767,-6.329465,-1
581,582,1583586261336,-5.5432,-2.3906999,-3.4162,2.6426334,-1.2389516,-6.5665770000000006,-1
582,583,1583586261346,-6.9171996,-2.1736,-3.7024,1.8591838,-0.9912091000000001,-6.093521,-1
583,584,1583586261356,-7.5667,-2.0497,-3.1629,1.8930378,-0.91135764,-4.297649400000001,-1
584,585,1583586261366,-7.5089999999999995,-2.0562,-1.7105999,2.3194067000000005,-0.87534887,-2.0476077,-1
585,586,1583586261376,-7.1066,-2.0665998,0.4028,2.6776655,-0.8919455,-0.16067009,-1
586,587,1583586261386,-6.742799799999999,-2.0932999,2.5069999999999997,2.8810672999999998,-0.37347633,1.7603512,-1
587,588,1583586261397,-6.6154,-1.6284,3.9174,2.8460832000000003,0.51664,2.8543003,-1
588,589,1583586261407,-6.667000000000001,-0.7772,4.8733,2.784313,1.32181,3.8793154000000003,-1
589,590,1583586261417,-6.7697997,0.0407,5.7283998,2.7754736,1.7392823,5.55405,-1
590,591,1583586261427,-6.8139997,0.47439998,7.2251,2.7750522999999996,1.6813042,7.485040700000001,-1
591,592,1583586261437,-6.461,0.074999996,10.6307,3.3571784,1.1474355,9.590492,-1
592,593,1583586261448,-5.4649997,-0.0703,11.9289,4.487031,0.9731280999999999,11.137482,-1
593,594,1583586261458,-5.4649997,-0.0703,11.9289,5.7432300000000005,0.94978935,12.643674,-1
594,595,1583586261468,-2.4431,0.1695,15.7176,7.570964,1.0324948,15.491032,-1
595,596,1583586261478,-1.3275,0.5244,18.8007,8.596257000000001,1.2794135,18.871243,-1
596,597,1583586261488,-1.03,0.82449996,21.459599,8.673695,1.38291,21.27822,-1
597,598,1583586261498,-1.8945999,0.3742,21.689498999999998,7.6882410000000005,0.6926329999999999,21.200397,-1
598,599,1583586261508,-1.8945999,0.3742,21.689498999999998,7.141310000000001,0.10323798,20.530012,-1
599,600,1583586261519,-2.065,-0.606,19.3814,8.2676,-0.37829345,18.842807999999998,-1
600,601,1583586261529,-0.0677,-0.2774,18.1652,10.381144,-0.046026133,17.891113,-1
601,602,1583586261539,1.7458999,0.3011,17.8272,11.735745,0.30376673,17.797833999999998,-1
602,603,1583586261550,1.885,0.2601,18.031,11.362766,-0.23743777,17.800247,-1
603,604,1583586261560,1.885,0.2601,18.031,10.836656,-0.88739645,17.161982000000002,-1
604,605,1583586261570,0.70949996,-1.8865999,15.8364,10.503841,-2.850029,14.672846,-1
605,606,1583586261580,0.8384,-3.1469998,13.4176,10.7755165,-4.2878620000000005,11.632094,-1
606,607,1583586261590,1.4129,-4.4077,10.0008,11.3622875,-5.3036737,8.708402,-1
607,608,1583586261600,2.325,-4.9811,6.7601,12.512012,-5.859339,4.946201,-1
608,609,1583586261610,3.3581,-4.7753,4.3912997,13.3819685,-5.622313500000001,2.7516944,-1
609,610,1583586261621,3.8936,-4.2888,2.5323,13.531367000000001,-5.3250303,0.9512163,-1
610,611,1583586261631,3.3614,-4.0491,1.1965,12.564549000000001,-5.3960996,-0.28476635,-1
611,612,1583586261641,2.2526,-4.374,0.0071,11.613228999999999,-6.1234965,-1.97921,-1
612,613,1583586261651,1.7271999,-5.4632,-2.2264,11.31269,-7.5121910000000005,-4.749866,-1
613,614,1583586261661,2.0153,-6.7098,-5.0578,11.843905,-8.639975,-7.7903204,-1
614,615,1583586261671,2.7645,-7.2661,-8.0098,12.596394,-9.060071,-10.993159,-1
615,616,1583586261682,3.5793,-7.3469,-11.1693,13.353774,-9.1918,-14.442217999999999,-1
616,617,1583586261692,4.1955,-7.2753997,-14.1579,13.653816,-9.017224,-17.054531,-1
617,618,1583586261702,4.1440997,-6.5648,-15.458798999999999,13.183739000000001,-8.170711500000001,-17.970276000000002,-1
618,619,1583586261712,3.5302,-5.9399,-16.0165,12.293861,-7.980535000000001,-19.001542999999998,-1
619,620,1583586261722,2.6615,-5.986799700000001,-17.2425,11.746423,-8.237654,-20.092926000000002,-1
620,621,1583586261732,2.3398,-6.2379999999999995,-18.433899,11.629997999999999,-8.322867,-21.328104,-1
621,622,1583586261743,2.4099998,-6.0343,-19.0071,11.644217999999999,-8.015405,-21.41848,-1
622,623,1583586261753,2.2022,-5.546,-18.509498999999998,10.989289999999999,-7.232222599999999,-20.518873000000003,-1
623,624,1583586261763,1.2613,-4.8346,-17.562,9.54368,-6.5193152,-19.740385,-1
624,625,1583586261773,-0.366,-4.2121,-16.8214,7.8790593,-5.868551999999999,-19.04756,-1
625,626,1583586261783,-1.9527999,-3.5937997999999998,-16.0719,6.455610299999999,-5.126828700000001,-18.251354,-1
626,627,1583586261794,-3.2918,-2.9907,-15.1296,5.270931,-4.6524606,-16.974047,-1
627,628,1583586261804,-4.3922,-2.6999,-13.703199,4.3682113,-4.3849616,-15.386567000000001,-1
628,629,1583586261814,-5.1839,-2.4915,-12.1052,3.7902896,-4.05777,-13.205316,-1
629,630,1583586261824,-5.605,-2.2949,-10.2878,3.5863989999999997,-3.8730712,-11.305469,-1
630,631,1583586261834,-5.8181,-2.2094998,-8.4607,3.306201,-3.9219801,-9.591488,-1
631,632,1583586261844,-6.1247,-2.3451998,-6.8961997,3.0996772999999997,-4.014693299999999,-8.278335,-1
632,633,1583586261854,-6.3188,-2.4671,-5.6618,3.0954728,-3.996411,-7.1645335999999995,-1
633,634,1583586261864,-6.303999999999999,-2.4552999,-4.6268,3.16456,-3.9078257000000005,-6.159601,-1
634,635,1583586261874,-6.2686996,-2.3772,-3.6334998999999994,3.0415652,-3.7439952000000005,-5.1652026,-1
635,636,1583586261884,-6.4498,-2.2324,-2.7768998,2.810946,-3.7120469,-4.7320150000000005,-1
636,637,1583586261894,-6.6914,-2.2338,-2.4357,2.6334496,-3.7469065,-4.0658045,-1
637,638,1583586261905,-6.8645997,-2.2812997999999998,-1.7430999,2.6601209999999997,-3.7650642,-3.2773845,-1
638,639,1583586261915,-6.7215,-2.3339,-0.7873,3.0856757000000004,-4.0873713,-1.9332316999999999,-1
639,640,1583586261925,-6.3395,-2.6662,0.2789,3.4396538999999997,-4.5818224,-0.7862366999999999,-1
640,641,1583586261935,-5.9837,-3.125,1.3498,3.8089356,-4.895519999999999,0.19541475,-1
641,642,1583586261945,-5.6349998,-3.3119998,2.2389,4.0961056000000005,-4.8613214000000005,1.3491614,-1
642,643,1583586261955,-5.3819,-3.1713998,3.418,4.0701237,-4.7180233,3.022852,-1
643,644,1583586261965,-5.5003,-2.9801,5.1186,3.6888422999999997,-4.3896537,4.686928,-1
644,645,1583586261976,-5.9423,-2.5384998,6.6039,3.0756106,-3.947129,5.960222,-1
645,646,1583586261986,-6.5706997000000005,-2.0356998,7.8057,2.4763515,-3.5155787000000003,7.295736,-1
646,647,1583586261996,-7.1285,-1.4957,9.0483,1.9196997,-3.0165217,8.427935,-1
647,648,1583586262006,-7.7113,-0.8759,9.9835,1.5537411,-2.528641,9.977308,-1
648,649,1583586262016,-7.9328,-0.3613,11.226399,2.222729,-2.6630418,11.680275,-1
649,650,1583586262026,-7.2405996,-0.3441,12.845999999999998,3.082592,-2.6433806,13.467327,-1
650,651,1583586262038,-6.1544,-0.1112,14.972798999999998,3.8674593,-2.4027634,15.469454,-1
651,652,1583586262047,-5.5211997,0.27969998,16.5291,3.6884115,-2.2039871,17.001245,-1
652,653,1583586262057,-5.6478996,0.6674,17.9963,3.186893,-2.1611022999999996,18.871635,-1
653,654,1583586262067,-6.0924,0.9167,19.7809,2.9979044999999998,-2.720177,19.891610999999997,-1
654,655,1583586262077,-6.2121997,0.5660000000000001,20.7215,3.8789512999999998,-3.6605809999999996,19.295925,-1
655,656,1583586262088,-3.3174998999999996,-0.9403,18.7889,6.096116,-5.011304,17.792988,-1
656,657,1583586262098,-3.3174998999999996,-0.9403,18.7889,7.549808500000001,-6.07092,16.217814999999998,-1
657,658,1583586262108,-1.3258,-1.9255999,16.8779,9.021371,-7.143273,14.4184,-1
658,659,1583586262118,1.2587,-3.6313,13.9979,9.987298,-8.537063,13.180608,-1
659,660,1583586262129,1.7673999,-4.6909,13.1721,10.316874,-9.860175,12.384995,-1
660,661,1583586262139,1.7673999,-4.6909,13.1721,10.702771,-10.663372,11.739815,-1
661,662,1583586262149,3.1364,-5.7082996,10.8084,11.440434,-11.201713,9.959209,-1
662,663,1583586262159,4.0464997,-5.9316998,8.4501,12.271232000000001,-11.695886,7.612939,-1
663,664,1583586262169,5.1565,-6.2453,5.7388997,13.176499,-12.21402,5.0850550000000005,-1
664,665,1583586262179,5.9031997,-6.3601,3.6315,13.650023000000001,-12.486537,3.2123005,-1
665,666,1583586262189,5.8099,-6.2908998,2.9145,13.172688,-12.620958,3.0686102,-1
666,667,1583586262199,4.7342997,-6.452999999999999,3.3523998,11.863921000000001,-12.933956,3.7529684999999997,-1
667,668,1583586262209,3.4220998,-6.382999999999999,3.7773,10.442157,-12.926831,4.220566000000001,-1
668,669,1583586262219,2.4177,-6.1141,3.4785,9.420638,-12.815913,3.9401376000000004,-1
669,670,1583586262229,2.0884,-6.1898,2.3079998,9.180174000000001,-13.030845,2.4926703,-1
670,671,1583586262240,2.4441,-6.0976996,0.57989997,9.414097,-12.965378,1.1833677,-1
671,672,1583586262250,2.6569998,-5.8673,-0.96419996,9.422046,-12.826543,-0.06947015,-1
672,673,1583586262260,2.1727,-5.5889,-1.6042999,8.510612,-12.576903999999999,-0.46536579999999994,-1
673,674,1583586262270,1.4806,-5.3111,-1.5525,7.843605999999999,-12.414644000000001,-0.059424087,-1
674,675,1583586262280,0.6123,-5.081,-0.71919996,6.748632400000001,-12.275857,1.0108128,-1
675,676,1583586262290,-0.19309999,-5.2012,-0.6198,6.079127,-12.8673315,-0.051092267000000004,-1
676,677,1583586262301,-0.2669,-6.2296996,-3.5949998,6.4443293,-13.900247,-3.7908351000000002,-1
677,678,1583586262311,1.129,-6.7474,-7.7289,8.821024000000001,-14.01014,-8.247335000000001,-1
678,679,1583586262321,3.5839,-6.4656997,-10.6742,11.135921000000002,-13.824456,-10.00104,-1
679,680,1583586262332,5.580899700000001,-6.3241,-11.8744,12.16198,-13.784453,-10.43712,-1
680,681,1583586262342,6.2667,-6.1685,-11.607599,12.231469,-13.586127,-9.463111,-1
681,682,1583586262353,5.4586,-5.7797,-9.8937,10.870317,-13.044061,-7.521020399999999,-1
682,683,1583586262362,3.6216,-5.0485997000000005,-8.1156,8.999901,-12.288623,-6.052896,-1
683,684,1583586262372,2.0930998,-4.3387,-7.5056,7.725275,-11.402500999999999,-5.8232446,-1
684,685,1583586262382,1.5504999,-3.6111998999999995,-7.5846995999999995,7.749351,-10.73833,-5.553418,-1
685,686,1583586262392,1.8671999,-2.9782999,-7.165,8.155934,-10.064017,-4.6894464000000005,-1
686,687,1583586262402,2.1332998,-2.3530998,-6.2072,8.083217999999999,-9.654263499999999,-3.763666,-1
687,688,1583586262413,1.6137999,-2.0044,-5.0544,7.1131253,-9.479764999999999,-2.1929833999999997,-1
688,689,1583586262423,0.6896,-2.1192,-3.6864998,6.269236599999999,-9.761208,-0.80917317,-1
689,690,1583586262433,-0.057,-2.4417,-2.3379,5.793460400000001,-10.0259495,0.36864,-1
690,691,1583586262443,-0.43109998,-2.7545,-1.4303,5.604558,-10.071296,0.79306495,-1
691,692,1583586262453,-0.4944,-2.5376,-1.4541998999999999,5.711799,-9.60095,0.22113805,-1
692,693,1583586262463,-0.34299999999999997,-1.9774,-2.1889,5.876367,-8.989816000000001,-0.29587546,-1
693,694,1583586262474,-0.2157,-1.4448,-2.4996998,5.880485,-8.637341000000001,-0.26882094,-1
694,695,1583586262484,-0.2953,-1.2530999,-2.4648,5.819232,-8.473262,-0.18733193,-1
695,696,1583586262494,-0.31129998,-1.0689,-2.4673,5.9091578,-8.137613,-0.14384364,-1
696,697,1583586262504,-0.24579999,-0.8039,-2.3455,6.026426,-8.082787,0.398807,d
697,698,1583586262515,-0.1081,-0.7622,-1.7380999,6.156785500000001,-8.033792,0.7742657,-1
698,699,1583586262525,-0.0429,-0.7005,-1.3925999,6.1036053,-7.824012,0.871499,-1
699,700,1583586262535,-0.1454,-0.47469997,-1.2774999,5.8706403,-7.561808,0.9149202,-1
700,701,1583586262545,-0.41189998,-0.2218,-1.2463,5.6246504999999996,-7.3672843,0.7544608,-1
701,702,1583586262555,-0.6534,-0.067999996,-1.4103999,5.591735,-7.321832700000001,0.65548456,-1
702,703,1583586262565,-0.6329,-0.0692,-1.4706,5.848527400000001,-7.350353,0.8832976,-1
703,704,1583586262575,-0.3418,-0.12529999,-1.1913999,6.1933975,-7.5935745,1.2985383,-1
704,705,1583586262585,-0.0098,-0.4434,-0.84819996,6.450248,-7.935783,1.1825538,-1
705,706,1583586262596,0.22119999,-0.82089996,-1.0679,6.7731770000000004,-8.114371,0.96174127,-1
706,707,1583586262606,0.578,-0.884,-1.2902,7.134405,-8.155934,0.4954082,-1
707,708,1583586262617,0.8402,-0.93109995,-1.673,7.134884,-8.127635,0.40412209999999993,-1
708,709,1583586262627,0.78389996,-0.9131,-1.7592,6.7952710000000005,-8.154038,0.33748665,-1
709,710,1583586262638,0.46969998,-0.9568,-1.7975999,6.572083500000001,-8.341724000000001,0.49014097,-1
710,711,1583586262648,0.27969998,-1.3392,-1.2095,6.6915064,-8.562316000000001,1.0875612,-1
711,712,1583586262658,0.43799999999999994,-1.6163,-0.84319997,6.8502135,-8.919924,1.2914994,-1
712,713,1583586262668,0.6702,-2.2846,-1.3026999,7.204698599999999,-9.705347,0.61442876,-1
713,714,1583586262678,1.485,-3.0788,-2.3271,8.119311999999999,-10.339331,-0.34130782,-1
714,715,1583586262688,2.8783998,-3.5869999999999997,-3.2969999999999997,9.507644,-10.796068,-1.2051454,-1
715,716,1583586262699,4.0688,-3.9499,-3.8995,10.640953,-11.125434,-1.7495965,-1
716,717,1583586262709,4.8833,-4.0842,-4.0845,11.396055,-11.204203,-1.7811136000000003,-1
717,718,1583586262719,5.164,-4.0710998,-3.6799998,11.574424,-11.129035,-1.3869323999999998,-1
718,719,1583586262729,4.9628997,-4.029,-3.4515,11.3804455,-11.10988,-1.1979915,-1
719,720,1583586262739,4.6886,-4.3861,-3.8186998,11.266309,-11.461646,-1.7809221999999998,-1
720,721,1583586262749,5.3476996,-4.8623,-4.7327,12.190911,-11.893896,-2.7067122,-1
721,722,1583586262760,6.8610997000000005,-5.1879,-5.402,13.8203,-12.149884,-3.2095327,-1
722,723,1583586262770,8.4534,-5.474,-5.0596,15.749547,-12.475381,-2.4967692,-1
723,724,1583586262780,9.8712,-5.8648996,-3.7285998,16.990261,-12.823182000000001,-0.9429898999999999,-1
724,725,1583586262790,10.3355,-6.1352,-1.9713,17.039131,-12.889327999999999,0.5418556999999999,-1
725,726,1583586262800,9.465199,-6.2932,-0.9794,16.145683,-12.976075,0.9978554000000001,-1
726,727,1583586262810,7.874399700000001,-6.4563,-0.8376,14.524098,-12.880556,0.92423844,-1
727,728,1583586262821,6.9138,-6.0274,-0.94869995,14.039579999999999,-12.099376,0.6448446999999999,-1
728,729,1583586262832,6.7539,-5.3315997,-1.2253,14.205708,-11.380042999999999,0.42681912,-1
729,730,1583586262842,6.7626995999999995,-5.0455,-0.8864,14.1905775,-11.295278999999999,1.3855245,-1
730,731,1583586262852,6.4268,-5.3311,0.6785,13.772387,-11.169736,2.9472623,-1
731,732,1583586262862,5.6684,-5.2637,2.2763999,13.162919,-11.07639,4.2442684,-1
732,733,1583586262872,4.9535,-5.3471,3.8669,12.61842,-10.468695,5.3067,-1
733,734,1583586262882,4.1212,-4.6981997,4.7634,11.918872,-9.727124,5.480087999999999,-1
734,735,1583586262893,2.7725,-4.2583,4.8624,10.254605,-9.053061,4.976444,-1
735,736,1583586262903,1.156,-3.9443998,4.558799700000001,8.92975,-8.499732,4.5694585,-1
736,737,1583586262913,-0.184,-3.6882,4.4371,8.014839,-8.034184,4.4659905,-1
737,738,1583586262923,-1.0289999,-3.5017998,4.7356997000000005,7.530147599999999,-7.484322,4.981050499999999,-1
738,739,1583586262933,-1.5252999,-3.1362,5.5485,7.282836,-6.689236599999999,5.464363,-1
739,740,1583586262943,-1.8105999,-2.5997999,5.8582997,7.179742,-5.7349463,4.861369,-1
740,741,1583586262954,-1.9735999,-2.0671,5.3322997,7.1157107,-5.038884599999999,4.0820565,-1
741,742,1583586262964,-2.1121,-1.6732,4.797,7.150849000000001,-4.768311,3.6980263999999994,-1
742,743,1583586262974,-2.1498,-1.6445,4.4438,6.998357,-4.5208945,2.9973776,-1
743,744,1583586262984,-2.4233,-1.6909999999999998,4.0778,6.523146,-4.1735244,3.1198173,-1
744,745,1583586262994,-2.9952,-1.5029,4.4814,5.7880400000000005,-3.3948345,3.6439652000000002,-1
745,746,1583586263005,-3.847,-0.9529,5.0666,4.825341000000001,-2.665551,3.755382,-1
746,747,1583586263015,-4.8616,-0.4714,5.1568,4.1176343,-2.1442759999999996,3.4478133,-1
747,748,1583586263025,-5.6945,-0.100099996,4.6569,3.5288617999999996,-1.5603108,2.3368366000000003,-1
748,749,1583586263035,-6.0508,0.072299995,3.6471998999999995,3.6071236000000004,-1.4341651000000002,1.2121938,-1
749,750,1583586263045,-5.9311,-0.0077,2.5298,3.9390937999999993,-1.2545905000000002,0.13690045,-1
750,751,1583586263056,-5.5731,0.0013,1.5459,4.5212007000000005,-1.0385568,-0.533974,-1
751,752,1583586263066,-5.0074,0.063099995,0.965,5.0304093,-0.7041443000000001,-0.55734146,-1
752,753,1583586263076,-4.5474,0.2757,1.0938,5.0997357,-0.32999763,0.50352937,-1
753,754,1583586263086,-4.575,0.3944,1.9899999,4.4187675,-0.35379595,1.5099655,-1
754,755,1583586263096,-5.4912,0.14,3.1889999999999996,3.355349,-0.6242641999999999,2.2965279,-1
755,756,1583586263107,-6.523,-0.2918,3.8026998,2.58659,-0.30336452,2.1292497999999997,-1
756,757,1583586263116,-7.116699700000001,-0.1042,3.5756,2.6557539,0.2902634,1.6444526999999998,-1
757,758,1583586263126,-7.0523,0.32389998,3.0684998,2.9755523,0.8246588,1.3584796000000001,-1
758,759,1583586263136,-6.7416,0.7245,2.7608,3.032477,1.167384,1.3687076999999999,-1
759,760,1583586263146,-6.6856,0.9583,2.7401,3.2527242000000003,0.88513637,0.8100542,-1
760,761,1583586263157,-6.4628997,0.583,2.1539,4.288762,0.43933599999999995,-0.12343546,-1
761,762,1583586263167,-5.4358997,0.0585,1.2048,5.7047696,0.287218,-0.6940215999999999,-1
762,763,1583586263177,-4.015,-0.153,0.5984,6.4409103,-0.03044467,-0.32586044,-1
763,764,1583586263187,-3.2789998,-0.5159,0.9403,6.289606,-0.060295574000000005,0.69123477,-1
764,765,1583586263197,-4.0664,-0.3381,2.3437997999999998,5.497518,0.47160986,1.1251023999999998,-1
765,766,1583586263208,-4.776799700000001,0.2163,2.3135998,4.8032956,1.1362306999999998,1.0613401000000002,-1
766,767,1583586263218,-4.776799700000001,0.2163,2.3135998,4.400351000000001,1.628469,0.8572103999999999,-1
767,768,1583586263228,-5.4426,0.8793,1.9596,4.298971,1.7844176999999999,0.7476805000000001,-1
768,769,1583586263238,-4.9688,0.6398,1.9884,4.8967266,1.5124748,0.7521624,-1
769,770,1583586263248,-4.0164,0.24849999,1.6772,5.8938255,1.1354549999999999,0.35063562,-1
770,771,1583586263258,-2.8688998,-0.1175,0.9083,7.062090400000001,0.7558782,-0.49161579999999994,-1
771,772,1583586263269,-1.7415999,-0.4876,0.1686,8.139491,0.3955987,-1.1965168,-1
772,773,1583586263279,-0.96709996,-0.4996,-0.3762,8.805817,0.4906294,-1.6777321,-1
773,774,1583586263290,-0.858,-0.21939999,-0.53639996,8.694975,0.80602235,-1.7076596000000002,-1
774,775,1583586263300,-0.858,-0.21939999,-0.53639996,8.255074,0.9241235000000001,-1.4728458,-1
775,776,1583586263310,-1.8705,0.0543,0.00029999999,7.689553299999999,1.1180252,-1.1290958999999998,-1
776,777,1583586263320,-1.9936999,0.25689998,0.3877,7.749629,1.3191572,-0.8401350000000001,-1
777,778,1583586263330,-1.7648,0.3417,0.4518,7.983552,1.3414712,-0.8754926,-1
778,779,1583586263340,-1.429,0.23249999,0.21319999,8.414747,1.1691749,-1.309159,-1
779,780,1583586263351,-0.9756,0.0149,-0.3033,8.913048,0.9204269,-1.8228398999999997,-1
780,781,1583586263361,-0.4238,-0.2069,-0.6667,9.467880000000001,0.6665840999999999,-2.127995,-1
781,782,1583586263371,0.1574,-0.4874,-0.79499996,10.072186,0.37323686,-2.205395,-1
782,783,1583586263381,0.6890000000000001,-0.6744,-0.79459995,10.505394,0.31384152,-2.2037763999999997,-1
783,784,1583586263391,0.93509996,-0.47779998,-0.7775,10.540167,0.66788656,-2.1993904,-1
784,785,1583586263402,0.76909995,-0.2511,-0.77919996,10.203896499999999,0.8408148999999999,-2.2334263,-1
785,786,1583586263412,0.35799998,-0.061699998,-0.8048,9.867731,1.0240575,-2.169664,-1
786,787,1583586263422,-0.16059999,0.22209999,-0.5564,9.132615,1.3833698,-1.7839005000000001,-1
787,788,1583586263432,-0.728,0.35099998,-0.2856,8.791116,1.3077034,-1.6355941,d
788,789,1583586263443,-0.83449996,0.12629999,-0.096099995,9.111738,1.0577488000000002,-1.3912418,-1
789,790,1583586263452,-0.2547,-0.036599997,0.0613,9.897056,0.90375364,-1.3410977,-1
790,791,1583586263462,0.56949997,-0.1708,0.093899995,10.402968,0.8401540999999999,-1.3617261999999999,-1
791,792,1583586263472,1.2365999,-0.2262,-0.15969999,11.057774,0.85577387,-1.9958448,-1
792,793,1583586263483,1.4128,-0.024899999,-0.8445,10.882605,1.1870643,-2.6100247000000003,-1
793,794,1583586263493,0.97139996,0.271,-1.204,10.144950999999999,1.3938085,-2.398061,-1
794,795,1583586263503,0.14899999,0.3461,-0.6523,9.302087,1.2976860000000001,-1.6076202,-1
795,796,1583586263513,-0.6325,0.1566,0.0795,8.740589,1.1617336,-1.0721713,-1
796,797,1583586263523,-0.9618,0.084699996,0.4359,8.734498,1.3287437,-1.0938531999999999,-1
797,798,1583586263533,-0.8193,0.28309998,0.3222,8.948089999999999,1.485449,-1.0587256,-1
798,799,1583586263544,-0.5977,0.3004,0.5597,9.210053,1.4024659,-0.62593055,-1
799,800,1583586263553,-0.26729998,0.251,1.1080999,9.529814,1.4454083,0.035845987,-1
800,801,1583586263563,-0.0835,0.2304,1.8352,9.478999,1.3486922,0.57165873,-1
801,802,1583586263573,-0.4299,-0.0493,2.3281,8.7445345,1.06881,0.8896375,-1
802,803,1583586263583,-1.1804,-0.1584,2.4401,8.095974,1.1806191000000001,0.94881254,-1
803,804,1583586263593,-2.0018,0.08109999400000001,2.6422,7.305399,1.5330743999999998,1.2870175,-1
804,805,1583586263603,-2.7654998,0.4655,3.1283998,6.3663263,2.0740013,2.0778606,-1
805,806,1583586263614,-3.5593998,0.9877,4.1278,5.484436,2.8137617,4.047436,-1
806,807,1583586263624,-4.5597997,1.7491,6.6657996,4.332634,3.5699942000000005,7.1772423,-1
807,808,1583586263634,-5.776799700000001,2.4119,10.059299000000001,2.9213667,4.076272,10.744516,-1
808,809,1583586263644,-5.776799700000001,2.4119,10.059299000000001,1.391194,4.057462999999999,13.518275,-1
809,810,1583586263654,-8.677199,2.4178,15.7211,0.34489912,3.1548684,15.556106,-1
810,811,1583586263665,-9.317599000000001,1.6114998999999999,17.0411,0.4047925,2.2294424,15.719130499999999,-1
811,812,1583586263675,-9.1675,0.8185,16.8891,0.8172751,1.5095537,14.553491000000001,-1
812,813,1583586263685,-8.7434,0.2961,15.537298999999999,1.3582976,1.0342376,12.861460000000001,-1
813,814,1583586263695,-8.228,0.0224,13.912498999999999,1.7872142,0.6755384,11.610864,-1
814,815,1583586263706,-7.8539,-0.13059999,12.825,1.7845901000000002,0.31885022,10.92774,-1
815,816,1583586263716,-7.9729,-0.37449998,12.350999999999999,1.2485473999999999,-0.5427941999999999,10.7148,-1
816,817,1583586263726,-8.5849,-1.1293,12.1424,0.80006564,-1.8892453999999999,9.430407,-1
817,818,1583586263736,-8.8362,-2.3346999,10.6959,1.8311716,-4.035781399999999,6.041768,-1
818,819,1583586263746,-7.8136997,-3.9192998,7.8395,4.1409535,-6.301635,1.4564312,-1
819,820,1583586263757,-5.4765,-5.8978996,3.3887,7.3749747,-8.018478,-2.9494362,-1
820,821,1583586263767,-2.1965,-7.3009,-0.8718,10.417564,-8.592319999999999,-5.4493275,-1
821,822,1583586263777,0.8937,-7.5502,-3.2870998,11.713306,-8.799429,-6.231456,-1
822,823,1583586263787,2.3648,-7.5161996,-4.1370997,11.662941,-9.529622,-7.504912400000001,-1
823,824,1583586263797,2.2312999,-7.9294,-5.2748,11.336545,-10.41766,-9.691892,-1
824,825,1583586263808,1.9478999,-8.5736,-7.4852,11.950571,-11.26878,-13.657925,-1
825,826,1583586263818,4.3905997,-9.696199,-15.838799,14.1172285,-12.055055,-18.707947,-1
826,827,1583586263828,6.5747,-9.1717,-17.9823,16.191833,-11.68313,-20.351309,-1
827,828,1583586263838,7.825599700000001,-8.9227,-18.911998999999998,17.008457,-11.578216000000001,-21.25129,-1
828,829,1583586263848,7.5017,-8.144299499999999,-18.938,16.411888,-10.850703999999999,-20.896017,-1
829,830,1583586263859,5.9144998,-7.5832996,-17.7931,14.574558999999999,-10.510191,-19.72194,-1
830,831,1583586263869,3.5862,-7.5111,-16.7833,12.274104,-10.521837,-18.708445,-1
831,832,1583586263879,1.9758999,-7.4933996,-16.1607,10.949086999999999,-10.511283,-18.105154000000002,-1
832,833,1583586263889,1.6772,-7.141,-15.9662,10.841836,-10.101836,-17.881535,-1
833,834,1583586263899,1.9367,-6.4919,-15.7156,11.127129,-9.399933,-17.163073999999998,-1
834,835,1583586263910,1.8607,-5.9586,-14.4368,10.724635000000001,-8.912875999999999,-15.577375,-1
835,836,1583586263920,0.9087,-5.4723,-13.1397,9.481699,-8.544705,-14.455060000000001,-1
836,837,1583586263930,-0.60789996,-5.2105,-12.3425,7.8909826,-8.251856,-13.569243,-1
837,838,1583586263940,-2.1775,-4.8729997,-11.4991,6.7493887,-7.957235000000001,-12.798532000000002,-1
838,839,1583586263950,-3.2475998,-4.6759,-10.4435,5.804253599999999,-7.766742,-11.596949,-1
839,840,1583586263960,-3.8058998999999996,-4.5332,-9.185699000000001,5.329321,-7.614892500000001,-10.028555,-1
840,841,1583586263970,-3.8899998999999994,-4.5965,-8.1312,5.514086,-7.7398605,-8.883676,-1
841,842,1583586263981,-3.391,-4.580899700000001,-7.1162,6.053586,-7.6372732999999995,-7.848126,-1
842,843,1583586263991,-3.0837,-4.4702,-6.4455,6.101853,-7.6932693,-7.269639,-1
843,844,1583586264001,-3.3418998999999996,-4.7594,-6.0239,5.8708606,-8.070471000000001,-6.765448599999999,-1
844,845,1583586264011,-3.2526999,-5.1717,-5.6306996,6.2043056,-8.487521000000001,-6.3713155,-1
845,846,1583586264021,-2.6691,-5.3999,-5.3029,6.906237599999999,-8.625227,-5.893088,-1
846,847,1583586264031,-2.1901999,-5.4351,-4.9788,7.2019405,-8.831607,-5.587693,-1
847,848,1583586264042,-1.8863,-5.7321,-4.5250998,7.553715700000001,-9.226697999999999,-4.4662967,-1
848,849,1583586264052,-1.5317999,-6.0664997000000005,-3.123,7.795597,-9.446639,-3.229692,-1
849,850,1583586264062,-1.2839999,-6.1842,-1.4864998999999999,7.9719733999999995,-9.497999,-1.4756519,-1
850,851,1583586264072,-1.3195,-6.1626,0.19,7.7187339999999995,-9.740167999999999,0.15344918,-1
851,852,1583586264082,-1.5301,-6.4385,0.9769,7.674614,-9.949584,0.41161114,-1
852,853,1583586264092,-1.2670000000000001,-6.3501997,0.96159995,8.5235405,-9.5611105,0.35266593,-1
853,854,1583586264102,-0.102199994,-5.7935,0.9485,9.795263,-9.131697,0.9280212999999999,-1
854,855,1583586264113,1.1739,-5.3785,1.7102,10.9005995,-8.931149000000001,2.1020803,-1
855,856,1583586264123,2.0523,-5.2594,3.2261,11.22959,-9.112715,4.6040790000000005,-1
856,857,1583586264133,2.0628,-5.4907,6.2439,10.865701,-9.303714999999999,8.0524,-1
857,858,1583586264143,1.6552,-5.4259996,9.6964,10.66344,-8.845685000000001,11.311645500000001,-1
858,859,1583586264153,1.6848999,-4.6259,12.5793,10.858509,-7.6760406,13.396363000000001,-1
859,860,1583586264163,1.9883,-3.3463,14.094899,11.257843,-6.567591999999999,14.498470999999999,-1
860,861,1583586264173,2.4199998,-2.3687,15.019098999999999,11.754275,-5.8441220000000005,15.460232000000001,-1
861,862,1583586264184,2.9115,-1.8113999,15.7715,12.270092,-5.501387,16.148467999999998,-1
862,863,1583586264194,3.52,-1.4538,16.4898,12.721045,-5.260128,17.016693,-1
863,864,1583586264204,3.8994,-1.1148,17.839699,12.896616,-4.9539003,18.6803,-1
864,865,1583586264214,3.8815,-0.9939,18.6549,12.825576,-4.7092222999999995,18.830875,-1
865,866,1583586264224,3.8481,-0.6701,18.699999,12.986151,-4.0954447,18.518202,-1
866,867,1583586264234,4.0260997000000005,-0.062,18.2721,13.082081,-3.5684426,17.713789000000002,-1
867,868,1583586264245,4.0429997,0.3603,17.3347,12.898513000000001,-3.391693,16.034094,-1
868,869,1583586264255,3.8111,0.4696,15.488999,12.779836999999999,-3.1869218,13.830489000000002,-1
869,870,1583586264265,3.7031,0.68799996,13.2547,12.782126,-2.8693454,11.413159,-1
870,871,1583586264275,3.6899,0.89779997,10.895599,12.667147,-2.7832117000000003,9.537197,-1
871,872,1583586264285,3.5256998999999998,0.90099996,9.248899,12.311962,-2.7616446,8.500575,-1
872,873,1583586264296,3.0637,0.8340000000000001,8.3653,11.804832000000001,-2.7178592999999998,7.847791,-1
873,874,1583586264306,2.5502,0.8067,7.8283997,11.517173,-2.776977,7.2653775,-1
874,875,1583586264316,2.2821,0.60899997,7.2377,11.484497,-3.1452147999999998,5.501473000000001,-1
875,876,1583586264326,2.2512,0.1866,5.7391996,11.734375,-3.5151477,3.5790157,-1
876,877,1583586264337,2.4777,-0.2713,3.8788,12.089789999999999,-3.9450697999999997,1.5423543,-1
877,878,1583586264347,2.8016,-0.7845,1.9131,12.496861,-4.275929,-0.016663643,-1
878,879,1583586264357,3.1806997999999997,-1.1937,0.4301,13.032894,-4.480988,-0.46149674,-1
879,880,1583586264367,4.2971997,-1.6925,0.0471,13.808338000000001,-4.6382585,-0.58896405,-1
880,881,1583586264377,4.2971997,-1.6925,0.0471,14.331634,-4.8644147,-0.8759905000000001,-1
881,882,1583586264388,4.9384,-2.0719,-0.1859,14.541557000000001,-5.513301,-1.180035,-1
882,883,1583586264398,4.6579,-3.5426998,-0.67649996,13.965829000000001,-6.1582503,-1.6285646999999999,-1
883,884,1583586264409,3.9022,-3.9002,-1.1905,13.233604999999999,-6.324178,-2.2618694,-1
884,885,1583586264419,3.1660000000000004,-4.0411,-1.9287,12.582469,-6.259707499999999,-3.150779,-1
885,886,1583586264429,2.9612,-3.8834,-2.8899,12.520477,-5.8865566,-4.142562399999999,-1
886,887,1583586264439,3.1130998,-3.5161,-3.485,12.677595,-5.3624563,-4.681325,-1
887,888,1583586264449,2.8572,-3.3383,-3.2122998,12.084178,-4.995071,-4.1792803,-1
888,889,1583586264460,1.7821,-3.3065998999999997,-2.1728,11.103178,-4.8237705,-3.3261782999999996,-1
889,890,1583586264470,1.7821,-3.3065998999999997,-2.1728,10.502175,-4.758265,-2.8217103,-1
890,891,1583586264480,-1.2375,-3.1441998,0.5287,7.852503,-4.1034894,-0.9781367,-1
891,892,1583586264491,-2.4377,-2.9412,0.5067,6.865575,-3.680999,-1.8936218999999996,-1
892,893,1583586264503,-2.9591,-2.5449,-0.5798,6.6023083,-2.923981,-3.22453,-1
893,894,1583586264513,-3.0175,-2.1118999,-1.8409,6.501886,-2.3266852000000005,-4.41372,-1
894,895,1583586264523,-3.2203,-1.6802,-2.7451,6.1446233,-1.7582346999999998,-4.8013129999999995,-1
895,896,1583586264533,-3.7024998999999994,-1.3383,-2.6206,5.4347515,-1.3875834999999999,-4.2318473,-1
896,897,1583586264543,-4.5313,-1.2472999,-1.796,4.511269599999999,-1.1460469,-3.3107595,-1
897,898,1583586264554,-5.4530997,-1.1503999,-0.6813,3.4515480000000003,-0.8534466999999999,-2.1874863999999996,-1
898,899,1583586264564,-6.2837,-1.11,0.2128,2.5768218,-0.5396913000000001,-1.7669686999999998,-1
899,900,1583586264575,-7.0841,-0.89419997,0.58559996,1.8917831999999999,0.07501513,-1.8131098,-1
900,901,1583586264585,-7.757899799999999,-0.4287,0.5429999999999999,1.1460565,0.62662965,-2.0726893,-1
901,902,1583586264595,-8.4731,-0.033999998,0.29009998,0.58710617,1.1307334999999998,-2.418412,-1
902,903,1583586264605,-8.955999,0.33179998,-0.034399997,0.31659967,1.5237370000000001,-2.8943119999999998,-1
903,904,1583586264615,-9.1481,0.6299,-0.5263,0.42373538,1.9239613000000002,-3.4171674,-1
904,905,1583586264625,-8.9489,0.9453,-0.9988,0.8169590999999999,2.232392,-3.6482080000000003,-1
905,906,1583586264636,-8.5317,1.1746,-1.1171,1.0197097,2.4518638,-3.349469,-1
906,907,1583586264646,-8.4154,1.2628,-0.6441,0.6174645999999999,2.1266258,-2.0078158,-1
907,908,1583586264656,-8.7677,0.89379996,0.6005,0.28121334,1.9980763,-1.1482687,-1
908,909,1583586264666,-9.1602,0.7384,1.6768,-0.16265248,2.1778426,-0.7317734,-1
909,910,1583586264676,-9.5969,0.9033,1.9086,-0.79534423,2.2894123,-1.5962142,-1
910,911,1583586264687,-10.129499000000001,0.9738,1.1142,-0.8718629000000001,2.2788396,-2.3971896,-1
911,912,1583586264697,-10.1497,0.992,0.20879999,-0.39865375,2.388561,-2.6426334,-1
912,913,1583586264707,-9.734799,1.1323,0.077599995,-0.10336247,2.3817806,-2.1853507000000003,-1
913,914,1583586264717,-9.4414,1.1826,0.5193,-0.42009622,2.273256,-1.4450731,-1
914,915,1583586264728,-9.7667,1.1460999,1.2551999,-1.1980585,1.9131874,-0.5985983,-1
915,916,1583586264738,-10.5721,0.86499995,2.093,-1.918924,1.4347973,-0.12311943,-1
916,917,1583586264748,-11.2997,0.48209998,2.5686,-2.2047915000000002,0.85437566,0.4716769,-1
917,918,1583586264758,-11.597899,0.022699999,3.1281,-2.1767795,0.42091024,0.54592586,-1
918,919,1583586264768,-11.5854,-0.27399999999999997,3.187,-2.1192613,0.25893772,0.5509537,-1
919,920,1583586264778,-11.5473995,-0.078999996,3.0974998,-2.2277663,0.25071123,0.5495842,-1
920,921,1583586264789,-11.917299,0.1836,3.1348999,-2.498158,0.28218059999999995,0.66254264,-1
921,922,1583586264799,-12.1627,0.35029998,2.9189999999999996,-2.6866197999999994,0.21348618,0.44539812,-1
922,923,1583586264809,-11.9964,0.39209998,2.5259,-2.425489,-0.14552917,0.15923357,-1
923,924,1583586264819,-11.561,-0.4482,2.4589999,-1.9307225,-1.4515086000000001,0.23041797,-1
924,925,1583586264829,-10.697599,-1.7576,2.8764,-0.9631395,-3.0119247000000002,0.7854897,-1
925,926,1583586264840,-9.3519,-2.6406999,3.7101998,0.33563834,-4.108182,1.5778556000000001,-1
926,927,1583586264850,-8.5491,-3.0202,3.6813,1.0195372999999999,-4.872726999999999,1.4784195,-1
927,928,1583586264860,-8.2052,-3.0476,3.485,1.3189753,-5.142793,1.5208831,-1
928,929,1583586264870,-7.8547997,-2.9083997999999998,3.5472,1.5236987,-5.43117,2.0307236,-1
929,930,1583586264880,-7.8609,-2.8323998,4.1918,1.3438941,-5.797157299999999,3.0809832000000004,-1
930,931,1583586264890,-7.733,-2.9617999,4.8725,1.7352120999999998,-6.6134367,3.7925785000000003,-1
931,932,1583586264900,-6.6106997000000005,-3.7380998,4.6877,2.7763259999999996,-7.6187043,3.5977669000000003,-1
932,933,1583586264911,-4.6756,-4.7804,3.6265,5.066121,-9.461780000000001,2.5313127,-1
933,934,1583586264921,-2.3618999,-5.7704,2.56,7.154708,-10.8068905,1.8392066000000002,-1
934,935,1583586264931,-0.2471,-6.6324997,2.4011,8.844641000000001,-12.009086,2.345427,-1
935,936,1583586264941,0.9934,-7.2486,3.1162,9.253369000000001,-13.021975999999999,3.1674425999999998,-1
936,937,1583586264952,0.81759995,-8.198999,3.6523,8.320569,-14.722445,4.042533000000001,-1
937,938,1583586264962,-0.1052,-10.1584,5.1127,7.313817,-17.211044,6.2882175,-1
938,939,1583586264972,-0.0777,-12.2265,7.1001997,7.6410756,-19.505026,7.6403574999999995,-1
939,940,1583586264982,1.6234,-13.755999999999998,5.9328,10.633473,-21.073322,4.868887,-1
940,941,1583586264992,5.4565,-14.1356,2.3165998,14.546154000000001,-21.217905,1.3115629,-1
941,942,1583586265003,9.773399000000001,-13.7386,-1.1429,18.213938,-20.864635,-0.7001029000000001,-1
942,943,1583586265013,13.3165,-12.918099,-2.4247,20.223907,-19.930329999999998,-0.6319735,-1
943,944,1583586265023,14.606898999999999,-11.681,-1.8335999,19.429445,-19.174875,0.78716564,-1
944,945,1583586265033,13.0557995,-11.0384,-0.0393,16.594058999999998,-19.052387,3.1172602000000005,-1
945,946,1583586265043,10.1769,-10.9418,2.1919,13.862102499999999,-19.19625,4.75611,-1
946,947,1583586265053,8.241199499999999,-10.8884,3.1662,12.73698,-18.812603,4.849225499999999,-1
947,948,1583586265064,7.9947996,-10.074699,2.4812999,13.168482999999998,-17.916998,3.2524943,-1
948,949,1583586265074,9.007299,-9.1258,0.3559,14.153065,-17.112547,1.172747,-1
949,950,1583586265084,10.127,-8.2086,-1.6279999,14.745207999999998,-16.155403,-0.16043067,-1
950,951,1583586265094,10.5615,-7.1552997000000005,-2.5461,14.295271,-15.118301,0.17960344,-1
951,952,1583586265104,10.0914,-6.3171,-1.8045,13.212823,-14.438414999999999,1.9232718999999998,-1
952,953,1583586265115,9.000199,-5.6054,-0.0084,11.791951,-13.816728,3.2664478,-1
953,954,1583586265125,7.5983,-4.9832,1.1401,10.390193,-13.446,3.6754732000000003,-1
954,955,1583586265135,6.3594,-4.5965,1.4322,9.462373,-12.968691999999999,3.4646397000000007,-1
955,956,1583586265145,5.5873,-4.0799,1.0465,9.134723,-12.381977000000001,2.6492127999999995,-1
956,957,1583586265156,5.3919,-3.48,0.13669999,9.050074,-11.748539,1.6976519,-1
957,958,1583586265166,5.3648996,-2.8244,-0.7999,8.937756,-11.194875,1.1140698999999998,-1
958,959,1583586265176,5.2243,-2.2981,-1.3356999,8.552357,-10.748595,0.8524603000000001,-1
959,960,1583586265186,4.7903,-1.8518,-1.5537,7.950914,-10.31108,0.86317676,-1
960,961,1583586265196,4.172,-1.4074,-1.3888999,7.051642,-9.839269,1.4733726,-1
961,962,1583586265206,3.3739,-1.0242,-0.8290000000000001,6.3243794,-9.588030999999999,2.2937505000000002,-1
962,963,1583586265218,1.828,-0.63989997,0.7078,5.4474506,-9.415696,3.007625,-1
963,964,1583586265228,1.2276,-0.5218,0.9493,4.9998307,-9.309077,3.1508173999999998,-1
964,965,1583586265238,0.8757,-0.31849998,0.60499996,4.651829,-9.06553,2.6405554,-1
965,966,1583586265248,0.7035,-0.1953,-0.5448,4.539655000000001,-8.926003999999999,1.437019,-1
966,967,1583586265258,0.7958,-0.051999997,-1.4865999,4.652326599999999,-8.802062,0.7421355,-1
967,968,1583586265268,0.86429995,-0.2399,-1.6958,4.7414193,-9.020385000000001,0.5660946,d
968,969,1583586265279,0.72959995,-0.41619998,-1.0905,4.5994625,-9.16352,1.2980499,-1
969,970,1583586265289,0.353,-0.5434,-0.011000000000000001,4.2260056,-9.3097,2.3585951,-1
970,971,1583586265299,-0.1435,-0.6921,1.0472,3.8647108,-9.403438000000001,3.1619265,-1
971,972,1583586265309,-0.5304,-0.5494,1.5623,3.4527550000000002,-9.158272,3.5875102999999995,-1
972,973,1583586265319,-0.696,-0.3306,1.2146,3.4118524,-8.956163,3.11274,-1
973,974,1583586265330,-0.6890000000000001,-0.2403,0.5773,3.5121884,-8.902628,2.422434,-1
974,975,1583586265340,-0.5018,-0.287,-0.1338,3.725129,-8.952236,1.6619973000000001,-1
975,976,1583586265350,-0.39339998,-0.3718,-0.86899996,3.7861809999999996,-9.064208,1.0490817,-1
976,977,1583586265360,-0.3979,-0.5536,-1.2847998999999999,3.8366604,-9.173585000000001,0.8441572,-1
977,978,1583586265370,-0.17359999,-0.4885,-0.82659996,4.1739554,-9.090114,1.4788792,-1
978,979,1583586265380,0.2619,-0.56869996,0.4734,4.791669000000001,-9.25584,3.003325,-1
979,980,1583586265391,0.75549996,-0.80649996,1.4901999,5.2357073,-9.462114999999999,3.619621,-1
980,981,1583586265401,0.9073,-1.0573,1.5898,5.238887,-9.778265,3.3254504000000003,-1
981,982,1583586265411,0.5391,-1.5193,0.55979997,4.808878400000001,-10.15312,1.8224759,-1
982,983,1583586265421,0.3179,-1.633,-1.0084,5.0397277,-10.049316000000001,0.64704734,-1
983,984,1583586265431,1.2458,-1.3450999,-1.3755,6.3938975,-9.771398,0.836151,-1
984,985,1583586265441,2.9187999,-1.3673999,-0.45279998,8.495384,-10.069332000000001,2.506844,-1
985,986,1583586265452,4.4026,-1.8098999,1.0196999,9.557395,-10.568141,3.7103996,-1
986,987,1583586265462,5.2981,-2.4527,1.9465,10.3661175,-11.319105,4.1706223,-1
987,988,1583586265472,5.9807997,-3.1922,1.8367,10.818008,-11.809619999999999,3.5975082,-1
988,989,1583586265482,6.3251,-3.7854997999999997,0.6805,11.05152,-12.344446000000001,2.3471797000000003,-1
989,990,1583586265492,6.2931,-4.3792,-0.7345,11.046023,-12.8534155,1.0647686,-1
990,991,1583586265503,6.1268997,-4.7939997000000005,-1.459,10.926715,-13.141179999999999,1.0113683,-1
991,992,1583586265513,5.9182997,-5.0948997,-1.0036,10.939606,-13.420573000000001,1.6093441000000002,-1
992,993,1583586265523,5.9519,-5.4563,-0.3491,11.482111999999999,-13.715912,2.0630932,-1
993,994,1583586265533,6.634999799999999,-5.8191,-0.0614,12.917034,-14.142646,1.6129354,-1
994,995,1583586265543,7.763499700000001,-6.2921996,-0.58599997,14.098918,-14.734827,0.5219838,-1
995,996,1583586265554,8.724999,-6.994,-1.5598999,14.886121,-15.125886999999999,-0.28747659999999997,-1
996,997,1583586265563,9.5209,-7.4195,-2.3416,15.571551999999999,-15.313516,-0.84615874,-1
997,998,1583586265573,10.0525,-7.7601,-2.5902,16.214655,-15.500214999999999,-0.7358914000000001,-1
998,999,1583586265583,10.1753,-7.9339,-1.6373,16.244112,-15.432573999999999,0.75809044,-1
999,1000,1583586265593,9.7599,-7.9655,0.095699996,15.333673999999998,-15.084831,1.8916396,-1
1000,1001,1583586265604,8.4929,-7.7816,0.8549,13.997326999999999,-14.789214000000001,1.7982273999999998,-1
1001,1002,1583586265613,6.4568996,-7.6379,0.7184,12.537438,-14.523006,1.2172025,-1
1002,1003,1583586265623,4.5023,-7.3938,-0.0786,10.884127000000001,-13.679960999999999,0.0054683564,-1
1003,1004,1583586265633,3.2965,-6.7967997,-0.5701,10.385864999999999,-12.796826,-0.21315100000000003,-1
1004,1005,1583586265643,2.7103999,-6.1956997000000005,-0.13949999,10.036216,-12.036199,0.35985809999999996,-1
1005,1006,1583586265654,2.0411,-5.8275,0.81759995,9.450183,-11.416703,1.0920433,-1
1006,1007,1583586265664,1.1819,-5.4874997,1.9736999,8.459375,-10.596134,2.3086042,-1
1007,1008,1583586265674,0.0251,-5.1245,3.2951,7.245955499999999,-9.985401,3.1059308,-1
1008,1009,1583586265684,-1.43,-4.888999999999999,4.245899700000001,5.880686,-9.6688595,3.5498924,-1
1009,1010,1583586265694,-2.9097998,-4.9469,4.857,4.9150662,-9.166086,3.8513703,-1
1010,1011,1583586265704,-3.9538998999999997,-4.6408997,5.2118,4.19829,-8.03022,3.7964665999999996,-1
1011,1012,1583586265715,-4.7521,-3.7245,5.0885997000000005,3.6142101,-6.6850996,3.2680757000000002,-1
1012,1013,1583586265725,-5.4512997,-2.6583,4.4758997,3.10527,-5.319446599999999,2.2543132000000004,-1
1013,1014,1583586265735,-6.1082,-1.63,3.3037998999999996,2.593045,-4.386072,0.5380059,-1
1014,1015,1583586265745,-6.6517,-1.0725,1.495,2.5691794999999997,-3.7728307,-1.0379726999999999,-1
1015,1016,1583586265755,-6.6288,-0.7254,0.141,3.1143584,-3.0396786,-1.5223004999999998,-1
1016,1017,1583586265766,-6.1087,-0.2411,-0.0032,3.5283065000000002,-2.3595815,-0.87958187,-1
1017,1018,1583586265776,-5.8394,0.1197,0.8918,3.5328362,-1.9269205000000003,0.34749445,-1
1018,1019,1583586265786,-5.9221997,0.24669999,2.3109,3.3519878,-1.4446516999999999,1.5950459,-1
1019,1020,1583586265796,-6.1830997000000005,0.45999998,3.6604997999999997,3.0257442,-1.0189052,2.698093,-1
1020,1021,1583586265807,-6.5662,0.5621,4.7743,2.3350554,-0.7446733,3.139507,-1
1021,1022,1583586265817,-7.2022996,0.49949998,5.1005,1.5930923000000001,-0.50300264,3.144669,-1
1022,1023,1583586265827,-7.9628997,0.4933,5.1301,1.0441688,-0.07972691,2.7365918,-1
1023,1024,1583586265838,-8.847999999999999,0.9414,3.9575998999999995,0.70699817,0.46751099999999995,1.7636648000000001,-1
1024,1025,1583586265848,-8.8834,1.0107,2.8808,0.7618254,0.6648794,0.6365608,-1
1025,1026,1583586265858,-8.2556,1.0404,1.8146,1.5537986000000001,0.8927308,-0.40916908,-1
1026,1027,1583586265868,-7.0059,1.0496,1.2263,2.9144232000000003,0.90361965,-0.86503464,-1
1027,1028,1583586265878,-7.0059,1.0496,1.2263,4.3645434000000005,0.63167655,-0.5099170999999999,-1
1028,1029,1583586265888,-4.7208,0.424,2.1257,4.861455,0.5502354,0.2005958,-1
1029,1030,1583586265898,-5.1018,0.4118,2.909,4.3422103,0.63118815,0.9303964,-1
1030,1031,1583586265909,-5.8188,0.2359,3.5072,3.6263921000000003,0.5140351,1.5301822,-1
1031,1032,1583586265919,-6.4679,0.0361,3.8609998,2.9078825,0.5099267,1.7845805000000001,-1
1032,1033,1583586265929,-6.8511996,-0.011000000000000001,3.5203,2.7108779999999997,0.543886,1.3416053,-1
1033,1034,1583586265939,-6.7226,-0.105,2.6025999,2.9884232999999996,0.51376694,0.36889859999999997,-1
1034,1035,1583586265949,-5.7689,-0.0383,1.4999,4.08853,0.6863793,-0.7729537,-1
1035,1036,1583586265960,-4.4238,0.2434,0.16319999,5.4024873,1.0061585,-2.1416516,-1
1036,1037,1583586265970,-3.4224,0.4721,-0.84059995,6.414373,1.2402252,-2.9556322,-1
1037,1038,1583586265980,-2.9489,0.4881,-0.6534,6.616309599999999,1.2360688,-2.3567755,-1
1038,1039,1583586265990,-3.1202998,0.35700000000000004,0.2175,6.3216887,1.0770556,-1.4201447,-1
1039,1040,1583586266000,-3.4182,0.1127,1.1685,6.0708337,0.9155619,-0.5910231,-1
1040,1041,1583586266011,-3.5897,0.0197,1.7715,5.9705167,0.9193064000000001,-0.17606960000000002,-1
1041,1042,1583586266021,-3.5191,-0.0324,2.1,6.1495934000000005,0.8690665000000001,0.13838486,-1
1042,1043,1583586266031,-3.1283,-0.118599996,2.1141,6.6312203,0.81502455,-0.017477673,-1
1043,1044,1583586266041,-2.5534,-0.101799995,1.6638,7.3296285,0.8955655,-0.6700316999999999,-1
1044,1045,1583586266051,-1.7634,0.0629,0.74469995,8.286284,1.0459023,-1.789273,-1
1045,1046,1583586266062,-1.002,0.12539999,-0.060099997,8.940380000000001,0.9549704999999999,-2.2679315,-1
1046,1047,1583586266072,-0.43539998,-0.0284,-0.3988,9.311127,0.8114906999999999,-2.4466827,-1
1047,1048,1583586266083,-0.1529,-0.20539999,-0.5997,9.515869,0.59045804,-2.7906527999999997,-1
1048,1049,1583586266093,-0.018299998999999997,-0.36789998,-0.9935,9.661791000000001,0.52465576,-3.1985576,-1
1049,1050,1583586266103,0.1625,-0.3306,-1.3838999,9.83722,0.78299016,-3.2555682999999997,-1
1050,1051,1583586266113,0.2385,-0.0611,-1.2416999,9.691173,1.1009592,-2.6462247000000003,-1
1051,1052,1583586266124,0.030499997999999997,0.24589999,-0.6225,9.407413,1.322557,-2.1738777000000002,-1
1052,1053,1583586266134,-0.34109998,0.3908,-0.0301,8.944566,1.2671934,-1.4349216999999999,-1
1053,1054,1583586266144,-0.71059996,0.27269998,0.5642,8.868466999999999,1.017823,-1.1519175,-1
1054,1055,1583586266154,-0.6576,-0.022799998999999998,0.7158,9.3054285,0.7291876,-1.7381330000000002,-1
1055,1056,1583586266164,-0.14469999,-0.258,-0.0045,10.049806,0.726487,-2.702029,-1
1056,1057,1583586266175,0.6314,-0.2206,-0.93479997,10.71526,0.77129686,-3.5040962999999996,-1
1057,1058,1583586266185,1.1902,-0.16409999,-1.7164999,10.801556,0.86524534,-4.146298000000001,-1
1058,1059,1583586266195,1.1888,-0.0678,-2.2733998,10.485378,1.0095296,-4.170699,-1
1059,1060,1583586266205,0.7852,0.0655,-2.1998,9.953491,1.0270742,-3.7194017999999995,-1
1060,1061,1583586266215,0.3041,-0.0071,-1.6459999,9.777087,0.8861802,-2.8848214,d
1061,1062,1583586266226,0.1964,-0.1511,-0.83519995,9.791921,0.8480071,-2.1835023999999996,-1
1062,1063,1583586266236,0.2074,-0.22389999,-0.2048,9.678771000000001,0.7121218,-1.7897041,-1
1063,1064,1583586266246,0.0526,-0.3904,0.1581,9.549341,0.47494256,-1.6616334,-1
1064,1065,1583586266256,-0.0232,-0.6096,0.2321,9.925528,0.3741467,-2.1208606,-1
1065,1066,1583586266266,0.35029998,-0.7040000000000001,-0.22729999,10.405698,0.5803353,-2.5863793,-1
1066,1067,1583586266276,0.91819996,-0.4043,-0.7937,10.724061,1.139822,-2.9971957000000002,-1
1067,1068,1583586266287,1.1222,0.1244,-1.1822,10.34118,1.4391738,-3.050462,-1
1068,1069,1583586266297,0.7576,0.317,-1.2049999,9.622584,1.3561333,-2.492795,-1
1069,1070,1583586266307,0.0415,0.1856,-0.6741,9.052439,1.3303334,-1.6517501,-1
1070,1071,1583586266317,-0.7294,0.16839999,0.8735,8.836519000000001,1.4539125,-0.78406274,-1
1071,1072,1583586266328,-0.84499997,0.4351,1.2997999,8.698546,1.8009758999999999,-0.43161708,-1
1072,1073,1583586266337,-0.84499997,0.4351,1.2997999,8.5560055,2.0701416,-0.16955736,-1
1073,1074,1583586266347,-1.01,0.75769997,1.5907999,8.442224000000001,2.3257754,0.36117009999999994,-1
1074,1075,1583586266357,-1.1262,0.98999995,2.0916,8.311739,2.3972854999999997,0.46620852,-1
1075,1076,1583586266367,-1.2631999,1.0548999,2.1811,8.548689,2.1666088,0.86326295,-1
1076,1077,1583586266377,-1.0191,0.8134,2.5725,9.010902999999999,2.0668569,1.4296353000000002,-1
1077,1078,1583586266387,-0.8099,1.0333999,3.9060998,8.561463999999999,2.4804792,2.4003885,-1
1078,1079,1583586266398,-2.2066998,1.4589,4.8213,7.005147,2.9622595,3.4900184000000003,-1
1079,1080,1583586266408,-4.2995,2.0388,6.6762,4.8103824,3.608857,5.647165,-1
1080,1081,1583586266418,-4.2995,2.0388,6.6762,2.7738934,4.1049833,8.171334,-1
1081,1082,1583586266428,-9.427899,3.2134,13.011,-0.32224038,4.784888700000001,12.265227000000001,-1
1082,1083,1583586266438,-9.427899,3.2134,13.011,-2.5323662999999996,5.001468,15.036898999999998,-1
1083,1084,1583586266448,-13.300799,3.3093,17.2558,-3.8535057999999998,4.589388,15.936554000000001,-1
1084,1085,1583586266458,-13.4537,2.55,17.0525,-3.7180230000000005,3.6305196000000004,15.508097,-1
1085,1086,1583586266469,-12.556999000000001,1.5,16.183699,-2.5215924,2.1062942000000002,14.311389000000002,-1
1086,1087,1583586266479,-11.2335,-0.0695,14.547198999999999,-1.2440559,0.22917299,12.326806,-1
1087,1088,1583586266489,-10.235499,-1.5317,12.1066,-0.42375454,-1.2155842,9.930152,-1
1088,1089,1583586266499,-9.472000000000001,-2.2147,9.640699,0.3233034,-1.9889878,7.3934193,-1
1089,1090,1583586266509,-8.6593,-2.383,7.7461,1.133214,-2.4893472,5.5859312999999995,-1
1090,1091,1583586266519,-7.9140997,-3.1583997999999998,6.6601,2.0176513,-4.048212,3.9092333,-1
1091,1092,1583586266529,-6.8689,-4.7037,4.3995,3.3682206,-6.1571684,0.9863056999999998,-1
1092,1093,1583586266540,-4.673899700000001,-6.7532997,1.6373,5.427004,-8.015624,-1.2626349,-1
1093,1094,1583586266550,-1.3097,-8.212999,-0.68,9.266575999999999,-9.796642,-4.223937,-1
1094,1095,1583586266560,1.1245999,-8.6140995,-2.8421,10.711247,-10.204442,-6.667928,-1
1095,1096,1583586266570,1.3363,-8.5104,-5.4309998,10.163098,-10.360381,-9.684057000000001,-1
1096,1097,1583586266580,0.59999996,-8.6247,-9.1171,9.767002,-10.919571000000001,-14.077628,-1
1097,1098,1583586266591,1.3278999,-9.0473995,-14.0341,10.72905,-11.45706,-17.902903,-1
1098,1099,1583586266601,3.7752,-9.2113,-16.8234,14.040258999999999,-11.897565,-20.08556,-1
1099,1100,1583586266611,6.7878,-9.356,-17.0695,16.411898,-12.363639,-20.310875,-1
1100,1101,1583586266621,8.0625,-9.811399,-17.7876,16.888689000000003,-13.0577755,-21.536007,-1
1101,1102,1583586266631,7.8262,-10.2708,-19.5567,16.302837,-13.630161,-23.604329999999997,-1
1102,1103,1583586266641,7.2421,-10.545,-21.843199,15.870598000000001,-13.825624,-25.440355,-1
1103,1104,1583586266651,7.1882,-10.316899000000001,-23.0788,15.991381,-13.297291,-25.915154,-1
1104,1105,1583586266661,7.2893996,-9.637899,-22.2342,15.712725,-12.710614999999999,-24.79146,-1
1105,1106,1583586266672,6.3273997,-8.775,-20.7044,14.3046465,-11.794288,-23.340267,-1
1106,1107,1583586266682,4.3833,-7.8886,-19.5879,12.250814,-10.845331,-22.285555,-1
1107,1108,1583586266692,2.3058999,-6.9888997,-18.6174,10.292109,-9.958509,-21.26867,-1
1108,1109,1583586266702,0.48319998,-6.2634,-17.887,8.559491,-8.979846,-19.999589999999998,-1
1109,1110,1583586266712,-0.7267,-5.5513997,-16.3302,7.440078,-8.284963000000001,-17.601902,-1
1110,1111,1583586266723,-2.0883,-5.0206,-13.5834,5.767,-7.6665406,-14.221893,-1
1111,1112,1583586266733,-4.062599700000001,-4.5537,-10.1397,3.6972601000000003,-7.221467999999999,-10.832192,-1
1112,1113,1583586266743,-6.2153997,-4.2899,-7.1983,1.7386979999999999,-6.717297,-8.15443,-1
1113,1114,1583586266753,-8.0925,-3.8248,-4.6556997,0.11323616,-6.1154137,-5.517792,-1
1114,1115,1583586266764,-9.66,-3.4131,-2.4773998,-1.2217708,-5.699943,-3.8271697000000002,-1
1115,1116,1583586266774,-10.875999,-3.0749,-1.1916,-1.930464,-5.2026677,-2.4412045,-1
1116,1117,1583586266784,-11.277999999999999,-2.5809999,0.0995,-1.9641743000000003,-4.641534,-0.72845984,-1
1117,1118,1583586266794,-11.3063,-2.2356,1.3141999,-2.047914,-4.518021599999999,0.6919434,-1
1118,1119,1583586266804,-11.4423,-2.1134,2.6469,-2.1364612999999997,-4.230449,2.3292615000000003,-1
1119,1120,1583586266814,-11.529699,-1.6896,4.9174,-2.187496,-3.5758263999999995,6.221544000000001,-1
1120,1121,1583586266825,-11.618199,-1.0404999,8.3587,-2.3358693,-3.08219,10.030603,-1
1121,1122,1583586266835,-11.7767,-0.5722,11.9114,-2.4803547999999997,-2.826939,12.345654,-1
1122,1123,1583586266845,-11.8965,-0.22739999,13.773999,-2.6335835,-2.6631183999999997,13.166595999999998,-1
1123,1124,1583586266855,-12.0345,0.019,14.1433,-2.4882364,-2.7228682,13.268885999999998,-1
1124,1125,1583586266865,-11.706599,0.1191,14.124,-1.4424778,-2.8095095000000003,13.821315,-1
1125,1126,1583586266876,-10.4085,0.17979999,14.644198999999999,0.41887996,-3.1961253,14.812524,-1
1126,1127,1583586266886,-8.4037,0.0273,15.507898999999998,2.6283738999999997,-3.6181366,16.050135,-1
1127,1128,1583586266896,-6.0766,-0.2026,16.7139,4.7306843,-4.822104,18.374743,-1
1128,1129,1583586266906,-4.3142,-1.0030999,18.6447,5.434349500000001,-6.100080999999999,20.84074,-1
1129,1130,1583586266916,-3.4938,-2.0121,21.0142,5.4418097,-7.217579400000001,22.407879,-1
1130,1131,1583586266927,-3.3611,-2.8681,22.449099,5.7415442,-7.876081,21.975103,-1
1131,1132,1583586266937,-2.9322,-3.2631997999999998,21.8589,6.7226887,-7.8262529999999995,20.434301,-1
1132,1133,1583586266948,0.8276,-2.3674998,18.0999,9.608812,-7.518521000000001,18.45016,-1
1133,1134,1583586266958,2.9471,-2.4198,17.8781,11.470763,-7.9901979999999995,18.650055,-1
1134,1135,1583586266968,4.7668,-3.2222,18.8667,13.071518,-9.158885,20.026222,-1
1135,1136,1583586266979,6.4971,-4.4179997,19.9656,14.63994,-10.536892,20.927374,-1
1136,1137,1583586266989,8.3213,-5.3947,19.045,16.228061999999998,-11.714724,19.69683,-1
1137,1138,1583586266999,9.6072,-6.375499700000001,15.6368,17.3716,-12.924714999999999,15.253632000000001,-1
1138,1139,1583586267010,10.5554,-6.9045997,11.3241,18.002348,-13.387417999999998,12.143037,-1
1139,1140,1583586267020,11.3861,-7.3148,7.7991996,18.736572,-13.881848999999999,9.019992,-1
1140,1141,1583586267030,12.6033,-7.7574,5.0548997,20.263977,-14.45801,6.1972765999999995,-1
1141,1142,1583586267040,14.2176,-8.0992,2.9371,21.810862,-14.779618,4.603513700000001,-1
1142,1143,1583586267050,15.6528,-8.5138,2.1574,22.995197,-15.289113,4.4384765999999996,-1
1143,1144,1583586267060,16.1847,-9.13,2.1381,22.947178,-15.954576999999999,4.216831,-1
1144,1145,1583586267071,15.2399,-9.8562,1.4011999,21.975163000000002,-16.420872,3.4227602,-1
1145,1146,1583586267081,13.6522,-10.202499000000001,-0.3071,20.094812,-16.649853,0.97008264,-1
1146,1147,1583586267091,12.1567,-10.3869,-3.0974,19.029161,-16.643407999999997,-2.0106602,-1
1147,1148,1583586267101,11.729199000000001,-10.3046,-6.0603,19.289585,-16.213219,-4.5839095,-1
1148,1149,1583586267111,12.6058,-9.656799000000001,-7.7082,20.398914,-15.383282999999999,-5.6230125,-1
1149,1150,1583586267122,13.259298999999999,-9.0461,-7.8883,20.679497,-14.584538,-5.4154925,-1
1150,1151,1583586267132,12.8522,-8.4601,-7.3416996,19.906935,-13.652695999999999,-4.7176023,-1
1151,1152,1583586267142,11.5805,-7.5365996,-6.337000000000001,18.292946,-12.395002999999999,-3.6866489999999996,-1
1152,1153,1583586267152,9.5383,-6.4863,-5.0379,16.1817,-11.279189,-2.4200877999999997,-1
1153,1154,1583586267162,7.0755,-5.7103,-3.6402,13.757964000000001,-10.4583235,-1.5808913999999998,-1
1154,1155,1583586267172,4.3968997000000005,-5.2131,-3.0263,11.281393,-9.710662,-1.7107433,-1
1155,1156,1583586267182,1.8831999,-4.6815,-3.1044998,9.280375999999999,-8.844736,-1.9410751,-1
1156,1157,1583586267192,0.030499997999999997,-4.0355,-3.0655,8.183017999999999,-7.8432326,-1.8445313,-1
1157,1158,1583586267202,-0.88439995,-3.2856998,-2.6799,7.750126400000001,-7.1045156,-1.6666613000000001,-1
1158,1159,1583586267212,-1.5969,-2.7635999,-2.2014,6.906888499999999,-6.384646400000001,-1.26139,-1
1159,1160,1583586267222,-2.4912999,-2.5915,-1.7106999,6.0267800000000005,-6.0738597,-1.2663604,-1
1160,1161,1583586267232,-3.5103998,-2.4888,-1.6474999,5.3013277,-5.6385555,-1.50715,-1
1161,1162,1583586267242,-4.1828,-2.2986999,-1.6423,4.7064642999999995,-5.2183733,-1.9521457999999998,-1
1162,1163,1583586267252,-4.9884,-2.0990999,-2.0277998,3.8627093,-4.7252730000000005,-2.760256,-1
1163,1164,1583586267263,-5.9763,-1.8683,-2.8302999,2.8418407,-4.355378599999999,-4.3653483,-1
1164,1165,1583586267273,-7.0685997,-1.8274,-4.4340997,1.8284901000000002,-4.046498000000001,-6.092669,-1
1165,1166,1583586267283,-8.069799,-1.7451999,-5.6947,1.0847266000000002,-3.8130629999999996,-6.9866633,-1
1166,1167,1583586267293,-8.686399,-1.7953,-6.0435,0.7244184,-3.7720745000000004,-7.155541,-1
1167,1168,1583586267303,-8.8103,-1.992,-5.8059998,1.0088879000000002,-3.7911513,-6.5724089999999995,-1
1168,1169,1583586267313,-8.354899000000001,-2.2068,-4.7985997000000005,1.4211789,-4.001937,-5.8519654,-1
1169,1170,1583586267324,-8.1476,-2.7935,-4.200999700000001,1.3178165000000002,-4.7511015,-6.2011547,-1
1170,1171,1583586267333,-8.2994995,-3.7245,-5.0297,1.4123875,-5.4033489999999995,-7.8345080000000005,-1
1171,1172,1583586267343,-7.9982996,-4.3781,-6.8935,1.9330115,-5.8331947,-10.421616,-1
1172,1173,1583586267353,-7.2667,-4.8947997,-9.6205,2.877208,-6.1926794,-13.147912,-1
1173,1174,1583586267363,-6.2513,-5.3146,-12.097999999999999,4.1150199999999995,-6.6350703,-15.373294,-1
1174,1175,1583586267373,-5.2854,-5.7711,-13.4432,4.585825,-6.854839,-15.435667,-1
1175,1176,1583586267384,-4.8877997,-6.111000000000001,-12.823299,4.547116,-6.962185400000001,-13.714888,-1
1176,1177,1583586267394,-5.1945,-6.3553,-10.3237,3.7291605000000003,-7.1940017,-9.801239,-1
1177,1178,1583586267404,-5.9923997,-6.7079997,-6.856,2.6806824000000002,-7.2694187,-7.336581,-1
1178,1179,1583586267414,-7.0645,-6.8728,-4.7437997,2.0363548,-7.121964999999999,-6.644082000000001,-1
1179,1180,1583586267424,-7.4996996,-6.7523,-4.4711,2.6638656000000003,-6.581976400000001,-7.7445145,-1
1180,1181,1583586267435,-6.6394997,-6.2225,-5.874399700000001,3.7713847,-6.0769434,-9.157428999999999,-1
1181,1182,1583586267445,-5.2342,-5.6647,-7.9623,5.698018,-5.606779599999999,-11.748712,-1
1182,1183,1583586267455,-3.6123,-5.450599700000001,-10.1721,7.131234599999999,-5.556415599999999,-12.564733,-1
1183,1184,1583586267465,-2.271,-5.4027,-10.5464,7.881827400000001,-5.285889599999999,-10.607894,-1
1184,1185,1583586267476,-1.8182,-5.2128997,-8.2097,7.181724000000001,-5.105482,-6.5868896999999995,-1
1185,1186,1583586267486,-2.8051999,-5.1317,-3.9880998,5.228477,-4.8333473,-1.7603415,-1
1186,1187,1583586267496,-4.9101,-4.8733,0.6509,2.8657637,-3.865525,2.437307,-1
1187,1188,1583586267506,-6.8514,-4.1362,3.8102,2.2404077,-2.790873,4.235946,-1
1188,1189,1583586267516,-7.5021996,-3.1402,5.4114,2.6152055,-2.042005,4.9385676,-1
1189,1190,1583586267527,-6.9965997,-2.3030999,6.0769,3.9136386,-1.8725435000000001,6.401587999999999,-1
1190,1191,1583586267537,-5.870199700000001,-2.2257,7.1159,5.7962956,-1.9648447,8.097727,-1
1191,1192,1583586267547,-4.0028,-2.2707999,8.595099000000001,7.679105,-2.087016,10.174686,-1
1192,1193,1583586267557,-2.1297998,-2.3062,10.4854,8.983869,-2.5563562,12.840573,-1
1193,1194,1583586267568,-0.8211,-2.7003999,12.986799000000001,9.259699000000001,-3.3212937999999994,15.391805999999999,-1
1194,1195,1583586267578,-0.5586,-3.3832998,15.3924,8.875803999999999,-3.6265163,16.941813,-1
1195,1196,1583586267588,-1.5279,-3.5812,16.1471,8.220051,-3.5498924,15.961644,-1
1196,1197,1583586267598,-1.6331999,-3.2540998,13.8484,8.313166,-3.197916,13.294341000000001,-1
1197,1198,1583586267608,-0.7668,-2.7560000000000002,11.064199,9.514787,-2.6875682,10.891798,-1
1198,1199,1583586267618,0.8738,-2.0798,9.7224,11.077109,-2.0795557000000002,10.037864,-1
1199,1200,1583586267628,0.8738,-2.0798,9.7224,11.50572,-1.8078330000000002,10.015798,-1
1200,1201,1583586267638,1.2772,-1.2172999,9.754499000000001,10.907859,-1.3660549,10.224122,-1
1201,1202,1583586267648,1.2772,-1.2172999,9.754499000000001,10.169927000000001,-1.1405976999999998,10.145009,-1
1202,1203,1583586267658,-0.2347,-0.58709997,9.0022,9.541066,-0.7042784000000001,9.183459,-1
1203,1204,1583586267668,-0.13679999,-0.1435,7.6752,9.732382000000001,-0.28630823,7.759569,-1
1204,1205,1583586267679,0.33399999999999996,0.19659999,6.0951,10.228557,0.019967642,6.192325,-1
1205,1206,1583586267689,0.78529996,0.43879998,4.7690997,10.623408,0.29934224,4.954571,-1
1206,1207,1583586267699,0.76559997,0.75409997,3.734,10.531576,0.5833999,3.9386343999999998,-1
1207,1208,1583586267709,0.5491,0.9359,2.8288,10.321307000000001,0.7489254,3.0616477000000004,-1
1208,1209,1583586267719,0.44009998,1.0458,2.1485,10.22599,0.89918554,2.1946115,-1
1209,1210,1583586267729,0.38979998,1.1449,1.433,10.1943865,0.9640684000000002,1.6709516,-1
1210,1211,1583586267739,0.34939998,1.1549,1.2380999,10.152372999999999,0.9728503000000001,1.55784,-1
1211,1212,1583586267751,0.368,1.1252999,1.5925,10.212074000000001,0.9108405,2.0706491000000002,-1
1212,1213,1583586267761,0.5043,0.95919997,2.0951,10.324669,0.695688,2.3722038,-1
1213,1214,1583586267771,0.40539998,0.6954,1.9886999,10.080689999999999,0.45955265,1.9718645000000001,-1
1214,1215,1583586267782,0.081199996,0.4721,1.4361,9.781933,0.17939274,1.2858299,-1
1215,1216,1583586267793,-0.0368,0.2137,0.89,9.87026,-0.035616145,0.68091094,d
1216,1217,1583586267803,0.159,0.0976,0.2999,10.085767,-0.11220187,0.121405184,-1
1217,1218,1583586267814,0.3354,-0.0061999997,-0.1673,10.288181,-0.18453549,-0.2007203,-1
1218,1219,1583586267825,0.502,-0.0039999996999999995,-0.3241,10.310227000000001,-0.14596969,-0.29281090000000004,-1
1219,1220,1583586267835,0.4725,0.043899997999999996,-0.36479998,10.216891,-0.19045396,-0.08302134,-1
1220,1221,1583586267846,0.3743,-0.0488,-0.0994,10.132415,-0.31005868,0.22432712,-1
1221,1222,1583586267856,0.325,-0.1538,0.1408,10.144147,-0.33288979999999996,0.44148123,-1
1222,1223,1583586267866,0.3346,-0.1815,0.3725,9.978314,-0.39833772,0.53490293,-1
1223,1224,1583586267877,0.15789999,-0.2597,0.47419998,9.662127,-0.51526093,0.53564996,-1
1224,1225,1583586267887,-0.156,-0.3784,0.4834,9.509031,-0.5430337,0.46772167,-1
1225,1226,1583586267897,-0.3033,-0.4177,0.4594,9.671607,-0.5369619999999999,0.13448709,-1
1226,1227,1583586267907,0.2359,-0.4165,-0.1981,10.1565485,-0.53201073,-0.2191748,-1
1227,1228,1583586267917,0.7557,-0.44529998,-0.1964,10.642207,-0.5795213,-0.135598,-1
1228,1229,1583586267928,1.04,-0.4552,0.1114,10.882030499999999,-0.561268,0.21571757,-1
1229,1230,1583586267938,1.0497999,-0.3814,0.3906,10.836244,-0.48484499999999997,0.4424005999999999,-1
1230,1231,1583586267948,0.8634,-0.2932,0.4156,10.647992,-0.36614048,0.421504,-1
1231,1232,1583586267958,0.76519996,-0.13939999,0.3802,10.58649,-0.20523097,0.42190623,-1
1232,1233,1583586267968,0.8631,-0.0346,0.39049998,10.723064,-0.0829543,0.39068583,-1
1233,1234,1583586267978,1.2063,0.0618,0.1239,11.094289999999999,0.03938941,0.035347994,-1
1234,1235,1583586267989,1.5789,0.090399995,-0.39929998,11.51794,0.04792234,-0.53854215,-1
1235,1236,1583586267999,1.9318999,0.057699997,-0.7768,11.822061,0.04124731,-0.79970163,-1
1236,1237,1583586268009,2.0888,0.0398,-0.7891,11.909391000000001,0.018416198,-0.7235852,-1
1237,1238,1583586268019,2.0398,-0.043399997,-0.5816,11.833419000000001,-0.06825389999999999,-0.41252097,-1
1238,1239,1583586268029,2.03,-0.06359999599999999,-0.099599995,11.834644,-0.012842498,0.017113755,-1
1239,1240,1583586268039,2.0008,0.030199998999999998,0.305,11.797046,0.21877256,0.36763448,-1
1240,1241,1583586268050,1.9619,0.25939998,0.299,11.773228999999999,0.51637185,0.25782678,-1
1241,1242,1583586268060,1.9427999,0.49859998,0.1165,11.770566,0.68132275,0.08401733,-1
1242,1243,1583586268070,2.0119998,0.4646,0.0843,11.859209,0.55278283,0.17724754,-1
1243,1244,1583586268080,2.0119998,0.4646,0.0843,11.908999,0.41051942,0.24981101,-1
1244,1245,1583586268090,2.1009,0.1091,0.2715,12.031792999999999,0.11980586,0.24520455,-1
1245,1246,1583586268101,2.8479997999999997,-0.4298,-0.0973,12.889299000000001,-0.15427278,-0.21967278,-1
1246,1247,1583586268111,3.3783,-0.3391,-0.3012,13.347081,0.10881168,-0.34892140000000005,-1
1247,1248,1583586268121,3.7033,-0.0166,-0.3775,13.555098999999998,0.52925265,-0.31473216,-1
1248,1249,1583586268132,3.6855998,0.13949999,-0.2541,13.234476,0.57671535,-0.05571786,-1
1249,1250,1583586268142,3.1685,0.0695,0.0756,12.617979,0.38308185,0.42639774,-1
1250,1251,1583586268152,2.5639999999999996,-0.275,0.5652,11.921037,0.049655742999999995,0.61382544,-1
1251,1252,1583586268162,1.8036,-0.63629997,0.52709997,11.278615,-0.13588531,0.3435105,-1
1252,1253,1583586268172,1.0734999,-0.88409996,0.0398,10.578503,-0.17762104,-0.3803333,-1
1253,1254,1583586268183,0.6579999999999999,-0.82739997,-0.5427,10.290116000000001,0.15173492,-0.9381344000000001,-1
1254,1255,1583586268193,0.4684,-0.5406,-0.83129996,10.16872,0.6394051,-0.48132074,-1
1255,1256,1583586268204,0.377,-0.23009999,-0.1902,10.020787,0.81250584,0.46306735,-1
1256,1257,1583586268213,0.18769999,-0.1629,0.7272,9.675075,0.7927968000000001,0.8854428,-1
1257,1258,1583586268223,-0.3443,-0.3893,1.0687,8.914102,0.5789084,0.9718544,-1
1258,1259,1583586268233,-0.9644,-0.5554,0.98219997,8.463752000000001,0.60654706,0.42052716,-1
1259,1260,1583586268243,-1.4275999,-0.5511,0.12709999,8.257247,0.7500746,-0.45216894,-1
1260,1261,1583586268253,-1.4693999,-0.4134,-0.6696,8.342058999999999,0.93833554,-1.1412871999999998,-1
1261,1262,1583586268263,-1.2957,-0.3399,-1.2114999,8.607749,1.0313933000000002,-1.408844,-1
1262,1263,1583586268273,-0.98429996,-0.2461,-1.2487999,8.83538,1.1851969,-1.0182444,-1
1263,1264,1583586268283,-0.8779,-0.2438,-0.52709997,8.58554,1.1733216,0.029419951,-1
1264,1265,1583586268293,-1.2112,-0.2974,0.31149998,8.095649,1.2609876,0.4684112,-1
1265,1266,1583586268303,-1.9253,-0.2589,0.7331,7.1079254,1.2583253,0.53178096,-1
1266,1267,1583586268314,-2.7271,-0.3682,0.7194,6.49432,1.355099,0.35966656,-1
1267,1268,1583586268324,-3.2156,-0.2952,0.56119996,6.4289775,1.5536741000000003,0.036037527,-1
1268,1269,1583586268334,-3.1762998,-0.1222,0.239,6.827794,1.7671411,-0.42759484,-1
1269,1270,1583586268344,-2.7077,0.013999999499999999,-0.20729999,7.377991000000001,1.8541942999999999,-0.8225710999999999,-1
1270,1271,1583586268354,-2.1624,0.0528,-0.54969996,7.8302369999999994,1.8168925999999999,-0.9530742,-1
1271,1272,1583586268364,-1.7258999,-0.0411,-0.59999996,8.191005,1.7979592,-0.69552517,-1
1272,1273,1583586268375,-1.4068999,-0.0665,-0.29639998,8.178411500000001,1.7748697,-0.37377319999999997,-1
1273,1274,1583586268385,-1.5188,-0.12419999400000001,0.0177,7.850099,1.7252331000000003,-0.25669673,-1
1274,1275,1583586268395,-1.8554,-0.24409999,0.1077,7.445307000000001,1.5001876,-0.1841141,-1
1275,1276,1583586268405,-2.2114,-0.5112,0.16839999,7.468051400000001,1.342381,-0.22529437,-1
1276,1277,1583586268415,-2.1073,-0.62759995,0.129,7.90393,1.6605034,-0.24866179,-1
1277,1278,1583586268426,-1.7004,-0.3464,0.1309,8.105378,1.8576323000000001,-0.4295964,-1
1278,1279,1583586268436,-1.4613,-0.12019999,-0.1304,8.145026,2.0982687,-0.6816867,-1
1279,1280,1583586268446,-1.4677,0.1171,-0.32479998,7.993817999999999,2.3532705000000003,-0.6265816999999999,-1
1280,1281,1583586268456,-1.6018,0.29749998,-0.2696,7.941730000000001,2.3650692,-0.6709798,-1
1281,1282,1583586268466,-1.6482999,0.2961,-0.31399998,8.11777,2.213516,-0.85716254,-1
1282,1283,1583586268476,-1.4700999,0.1434,-0.4782,8.748336,2.023541,-0.69871426,-1
1283,1284,1583586268487,-0.8419,-0.042799998,-0.30589998,9.585072,1.8317653999999999,-0.53462523,d
1284,1285,1583586268497,-0.0084,-0.23629999,-0.12789999,10.039137,1.9139823,-0.7920115,-1
1285,1286,1583586268507,0.4526,-0.15879999,-0.3935,9.939538,2.1602786,-1.17449,-1
1286,1287,1583586268517,0.3461,0.0774,-0.78959996,9.680169,2.48069,-1.3468533999999999,-1
1287,1288,1583586268527,0.0937,0.38529998,-0.97679996,9.196196,2.8343613,-1.0575668,-1
1288,1289,1583586268537,-0.38299999999999995,0.7181,-0.7136,8.56405,2.8665586,-0.28716055,-1
1289,1290,1583586268548,-1.0055,0.72139996,0.0424,8.142861,2.6145256000000003,0.6479859,-1
1290,1291,1583586268558,-1.206,0.37379998,1.4182,8.481363,2.5369632,1.2100582,-1
1291,1292,1583586268569,-0.6762,0.325,1.8093,8.993378,2.467972,1.5684129,-1
1292,1293,1583586268579,-0.28489998,0.1829,2.3323998,9.326027999999999,2.3293092,2.1263,-1
1293,1294,1583586268589,-0.24689999,0.23629999,2.8077998,9.280788000000001,2.4221947,2.5205387999999997,-1
1294,1295,1583586268599,-0.6890000000000001,0.4328,2.8746,8.720755,2.6206741,2.6454779999999998,-1
1295,1296,1583586268609,-1.5912,0.60429996,3.6109,7.5809045,2.8310285,3.9003747000000004,-1
1296,1297,1583586268620,-2.7080998,0.79999995,5.1194997,6.325979,3.0677097,5.7550097000000004,-1
1297,1298,1583586268630,-4.1285,0.91609997,7.3271,5.121963500000001,3.086509,7.652788,-1
1298,1299,1583586268640,-5.6762,0.9454,9.8547,3.3118992,3.2528102000000003,10.771858,-1
1299,1300,1583586268650,-7.0695,1.2425,12.245399,1.9120381999999998,3.5107519999999997,12.845044999999999,-1
1300,1301,1583586268660,-8.6045,1.3731999,13.736799,0.37791994,3.5045846,13.962563000000001,-1
1301,1302,1583586268670,-10.007299,1.2627,14.297,-0.82440025,3.3367224,14.075282000000001,-1
1302,1303,1583586268680,-10.719399000000001,1.2781999,13.844999,-1.2003186000000001,3.3482625,13.53856,-1
1303,1304,1583586268690,-11.0932,1.4697,13.1107,-1.7034553,3.3796744,12.658643,-1
1304,1305,1583586268700,-11.6851,1.4388,12.4251995,-2.3445842,3.101219,11.855761,-1
1305,1306,1583586268710,-12.502299,1.0734999,11.7646,-3.2165812999999996,2.4795022,11.190853,-1
1306,1307,1583586268720,-13.513,0.4238,11.5223,-4.253040299999999,1.4413382,10.929675,-1
1307,1308,1583586268731,-14.49,-0.7604,11.344999000000001,-5.0823540000000005,-0.028634652000000003,10.365753999999999,-1
1308,1309,1583586268741,-15.0702,-1.9022,10.582,-5.451205,-1.0873123,9.464566,-1
1309,1310,1583586268751,-15.399799,-2.8871,9.501699,-5.7936234,-2.690671,7.692905400000001,-1
1310,1311,1583586268761,-15.448099,-4.1721997,7.585099700000001,-5.550525700000001,-4.2356496,5.323354699999999,-1
1311,1312,1583586268772,-14.7316,-5.1888,5.1033998,-4.440085400000001,-5.7348504,2.03397,-1
1312,1313,1583586268781,-13.7071,-6.0316,2.52,-3.6473937000000007,-6.7866807,-0.052452173,-1
1313,1314,1583586268791,-12.664000000000001,-7.036299700000001,0.48189998,-2.8263168,-7.949928,-1.5729426000000002,-1
1314,1315,1583586268801,-11.6594,-8.2218,-0.8354,-1.829218,-10.078287,-3.4035683,-1
1315,1316,1583586268811,-10.8336,-9.868,-2.7192,-0.5582512,-12.497311999999999,-6.2972007,-1
1316,1317,1583586268822,-9.2,-11.1904,-5.2983,1.5390024,-13.717367999999999,-8.805587,-1
1317,1318,1583586268833,-6.8375998,-11.5928,-7.477999700000001,3.7443303999999995,-14.268216,-10.05763,-1
