,Seq,Time,ACCx,ACCy,ACCz,ADGx,ADGy,ADGz,Keydown
0,1,1583586427261,-3.9713,2.1255,3.1722,4.629965,1.7552849999999998,0.99935895,-1
1,2,1583586427271,-0.1513,-0.0041,0.0072999996999999995,9.7141,0.3848344,-0.6917519,-1
2,3,1583586427281,0.016099999,0.1794,-0.4048,9.786394999999999,0.53086156,-1.1890275,-1
3,4,1583586427292,-0.0378,0.18769999,-0.70519996,9.730485,0.42788213,-1.3723277,-1
4,5,1583586427302,-0.0581,0.0009999999,-0.6956,9.734049,0.22806208,-1.3357635,-1
5,6,1583586427312,-0.049999997000000004,-0.2836,-0.42159998,9.691862,-0.14116213,-0.8846671,-1
6,7,1583586427322,-0.0976,-0.5596,0.29979998,9.711055,-0.3810324,0.05658935,-1
7,8,1583586427332,-0.021599998999999998,-0.7165,1.1633999,9.824549000000001,-0.38089836,0.6480625,-1
8,9,1583586427343,0.139,-0.5081,1.3957,9.97684,-0.19366218,0.6288419,-1
9,10,1583586427353,0.4615,-0.109,0.86609995,10.426805499999999,0.21209754,-0.16414647,-1
10,11,1583586427363,0.64809996,0.118999995,0.0797,10.319249000000001,0.5354297,-1.003611,-1
11,12,1583586427373,0.4337,0.3927,-0.5555,10.027969,0.67093194,-1.1923986999999998,-1
12,13,1583586427383,0.0447,0.3385,-0.4551,9.593375,0.5257188,-0.86624134,-1
13,14,1583586427393,-0.29369998,0.1331,0.0492,9.501495,0.43815807,-0.2928396,-1
14,15,1583586427403,-0.26909998,0.0179,0.50479996,9.623455,0.4979365,-0.016931795,-1
15,16,1583586427414,-0.1293,0.0023999998999999998,0.7356,9.775774,0.38243064,0.2789724,-1
16,17,1583586427424,0.13409999,-0.1871,1.1962999,10.049585,0.2662065,1.3565260000000001,-1
17,18,1583586427434,0.2671,-0.3037,2.1943998,9.933322,0.27374345,2.3836,-1
18,19,1583586427444,0.0157,-0.2958,3.2623,9.552272,0.32779494,3.4384184,-1
19,20,1583586427454,-0.3841,-0.2013,3.9287998999999996,9.238028,0.3638612,4.439664,-1
20,21,1583586427464,-0.7298,-0.2624,4.3926997000000005,8.617488,0.41613140000000004,5.491283999999999,-1
21,22,1583586427475,-1.2902,-0.1971,5.1359997,7.9738407,0.7320894,5.9811273,-1
22,23,1583586427485,-1.9476,0.1472,5.3301,7.384561,1.0749104,5.7815948,-1
23,24,1583586427495,-2.7412999,0.518,4.879699700000001,6.179042,1.6730968999999998,5.581861,-1
24,25,1583586427505,-3.8098,0.9856,4.8111997,5.0174804,2.045309,6.1989617,-1
25,26,1583586427516,-4.9188,1.2789,5.5506997,4.0572047,2.1532397,7.831558,-1
26,27,1583586427527,-5.8637,1.3033999,7.2685,2.7593174,1.9107740000000002,10.274611,-1
27,28,1583586427536,-6.9681997,1.0512,9.313399,1.8416294999999998,1.7755113,11.4239235,-1
28,29,1583586427546,-8.6529,0.8157,11.1051,-0.7635588000000001,1.4498233,12.681148,-1
29,30,1583586427556,-10.9758,0.4804,11.7113,-3.2022734,1.0303208000000001,12.105687,-1
30,31,1583586427567,-13.349,0.0618,10.8644,-5.144632,0.6977661000000001,9.853356,-1
31,32,1583586427577,-15.1564,-0.2128,8.8871,-6.492922,0.40713879999999997,7.224130000000001,-1
32,33,1583586427587,-16.2138,-0.3811,6.2943,-6.7607083,-0.41455123,4.354488,-1
33,34,1583586427597,-16.4924,-1.0734,3.4808,-6.161765,-1.4677031,1.5411093,-1
34,35,1583586427607,-14.900398999999998,-2.8034,-0.87079996,-4.970219,-2.7268043,-0.48844588,-1
35,36,1583586427618,-14.900398999999998,-2.8034,-0.87079996,-4.573251,-3.7201394999999997,-0.9469450999999999,-1
36,37,1583586427628,-14.3553,-3.8128998,-1.3916998999999999,-4.5236526,-4.843326,-0.6783348000000001,-1
37,38,1583586427638,-14.731198999999998,-5.3139997,-0.2412,-5.1410403,-5.984374,-0.077591285,-1
38,39,1583586427648,-15.4242,-6.0346,-0.7906,-5.804176999999999,-6.979528999999999,-1.3835708,-1
39,40,1583586427659,-15.6154995,-6.7433,-3.4975998,-5.7399263,-7.9347963,-4.243109,-1
40,41,1583586427669,-14.370398999999999,-7.5997,-7.6088,-4.20644,-9.162092999999999,-8.423798,-1
41,42,1583586427679,-11.3118,-8.7021,-11.2567,-0.8518474,-10.660499,-11.726704,-1
42,43,1583586427689,-7.0358996,-9.4078,-12.950999000000001,3.3888967000000005,-11.572498,-12.833859,-1
43,44,1583586427699,-3.4677,-9.212999,-12.4302,6.4553519999999995,-11.701392,-12.006424,-1
44,45,1583586427710,-2.1039999,-9.3074,-11.6405,7.211958,-12.666017,-11.293994999999999,-1
45,46,1583586427720,-2.2609,-10.566299,-11.788199,6.983235400000001,-14.219327,-11.463075,-1
46,47,1583586427730,-1.7459999,-12.7569,-13.138,7.692292699999999,-16.842463000000002,-13.038966,-1
47,48,1583586427740,0.62799996,-15.0476,-15.9246,10.271461,-19.408691,-15.621504999999999,-1
48,49,1583586427750,4.5853,-16.5201,-18.201399,14.2147875,-21.010788,-17.509275,-1
49,50,1583586427761,8.8902,-16.8729,-19.9161,18.844782000000002,-21.477079999999997,-18.961187,-1
50,51,1583586427771,12.108999,-16.4498,-21.0649,21.150541,-21.366373,-19.526812,-1
51,52,1583586427781,13.630799,-16.4728,-21.5101,21.801332000000002,-21.977247,-19.358547,-1
52,53,1583586427791,13.6671,-17.347,-21.265,21.311775,-23.32643,-18.457907000000002,-1
53,54,1583586427801,13.5153,-18.5199,-19.7264,21.340134,-24.394981,-16.144457,-1
54,55,1583586427811,14.179298999999999,-18.9622,-16.7902,22.14493,-24.730026000000002,-12.769504,-1
55,56,1583586427822,15.3544,-18.6943,-13.4787,22.970335000000002,-24.242413,-9.8156805,-1
56,57,1583586427833,15.6613,-17.5696,-11.783199,22.523146,-22.85912,-8.644792,-1
57,58,1583586427842,14.9522,-16.39,-11.2733,21.401493,-21.845032,-8.181189,-1
58,59,1583586427852,13.9630995,-15.233398999999999,-10.9802,20.584293,-20.858486,-7.610123599999999,-1
59,60,1583586427863,13.4044,-14.3643,-10.0989,20.14874,-20.21118,-5.723636,-1
60,61,1583586427873,13.059299000000001,-13.764899,-7.5443997000000005,19.587173,-19.895164,-2.3238792,-1
61,62,1583586427883,12.3307,-13.594199,-3.577,18.778069,-20.039192,2.2313576,-1
62,63,1583586427893,11.5692,-13.840198999999998,1.3274,18.32473,-20.212989999999998,6.9320854999999995,-1
63,64,1583586427903,11.2634,-13.7374,5.9024997,18.32093,-19.601454,10.410047,-1
64,65,1583586427914,11.1956,-12.8071995,8.8819,18.016598000000002,-18.333744,12.301476,-1
65,66,1583586427924,10.3695,-11.616899499999999,10.4512,16.971672,-17.141804,13.182360000000001,-1
66,67,1583586427934,9.1677,-10.4718,11.2462,15.788975,-15.2272,13.50598,-1
67,68,1583586427944,8.0292,-8.9177,11.4579,14.542879000000001,-13.530218,13.087798,-1
68,69,1583586427954,6.4823,-7.473,11.170099,12.772818,-12.073978,13.200373999999998,-1
69,70,1583586427965,4.3838,-6.3416,11.705299,10.420772999999999,-10.935746,14.405029999999998,-1
70,71,1583586427975,1.7463,-5.4593997000000005,13.2905,8.156288,-9.683876,15.988709,-1
71,72,1583586427985,-0.6397,-4.4749,15.041699,6.446254,-8.258827,16.858857999999998,-1
72,73,1583586427995,-2.4486,-3.3853,15.882299,5.3171672999999995,-6.8953679999999995,16.572674,-1
73,74,1583586428005,-3.6464,-2.3472,15.4752,4.637818,-5.8910193,15.203229,-1
74,75,1583586428015,-4.4102,-1.7268,14.040299,4.109025,-4.9545226,13.14546,-1
75,76,1583586428026,-5.0766,-1.0708,12.072000000000001,3.42639,-3.9017443999999997,11.088238,-1
76,77,1583586428036,-5.9223,-0.2992,10.0386,2.6186627999999996,-2.922171,8.735063,-1
77,78,1583586428047,-6.8409996,0.35349998,7.7865,1.7933048999999999,-1.7879802,7.094968,-1
78,79,1583586428057,-7.5990996,1.0361,6.6224,1.4289458000000002,-0.59945065,6.877976400000001,-1
79,80,1583586428067,-8.0409,1.9564999,6.490999700000001,0.9935841000000001,0.3349488,6.631804499999999,-1
80,81,1583586428077,-8.55,2.6146998,6.3257,0.3211199,0.5552058000000001,6.358578,-1
81,82,1583586428087,-9.274,2.59,6.1481,-0.2797768,0.40937975,6.0647335,-1
82,83,1583586428098,-9.9091,2.2282999,5.9586,-0.7760374,0.39578070000000004,4.994803,-1
83,84,1583586428108,-10.4528,1.9743998999999999,4.9663,-0.98724425,0.7939843000000001,3.4071407,-1
84,85,1583586428118,-10.6345,2.3000998,2.037,-0.8762011999999999,1.0419757,1.5668805000000001,-1
85,86,1583586428128,-10.6345,2.3000998,2.037,-0.5010680999999999,1.1032194,-0.10528742,-1
86,87,1583586428139,-10.2296,2.2431997999999997,-0.0167,0.32604238,1.2981936,-2.4762560000000002,-1
87,88,1583586428149,-8.8998995,2.5692,-4.185,1.0003933,1.8004589,-4.684044999999999,-1
88,89,1583586428159,-8.2905,3.2101,-5.6370000000000005,1.5687958999999998,2.5032241,-5.7799190000000005,-1
89,90,1583586428169,-8.1602,3.3372998,-4.9722,1.5929008,2.5347414,-4.73689,-1
90,91,1583586428180,-8.3519,2.6173,-3.2071998,1.4259195,1.5778364,-2.7874446,-1
91,92,1583586428189,-8.3262,1.5759,-1.8571,1.5073223999999998,0.80806226,-1.8363718,-1
92,93,1583586428199,-7.9068,0.6688,-1.0023999,2.0463243,0.04591121,-1.1909238000000002,-1
93,94,1583586428209,-7.0744,0.2997,-1.3787999,2.9170472999999997,-0.22518905,-1.8906723,-1
94,95,1583586428219,-6.0848,0.2523,-2.8681,3.8955193,-0.23982240000000002,-3.454565,-1
95,96,1583586428229,-5.1637,0.22749999,-4.3466,4.844169,-0.24099077,-4.84799,-1
96,97,1583586428239,-3.9773,0.3022,-5.4084997,6.357975,-0.22387701,-5.914061,-1
97,98,1583586428250,-2.7412,0.16839999,-6.1355996,7.5191913,-0.41246350000000004,-6.537157,-1
98,99,1583586428260,-1.6322999,-0.0433,-6.2286,8.546208,-0.67335486,-6.028044,-1
99,100,1583586428270,-0.84669995,-0.3972,-4.6422,9.070289,-1.1263762,-3.967336,-1
100,101,1583586428280,-0.7377,-0.8364,-2.4161,9.035966,-1.4203458,-2.332939,-1
101,102,1583586428290,-0.85459995,-0.94579995,-1.0827,8.915125999999999,-1.3842701000000002,-1.2134963,-1
102,103,1583586428301,-0.83449996,-0.6475,-1.0059,9.031935,-1.0765576000000001,-1.6000929,-1
103,104,1583586428311,-0.5399,-0.36609998,-1.8851,9.432426,-0.81032234,-2.5757399,-1
104,105,1583586428321,-0.039,-0.0819,-2.7986999,9.976055,-0.58647406,-3.3473620000000004,-1
105,106,1583586428331,-0.039,-0.0819,-2.7986999,10.455430999999999,-0.49792692,-3.9788949999999996,-1
106,107,1583586428341,0.90569997,0.0747,-4.006,10.888945,-0.74425197,-4.1974860000000005,-1
107,108,1583586428351,1.4771,-0.3281,-3.6643,11.600999,-1.2211673,-3.4070065,-1
108,109,1583586428362,1.9896,-0.56229997,-2.8437997999999998,11.899442,-1.3276423000000002,-2.5325290000000003,-1
109,110,1583586428372,2.0895,-0.6125,-1.8994,11.613132,-1.3324115,-1.6582528000000003,-1
110,111,1583586428382,1.5705999,-0.5495,-1.1338,11.017092,-1.196603,-1.1425226000000002,-1
111,112,1583586428392,0.992,-0.35889998,-0.6881,10.518771000000001,-0.97149044,-0.83388126,d
112,113,1583586428402,0.63879997,-0.16939999,-0.49989998,10.354856,-0.8688174999999999,-0.7658571999999999,-1
113,114,1583586428412,0.4526,-0.1329,-0.4007,10.184991,-0.86275536,-0.6661052,-1
114,115,1583586428423,0.3355,-0.1112,-0.3583,10.088975,-0.80156916,-0.8268615,-1
115,116,1583586428433,0.3071,-0.074599996,-0.6357,10.112447999999999,-0.9057744000000001,-1.1649611,-1
116,117,1583586428443,0.4068,-0.2198,-0.88019997,10.292816,-0.9845628000000001,-1.2505012,-1
117,118,1583586428453,0.72249997,-0.2154,-0.77889997,10.749046,-0.97034127,-0.91155875,-1
118,119,1583586428463,1.1364,-0.2314,-0.4094,11.093725,-1.1211281000000002,-0.7490882,-1
119,120,1583586428474,1.3639,-0.3893,-0.303,11.1429405,-1.21115,-0.70701736,-1
120,121,1583586428484,1.3162999,-0.4276,-0.2138,10.927078999999999,-1.2304760000000001,-0.6946536999999999,-1
121,122,1583586428494,1.0034,-0.48459998,-0.24059999,10.579432,-1.3267803999999999,-0.7772631999999999,-1
122,123,1583586428505,0.7001,-0.5923,-0.27019998,10.412125,-1.3462788,-0.7890331,-1
123,124,1583586428515,0.6418,-0.5765,-0.25059998,10.451898,-1.2118586999999998,-0.87722594,-1
124,125,1583586428525,0.68149996,-0.4333,-0.3312,10.518436,-1.0182731,-1.0434792,-1
125,126,1583586428535,0.7308,-0.2321,-0.46559998,10.2882395,-0.8019139,-1.1287991000000002,-1
126,127,1583586428545,0.4366,-0.0713,-0.5062,9.866046,-0.6748584,-1.0491583,-1
127,128,1583586428556,0.044299997,0.0405,-0.3818,9.764483,-0.5700594,-0.85359037,-1
128,129,1583586428565,0.015199998999999999,0.1269,-0.139,9.948128,-0.5469506,-0.52607316,-1
129,130,1583586428575,0.24129999,0.14899999,0.1717,10.300746,-0.506728,-0.58854264,-1
130,131,1583586428585,0.6049,0.1828,0.0398,10.401465,-0.5327003,-0.84617794,-1
131,132,1583586428595,0.6053,0.127,-0.18329999,10.23594,-0.57837206,-0.85645384,-1
132,133,1583586428606,0.4385,0.057999999999999996,-0.1259,10.075528,-0.66463995,-0.7148416,-1
133,134,1583586428616,0.2713,-0.0327,0.0168,9.876945,-0.624312,-0.66055065,-1
134,135,1583586428626,0.044999998,0.0221,0.0581,9.615421000000001,-0.45789587,-0.6996528000000001,-1
135,136,1583586428636,-0.21059999,0.19479999,-0.0197,9.346255000000001,-0.30740592,-0.95554507,-1
136,137,1583586428646,-0.4662,0.3204,-0.2729,9.164784,-0.16031575,-1.0832518,-1
137,138,1583586428656,-0.61329997,0.44,-0.36409998,9.227789999999999,-0.15251066,-1.3190709999999999,-1
138,139,1583586428666,-0.5438,0.44619998,-0.5760000000000001,9.443928999999999,-0.22538057,-1.6149657,-1
139,140,1583586428676,-0.3265,0.36699998,-0.85889995,9.61112,-0.24433307,-1.4937425,-1
140,141,1583586428686,-0.1187,0.33699998,-0.6082,9.6169815,-0.30301017,-0.8943588,-1
141,142,1583586428696,-0.1856,0.2557,0.033299997000000005,9.312564,-0.40532878,-0.26031676,-1
142,143,1583586428706,-0.4493,0.1722,0.5593,8.912569,-0.22460485,-0.11372458,-1
143,144,1583586428716,-0.85099995,0.3543,0.7237,8.520897,-0.1410089,-0.23103088,-1
144,145,1583586428727,-1.2430999,0.44239998,0.59819996,8.190764999999999,-0.09929234,-0.5796170999999999,-1
145,146,1583586428737,-1.5759999999999998,0.4883,0.2564,7.8619259999999995,-0.09791327,-1.1508927,-1
146,147,1583586428747,-1.9082999,0.5036,-0.3188,7.8351974,-0.24074177,-1.4518726999999998,-1
147,148,1583586428757,-1.9254999,0.3809,-0.6026,8.339167,-0.44327208,-1.4642363999999999,-1
148,149,1583586428767,-0.5535,0.2577,-0.4202,9.451725,-0.40951383,-1.1530763000000002,-1
149,150,1583586428777,0.1378,0.3344,0.18259999,10.007677000000001,-0.4362044,-0.5795596,-1
150,151,1583586428788,0.3574,0.2954,0.4644,10.063902,-0.46443683,-0.48354253,-1
151,152,1583586428798,0.0263,0.3753,0.4122,9.638146,-0.43696097,-0.5529361,-1
152,153,1583586428808,0.0263,0.3753,0.4122,9.00441,-0.5124166,-0.72267544,-1
153,154,1583586428818,-1.2169,0.2287,-0.19919999,8.504224,-0.60194063,-1.225429,-1
154,155,1583586428829,-1.1467999,0.20969999,-0.6228,8.624364,-0.63748974,-1.6197157,-1
155,156,1583586428839,-1.1467999,0.20969999,-0.6228,9.052994,-0.6992600999999999,-1.666939,-1
156,157,1583586428849,-0.26839998,0.14559999,-0.70229995,9.546372,-0.7452575,-1.6346268999999998,-1
157,158,1583586428860,-0.0197,0.23259999,-0.42700000000000005,9.669912,-0.65564734,-1.2082674999999998,-1
158,159,1583586428870,-0.1926,0.25869998,-0.023599999,9.442923,-0.7758361999999999,-0.9036386999999999,-1
159,160,1583586428880,-0.36589998,0.1082,0.14039999,9.314948,-0.9384792,-0.8023832,-1
160,161,1583586428890,-0.4807,0.0583,0.2777,9.193035,-0.92175806,-0.6193417,-1
161,162,1583586428900,-0.5369,0.1287,0.3301,9.160646,-0.8868219,-0.7536371999999999,-1
162,163,1583586428910,-0.5537,0.1633,-0.0704,9.16168,-0.9131198,-1.1969379999999998,-1
163,164,1583586428921,-0.50119996,0.1713,-0.4107,9.307459,-0.92507166,-1.4867705,-1
164,165,1583586428931,-0.1635,0.31939998,-0.89519995,9.906259,-0.6733932,-2.3602135,-1
165,166,1583586428941,0.4491,0.5776,-1.6934999,10.398995,-0.5362916,-2.7895226,-1
166,167,1583586428951,0.78709996,0.7341,-1.706,10.499311,-0.45679453,-2.3439137999999997,d
167,168,1583586428961,0.6931,0.7938,-0.76119995,10.24613,-0.48026729999999995,-1.2201427,-1
168,169,1583586428971,0.3337,0.7866,0.3918,9.917176,-0.47981718,-0.19974345,-1
169,170,1583586428981,0.2287,0.9539,1.1875,10.009075,-0.21807347,0.47144705,-1
170,171,1583586428991,0.4958,1.2035999,1.5311999,10.196522,-0.121816985,0.53107226,-1
171,172,1583586429001,0.60539997,1.1561999,1.0533999,10.453123,-0.291767,-0.31192620000000004,-1
172,173,1583586429012,1.2840999,0.843,-0.56369996,11.716429,-0.89170605,-2.8568094,-1
173,174,1583586429022,2.6014,0.3223,-2.8929,12.943629,-1.3281403,-4.436848599999999,-1
174,175,1583586429032,4.3603997,-0.15079999,-4.4925,15.022820000000001,-2.085321,-5.8604503,-1
175,176,1583586429042,5.8929,-0.91389996,-5.0884,16.044273,-2.8913627,-5.0910788,-1
176,177,1583586429052,6.4410996,-1.5609,-3.3758,15.938957,-3.247112,-2.4191973,-1
177,178,1583586429063,5.9354997,-1.8889999,-0.7202,14.915598999999998,-3.5986862,-0.41057688,-1
178,179,1583586429073,4.7690997,-2.2635,0.95409995,13.890803,-3.8394473,1.2202097,-1
179,180,1583586429083,3.9355,-2.5869999999999997,2.4931997999999997,13.468514,-4.10959,2.0778317,-1
180,181,1583586429093,3.7414,-2.9994,2.6627998,13.637076,-4.730023,1.4492486,-1
181,182,1583586429103,4.2158,-3.8135998,1.7450999,14.56526,-5.4668529999999995,0.27635792,-1
182,183,1583586429115,5.3806,-4.4407997,0.47329998,16.243864000000002,-5.973026,-1.5727606,-1
183,184,1583586429125,6.8494997,-4.830899700000001,-1.1431,17.850384,-6.088541,-2.9106693,-1
184,185,1583586429135,8.3955,-4.9072,-2.2921999,18.990894,-5.8863554,-2.9978757000000003,-1
185,186,1583586429145,9.379399000000001,-4.6872,-2.0779998,18.97246,-5.5419545,-1.7703589,-1
186,187,1583586429156,9.007,-4.4605,-0.7011,17.39515,-5.478738,-0.49276499999999995,-1
187,188,1583586429166,7.1815996,-4.6228,0.5597,14.491863,-5.587253,0.7399806999999999,-1
188,189,1583586429176,4.7395997,-4.8777,1.5820999,12.830728,-5.3094106,1.2828323999999998,-1
189,190,1583586429187,2.7224,-4.6858,2.3051999,11.240337,-4.630243,1.9583133000000001,-1
190,191,1583586429197,1.474,-4.335099700000001,2.9199,10.524977999999999,-3.988711,1.6411008000000002,-1
191,192,1583586429207,0.7685,-3.8397,2.6329,10.178757000000001,-3.293301,0.47906062,-1
192,193,1583586429218,0.4186,-3.3028,1.5145998999999999,9.698232,-2.609948,-0.49568594,-1
193,194,1583586429228,-1.1934999,-2.5361,0.6623,8.215502,-2.1166372000000004,-0.42588058,-1
194,195,1583586429238,-2.9643998,-2.3772,0.8436,6.3878064000000006,-1.7433523000000002,-0.29060823,-1
195,196,1583586429248,-4.7311,-2.0865,1.2112,4.7088776,-1.2488059999999999,0.11946109,-1
196,197,1583586429258,-5.8466997,-1.7047,1.9532,3.6749462999999998,-0.6783635,0.8844755999999999,-1
197,198,1583586429268,-6.7139997000000005,-1.2371,2.7946,2.7248888,0.033882745,1.5628966,-1
198,199,1583586429278,-8.0299,-0.5273,2.8883,1.2652493999999999,0.95262414,1.4566324,-1
199,200,1583586429288,-9.835199000000001,0.1915,2.3274999,-0.63031673,1.8214703999999997,0.84141827,-1
200,201,1583586429298,-11.5432,0.8581,1.8578,-2.2388277000000003,2.6044989,0.3599347,-1
201,202,1583586429308,-12.469399000000001,1.5483999,1.4992,-3.0555854,3.4410615,0.026345795,-1
202,203,1583586429318,-13.0564995,2.3425,1.4585999,-3.6540690000000002,4.339748999999999,0.022993912999999998,-1
203,204,1583586429328,-13.5097,3.09,1.3773999,-4.079221700000001,5.190543,-0.21387883,-1
204,205,1583586429338,-13.896999,4.0917997,0.7308,-4.521258400000001,6.248761,-0.9035813,-1
205,206,1583586429349,-14.708098999999999,4.9426,0.18769999,-5.477809,7.051824000000001,-1.4157298,-1
206,207,1583586429359,-15.8945,5.2595,0.1073,-6.6733394,7.288994000000001,-1.4010295,-1
207,208,1583586429369,-16.9973,5.1176,0.79069996,-7.735943300000001,7.0977163,-0.58122593,-1
208,209,1583586429379,-17.753398999999998,4.8272,1.6775,-8.415753,6.735042599999999,0.17847337,-1
209,210,1583586429389,-18.2048,4.2517,1.6151999,-8.77815,6.0293756,-0.12320562,-1
210,211,1583586429399,-18.205599,3.4162,1.0892,-8.652051,5.027565,-0.5873934000000001,-1
211,212,1583586429410,-17.6558,2.3086998,0.9726,-7.926492999999999,3.7259238,-0.63946253,-1
212,213,1583586429420,-16.651,1.2972,1.0766,-6.891814699999999,2.6315436,-0.47861052,-1
213,214,1583586429430,-15.657399,0.8422,1.1521,-5.783625,1.9594914,-0.46179359999999997,-1
214,215,1583586429440,-15.2395,0.5129,1.031,-5.63235,1.2526081,-0.30507877,-1
215,216,1583586429450,-15.3553,-0.1767,1.8583,-5.688537,0.24418943,0.9105148999999999,-1
216,217,1583586429461,-15.2687,-0.7619,3.0547,-5.515569999999999,-0.4502344,1.9498857,-1
217,218,1583586429472,-15.108398999999999,-1.1362,3.8119998,-5.3892903,-1.3414808999999999,2.4506857,-1
218,219,1583586429482,-15.0608,-1.5396999,3.7612997999999997,-5.2857650000000005,-1.9307703999999999,2.2822297000000002,-1
219,220,1583586429492,-14.9662,-1.7044,3.5946998999999997,-5.3130690000000005,-2.5157697,2.3504357000000002,-1
220,221,1583586429503,-15.0547,-2.1896,3.5658998,-5.239269999999999,-3.72148,2.3796162999999995,-1
221,222,1583586429513,-14.5849,-3.0542,3.6290998,-4.147169,-4.9660150000000005,2.8585427000000005,-1
222,223,1583586429523,-13.050999999999998,-3.8646998,4.1358,-2.2877363999999996,-6.5301849999999995,3.6922612,-1
223,224,1583586429533,-11.2139,-4.9491997,4.8778,-0.50600976,-8.046922,4.199889700000001,-1
224,225,1583586429543,-9.2029,-5.9121,4.7959,1.0757531999999999,-9.377082000000001,3.6264877,-1
225,226,1583586429554,-7.7812996,-6.7075996,4.0868998,1.937254,-10.4635515,3.3614976000000003,-1
226,227,1583586429564,-7.0143,-7.3423,3.875,1.8907968999999998,-12.439994,4.154198600000001,-1
227,228,1583586429574,-7.139199700000001,-8.7878,4.5715,1.4624838,-15.075397500000001,5.211995,-1
228,229,1583586429584,-7.0922,-10.8921995,5.1938,2.7005541,-17.459505,5.5491660000000005,-1
229,230,1583586429594,-5.0692,-12.6117,5.1854997,6.107091400000001,-18.956322,5.5976624,-1
230,231,1583586429605,-0.98999995,-13.481898999999999,4.7191997,10.481058,-20.196547,5.0824976,-1
231,232,1583586429615,3.7531998,-14.224298999999998,4.0985,13.404092000000002,-21.891739,5.8374276,-1
232,233,1583586429625,6.5719,-15.6159,4.9955,13.429986999999999,-24.418186,8.334206,-1
233,234,1583586429636,6.535,-17.860198999999998,7.3251995999999995,12.221596,-26.567738000000002,10.21195,-1
234,235,1583586429645,5.9447,-19.2925,8.667399000000001,12.137310000000001,-26.771109999999997,10.898971000000001,-1
235,236,1583586429655,6.4919996,-18.9965,8.7796,12.584709,-26.496956,9.212439,-1
236,237,1583586429665,7.6063,-18.4973,5.9872,14.560616,-26.449924,4.8449836,-1
237,238,1583586429675,10.441199000000001,-18.246199,1.3804,18.874468,-25.136523999999998,2.0154965,-1
238,239,1583586429686,14.555099499999999,-16.8171,-0.92899996,20.643843,-23.278026999999998,1.1611303999999998,-1
239,240,1583586429696,16.8359,-14.3932,-1.9490999,19.695192000000002,-21.491428,2.0837216,-1
240,241,1583586429706,15.412498999999999,-12.7022,-0.45819998,14.9370985,-21.137478,6.312849,-1
241,242,1583586429716,11.4906,-12.485,3.2108998,12.124841,-21.460953,8.638997999999999,-1
242,243,1583586429726,8.4474,-12.758699,5.8845997,11.282782000000001,-21.102148,9.074647,-1
243,244,1583586429736,8.241,-12.326699000000001,5.8859997,12.649391,-19.956417000000002,7.2168136,-1
244,245,1583586429746,9.826,-11.1495,3.9127998,13.670383,-18.588371,4.0689745,-1
245,246,1583586429757,11.057799000000001,-9.7644,0.6261,13.602704999999998,-17.432673,1.4413573,-1
246,247,1583586429767,11.164499000000001,-8.6138,-2.1202,12.614042999999999,-16.129343,1.0460361999999999,-1
247,248,1583586429777,10.3019,-7.3023,-2.5726,11.112763000000001,-14.994272,2.626535,-1
248,249,1583586429788,7.242799799999999,-5.494,1.5926,9.185652000000001,-14.253382,5.6362667,-1
249,250,1583586429798,5.8037996,-4.6679,3.2703998,7.769309,-13.346765,6.816733,-1
250,251,1583586429808,4.6057,-3.7177,2.7215,6.666520599999999,-12.488375999999999,5.9617059999999995,-1
251,252,1583586429818,3.9150998999999995,-3.1741,1.5430000000000001,6.1031938,-11.950888,4.780627,-1
252,253,1583586429829,3.7733,-2.5217,0.070999995,6.054965,-11.247452000000001,3.27454,-1
253,254,1583586429839,3.8788,-1.7652999,-1.6171,6.1122723,-10.473061999999999,1.7190177,-1
254,255,1583586429850,3.5942998,-1.1235,-2.4392,5.7411137000000005,-9.869397,1.1164258,-1
255,256,1583586429860,2.9793,-0.7579,-2.3871,4.978551,-9.561694000000001,1.5450263000000002,-1
256,257,1583586429870,2.2672,-0.7163,-1.1524999,4.29176,-9.549887,3.2223275,-1
257,258,1583586429880,1.4918,-0.6976,0.81409997,3.5295992,-9.570361,4.9543886,d
258,259,1583586429891,0.7209,-0.7371,2.01,2.9344580000000002,-9.587197,5.5843987,-1
259,260,1583586429901,0.37579998,-0.6676,1.9626,2.8509482999999998,-9.470179,5.03855,-1
260,261,1583586429911,0.4524,-0.49719998,0.8682,3.053699,-9.310485,3.8767297,-1
261,262,1583586429921,0.75439996,-0.4585,-0.2435,3.4550724,-9.33233,2.8404138,-1
262,263,1583586429931,1.1705999,-0.5956,-0.9068,3.8893422999999996,-9.537925,2.4589220000000003,-1
263,264,1583586429941,1.4776,-0.8182,-0.89479995,4.0809646,-9.7181225,2.664804,-1
264,265,1583586429952,1.405,-1.0576,-0.55619997,3.9654586000000003,-10.010214999999999,3.0112542999999996,-1
265,266,1583586429962,1.2268,-1.364,-0.0503,3.8034,-10.324363,3.6727724000000004,-1
266,267,1583586429972,1.0437,-1.7581999,0.93189996,3.8032372000000003,-10.924503,4.840433999999999,-1
267,268,1583586429983,1.1725999,-2.3902,1.7631999,4.0922656,-11.520037,5.205243599999999,-1
268,269,1583586429993,1.7545998999999999,-3.0871,1.7735,5.2711706,-12.213493,4.733509,-1
269,270,1583586430003,2.9087,-3.6543,0.9673,6.350869,-12.857638,3.447325,-1
270,271,1583586430013,3.7879,-4.3268,-0.51379997,7.098070599999999,-13.394276000000001,2.0812604,-1
271,272,1583586430023,4.4231997000000005,-4.7971997,-1.7123,7.934164,-13.822664999999999,1.5013751,-1
272,273,1583586430034,5.1124,-5.2063,-1.8312998999999999,8.741010000000001,-14.470919,2.4435415000000003,-1
273,274,1583586430043,5.8129,-5.9918,-0.5929,9.422773,-15.467769,4.064378,-1
274,275,1583586430053,6.6916,-7.3819,1.7034,10.809925999999999,-16.703310000000002,6.3144293,-1
275,276,1583586430063,8.1935,-8.3446,3.5461,12.424308,-17.266495000000003,7.094029400000001,-1
276,277,1583586430073,9.465799,-8.7627,3.7135,13.408698000000001,-17.486079999999998,6.429446700000001,-1
277,278,1583586430083,10.090899,-8.9262,2.8255,14.015456,-17.514302999999998,5.3158080000000005,-1
278,279,1583586430094,10.3102,-9.0777,1.9559,14.175310999999999,-17.776201,4.802788,-1
279,280,1583586430104,10.317699000000001,-9.524,1.3535,14.610682500000001,-18.066378,4.2385993,-1
280,281,1583586430114,10.731899,-9.8562,0.93579996,15.331118,-18.217434,4.118056,-1
281,282,1583586430124,11.1066,-10.0018,1.1046,15.580632000000001,-18.069767000000002,4.318162999999999,-1
282,283,1583586430135,10.7991,-9.9091,1.4104999,14.943601999999998,-17.594444,4.909483,-1
283,284,1583586430145,9.657,-9.5548,2.2786,13.544957,-16.95223,5.943194,-1
284,285,1583586430155,7.7665,-9.0608,3.5238998,11.656487,-16.319893,7.2068443,-1
285,286,1583586430165,5.4807,-8.6065,4.9978,10.134895,-15.498281,8.065874,-1
286,287,1583586430175,3.2593,-7.6633997,6.0737996,8.150303,-13.8499775,8.319678,-1
287,288,1583586430186,1.3974,-6.4923997,6.1758,7.087181599999999,-12.423062,7.8053656,-1
288,289,1583586430196,0.0209,-5.3619,5.7544,6.078725,-11.120713,6.7030463000000005,-1
289,290,1583586430206,-1.3162999,-4.4126997,4.7244997,5.0560083,-9.614519999999999,5.188819400000001,-1
290,291,1583586430216,-2.4350998,-3.4338,3.6769,4.6197557,-8.359623,4.6267949999999995,-1
291,292,1583586430227,-3.2451,-2.145,3.2249,4.226475,-6.5188365,4.224234,-1
292,293,1583586430236,-3.7949,-0.96489996,3.1146,4.3364067,-6.053126,4.5812955,-1
293,294,1583586430246,-3.8639,-0.9248,4.0151997,4.859597,-6.566078999999999,6.8798246,-1
294,295,1583586430256,-3.4796998999999995,-1.7118,6.803,5.1833606,-6.4846663,9.731272,-1
295,296,1583586430266,-3.4643,-1.8726,9.2449,4.5085115,-6.140256,9.460171,-1
296,297,1583586430276,-4.6143,-1.7200999,8.7364,2.8106875,-5.19174,6.772536,-1
297,298,1583586430287,-6.5481,-1.0198,5.9286,0.68751895,-3.3129239999999998,2.6127827,-1
298,299,1583586430297,-8.467,0.2483,2.5180000000000002,-0.25627536,-1.9280026999999997,0.28075367,-1
299,300,1583586430307,-10.1209,2.0275,0.6076,-0.8250036000000001,-0.56831646,0.9110415999999999,-1
300,301,1583586430317,-10.1209,2.0275,0.6076,-1.0326288000000001,-0.18392257,2.6872425,-1
301,302,1583586430327,-10.487599000000001,2.3351998,3.1499,-1.2682853,-0.29124984,5.2861867,-1
302,303,1583586430337,-10.7816,1.9402,5.9609,-1.0289897,-0.8599877,6.380787000000001,-1
303,304,1583586430347,-10.5865,1.1331999,7.2362,-0.483533,-1.3310325,6.517956,-1
304,305,1583586430357,-9.8901,0.4211,7.4098997,0.6150416999999999,-0.7923179,4.9194427,-1
305,306,1583586430368,-9.0119,0.7966,5.9651,0.9396954,-0.193078,1.9783098000000001,-1
306,307,1583586430378,-8.7095995,1.2293999,3.0721998,0.53924125,0.23980324,-1.0955867,-1
307,308,1583586430388,-9.129399000000001,1.4955,0.044999998,-0.019306842,0.34475547,-3.55176,-1
308,309,1583586430398,-9.7146,1.1769999,-3.2581,0.010132262,0.1984506,-4.48003,-1
309,310,1583586430408,-9.7146,1.1769999,-3.2581,0.50740796,0.27132052,-3.4047272000000004,-1
310,311,1583586430418,-8.4024,1.2833999,0.5114,1.3992098999999998,0.542009,-0.48510358,-1
311,312,1583586430428,-8.4024,1.2833999,0.5114,1.755218,-0.20273143,1.4048314,-1
312,313,1583586430438,-7.6354,-0.6566,3.2863998,2.0450792,-1.400177,1.2122705,-1
313,314,1583586430448,-7.0983996,-1.2298,1.7579,2.6475465,-1.6892338,-0.5676269,-1
314,315,1583586430459,-6.5485,-1.1128,0.21509999,3.0994759999999997,-1.46506,-2.0525396000000002,-1
315,316,1583586430469,-6.3587,-0.9675,-0.62049997,3.2828239999999997,-1.2682183,-2.775598,-1
316,317,1583586430479,-5.996,-0.746,-0.7999,3.688804,-0.97168195,-2.812009,-1
317,318,1583586430489,-5.4175,-0.4583,-0.4811,4.313518,-0.6203664000000001,-2.5049097999999996,-1
318,319,1583586430500,-4.7774997,-0.2825,-0.40629998,4.942494,-0.48629110000000003,-2.553809,-1
319,320,1583586430510,-4.0049,-0.4649,-0.9662,5.8468029999999995,-0.7527753,-3.4840998999999995,-1
320,321,1583586430520,-3.3945,-0.802,-1.6844,6.337471,-1.0148542,-3.845069,-1
321,322,1583586430530,-3.0363,-1.0717,-1.1179,6.559346700000001,-1.2496871,-3.1299495999999998,-1
322,323,1583586430540,-2.8248,-1.5281,0.2226,6.762020599999999,-1.6631178,-1.7580527,-1
323,324,1583586430551,-2.7143998,-1.5396,0.7737,6.841642,-1.3900063999999999,-1.672168,-1
324,325,1583586430561,-2.6492999,-1.0313,0.29889998,6.8625293,-0.83058685,-2.4594007,-1
325,326,1583586430571,-2.6186,-0.56769997,-0.6275,7.022327400000001,-0.4266563,-3.3516237999999996,-1
326,327,1583586430581,-2.1773999,-0.2658,-1.4224,7.657231299999999,-0.20280804,-4.061227,-1
327,328,1583586430591,-1.3333,-0.17719999,-1.8119999,8.497941,-0.19797176,-4.1469393,-1
328,329,1583586430601,-0.6729999999999999,-0.083299994,-1.4757999,8.987028,-0.12368446599999999,-3.7307792,-1
329,330,1583586430612,-0.45069999,-0.24589999,-1.0971,9.094385,-0.5268010000000001,-3.4071023,-1
330,331,1583586430622,-0.39249998,-0.63769996,-0.7287,9.182203999999999,-0.76311827,-3.088003,-1
331,332,1583586430633,-0.1961,-0.58059996,-0.6712,9.473894,-0.6026876,-3.4833529999999997,-1
332,333,1583586430643,0.107099995,-0.44439998,-1.1675999,9.743482,-0.5280173,-3.9657655,-1
333,334,1583586430653,0.3392,-0.3274,-1.5263,9.850378,-0.41542274,-4.2143120000000005,-1
334,335,1583586430663,0.3344,-0.19139999,-1.6462,9.592312,-0.2769517,-4.1754690000000005,-1
335,336,1583586430673,-0.0731,-0.036399997999999996,-1.5141,9.154173,-0.17837761,-4.0461434999999994,-1
336,337,1583586430684,-0.4315,0.0526,-1.3817999,9.006546,-0.14609419,-3.8242008999999997,-1
337,338,1583586430694,-0.3876,0.12079999599999999,-1.0239,9.251645,-0.08752244,-3.2259952999999997,-1
338,339,1583586430704,-0.020299999,0.1594,-0.30539998,9.960684,-0.33911473,-2.5116037999999996,-1
339,340,1583586430714,0.63989997,-0.089499995,0.18169999,10.689986,-0.5948825,-2.5013757,-1
340,341,1583586430724,1.3564,-0.23079999,0.1193,11.041244500000001,-0.40405506,-2.6664608,-1
341,342,1583586430734,1.5711,0.0603,-0.105399996,10.533836,-0.08959103,-3.0952337000000005,-1
342,343,1583586430744,0.87369996,0.37579998,-0.5639,9.528616,0.024938006000000002,-3.2858120000000004,d
343,344,1583586430755,-0.547,0.433,-0.59029996,7.75594,-0.15992309,-2.919614,-1
344,345,1583586430765,-1.8847,0.1938,-0.2074,7.337357000000001,-0.62245417,-2.6729537999999997,-1
345,346,1583586430775,-1.9818,-0.2771,0.0334,8.415197000000001,-1.1466119,-2.5017972,-1
346,347,1583586430785,-0.6824,-0.73719996,0.2641,10.278135,-1.5946341999999998,-2.4186799999999997,-1
347,348,1583586430796,1.2462,-1.1264,0.3599,12.078383,-1.9161370999999998,-2.0335104,-1
348,349,1583586430806,2.6938999,-1.3244,0.77669996,12.15473,-1.5258918,-1.5067956,-1
349,350,1583586430817,2.7863,-0.9054,1.3465999,11.130892999999999,-1.2681991000000001,-2.0188196,-1
350,351,1583586430827,1.768,-0.6347,0.87259996,10.261089,-1.0105351,-3.0309348,-1
351,352,1583586430837,0.90569997,-0.3857,-0.1021,10.136292999999998,-0.59845465,-4.218823,-1
352,353,1583586430847,0.7963,0.018099999,-1.2607,10.267619999999999,-0.24024378,-5.090274,-1
353,354,1583586430858,0.909,0.5001,-2.437,10.205935499999999,-0.10876379,-5.4498158,-1
354,355,1583586430868,0.55439997,0.31919998,-2.2811,9.815911,-0.3099342,-5.249891000000001,-1
355,356,1583586430879,0.49879998,0.067,-2.003,9.836128,-0.55963033,-5.0768185,-1
356,357,1583586430889,0.9475,-0.34899998,-1.9684,10.421185000000001,-1.0062543,-5.1437029999999995,-1
357,358,1583586430899,1.7321999,-0.93899995,-2.6339,11.056922,-1.5929198,-6.095982599999999,-1
358,359,1583586430909,1.7308999,-1.4044,-4.3636,10.906345,-1.9916215,-8.091712,-1
359,360,1583586430919,1.0981,-1.8273,-7.2811,10.18028,-2.4598124,-11.299808500000001,-1
360,361,1583586430929,0.3046,-2.4241998,-11.110999999999999,9.391534,-3.0115323,-15.200232000000002,-1
361,362,1583586430940,0.014599998999999999,-3.0161998,-14.3714,9.316002000000001,-3.6057252999999996,-18.149265,-1
362,363,1583586430950,0.7173,-4.0179,-14.2919,10.228988000000001,-4.7371387,-16.586857000000002,-1
363,364,1583586430960,1.2314999,-4.902199700000001,-11.3373995,10.354846,-5.5340055999999995,-13.853991,-1
364,365,1583586430970,0.8415,-5.8227997,-9.341599,9.606542999999999,-6.224197,-12.696557,-1
365,366,1583586430980,-0.2412,-6.147599700000001,-9.361899000000001,8.640607000000001,-6.2500253,-13.157048000000001,-1
366,367,1583586430990,-1.5934,-6.1412997,-10.948,7.058509,-6.106661,-15.212288000000001,-1
367,368,1583586431001,-2.9169998,-6.0505,-12.7583,5.777065,-5.851678,-16.617887,-1
368,369,1583586431011,-4.1738,-5.8852,-13.411098999999998,4.864845799999999,-5.720878,-16.501068,-1
369,370,1583586431021,-5.2826,-6.0394998,-11.7188,3.5926049,-5.829737000000001,-13.597667000000001,-1
370,371,1583586431031,-6.4024997,-6.2324,-8.5339,2.4522276,-5.801658,-10.129292999999999,-1
371,372,1583586431041,-7.8086996,-6.2507997,-5.2888,0.9430951999999999,-5.6551523,-6.966868400000001,-1
372,373,1583586431051,-9.3775,-6.0806,-2.7581,-0.4536246,-5.2195225,-4.7954617,-1
373,374,1583586431061,-10.3208,-5.7643,-1.4789,-1.1776983,-4.9008636,-2.8398395,-1
374,375,1583586431072,-10.641399,-5.7057,0.7672,-1.0902618999999998,-4.667554,-0.30175559999999996,-1
375,376,1583586431082,-10.4059,-5.0804996,3.7809,-0.9179944,-3.6074203999999996,2.739867,-1
376,377,1583586431092,-10.5928,-4.2818,5.2847,-1.2616103,-3.105289,3.661424,-1
377,378,1583586431102,-11.109099,-3.5609998999999997,5.9916,-1.7160488,-1.9117221999999998,4.4604073,-1
378,379,1583586431112,-11.3909,-2.4045,6.1914997000000005,-1.7483323,-0.74184823,4.8673835,-1
379,380,1583586431123,-11.2444,-1.2724999,6.8227,-1.2310793,0.10706869999999999,6.4373190000000005,-1
380,381,1583586431133,-10.5147,-0.55039996,8.814099,-0.25746286,0.56121045,9.3563,-1
381,382,1583586431143,-9.5845995,-0.23099999,11.9713,0.5873264,0.6234789000000001,12.709122,-1
382,383,1583586431153,-8.9268,-0.11,15.123698999999998,0.8698518,0.6707787,15.78434,-1
383,384,1583586431164,-8.9155,0.0694,17.8563,0.67182255,0.51948434,17.750717,-1
384,385,1583586431174,-9.1293,-0.1585,19.0532,0.755792,0.04513549,18.374474,-1
385,386,1583586431184,-8.764,-0.3373,19.3711,1.9379627000000001,-0.0034668040000000004,19.012432,-1
386,387,1583586431194,-7.5428,-0.093899995,19.9016,3.6793803999999994,0.14750199,19.7634,-1
387,388,1583586431204,-5.7864,0.2243,20.459799,5.070651,-0.107011236,20.240582,-1
388,389,1583586431214,-4.5028,0.1644,20.816,6.135008,-0.19499336,20.793594,-1
389,390,1583586431225,-3.4661,0.4976,21.3745,6.726222,0.18119319,21.627935,-1
390,391,1583586431235,-2.9219,1.0446,22.3737,6.9401399999999995,0.07347326,22.450878,-1
391,392,1583586431245,-2.8023,1.0402,22.804699,6.9815974,-0.9320148000000001,22.690588,-1
392,393,1583586431255,-2.7345,0.040999997,23.110899,7.1585484,-2.434702,22.72718,-1
393,394,1583586431265,-2.4234998,-1.1517998999999999,22.8599,7.915968400000001,-3.5774736000000003,21.119875,-1
394,395,1583586431276,-1.5446999,-1.9770999,21.0684,8.728168,-4.6257795999999995,18.982657999999997,-1
395,396,1583586431286,-0.7158,-2.7749,18.877699,9.397606,-5.663695,16.463976000000002,-1
396,397,1583586431297,-0.0061,-3.4929,16.264599,10.301435000000001,-6.814013,13.8725605,-1
397,398,1583586431307,0.8393,-4.2014,14.221499,11.100438,-7.814157000000001,12.346496,-1
398,399,1583586431317,1.9577999,-5.1366997,12.2428,12.378502000000001,-8.966142,10.198112,-1
399,400,1583586431329,3.4308,-6.8136997,9.6166,12.582975,-10.476462,9.081925,-1
400,401,1583586431339,3.4308,-6.8136997,9.6166,12.050792999999999,-11.828707000000001,7.911084,-1
401,402,1583586431349,2.3765,-9.34,6.9911,11.244119,-13.718785,6.306653,-1
402,403,1583586431359,2.1794999,-11.8257,3.6931998999999998,11.221135,-16.491186,2.6470008,-1
403,404,1583586431369,3.6053998,-13.707999,-0.6493,12.855494,-18.28787,-1.5265143,-1
404,405,1583586431379,6.252000000000001,-14.3494,-3.7912998,15.453910999999998,-18.923445,-4.3117085,-1
405,406,1583586431390,8.4151,-13.9890995,-5.6313,17.232198999999998,-18.581936,-5.7980766,-1
406,407,1583586431400,8.6417,-12.821199,-5.9252996,16.479252,-17.259016,-5.649971,-1
407,408,1583586431410,6.435,-11.7554,-5.5845,13.637718,-16.656431,-5.60089,-1
408,409,1583586431420,3.5425,-11.7464,-7.0032997,11.185413,-17.204676,-7.9952064,-1
409,410,1583586431430,2.5841,-12.7536,-10.7162,11.383367,-18.244257,-11.9316,-1
410,411,1583586431440,4.2174,-13.1587,-14.123899,13.334525,-18.34625,-14.550857,-1
411,412,1583586431451,6.8907,-12.767099,-16.5121,15.883067,-17.759165,-16.681915,-1
412,413,1583586431460,8.2452,-11.896199000000001,-17.8021,16.410204,-16.772139000000003,-17.351776,-1
413,414,1583586431470,7.4248,-10.575999000000001,-17.0571,14.720817000000002,-15.2900715,-15.535007,-1
414,415,1583586431480,4.4365997,-9.154099,-14.1129,11.107775,-14.010131,-12.474931,-1
415,416,1583586431490,0.2916,-8.4213,-11.6813,7.0578094,-13.579079,-10.859094,-1
416,417,1583586431500,-3.0321999,-8.344399000000001,-11.4513,4.609499,-13.327198999999998,-11.473550999999999,-1
417,418,1583586431511,-4.1474,-7.9287996,-13.2297,4.3892803,-12.825432000000001,-13.702542999999999,-1
418,419,1583586431521,-3.4613,-7.5966997,-15.6189995,5.4233747,-12.473504,-15.617042999999999,-1
419,420,1583586431531,-2.3639,-7.2288,-16.7677,6.258376,-12.150525,-16.239239,-1
420,421,1583586431541,-2.1411998,-7.0955997,-16.570798999999997,6.1146955,-11.999347,-15.345960999999999,-1
421,422,1583586431551,-2.8692,-6.7377,-14.9516,4.863686599999999,-11.261875,-13.227859500000001,-1
422,423,1583586431561,-4.1552,-6.0881,-13.0299,3.8232047999999996,-10.779701,-11.646814,-1
423,424,1583586431572,-5.3553,-5.5506,-11.1497,2.8047976,-10.099730000000001,-10.112686,-1
424,425,1583586431582,-6.1285996,-4.7816,-10.1685,2.1929162,-9.257143,-9.442857,-1
425,426,1583586431592,-6.4505,-4.3321,-9.875999,2.0605745,-8.982928999999999,-9.281727,-1
426,427,1583586431602,-6.5051,-4.1682997,-9.6763,2.1652298,-8.883034,-8.9216385,-1
427,428,1583586431612,-6.2732997,-4.0846,-9.226,2.5255954,-8.740723,-8.027968,-1
428,429,1583586431622,-5.8759,-3.8198,-8.1549,2.751819,-8.523923,-7.0647910000000005,-1
429,430,1583586431633,-5.7876,-3.7621,-7.075999700000001,2.5818974999999997,-8.761332000000001,-5.759942,-1
430,431,1583586431643,-6.0070996,-3.9980998,-6.0804,2.4248377999999997,-8.9997,-4.7605543,-1
431,432,1583586431653,-6.0965,-4.146,-5.0841,2.3146088,-8.996433,-3.5425472,-1
432,433,1583586431663,-6.1484,-4.0562997,-3.6747,2.3424006,-9.057993,-2.0838080000000003,-1
433,434,1583586431673,-6.0372,-4.1840997,-2.5019999,2.5196292000000002,-9.306741,-1.2600013,-1
434,435,1583586431683,-5.7601,-4.3118,-1.6953,2.683431,-9.462747,0.13734100000000002,-1
435,436,1583586431694,-5.6589,-4.4284,-0.1165,2.6277418,-9.646612,1.6724074,-1
436,437,1583586431704,-5.6144,-4.4947,0.85099995,2.8982767999999997,-9.848625,2.3934546,-1
437,438,1583586431714,-4.9582996,-4.7058,1.6036999,3.8894667999999997,-10.080288000000001,3.4312932000000003,-1
438,439,1583586431725,-3.7054,-4.6436,2.1957998,5.380221400000001,-9.696823,3.2461257000000003,-1
439,440,1583586431735,-2.4033,-4.0717998,1.7987,6.164944599999999,-8.941874,4.0721636,-1
440,441,1583586431745,-1.6870999,-3.2020998,2.9648,6.3870883,-8.337204,7.054879,-1
441,442,1583586431756,-1.4800999,-2.6613998,5.4943,6.314744999999999,-8.344128,9.289769999999999,-1
442,443,1583586431766,-1.5036,-2.5851,8.2895,6.359814,-8.552482000000001,12.616513000000001,-1
443,444,1583586431776,-1.3685,-2.7143998,11.0455,6.6776967,-8.979185000000001,13.761439999999999,-1
444,445,1583586431786,-0.9809,-3.0475,12.1538,7.6275625,-9.247968,13.417212,-1
445,446,1583586431796,0.0512,-3.2233999,11.767699,8.932279,-8.9758625,12.597581,-1
446,447,1583586431807,1.4370999,-2.8736,10.8849,9.847515,-8.215196,12.14499,-1
447,448,1583586431817,2.4191,-2.0254,10.392999999999999,9.72494,-7.447489999999999,12.550261500000001,-1
448,449,1583586431827,2.3493,-1.2048,10.7899,8.951786,-6.943463,13.261645999999999,-1
449,450,1583586431838,1.5996,-0.6774,11.5233,8.165846,-6.161047,13.183470999999999,-1
450,451,1583586431848,0.72499996,0.6678,10.7748995,8.042574,-5.4826646,11.968366,-1
451,452,1583586431858,0.8405,1.1050999,9.1924,8.232655000000001,-5.167415,10.541249,-1
452,453,1583586431868,1.3116,1.3474,7.8684997999999995,8.73875,-4.962806700000001,9.232797999999999,-1
453,454,1583586431879,1.7334,1.4520998999999999,6.8785,9.072416,-4.925093,8.364536,-1
454,455,1583586431889,1.7334,1.4520998999999999,6.8785,9.033438,-4.9865474999999995,8.217504,-1
455,456,1583586431899,1.4799,1.2678,6.4923,8.715411,-5.1499185999999995,7.935256,-1
456,457,1583586431909,1.2968998999999999,1.1822,5.7132998,8.557269,-5.209630000000001,7.043961500000001,-1
457,458,1583586431919,1.153,1.2097,4.1897,8.402288,-5.143234,5.4493566,-1
458,459,1583586431930,0.94979995,1.3616999,2.6474,8.200064999999999,-5.017854,4.0240784,-1
459,460,1583586431940,0.7933,1.3557,1.7393999,8.015462,-5.0572915,3.2462215,-1
460,461,1583586431950,0.5846,1.2518,1.6308999,7.745779,-5.158374299999999,3.4508681000000005,-1
461,462,1583586431960,0.21589999,1.1577,2.1246,7.339981,-5.247659,3.9825535000000003,-1
462,463,1583586431970,-0.1831,1.0249,2.546,7.0332550000000005,-5.370204,4.2595339999999995,-1
463,464,1583586431980,-0.21679999,0.9827,2.6520998,7.1861105,-5.3923073,4.1809080000000005,-1
464,465,1583586431991,-0.21679999,0.9827,2.6520998,7.608112299999999,-5.585883,3.7980754,-1
465,466,1583586432001,0.5888,0.61149997,2.0425,8.090333,-5.826950599999999,3.579073,-1
466,467,1583586432011,0.9637,0.52279997,1.6191,8.293898,-5.8285594000000005,3.0305134999999996,-1
467,468,1583586432021,0.89419997,0.5557,1.079,8.132615,-5.801419,2.6491652,d
468,469,1583586432031,0.42679998,0.4357,0.61969995,7.5055065,-5.9965367,2.1124330000000002,-1
469,470,1583586432041,-0.0143,0.1855,0.17459999,7.248234700000001,-6.232969000000001,1.7901349999999998,-1
470,471,1583586432052,-0.06359999599999999,-0.0435,0.1584,7.320655,-6.454835,1.9707631999999997,-1
471,472,1583586432062,0.1529,-0.3965,0.36679998,7.752253,-6.935159700000001,2.068504,-1
472,473,1583586432072,0.5959,-0.73759997,0.4127,8.103291,-7.114045,2.2216182,-1
473,474,1583586432082,0.9411,-0.8828,0.8196,8.375817,-7.17887,2.9031036,-1
474,475,1583586432092,1.0399,-0.9137,1.4739,8.354663,-7.172616499999999,3.4843773999999996,-1
475,476,1583586432102,0.89849997,-0.856,1.8794999,8.168163999999999,-7.027489699999999,3.5034928,-1
476,477,1583586432113,0.7303,-0.71739995,1.6161,8.130403,-6.7520027,3.1656612999999996,-1
477,478,1583586432123,0.8031,-0.3611,1.3334,8.341944999999999,-6.3530526,3.0130742,-1
478,479,1583586432133,1.0035,-0.0925,1.2492,8.571195,-6.341225,3.0981257,-1
479,480,1583586432143,1.3112999,-0.2739,1.3673999,9.340231,-6.44906,3.5677245,-1
480,481,1583586432153,2.0693998,-0.2874,1.9258,10.078411000000001,-6.3429585,4.3751163,-1
481,482,1583586432163,3.0040998,-0.19049999,3.0117998,11.214383,-6.363548799999999,5.7338734,-1
482,483,1583586432174,3.8999,-0.2801,4.1751,11.816486,-6.374629,6.8743277,-1
483,484,1583586432184,4.6182,-0.3633,5.763099700000001,12.769053,-6.576671000000001,9.291762,-1
484,485,1583586432194,5.3851,-0.57919997,7.8072,13.411207000000001,-6.843356599999999,10.563467,-1
485,486,1583586432204,5.9356,-0.8824,8.679,13.876956,-7.0885034,10.186112,-1
486,487,1583586432215,6.6291,-1.1888,7.6266,14.760798999999999,-7.123593,8.28482,-1
487,488,1583586432225,7.2932,-1.1948999,5.9579997,15.2725935,-6.925726400000001,7.268634,-1
488,489,1583586432236,7.6942997,-1.1061,5.1080000000000005,15.485313,-7.052466000000001,7.389914,-1
489,490,1583586432246,7.7987,-1.4215,5.5569997,15.525335,-7.5149584,9.075614,-1
490,491,1583586432256,7.7247,-1.8980000000000001,7.0768,15.428560999999998,-7.5861526,9.943742,-1
491,492,1583586432266,7.5186,-2.097,8.042399000000001,15.270295,-7.5866504,9.785236,-1
492,493,1583586432276,7.1756997,-2.2373,7.824,14.972810999999998,-7.442653699999999,8.828188,-1
493,494,1583586432286,6.7395997,-2.1899,6.8624,14.54468,-7.246444,7.3266788,-1
494,495,1583586432297,6.1439,-2.1979,5.3356,13.842077,-7.1200779999999995,5.359765,-1
495,496,1583586432307,5.4382,-2.2879,3.8028,13.253553,-7.149201400000001,4.4470089999999995,-1
496,497,1583586432317,4.7121,-2.7382998,2.5628998,12.638167,-7.147860499999999,3.8292669999999998,-1
497,498,1583586432327,4.0655,-2.7382998,2.5628998,12.512558,-7.0712075,3.599079,-1
498,499,1583586432337,3.7268999,-2.8479,2.4078999,12.734145,-7.1684985,3.1963644,-1
499,500,1583586432348,4.3265,-3.6892998,1.5929999,13.398603,-7.4763927,2.349344,-1
500,501,1583586432357,4.3265,-3.6892998,1.5929999,13.2855015,-7.4033217,1.7021241000000003,-1
501,502,1583586432367,4.1741,-3.8218,0.9623,12.568802999999999,-7.432013499999999,0.6783061,-1
502,503,1583586432377,2.3116,-3.9334998,-0.9727,11.4390745,-6.914387700000001,-0.7738826,-1
503,504,1583586432388,1.3702999,-3.4073,-1.4670999,10.582371,-6.063766,-1.3547637,-1
504,505,1583586432398,0.2047,-2.6989,-1.1918,9.387119,-5.0576553,-1.1191553,-1
505,506,1583586432408,-1.653,-1.9696,-0.17019999,7.429284599999999,-4.1423616,-0.26725996,-1
506,507,1583586432418,-1.653,-1.9696,-0.17019999,5.5741324,-3.6561759,0.5313883,-1
507,508,1583586432429,-5.7843,-1.8090998999999999,2.2226999,3.6144593,-3.6940234,1.6194285,-1
508,509,1583586432438,-5.7843,-1.8090998999999999,2.2226999,3.0892289,-4.0156220000000005,1.589817,-1
509,510,1583586432448,-6.5348,-2.5444999,1.9181,3.1580575,-3.9423019999999998,0.6907368,-1
510,511,1583586432458,-6.5348,-2.5444999,1.9181,3.3915782,-3.1787433999999997,-0.94184065,-1
511,512,1583586432468,-6.3089,-1.9843998999999999,0.5043,3.5005336000000002,-2.6228385,-2.3510296000000004,-1
512,513,1583586432478,-6.693,-0.8236,-2.4475,2.8130052000000005,-1.804529,-3.8859522000000006,-1
513,514,1583586432489,-7.6054997,-0.3649,-2.8549,1.9049034,-1.2774503000000001,-4.2233624,-1
514,515,1583586432499,-8.3062,-0.1287,-2.4759998,1.2810224,-0.9121620999999999,-3.8155050000000004,-1
515,516,1583586432509,-8.6083,0.1178,-1.4922,0.9813833000000001,-0.60176826,-2.8570773999999997,-1
516,517,1583586432520,-8.6083,0.1178,-1.4922,0.64817744,-0.5776538,-1.8151401000000003,-1
517,518,1583586432529,-9.043099,-0.82549995,2.096,0.6901622,-1.6842539,0.79773843,-1
518,519,1583586432539,-8.1123,-1.8969999999999998,4.694,1.7096898999999997,-2.5623991000000004,3.0274872999999998,-1
519,520,1583586432549,-7.2065997,-2.1668,4.9975,2.4874412999999995,-2.6821284,2.7511772999999997,-1
520,521,1583586432559,-7.0049996,-1.9456999,3.4429998,2.5316862999999996,-2.4482242999999997,0.9884605,-1
521,522,1583586432569,-7.5133996,-1.6919999,0.93479997,1.9333946,-2.2137074,-1.7683668999999997,-1
522,523,1583586432580,-8.0624,-1.4463999,-2.3092,1.4895287,-2.0286071,-4.9475985,-1
523,524,1583586432590,-7.8048997,-1.3463,-4.467,2.121713,-1.9519736,-6.9696169999999995,-1
524,525,1583586432600,-6.3156,-1.0999,-5.3559,3.7949532999999995,-1.6999215,-7.3183656,-1
525,526,1583586432610,-4.6342998,-0.8735,-4.2977,5.3896065,-1.6921165,-5.6712413,-1
526,527,1583586432620,-3.6650998999999995,-1.1773,-2.3393,6.0625978,-2.1497824,-3.8697483999999998,-1
527,528,1583586432631,-3.2835998999999996,-1.6227,-0.60109997,6.3018165,-2.6420974999999998,-2.2576654,-1
528,529,1583586432641,-3.1676,-2.1081,0.7628,6.3137875,-3.0788283,-1.402734,-1
529,530,1583586432651,-3.2214,-2.4496999,0.6716,6.2582035000000005,-3.3396432000000003,-1.9487269,-1
530,531,1583586432661,-3.1715,-2.5637,-0.4188,6.347632,-3.3409839,-3.1686973999999997,-1
531,532,1583586432671,-3.0266,-2.2532,-1.0907999,6.4700809999999995,-3.0195098,-3.6238443999999994,-1
532,533,1583586432682,-2.9022,-1.6955999,-1.4245,6.651293300000001,-2.3218202999999997,-3.9964013,-1
533,534,1583586432692,-2.6206,-1.078,-1.6399,7.1039604999999995,-1.7139802,-4.3424497,-1
534,535,1583586432702,-2.0918999,-0.6642,-2.0061998,7.772556,-1.5083758999999999,-4.8174977,-1
535,536,1583586432712,-1.3355,-0.57229996,-2.4341,8.581211999999999,-1.6229813999999998,-5.1651169999999995,-1
536,537,1583586432723,-0.4899,-0.7849,-2.6334999,9.387876,-1.9611002,-5.214006400000001,-1
537,538,1583586432733,0.24679999,-1.1199,-2.5019999,9.889183000000001,-2.2465847,-4.8865085,-1
538,539,1583586432743,0.6566,-1.3176,-1.6143999,10.008242999999998,-2.2418058,-3.4892422999999995,-1
539,540,1583586432754,0.4443,-1.1644,-0.3847,9.433183999999999,-2.0283868000000003,-2.6321470000000002,-1
540,541,1583586432763,-0.3989,-0.9507,0.1593,8.346492999999999,-1.8520107,-2.4843004,-1
541,542,1583586432773,-1.4196999,-0.8257,0.101799995,7.660085700000001,-1.6322038,-2.9187232999999995,-1
542,543,1583586432783,-1.7519,-0.5049,-0.5696,7.7703433,-1.2957995,-3.5654738,-1
543,544,1583586432793,-1.2572,-0.090399995,-1.3922,8.640138,-0.92985046,-4.409258,-1
544,545,1583586432803,-0.3969,0.089999996,-1.8758999,9.580025,-0.9067321,-4.6787777,-1
545,546,1583586432814,0.31739998,0.1166,-1.9452,10.062217,-1.0088974,-4.275412,-1
546,547,1583586432824,0.7567,0.010799999,-1.3772,10.248572,-1.1578838,-3.4862642,-1
547,548,1583586432834,0.86179996,-0.183,-0.26929998,10.019916,-1.4165438,-2.3205848,-1
548,549,1583586432844,0.55399996,-0.3674,0.5545,9.458945,-1.3894128000000001,-2.0206966,-1
549,550,1583586432854,0.0095999995,-0.28399998,0.77849996,9.100188000000001,-1.1550586999999999,-2.0324857,-1
550,551,1583586432864,-0.3111,-0.0337,0.7112,8.909169,-0.7160291,-2.4969799999999998,-1
551,552,1583586432874,-0.48639998,0.4371,0.20529999,8.742083000000001,-0.21744139999999998,-2.9298900000000003,-1
552,553,1583586432885,-0.6127,0.9331,-0.19479999,8.758632,0.11069831,-3.3118800000000004,-1
553,554,1583586432895,-0.5803,1.1988,-0.56159997,8.88154,0.20601627,-3.4029841,-1
554,555,1583586432905,-0.3987,1.2623,-0.5406,9.187548,0.052433018,-3.0937490000000003,d
555,556,1583586432915,-0.0677,1.0826,-0.1595,9.62244,-0.4966915,-2.5769942,-1
556,557,1583586432925,0.4141,0.4867,0.3979,10.309854,-1.1999643999999998,-2.2763302000000003,-1
557,558,1583586432935,1.1761,-0.2136,0.5712,11.209719999999999,-1.9681103,-2.9798331,-1
558,559,1583586432946,2.0412,-0.89199996,-0.45859998,11.791051,-1.9468212,-5.468634,-1
559,560,1583586432956,2.5333997999999998,-0.6497,-3.1841998,11.640609,-1.0460361999999999,-8.415169,-1
560,561,1583586432966,2.3033,0.096999995,-5.5973997,10.720373,-0.5704712,-8.949326,-1
561,562,1583586432976,1.3691,0.5232,-6.1563,9.732526,-0.40063614,-6.901708,-1
562,563,1583586432986,0.3868,0.5987,-4.0786,8.931339999999999,-0.72825867,-3.8620483999999995,-1
563,564,1583586432996,-0.6286,0.015099999499999999,-0.249,7.621931599999999,-2.1355705,-1.6046802,-1
564,565,1583586433006,-1.6897,-1.3464999,1.4165,7.171840700000001,-3.8805223,-4.041096,-1
565,566,1583586433017,-2.1132998,-3.1745,-0.91459996,8.221019,-5.4011273,-9.076342,-1
566,567,1583586433027,-1.0473,-4.7104,-5.8908,10.393833,-6.123018,-13.497848499999998,-1
567,568,1583586433037,1.1277,-5.4402,-10.3206,12.179046000000001,-6.117463,-16.13852,-1
568,569,1583586433047,2.8925,-5.4284,-13.0281,12.631703,-6.057474,-16.281557,-1
569,570,1583586433057,3.3139,-5.4055,-13.2574,11.723649,-6.2420089999999995,-14.700226,-1
570,571,1583586433067,2.3848,-5.6717,-11.7345,10.0593815,-6.5763164000000005,-11.741893,-1
571,572,1583586433078,0.6986,-6.1447,-8.8202,8.225261,-6.4415517,-9.287836,-1
572,573,1583586433088,-3.3555,-6.093,-6.4038997,5.600325,-6.1130195,-9.523139,-1
573,574,1583586433098,-3.3555,-6.093,-6.4038997,4.5860167,-5.793527,-10.305123,-1
574,575,1583586433108,-5.0214,-5.7724,-7.6892,3.8941593,-4.8455005,-11.767491999999999,-1
575,576,1583586433118,-5.5059,-5.082,-8.9389,4.09668,-4.0558157,-12.877521,-1
576,577,1583586433128,-5.3041,-3.645,-10.037,4.073715,-2.9703805,-12.264634,-1
577,578,1583586433139,-6.2489,-3.0906,-7.4091997,2.8856547000000004,-2.3551285,-9.071055,-1
578,579,1583586433149,-8.512899,-2.7291,-3.7775,0.5098309,-1.824037,-5.3326725999999995,-1
579,580,1583586433159,-10.8203,-2.2296999,-1.0181999,-1.6668336,-1.1267399999999999,-2.7188938,-1
580,581,1583586433169,-12.292,-1.7152,0.2977,-2.8692594,-0.57251114,-1.3213408000000002,-1
581,582,1583586433179,-12.4298,-1.5065998999999999,2.1835,-2.7650349999999997,-0.28410557,1.0616752,-1
582,583,1583586433190,-11.8216,-1.4853,6.0120000000000005,-2.0907605,-0.27635792,5.4472494000000005,-1
583,584,1583586433200,-11.1658,-1.4080000000000001,11.306399,-1.5018348999999998,-0.06785168,10.874732,-1
584,585,1583586433211,-11.2592,-0.85109997,15.0027,-1.7210671999999998,0.6122548000000001,14.32359,-1
585,586,1583586433222,-11.415899000000001,-0.4001,15.4557,-1.5393088,0.89011633,14.175044,-1
586,587,1583586433232,-10.4485,0.0393,14.899099,0.10188765,1.3867025,14.076891,-1
587,588,1583586433242,-8.1081,0.78859997,15.323298999999999,3.3298748,1.9077956999999999,15.682375,-1
588,589,1583586433252,-5.321000000000001,1.2607,17.1646,5.8136196,1.9860957,18.579138,-1
589,590,1583586433262,-3.4182,1.1597998999999999,20.585,6.716166499999999,0.9944173000000001,22.917679999999997,-1
590,591,1583586433272,-3.1260998,0.038399998,24.8475,6.408981,-0.31647515,26.347912,-1
591,592,1583586433283,-3.5349998,-0.9665,27.3256,6.2190156,-1.1652292,27.797945000000002,-1
592,593,1583586433293,-3.5384998,-1.379,28.2074,6.605382400000001,-1.4556075000000002,27.959065999999996,-1
593,594,1583586433303,-2.813,-1.3895,27.3575,7.8360686,-1.5489814,25.394657000000002,-1
594,595,1583586433313,-1.2691,-1.1398,23.971999999999998,9.582726,-1.3849787,22.004946,-1
595,596,1583586433323,0.4082,-0.87259996,20.991999,10.917829,-1.8544720000000001,20.040915,-1
596,597,1583586433333,1.4538,-1.5932,19.7836,11.796403999999999,-3.6668062000000003,19.271895999999998,-1
597,598,1583586433344,2.1612,-2.9515,19.1598,12.298411,-4.949294,17.952137,-1
598,599,1583586433354,2.6483998,-3.9483998,17.7846,12.563027,-5.9384437000000005,15.518151999999999,-1
599,600,1583586433364,2.8566,-4.6805997,15.319099,12.342367999999999,-6.726691199999999,12.484977,-1
600,601,1583586433374,2.6094,-5.2608,12.3623,12.134283,-7.4540690000000005,9.329706,-1
601,602,1583586433384,2.5054,-5.7696,9.404699,12.177695,-8.222014,6.908603,-1
602,603,1583586433395,2.6329,-6.4203,7.2365,12.364988,-9.546267,4.267109,-1
603,604,1583586433405,2.8941,-7.6260996,4.4031997,12.717032000000001,-11.102497,-0.18913235,-1
604,605,1583586433415,3.3774998,-8.9274,-0.28579998,13.689010999999999,-12.247452000000001,-5.7881355,-1
605,606,1583586433425,4.5741997,-9.7863,-5.7641,15.195901999999998,-12.931600999999999,-10.394513,-1
606,607,1583586433435,6.1878,-10.1221,-9.787499,16.443873999999997,-12.583397999999999,-12.266347999999999,-1
607,608,1583586433446,7.2792997,-9.3452,-10.9914,15.828729000000001,-11.73698,-12.271931,-1
608,609,1583586433456,6.2028,-8.5197,-10.8849,13.263897,-11.985709,-13.309435,-1
609,610,1583586433466,3.6613,-8.832,-12.3071995,11.648337,-12.545339,-17.729589999999998,-1
610,611,1583586433476,2.5570998,-9.1895,-16.144000000000002,12.151876,-12.883449,-21.60675,-1
611,612,1583586433486,3.1043,-9.4486,-19.9403,13.060715,-13.314175,-23.622792999999998,-1
612,613,1583586433496,4.3196,-9.9005995,-22.274898999999998,14.531348000000001,-13.455471,-25.569117000000002,-1
613,614,1583586433507,5.5769997,-9.8931,-23.7001,14.753570000000002,-12.888467,-25.572315,-1
614,615,1583586433517,5.8187,-9.2936,-23.6271,13.445712,-12.128126,-24.301281,-1
615,616,1583586433527,4.5202,-8.561299,-22.2848,10.917981,-11.45048,-23.28637,-1
616,617,1583586433537,1.9854,-7.9343996,-21.2351,8.129742,-10.717979,-22.383364,-1
617,618,1583586433548,-3.4506,-6.6323,-19.2444,5.266592500000001,-9.89017,-20.846275,-1
618,619,1583586433558,-4.3827,-6.133899700000001,-17.7001,4.624755,-9.314862,-19.354774,-1
619,620,1583586433568,-4.4495,-5.6141,-16.1409,4.624736,-8.694754,-17.633114000000003,-1
620,621,1583586433578,-4.4495,-5.6141,-16.1409,4.5418487,-8.325118,-16.436625,-1
621,622,1583586433588,-5.1043,-4.7545,-12.6758995,3.9292392999999994,-7.8091774,-14.135549,-1
622,623,1583586433599,-5.7341,-4.602999700000001,-11.3305,3.3245980000000004,-7.6065320000000005,-12.771065,-1
623,624,1583586433609,-6.3935,-4.559,-9.8856,2.6903646,-7.4463024,-11.162314,-1
624,625,1583586433619,-7.0829,-4.2648,-7.4501995999999995,2.035531,-7.014742999999999,-8.535625999999999,-1
625,626,1583586433629,-7.821099799999999,-3.8305998,-4.8184,1.3139857,-6.521844000000001,-5.9860597,-1
626,627,1583586433639,-8.4697,-3.5712998,-2.9396,0.7975085999999999,-6.195332,-4.185764,-1
627,628,1583586433649,-8.554999,-3.2243998,-1.8381,0.81800294,-5.779296400000001,-3.2196267000000005,-1
628,629,1583586433660,-8.34,-2.8192,-1.3256999,1.0446188,-5.3582807,-2.6143916000000003,-1
629,630,1583586433670,-8.295899,-2.6246998,-0.47349998,1.0821216999999999,-5.214303,-1.3972658000000002,-1
630,631,1583586433680,-8.2572,-2.6836998,0.61039996,1.1603738000000001,-5.223018,-0.21633048,-1
631,632,1583586433690,-8.1174,-2.5772,1.9326999,1.3429748,-5.1067553,1.4621868999999998,-1
632,633,1583586433700,-8.0641,-2.405,4.0463,1.2594553999999998,-4.8174496,3.9486227,-1
633,634,1583586433710,-8.3821,-1.8432,6.6429996,0.9058893,-4.301643,5.967681400000001,-1
634,635,1583586433720,-8.9628,-1.2392,8.565599,0.26068070000000004,-3.703849,8.157860000000001,-1
635,636,1583586433730,-9.293799,-0.9079999999999999,9.888599000000001,0.017688362,-3.5102828,9.368117999999999,-1
636,637,1583586433740,-9.4678,-0.63229996,11.199699,-0.1455579,-3.3058657999999994,11.151273,-1
637,638,1583586433750,-9.442599000000001,-0.355,12.6536,0.019565416000000002,-3.0348134,12.604714999999999,-1
638,639,1583586433760,-9.051,0.1911,14.270598999999999,0.5411566,-2.5367333999999997,14.606124,-1
639,640,1583586433770,-8.325,0.8943,16.7666,1.277048,-2.0033338,17.506853,-1
640,641,1583586433780,-7.5195,1.36,19.4657,2.0118668,-1.8977207999999999,19.982275,-1
641,642,1583586433791,-6.89,1.4775,20.9294,2.3832647999999996,-2.0657842,20.782131,-1
642,643,1583586433801,-6.7008996,1.3346,20.5285,2.4659128,-2.4412142999999995,20.018024,-1
643,644,1583586433812,-6.3427,1.1874,19.4399,3.237085,-2.7667682,19.127996,-1
644,645,1583586433822,-5.1947,1.1949999,18.9744,4.594022799999999,-3.1530106,19.258759,-1
645,646,1583586433832,-3.6294,0.8147,19.1617,6.1356306,-4.023207,19.32568,-1
646,647,1583586433843,-1.9532,0.12789999,18.7634,7.5866313,-4.880896,18.732235,-1
647,648,1583586433853,-0.52349997,-0.354,17.952799,8.476709,-5.650728,17.7235,-1
648,649,1583586433863,0.2532,-1.0403,16.787699,8.766628,-6.682351,16.628248000000003,-1
649,650,1583586433873,0.41369998,-1.8070998999999999,15.622299,8.507796,-7.648976299999999,15.433991,-1
650,651,1583586433883,0.2531,-2.5942,14.213598999999999,8.314278,-8.806947000000001,13.481798000000001,-1
651,652,1583586433894,0.3333,-3.3007998,12.4276,8.464402999999999,-9.358934,12.170933999999999,-1
652,653,1583586433904,0.75509995,-3.7979,10.606899,9.159947,-10.253963,9.378594999999999,-1
653,654,1583586433914,1.6768,-4.2924,7.7173996,9.988639,-10.522794000000001,6.732792,-1
654,655,1583586433924,2.9111998,-4.2855,4.4715,10.869311,-10.401112,4.581937,-1
655,656,1583586433934,3.7182,-3.9355,2.8683,10.547713,-10.614004,4.393178,-1
656,657,1583586433945,3.1501,-4.1576,3.1144998,9.298351,-11.193419,5.8623465999999995,-1
657,658,1583586433955,1.9986,-4.6411,4.5733,7.840129400000001,-11.801882,6.5956526,-1
658,659,1583586433965,0.6475,-5.0425,4.8724,6.425836599999999,-12.159441000000001,5.592625599999999,-1
659,660,1583586433975,-0.5029,-5.3476,3.5377,6.2885528,-12.897402,3.142859,-1
660,661,1583586433986,-0.1891,-6.030999700000001,0.6863,7.515867999999999,-13.544985999999998,-0.14878526,-1
661,662,1583586433996,1.328,-6.528,-2.5625,9.093293,-14.058426999999998,-2.3542857,-1
662,663,1583586434007,3.023,-6.9771,-4.536299700000001,10.245861,-14.855878,-3.3497470000000003,-1
663,664,1583586434017,4.1631,-7.6682,-5.5089999999999995,10.746509,-14.996092,-3.8072307,-1
664,665,1583586434027,4.6345997,-7.598799700000001,-5.8849998,10.253361,-14.725979,-3.3632595999999997,-1
665,666,1583586434037,3.5384,-7.2346997,-5.6370997,9.346178,-14.737929000000001,-3.4884763,-1
666,667,1583586434048,3.5384,-7.2346997,-5.6370997,9.238372,-14.729320999999999,-4.21775,-1
667,668,1583586434059,4.0801,-7.2883997,-8.0851,10.020223,-14.906242,-5.917155,-1
668,669,1583586434069,5.1668997,-7.4014997000000005,-9.627299,11.043916000000001,-14.990853,-7.2733550000000005,-1
669,670,1583586434079,6.2307997,-6.9997997000000005,-10.3359995,11.989607000000001,-14.444085000000001,-7.644408,-1
670,671,1583586434089,6.6166,-6.0165997,-9.7323,12.100918,-13.43535,-6.8503666,-1
671,672,1583586434099,6.6166,-6.0165997,-9.7323,11.238172,-12.629930499999999,-5.7302823,-1
672,673,1583586434110,4.6998997000000005,-4.5192,-7.3886,9.795158,-11.821045,-4.0572047,-1
673,674,1583586434120,3.1295,-3.5498998,-5.1194997,8.208779,-10.909151,-1.6586071,-1
674,675,1583586434130,1.2861999,-2.8834999,-3.1713998,6.2096972,-10.267496000000001,-0.06665457,-1
675,676,1583586434140,-0.2993,-2.4105,-2.7768,5.127863,-9.842908,-0.07198885,-1
676,677,1583586434150,-1.2465,-1.9476,-3.5119,4.2505125999999995,-9.274218,-1.1548862,-1
677,678,1583586434160,-1.4567,-1.6539999,-4.6412997,4.390755,-9.043523,-2.0187526,-1
678,679,1583586434170,-0.9539,-1.5238,-4.8963,5.023648000000001,-8.971677,-1.6766691000000002,-1
679,680,1583586434180,-0.3931,-1.6258999,-3.7631997999999998,5.4127345,-9.202430999999999,-0.23370282,-1
680,681,1583586434190,-0.3584,-1.9083999,-2.1218,5.319763,-9.357316,1.114319,-1
681,682,1583586434200,-0.8301,-1.7997999,-0.31309998,4.683652400000001,-9.183219,3.099227,-1
682,683,1583586434211,-1.3721,-1.6469999999999998,0.7902,4.245523,-9.034453,3.5926527999999998,-1
683,684,1583586434222,-1.6919999,-1.5281,0.45709997,4.071982,-8.896212,2.827897,-1
684,685,1583586434232,-1.6909999999999998,-1.3518,-0.6595,4.298291000000001,-8.709483,1.6219568000000002,-1
685,686,1583586434242,-1.351,-1.2511,-1.4757999,4.720896700000001,-8.617258999999999,1.1121929,-1
686,687,1583586434252,-0.8814,-1.1359999,-1.6766,5.1002817,-8.393956,1.4138719,-1
687,688,1583586434262,-0.6392,-0.88,-1.1186,5.1053576,-8.206155,2.1567925999999997,-1
688,689,1583586434272,-0.8021,-0.7704,-0.41509998,4.839429,-8.111431,2.5346932,d
689,690,1583586434283,-1.0741999,-0.6228,-0.2023,4.655496599999999,-7.929721000000001,2.578996,-1
690,691,1583586434293,-1.1573,-0.45589998,-0.20189999,4.744867299999999,-7.76905,2.5244557999999997,-1
691,692,1583586434303,-0.94229996,-0.2888,-0.21859999,5.051612400000001,-7.603256699999999,2.5360916000000002,-1
692,693,1583586434313,-0.6658,-0.1017,-0.25,5.207733599999999,-7.4059935,2.434472,-1
693,694,1583586434323,-0.5556,0.0458,-0.36159998,5.272396,-7.3842735,2.3340116,-1
694,695,1583586434334,-0.524,-0.021599998999999998,-0.51019996,5.346693,-7.4995970000000005,2.1160528999999997,-1
695,696,1583586434344,-0.43379998,-0.0875,-0.664,5.502268,-7.601686,2.2846813,-1
696,697,1583586434354,-0.27539998,-0.2393,-0.3786,5.598764,-7.853986999999999,2.7249463,-1
697,698,1583586434364,-0.1372,-0.5563,0.2651,5.817623,-8.236686,3.5467800000000005,-1
698,699,1583586434374,0.0502,-0.82479995,0.9461,5.969176,-8.354700999999999,3.8869385999999997,-1
699,700,1583586434384,0.17999999,-0.9296,1.1553,5.9975424,-8.409423,3.6604087,-1
700,701,1583586434395,0.2039,-0.98039997,0.8276,6.0587480000000005,-8.438757,3.0170677,-1
701,702,1583586434405,0.3173,-0.9957,0.0849,6.4123235,-8.480167,2.0025964,-1
702,703,1583586434415,0.7456,-1.0803,-1.0141,7.058987599999999,-8.712739,1.19169,-1
703,704,1583586434425,1.4362,-1.3485999,-1.6204,7.6910954,-9.123038000000001,1.6586741999999999,-1
704,705,1583586434435,1.9813999,-1.8185999,-0.91419995,7.973908,-9.980747000000001,2.9848513999999997,-1
705,706,1583586434446,2.2475998,-2.7961,0.5347,8.546055,-11.218845,4.300561,-1
706,707,1583586434456,2.904,-3.9731,1.704,9.575438,-11.824071,4.2999,-1
707,708,1583586434466,3.9657,-4.4412,1.4068999,10.595684,-12.319842999999999,2.6734134999999997,-1
708,709,1583586434476,4.7532,-4.91,-0.047199998,11.274545,-12.973747999999999,1.0638971000000002,-1
709,710,1583586434486,5.4110000000000005,-5.5931,-1.6854999,12.102632,-13.49261,0.29916987,-1
710,711,1583586434496,6.2095,-6.1412997,-2.4724998,13.383702,-14.113273999999999,-0.27024794,-1
711,712,1583586434506,7.4589,-6.7861,-3.0279,14.724867000000001,-14.929571,-0.94253016,-1
712,713,1583586434517,8.741799,-7.6274,-3.6573,15.961098999999999,-15.770482000000001,-1.0087059999999999,-1
713,714,1583586434527,9.9043,-8.502399,-3.6481998,16.980473,-16.380352,-0.7703392,-1
714,715,1583586434537,10.8352995,-9.152999999999999,-3.2998,17.50376,-16.552322,-0.6500066,-1
715,716,1583586434547,11.290299000000001,-9.391399,-3.0811,17.347676999999997,-16.423735,-1.1624233,-1
716,717,1583586434557,10.9284,-9.3412,-3.4304,16.541452,-16.136719,-1.533467,-1
717,718,1583586434567,9.9601,-9.1697,-3.6790998,15.602764,-15.628946,-1.738516,-1
718,719,1583586434578,7.8353,-8.2705,-4.3097997,14.619760999999999,-14.806633999999999,-2.5081754000000003,-1
719,720,1583586434589,6.8118,-7.7707,-4.4769,13.787806,-14.145499,-2.6596900000000003,-1
720,721,1583586434599,5.7627997,-7.273699799999999,-3.9019999999999997,12.930192,-13.435503,-2.1344595,-1
721,722,1583586434609,4.700599700000001,-6.5635,-2.8363,12.029973,-12.514205,-1.1951473,-1
722,723,1583586434619,3.5119,-5.9445996,-1.5724,11.058195,-11.736310000000001,-0.07615477,-1
723,724,1583586434629,2.5544,-5.3665,0.14400000000000002,10.354175999999999,-10.924771,1.5340321000000001,-1
724,725,1583586434639,1.8902999,-4.8479,2.0491,9.826417,-9.987815,3.5115947999999997,-1
725,726,1583586434649,1.2358999,-4.1928997,3.7326,9.177799,-9.189386,4.910757,-1
726,727,1583586434660,0.1109,-3.9505,5.4905996,8.297489,-8.846230499999999,6.2158647,-1
727,728,1583586434670,-1.3665999,-3.6292998999999995,6.8504996,6.9261193,-8.26533,7.192286999999999,-1
728,729,1583586434680,-2.9998999,-3.2552998,6.5172,5.3905926,-7.418012599999999,5.843164,-1
729,730,1583586434690,-3.582,-2.6078,4.5364,5.50856,-6.325059400000001,3.7835186000000003,-1
730,731,1583586434700,-2.9171999,-1.5574,2.9241998,6.4167385,-5.080936400000001,2.2140715,-1
731,732,1583586434711,-2.2544,-1.2113,1.7397,6.9614,-5.005269999999999,1.1913068000000002,-1
732,733,1583586434721,-2.3897998,-1.8643999,1.5515,6.530645,-5.3698783,1.4722426000000002,-1
733,734,1583586434731,-3.3618998999999996,-2.3459,3.0655,5.442643,-5.3958316,3.20982,-1
734,735,1583586434741,-4.843999999999999,-2.5307999,5.082,3.883989,-5.124348,5.0179787000000005,-1
735,736,1583586434751,-6.5407996,-2.378,6.9723997,2.4370580000000004,-4.4985037000000005,6.6613107000000005,-1
736,737,1583586434762,-7.6569,-1.8317,8.314899,1.592259,-3.3870006,7.444281599999999,-1
737,738,1583586434772,-8.3102,-0.7905,8.3077,1.0260974,-2.0162625,6.577350999999999,-1
738,739,1583586434782,-8.716599,-0.3557,7.0260997000000005,0.95534396,-1.7847146,4.5952106,-1
739,740,1583586434792,-8.4934,-0.3997,4.7040997,1.5159223,-1.5134516000000002,2.634072,-1
740,741,1583586434802,-7.5923996,-0.1497,2.3574,2.4703276,-1.002481,0.32708627,-1
741,742,1583586434813,-6.89,0.1353,0.62839997,2.8555262000000003,-0.43087970000000003,-1.0169708,-1
742,743,1583586434823,-6.960099700000001,0.4219,0.20799999,2.6534936,-0.00914585,-0.5799906,-1
743,744,1583586434833,-7.069,0.7064,1.3192999,2.6043553,0.81224734,1.5500541,-1
744,745,1583586434843,-7.2748,1.4714999,3.8119,2.041507,1.7335073,3.9834347,-1
745,746,1583586434854,-8.0457,2.0362,5.8592,1.0443412,2.3145034,5.324312,-1
746,747,1583586434865,-8.8321,2.2919,6.4894,0.6696965,2.5522668,4.7526054,-1
747,748,1583586434875,-9.065599,2.251,5.7077,1.0456437,2.2168488999999996,3.8367273999999996,-1
748,749,1583586434885,-8.4737,1.7141,4.805,2.4750874,1.6863223000000003,2.4617279,-1
749,750,1583586434895,-6.93,1.1661999,3.2586,4.0764154999999995,1.6141708000000001,0.14353718,-1
750,751,1583586434906,-5.6514,1.0828999,1.3073,4.330019,1.6670731,-1.0792583,-1
751,752,1583586434916,-5.3928,1.0781,-0.1094,4.260137,1.9935848000000003,-1.8110412,-1
752,753,1583586434926,-5.468,1.4240999,-0.6732,4.348598,2.7169304,-1.3728927,-1
753,754,1583586434936,-5.3669,1.9606999,-0.22039999,4.522944,2.9987664,-0.43007523,-1
754,755,1583586434946,-5.1959,2.1719,0.71639997,4.607325,2.99506,0.30888075,-1
755,756,1583586434956,-5.0855,2.1155999,1.6231999,4.672715,2.4755087000000002,1.5209118000000001,-1
756,757,1583586434967,-5.0441,1.579,2.6315,4.9199985999999996,1.5741302,1.9393224999999998,-1
757,758,1583586434977,-4.7984,0.6814,3.0535,5.747587,0.7205876999999999,1.5919908,-1
758,759,1583586434987,-3.9671,-0.1554,2.7035,6.9808598,0.46232992,0.4093989,-1
759,760,1583586434997,-2.7465,-0.3885,1.4955,8.009964,0.66234154,-1.5068531,-1
760,761,1583586435008,-1.0439,0.1889,-2.2454,8.763150999999999,1.0364594,-3.6026510999999997,-1
761,762,1583586435018,-0.9102,0.4021,-3.4341998,8.798844,1.1706306,-4.4947976999999995,-1
762,763,1583586435028,-1.1353999,0.2173,-2.9099,8.55137,0.9106489999999999,-3.5798392,-1
763,764,1583586435038,-1.3079,-0.20439999,-0.6922,8.399242,0.49522626,-1.2797583000000001,-1
764,765,1583586435049,-1.3713,-0.4926,1.5135,8.373117,0.25064418,0.83502096,-1
765,766,1583586435059,-1.2695,-0.6473,2.8755999,8.479085000000001,0.13925634,1.8743727,-1
766,767,1583586435070,-1.0440999,-0.6217,2.7508,8.755692,0.18940051,1.4568622,-1
767,768,1583586435080,-0.61579996,-0.4939,1.3730999,9.310112,0.259225,-0.326368,-1
768,769,1583586435090,-0.12,-0.54469997,-0.078,9.801354,0.16450079999999997,-1.6156648,-1
769,770,1583586435100,-0.12,-0.54469997,-0.078,10.130873,0.14864162,-2.345954,-1
770,771,1583586435110,0.6383,-0.5811,-1.8593998999999999,10.519711000000001,0.04699339,-3.0619159,-1
771,772,1583586435121,0.9511,-0.70449996,-1.9769999999999999,10.773496000000002,-0.07612604,-2.8369663,-1
772,773,1583586435131,1.0891,-0.7211,-1.2629,10.845753,0.0086382795,-1.9178226000000003,-1
773,774,1583586435141,1.1007,-0.4849,-0.242,10.763,0.36678213,-0.7251271,-1
774,775,1583586435151,0.8761,-0.26999998,0.7108,10.507097,0.43701842,-0.20526928,-1
775,776,1583586435162,0.3667,-0.19659999,1.1771,9.892286,0.5624363,0.11877156,-1
776,777,1583586435172,-0.114199996,-0.0799,0.9995,9.528148,0.65458435,-0.13510959,-1
777,778,1583586435182,-0.20359999,-0.092,0.77129996,9.561685,0.5800097,-0.42984540000000004,d
778,779,1583586435192,-0.0774,-0.2233,0.312,9.757962,0.42770020000000003,-0.84290266,-1
779,780,1583586435202,0.1962,-0.4086,0.0951,10.124686,0.15529749999999998,-1.0646441,-1
780,781,1583586435212,0.5097,-0.60389996,-0.2042,10.446726,0.078979924,-1.6080703,-1
781,782,1583586435223,0.863,-0.5097,-0.75699997,10.83335,0.44744757,-1.9165393,-1
782,783,1583586435233,1.227,-0.041699997999999995,-0.79719996,11.023642,0.8094892,-1.7190846999999998,-1
783,784,1583586435243,1.2093999,0.2483,-0.36569998,10.716417999999999,1.0595013,-1.0699401000000002,-1
784,785,1583586435253,0.7909,0.4283,0.2929,10.201348,1.2744719,-0.41414902,-1
785,786,1583586435263,0.1574,0.5815,0.91389996,9.439475999999999,1.3932912,0.03517561,-1
786,787,1583586435273,-0.56409997,0.6071,1.2505,8.746143,1.398166,0.36642779999999997,-1
787,788,1583586435283,-1.0606999,0.54219997,1.4697,8.530157,1.3013923,0.35256058,-1
788,789,1583586435293,-1.1665,0.392,1.3015,8.742954,1.1622701000000002,-0.06766972,-1
789,790,1583586435304,-0.7929999999999999,0.3215,0.7977,9.225693,1.2432228,-0.60648006,-1
790,791,1583586435314,-0.23349999,0.5397,0.5491,9.756286,1.5753465,-0.30556718,-1
791,792,1583586435324,0.091199994,0.8420000000000001,1.1656,9.594399000000001,1.742998,0.7255963000000001,-1
792,793,1583586435334,-0.38709998,0.90849996,2.3323998,8.609377,1.8415433,1.9010153000000003,-1
793,794,1583586435344,-1.2863,0.99549997,3.1757998,7.7224307,2.0125468,2.5775115,-1
794,795,1583586435354,-2.1464999,1.1601,3.8983998,6.8958087,2.0337498,3.6602172999999993,-1
795,796,1583586435364,-2.978,1.1043999,5.0896,5.880532700000001,1.9194028000000003,4.811713,-1
796,797,1583586435375,-4.0559998,0.9888,6.139199700000001,4.651924,1.9455953999999998,5.545421599999999,-1
797,798,1583586435385,-5.2928,1.0698,6.8573,3.5142286,2.1850537999999995,6.2518067,-1
798,799,1583586435395,-6.4326,1.3379999,7.5351,2.3706045,2.5276257999999996,7.2601104,-1
799,800,1583586435405,-7.572499799999999,1.7730000000000001,8.7588,1.2637364,3.269943,9.722709,-1
800,801,1583586435416,-8.6723995,2.5895,11.456699,0.016548721000000002,3.8927422,12.407969,-1
801,802,1583586435426,-9.937999999999999,3.1759999,14.043799,-1.3015358,4.092361,14.00247,-1
802,803,1583586435436,-11.2237,3.3755,15.316298999999999,-2.0914598,4.1299790000000005,14.021948000000002,-1
803,804,1583586435446,-11.8629,3.4835,15.2028,-2.2894409,3.5758553,13.551363,-1
804,805,1583586435456,-11.991199499999999,3.1137998,14.8656,-1.9800813999999998,2.7799267999999997,12.899768,-1
805,806,1583586435467,-11.6751995,2.5093,14.2751,-1.1123652,1.9330019,11.883754,-1
806,807,1583586435477,-10.8039,1.882,13.3359995,-0.49373227,0.9444168,10.217754,-1
807,808,1583586435487,-10.1579,1.1421,11.7813,-0.42970175,-0.5215816,8.404041000000001,-1
808,809,1583586435497,-10.056399,-0.0307,10.104199000000001,-0.104042426,-2.764939,6.27096,-1
809,810,1583586435507,-9.6821995,-1.9907,8.1382,0.8875784,-5.3758636,2.980168,-1
810,811,1583586435518,-8.6535,-4.2897,5.036299700000001,2.6616914,-7.675571400000001,-0.7361883,-1
811,812,1583586435528,-6.7963996,-6.2581,1.5074999,4.893968599999999,-9.256176,-4.3802876,-1
812,813,1583586435539,-2.2898998,-8.019299499999999,-5.2514,7.3837943,-10.357277999999999,-8.1420765,-1
813,814,1583586435549,-0.46339998,-8.651999,-7.2008,8.980383,-11.3903675,-9.949833,-1
814,815,1583586435559,0.73749995,-9.6749,-9.033899,10.020548,-12.884253,-11.814275,-1
815,816,1583586435569,1.844,-11.2395,-11.488199,11.082156,-14.863788000000001,-14.384967000000001,-1
816,817,1583586435579,3.1739,-13.2434,-14.5169,12.697055,-17.698906,-17.889475,-1
817,818,1583586435589,5.145,-15.0413,-16.997099,14.399601,-19.106028,-19.632061,-1
818,819,1583586435599,7.671,-15.4737,-18.9488,16.786695,-19.477318,-21.461643,-1
819,820,1583586435609,9.3756,-14.5463,-20.1694,18.079622,-18.632270000000002,-22.166218,-1
820,821,1583586435619,9.2451,-13.3640995,-18.9301,17.47908,-17.630106,-20.48975,-1
821,822,1583586435629,6.9712,-12.5169,-17.2638,14.182887,-16.935910999999997,-18.585860999999998,-1
822,823,1583586435640,4.1693997000000005,-12.2026,-16.426699,12.026277,-16.644539,-17.737616,-1
823,824,1583586435650,2.5441,-11.366799,-15.816199,10.951002,-15.677109,-17.187382,-1
824,825,1583586435660,2.6176999,-10.2494,-16.0849,11.465899,-14.532239,-17.295465,-1
825,826,1583586435670,3.383,-9.285399,-16.425998999999997,12.209710000000001,-13.709112,-17.351776,-1
826,827,1583586435680,3.7747998,-8.7822,-16.219,12.304117999999999,-13.520689,-16.742643,-1
827,828,1583586435690,3.0384,-8.7838,-14.6697,10.989184,-13.311475,-14.402607000000001,-1
828,829,1583586435700,0.99219996,-8.1465,-12.1935,8.492253,-12.374537,-11.568485,-1
829,830,1583586435710,-2.037,-7.1931,-9.019299499999999,5.4862747,-11.389629,-8.324525,-1
830,831,1583586435720,-4.6264997,-6.3816,-6.1877,3.4514139999999998,-10.521999000000001,-5.7964487,-1
831,832,1583586435730,-5.7553,-5.6492,-4.2357,3.0240395,-9.902285000000001,-4.431351,-1
832,833,1583586435741,-5.1119,-5.1287,-3.7902,4.2461743,-9.350527,-4.4035687,-1
833,834,1583586435751,-3.6783,-4.8132,-4.6387997,5.64706,-9.1463,-5.220911,-1
834,835,1583586435761,-2.6083998999999998,-4.8849998,-5.5123,6.442988400000001,-9.387464,-5.785138,-1
835,836,1583586435771,-2.1359,-5.2229,-5.5306997,6.7038894,-9.7569275,-5.1110077,-1
836,837,1583586435781,-2.1094,-5.6207,-3.8727998999999995,6.578844500000001,-10.032978,-3.0304945,-1
837,838,1583586435791,-2.5217,-5.5926,-1.5942,5.983771,-9.811496,-0.719132,-1
838,839,1583586435802,-3.4008,-5.2337,0.68399996,5.044803,-9.250008,1.4458201000000002,-1
839,840,1583586435812,-4.271,-4.4554,2.5686998,4.357227,-8.414498,2.8654474999999997,-1
840,841,1583586435822,-4.6938,-3.7526998999999996,3.1991,4.2276144,-7.5705614,3.2862334000000004,-1
841,842,1583586435832,-4.4191,-3.095,3.5753998999999994,4.871769400000001,-7.1027727,3.8100848,-1
842,843,1583586435842,-3.6099,-2.7201,4.0508,5.6833177,-6.961419,4.0589379999999995,-1
843,844,1583586435852,-2.8871,-2.7247,3.9060998,6.394262,-7.402354700000001,3.4324712999999996,-1
844,845,1583586435863,-2.02,-3.2452,3.0997999,7.2299814,-7.6674504,3.0505674,-1
845,846,1583586435873,-0.94,-2.9878,3.6359,8.350314,-6.9949284,5.109465599999999,-1
846,847,1583586435883,-0.1601,-2.3009999,6.2718997000000005,8.786769,-6.569,7.637608999999999,-1
847,848,1583586435893,0.2999,-1.9004999,9.914499000000001,9.453937,-6.1541996,12.558,-1
848,849,1583586435903,0.90529996,-1.6707,14.198998999999999,9.847131,-6.2313695,15.915169,-1
849,850,1583586435913,1.2476,-1.791,16.4301,10.158042,-6.2408220000000005,16.441357,-1
850,851,1583586435923,1.5349,-1.6316998999999999,15.7808,10.476299000000001,-5.9052315,15.195241000000001,-1
851,852,1583586435934,2.0533,-1.1352999,14.4512,11.423492999999999,-5.1244345000000004,14.571782,-1
852,853,1583586435944,3.3111,-0.21689999,14.167998999999998,13.103111,-4.382691400000001,15.350989000000002,-1
853,854,1583586435954,5.165,0.2846,15.357698999999998,15.022256,-4.336723,17.551605,-1
854,855,1583586435964,6.5469,0.22049999,17.1779,15.365326000000001,-4.363241,18.87738,-1
855,856,1583586435974,6.5881996,0.2259,18.1709,14.375735,-4.1103272,18.765158,-1
856,857,1583586435985,5.4469,0.46399999999999997,17.7444,13.402807999999999,-3.5706646,17.742731,-1
857,858,1583586435996,4.5822,1.0045,16.5238,13.015015,-2.6516838,15.543473,-1
858,859,1583586436006,4.2749,1.6933,14.5095,12.976056,-2.2714748,13.861125,-1
859,860,1583586436016,4.1932,1.9779999,12.7477,12.935048,-2.2082777,12.42175,-1
860,861,1583586436027,4.12,1.9595,11.2466,12.952449,-2.4010012,10.893619000000001,-1
861,862,1583586436037,4.1419997,1.5893999,9.3403,13.309626000000002,-3.2780068,9.385261,-1
862,863,1583586436047,4.4149,0.7211,8.2044,14.282878,-4.4854317,8.777345,-1
863,864,1583586436057,5.351,-0.57879996,7.6537,14.748560999999999,-5.145092,7.887219,-1
864,865,1583586436067,5.7636,-1.3287,6.8303,14.233644,-5.643746,6.2291093,-1
865,866,1583586436077,5.2012997,-1.9372,5.236399700000001,13.809832,-5.901017700000001,4.355742,-1
866,867,1583586436088,4.6671,-2.3416997999999998,2.9438,13.714179000000001,-6.043712,1.9053248,-1
867,868,1583586436098,4.5752997,-2.583,1.0106,14.162420999999998,-6.126561,0.8779825000000001,-1
868,869,1583586436108,5.3166,-3.1776998,-0.4069,14.589575,-6.4576125,0.23332931,-1
869,870,1583586436118,5.1949997,-3.6783,-1.0711,14.4184,-6.825055,-0.5371151999999999,-1
870,871,1583586436128,4.5512,-3.9675998999999997,-1.2677,13.730363,-6.8909245,-0.6254516999999999,-1
871,872,1583586436139,3.5435,-4.1918,-0.58529997,12.756326,-6.985475999999999,0.05626374,-1
872,873,1583586436149,2.7533,-4.5143,0.33789998,12.144703,-7.1212754,0.7656561,-1
873,874,1583586436159,2.5462,-4.6833,0.3978,12.085508,-7.0435686,0.5231617999999999,-1
874,875,1583586436169,2.5591,-4.3652997000000004,-0.2777,12.07846,-6.436974,-0.31095892,-1
875,876,1583586436179,2.1046,-3.9164,-0.9769,11.561111,-5.857807,-1.0695473999999998,-1
876,877,1583586436189,1.2213,-3.7508998,-1.4315,10.695014,-5.519248,-1.4929475,-1
877,878,1583586436199,0.2929,-3.6504,-1.6626999,9.778839,-5.228802,-1.8757708999999998,-1
878,879,1583586436209,-0.59139997,-3.5226998,-1.9850999,8.992286,-4.8549147,-2.148365,-1
879,880,1583586436219,-1.1366,-3.0902,-1.4153999,8.513159,-4.1834745,-1.5313122,-1
880,881,1583586436229,-1.7445998999999999,-2.7143,-0.58059996,7.8403883,-3.6506882000000007,-0.8690952,-1
881,882,1583586436240,-2.7192,-2.4355,0.1548,6.8315964000000005,-3.1282349999999997,-0.22771731,-1
882,883,1583586436250,-3.9427,-2.0242999,0.6469,5.316957,-2.4661236,-0.095614836,-1
883,884,1583586436260,-5.0239,-1.9244,0.21579999,4.6178694,-2.362579,-0.6837936,-1
884,885,1583586436270,-5.4146,-2.0613,-0.5141,4.362235500000001,-2.1949754,-1.7710580000000002,-1
885,886,1583586436280,-5.3321,-1.8459999999999999,-1.6421,4.490488,-1.8013111000000002,-3.1189169999999997,-1
886,887,1583586436291,-5.1696,-1.4504,-2.8902,4.648812,-1.1275254,-4.2216,-1
887,888,1583586436301,-5.0927,-0.7366,-3.409,4.5758557,-0.30065426,-4.4641232,-1
888,889,1583586436311,-5.4729,-0.2696,-3.1193,3.9567633,0.17438407,-3.9226407999999995,-1
889,890,1583586436321,-6.3778996,-0.033999998,-1.8927,2.9309912000000002,0.51814353,-2.5490873,-1
890,891,1583586436331,-7.5039997000000005,0.081599995,-0.45899999999999996,1.7308738000000001,0.6761034,-1.4525143,-1
891,892,1583586436342,-8.637199,-0.0413,0.3355,0.6447968000000001,0.65255404,-0.9974148000000002,-1
892,893,1583586436352,-9.5744,-0.12799999,0.56009996,-0.2090138,0.7523635000000001,-1.0286448000000001,-1
893,894,1583586436362,-10.0926,-0.0819,0.3369,-0.47639826,0.91155875,-1.7506977,-1
894,895,1583586436372,-9.937999999999999,0.0414,-0.42119998,-0.09483912,1.2500126,-2.614516,-1
895,896,1583586436382,-9.6001,0.38549998,-1.2257999,0.09606495,1.5490198,-3.5463202000000003,-1
896,897,1583586436394,-9.4789,0.5381,-2.0397,0.13132675,1.5871546,-3.9843154000000003,-1
897,898,1583586436404,-9.4945,0.6566,-2.0463998,-0.22467189,1.9356258999999998,-3.3441919999999996,-1
898,899,1583586436414,-9.8917,0.9421,-1.2274,-0.8943780000000001,2.2430894,-2.2793472,-1
899,900,1583586436426,-10.583,1.2487,-0.0659,-1.6910724999999998,2.7204356,-1.2948608,-1
900,901,1583586436436,-11.3637,1.7500999,0.9454,-2.4122443,3.2957910000000004,-0.49571466,-1
901,902,1583586436446,-12.087999,2.2886,1.7269,-3.4648885999999997,3.5574007000000005,-0.112288065,-1
902,903,1583586436456,-12.9639,2.5091,2.0488,-4.1586804,3.4960804,-0.14479175,-1
903,904,1583586436466,-13.658899,2.5165,2.046,-4.3595443,3.1673276,-0.5602623000000001,-1
904,905,1583586436476,-13.8694,2.2869,1.6580000000000001,-4.068697,2.5864754,-0.6369246999999999,-1
905,906,1583586436487,-13.5848,1.8492,1.5891,-3.4288703999999997,2.083846,-1.0123450999999999,-1
906,907,1583586436497,-12.9595995,1.5123,1.2141,-2.7352316,1.5568248,-1.4296832,-1
907,908,1583586436507,-12.2758,1.1891,0.7794,-2.4127134999999997,0.993134,-1.0069726,-1
908,909,1583586436517,-11.961599,0.8304,1.1843,-2.5052927000000005,0.50617254,-0.04893748,-1
909,910,1583586436527,-12.0556,0.5596,2.1243,-2.6184905,0.12573389999999998,1.0560536,-1
910,911,1583586436537,-12.1748,0.41979998,3.1859999,-2.996123,0.098047346,1.267452,-1
911,912,1583586436548,-12.4657,0.6337,3.3948,-3.3692355000000003,-0.02024537,1.2222017,-1
912,913,1583586436558,-13.058499000000001,0.30589998,3.1947,-3.4835157,-1.0910282,1.2426099,-1
913,914,1583586436568,-12.3441,-0.3843,2.9549,-2.5860537999999997,-2.0387871,1.0537648000000002,-1
914,915,1583586436578,-10.848599,-0.7497,2.8411999,-1.086642,-2.8334036,1.1848233999999997,-1
915,916,1583586436588,-9.421,-1.4106,3.0444999,0.19550093,-3.9042056000000005,1.4858607,-1
916,917,1583586436598,-8.4035,-1.9178,3.072,1.0237894,-4.785617,1.5955151,-1
917,918,1583586436609,-8.1392,-2.7661998,3.0437,0.9841414,-6.218067,1.8045098000000002,-1
918,919,1583586436618,-8.1392,-2.7661998,3.0437,0.46742478,-7.9855339999999995,2.8162133999999996,-1
919,920,1583586436628,-8.3932,-5.214299700000001,4.865,0.6652816,-9.397356,4.086261,-1
920,921,1583586436638,-8.3932,-5.214299700000001,4.865,1.6028798,-10.634412,5.2745986,-1
921,922,1583586436648,-4.9179997,-7.9191,6.5520997,4.148433,-13.1312,5.9649715,-1
922,923,1583586436658,-1.6054,-9.4156,6.3026,7.338669,-15.155910500000001,6.011122,-1
923,924,1583586436669,1.9971999,-11.442699000000001,5.6846,10.623111999999999,-17.65514,5.4358816,-1
924,925,1583586436678,5.2086997,-12.9134,4.4251,13.250604000000001,-19.34263,4.3960705,-1
925,926,1583586436688,5.2086997,-12.9134,4.4251,14.1037245,-20.090933,3.5008017999999996,-1
926,927,1583586436698,6.5636997,-13.5603,1.9977,13.29708,-20.436092000000002,2.6139512000000003,-1
927,928,1583586436708,6.5636997,-13.5603,1.9977,12.715126,-20.00845,2.9874659,-1
928,929,1583586436718,6.6664996,-11.946899,2.3604998999999998,13.002622,-19.350409,3.6127546,-1
929,930,1583586436729,7.6739999999999995,-11.531099000000001,1.1948,13.722185000000001,-19.229816,2.5958127999999996,-1
930,931,1583586436739,8.862599000000001,-11.305699,0.3164,14.549601999999998,-19.19555,2.2041214,-1
931,932,1583586436749,9.816199000000001,-10.9738,0.61219996,15.051522,-18.966003,2.799272,-1
932,933,1583586436759,9.9662,-10.2141,1.4649999,14.510807000000002,-18.286203,4.0788674,-1
933,934,1583586436770,9.0637,-9.8925,2.5514,13.321501000000001,-18.339776999999998,4.917795,-1
934,935,1583586436780,7.4982,-9.9987,2.7026,11.461091999999999,-18.519917,4.832294,-1
935,936,1583586436790,6.8915997,-9.8911,1.7231,11.002687,-18.372673000000002,3.3743207,-1
936,937,1583586436800,7.4842,-9.5342,-0.4461,11.724175,-18.108103,1.3709582,-1
937,938,1583586436810,8.589499,-9.2855,-2.1076,12.572355,-17.871192999999998,0.15750973,-1
938,939,1583586436821,9.3301,-8.7297,-2.8463,12.857974,-17.179804,-0.25558582,-1
939,940,1583586436831,9.344299000000001,-7.7393,-2.9348,12.456649,-16.025370000000002,-0.13001472,-1
940,941,1583586436841,8.671599,-6.3736,-2.4224,11.516282,-14.771392,0.767945,-1
941,942,1583586436851,7.5755,-5.3097,-1.0308,10.155466,-13.962045999999999,2.2195398999999996,-1
942,943,1583586436861,6.0775,-4.9718,0.2539,8.611282000000001,-13.979657000000001,3.2955900000000002,-1
943,944,1583586436872,4.7999997,-5.1851997,1.0057,7.53597,-14.142118,3.7516663,-1
944,945,1583586436882,4.2432,-5.0667,0.695,7.215156599999999,-13.839376999999999,2.8594334,-1
945,946,1583586436892,4.2802997000000005,-4.5951,-0.9938,7.356338,-13.08705,0.85776585,-1
946,947,1583586436902,4.5278997,-3.8040998,-2.5103,7.577073599999999,-12.007773,0.06911582,-1
947,948,1583586436912,4.6776,-2.6664999,-2.8169999999999997,7.337663,-11.067389,0.6346358,-1
948,949,1583586436922,4.1411,-1.875,-1.8574,6.4216795,-10.445998,2.0020506,-1
949,950,1583586436932,3.1353,-1.3233,-0.2559,5.5522304,-10.014285000000001,3.6444442,-1
950,951,1583586436943,2.2603,-0.9565,1.3079,4.7297454000000005,-9.663851,4.88783,-1
951,952,1583586436953,1.3915,-0.6622,2.365,3.8471086000000003,-9.588299000000001,5.451377,-1
952,953,1583586436963,0.5118,-0.7686,2.6039999,3.3228934000000003,-9.784556,5.0913944,-1
953,954,1583586436973,0.276,-0.9264,1.8661,3.5299537000000005,-9.745894,3.9490633,-1
954,955,1583586436983,0.65639997,-0.7475,0.53069997,4.098758,-9.428069,2.6150525,-1
955,956,1583586436994,1.2279999,-0.5099,-0.7899,4.4767838,-9.308378999999999,1.5862736000000002,-1
956,957,1583586437004,1.4006,-0.42589998,-1.5633999,4.4235654,-9.192624,1.4530505,-1
957,958,1583586437014,1.1858,-0.3168,-1.1668,3.9761848,-9.179742999999998,2.7282598,-1
958,959,1583586437024,0.7413,-0.39769998,0.0679,3.8237987,-9.426910000000001,3.8297458,-1
959,960,1583586437034,0.6137,-0.6331,1.1425999,3.8586104,-9.5032,4.318345,-1
960,961,1583586437044,0.5642,-0.6745,1.5454999,3.689053,-9.613228,4.308098,-1
961,962,1583586437055,0.34019998,-0.85899997,1.4980999,3.6636457,-9.945878,3.8764712999999995,-1
962,963,1583586437065,0.3362,-1.1769999,1.0054,3.972172,-10.012313,3.254381,d
963,964,1583586437075,0.66969997,-1.2247,0.3279,4.389405,-10.192213,2.0887685,-1
964,965,1583586437085,1.0232999,-1.5002999,-0.9842,4.810823,-10.574796000000001,1.0093093,-1
965,966,1583586437096,1.4311999,-1.8829999,-1.8166,5.2202697,-10.840457,1.3664379999999998,-1
966,967,1583586437106,1.7504,-2.1949,-1.2136999,5.373546599999999,-11.3814125,2.6072377999999996,-1
967,968,1583586437116,1.7876999,-2.8113,0.2082,5.5343695,-12.276690499999999,4.400648,-1
968,969,1583586437126,1.8636999,-3.5577998,1.7293999,5.759894,-12.896989999999999,5.054035,-1
969,970,1583586437137,2.0176,-4.2021,2.4220998,6.139806,-13.204042000000001,4.925054599999999,-1
970,971,1583586437147,3.2375998,-4.9874997,1.1039,7.1100416,-13.625162,3.7367072,-1
971,972,1583586437158,3.8291998,-5.5583,0.17379999,8.013766,-14.320773,2.623365,-1
972,973,1583586437168,3.8291998,-5.5583,0.17379999,8.686939,-14.64581,2.2032306,-1
973,974,1583586437179,5.7792,-6.4407,-0.821,10.251263,-14.936897,1.9518011999999998,-1
974,975,1583586437189,6.7918,-6.4149,-0.2643,11.177647,-14.868001999999999,2.6151576000000003,-1
975,976,1583586437199,7.5558996,-6.6061997,0.70339996,12.055323,-15.094254000000001,3.4726076,-1
976,977,1583586437209,8.2214,-6.950999700000001,1.3021,12.837939,-15.375372,3.8692214,-1
977,978,1583586437219,8.5556,-7.2089,1.1838,13.201217000000002,-15.511229,3.6194582000000004,-1
978,979,1583586437230,8.5484,-7.6190996,0.5567,13.367651,-15.906548999999998,2.6486957,-1
979,980,1583586437240,8.2364,-7.7121,0.0835,13.298048000000001,-15.768864,2.1482022,-1
980,981,1583586437250,8.0203,-7.5748,-0.5202,13.272898999999999,-15.501575,1.4669656999999998,-1
981,982,1583586437260,7.5154996,-7.3680997,-0.6877,12.764944999999999,-15.111711999999999,1.2293364,-1
982,983,1583586437270,6.6712,-7.1689997000000005,-0.5743,12.203878,-14.851099,1.3573781999999999,-1
983,984,1583586437280,5.9652,-7.0747,-0.0050999997,11.9311495,-14.461831,1.8606490000000002,-1
984,985,1583586437291,5.6183996,-6.6942,0.7172,11.862714,-13.845716,2.3387330000000004,-1
985,986,1583586437301,5.1724,-6.1970997,1.3433,11.546401,-13.165888,2.7284803,-1
986,987,1583586437311,4.3138,-5.8608,2.0033998,10.806008,-12.621035000000001,3.30283,-1
987,988,1583586437321,3.1919,-5.4695,2.8023,9.900072,-11.922989999999999,3.7871578,-1
988,989,1583586437332,3.1919,-5.4695,2.8023,8.756706,-11.112351,3.6664805,-1
989,990,1583586437342,0.9428,-4.7218,2.9078999,8.436755,-10.579239999999999,2.7919455,-1
990,991,1583586437353,0.6443,-4.3598,2.0031,8.635579,-9.781301,1.6218226,-1
991,992,1583586437363,0.6225,-3.8736,1.1158999,8.674489,-9.024053,1.0687813,-1
992,993,1583586437373,0.2572,-3.5137,1.2277,8.089328,-8.507107000000001,1.6710092,-1
993,994,1583586437383,-0.8146,-3.431,2.2461998,6.890072,-8.1027355,2.393723,-1
994,995,1583586437393,-2.3548,-3.2803,2.8583998999999998,5.574448599999999,-7.25944,2.365615,-1
995,996,1583586437404,-3.7698,-2.6028,2.7818,4.3921633,-6.0854764,1.8598542000000002,-1
996,997,1583586437414,-5.0938,-1.8306999,2.3604998999999998,3.186309,-4.6168830000000005,1.324415,-1
997,998,1583586437424,-6.1467,-0.96629995,2.3174999,2.3628376,-3.4443943999999997,1.8513883000000002,-1
998,999,1583586437434,-7.0551996,-0.19849999,3.2148,1.7763827,-2.6694965,2.707191,-1
999,1000,1583586437444,-7.812,0.32259998,4.5337996,1.4273368999999998,-2.1557584,3.9484792,-1
1000,1001,1583586437454,-7.9406,0.1831,5.6106,1.6166128999999998,-2.1320748,4.065718700000001,-1
1001,1002,1583586437464,-7.812,0.0111,5.6801,1.6207405000000001,-1.5503223,3.5560791,-1
1002,1003,1583586437474,-7.934,0.3724,5.1589,0.9687418999999999,-0.9002677,2.7374632,-1
1003,1004,1583586437484,-8.7619,0.7435,4.2921,0.12229582,-0.45907380000000003,1.9467254,-1
1004,1005,1583586437494,-9.8425,1.0741999,3.2380998,-0.9608793,0.35499308,0.49951667,-1
1005,1006,1583586437504,-10.661799,1.5374999,1.8948,-1.2219623,0.9399061,-0.5776347,-1
1006,1007,1583586437514,-10.8256,1.913,0.9765,-0.89248174,1.2298343,-0.55214125,-1
1007,1008,1583586437525,-10.4007,1.9755,1.1906999,-0.07257304,1.2501372,0.06974789,-1
1008,1009,1583586437536,-9.505799,1.8220999,1.8259,1.4122151,0.85819685,0.66067517,-1
1009,1010,1583586437546,-7.8490996,1.1958,2.3158998,3.4017297999999996,-0.026144681,0.39940074,-1
1010,1011,1583586437556,-5.8173,0.2137,1.9077,5.2099839999999995,-0.5392891,-0.44699746,-1
1011,1012,1583586437567,-4.2492,-0.14459999,1.1467,5.501205000000001,-0.008935161,-0.9772078000000002,-1
1012,1013,1583586437577,-4.3328,0.3297,0.5958,3.8382308,0.40234083,-1.4338203999999999,-1
1013,1014,1583586437587,-5.8403997,0.5159,0.23449999,2.0215874,0.5298081,-0.84706855,-1
1014,1015,1583586437597,-7.6499996,0.49749997,0.79649997,1.0876476000000002,0.5177222,0.027073633,-1
1015,1016,1583586437607,-8.5934,0.3669,1.6219,1.8757421000000003,0.56850797,0.68843836,-1
1016,1017,1583586437618,-7.808399700000001,0.3284,2.2812997999999998,3.5570269999999997,0.80615646,0.89121765,-1
1017,1018,1583586437627,-6.1208,0.5265,2.485,5.0172987000000004,0.6986472,0.47540227,-1
1018,1019,1583586437637,-4.6691,0.39119998,2.0623,6.046777,0.19259916,-0.87385494,-1
1019,1020,1583586437647,-3.6299,-0.1116,0.736,6.836470599999999,-0.20521182,-2.4888685,-1
1020,1021,1583586437657,-2.8458997999999998,-0.49499997,-0.87579995,7.3871655,-0.19131587,-3.3874698,-1
1021,1022,1583586437667,-2.2967,-0.4849,-1.7797999,7.443554,-0.08700529,-3.1265976,-1
1022,1023,1583586437678,-2.2365,-0.4118,-1.5212,6.910116,0.02189258,-1.806272,-1
1023,1024,1583586437688,-3.6513,-0.1741,1.2376,5.858094,0.2949082,-0.17357005,-1
1024,1025,1583586437698,-4.2170997,-0.0536,2.0399,5.429293,0.41521204,0.5208825,-1
1025,1026,1583586437708,-4.0497,-0.17539999,2.3242,5.7389779999999995,0.27650157,0.7041921999999999,-1
1026,1027,1583586437718,-3.1102998,-0.3788,2.0902,6.821483,0.010515334,0.37765178,-1
1027,1028,1583586437729,-1.8009,-0.6885,1.3555,8.144384,-0.36302802,-0.41470447,-1
1028,1029,1583586437739,-0.6691,-1.0783,0.6048,9.189980499999999,-0.7747445,-1.1008156999999998,-1
1029,1030,1583586437749,0.0219,-1.1504999,0.031999997999999995,9.772547,-0.74982566,-1.6445484000000001,-1
1030,1031,1583586437759,0.097399995,-0.72679996,-0.82479995,9.752761999999999,-0.33974679999999996,-2.6241887000000004,-1
1031,1032,1583586437769,-0.1184,-0.5133,-2.0403,9.538443,-0.1967555,-3.7534091,-1
1032,1033,1583586437780,-0.1353,-0.45949998,-2.4758,9.597703,-0.12167333,-4.0193667,-1
1033,1034,1583586437790,0.006,-0.3065,-2.1,9.704054,0.06725791,-3.5266593,-1
1034,1035,1583586437800,0.0301,-0.29749998,-1.0278,9.675189,0.0016376339000000002,-2.1053843,-1
1035,1036,1583586437810,-0.0836,-0.4973,0.2847,9.553324,-0.22999659,-0.8947898000000001,-1
1036,1037,1583586437820,-0.159,-0.76379997,1.2781,9.561063,-0.42964430000000003,-0.06770802,-1
1037,1038,1583586437830,0.0191,-0.9152,1.775,9.742965,-0.51849794,0.12428779999999999,-1
1038,1039,1583586437841,0.48049998,-0.9305,1.237,10.406589,-0.496816,-0.8780304,-1
1039,1040,1583586437851,1.0581,-0.8707,0.0155,10.941243,-0.42831309999999995,-2.0576248,-1
1040,1041,1583586437861,1.4872,-0.7132,-1.0185,11.207583999999999,-0.16672263,-3.0273627999999997,-1
1041,1042,1583586437871,1.5231999,-0.42659998,-1.9517,11.196703999999999,0.07653784,-3.901754,-1
1042,1043,1583586437881,1.4611,-0.3188,-2.6933,11.073566,0.23192152,-4.3220224,-1
1043,1044,1583586437891,1.3012999,-0.1365,-2.4366999,10.872625,0.44379880000000005,-3.3464906,-1
1044,1045,1583586437902,1.1234,-0.0841,-1.3226,10.759121,0.48235503,-2.0732445999999998,-1
1045,1046,1583586437912,1.0745,-0.0602,0.0212,10.680898,0.6242833000000001,-0.5507046999999999,-1
1046,1047,1583586437922,0.8118,0.0067,1.4907,10.231353,0.6616041,0.5827104000000001,-1
1047,1048,1583586437932,0.2556,-0.0371,2.3528,9.483759,0.7284311,1.0626136999999998,-1
1048,1049,1583586437942,-0.4856,0.0359,2.4401,8.824021,1.0689249,0.7024588,-1
1049,1050,1583586437952,-1.0411999,0.40539998,1.8998,8.546286,1.336338,-0.17020859,d
1050,1051,1583586437963,-1.0174999,0.44579998,0.787,9.124417999999999,1.2995056,-1.4710933000000002,-1
1051,1052,1583586437973,-0.1321,0.43789998,-0.4466,10.192605,1.4722521000000002,-2.4281034,-1
1052,1053,1583586437983,0.90709996,0.65059996,-1.0928999,10.926639,1.6984849999999998,-2.6204922,-1
1053,1054,1583586437993,1.2785,0.8919,-1.1552,10.561542,1.9628623,-2.4919522,-1
1054,1055,1583586438004,0.4448,1.0756999,-0.9188,9.345172999999999,2.1300254,-1.9333657,-1
1055,1056,1583586438014,-0.8666,1.2131,-0.1481,7.615295,2.417598,-0.47946283,-1
1056,1057,1583586438024,-2.2928998,1.3544999,1.2235,6.4502764,2.544184,0.9798893,-1
1057,1058,1583586438034,-3.4029998999999997,1.4238,2.6141,5.7407403,2.6188736,2.0202465,-1
1058,1059,1583586438044,-3.9236,1.4255999,3.5563998,5.9275355,2.5288131000000003,2.4306512000000002,-1
1059,1060,1583586438054,-3.5927,1.2785,3.9011998,6.5889869999999995,2.4188522999999997,2.245129,-1
1060,1061,1583586438064,-2.9122,1.2447,3.6539,6.9135065,2.4625034,1.8236443,-1
1061,1062,1583586438074,-2.7458,1.3034999,3.2626,6.3085394,2.5798384999999997,1.4511638999999998,-1
1062,1063,1583586438085,-3.5934,1.4813,2.8766,4.5959864,2.6233459,1.2559311000000002,-1
1063,1064,1583586438095,-5.482199700000001,1.4863,2.7881,2.3366833,2.5128584,1.8242285,-1
1064,1065,1583586438105,-7.7339997,1.4395,3.5291,0.40501273,2.5867433999999996,3.3266091,-1
1065,1066,1583586438115,-9.5499,1.5252999,5.1386,-0.7104363,2.4658456,5.0947747,-1
1066,1067,1583586438125,-10.470699,1.4241999,6.9259,-1.1407318000000002,2.4483967,6.7641563,-1
1067,1068,1583586438135,-10.8115,1.4819,8.6654,-1.4129525,2.4388772999999997,8.641976,-1
1068,1069,1583586438146,-11.1153,1.5363,10.618,-1.805477,2.23176,10.355181,-1
1069,1070,1583586438156,-11.540899000000001,1.4125999,12.229799,-2.4190917,1.8612716,10.699964999999999,-1
1070,1071,1583586438166,-12.0609,1.2351999,12.3305,-2.569802,1.5936093,9.10106,-1
1071,1072,1583586438176,-12.2224,1.1547999,10.7062,-2.0999734,1.6778088,6.517055,-1
1072,1073,1583586438186,-11.7661,1.4512,8.0842,-1.2087176000000002,2.1294127,4.9852066,-1
1073,1074,1583586438196,-10.8926,2.1441,6.5025997,-0.0491769,2.0834439,5.624813,-1
1074,1075,1583586438206,-9.723599,2.3508,7.1369996,0.87912214,0.52026004,6.396886,-1
1075,1076,1583586438216,-8.5293,0.5452,8.107699,2.9021173,-2.4338783999999998,7.409192599999999,-1
1076,1077,1583586438226,-6.7395,-1.6162,9.043099,5.4667673,-4.6327515,6.9330144,-1
1077,1078,1583586438236,-4.1295,-3.5173,8.6958,8.321287,-7.2238812,4.121388,-1
1078,1079,1583586438246,-1.2131,-5.8083,5.9974,11.127933500000001,-8.91345,1.0385185,-1
1079,1080,1583586438257,1.6603,-7.165499700000001,2.9873,13.629760000000001,-10.387367999999999,-3.523422,-1
1080,1081,1583586438267,4.2413,-8.2874,-1.5548999,16.152903,-12.315869000000001,-9.890792,-1
1081,1082,1583586438277,6.8338,-9.8598995,-7.9929,18.999445,-14.323770999999999,-16.1962,-1
1082,1083,1583586438287,9.7542,-11.506499,-14.4288,22.082995999999998,-16.472626,-20.597212,-1
1083,1084,1583586438298,12.9154,-13.338799,-18.946299,25.266804,-17.22108,-23.027884,-1
1084,1085,1583586438308,16.1943,-13.8111,-21.469,27.03745,-17.146103,-23.492520000000003,-1
1085,1086,1583586438318,17.9618,-12.979799,-19.956999,26.383746999999996,-16.538427,-20.602058,-1
1086,1087,1583586438328,17.9618,-12.979799,-19.956999,25.081167,-16.28849,-19.181347,-1
1087,1088,1583586438338,12.0928,-11.8032,-15.269898999999999,20.3443,-15.344945999999998,-16.68006,-1
1088,1089,1583586438348,8.9011,-10.8887,-14.223498999999999,17.349028,-14.370276,-15.780327,-1
1089,1090,1583586438358,6.8889,-9.9446,-14.1098995,15.585285999999998,-13.407816,-15.9298115,-1
1090,1091,1583586438368,5.7258997,-9.089499,-15.127998999999999,14.505730999999999,-12.465095,-16.931910000000002,-1
1091,1092,1583586438378,4.4908,-8.0788,-15.6473,13.210792999999999,-11.483855,-17.131681,-1
1092,1093,1583586438388,2.7121,-7.5548997,-14.963698999999998,11.382639,-10.994107000000001,-16.118044,-1
1093,1094,1583586438398,0.7608,-7.3127,-12.749,9.493795,-10.682727,-13.554447,-1
1094,1095,1583586438408,-1.2362,-7.0231,-9.6669,7.450228999999999,-10.172608,-10.448373,-1
1095,1096,1583586438419,-3.6513998999999995,-6.0369997,-6.7858996,5.014119,-8.905405,-7.6065993,-1
1096,1097,1583586438429,-6.3436,-4.6665998,-4.2032,2.376906,-7.404902000000001,-5.1245685,-1
1097,1098,1583586438439,-8.905,-3.6287,-2.2475,-0.04388093,-6.302707,-3.2656336,-1
1098,1099,1583586438449,-10.644299499999999,-2.8056,-0.68009996,-1.5179718,-5.293111,-1.7576505,-1
1099,1100,1583586438460,-11.2358,-1.829,0.2173,-1.8940433,-4.262541000000001,-1.0070012,-1
1100,1101,1583586438470,-11.121099000000001,-1.0796,0.7211,-1.6665366999999998,-3.369657,-0.30309635,-1
1101,1102,1583586438480,-10.9389,-0.6328,1.4598,-1.5275486,-3.1022917999999997,0.5833712,-1
1102,1103,1583586438490,-10.9758,-0.5076,2.2993,-1.5438675,-2.952769,1.5237370000000001,-1
1103,1104,1583586438500,-10.7922,-0.1707,3.3688998,-1.2434622,-2.3630195,2.7891684,-1
1104,1105,1583586438511,-10.545899,0.7084,5.1770997,-1.2166854,-1.4854393,5.118114,-1
1105,1106,1583586438521,-10.933499000000001,1.3665999,8.1879,-1.8431618000000003,-1.0864791,8.410630000000001,-1
1106,1107,1583586438531,-11.7283,1.5742999,11.160299,-2.566115,-0.97921896,10.858901,-1
1107,1108,1583586438542,-12.1721,1.6976,12.505,-2.8844192000000004,-0.99458015,11.60482,-1
1108,1109,1583586438552,-12.2224,1.6754999,12.406099000000001,-2.7354232999999994,-1.2584882,11.258485,-1
1109,1110,1583586438562,-11.5429,1.6635,11.6095,-1.431206,-1.1289523000000001,10.245536,-1
1110,1111,1583586438572,-9.9746,2.3430998,10.943,0.57361245,-0.38783193,10.8675785,-1
1111,1112,1583586438582,-7.6741,3.3316,12.6331,2.7920702,0.22060175,14.465978,-1
1112,1113,1583586438592,-5.6435,3.8067,17.228899,4.0457315000000005,-0.35434186,19.732770000000002,-1
1113,1114,1583586438603,-4.7476997,2.9113998,22.143099,4.406068299999999,-2.1075106,23.35879,-1
1114,1115,1583586438613,-4.3984,1.2765,24.435098999999997,4.6312957,-4.118056,23.633615,-1
1115,1116,1583586438623,-3.8063,-0.5056,23.1952,5.8657846,-6.030994000000001,21.248215,-1
1116,1117,1583586438633,-1.9763,-1.7054,20.0903,7.85392,-6.731547,18.153267,-1
1117,1118,1583586438643,0.3645,-1.75,16.8954,10.668677,-6.981856,15.978672,-1
1118,1119,1583586438653,2.9147,-1.7802999,15.465898999999999,12.497599000000001,-7.8601160000000005,16.48475,-1
1119,1120,1583586438664,5.2132,-2.9215,16.5656,14.587632000000001,-9.686433000000001,18.891869,-1
1120,1121,1583586438674,7.0063996,-4.1489997,18.3081,15.625145000000002,-10.863805000000001,19.551214,-1
1121,1122,1583586438684,8.393599499999999,-5.4038997,18.3993,16.679897,-12.226346000000001,18.67827,-1
1122,1123,1583586438694,9.2913,-6.226,16.9559,17.137781,-13.302625,15.744826000000002,-1
1123,1124,1583586438704,9.9396,-7.1461997,13.387799,18.027447,-14.191544,11.9015,-1
1124,1125,1583586438715,11.1994,-7.8914,9.136000000000001,20.063257,-15.323188,7.085678,-1
1125,1126,1583586438726,13.114699,-8.7646,4.7903,21.615734,-16.03054,4.8234925,-1
1126,1127,1583586438736,15.2177,-9.6147995,2.0052,23.471020000000003,-17.123981,4.203797,-1
1127,1128,1583586438746,17.0163,-10.636,1.632,23.86271,-17.880674,5.2542480000000005,-1
1128,1129,1583586438757,17.1625,-11.2167,2.5846999,22.460473999999998,-17.891783,5.3148403,-1
1129,1130,1583586438766,15.7362995,-11.2569,2.6523,20.392096,-17.63663,3.5146879999999996,-1
1130,1131,1583586438777,13.599298999999998,-11.0612,0.85859996,18.963484,-17.171846,0.9879051,-1
1131,1132,1583586438787,12.0831995,-10.696199,-1.6897999,18.478153,-16.759642000000003,-1.0081409,-1
1132,1133,1583586438797,11.498099,-10.394999499999999,-3.6906998,18.543016,-16.174960000000002,-2.522684,-1
1133,1134,1583586438808,11.4298,-9.2188,-6.366699700000001,18.615044,-15.151532999999999,-3.8598745,-1
1134,1135,1583586438817,11.4298,-9.2188,-6.366699700000001,18.248163,-14.235742000000002,-3.7519631,-1
1135,1136,1583586438827,10.8897,-8.2597,-6.2861,17.076328,-13.185529999999998,-2.6432083,-1
1136,1137,1583586438837,9.5569,-7.3552,-5.0586,14.477967999999999,-12.101081,-1.1602397,-1
1137,1138,1583586438847,4.8328,-5.9182997,-2.8460999,12.324373,-11.219899,-0.7588853,-1
1138,1139,1583586438857,4.8328,-5.9182997,-2.8460999,11.062265,-10.908452,-0.95816904,-1
1139,1140,1583586438868,1.9828,-5.407,-3.1234999,10.173873,-10.263062,-1.4162661,-1
1140,1141,1583586438878,1.8431,-4.506,-3.248,10.288210000000001,-9.086972,-1.699548,-1
1141,1142,1583586438888,1.8431,-4.506,-3.248,10.394417,-8.105714,-1.6869642,-1
1142,1143,1583586438898,1.3027999,-2.4657,-2.8360999,9.792821,-6.668895699999999,-1.598666,-1
1143,1144,1583586438908,-0.2974,-1.7929,-2.9024,8.076830000000001,-5.869117299999999,-1.9028732,-1
1144,1145,1583586438918,-2.6152,-1.4182999,-3.253,5.927909400000001,-5.2272796999999995,-2.5314755,-1
1145,1146,1583586438929,-4.5197,-1.1162,-4.1180997,4.270049,-4.7750244,-3.5991937999999997,-1
1146,1147,1583586438939,-5.4582,-0.9942,-4.8136997,3.6093547,-4.5452580000000005,-4.374973000000001,-1
1147,1148,1583586438949,-5.6457,-1.3334,-5.2174997,3.5692086000000005,-4.7912097000000005,-5.043357,-1
1148,1149,1583586438959,-5.8387,-1.9438,-5.8273997,3.3581742999999995,-5.2260922999999995,-5.9471397,-1
1149,1150,1583586438969,-6.4617996,-2.4405,-6.6008,2.7608306000000002,-5.5049305,-6.85685,-1
1150,1151,1583586438980,-6.9282,-2.5688,-6.5393,2.4152324,-5.4315915,-6.799073,-1
1151,1152,1583586438992,-6.9282,-2.5688,-6.5393,2.5313225,-5.276399,-6.024769,-1
1152,1153,1583586439003,-6.8908997,-2.5713,-4.7576,2.458577,-5.0992,-5.0455312999999995,-1
1153,1154,1583586439013,-7.1731997000000005,-2.6871,-4.1154,2.025849,-5.3090754,-5.405054,-1
1154,1155,1583586439023,-7.6218996,-3.1798,-4.9934998,1.8824841,-6.130526000000001,-6.913190400000001,-1
1155,1156,1583586439033,-7.4378,-4.3988,-6.3352,2.4870488999999996,-7.307199000000001,-8.405774000000001,-1
1156,1157,1583586439043,-6.6997,-5.4041,-7.962999999999999,3.409075,-7.7458553,-10.576472,-1
1157,1158,1583586439054,-5.9898996,-5.6965,-9.4985,3.6257980000000005,-7.786461,-10.791223,-1
1158,1159,1583586439064,-5.9586997,-5.7813,-9.2014,3.039439,-7.791479600000001,-9.617125,-1
1159,1160,1583586439074,-6.8622,-6.0074997,-7.6404,1.6898084,-8.212648,-7.664558,-1
1160,1161,1583586439084,-8.0133,-6.464299700000001,-5.9605,1.3347483,-8.051442,-7.220836,-1
1161,1162,1583586439094,-8.184199000000001,-6.2918,-5.8644,1.8076796999999998,-7.896307000000001,-8.13906,-1
1162,1163,1583586439104,-7.5639,-6.3206,-6.8297,2.7571242000000002,-7.995675599999999,-8.801392,-1
1163,1164,1583586439115,-6.2605996,-6.4944,-7.8018,4.438160400000001,-8.038953999999999,-10.333193,-1
1164,1165,1583586439125,-4.9007998,-6.4898996,-9.1658,5.408482599999999,-7.599531,-11.117006,-1
1165,1166,1583586439135,-4.0906,-6.0741,-9.7305,5.765142,-7.349471,-10.689287,-1
1166,1167,1583586439145,-3.8409,-5.9521,-9.0938,5.6745067,-6.911150500000001,-9.166115,-1
1167,1168,1583586439156,-4.0439,-5.4872,-7.3971,5.009867,-5.757289,-6.471489,-1
1168,1169,1583586439165,-4.6498,-4.6224,-5.1361,4.4538856,-5.1380143,-4.73621,-1
1169,1170,1583586439175,-5.3833,-3.9880998,-3.1353,3.864931,-4.7544154999999995,-3.7467725,-1
1170,1171,1583586439185,-5.8519998,-3.8221,-2.438,4.1298637000000005,-4.9676623,-3.4033866,-1
1171,1172,1583586439196,-5.4086,-4.1512,-2.2175999,5.685482,-5.174071,-3.5970199999999997,-1
1172,1173,1583586439206,-4.042,-4.3202,-2.6037998,7.263644,-5.0476665,-4.2395277,-1
1173,1174,1583586439216,-2.4777,-4.1953,-3.3948,8.306961,-4.801044999999999,-3.3683736000000004,-1
1174,1175,1583586439226,-1.4516,-3.9536,-2.6929,7.936501,-4.644991,-0.91897124,-1
1175,1176,1583586439236,-1.8363999,-3.8149998,-0.4219,6.687790400000001,-4.446291,1.5426701999999999,-1
1176,1177,1583586439246,-3.4743998,-3.5646,2.4829,4.650899400000001,-3.4924412000000005,5.7081313,-1
1177,1178,1583586439257,-5.1384,-2.7268,5.8129,3.8366027000000003,-2.5083572999999997,8.772326,-1
1178,1179,1583586439267,-5.9537,-1.7523999,8.6647,4.176819,-2.1068401000000003,10.315217,-1
1179,1180,1583586439277,-5.6054,-1.3349999,10.0137,5.5035324,-2.68187,11.44033,-1
1180,1181,1583586439287,-4.27,-1.8750999,10.9507,7.194806,-3.9640798999999998,13.655014000000001,-1
1181,1182,1583586439297,-2.5574,-3.0779,12.986799000000001,8.5776205,-5.0183907,15.645207999999998,-1
1182,1183,1583586439307,-1.1564,-4.0579,14.8328,9.022549,-5.3616138,16.091593,-1
1183,1184,1583586439317,-0.6968,-4.323,15.1565,8.739239,-4.742214,15.490926000000002,-1
1184,1185,1583586439327,-1.5871998999999999,-2.4698,13.3722,7.9746356,-3.3670714,14.284047,-1
1185,1186,1583586439337,-1.5871998999999999,-2.4698,13.3722,7.721846,-2.504565,13.234534,-1
1186,1187,1583586439348,-1.4469,-0.3484,10.593599000000001,8.420425999999999,-1.3178165000000002,11.668037,-1
1187,1188,1583586439358,-0.4104,0.3464,9.7339,9.43257,-0.78476185,10.937987,-1
1188,1189,1583586439369,0.28939998,0.3656,8.9592,10.008778999999999,-0.9167494,10.044375,-1
1189,1190,1583586439378,0.43809998,0.0166,7.773,10.088677,-1.2682468999999998,8.891328,-1
1190,1191,1583586439388,0.43809998,0.0166,7.773,10.121938,-1.6256533000000002,8.2656555,-1
1191,1192,1583586439398,0.74469995,-0.6746,6.0608997,10.479488,-1.9121244,7.1697625999999985,-1
1192,1193,1583586439408,0.98219997,-0.4592,5.2014,10.625505,-1.6678871,6.3936486,-1
1193,1194,1583586439419,0.7686,-0.1656,4.6754,10.324563000000001,-1.3383205,5.932094,-1
1194,1195,1583586439429,0.26929998,0.2557,4.2098,9.83742,-0.87891144,5.4710093,-1
1195,1196,1583586439439,-0.103999995,0.66249996,3.6051998,9.504961999999999,-0.46740565,4.892119999999999,-1
1196,1197,1583586439449,-0.1946,0.9819,3.1994998,9.431622500000001,-0.11358093,4.4630019999999995,-1
1197,1198,1583586439459,-0.2377,1.1474,2.7475998,9.424401,-0.013570336,4.0330900000000005,-1
1198,1199,1583586439470,-0.104899995,1.0713999,2.4617,9.626137,-0.0890643,3.7218535000000004,-1
1199,1200,1583586439480,0.1453,0.98939997,2.1011999,9.892324,-0.18239985,3.3244832000000004,-1
1200,1201,1583586439490,0.2986,0.8605,1.824,9.992,-0.29702467,3.07631,d
1201,1202,1583586439500,0.34559998,0.5164,1.5459,10.046395,-0.7309114999999999,2.8553919999999997,-1
1202,1203,1583586439510,0.41349998,0.23079999,1.4733,10.100486,-0.9216049000000001,2.7106671,-1
1203,1204,1583586439521,0.4723,0.0906,1.2081,10.142000999999999,-1.0343046999999999,2.4306892999999996,-1
1204,1205,1583586439531,0.5114,-0.0030999999,0.92219996,10.193313999999999,-1.0594246,2.1720387999999997,-1
1205,1206,1583586439541,0.47129998,0.0088,0.7976,10.066669000000001,-1.0394665,2.2433862999999996,-1
1206,1207,1583586439551,0.21409999,-0.0295,1.1123999,9.76752,-1.0801777,2.6041732000000004,-1
1207,1208,1583586439561,-0.0246,-0.07719999599999999,1.4275999,9.589917,-1.0932786,2.8530936000000002,-1
1208,1209,1583586439572,-0.0583,-0.0629,1.5754,9.644753,-1.0386525,2.9050958,-1
1209,1210,1583586439582,0.163,0.0243,1.5195999,10.030422,-1.0426078,2.6347806,-1
1210,1211,1583586439592,0.4736,-0.2175,1.2840999,10.385664,-1.3447753,2.4010107999999994,-1
1211,1212,1583586439602,0.8438,-0.4292,1.0045,10.792917999999998,-1.3868365,2.1652682,-1
1212,1213,1583586439612,1.2636,-0.4075,0.9248,11.06328,-1.4359273000000001,2.2451675,-1
1213,1214,1583586439622,1.3498,-0.5388,1.0086,10.970346000000001,-1.5889360000000001,2.2392585,-1
1214,1215,1583586439633,1.2591,-0.7072,1.0217,11.032347999999999,-1.5929103,2.3602998,-1
1215,1216,1583586439643,1.3936,-0.65529996,1.2794,11.237617,-1.5854691,3.0930020000000003,-1
1216,1217,1583586439653,1.5665,-0.7055,2.041,11.310831,-1.5338885,3.7491186,-1
1217,1218,1583586439664,1.6116999,-0.6717,2.7431,11.345509,-1.5080885,4.260836599999999,-1
1218,1219,1583586439674,1.6868999,-0.7191,3.2347999,11.6332445,-1.5306706,4.9203525,-1
1219,1220,1583586439684,2.0370998,-0.7478,3.8112,12.094521,-1.4418073999999999,5.2654815,-1
1220,1221,1583586439694,2.6331,-0.6235,3.9503998999999994,12.765663,-1.1565622,4.4808064000000005,-1
1221,1222,1583586439704,3.1315,-0.42639998,3.0798,13.0382185,-0.8685877000000001,3.8817480000000004,-1
1222,1223,1583586439715,3.3344998,-0.191,2.5282,13.089417,-0.6988196,3.3569007000000006,-1
1223,1224,1583586439724,3.389,-0.119399995,1.9957999,13.344935000000001,-0.78715605,2.8792,-1
1224,1225,1583586439734,3.7066,-0.2607,1.6437,13.757026000000002,-0.55939084,2.9738379,-1
1225,1226,1583586439744,4.1991997,0.1206,1.933,14.08075,-0.062076862999999996,3.3379385000000004,-1
1226,1227,1583586439754,4.2692,0.3556,2.3697,13.6474285,0.07527371,3.9864702000000003,-1
1227,1228,1583586439764,3.7603,0.3148,3.0093,12.912552999999999,0.007843405,4.4500356,-1
1228,1229,1583586439774,2.9871,0.1679,3.4585,12.209538,-0.03536715,4.4003797,-1
1229,1230,1583586439784,2.3525999,0.0382,3.3765,11.948732000000001,-0.041467573,4.1212544,-1
1230,1231,1583586439794,2.122,-0.058399998,2.9462,11.902064999999999,0.09116162,3.1510564999999997,-1
1231,1232,1583586439804,2.1383,-0.0126,2.0778,11.940353,0.21437682,2.16478,-1
1232,1233,1583586439814,2.1557,-0.012399998999999998,1.1396998999999999,11.911469,0.24867137,1.4124353,-1
1233,1234,1583586439824,2.1248,0.0455,0.2836,11.881016,0.75853103,0.5852578,-1
1234,1235,1583586439835,2.0848,0.41419998,-0.20359999,11.686405,1.0224869,0.24920768,-1
1235,1236,1583586439845,1.6925,0.5807,-0.6321,10.858098,1.0486412,-0.21894497,-1
1236,1237,1583586439855,0.909,0.4367,-0.8638,10.028717,0.9494638000000001,-0.27314970000000005,-1
1237,1238,1583586439865,0.058599997,0.20189999,-0.7284,9.076457000000001,0.7495670999999999,0.13397953,-1
1238,1239,1583586439876,-0.84889996,-0.1007,-0.2217,8.422035000000001,0.67426467,0.37599504,-1
1239,1240,1583586439886,-1.4411,-0.2032,-0.0425,8.108711,1.0527688,0.15794070000000002,-1
1240,1241,1583586439896,-1.6696,0.125,-0.1822,7.9045143,1.5204905,-0.031890765,-1
1241,1242,1583586439906,-1.8486999,0.42339998,-0.2658,7.583011,1.6918291,-0.23027432,-1
1242,1243,1583586439916,-2.1649,0.5136,-0.4077,7.3136444,1.7213161,-0.48713386,-1
1243,1244,1583586439928,-2.4222999,0.47489998,-0.5862,7.1526012,1.4867896999999999,-0.9435453000000001,-1
1244,1245,1583586439938,-2.5819,0.18969999,-0.98209995,7.2608,1.2687258999999997,-1.6747824,-1
1245,1246,1583586439948,-2.4571,-0.0888,-1.6473,7.5548363,1.235542,-2.2634783,-1
1246,1247,1583586439958,-1.8833,0.047599997000000005,-2.6258,7.838443799999999,1.5315038,-2.840634,-1
1247,1248,1583586439968,-1.9631,0.0442,-2.9865,7.682189,1.5464436000000001,-3.151277,-1
1248,1249,1583586439979,-2.2772,-0.051099997,-2.662,7.341589999999999,1.5016817,-2.7413514,-1
1249,1250,1583586439989,-2.679,-0.098,-1.7324,6.894362400000001,1.4977646999999998,-1.7550073,-1
1250,1251,1583586439999,-3.1987,-0.2294,-0.6094,6.3891954,1.4691397,-0.7050541,-1
1251,1252,1583586440009,-3.4938,-0.1277,0.0030999999,6.131053,1.622244,-0.36274073,-1
1252,1253,1583586440020,-3.4571998,-0.0534,-0.2262,6.252391,1.7068264,-0.62364167,-1
1253,1254,1583586440030,-3.0598,-0.0641,-0.4504,6.8119254,1.6745143,-1.0166834999999999,-1
1254,1255,1583586440040,-3.0598,-0.0641,-0.4504,7.3386784,1.4792143999999998,-1.6735756000000002,-1
1255,1256,1583586440050,-2.0528998,-0.45229998,-1.6782,7.658898,1.3053476000000002,-2.3245112999999997,-1
1256,1257,1583586440060,-1.8054,-0.62229997,-2.4777,7.896623,1.1236563999999998,-3.2204406000000003,-1
1257,1258,1583586440070,-1.6855999,-0.6477,-2.7407,7.9985967,1.1648749,-3.1641004,-1
1258,1259,1583586440081,-1.5366,-0.5182,-1.8599,8.108951,1.410788,-1.9506519,-1
1259,1260,1583586440091,-1.5544,-0.2922,-0.80079997,8.028744999999999,1.6032342,-0.96540916,-1
1260,1261,1583586440101,-1.7484,-0.1857,0.0039999996999999995,7.768821000000001,1.5959462,-0.35838327,-1
1261,1262,1583586440111,-2.0318,-0.46429998,0.36249998,7.5446277,1.2074534,-0.16466361,-1
1262,1263,1583586440121,-2.0216,-0.8246,0.221,7.739516,0.88943636,-0.5884564999999999,-1
1263,1264,1583586440131,-1.5712999,-1.0776,-0.5988,8.355561999999999,0.6540767,-1.5942606000000001,-1
1264,1265,1583586440141,-0.7101,-1.1875,-1.5437,9.321268,0.60240984,-2.4323080000000004,-1
1265,1266,1583586440152,0.19029999,-1.2193999,-2.1002998,10.108386999999999,0.5881883000000001,-2.8268147,-1
1266,1267,1583586440162,0.4836,-1.1032,-2.1099,10.018172999999999,0.80563927,-2.4710748,-1
1267,1268,1583586440172,0.161,-0.9515,-1.6178,9.487991000000001,0.8149097,-2.0271513,-1
1268,1269,1583586440182,-0.601,-1.0166,-1.0711,8.769568,0.77193856,-1.5186038999999998,-1
1269,1270,1583586440192,-1.1271,-1.0160999,-0.5827,8.400325,0.7616147,-0.99974203,-1
1270,1271,1583586440202,-1.2321,-1.1482999,-0.0109,8.488508,0.6430634,-0.44845313,-1
1271,1272,1583586440213,-0.81839997,-1.1056,0.32209998,9.139501,0.880913,-0.41926304,-1
1272,1273,1583586440223,-0.21949999,-0.8289,-0.024899999,9.782584,1.1545702,-1.1812034,-1
1273,1274,1583586440233,0.3296,-0.5678,-0.8021,10.121728,1.419072,-1.7945977,-1
1274,1275,1583586440243,0.5553,-0.33769998,-1.2192,10.126775,1.4607025,-1.9584665,-1
1275,1276,1583586440253,0.4285,-0.41669998,-1.2213,9.932039,1.3668879999999999,-1.7546241999999999,-1
1276,1277,1583586440263,0.21409999,-0.47259998,-0.92569995,9.722135,1.3279104,-1.5092281,-1
1277,1278,1583586440273,0.069,-0.5038,-0.7916,9.661599,1.3978498,-1.4909459999999999,-1
1278,1279,1583586440284,0.0222,-0.4001,-0.7676,9.616828,1.5722148,-1.3817321000000002,-1
1279,1280,1583586440294,-0.014699998999999998,-0.258,-0.64919996,9.589649,1.6727712,-1.1604216,-1
1280,1281,1583586440304,-0.0326,-0.124,-0.376,9.602433999999999,1.935444,-0.99196565,-1
1281,1282,1583586440314,0.0175,0.0914,-0.33899999999999997,9.666408,2.1107762,-1.036402,-1
1282,1283,1583586440324,0.0964,0.26139998,-0.3516,9.781798,2.1468902,-0.7897897,-1
1283,1284,1583586440335,0.1846,0.22809999,-0.099599995,9.830564,2.0185706999999997,-0.586838,-1
1284,1285,1583586440345,0.2234,0.0976,0.050699997999999996,9.863767,1.9852146000000002,-0.6130976,-1
1285,1286,1583586440355,0.262,0.0945,-0.0477,9.864849000000001,2.0790577,-0.899492,-1
1286,1287,1583586440365,0.21249999,0.18779999,-0.39389998,9.725783,2.1738009999999997,-1.2056338,-1
1287,1288,1583586440375,0.0752,0.26909998,-0.6821,9.579028,2.2025602,-1.1519941,-1
1288,1289,1583586440386,-0.0321,0.2906,-0.5742,9.621608,2.212999,-0.8488114999999999,d
1289,1290,1583586440396,0.0177,0.273,-0.27429998,9.545041000000001,2.063141,-0.5074558,-1
1290,1291,1583586440406,-0.0986,0.096099995,0.0843,9.397519,2.0299861,-0.21562181,-1
1291,1292,1583586440416,-0.2647,0.09219999599999999,0.3157,9.134319999999999,2.0943997,-0.10450211,-1
1292,1293,1583586440427,-0.5094,0.1563,0.4055,9.133238,2.1868637000000004,-0.08159439,-1
1293,1294,1583586440437,-0.4804,0.2333,0.4015,9.318653999999999,2.3037294999999998,0.28922915,-1
1294,1295,1583586440448,-0.2854,0.3523,0.7348,9.50137,2.2642157000000003,1.1237521000000001,-1
1295,1296,1583586440458,0.1441,0.4508,1.9793999,9.755357,2.448598,1.5981966,-1
1296,1297,1583586440468,0.1441,0.4508,1.9793999,9.490127000000001,2.6682612999999997,1.0950408,-1
1297,1298,1583586440479,-0.13,0.7112,1.4883,8.834928999999999,2.883117,-0.28006414,-1
1298,1299,1583586440489,-1.1848,1.1230999,0.1516,8.401531,3.1530106,-0.05509537,-1
1299,1300,1583586440499,-1.3281,1.3744,1.5584999,8.207056,3.3973242999999993,1.4945085,-1
1300,1301,1583586440509,-1.9705,1.3680999,3.8072998999999994,7.4259996,3.3390207000000003,3.9193656000000003,-1
1301,1302,1583586440520,-3.1908998,1.2128,6.5864997,6.106929,3.2189658,6.556454,-1
1302,1303,1583586440530,-4.6777,1.2008,8.404099,4.6239123,3.2504258,8.1301155,-1
1303,1304,1583586440540,-6.0608,1.3321999,9.2066,3.051228,3.4393475,8.73398,-1
1304,1305,1583586440550,-7.1850996,1.5073999,9.091000000000001,2.0641563,3.5420873,8.408399000000001,-1
1305,1306,1583586440560,-8.0019,1.6817,8.522699000000001,1.397122,3.6769385000000003,7.706217,-1
1306,1307,1583586440571,-8.274099,1.8537999,7.901,1.4235541,3.8202267,7.363435000000001,-1
1307,1308,1583586440581,-8.274099,1.8537999,7.901,1.5001014,3.939429,7.428374300000001,-1
1308,1309,1583586440592,-8.5763,2.0902,8.5146,0.35811509999999996,3.3830166,8.480703,-1
1309,1310,1583586440602,-9.7183,1.6916,9.3868,-1.0120099,2.8820348,9.224955,-1
1310,1311,1583586440612,-11.3175,1.2666,10.224,-2.6230395,2.2360408,9.636202,-1
1311,1312,1583586440622,-12.8849,0.70809996,10.4375,-3.9009783,1.5022084,9.232271,-1
