,Seq,Time,ACCx,ACCy,ACCz,ADGx,ADGy,ADGz,Keydown
0,1,1582725046179,0.12841368,0.35996628,-0.6557989000000001,5.228,4.409,6.6770000000000005,-1
1,2,1582725046189,0.12841368,0.35996628,-0.6557989000000001,2.483,9.818999999999999,-1.357,-1
2,3,1582725046199,0.047326325999999995,0.53531456,0.5129961,2.555,9.988999999999999,-0.201,-1
3,4,1582725046210,-0.2452879,0.32342052,2.0367036,2.246,9.786,1.386,-1
4,5,1582725046220,-0.6418351999999999,0.5949335,3.2921317,1.8319999999999999,10.066,2.701,-1
5,6,1582725046230,-0.86094916,0.62621593,3.2599256000000003,1.59,10.106,2.715,-1
6,7,1582725046241,-0.6649041,0.6993189000000001,2.7535706,1.7790000000000001,10.181000000000001,2.21,-1
7,8,1582725046250,-0.15384889,0.8546971999999999,1.7052196,2.2769999999999997,10.339,1.149,-1
8,9,1582725046260,0.45539140000000006,0.83305645,0.78719497,2.8710000000000004,10.32,0.21,-1
9,10,1582725046270,0.52636766,0.85910034,0.5342229000000001,2.9189999999999996,10.350999999999999,-0.057,-1
10,11,1582725046281,-0.30672790000000005,0.6913872,1.3105788,2.033,10.197000000000001,0.728,-1
11,12,1582725046290,-0.7457154,0.7265710999999999,1.7235546999999998,1.5730000000000002,10.238,1.1520000000000001,-1
12,13,1582725046300,-1.436873,0.5061654999999999,2.6112907,0.838,10.03,2.0709999999999997,-1
13,14,1582725046310,-2.1103249,0.15091038,3.5101342000000004,0.122,9.687000000000001,3.01,-1
14,15,1582725046320,-2.164959,0.050043106,4.313739,0.033,9.596,3.8510000000000004,-1
15,16,1582725046331,-2.248093,-0.24507046,4.3553357,-0.079,9.309,3.925,-1
16,17,1582725046341,-2.5689902,-0.5258111999999999,4.1972857,-0.435,9.038,3.81,-1
17,18,1582725046351,-2.474768,-0.8839091999999998,4.115166,-0.364,8.686,3.752,-1
18,19,1582725046361,-2.4182354999999998,-1.3334063999999999,4.2757087,-0.325,8.241,3.93,-1
19,20,1582725046372,-2.7387222999999996,-2.0258621999999997,4.8774120000000005,-0.6629999999999999,7.553,4.55,-1
20,21,1582725046382,-2.8567505,-2.3222451,5.8477902,-0.797,7.261,5.5489999999999995,-1
21,22,1582725046392,-3.4406154000000004,-3.335185,7.031577,-1.405,6.255,6.797000000000001,-1
22,23,1582725046403,-3.8557989999999998,-3.6346578999999997,7.3253326,-1.829,5.957999999999999,7.117000000000001,-1
23,24,1582725046413,-4.6931769999999995,-4.4394207,7.756011999999999,-2.6839999999999997,5.1579999999999995,7.604,-1
24,25,1582725046424,-5.504245,-5.175358,7.849640400000001,-3.5060000000000002,4.425,7.747000000000001,-1
25,26,1582725046434,-6.284192,-6.360608999999999,7.2123555999999995,-4.253,3.233,7.127000000000001,-1
26,27,1582725046444,-6.1556816,-7.047928,6.5460873,-4.066,2.533,6.449,-1
27,28,1582725046454,-5.9465685,-7.383035700000001,6.3911552,-3.8169999999999997,2.189,6.284,-1
28,29,1582725046465,-5.473133,-8.069746,5.973649,-3.247,1.48,5.843,-1
29,30,1582725046475,-5.0107336,-8.946211,5.0608788,-2.608,0.56,4.89,-1
30,31,1582725046485,-4.8919754,-9.526048,4.5781593,-2.356,-0.055,4.382,-1
31,32,1582725046496,-5.0864080000000005,-10.352233,4.2539907,-2.404,-0.922,4.04,-1
32,33,1582725046506,-5.2402782,-11.180157000000001,4.3165135,-2.395,-1.798,4.093,-1
33,34,1582725046516,-5.540992299999999,-11.580307000000001,4.3440356,-2.512,-2.256,4.114,-1
34,35,1582725046526,-5.287139,-11.956767,3.8181818,-2.05,-2.7030000000000003,3.575,-1
35,36,1582725046537,-4.3153143,-11.993421000000001,2.3940069999999998,-0.843,-2.826,2.126,-1
36,37,1582725046547,-3.0474848999999997,-11.990248,0.13800037,0.684,-2.926,-0.155,-1
37,38,1582725046557,-1.3148415,-11.756041,-1.6390624,2.694,-2.8110000000000004,-1.932,-1
38,39,1582725046567,0.5545764,-11.330466,-2.7138063999999997,4.852,-2.519,-2.96,-1
39,40,1582725046577,0.8186445,-10.9159155,-2.0619068,5.4,-2.028,-1.3219999999999998,-1
40,41,1582725046587,0.6796340999999999,-10.052169000000001,-0.35788512,5.544,-1.537,-0.373,-1
41,42,1582725046597,1.0792103000000002,-9.626006,0.577851,6.224,-1.278,0.6890000000000001,-1
42,43,1582725046607,1.7278008000000002,-9.571255,-0.5462792,7.1579999999999995,-1.4080000000000001,-0.335,-1
43,44,1582725046617,2.4375147999999998,-9.187342,-3.3471584,9.33,-0.9359999999999999,-4.823,-1
44,45,1582725046628,4.41219,-7.886442,-6.895125,10.463,-0.177,-6.545,-1
45,46,1582725046638,6.542648000000001,-6.043292,-9.3096075,14.489,1.944,-9.222999999999999,-1
46,47,1582725046648,9.723412,-4.711802,-9.624039999999999,16.362000000000002,2.474,-8.943,-1
47,48,1582725046658,11.641447,-2.9477391,-6.6147279999999995,18.660999999999998,3.81,-5.506,-1
48,49,1582725046668,10.711231,-2.302003,-3.6273532,17.936,4.1739999999999995,-2.201,-1
49,50,1582725046679,9.8578,-1.5804543,-2.2004857,17.262999999999998,4.615,-0.483,-1
50,51,1582725046689,10.579177,-0.6813488,-3.19274,18.154,5.23,-1.2309999999999999,-1
51,52,1582725046699,12.351122,0.9444318000000002,-5.0258694,20.089000000000002,6.567,-2.862,-1
52,53,1582725046709,14.236656,2.4424900000000003,-6.2370644,22.127,7.776,-3.8989999999999996,-1
53,54,1582725046719,15.809497,3.2604213,-6.8415740000000005,23.835,8.315,-4.349,-1
54,55,1582725046730,15.112235,3.8217635000000003,-6.4638376,23.25,8.617,-3.827,-1
55,56,1582725046740,13.823757,4.048794,-4.868804,22.055,8.597999999999999,-2.09,-1
56,57,1582725046750,13.213438,4.772283,-3.7788222,21.528000000000002,9.077,-0.862,-1
57,58,1582725046760,14.309644,5.5149117,-3.3349254,22.704,9.568,-0.289,-1
58,59,1582725046771,15.975060000000001,6.463881,-3.63004,24.445,10.262,-0.467,-1
59,60,1582725046780,16.567354,7.669208,-3.6027498,25.105999999999998,11.222999999999999,-0.342,-1
60,61,1582725046790,16.850487,8.672193,-3.3237576,25.451,12.003,0.009000000000000001,-1
61,62,1582725046800,16.55634,9.0300255,-3.1395767000000006,25.186,12.26,0.217,-1
62,63,1582725046810,16.617779000000002,10.060146000000001,-1.8328186000000002,25.334,13.036,1.535,-1
63,64,1582725046821,17.190260000000002,10.300114,-1.3146038,25.965999999999998,13.148,2.009,-1
64,65,1582725046831,17.38338,10.013045,-2.1834755,26.215,12.77,1.068,-1
65,66,1582725046841,17.24479,9.580836999999999,-3.3912988,26.122,12.276,-0.213,-1
66,67,1582725046852,17.036194000000002,9.039515,-2.5496554,25.947,11.692,0.57,-1
67,68,1582725046862,16.286911,8.450222,0.9776746999999999,25.224,11.081,4.04,-1
68,69,1582725046872,15.811826000000002,8.091312,5.139434,24.776,10.734000000000002,8.111,-1
69,70,1582725046883,14.858870499999998,7.380580999999999,8.431086,23.851999999999997,10.085,11.255999999999998,-1
70,71,1582725046893,13.824747,6.2239227,9.907434,22.840999999999998,9.043,12.54,-1
71,72,1582725046903,12.492394,5.081148000000001,10.822995,21.516,8.056000000000001,13.251,-1
72,73,1582725046913,11.070833,4.4121275,12.193759,20.082,7.568,14.432,-1
73,74,1582725046924,10.002031,3.6082501000000002,13.605482,18.982,6.962000000000001,15.675,-1
74,75,1582725046934,8.665413000000001,3.2797818,15.837391,17.598,6.847,17.749000000000002,-1
75,76,1582725046944,7.3667316,2.6440797000000003,18.405499,16.238,6.442,20.151,-1
76,77,1582725046954,6.040287,2.1966767000000003,19.707615,14.837,6.2410000000000005,21.267,-1
77,78,1582725046964,5.220644,1.7459431,19.948733999999998,13.929,6.045,21.31,-1
78,79,1582725046975,5.3007774,1.1635976000000001,18.620693,13.85,5.846,19.695999999999998,-1
79,80,1582725046985,5.239661,0.94125366,17.975466,13.728,5.752000000000001,18.963,-1
80,81,1582725046995,4.4335356,-0.13590097,16.914842999999998,12.712,5.067,17.668,-1
81,82,1582725047005,3.4859410000000004,-0.70605373,17.142462,11.603,4.761,17.771,-1
82,83,1582725047016,3.0768814,-1.1583252,17.224295,10.812999999999999,4.1,17.725,-1
83,84,1582725047026,2.2177706,-2.4592204,17.17301,9.975,3.525,17.602999999999998,-1
84,85,1582725047036,1.541625,-3.2213311,16.088285,9.105,3.012,16.422,-1
85,86,1582725047046,0.9120120999999999,-3.8763742,14.288606,8.274,2.5980000000000003,14.520999999999999,-1
86,87,1582725047056,0.048736095,-4.3867607,12.292910000000001,7.204,2.318,12.43,-1
87,88,1582725047066,-0.21701097,-4.865355,10.647256,6.732,2.0540000000000003,10.712,-1
88,89,1582725047077,0.028943539,-5.2528486,9.14356,6.78,1.86,9.175,-1
89,90,1582725047087,-0.05889082,-5.7645683,7.919873700000001,6.513999999999999,1.5130000000000001,7.987,-1
90,91,1582725047097,-0.31973076,-5.9909,7.4157343,6.1979999999999995,1.334,7.604,-1
91,92,1582725047108,-1.8551459,-6.92736,6.6241389999999996,4.363,0.653,6.832000000000001,-1
92,93,1582725047118,-2.9647136,-7.2010703,6.561039999999999,3.034,0.555,6.732,-1
93,94,1582725047128,-3.3044508,-7.385649000000001,5.9357204,2.478,0.534,6.0489999999999995,-1
94,95,1582725047138,-2.9177444,-7.479853,4.8552947,2.66,0.586,4.89,-1
95,96,1582725047148,-2.612873,-7.418398,3.0727558,2.7710000000000004,0.778,3.015,-1
96,97,1582725047159,-2.6935882999999996,-7.395775,1.2644732,2.5069999999999997,0.917,1.1159999999999999,-1
97,98,1582725047169,-2.9125285,-7.2049202999999995,-0.33233609999999997,2.117,1.2109999999999999,-0.5479999999999999,-1
98,99,1582725047179,-3.0148728,-7.1017637,-1.2720504,1.858,1.405,-1.518,-1
99,100,1582725047190,-2.7884773999999997,-6.924938,-1.4312096,1.942,1.662,-1.671,-1
100,101,1582725047200,-2.7008023,-6.8743777,-1.2325697,1.899,1.784,-1.444,-1
101,102,1582725047210,-2.6081624,-6.661550500000001,-1.2185661,1.868,2.062,-1.403,-1
102,103,1582725047220,-3.0047884,-6.46989,-1.3413287,1.35,2.315,-1.52,-1
103,104,1582725047231,-3.5592794000000003,-6.218165,-1.371847,0.677,2.6239999999999997,-1.5730000000000002,-1
104,105,1582725047241,-3.816955,-5.8094269999999995,-1.7807718999999997,0.308,3.0839999999999996,-2.03,-1
105,106,1582725047251,-3.3482730000000003,-5.5205736,-2.7054447999999995,0.68,3.415,-3.02,-1
106,107,1582725047261,-2.597014,-5.0970583,-3.9719599999999997,1.35,3.872,-4.356,-1
107,108,1582725047272,-1.904443,-4.8635154,-5.139408,1.973,4.133,-5.585,-1
108,109,1582725047282,-2.1880066000000005,-4.6408644,-4.999865,1.599,4.3919999999999995,-5.486000000000001,-1
109,110,1582725047292,-2.3616848,-4.537668,-4.246294,1.3980000000000001,4.507,-4.725,-1
110,111,1582725047302,-2.3984375,-4.1579337,-1.8000631,1.295,4.916,-2.239,-1
111,112,1582725047312,-2.0683208,-3.9127502,-1.6667576000000002,1.609,5.167999999999999,-2.1,-1
112,113,1582725047322,-1.2089018999999999,-3.2279758,-2.5735555,2.435,5.865,-3.032,-1
113,114,1582725047333,-0.9167509,-3.0667706000000003,-3.0458407000000003,2.72,6.028,-3.525,-1
114,115,1582725047343,-0.22244787,-2.7442713,-3.8773014999999997,3.405,6.351,-4.414,-1
115,116,1582725047353,-0.37087107,-2.1188849999999997,-4.190271,3.25,6.974,-4.806,-1
116,117,1582725047363,-0.7846265,-1.7142205000000001,-3.2574592,2.823,7.381,-3.915,-1
117,118,1582725047373,-0.71583724,-1.3481131000000002,-1.4990938,2.8810000000000002,7.752000000000001,-2.148,-1
118,119,1582725047383,-0.48894309999999996,-1.0599298000000001,-0.5322446999999999,3.1060000000000003,8.042,-1.166,-1
119,120,1582725047394,-0.12515354,-0.76286507,0.16648054,3.47,8.339,-0.467,-1
120,121,1582725047404,-0.13357997,-0.43165588,-0.6312784,3.4560000000000004,8.669,-1.3119999999999998,-1
121,122,1582725047414,-0.82366586,0.024305344,-1.6999025,2.72,9.132,-2.5140000000000002,-1
122,123,1582725047424,-1.2120971999999999,0.19180107,-2.467245,2.28,9.307,-3.41,-1
123,124,1582725047434,-0.93288803,0.13949108,-2.6308732000000004,2.531,9.256,-3.661,-1
124,125,1582725047445,-0.40974975,0.16718006,-1.8340423,3.053,9.28,-2.9,-1
125,126,1582725047455,0.35192585,0.34740734,-0.64471304,3.839,9.453,-1.693,-1
126,127,1582725047465,0.81272244,0.503253,0.5129795,4.334,9.601,-0.488,-1
127,128,1582725047475,0.836087,0.63810253,1.0795221000000002,4.385,9.73,0.124,-1
128,129,1582725047486,0.8108095999999999,0.42352962,1.0355707,4.382,9.51,0.11199999999999999,-1
129,130,1582725047496,0.44039178,0.5152645,0.9370014999999999,4.021,9.599,0.023,-1
130,131,1582725047506,0.08674717,0.57490635,0.65552497,3.6639999999999997,9.658999999999999,-0.268,-1
131,132,1582725047516,-0.38514590000000004,0.4918089,0.466656,3.178,9.58,-0.47100000000000003,-1
132,133,1582725047526,-0.66247964,0.69627476,0.24986458,2.883,9.79,-0.701,-1
133,134,1582725047537,-0.327281,0.6025666999999999,0.061698496,3.214,9.697000000000001,-0.898,-1
134,135,1582725047546,-0.2504313,0.6158066,-0.09949511,3.293,9.709,-1.063,-1
135,136,1582725047556,0.31281066,0.85057545,0.14122653,3.877,9.936,-0.8190000000000001,d
136,137,1582725047566,0.5457833000000001,1.0393448,0.21639723,4.129,10.118,-0.737,-1
137,138,1582725047576,0.8734288,1.1751747,0.38227737,4.473,10.248,-0.565,-1
138,139,1582725047586,0.79120255,1.1881008,0.47315094,4.402,10.257,-0.469,-1
139,140,1582725047597,0.57628584,1.1510943999999999,0.568653,4.191,10.219,-0.368,-1
140,141,1582725047607,0.3064332,1.1119471,0.59495354,3.92,10.181000000000001,-0.335,-1
141,142,1582725047617,-0.035407543,1.1106806,0.77706516,3.573,10.183,-0.141,-1
142,143,1582725047627,-0.035045862000000004,1.0693998,1.1016268,3.57,10.145,0.203,-1
143,144,1582725047637,0.0011668205,1.1430874,1.3348236999999998,3.6060000000000003,10.221,0.45899999999999996,-1
144,145,1582725047648,0.34982395,1.0307407,1.3962761000000001,3.958,10.109,0.5379999999999999,-1
145,146,1582725047658,0.6809449000000001,1.0728636,1.1416066,4.294,10.15,0.292,-1
146,147,1582725047668,0.8017876,1.1782217,0.89150643,4.416,10.255,0.043,-1
147,148,1582725047678,0.44881773,1.343667,0.79681647,4.0569999999999995,10.423,-0.05,-1
148,149,1582725047688,0.17754078,1.259368,0.8848484000000001,3.7739999999999996,10.344000000000001,0.045,-1
149,150,1582725047698,0.06192565,1.2288504,1.067431,3.645,10.32,0.24100000000000002,-1
150,151,1582725047709,0.04341054,1.1644306,1.0776238,3.614,10.262,0.268,-1
151,152,1582725047719,0.16994119,1.1901549999999999,1.0431165999999998,3.7310000000000003,10.293,0.251,-1
152,153,1582725047729,0.16549706,1.1845179,1.1409223,3.717,10.293,0.371,-1
153,154,1582725047739,0.20300579,1.2764969,1.3689598,3.745,10.390999999999998,0.627,-1
154,155,1582725047749,0.09171319,1.188693,1.7836515,3.623,10.31,1.075,-1
155,156,1582725047760,-0.04600811,1.0638218000000002,2.1854382,3.472,10.193,1.5130000000000001,-1
156,157,1582725047770,0.032678366,0.8571634,2.1090004,3.537,9.994,1.47,-1
157,158,1582725047780,0.011159182,0.978117,1.6616164,3.503,10.121,1.041,-1
158,159,1582725047790,0.32430077,0.98537064,1.2902042999999999,3.805,10.133,0.677,-1
159,160,1582725047800,0.46570920000000005,0.80136013,0.953676,3.937,9.953,0.34700000000000003,-1
160,161,1582725047811,0.23505807,0.7909498,1.1905951000000001,3.695,9.948,0.601,-1
161,162,1582725047821,0.17182755,0.5435485999999999,1.4810455,3.6210000000000004,9.707,0.929,-1
162,163,1582725047831,0.07338810000000001,0.4316864,1.8840284,3.511,9.604,1.413,-1
163,164,1582725047841,0.013729095,0.34525108,1.8889605999999999,3.446,9.522,1.4680000000000002,-1
164,165,1582725047851,0.026263475,0.34143066,1.7084821,3.4560000000000004,9.52,1.307,-1
165,166,1582725047861,0.023157835,0.24726391,1.5375433,3.448,9.429,1.168,-1
166,167,1582725047872,0.02660036,0.085819244,1.1225199,3.446,9.271,0.79,-1
167,168,1582725047882,-0.0079295635,0.09332943,0.8869858,3.408,9.28,0.56,-1
168,169,1582725047892,0.092101574,-0.013205528000000001,0.12321010000000002,3.503,9.175,-0.213,-1
169,170,1582725047903,0.16366529999999999,0.07537174,0.027400225,3.64,9.333,-0.5770000000000001,-1
170,171,1582725047913,0.22669196,0.046027184000000006,-0.20797670000000001,3.64,9.232000000000001,-0.579,-1
171,172,1582725047923,0.5562520000000001,0.13178158,0.10885474,3.978,9.314,-0.27699999999999997,-1
172,173,1582725047934,0.51277614,0.08963585,0.3412757,3.937,9.271,-0.043,-1
173,174,1582725047943,0.049504995,0.019804,0.4884004,3.467,9.204,0.11199999999999999,-1
174,175,1582725047953,-0.0780642,0.023560524,0.47357875,3.3310000000000004,9.211,0.1,-1
175,176,1582725047963,-0.24538946,0.032931327999999996,0.210808,3.13,9.232000000000001,-0.182,-1
176,177,1582725047973,-0.5472071,0.09881401,-0.13767985,2.799,9.307,-0.565,-1
177,178,1582725047984,-0.46357775,0.118356705,-0.46253854,2.852,9.335,-0.943,-1
178,179,1582725047994,-0.46598077,0.0087890625,-0.86678576,2.838,9.228,-1.3769999999999998,-1
179,180,1582725048004,-0.060567617000000004,0.21840858,-1.2364475000000001,3.2230000000000003,9.441,-1.8130000000000002,-1
180,181,1582725048015,0.26076102,0.3583765,-0.8452091999999999,3.5469999999999997,9.58,-1.422,-1
181,182,1582725048025,0.42904687,0.4866848,-0.045426488,3.717,9.709,-0.601,-1
182,183,1582725048035,0.55186224,0.32690716,0.53433096,3.839,9.551,0.004,-1
183,184,1582725048046,0.25651646,0.19780731,0.7372495,3.535,9.426,0.225,-1
184,185,1582725048056,-0.1776557,0.15416336,0.17875144,3.0789999999999997,9.39,-0.335,-1
185,186,1582725048066,-0.32295418,0.10226345,-0.27459925,2.905,9.347000000000001,-0.809,-1
186,187,1582725048076,-0.5877713999999999,0.030790328999999998,-0.24738157,2.61,9.285,-0.799,-1
187,188,1582725048086,-0.6106448,0.1291933,0.28405333,2.56,9.392999999999999,-0.263,-1
188,189,1582725048097,-0.5244154999999999,0.22532082,0.6777201,2.6239999999999997,9.498,0.153,-1
189,190,1582725048107,-0.44367146,0.20176888,0.63861096,2.6889999999999996,9.481,0.136,-1
190,191,1582725048117,-0.45627356,0.07308006,0.6037205,2.665,9.357000000000001,0.11699999999999999,-1
191,192,1582725048127,-0.28023790000000004,0.13520527,0.2853421,2.833,9.422,-0.198,-1
192,193,1582725048138,-0.06052351,0.29493523,-0.112761825,3.056,9.58,-0.608,-1
193,194,1582725048148,0.25557637,0.34869576,-0.2895891,3.3810000000000002,9.63,-0.799,-1
194,195,1582725048158,0.67036104,0.50020504,-0.06933236,3.805,9.777999999999999,-0.586,-1
195,196,1582725048168,0.91519356,0.61785793,0.31776243,4.0569999999999995,9.892999999999999,-0.203,-1
196,197,1582725048178,0.7664616,0.5061588,0.3626724,3.908,9.781,-0.165,d
197,198,1582725048188,0.37026809999999993,0.5308094,0.3473884,3.5060000000000002,9.807,-0.191,-1
198,199,1582725048198,0.19003606,0.40920448,0.25599632,3.319,9.687000000000001,-0.294,-1
199,200,1582725048208,0.29130316,0.47152424,0.30105879999999996,3.417,9.75,-0.256,-1
200,201,1582725048218,0.3254683,0.61832905,0.39515865,3.4530000000000003,9.896,-0.165,-1
201,202,1582725048229,0.3397398,0.71225643,0.29927734,3.47,9.988999999999999,-0.261,-1
202,203,1582725048239,0.788605,0.88942814,0.09994840599999999,3.925,10.164,-0.462,-1
203,204,1582725048249,0.9334065999999999,0.9648771,-0.25108594,4.073,10.238,-0.8190000000000001,-1
204,205,1582725048259,1.2278986,0.87171555,-0.048513472,4.3660000000000005,10.145,-0.622,-1
205,206,1582725048270,1.1952853,0.9480715000000001,0.08356139,4.325,10.224,-0.493,-1
206,207,1582725048280,0.85471773,0.9395313,0.5503696,3.968,10.221,-0.026000000000000002,-1
207,208,1582725048290,0.18412042,1.0789757,0.45130820000000005,3.262,10.372,-0.129,-1
208,209,1582725048300,-0.07366586,1.1738596000000001,0.29929176,2.991,10.470999999999998,-0.285,-1
209,210,1582725048310,-0.16476893,1.0896215,-0.028125942,2.8760000000000003,10.394,-0.622,-1
210,211,1582725048320,0.07039523,1.0343695,-0.17582989,3.094,10.344000000000001,-0.775,-1
211,212,1582725048330,0.6047925999999999,1.1358061000000002,0.09414756,3.6180000000000003,10.449000000000002,-0.502,-1
212,213,1582725048340,0.9946344000000001,1.2684984,0.46005094,3.9989999999999997,10.585,-0.129,-1
213,214,1582725048351,1.1894361999999998,1.1930703999999999,0.5271408000000001,4.181,10.514000000000001,-0.057,-1
214,215,1582725048361,1.3335731000000002,1.3489685,0.50342894,4.306,10.675999999999998,-0.081,-1
215,216,1582725048371,1.0263931999999998,1.1589556,0.07378119,3.9560000000000004,10.499,-0.519,-1
216,217,1582725048381,1.0331158999999999,1.0410146999999998,-0.0041172503999999995,3.93,10.390999999999998,-0.601,-1
217,218,1582725048391,1.0140693,0.93758106,0.15013286,3.877,10.298,-0.447,-1
218,219,1582725048402,0.83294344,0.5578394,0.18585959,3.661,9.929,-0.409,-1
219,220,1582725048412,0.6188524000000001,0.37023067,0.4433155,3.429,9.747,-0.14800000000000002,-1
220,221,1582725048422,0.29448152,-0.061470985,0.41746664,3.072,9.326,-0.158,-1
221,222,1582725048432,-0.18917751,-0.7664051,0.21134335,2.533,8.638,-0.35200000000000004,-1
222,223,1582725048442,-0.30579996,-1.0636921,0.19771594,2.399,8.346,-0.361,-1
223,224,1582725048452,-0.35702133,-1.8757124,0.44123828,2.299,7.5489999999999995,-0.098,-1
224,225,1582725048462,-0.48008013,-2.6582341,0.6380412,2.141,6.777,0.11199999999999999,-1
225,226,1582725048473,-0.7004523,-3.1039352000000004,0.73613596,1.901,6.337000000000001,0.215,-1
226,227,1582725048483,-1.2243191,-4.084105999999999,0.502987,1.334,5.369,-0.011000000000000001,-1
227,228,1582725048493,-2.1719716,-5.298929,0.15454364,0.34,4.167,-0.35200000000000004,-1
228,229,1582725048503,-3.1726217,-7.430064,-0.3772793,-0.725,2.0540000000000003,-0.8590000000000001,-1
229,230,1582725048514,-3.5234718000000003,-8.165451,-0.45469585,-1.094,1.324,-0.922,-1
230,231,1582725048523,-4.4289393,-10.227753,-0.069705695,-2.04,-0.725,-0.47100000000000003,-1
231,232,1582725048533,-4.8662977,-10.899047999999999,-0.030370682000000003,-2.4859999999999998,-1.393,-0.40399999999999997,-1
232,233,1582725048543,-6.211687599999999,-11.933586,-0.3433994,-3.841,-2.423,-0.6579999999999999,-1
233,234,1582725048554,-7.614753200000001,-12.538454,-0.4566504,-5.24,-3.0269999999999997,-0.708,-1
234,235,1582725048564,-8.34034,-13.140089000000001,-0.72361165,-5.942,-3.633,-0.907,-1
235,236,1582725048574,-8.422581,-13.75666,-0.7847171,-5.939,-4.27,-0.8590000000000001,-1
236,237,1582725048585,-8.379197999999999,-13.913397,-0.42299408,-5.8,-4.452,-0.414,-1
237,238,1582725048595,-8.544296000000001,-13.836936999999999,-0.23853871,-5.906000000000001,-4.3919999999999995,-0.184,-1
238,239,1582725048605,-8.8925495,-13.283414000000002,1.149247,-6.03,-3.906,1.35,-1
239,240,1582725048616,-8.638541,-13.157435999999999,1.3767271,-5.683,-3.81,1.6230000000000002,-1
240,241,1582725048626,-7.335739,-13.006802,-0.33687648,-4.0489999999999995,-3.7739999999999996,0.013999999999999999,-1
241,242,1582725048636,-6.944025,-12.775931,-2.0047998,-3.403,-3.64,-1.597,-1
242,243,1582725048647,-5.332178,-12.468732000000001,-2.8850045,-1.508,-3.451,-2.4090000000000003,-1
243,244,1582725048657,-3.5731995000000003,-11.690064,-3.3159989999999997,0.562,-2.8160000000000003,-2.7489999999999997,-1
244,245,1582725048667,-1.5545125,-11.046234,-3.5834112,2.9139999999999997,-2.344,-2.895,-1
245,246,1582725048677,0.5427041,-10.387946000000001,-3.3772067999999997,5.362,-1.889,-2.533,-1
246,247,1582725048687,2.0739741,-9.636044,-2.3544753,8.135,-1.084,-0.215,-1
247,248,1582725048697,3.528143,-8.020348,1.112582,9.4,-0.29600000000000004,2.536,-1
248,249,1582725048707,3.9048662000000003,-7.231095,2.590466,9.97,0.316,4.148,-1
249,250,1582725048717,5.8061047,-4.928625,6.215189,12.363,2.114,8.107000000000001,-1
250,251,1582725048727,6.8946314,-4.403694000000001,6.662094000000001,13.607999999999999,2.464,8.646,-1
251,252,1582725048737,9.470898,-3.7074547,6.34321,16.489,2.7969999999999997,8.49,-1
252,253,1582725048747,11.211708,-2.8781776000000003,5.2916620000000005,18.515,3.25,7.5889999999999995,-1
253,254,1582725048757,11.8944645,-2.1294944,4.255836,19.454,3.616,6.707999999999999,-1
254,255,1582725048767,12.12215,-0.67799807,4.113302,19.905,4.6819999999999995,6.734,-1
255,256,1582725048777,12.109639999999999,1.7955866000000003,6.050993,20.084,6.765,8.859,-1
256,257,1582725048788,13.536103,4.126557,10.159607000000001,21.749000000000002,8.504,13.251,-1
257,258,1582725048798,14.412872,5.0162597,11.290460000000001,22.756999999999998,9.017000000000001,14.537,-1
258,259,1582725048808,14.556107,5.345481400000001,11.079672,22.958000000000002,9.17,14.389000000000001,-1
259,260,1582725048818,13.655534,5.601486,8.318445,22.199,8.957,11.770999999999999,-1
260,261,1582725048828,11.810314,5.6269746,6.1321154,20.424,8.715,9.658999999999999,-1
261,262,1582725048839,10.641261,5.978408,4.206351799999999,19.311,8.823,7.8,-1
262,263,1582725048849,10.26021,6.2458324,2.3406224,18.975,8.861,5.999,-1
263,264,1582725048859,9.951706,6.3802585999999994,1.7382698,18.685,8.883,5.431,-1
264,265,1582725048869,9.671903,6.826064,2.765848,18.444000000000003,8.986,6.581,-1
265,266,1582725048879,9.509281,6.785462400000001,4.4402989999999996,18.293,8.715,8.351,-1
266,267,1582725048890,9.123271,6.668825999999999,5.709792,17.912,8.382,9.709,-1
267,268,1582725048900,8.588227,6.3622017,6.297182,17.383,7.8839999999999995,10.36,-1
268,269,1582725048910,8.012888,5.9978695,6.2372785,16.815,7.359,10.341,-1
269,270,1582725048920,7.556427,5.5843196,5.0619316,16.365,6.818,9.192,-1
270,271,1582725048930,6.485203,5.5700145,3.3078532,15.296,6.752999999999999,7.4479999999999995,-1
271,272,1582725048941,6.3516817,5.694657,1.5893426000000002,15.165,6.756,5.757000000000001,-1
272,273,1582725048951,6.243799,5.6371910000000005,0.18045855,15.055,6.636,4.368,-1
273,274,1582725048961,5.3155269999999994,5.3959227,-0.27931714,14.120999999999999,6.343999999999999,3.932,-1
274,275,1582725048971,3.9705991999999997,5.070741,-0.26981664,12.767000000000001,5.975,3.97,-1
275,276,1582725048981,3.012434,4.725020400000001,0.39746094,11.795,5.585,4.675,-1
276,277,1582725048991,2.695033,4.463337999999999,0.9182453000000002,11.469000000000001,5.3,5.218,-1
277,278,1582725049001,2.6921720000000002,3.8766236000000003,2.7180414,11.440999999999999,4.641,7.082000000000001,-1
278,279,1582725049011,2.6534977000000004,3.6876903,3.3782592000000005,11.392999999999999,4.416,7.767,-1
279,280,1582725049021,2.4365634999999997,3.575986,2.9626641,11.172,4.289,7.362,-1
280,281,1582725049032,2.1645746,3.3637555,1.9763451,10.899000000000001,4.081,6.377000000000001,-1
281,282,1582725049042,1.743434,3.214049,0.9838786,10.478,3.951,5.381,-1
282,283,1582725049052,1.3915548,2.8001356,0.4185834,10.126,3.5660000000000003,4.811,-1
283,284,1582725049062,0.8694458,2.5170369999999997,0.22291327,9.601,3.3169999999999997,4.615,-1
284,285,1582725049073,0.34271240000000003,2.0787787,0.31561995,9.067,2.917,4.715,-1
285,286,1582725049082,0.15006828,1.887117,0.8840914000000001,8.863,2.7560000000000002,5.3,-1
286,287,1582725049092,0.31861115,1.8390833,1.2996869,9.022,2.725,5.731,-1
287,288,1582725049102,0.61079884,1.8663466,1.2582698,9.309,2.766,5.697,-1
288,289,1582725049112,1.0595903,1.8739321,0.80349207,9.757,2.792,5.24,-1
289,290,1582725049123,1.5123482,2.0443661,-0.19073772,10.212,2.988,4.236000000000001,-1
290,291,1582725049133,1.8723316000000003,1.9827651999999998,-1.0495743999999998,10.574000000000002,2.955,3.367,-1
291,292,1582725049143,1.7915144,1.9327493000000002,-0.9135883,10.49,2.9330000000000003,3.503,-1
292,293,1582725049153,1.2766256,1.8082547999999998,-0.12169075,9.965,2.838,4.308,-1
293,294,1582725049164,1.1255465,1.7535626,0.47895622,9.807,2.7969999999999997,4.919,-1
294,295,1582725049174,0.580616,1.5169705,1.5440664,9.242,2.603,6.013,-1
295,296,1582725049184,0.55407715,1.4323351,1.2226701000000002,9.208,2.555,5.697,-1
296,297,1582725049195,0.3591404,1.33493,0.09382343,9.012,2.509,4.5569999999999995,d
297,298,1582725049204,0.41883373,1.1582552,-0.8729439,9.081,2.399,3.554,-1
298,299,1582725049214,0.58655643,1.0013144,-1.3044078000000001,9.266,2.306,3.07,-1
299,300,1582725049224,1.1316861999999999,0.97148144,-0.90521646,9.814,2.301,3.4560000000000004,-1
300,301,1582725049235,1.7437811,1.0561862,0.012539386999999999,10.418,2.395,4.387,-1
301,302,1582725049245,1.9742918,1.113372,0.69481945,10.636,2.4619999999999997,5.091,-1
302,303,1582725049256,1.3358936000000001,0.9454367,1.5130243,9.982000000000001,2.313,5.934,-1
303,304,1582725049266,1.1426849,0.88799167,1.6704302,9.774,2.282,6.112,-1
304,305,1582725049276,0.79428196,0.8521658000000001,1.7326683999999997,9.414,2.28,6.186,-1
305,306,1582725049287,0.50414276,0.8138416,1.0137505999999998,9.113,2.306,5.4670000000000005,-1
306,307,1582725049297,0.31442738,0.88260424,0.107940674,8.919,2.426,4.552,-1
307,308,1582725049307,0.36098385,0.9165515,-0.10094643,9.192,2.375,3.9130000000000003,-1
308,309,1582725049317,0.8956603999999999,1.0502747,-0.6464772,9.496,2.677,3.7760000000000002,-1
309,310,1582725049327,1.6379814,1.2217755,-0.17910910000000002,10.229,2.866,4.255,-1
310,311,1582725049338,2.297432,1.351725,0.7882756999999999,10.875,3.005,5.245,-1
311,312,1582725049348,2.2791642999999997,1.3168646000000002,1.9361677,10.842,2.984,6.416,-1
312,313,1582725049358,2.1328335,1.3040698999999998,2.5961924,10.684000000000001,2.9960000000000004,7.0889999999999995,-1
313,314,1582725049368,1.5054254999999999,1.314859,2.7194599999999998,10.049,3.048,7.211,-1
314,315,1582725049378,0.9173745999999999,1.453841,1.9449243999999999,9.455,3.245,6.425,-1
315,316,1582725049389,0.92711735,1.5509815,0.74173784,9.46,3.408,5.204,-1
316,317,1582725049399,1.6333895,1.9084375,-0.004814625,10.164,3.824,4.437,-1
317,318,1582725049409,2.4453506000000003,2.099194,0.17186165,10.970999999999998,4.061,4.603,-1
318,319,1582725049419,3.4203099999999997,2.191671,0.572382,11.936,4.1930000000000005,5.005,-1
319,320,1582725049429,3.6022548999999997,2.3595588,1.6475482,12.102,4.402,6.0920000000000005,-1
320,321,1582725049440,3.5276852,2.4193947000000002,2.3802338,12.017999999999999,4.485,6.832000000000001,-1
321,322,1582725049450,3.3855133,2.8467849999999997,4.296568,11.85,5.0,8.756,-1
322,323,1582725049460,3.1077976,3.3455517,4.7522583,11.56,5.577999999999999,9.196,-1
323,324,1582725049470,3.107647,4.0350676,4.6227555,11.548,6.361000000000001,9.041,-1
324,325,1582725049480,3.3636074000000002,4.7451514999999995,4.256191,11.788,7.172999999999999,8.65,-1
325,326,1582725049490,4.2534733000000005,5.1141385999999995,3.6745558,12.657,7.647,8.049,-1
326,327,1582725049501,5.8996687,5.3914385000000005,3.2828635999999998,14.279000000000002,8.032,7.64,-1
327,328,1582725049511,7.127621700000001,5.7987227,3.5638980000000005,15.479000000000001,8.555,7.903,-1
328,329,1582725049521,7.524360700000001,5.7417383,4.7205887,15.843,8.631,9.036,-1
329,330,1582725049531,6.884879,5.8916917,5.642646,15.165,8.937999999999999,9.924,-1
330,331,1582725049542,6.592056299999999,5.615432,5.872804599999999,14.827,8.842,10.109,-1
331,332,1582725049552,6.6120577,5.318612,5.8224599999999995,14.796,8.744,10.001,-1
332,333,1582725049562,6.5302105,4.8370094,5.977826,14.657,8.478,10.085,-1
333,334,1582725049572,6.110469,4.534633599999999,6.1006756,14.173,8.408,10.121,-1
334,335,1582725049583,5.555578700000001,4.1343502999999995,6.105883599999999,13.546,8.255,10.023,-1
335,336,1582725049592,5.226253,3.7830815,5.737133999999999,13.136,8.162,9.536,-1
336,337,1582725049602,5.132939,3.136704,4.849775,12.952,7.781000000000001,8.519,-1
337,338,1582725049612,5.0619654999999995,2.442389,4.1235046,12.779000000000002,7.357,7.654,-1
338,339,1582725049623,4.621349299999999,1.6894846000000001,3.3313053,12.224,6.877999999999999,6.715,-1
339,340,1582725049633,4.2587748,0.70739746,3.0811433999999998,11.735,6.171,6.31,-1
340,341,1582725049643,3.615078,-0.27855158,3.5696392,10.954,5.457999999999999,6.636,-1
341,342,1582725049653,2.816112,-1.0632257,4.6594915,10.008,4.9430000000000005,7.553,-1
342,343,1582725049664,1.7038602999999999,-1.7665272,5.3080044,8.741,4.505,8.013,-1
343,344,1582725049674,0.30779362,-1.9770136000000003,4.9200916,7.182,4.548,7.438,-1
344,345,1582725049684,-0.59562397,-2.237402,3.9355900000000004,6.109,4.49,6.377000000000001,-1
345,346,1582725049694,-1.609386,-3.0012293,3.1516612,4.842,4.052,5.343,-1
346,347,1582725049704,-1.9085988999999999,-3.0906358,3.0378006,4.459,4.066,5.1370000000000005,-1
347,348,1582725049715,-1.9060596999999997,-3.8839796000000004,3.5370953000000003,4.22,3.549,5.379,-1
348,349,1582725049725,-1.9106506999999997,-3.8896203000000003,3.5484147000000004,4.138,3.6260000000000003,5.309,-1
349,350,1582725049735,-2.1970937000000004,-3.8265373999999994,2.5543932999999996,3.6210000000000004,3.925,4.0489999999999995,-1
350,351,1582725049745,-2.35835,-4.1680794,2.03333,3.307,3.7310000000000003,3.3289999999999997,-1
351,352,1582725049756,-2.3478212000000003,-4.1607666,1.891084,3.242,3.8080000000000003,3.0839999999999996,-1
352,353,1582725049766,-3.1757622000000003,-4.4190245,1.529563,2.191,3.741,2.414,-1
353,354,1582725049776,-3.7837322,-4.7533902999999995,1.374839,1.444,3.515,2.064,-1
354,355,1582725049786,-4.205937400000001,-5.073493,1.5362215,0.898,3.285,2.042,-1
355,356,1582725049797,-4.2102437,-5.478383,1.8609002000000001,0.792,2.95,2.193,-1
356,357,1582725049807,-4.0017905,-5.560301,1.7712443,0.922,2.9189999999999996,1.939,-1
357,358,1582725049817,-2.8868032,-5.7027845,0.6002004,1.98,2.8110000000000004,0.61,-1
358,359,1582725049827,-0.74479866,-5.3808403,-1.0802969999999998,4.083,3.154,-1.219,-1
359,360,1582725049837,0.28122709999999995,-5.233746,-1.7973229,5.075,3.3169999999999997,-2.0709999999999997,-1
360,361,1582725049848,0.06782293,-5.496093,-1.6520633000000002,4.816,3.075,-2.0540000000000003,-1
361,362,1582725049858,-0.9355624,-5.738057,-1.256574,3.752,2.859,-1.7930000000000001,-1
362,363,1582725049868,-1.5944293,-5.843148,-1.0983663000000001,3.029,2.778,-1.784,-1
363,364,1582725049878,-2.209168,-5.784237999999999,-1.2620973999999998,2.356,2.8539999999999996,-2.105,-1
364,365,1582725049888,-1.8737718999999997,-5.465307,-2.0287043999999996,2.648,3.18,-3.02,-1
365,366,1582725049899,-1.0195124,-5.1406089999999995,-2.7945485,3.477,3.503,-3.908,-1
366,367,1582725049909,-0.41545057,-4.711951999999999,-2.6367578999999997,4.069,3.927,-3.832,-1
367,368,1582725049919,-0.09915304,-4.4722934,-2.0612783,4.38,4.164,-3.295,-1
368,369,1582725049929,0.15627337,-4.609932,-1.187502,4.629,4.0280000000000005,-2.4330000000000003,-1
369,370,1582725049939,0.46354675,-4.3671594,-0.17692935,4.9239999999999995,4.275,-1.4369999999999998,-1
370,371,1582725049950,0.5720310000000001,-4.342135,0.20011055,5.007,4.306,-1.1079999999999999,-1
371,372,1582725049960,0.0011940002,-3.9904889999999997,-0.09738039999999999,4.394,4.665,-1.496,-1
372,373,1582725049970,-0.8945112,-3.7681642,-1.3433295,3.448,4.893,-2.859,-1
373,374,1582725049980,-1.8186650000000002,-3.5850215,-2.8202963,2.481,5.077,-4.449,-1
374,375,1582725049991,-2.0107944,-3.2039413,-3.330287,2.2680000000000002,5.452999999999999,-5.039,-1
375,376,1582725050001,-1.5374823,-3.067134,-2.7181764,2.7489999999999997,5.58,-4.457,-1
376,377,1582725050011,-0.5979111,-2.7390613999999998,-2.0385284,3.719,5.894,-3.772,-1
377,378,1582725050021,0.6541505,-2.3459557999999996,-1.0406741,5.019,6.267,-2.7539999999999996,-1
378,379,1582725050031,1.6073541999999998,-1.7242613000000002,-0.16765976,6.045,6.854,-1.868,-1
379,380,1582725050041,1.8030043000000002,-1.2734551,0.29011798,6.375,7.235,-1.405,-1
380,381,1582725050051,0.8601885,-1.1006875,0.07785392,5.479,7.374,-1.659,-1
381,382,1582725050061,-0.14034128,-0.9449791999999999,-0.29204953,4.459,7.525,-2.102,-1
382,383,1582725050072,-0.9155835999999999,-0.9478325999999999,-1.2677368999999998,3.6519999999999997,7.52,-3.1660000000000004,-1
383,384,1582725050081,-1.4223113,-0.8394184000000001,-2.2577967999999995,3.113,7.622999999999999,-4.255,-1
384,385,1582725050091,-1.4516053,-0.7319579,-2.564828,3.0580000000000003,7.721,-4.658,-1
385,386,1582725050101,-1.2091522,-0.45088434,-2.0244284,3.2880000000000003,7.992000000000001,-4.184,-1
386,387,1582725050111,-0.3012514,-0.25757122,-1.0015912,4.217,8.171,-3.173,-1
387,388,1582725050122,0.41719675,0.11417484,-0.002821684,4.986000000000001,8.526,-2.133,-1
388,389,1582725050132,0.79335546,0.33029556,0.67680883,5.407,8.729,-1.4080000000000001,d
389,390,1582725050142,0.61483145,0.49535942,0.65406084,5.252000000000001,8.885,-1.415,-1
390,391,1582725050152,0.012936592,0.48402023,-0.26245785,4.648,8.868,-2.359,-1
391,392,1582725050162,-0.5245085,0.7295456,-1.2584959999999998,4.093,9.107999999999999,-3.415,-1
392,393,1582725050173,-0.5991626,0.79156494,-1.9851644,4.002,9.163,-4.203,-1
393,394,1582725050183,-0.28039122,0.69384384,-2.0883856,4.315,9.057,-4.349,-1
394,395,1582725050193,-0.2242074,0.61841965,-1.4245157,4.373,8.976,-3.702,-1
395,396,1582725050203,-0.032865047,0.6315736999999999,-0.45548296,4.574,8.986,-2.725,-1
396,397,1582725050213,0.19637871,0.67453766,-0.023385286,4.821000000000001,9.024,-2.275,-1
397,398,1582725050223,0.59439945,1.2523507999999999,-0.35529423,5.249,9.587,-2.6,-1
398,399,1582725050234,1.3535700000000002,1.4465857,-1.3088293,6.025,9.766,-3.575,-1
399,400,1582725050243,1.6630878,1.5068264,-1.6795771000000002,6.3389999999999995,9.818999999999999,-3.963,-1
400,401,1582725050253,2.239573,1.8364706000000002,-2.6321836,6.914,10.138,-4.957,-1
401,402,1582725050263,2.1967363,1.8561611,-3.786981,6.856,10.154,-6.155,-1
402,403,1582725050273,1.8788271,1.7249327,-4.3136015,6.516,10.027000000000001,-6.71,-1
403,404,1582725050284,1.2929568,1.1715174,-3.7919902999999997,5.9079999999999995,9.484,-6.195,-1
404,405,1582725050294,1.0481175999999999,0.82105064,-2.4884145,5.645,9.144,-4.89,-1
405,406,1582725050304,1.4740558000000001,0.75253296,-1.6088142,6.059,9.079,-4.021,-1
406,407,1582725050315,2.5927142999999995,1.3928995000000002,-2.3280334,7.165,9.707,-4.806,-1
407,408,1582725050325,3.1081314,1.4225216,-3.271236,7.676,9.728,-5.7860000000000005,-1
408,409,1582725050335,4.6029267,1.647603,-7.077760700000001,9.151,9.924,-9.721,-1
409,410,1582725050345,5.1562634,1.5495605,-9.035736,9.683,9.814,-11.752,-1
410,411,1582725050355,5.666337,1.3365993,-9.653739999999999,10.164,9.601,-12.418,-1
411,412,1582725050366,5.960462000000001,0.91176224,-9.012481,10.42,9.189,-11.8,-1
412,413,1582725050376,5.9744806,0.79621315,-8.494102999999999,10.411,9.084,-11.287,-1
413,414,1582725050386,5.8320704,0.26959705,-6.442501,10.177999999999999,8.6,-9.251,-1
414,415,1582725050396,5.412031,-0.11249256,-5.443404,9.677999999999999,8.25,-8.279,-1
415,416,1582725050406,5.124517,-0.35507584,-5.172416,9.345,8.023,-8.03,-1
416,417,1582725050417,4.764558,-1.2133098,-6.315186,8.83,7.209,-9.266,-1
417,418,1582725050427,4.481564499999999,-2.0693197,-7.337148700000001,8.435,6.385,-10.347999999999999,-1
418,419,1582725050437,4.298828,-3.0276403,-7.639695,8.142999999999999,5.465,-10.684000000000001,-1
419,420,1582725050448,3.861254,-3.6926951,-7.0303288,7.604,4.845,-10.075,-1
420,421,1582725050458,3.2578058,-4.0830364,-6.199953,6.907,4.502,-9.225,-1
421,422,1582725050468,2.263121,-4.262284999999999,-4.680248000000001,5.8389999999999995,4.354,-7.704,-1
422,423,1582725050478,1.65379,-4.666997,-2.7471752,5.175,3.97,-5.776,-1
423,424,1582725050489,1.4687257,-5.062564,-2.1273682000000003,4.9430000000000005,3.6060000000000003,-5.12,-1
424,425,1582725050499,0.29057932,-6.358994999999999,-1.2131448,3.614,2.4090000000000003,-4.085,-1
425,426,1582725050509,-0.01994133,-6.819217,-0.893065,2.9789999999999996,1.5390000000000001,-3.235,-1
426,427,1582725050519,-1.0471458,-7.8701005,0.604368,2.083,1.015,-2.121,-1
427,428,1582725050530,-1.2299944,-8.096999,1.9858665,1.808,0.838,-0.68,-1
428,429,1582725050540,-0.7892904000000001,-8.406801,3.0578567999999997,2.16,0.5720000000000001,0.44,-1
429,430,1582725050550,-1.2137772,-8.73958,3.029225,1.65,0.28,0.457,-1
430,431,1582725050560,-2.0233483,-9.0324545,2.5660355,0.7709999999999999,0.027999999999999997,0.062,-1
431,432,1582725050571,-2.420811,-9.348409,2.7484615000000003,0.335,-0.244,0.364,-1
432,433,1582725050581,-2.6604836,-9.990983,6.3902698,0.098,-0.8140000000000001,4.306,-1
433,434,1582725050591,-2.773743,-10.167278999999999,8.735878,-0.002,-0.965,6.785,-1
434,435,1582725050602,-3.3638651,-11.061958,16.322252,-0.519,-1.777,14.956,-1
435,436,1582725050612,-3.6386955000000003,-11.115564,20.740804999999998,-0.74,-1.815,19.615,-1
436,437,1582725050622,-3.0955342999999997,-10.750200999999999,22.67696,-0.124,-1.453,21.726999999999997,-1
437,438,1582725050633,-2.7006195,-10.203503,22.315773,0.368,-0.9259999999999999,21.49,-1
438,439,1582725050643,-2.6197896000000003,-9.38743,21.186562,0.574,-0.14300000000000002,20.472,-1
439,440,1582725050653,-2.7080479,-8.864051,20.911362,0.56,0.359,20.259,-1
440,441,1582725050664,-2.1113873,-7.599860700000001,21.513397,1.42,1.5390000000000001,21.088,-1
441,442,1582725050674,-1.8490238,-7.373462700000001,22.300447,1.7790000000000001,1.7309999999999999,21.959,-1
442,443,1582725050684,-0.92454123,-6.8440228,24.481115,3.003,2.141,24.362,-1
443,444,1582725050695,-0.6248205,-6.053506,24.709446,3.503,2.842,24.671,-1
444,445,1582725050704,-0.31412888,-5.461837,23.166723,4.013999999999999,3.338,23.143,-1
445,446,1582725050714,-0.01957655,-5.2196846,21.940838,4.409,3.53,21.906999999999996,-1
446,447,1582725050725,0.21176481,-4.4209013,19.221497,4.845,4.2219999999999995,19.16,-1
447,448,1582725050735,1.5006952,-3.0515627999999997,17.15877,6.466,5.405,17.107,-1
448,449,1582725050746,3.6688347,-2.3147302000000005,16.7018,8.878,5.994,16.702,-1
449,450,1582725050756,4.822938400000001,-1.902041,16.535406,10.157,6.327000000000001,16.567999999999998,-1
450,451,1582725050766,6.779255,-1.4661188,13.953945999999998,12.475,6.516,14.075,-1
451,452,1582725050776,7.0091779999999995,-1.3670101000000001,11.6989975,12.923,6.454,11.869000000000002,-1
452,453,1582725050786,6.326553,-1.3358741000000003,9.621806,12.442,6.327000000000001,9.85,-1
453,454,1582725050796,5.8358360000000005,-0.81226873,8.633449,12.145,6.689,8.943,-1
454,455,1582725050807,6.4139953,-0.32632303,7.6352262,12.915999999999999,7.002999999999999,8.054,-1
455,456,1582725050817,7.001450500000001,0.28242493,7.390227,13.694,7.428999999999999,7.944,-1
456,457,1582725050827,7.872615,0.4278388,7.0825130000000005,14.75,7.382999999999999,7.787999999999999,-1
457,458,1582725050837,8.348241999999999,0.43650723,6.0122933,15.399000000000001,7.197,6.88,-1
458,459,1582725050847,9.617272,-0.22401428,3.5176945,16.904,6.2410000000000005,4.648,-1
459,460,1582725050858,11.44445,-0.11778307,1.65698,18.87,6.152,2.969,-1
460,461,1582725050868,12.516395,0.14428616,0.7801298000000001,20.005,6.318,2.186,-1
461,462,1582725050878,14.566065,1.7574849,-1.1012024999999999,22.211,7.659,0.601,-1
462,463,1582725050888,15.242184,2.5311193,-1.7328881999999999,22.961,8.274,0.16699999999999998,-1
463,464,1582725050898,14.752735000000001,2.5810032000000005,-2.550193,22.52,8.195,-0.47100000000000003,-1
464,465,1582725050909,13.082977,1.9421897000000001,-3.5409962999999998,20.877,7.46,-1.31,-1
465,466,1582725050919,12.203438,1.5254207,-3.9258828,20.005,7.005,-1.6280000000000001,-1
466,467,1582725050929,10.058461999999999,1.2617979,-5.4389133,17.871,6.646,-2.96,-1
467,468,1582725050939,10.333704,1.80725,-7.401169,18.154,7.125,-4.806,-1
468,469,1582725050949,12.142275,2.2509465,-10.113142,19.974,7.494,-7.403,-1
469,470,1582725050960,14.030666,2.495491,-12.230746,21.873,7.666,-9.414,-1
470,471,1582725050970,14.534483999999999,2.7186427,-13.554426000000001,22.381,7.834,-10.65,-1
471,472,1582725050980,13.683957999999999,2.3973784,-13.987025,21.528000000000002,7.484,-11.026,-1
472,473,1582725050990,11.744675,1.9512005000000001,-13.869902,19.581,7.034,-10.882,-1
473,474,1582725051000,10.279908,1.2449088,-13.860253,18.108,6.3389999999999995,-10.87,-1
474,475,1582725051010,9.289452,1.0286307,-14.476679,17.112000000000002,6.138,-11.498,-1
475,476,1582725051021,8.9903145,0.97440195,-15.289966,16.813,6.095,-12.331,-1
476,477,1582725051031,9.196019,0.7631774,-16.052483,17.026,5.888999999999999,-13.122,-1
477,478,1582725051041,9.102261,0.54039955,-16.36795,16.944000000000003,5.669,-13.474,-1
478,479,1582725051051,8.960428,0.033864975,-16.611593,16.815,5.166,-13.759,-1
479,480,1582725051061,8.756943,-0.63929987,-17.066692,16.623,4.5,-14.259,-1
480,481,1582725051071,8.679565,-1.4309914,-17.201553,16.554000000000002,3.721,-14.440999999999999,-1
481,482,1582725051081,8.182638,-2.312578,-16.015106,16.061,2.8569999999999998,-13.299000000000001,-1
482,483,1582725051091,6.856124,-3.1937002999999997,-13.941073000000001,14.734000000000002,1.999,-11.267999999999999,-1
483,484,1582725051101,5.2954989999999995,-4.3969903,-11.707481,13.175,0.821,-9.089,-1
484,485,1582725051112,3.9005803999999995,-5.344565,-9.797067,11.795,-0.107,-7.263999999999999,-1
485,486,1582725051122,2.9173894000000002,-6.028262000000001,-8.501455,10.850999999999999,-0.787,-6.102,-1
486,487,1582725051132,2.4929813999999997,-6.415659,-7.872692999999999,10.49,-1.192,-5.652,-1
487,488,1582725051142,2.4147062000000004,-6.687864,-7.637059,10.482999999999999,-1.494,-5.6129999999999995,-1
488,489,1582725051152,2.8857965,-7.006776299999999,-7.120488000000001,11.024000000000001,-1.851,-5.287999999999999,-1
489,490,1582725051162,3.1725693,-6.9674916,-6.526341,11.376,-1.8559999999999999,-4.869,-1
490,491,1582725051173,4.017284399999999,-6.811347500000001,-5.1199546,12.279000000000002,-1.7480000000000002,-3.611,-1
491,492,1582725051183,4.1271076,-6.324355000000001,-3.320754,12.442,-1.3119999999999998,-1.939,-1
492,493,1582725051193,3.3911437999999996,-5.6957107,-0.7755022,11.761,-0.7440000000000001,0.488,-1
493,494,1582725051203,2.8937482999999995,-5.6560783,1.6125998,11.321,-0.773,2.7560000000000002,-1
494,495,1582725051214,3.1092577,-5.710496400000001,3.2870489999999997,11.589,-0.888,4.291,-1
495,496,1582725051224,3.8870869,-5.562937000000001,4.363052,12.415,-0.797,5.218,-1
496,497,1582725051234,4.541831,-5.152847,5.826613,13.115,-0.447,6.5520000000000005,-1
497,498,1582725051245,4.495944000000001,-4.487018,7.0922220000000005,13.112,0.153,7.728,-1
498,499,1582725051255,4.269301400000001,-3.1144867,9.89269,12.945,1.422,10.460999999999999,-1
499,500,1582725051265,4.7866,-2.7577238,10.952275,13.481,1.745,11.503,-1
500,501,1582725051275,5.5446386,-2.0019261999999998,14.227492999999999,14.286,2.418,14.7,-1
501,502,1582725051285,4.9331274,-1.4845698,14.909720000000002,13.694,2.905,15.296,-1
502,503,1582725051296,4.0385475,-1.3543026000000002,14.616156,12.81,3.022,14.899000000000001,-1
503,504,1582725051305,3.4802980000000003,-1.0798562,14.064449,12.255,3.293,14.295,-1
504,505,1582725051315,2.7044353,-0.9069519,12.917857000000001,11.484000000000002,3.46,13.057,-1
505,506,1582725051325,2.0044374,-0.52643514,11.740267999999999,10.789000000000001,3.832,11.817,-1
506,507,1582725051335,1.596941,-0.31282902,11.268077,10.387,4.035,11.309000000000001,-1
507,508,1582725051345,1.495204,-0.13332748,11.303238,10.290999999999999,4.203,11.328,-1
508,509,1582725051356,1.9193678,0.09148121,11.703586,10.72,4.418,11.725999999999999,-1
509,510,1582725051366,1.8771963,0.23286629,12.355669,10.679,4.5569999999999995,12.379000000000001,-1
510,511,1582725051376,1.0983582,0.16737461,12.105636,9.896,4.5,12.123,-1
511,512,1582725051386,-0.38001728,0.6497903,10.352062,8.404,5.01,10.353,-1
512,513,1582725051397,-0.5910797,0.67285633,9.463243499999999,8.187999999999999,5.043,9.467,-1
513,514,1582725051407,-0.7616892,0.6616683000000001,7.08494,8.004,5.058,7.1579999999999995,-1
514,515,1582725051417,-0.5565996,0.65642786,6.5376835,8.205,5.06,6.653,-1
515,516,1582725051427,0.1873455,0.6754998999999999,5.4482594,8.937999999999999,5.093999999999999,5.718999999999999,-1
516,517,1582725051437,0.45457935,0.7045307,5.285692,9.196,5.132000000000001,5.68,-1
517,518,1582725051448,0.6281681,0.5793480999999999,5.7619014,9.357000000000001,5.019,6.279,-1
518,519,1582725051458,0.5029935999999999,0.5090064999999999,6.081355599999999,9.216000000000001,4.967,6.6979999999999995,-1
519,520,1582725051468,0.14776897,0.43667698,5.896259,8.842,4.921,6.582999999999999,-1
520,521,1582725051478,-0.24978161,0.24311829,4.9816080000000005,8.423,4.758,5.736000000000001,-1
521,522,1582725051489,-1.0445652,0.20660019,3.8338175000000003,7.5920000000000005,4.763,4.739,-1
522,523,1582725051499,-1.407074,0.06357479,3.231091,7.1579999999999995,4.678999999999999,4.459,-1
523,524,1582725051509,-1.2177372,0.12356949,3.2068814999999997,7.292000000000001,4.766,4.691,-1
524,525,1582725051519,-0.6393800000000001,0.18165731,2.9800037999999995,7.843,4.821000000000001,4.622,-1
525,526,1582725051529,0.03537178,0.3638878,2.7141252000000002,8.502,4.988,4.476,-1
526,527,1582725051540,0.77753353,0.28895617,2.1170797,9.235,4.893,3.9730000000000003,-1
527,528,1582725051550,0.92483425,0.30237055,1.9566418,9.378,4.897,3.855,-1
528,529,1582725051560,0.8880309999999999,0.3192501,2.244186,9.326,4.897,4.248,-1
529,530,1582725051570,0.6215563000000001,0.26090097,2.4111380000000002,9.048,4.835,4.471,-1
530,531,1582725051580,0.105015755,0.33220243,2.218332,8.519,4.907,4.327,-1
531,532,1582725051591,0.10154438,0.46635294,1.7317836,8.504,5.043,3.8819999999999997,-1
532,533,1582725051601,0.5084276,0.69848967,1.631391,8.904,5.271,3.8169999999999997,-1
533,534,1582725051611,1.197959,0.8206114999999999,1.2773988,9.592,5.381,3.4939999999999998,-1
534,535,1582725051621,2.0081491000000002,0.8829169,0.88875747,10.401,5.428999999999999,3.139,-1
535,536,1582725051631,2.3388709999999997,0.8412132,0.6957171,10.727,5.376,2.986,d
536,537,1582725051642,2.5468416,0.86426306,0.9963393,10.925999999999998,5.393,3.3310000000000004,-1
537,538,1582725051652,2.6089087,0.6895485,1.8869116000000001,10.975999999999999,5.218,4.265,-1
538,539,1582725051662,2.3488073,0.8140979,2.520737,10.703,5.352,4.926,-1
539,540,1582725051672,1.6696615000000001,0.9966444999999999,2.6436975,10.011000000000001,5.556,5.053,-1
540,541,1582725051682,1.2905263999999999,1.0753469999999998,1.9973125,9.62,5.664,4.3919999999999995,-1
541,542,1582725051693,1.1670284,1.3646655,1.3728423,9.484,5.985,3.75,-1
542,543,1582725051703,1.1562146999999998,1.4718399,0.78146553,9.457,6.121,3.159,-1
543,544,1582725051713,1.5980501,1.6669216,1.1124601,9.879,6.337000000000001,3.5180000000000002,-1
544,545,1582725051723,2.67424,1.8200455000000002,2.4748335,10.933,6.502000000000001,4.933,-1
545,546,1582725051733,3.7171782999999996,2.1349572999999995,4.2398224,11.950999999999999,6.83,6.756,-1
546,547,1582725051743,4.921876,2.4350185,5.340122,13.129000000000001,7.1579999999999995,7.891,-1
547,548,1582725051754,5.0372010000000005,2.5466132000000004,5.661388400000001,13.215,7.3229999999999995,8.207,-1
548,549,1582725051764,3.6447095999999997,3.1968927000000003,4.740288700000001,11.765999999999998,8.095,7.235,-1
549,550,1582725051774,3.4842089999999994,3.323236,4.3310146,11.582,8.265,6.816,-1
550,551,1582725051784,3.158246,3.6110230000000003,4.6791540000000005,11.200999999999999,8.634,7.18,-1
551,552,1582725051794,3.5635605000000004,3.7079372000000004,8.162154,11.505,8.832,10.779000000000002,-1
552,553,1582725051805,4.3441367,3.8741464999999997,11.021614999999999,12.209000000000001,9.062000000000001,13.742,-1
553,554,1582725051815,5.1056447,3.691554,12.055233,12.93,8.916,14.822000000000001,-1
554,555,1582725051825,6.4171205,3.6914263,11.916638,14.110999999999999,9.068999999999999,14.755,-1
555,556,1582725051835,6.6518836,3.6921825,10.449608999999999,14.298,9.139,13.285,-1
556,557,1582725051845,6.1492295,3.7462324999999996,5.947932,13.634,9.443,8.722000000000001,-1
557,558,1582725051855,5.338743,3.7576337,4.215798400000001,12.698,9.639,6.94,-1
558,559,1582725051866,5.15489,3.667653,3.7869506,12.446,9.642000000000001,6.492000000000001,-1
559,560,1582725051876,4.370447599999999,3.5458616999999997,5.002952,11.437999999999999,9.793,7.685,-1
560,561,1582725051886,4.409303700000001,3.0076828,6.1308403,11.315999999999999,9.433,8.811,-1
561,562,1582725051896,4.755175,2.4711037,6.2525773000000004,11.495999999999999,9.077,8.916,-1
562,563,1582725051906,5.421592700000001,1.939384,5.403764,11.994000000000002,8.732000000000001,8.017999999999999,-1
563,564,1582725051916,5.619123,1.7227119999999998,4.818405599999999,12.106,8.612,7.393,-1
564,565,1582725051926,5.391853,1.0066085,2.580568,11.610999999999999,8.198,4.984,-1
565,566,1582725051936,4.3264685,0.56560373,1.3065364,10.356,7.961,3.57,-1
566,567,1582725051946,3.366664,0.5276331999999999,0.44519758,9.201,8.119,2.5669999999999997,-1
567,568,1582725051957,3.0518775000000002,0.6343831999999999,-0.17600870000000002,8.689,8.408,1.815,-1
568,569,1582725051966,3.2375789,0.5115628,-0.21935809,8.777000000000001,8.37,1.712,-1
569,570,1582725051976,4.2012453,-0.06653786,-1.0566158,9.457,8.023,0.706,-1
570,571,1582725051986,4.706168,-0.534307,-1.4931952,9.774,7.697,0.16,-1
571,572,1582725051997,4.919128400000001,-0.8840718000000001,-0.8688418,9.795,7.482,0.682,-1
572,573,1582725052007,4.491134,-1.6250935,0.25147998,9.175,6.8660000000000005,1.712,-1
573,574,1582725052017,3.746354,-2.2690468,1.3264764999999998,8.253,6.33,2.7110000000000003,-1
574,575,1582725052027,3.3697686,-3.000465,1.7601792,7.7620000000000005,5.666,3.091,-1
575,576,1582725052038,3.0305982000000005,-3.4589038,1.2713809999999999,7.364,5.247000000000001,2.536,-1
576,577,1582725052048,2.530333,-3.6408709999999997,-0.66247594,6.672000000000001,5.182,0.42100000000000004,-1
577,578,1582725052058,2.4430959999999997,-3.6969452000000005,-3.0941400000000003,6.388999999999999,5.24,-2.239,-1
578,579,1582725052068,2.5246677,-3.8037105,-5.3204765,6.346,5.212999999999999,-4.803999999999999,-1
579,580,1582725052078,2.106156,-3.7915702000000007,-5.5785599999999995,5.894,5.254,-5.561,-1
580,581,1582725052089,2.1022353,-4.1968265,-4.835447,5.74,4.907,-5.075,-1
581,582,1582725052099,1.7924973999999998,-4.794757,-3.3263065999999997,5.23,4.382,-3.702,-1
582,583,1582725052109,0.80281115,-5.284762000000001,-1.8444839,4.023,3.966,-2.318,-1
583,584,1582725052119,-0.14078069,-5.677579,-1.1444345,2.864,3.64,-1.714,-1
584,585,1582725052129,-0.48996258,-5.7431470000000004,-1.171322,2.313,3.63,-1.848,-1
585,586,1582725052140,-0.6719321,-5.81773,-2.465617,1.949,3.5989999999999998,-3.2569999999999997,-1
586,587,1582725052150,-0.3422637,-5.627539,-4.10058,2.121,3.822,-5.0,-1
587,588,1582725052160,-0.12461877,-5.711212000000001,-4.9933442999999995,2.205,3.764,-5.975,-1
588,589,1582725052170,-0.25760472,-5.891037,-4.623215,1.956,3.609,-5.632999999999999,-1
589,590,1582725052180,-0.7808174,-5.7851067,-3.1512094,1.331,3.741,-4.133,-1
590,591,1582725052190,-1.3176912,-5.5931396,-1.1396158,0.706,3.958,-2.062,-1
591,592,1582725052201,-2.0801263,-5.6214476,0.86698425,-0.131,3.951,0.006999999999999999,-1
592,593,1582725052211,-1.6205828000000002,-5.565901,2.4022188,0.273,4.021,1.58,-1
593,594,1582725052222,-0.18469249999999998,-5.617948,1.8242571,1.6740000000000002,3.975,0.993,-1
594,595,1582725052232,0.84185004,-5.40674,-0.39871222,2.677,4.186,-1.2830000000000001,-1
595,596,1582725052242,1.3812252,-5.1618265999999995,-2.5428026000000004,3.233,4.648,-4.0969999999999995,-1
596,597,1582725052252,-0.1626805,-4.5773697,-3.2569767999999995,1.6159999999999999,5.012,-4.282,-1
597,598,1582725052263,-0.7850734,-4.458033599999999,-2.2762237,0.977,5.1339999999999995,-3.305,-1
598,599,1582725052273,-1.2697978,-4.6033287000000005,1.1374923000000001,0.45,4.998,0.124,-1
599,600,1582725052283,-1.3649122,-4.4837264999999995,1.8932648,0.335,5.12,0.8690000000000001,-1
600,601,1582725052293,-0.66618156,-4.2438215999999995,1.3831347999999999,1.025,5.357,0.318,-1
601,602,1582725052303,-0.0584774,-3.9802647000000007,0.3257355,1.635,5.6129999999999995,-0.802,-1
602,603,1582725052314,0.09466863,-3.6992168,-0.41517162,1.7930000000000001,5.888999999999999,-1.578,-1
603,604,1582725052324,0.7242301999999999,-2.9912696,-2.0657365000000003,2.454,6.579,-3.326,-1
604,605,1582725052334,0.5181979999999999,-2.613687,-2.2629478,2.28,6.945,-3.5660000000000003,-1
605,606,1582725052345,0.27266586,-2.5040202000000003,-2.2196612,2.069,7.046,-3.5389999999999997,-1
606,607,1582725052355,0.031217337,-2.122716,-1.3828516000000002,1.865,7.422000000000001,-2.6889999999999996,-1
607,608,1582725052365,0.07032955,-1.9836135,-0.06630254,1.942,7.558,-1.341,-1
608,609,1582725052375,0.47654533,-1.8261456000000003,0.86341906,2.385,7.711,-0.39,-1
609,610,1582725052386,0.78113806,-1.7034254,0.7314133,2.72,7.8260000000000005,-0.534,-1
610,611,1582725052396,0.69530964,-1.4259434,-0.12687457,2.656,8.092,-1.444,-1
611,612,1582725052406,0.21471226,-0.98397636,-1.0998706,2.189,8.519,-2.502,-1
612,613,1582725052416,-0.12912035,-0.76582336,-1.7138035,1.8459999999999999,8.727,-3.182,-1
613,614,1582725052427,-0.7677324000000001,-0.31088638,-2.7446148,1.185,9.139,-4.493,-1
614,615,1582725052437,-1.056626,-0.071460724,-2.4798527000000004,0.89,9.363999999999999,-4.311,-1
615,616,1582725052448,-0.884675,-0.050068855,-1.6820252,1.058,9.374,-3.575,-1
616,617,1582725052458,-0.58927786,-0.040081024,-0.5650170999999999,1.3430000000000002,9.378,-2.498,-1
617,618,1582725052468,-0.46600652,0.16878319,0.28377664,1.472,9.589,-1.633,-1
618,619,1582725052479,-0.03968239,0.4526615,0.25661123,1.9269999999999998,9.869,-1.65,-1
619,620,1582725052488,0.10245943,0.70667934,-0.28392136,2.0980000000000003,10.113999999999999,-2.205,-1
620,621,1582725052498,0.16293716,0.8203697,-0.88033926,2.181,10.217,-2.83,-1
621,622,1582725052508,0.038455486000000004,0.8798866,-1.334869,2.074,10.267000000000001,-3.312,-1
622,623,1582725052519,-0.11996281,0.8669243000000001,-1.1702161,1.932,10.248,-3.159,-1
623,624,1582725052529,-0.41055548,0.9293823,-0.38825154,1.6569999999999998,10.31,-2.363,d
624,625,1582725052539,-0.85421944,0.9427433000000001,0.63945913,1.2229999999999999,10.329,-1.298,-1
625,626,1582725052550,-1.1843832,0.76208496,1.6615732,0.895,10.164,-0.196,-1
626,627,1582725052560,-0.48191857,0.94447803,1.616905,1.619,10.347999999999999,-0.20800000000000002,-1
627,628,1582725052570,-0.007731199300000001,0.91719055,1.3322829,2.112,10.317,-0.49,-1
628,629,1582725052580,1.1533043,1.2529774,0.062936544,3.341,10.630999999999998,-1.791,-1
629,630,1582725052591,1.2621924999999998,1.3879957,-0.5209503,3.489,10.751,-2.404,-1
630,631,1582725052601,1.1630858999999998,1.3344536,-0.6583333,3.4219999999999997,10.686,-2.56,-1
631,632,1582725052611,0.9717097,1.2315683000000002,-0.1232903,3.259,10.575999999999999,-2.026,-1
632,633,1582725052621,0.83315444,1.1209021000000001,0.5004009,3.1489999999999996,10.460999999999999,-1.389,-1
633,634,1582725052632,0.9739783000000001,1.1549225,0.5642003999999999,3.319,10.49,-1.314,-1
634,635,1582725052642,1.1539190000000001,1.2767534,0.65342593,3.525,10.605,-1.226,-1
635,636,1582725052652,1.3028381000000002,1.2473793,0.15032911,3.695,10.565999999999999,-1.75,-1
636,637,1582725052662,0.92498827,1.2562723,-0.36061025,3.3289999999999997,10.564,-2.299,-1
637,638,1582725052672,0.6307173,1.19065,-1.1239265,3.0389999999999997,10.487,-3.111,-1
638,639,1582725052683,0.5626354,1.286582,-2.0731883,2.972,10.571,-4.114,-1
639,640,1582725052693,0.72049403,1.2120848,-2.6730034,3.1319999999999997,10.485,-4.763,-1
640,641,1582725052703,0.9724164000000001,1.2202024,-3.3252227,3.388,10.482999999999999,-5.455,-1
641,642,1582725052713,1.0738115,1.2883539,-3.3000622,3.491,10.547,-5.446000000000001,-1
642,643,1582725052724,1.4326203000000002,1.3743715,-3.2190517999999995,3.853,10.624,-5.4,-1
643,644,1582725052734,1.6530169999999997,1.2059422,-2.5843124,4.073,10.450999999999999,-4.785,-1
644,645,1582725052744,1.6770426999999999,1.1855211,-2.4573883999999997,4.09,10.425,-4.689,-1
645,646,1582725052754,1.6697819,1.1410388999999999,-3.5947385,4.066,10.372,-5.879,-1
646,647,1582725052765,1.5924368,1.1734552,-5.067933999999999,3.966,10.394,-7.417000000000001,-1
647,648,1582725052775,1.9929363999999998,1.2044754,-7.054672200000001,4.349,10.415,-9.46,-1
648,649,1582725052785,3.3630328,1.2622852,-9.267501,5.724,10.466,-11.694,-1
649,650,1582725052795,5.0746107,1.4996156999999999,-9.479915,7.462000000000001,10.705,-11.874,-1
650,651,1582725052805,5.917301999999999,1.3587483999999999,-7.561861,8.327,10.578,-9.879,-1
651,652,1582725052816,5.0512323,1.0634012,-4.789104,7.452999999999999,10.305,-7.024,-1
652,653,1582725052826,3.5517638,0.21852684,-3.2133822,5.9079999999999995,9.481,-5.41,-1
653,654,1582725052836,2.4027567000000003,-0.39363575,-3.2505486,4.684,8.88,-5.479,-1
654,655,1582725052846,1.5817235,-1.0767202,-4.487692,3.767,8.198,-6.806,-1
655,656,1582725052857,1.4424145,-1.7211928,-6.058633,3.53,7.551,-8.475,-1
656,657,1582725052867,1.3838711000000001,-2.244464,-6.4359493,3.391,7.026,-8.926,-1
657,658,1582725052877,1.9498646000000002,-2.5287151000000003,-5.7936487,3.903,6.7410000000000005,-8.329,-1
658,659,1582725052888,2.4545736000000002,-2.65869,-4.365087,4.39,6.603,-6.943,-1
659,660,1582725052897,2.8029046,-2.8592253,-3.1218112000000002,4.809,6.358,-5.803,-1
660,661,1582725052907,2.5178732999999998,-2.957634,-1.979799,4.513999999999999,6.26,-4.667,-1
661,662,1582725052917,2.3693051,-3.2304573,-0.74742603,4.306,6.0089999999999995,-3.403,-1
662,663,1582725052927,2.1853860000000003,-3.6183142999999998,0.11187935,4.04,5.647,-2.512,-1
663,664,1582725052938,1.6933392,-4.063827,0.4007144,3.451,5.228,-2.1959999999999997,-1
664,665,1582725052948,1.0270303,-4.6295967000000005,0.47888064,2.687,4.689,-2.086,-1
665,666,1582725052958,0.49685619999999997,-4.8570805,0.80286443,2.0709999999999997,4.49,-1.712,-1
666,667,1582725052968,0.2740264,-5.1009603,1.4609313999999998,1.781,4.277,-0.9790000000000001,-1
667,668,1582725052979,0.17491126,-5.4502835,2.292259,1.633,3.9610000000000003,-0.047,-1
668,669,1582725052989,0.15838337,-5.6537914,4.6476144999999995,1.571,3.812,2.509,-1
669,670,1582725052999,0.24433911,-5.875503500000001,5.8488574,1.6469999999999998,3.609,3.7880000000000003,-1
670,671,1582725053009,0.3014965,-5.787159,8.837378999999999,1.683,3.755,7.046,-1
671,672,1582725053020,-0.0060793159999999995,-5.77888,9.504636999999999,1.3719999999999999,3.786,7.836,-1
672,673,1582725053030,-1.0106938,-5.572686,9.844626,0.35600000000000004,4.045,8.502,-1
673,674,1582725053040,-1.8984601000000003,-5.8259134,9.876642,-0.862,3.755,9.314,-1
674,675,1582725053051,-2.287873,-6.1553144,9.924503,-0.972,3.556,9.565,-1
675,676,1582725053061,-2.8858189999999997,-6.8036666,11.528767,-1.5319999999999998,2.909,11.57,-1
676,677,1582725053071,-2.7788310000000003,-6.7678020000000005,13.392252,-1.365,2.9330000000000003,13.649000000000001,-1
677,678,1582725053082,-2.942575,-6.622151400000001,14.255651,-1.6019999999999999,3.408,15.546,-1
678,679,1582725053092,-3.4503790000000003,-5.9248085,16.529934,-1.8719999999999999,3.733,17.167,-1
679,680,1582725053103,-3.7658123999999997,-5.510878,17.016842,-2.09,4.119,17.809,-1
680,681,1582725053113,-4.2380347,-5.296723,17.31449,-2.457,4.303,18.233,-1
681,682,1582725053123,-4.7906904,-5.1064916,17.309273,-2.895,4.461,18.329,-1
682,683,1582725053133,-4.524394999999999,-4.9271139999999995,17.254538,-2.5,4.605,18.355,-1
683,684,1582725053144,-3.088807,-4.1716785000000005,16.663511,-0.919,5.321000000000001,17.826,-1
684,685,1582725053154,-0.3949437,-2.5927372,15.249327,2.0140000000000002,6.835,16.468,-1
685,686,1582725053164,0.6415204999999999,-1.9866756999999997,14.140787,3.1319999999999997,7.419,15.366,-1
686,687,1582725053174,2.3475351000000004,-0.42357826,10.317589,5.07,8.919,11.532,-1
687,688,1582725053185,1.6827478,-0.118943214,8.626967,4.54,9.184,9.836,-1
688,689,1582725053195,0.8692658000000001,0.13874531,8.325497,3.7880000000000003,9.422,9.539,-1
689,690,1582725053205,-0.83501434,0.6610117,9.536187,2.263,9.881,10.787,-1
690,691,1582725053216,-0.21997571,1.0774860000000002,10.265702000000001,3.012,10.248,11.540999999999999,-1
691,692,1582725053226,1.4096906,1.7828798,9.738275999999999,4.79,10.899000000000001,11.019,-1
692,693,1582725053236,4.120133999999999,2.2945737999999998,7.3777943,7.6610000000000005,11.352,8.641,-1
693,694,1582725053246,6.549016,2.8593283,4.155133999999999,10.25,11.857000000000001,5.386,-1
694,695,1582725053256,7.5555477,2.9582157000000002,1.9045781000000002,11.402000000000001,11.898,3.111,-1
695,696,1582725053267,6.8494773,3.2389784,1.2457479999999999,10.818,12.125,2.454,-1
696,697,1582725053277,5.7153645,3.5324106,2.597416,9.788,12.367,3.8360000000000003,-1
697,698,1582725053287,5.2722344,3.7661495000000005,3.7496831,9.443,12.549000000000001,5.029,-1
698,699,1582725053297,6.074156299999999,4.3095217,3.7589726000000003,10.345999999999998,13.04,5.063,-1
699,700,1582725053308,7.734253999999999,4.435387599999999,2.5912964,12.110999999999999,13.115,3.887,-1
700,701,1582725053318,8.901149,4.5405903,-0.53190225,13.38,13.175,0.716,-1
701,702,1582725053329,8.938868,4.129919,-3.3641547999999997,13.507,12.727,-2.184,-1
702,703,1582725053339,9.208796000000001,3.9996690000000004,-5.3239684,13.852,12.564,-4.2,-1
703,704,1582725053349,9.729723,4.093239,-6.5282254,14.437000000000001,12.626,-5.431,-1
704,705,1582725053359,9.966225,4.104995,-6.8150067,14.725999999999999,12.609000000000002,-5.721,-1
705,706,1582725053370,9.755594,4.1445875,-6.434856,14.556,12.626,-5.343,-1
706,707,1582725053380,9.346928,3.7701035000000003,-6.837076700000001,14.177999999999999,12.238,-5.776,-1
707,708,1582725053390,8.518749,3.3491821,-8.396348,13.370999999999999,11.814,-7.41,-1
708,709,1582725053400,8.461178,2.953969,-10.372983999999999,13.33,11.421,-9.493,-1
709,710,1582725053410,8.518132000000001,2.481802,-12.597614,13.402000000000001,10.952,-11.84,-1
710,711,1582725053420,8.903652000000001,2.0432425,-14.590654,13.770999999999999,10.312000000000001,-14.655,-1
711,712,1582725053430,8.729694,1.7075367,-15.6205225,13.622,10.19,-15.088,-1
712,713,1582725053440,7.644553999999999,0.97594833,-15.294819,12.520999999999999,9.472000000000001,-14.839,-1
713,714,1582725053450,6.028163,0.36579514,-14.237256,10.878,8.88,-13.84,-1
714,715,1582725053460,5.4199038,-0.19300175,-14.222265,10.243,8.339,-13.886,-1
715,716,1582725053470,5.6490574,-0.35475922,-15.092436,10.449000000000002,8.193,-14.834000000000001,-1
716,717,1582725053481,6.078088,-0.6174078000000001,-16.508692,10.854000000000001,7.946000000000001,-16.338,-1
717,718,1582725053491,6.041828,-1.1553135,-16.661215,10.77,7.436,-16.597,-1
718,719,1582725053501,5.7055316,-1.458807,-15.754173999999999,10.413,7.144,-15.710999999999999,-1
719,720,1582725053511,4.6727204,-2.167543,-13.327704,9.333,6.461,-13.306,-1
720,721,1582725053521,3.6961174,-3.142632,-9.402589,8.289,5.522,-9.4,-1
721,722,1582725053532,3.7562684999999996,-3.4609294000000004,-7.661994,8.322000000000001,5.218,-7.688,-1
722,723,1582725053542,4.727962000000001,-3.6883663999999996,-6.634332700000001,9.283,4.996,-6.696000000000001,-1
723,724,1582725053552,5.459224,-3.6914306000000003,-5.818885,10.008,4.996,-5.906000000000001,-1
724,725,1582725053562,5.8503356,-3.929356,-4.409523,10.399000000000001,4.758,-4.5089999999999995,-1
725,726,1582725053572,5.617971400000001,-3.944727,-2.4760227,10.183,4.734,-2.5789999999999997,-1
726,727,1582725053582,5.063425,-4.1704273,-0.6998261,9.68,4.481,-0.802,-1
727,728,1582725053593,4.627026,-4.1216555,-0.07155277,9.299,4.5,-0.172,-1
728,729,1582725053603,3.01924,-4.2686443,0.95393497,7.917000000000001,4.227,0.8740000000000001,-1
729,730,1582725053613,2.2234119999999997,-4.326239599999999,1.2019329,7.1129999999999995,4.1739999999999995,1.111,-1
730,731,1582725053623,1.6855244999999999,-4.528243,1.4219108999999999,6.5520000000000005,3.985,1.31,-1
731,732,1582725053634,1.1018004,-4.547413,1.4430051000000002,5.939,3.9819999999999998,1.298,-1
732,733,1582725053644,0.3834486,-4.6276054,1.0934118,5.187,3.92,0.907,-1
733,734,1582725053654,-0.10718775,-5.0043926,1.0180709000000001,4.663,3.5610000000000004,0.795,-1
734,735,1582725053664,-0.68733215,-5.735217,1.8998903000000003,4.052,2.847,1.666,-1
735,736,1582725053675,-1.2183607,-6.613732300000001,4.0304275,3.4960000000000004,1.983,3.827,-1
736,737,1582725053685,-2.3615067,-6.9249573,7.203564999999999,2.339,1.681,7.0889999999999995,-1
737,738,1582725053695,-3.5860133000000003,-7.369434399999999,10.408339999999999,1.123,1.2309999999999999,10.575999999999999,-1
738,739,1582725053705,-4.245065,-7.376635,12.945594,0.483,1.209,13.265999999999998,-1
739,740,1582725053716,-4.636880000000001,-7.329772999999999,14.210710999999998,0.129,1.2309999999999999,14.623,-1
740,741,1582725053726,-4.564598999999999,-6.995657400000001,13.82334,0.256,1.5319999999999998,14.283,-1
741,742,1582725053736,-4.2838593000000005,-6.856273,12.511577,0.605,1.631,12.997,-1
742,743,1582725053746,-4.3125525,-6.671966599999999,10.959545,0.653,1.767,11.505,-1
743,744,1582725053756,-4.358066,-6.375984,10.645344999999999,0.6920000000000001,2.004,11.311,-1
744,745,1582725053767,-4.7987437,-5.9772205000000005,11.600674,0.34700000000000003,2.332,12.405999999999999,-1
745,746,1582725053777,-5.3119309999999995,-5.5241013,13.409316,-0.057,2.701,14.36,-1
746,747,1582725053787,-5.5923667,-5.394906,15.167055,-0.215,2.7319999999999998,16.266,-1
747,748,1582725053797,-5.2186913,-5.145183599999999,16.478506,0.29600000000000004,2.8710000000000004,17.703,-1
748,749,1582725053807,-4.208024,-5.076194999999999,16.214827,1.4580000000000002,2.821,17.519000000000002,-1
749,750,1582725053817,-3.4671333,-4.799402,14.345072,2.359,2.9739999999999998,15.687000000000001,-1
750,751,1582725053828,-2.5562654,-4.3421154,12.150969,3.4339999999999997,3.3,13.524000000000001,-1
751,752,1582725053838,-1.8423657,-3.3211502999999998,10.684738000000001,4.311,4.178999999999999,12.118,-1
752,753,1582725053848,-2.0134034,-2.4614662999999997,10.542946,4.296,4.888,12.075,-1
753,754,1582725053858,-2.2309394,-2.010912,10.792937,4.229,5.178,12.454,-1
754,755,1582725053868,-1.4720283,-1.8712726000000002,10.749042999999999,5.138999999999999,5.144,12.552,-1
755,756,1582725053878,0.04501152,-2.3999147,10.0894985,6.885,4.332,12.106,-1
756,757,1582725053889,0.83455753,-2.347509,9.974881,7.824,4.184,12.133,-1
757,758,1582725053899,2.0995202,-2.3251482999999995,9.572631,9.232000000000001,3.997,11.880999999999998,-1
758,759,1582725053909,2.641068,-2.102799,8.93393,9.841000000000001,4.112,11.323,-1
759,760,1582725053919,3.5789733,-0.42329264,8.256345,10.959000000000001,5.4670000000000005,10.904000000000002,-1
760,761,1582725053930,3.5116242999999994,0.03993416,8.4131565,10.995,5.718999999999999,11.227,-1
761,762,1582725053940,3.1090293,0.20193434,8.340725,10.684000000000001,5.68,11.304,-1
762,763,1582725053950,2.6332312,-0.10008478,7.5095887,10.289000000000001,5.187,10.609000000000002,-1
763,764,1582725053960,2.7016754,0.010502338,6.963594400000001,10.394,5.204,10.13,-1
764,765,1582725053970,5.348515,0.57429075,4.231363,13.136,5.479,7.617999999999999,-1
765,766,1582725053981,7.961078,1.3040767,1.5640287,15.795,6.011,5.12,-1
766,767,1582725053991,9.808883999999999,2.0465822,-0.43875408,17.668,6.562,3.305,-1
767,768,1582725054001,9.582400999999999,2.6426244,-1.2488151,17.445,6.979,2.694,-1
768,769,1582725054011,7.732655,2.7921329,-0.14159775,15.581,6.9639999999999995,4.002,-1
769,770,1582725054022,5.690868,2.2553997000000003,1.2912111000000002,13.512,6.274,5.632999999999999,-1
770,771,1582725054031,4.0887856,1.3498249,2.4227567000000003,11.874,5.223,6.957000000000001,-1
771,772,1582725054041,3.5577226000000004,0.7764478,2.8687496,11.323,4.579,7.496,-1
772,773,1582725054051,3.7621955999999996,1.2255747,2.9624577000000003,11.469000000000001,4.825,7.843,-1
773,774,1582725054062,6.733391,1.5788221000000002,0.67662954,14.41,5.051,5.695,-1
774,775,1582725054072,9.361936,2.3353426,-2.770916,17.016,5.7,2.354,-1
775,776,1582725054082,11.219738000000001,2.8574764999999998,-5.074114,18.855,6.136,0.134,-1
776,777,1582725054092,11.573699000000001,2.9382887,-5.7935433,18.98,6.257999999999999,-0.8640000000000001,-1
777,778,1582725054102,9.799204,3.0170574,-5.937442,17.399,6.181,-0.608,-1
778,779,1582725054113,8.1071415,2.511708,-4.796581,15.689,5.6370000000000005,0.581,-1
779,780,1582725054123,6.6644429999999995,1.9433817999999998,-3.6101987,14.228,5.034,1.8130000000000002,-1
780,781,1582725054133,5.359441,2.0622439999999997,-2.8042228,12.905999999999999,5.122000000000001,2.66,-1
781,782,1582725054143,6.1118239999999995,2.2723825,-3.3267394999999995,13.644,5.3020000000000005,2.174,-1
782,783,1582725054154,7.407482000000001,2.328393,-5.313694,14.93,5.331,0.215,-1
783,784,1582725054164,8.206327,2.7658549999999997,-6.774899499999999,15.725,5.75,-1.2309999999999999,-1
784,785,1582725054174,8.827760000000001,2.551013,-7.0276179999999995,16.346,5.52,-1.475,-1
785,786,1582725054185,7.343894000000001,2.3981369,-6.1559553,14.860999999999999,5.36,-0.598,-1
786,787,1582725054194,5.4591392999999995,1.8176775,-5.0820435999999996,12.975999999999999,4.78,0.47600000000000003,-1
787,788,1582725054204,3.8048830000000002,1.2865748,-4.106380000000001,11.328,4.253,1.4409999999999998,-1
788,789,1582725054214,2.2979531000000004,0.98002815,-3.1033726,9.843,3.9560000000000004,2.4090000000000003,-1
789,790,1582725054225,1.5843463,1.0252268,-2.3949926,9.163,4.016,3.063,-1
790,791,1582725054235,2.2880368,1.0258152,-2.3102827,9.896,4.018,3.1060000000000003,-1
791,792,1582725054245,3.0850554,1.2561648,-3.089155,10.72,4.243,2.292,-1
792,793,1582725054256,3.4897175000000002,1.5117338,-4.0155983,11.152999999999999,4.497,1.3259999999999998,-1
793,794,1582725054266,3.7206101,1.5991857,-4.6333027,11.412,4.584,0.6679999999999999,-1
794,795,1582725054276,3.4550529,1.697777,-4.7211227,11.175,4.687,0.536,-1
795,796,1582725054286,2.978526,1.643986,-4.415538,10.729000000000001,4.641,0.792,-1
796,797,1582725054297,2.1709666000000003,1.5053178999999999,-3.6929293,9.956,4.513999999999999,1.456,-1
797,798,1582725054307,1.5245748,1.4931656999999998,-2.9918697,9.352,4.521,2.081,-1
798,799,1582725054317,0.99862146,1.551775,-1.5512726000000001,8.873,4.6,3.4360000000000004,-1
799,800,1582725054327,1.0329622999999999,1.650135,-1.317194,8.966000000000001,4.711,3.925,-1
800,801,1582725054337,1.1919785,1.5780243999999999,-0.86774063,9.11,4.631,4.047,-1
801,802,1582725054348,1.4459467,1.6429171999999999,-0.46500015,9.386000000000001,4.696000000000001,4.414,-1
802,803,1582725054358,1.7555408,1.7280512,-0.20219612,9.716000000000001,4.785,4.641,-1
803,804,1582725054368,1.7952914,1.7232034,-0.55824995,9.774,4.794,4.246,-1
804,805,1582725054378,1.7334995,1.7145865000000002,-0.8046634,9.728,4.809,3.958,-1
805,806,1582725054389,1.8306055,1.7829703999999997,-0.72579336,9.838,4.902,3.9989999999999997,-1
806,807,1582725054399,1.6670656000000004,1.6722949,-0.610867,9.683,4.813,4.085,d
807,808,1582725054409,1.7762575,1.6421961999999999,-0.19360065,9.795,4.797,4.488,-1
808,809,1582725054419,1.8223896000000002,1.6872537,0.52672005,9.838,4.849,5.209,-1
809,810,1582725054429,1.8952474999999998,1.6829721999999998,0.9235935,9.905,4.849,5.6129999999999995,-1
810,811,1582725054440,1.9587459999999999,1.7603924,1.3286556999999999,9.963,4.933,6.023,-1
811,812,1582725054450,2.2241678,2.0480902,1.4374471000000002,10.224,5.233,6.131,-1
812,813,1582725054460,2.643753,2.2697399,1.1827860000000001,10.638,5.475,5.872000000000001,-1
813,814,1582725054470,2.9102178,2.4922497000000003,0.61601543,10.897,5.728,5.297000000000001,-1
814,815,1582725054480,3.448142,2.5951347,0.046013355,11.425999999999998,5.87,4.715,-1
815,816,1582725054490,3.6699362,2.5725856,-0.14601088,11.642000000000001,5.87,4.5169999999999995,-1
816,817,1582725054500,3.445128,2.710673,-0.089262486,11.392999999999999,6.085,4.56,-1
817,818,1582725054510,3.3382626,2.9612887000000003,0.27141285,11.265999999999998,6.388999999999999,4.916,-1
818,819,1582725054520,3.5490122000000004,3.3895120000000003,0.5947479999999999,11.457,6.871,5.233,-1
819,820,1582725054531,3.6570888,4.029336,0.66095686,11.548,7.568,5.285,-1
820,821,1582725054541,3.8580394,4.44121,0.5890422,11.742,8.011000000000001,5.2010000000000005,-1
821,822,1582725054551,5.069572,5.2479796,-1.0576456,12.94,8.921,3.4960000000000004,-1
822,823,1582725054561,6.573494999999999,5.782734400000001,-2.3263437999999996,14.437000000000001,9.527000000000001,2.181,-1
823,824,1582725054571,8.676923,6.0007324,-2.670014,16.528,9.814,1.801,-1
824,825,1582725054582,9.913692,6.3287992,-1.9074349,17.744,10.214,2.5380000000000003,-1
825,826,1582725054591,10.162767,6.5022035,-0.13508749,17.965,10.472999999999999,4.284,-1
826,827,1582725054601,9.443168,6.473917500000001,1.5315819,17.213,10.554,5.9079999999999995,-1
827,828,1582725054611,9.062345500000001,6.622438400000001,2.2287645,16.437,10.921,6.752999999999999,-1
828,829,1582725054621,8.323447999999999,6.8641458,2.6465368,16.022000000000002,11.244000000000002,6.856,-1
829,830,1582725054632,8.670007,6.8100114000000005,2.4382787,16.329,11.369000000000002,6.528,-1
830,831,1582725054641,9.100508999999999,6.7196193,2.5029209999999997,16.738,11.373,6.526,-1
831,832,1582725054651,10.168583,5.9081855,2.2908442000000004,17.73,10.868,6.085,-1
832,833,1582725054661,10.060651,5.067732,2.1719694,17.555,10.255,5.791,-1
833,834,1582725054671,9.612001,4.061574,2.2221122,17.021,9.491,5.657,-1
834,835,1582725054682,8.893869,3.2808851999999997,2.4579470000000003,16.195,8.962,5.712000000000001,-1
835,836,1582725054692,8.08486,2.437726,2.9777767999999996,15.255999999999998,8.375,6.059,-1
836,837,1582725054702,6.865184299999999,1.6924066999999998,4.0428233,13.886,7.888999999999999,6.955,-1
837,838,1582725054712,6.037542299999999,1.0822353,4.867935,12.892000000000001,7.539,7.606,-1
838,839,1582725054723,5.2806120000000005,0.46109247,5.500660400000001,11.955,7.1770000000000005,8.054,-1
839,840,1582725054733,4.5109057,-0.15610218,5.8797164,10.993,6.816,8.234,-1
840,841,1582725054743,3.4639807,-1.0008883,5.799323,9.742,6.222,7.941,-1
841,842,1582725054753,2.5414891,-1.7769593999999997,5.5866823,8.607000000000001,5.685,7.51,-1
842,843,1582725054764,1.5532985000000001,-2.5820003,5.241803,7.405,5.096,6.9670000000000005,-1
843,844,1582725054774,0.43796682,-3.2359,4.5605817,6.1160000000000005,4.574,6.274,-1
844,845,1582725054784,-0.6391773000000001,-3.4722866999999997,3.9471884,4.823,4.521,5.51,-1
845,846,1582725054794,-1.1266251,-3.5940809999999996,3.8557155,4.2219999999999995,4.493,5.3260000000000005,-1
846,847,1582725054805,-2.2983577,-3.6786489999999996,3.8063655,2.715,4.663,5.012,-1
847,848,1582725054815,-2.3495237999999996,-3.8302949999999996,3.6514351,2.557,4.586,4.775,-1
848,849,1582725054825,-3.1852303,-3.7146354,3.2436152000000003,1.415,4.9,4.136,-1
849,850,1582725054835,-3.4593682,-3.8880806000000003,3.1745899,0.948,4.84,3.927,-1
850,851,1582725054846,-3.786576,-4.010273000000001,3.321558,0.43799999999999994,4.8180000000000005,3.9419999999999997,-1
851,852,1582725054856,-4.4704037,-3.7909059999999997,3.196332,-0.42100000000000004,5.127000000000001,3.69,-1
852,853,1582725054866,-4.5896816,-3.9312777999999997,2.647336,-0.7040000000000001,5.065,3.02,-1
853,854,1582725054876,-4.036884,-4.625625,2.123254,-0.299,4.437,2.383,-1
854,855,1582725054887,-2.5579490000000003,-5.3100038,0.16812402,0.9790000000000001,3.8360000000000003,0.273,-1
855,856,1582725054897,-1.5816286,-5.459921,-1.5050551,1.825,3.736,-1.4869999999999999,-1
856,857,1582725054907,-1.5974620000000002,-5.3818874,-2.1367517000000005,1.7409999999999999,3.839,-2.155,-1
857,858,1582725054917,-2.2381306,-5.463815,-1.603309,0.878,3.8339999999999996,-1.7069999999999999,-1
858,859,1582725054928,-2.3739633999999996,-5.803021,-1.2130276000000002,0.665,3.52,-1.341,-1
859,860,1582725054938,-3.0619004000000003,-6.155135,-0.8074189,-0.251,3.238,-1.003,-1
860,861,1582725054948,-3.2229588,-6.4016943,-0.8949466999999999,-0.483,3.012,-1.1079999999999999,-1
861,862,1582725054958,-3.089991,-6.4371233,-1.0160155999999998,-0.47600000000000003,3.012,-1.2429999999999999,-1
862,863,1582725054969,-3.0621579,-6.8184547,0.031775996,-0.591,2.67,-0.15,-1
863,864,1582725054978,-2.6085903999999998,-6.7299194,0.5275982,-0.172,2.7680000000000002,0.376,-1
864,865,1582725054988,-1.3250686,-6.674364,1.5374651000000001,1.058,2.838,1.4580000000000002,-1
865,866,1582725054998,-0.7247821,-6.4946795,1.9878483,1.614,3.029,1.983,-1
866,867,1582725055008,-0.52562284,-6.158214,2.4708919999999996,1.7690000000000001,3.3760000000000003,2.533,-1
867,868,1582725055018,-0.90872526,-5.828168,2.5107732000000005,1.338,3.717,2.622,-1
868,869,1582725055028,-1.1981796,-5.578625700000001,2.2164428,0.998,3.978,2.351,-1
869,870,1582725055039,-1.0487173,-5.2166357,1.5965732,1.099,4.351,1.7309999999999999,-1
870,871,1582725055049,-0.38025618,-4.6964765,0.90881604,1.724,4.881,1.0290000000000001,-1
871,872,1582725055059,-0.25533068,-3.9375553,0.41210329999999995,1.808,5.649,0.517,-1
872,873,1582725055069,-0.6037983,-3.4620290000000002,0.67687005,1.396,6.138,0.78,-1
873,874,1582725055080,-1.0449963,-3.029655,1.5902618,0.912,6.579,1.71,-1
874,875,1582725055090,-1.0076101999999998,-2.9306574,1.9085326,0.929,6.682,2.0380000000000003,-1
875,876,1582725055100,-0.23037803,-2.4482182999999997,1.676106,1.652,7.175,1.82,-1
876,877,1582725055110,0.6726531,-2.1163478,0.9597701,2.524,7.513,1.0959999999999999,-1
877,878,1582725055121,0.90709937,-1.9250015999999999,-0.026347078,2.725,7.711,0.08800000000000001,-1
878,879,1582725055131,0.7206899,-1.6218261999999999,-0.3523342,2.09,8.322000000000001,-0.43799999999999994,-1
879,880,1582725055142,-0.15018797,-1.2964096,-0.6462944,1.597,8.353,-0.565,-1
880,881,1582725055151,-1.5153006000000002,-1.3950214,-0.09227469599999999,0.14300000000000002,8.27,-0.004,-1
881,882,1582725055161,-2.0676017,-1.0987921,0.5047348,-0.469,8.576,0.62,-1
882,883,1582725055172,-1.9651965,-0.8971796000000001,0.9014754,-0.395,8.782,1.037,-1
883,884,1582725055182,-1.109266,-0.67250156,1.3635576,0.40700000000000003,9.014,1.571,-1
884,885,1582725055192,-0.7553122,-0.3739004,1.3200985,0.747,9.314,1.561,-1
885,886,1582725055203,0.5485021999999999,0.06399441,0.22818083,2.069,9.747,0.541,-1
886,887,1582725055213,0.8342757,0.13878345,-0.28593627,2.375,9.818999999999999,0.013999999999999999,-1
887,888,1582725055223,0.45269227,0.37653828,-1.0987539,2.021,10.054,-0.8590000000000001,-1
888,889,1582725055233,-0.10766649,0.36138344,-0.76031494,1.446,10.042,-0.555,-1
889,890,1582725055244,-0.4670701,0.44456863,-0.51339775,1.07,10.128,-0.316,-1
890,891,1582725055254,-0.565042,0.5645304,0.52311856,0.9259999999999999,10.255,0.728,-1
891,892,1582725055264,-0.43212926,0.6691284000000001,0.039837614,1.0390000000000001,10.363,0.22699999999999998,-1
892,893,1582725055274,-0.30052507,0.7508191999999999,-1.2796694,1.161,10.447000000000001,-1.1440000000000001,d
893,894,1582725055284,0.26201952,0.6552849000000001,-2.3498929,2.0140000000000002,10.345999999999998,-2.457,-1
894,895,1582725055295,0.8209033000000001,0.66515446,-1.9390001000000001,2.323,10.356,-1.899,-1
895,896,1582725055305,1.0444299000000001,0.6672925999999999,-1.2599386000000001,2.56,10.356,-1.2109999999999999,-1
896,897,1582725055315,1.5989295000000001,0.6776905,0.6083065,3.1510000000000002,10.36,0.728,-1
897,898,1582725055326,1.3876713999999999,0.6158446999999999,1.4916645,2.948,10.296,1.666,-1
898,899,1582725055336,1.0294955,0.47124577,1.8130833,2.5810000000000004,10.152000000000001,2.028,-1
899,900,1582725055346,0.22221768,0.06536484,1.449275,1.745,9.75,1.693,-1
900,901,1582725055356,-0.7558882,-0.30875874,0.30894858,0.701,9.386000000000001,0.5529999999999999,-1
901,902,1582725055367,-1.4931591999999998,-0.73908615,-0.66416395,-0.1,8.966000000000001,-0.462,-1
902,903,1582725055377,-1.6790911,-0.8061781,-0.83816254,-0.34,8.907,-0.6609999999999999,-1
903,904,1582725055387,-1.6445473000000002,-0.9719228999999999,-0.4110983,-0.342,8.746,-0.222,-1
904,905,1582725055397,-1.4771530000000002,-1.1200628000000001,0.5274061999999999,-0.198,8.6,0.7609999999999999,-1
905,906,1582725055407,-1.029563,-1.3360176000000001,1.2362391000000001,0.237,8.384,1.5319999999999998,-1
906,907,1582725055418,-0.8172099,-1.5068378,2.0738952,0.44,8.212,2.44,-1
907,908,1582725055428,-1.1722125,-2.059116,2.8353669999999997,0.069,7.659,3.2689999999999997,-1
908,909,1582725055438,-1.7061026999999997,-2.5051942000000005,3.3527415,-0.488,7.212999999999999,3.846,-1
909,910,1582725055448,-2.659878,-2.9061027000000004,3.919749,-1.472,6.813,4.466,-1
910,911,1582725055459,-3.6734138,-3.3093476,4.4755764000000005,-2.524,6.4110000000000005,5.079,-1
911,912,1582725055469,-4.401728,-3.6119260000000004,4.5145406999999995,-3.2880000000000003,6.109,5.172999999999999,-1
912,913,1582725055479,-4.2121677,-3.7936926,4.338304,-3.1060000000000003,5.925,5.041,-1
913,914,1582725055489,-3.0723085,-4.0293746,4.3276258,-1.935,5.683,5.067,-1
914,915,1582725055499,-2.2920835,-4.263792,4.592528,-1.101,5.439,5.372000000000001,-1
915,916,1582725055509,-2.4578477999999997,-4.651893,5.4679402999999995,-1.2109999999999999,5.039,6.306,-1
916,917,1582725055520,-3.1570663,-5.174876,6.485227,-1.87,4.502,7.419,-1
917,918,1582725055530,-3.7669425000000003,-5.59768,7.517514,-2.524,4.052,8.746,-1
918,919,1582725055540,-4.2021523,-5.325436,8.196782,-2.943,4.306,9.546,-1
919,920,1582725055550,-3.4188165999999995,-5.0129447,8.111127,-2.112,4.603,9.524,-1
920,921,1582725055560,-2.3519623,-4.646092400000001,6.7151704,-1.01,4.936,8.312999999999999,-1
921,922,1582725055570,-1.3876022,-4.3684487,4.333965,0.059000000000000004,5.209,5.867000000000001,-1
922,923,1582725055581,0.107743144,-4.2991532999999995,1.3369278,1.6740000000000002,5.276,2.763,-1
923,924,1582725055591,1.5988518,-4.167341,-0.26259065,3.64,5.266,1.06,-1
924,925,1582725055601,1.2379228,-4.5652018,0.98485696,3.091,4.974,2.3040000000000003,-1
925,926,1582725055611,0.5846503000000001,-4.513987,1.9607321,1.6640000000000001,5.228,4.382,-1
926,927,1582725055622,-0.9535440000000001,-3.6293040000000003,4.5395346,1.101,5.8629999999999995,5.898,-1
927,928,1582725055632,0.54690766,-3.3324933,4.14564,2.742,6.126,5.52,-1
928,929,1582725055642,2.5227322999999995,-2.9818187000000003,2.2125547,4.9,6.437,3.556,-1
929,930,1582725055652,3.8585634,-2.8240595,-0.67157596,6.468,6.542999999999999,0.601,-1
930,931,1582725055662,3.9927733,-2.734477,-3.134225,6.962000000000001,6.547000000000001,-2.035,-1
931,932,1582725055672,3.9916449000000003,-2.319337,-4.3610225,7.209,6.892,-3.3760000000000003,-1
932,933,1582725055683,3.0797374,-1.6522379,-4.0065546,6.5,7.4910000000000005,-3.072,-1
933,934,1582725055693,2.3147528,-0.6282759,-2.290459,5.922000000000001,8.442,-1.348,-1
934,935,1582725055703,2.6532006,-0.26461887,-1.4983212,6.346,8.767999999999999,-0.526,-1
935,936,1582725055713,4.7962418,0.35738754,-1.9808318999999999,8.741,9.273,-0.922,-1
936,937,1582725055723,5.4894614,0.74293995,-3.4467893,9.594,9.582,-2.354,-1
937,938,1582725055734,6.34753,0.8854245999999999,-5.6181097,10.602,9.651,-4.507,-1
938,939,1582725055744,6.5717487000000006,1.5757065000000001,-7.9281807,10.962,10.272,-6.801,-1
939,940,1582725055754,6.994667999999999,2.4006824,-9.340703999999999,11.505,11.030999999999999,-8.181000000000001,-1
940,941,1582725055764,7.762424,2.7284707999999998,-9.597392999999999,12.379000000000001,11.294,-8.377,-1
941,942,1582725055775,8.02726,3.0513,-9.093404,12.734000000000002,11.555,-7.787999999999999,-1
942,943,1582725055785,7.868987599999999,3.289528,-8.622569,12.652000000000001,11.735,-7.22,-1
943,944,1582725055795,7.8667940000000005,3.3618449999999998,-8.539914,12.719000000000001,11.752,-7.046,-1
944,945,1582725055805,8.2223,3.5717087,-9.3315,13.142999999999999,11.908,-7.7620000000000005,-1
945,946,1582725055815,8.959974,3.4346628,-10.548825,13.95,11.718,-8.919,-1
946,947,1582725055825,9.441057,3.3822346,-11.604083000000001,14.497,11.615,-9.922,-1
947,948,1582725055835,9.639878999999999,3.209796,-12.057917,14.753,11.397,-10.327,-1
948,949,1582725055845,9.337989,2.8464259999999997,-11.966439999999999,14.497,10.995,-10.19,-1
949,950,1582725055855,8.89485,2.5614042,-11.828441999999999,14.089,10.679,-10.013,-1
950,951,1582725055866,8.307724,2.0715723,-12.6316805,13.529000000000002,10.164,-10.782,-1
951,952,1582725055876,8.026319500000001,1.6163054,-13.358544,13.27,9.685,-11.469000000000001,-1
952,953,1582725055886,7.761269599999999,1.1042098999999999,-13.1989,13.026,9.146,-11.254000000000001,-1
953,954,1582725055896,7.2298713,0.64245796,-12.044556,12.515999999999998,8.652999999999999,-10.03,-1
954,955,1582725055906,6.6369114,0.046401024000000006,-10.672445,11.948,8.023,-8.59,-1
955,956,1582725055917,6.088375599999999,-0.48603009999999996,-9.238827,11.431,7.457999999999999,-7.1129999999999995,-1
956,957,1582725055927,5.511442,-0.9062309000000001,-8.848847,10.892000000000001,7.01,-6.715,-1
957,958,1582725055937,4.7109237,-1.4280728999999999,-9.153714,10.133,6.466,-7.042999999999999,-1
958,959,1582725055947,4.236003,-2.044343,-9.735555999999999,9.702,5.829,-7.6610000000000005,-1
959,960,1582725055958,3.541636,-2.5938807,-9.888477,9.055,5.254,-7.843,-1
960,961,1582725055968,3.1139655,-2.8893400000000002,-9.124131,8.686,4.921,-7.093999999999999,-1
961,962,1582725055978,3.2170978,-3.0638223,-7.811566,8.871,4.691,-5.795,-1
962,963,1582725055989,3.7112236000000003,-3.2756734,-6.550929,9.472000000000001,4.406000000000001,-4.5569999999999995,-1
963,964,1582725055999,3.7489839,-3.0355234,-4.516367400000001,9.709,4.513999999999999,-2.605,-1
964,965,1582725056009,3.7457523,-2.5946236000000003,-3.2008185,9.843,4.864,-1.367,-1
965,966,1582725056019,4.0111322,-2.3543648999999998,-2.8324082,10.171,5.063,-1.041,-1
966,967,1582725056029,4.4194154999999995,-1.766161,-3.3135204,10.748,5.539,-1.6540000000000001,-1
967,968,1582725056039,4.945837,-1.6620708,-3.490189,11.370999999999999,5.5729999999999995,-1.896,-1
968,969,1582725056049,5.6569233,-1.6672281999999998,-2.7853584,12.171,5.496,-1.228,-1
969,970,1582725056059,6.1747108,-1.5823212,-0.98279816,12.772,5.506,0.5670000000000001,-1
970,971,1582725056069,6.414919,-1.5041885,0.4021622,13.052,5.546,1.956,-1
971,972,1582725056079,6.969091400000001,-1.0697398,4.2219615,13.716,5.872000000000001,5.791,-1
972,973,1582725056089,6.146836,-0.61142826,5.9395857,12.957,6.27,7.501,-1
973,974,1582725056099,5.799471,-0.34681797,6.637931299999999,12.638,6.5089999999999995,8.187999999999999,-1
974,975,1582725056110,4.6735050000000005,-0.15613079,7.8551826,11.589,6.6339999999999995,9.352,-1
975,976,1582725056120,4.183038,0.10461949999999999,8.511086,11.144,6.856,9.972000000000001,-1
976,977,1582725056130,4.277282,0.076334,9.919404,11.28,6.789,11.359000000000002,-1
977,978,1582725056140,4.524562,0.46998453,11.853678,11.565,7.144,13.289000000000001,-1
978,979,1582725056151,4.2880077000000005,0.8881459,14.061070999999998,11.359000000000002,7.529,15.5,-1
979,980,1582725056161,3.6245502999999997,1.2342577,16.143812,10.717,7.853,17.579,-1
980,981,1582725056171,2.2975702,1.6468439,17.104294,9.402000000000001,8.258,18.515,-1
981,982,1582725056181,1.2681203,1.9885874,16.664162,8.377,8.605,18.027,-1
982,983,1582725056191,0.6182208,2.505403,14.904644000000001,7.728,9.134,16.202,-1
983,984,1582725056201,0.66150284,2.9396276,13.807157,7.771,9.575,15.071,-1
984,985,1582725056212,1.5507298,3.2147813,11.980775999999999,8.655,9.867,13.184000000000001,-1
985,986,1582725056222,1.7307887,3.3190036,12.2468815,8.812999999999999,9.97,14.279000000000002,-1
986,987,1582725056232,1.2475715,3.2550192000000004,15.522316,8.315,9.941,16.755,-1
987,988,1582725056242,-0.091686726,3.3190718,17.258657,6.94,10.039,18.511,-1
988,989,1582725056253,-0.62362766,3.3432608,17.309828,6.3870000000000005,10.085,18.563,-1
989,990,1582725056263,-1.171793,4.0470752999999995,13.603055,5.769,10.866,14.827,-1
990,991,1582725056273,-0.061172485,4.3548965,10.056217,6.83,11.227,11.263,-1
991,992,1582725056283,1.2733908,4.519545,7.9381,8.111,11.443,9.156,-1
992,993,1582725056294,1.6680703000000001,4.3126197,7.798997999999999,8.442,11.292,9.052999999999999,-1
993,994,1582725056304,1.5063429,4.053851,8.800972,8.207,11.095999999999998,10.097000000000001,-1
994,995,1582725056314,0.97336054,4.0252595,9.570831,7.5920000000000005,11.139000000000001,10.897,-1
995,996,1582725056324,0.5496149,3.8122300000000005,8.931772,7.079,11.005,10.274000000000001,-1
996,997,1582725056334,0.49637413,3.6678953,7.600094,6.933,10.942,8.952,-1
997,998,1582725056345,1.1300583,3.4093451,6.3633823,7.474,10.763,7.723,-1
998,999,1582725056355,1.9984055,3.2289453,5.3314705,8.25,10.66,6.6979999999999995,-1
999,1000,1582725056365,2.6134124,3.2374892,4.763553,8.77,10.745999999999999,6.138,-1
1000,1001,1582725056375,2.8554525,3.2913208,4.4439974,8.911,10.88,5.827000000000001,-1
1001,1002,1582725056385,3.3597155,3.0334133999999997,4.1692114,9.309,10.705,5.556,-1
1002,1003,1582725056395,3.47851,2.7676291,3.4939337,9.316,10.526,4.873,-1
1003,1004,1582725056405,3.4023937999999996,2.3225121,3.1030107000000005,9.122,10.171,4.466,-1
1004,1005,1582725056415,3.6078753,1.7044225,2.5819302000000004,9.208,9.642000000000001,3.925,-1
1005,1006,1582725056426,3.7824678,1.370182,2.619248,9.263,9.395,3.937,-1
1006,1007,1582725056436,4.286912999999999,1.1093950000000001,2.3317459,9.649,9.22,3.611,-1
1007,1008,1582725056446,5.0976195,0.78426933,2.2179446,10.341,8.981,3.4389999999999996,-1
1008,1009,1582725056456,5.5101085,0.4828415,1.3005053999999998,10.630999999999998,8.767999999999999,2.4419999999999997,-1
1009,1010,1582725056466,5.5382739999999995,0.28467370000000003,0.14931905,10.527999999999999,8.662,1.195,-1
1010,1011,1582725056476,4.551404499999999,-0.12194061,-0.8738965,9.402000000000001,8.349,0.067,-1
1011,1012,1582725056486,3.4842277000000004,-0.65091133,-1.2601223999999998,8.198,7.9079999999999995,-0.426,-1
1012,1013,1582725056496,2.497211,-1.2213368,-1.2201464,7.106,7.405,-0.502,-1
1013,1014,1582725056506,1.8519430000000001,-1.8156538,-1.1183443000000002,6.421,6.8420000000000005,-0.536,-1
1014,1015,1582725056516,1.6674004,-2.2604194,-1.1889808000000002,6.119,6.4639999999999995,-0.701,-1
1015,1016,1582725056527,1.8703966,-2.5950307999999995,-1.2999926000000002,6.205,6.193,-0.91,-1
1016,1017,1582725056537,2.169189,-2.8742832999999997,-1.6742883999999998,6.397,5.97,-1.401,-1
1017,1018,1582725056547,1.7078833999999998,-3.0750175,-2.2530673,5.815,5.829,-2.11,-1
1018,1019,1582725056557,1.2035592,-3.5813785000000005,-3.0471306,5.172999999999999,5.386,-3.0389999999999997,-1
1019,1020,1582725056567,0.11165571,-3.9810033,-3.58554,3.93,5.051,-3.702,-1
1020,1021,1582725056578,-1.2559519,-4.6211634,-4.1364965,2.33,4.502,-4.418,-1
1021,1022,1582725056588,-1.9523941999999999,-5.0841317,-4.278333,1.484,4.093,-4.655,-1
1022,1023,1582725056598,-2.6389337000000004,-5.537159,-4.120476,0.6559999999999999,3.688,-4.579,-1
1023,1024,1582725056608,-2.6662319,-6.0094650000000005,-3.7277446000000003,0.5,3.2569999999999997,-4.255,-1
1024,1025,1582725056618,-2.6119204,-6.351511,-3.493154,0.43799999999999994,2.95,-4.085,-1
1025,1026,1582725056629,-2.7833824000000003,-6.5829053,-3.4000516000000003,0.158,2.7489999999999997,-4.059,-1
1026,1027,1582725056639,-2.8344793,-6.649615299999999,-3.6126120000000004,0.055,2.696,-4.306,-1
1027,1028,1582725056649,-3.0771248,-6.973567,-3.8426793,-0.287,2.397,-4.603,-1
1028,1029,1582725056659,-3.8761425000000003,-7.5468720000000005,-4.648391,-1.2209999999999999,1.8559999999999999,-5.489,-1
1029,1030,1582725056669,-4.2050605,-7.741464,-4.790295599999999,-1.896,1.501,-5.47,-1
1030,1031,1582725056680,-4.4371540000000005,-8.362169999999999,-3.9558582,-1.9180000000000001,1.075,-4.83,-1
1031,1032,1582725056690,-4.4662004,-8.543047,-3.260686,-1.992,0.907,-4.124,-1
1032,1033,1582725056700,-4.622651,-8.785507,-2.9155173,-2.167,0.67,-3.772,-1
1033,1034,1582725056710,-5.1529717,-9.199508,-2.4117177000000005,-2.739,0.268,-3.2539999999999996,-1
1034,1035,1582725056720,-5.301118,-9.324106,-2.6307464,-2.897,0.146,-3.472,-1
1035,1036,1582725056731,-6.752955,-9.996936,-3.830553,-4.368,-0.522,-4.672,-1
1036,1037,1582725056741,-7.6019516000000005,-10.791038499999999,-4.5356307000000005,-5.225,-1.314,-5.376,-1
1037,1038,1582725056751,-8.000143,-11.166261,-4.626796700000001,-5.965,-2.256,-5.149,-1
1038,1039,1582725056761,-8.76268,-12.180904,-3.2708687999999997,-6.377000000000001,-2.7030000000000003,-4.0760000000000005,-1
1039,1040,1582725056772,-8.512959500000001,-12.595934,-1.7710023000000001,-6.059,-3.13,-2.509,-1
1040,1041,1582725056782,-8.204239999999999,-12.790283,-0.591906,-5.64,-3.3480000000000003,-1.254,-1
1041,1042,1582725056792,-7.4222965,-12.942986999999999,-0.2010805,-4.713,-3.537,-0.799,-1
1042,1043,1582725056802,-6.474989,-13.07656,-0.92847204,-3.594,-3.719,-1.482,-1
1043,1044,1582725056812,-5.9660387,-13.149757999999999,-2.4522402000000003,-2.895,-3.8510000000000004,-2.9739999999999998,-1
1044,1045,1582725056823,-5.4815917,-13.190691000000001,-4.0012300000000005,-2.2030000000000003,-3.9610000000000003,-4.485,-1
1045,1046,1582725056833,-5.270476,-13.189335,-4.279634,-1.765,-4.04,-4.694,-1
1046,1047,1582725056843,-4.7577989999999994,-13.250569,-3.3405745000000002,-1.003,-4.196000000000001,-3.635,-1
1047,1048,1582725056853,-4.565775,-13.256706,-0.95193017,-0.541,-4.315,-1.084,-1
1048,1049,1582725056863,-4.526253700000001,-13.583584,1.6046448999999998,-0.21,-4.7780000000000005,1.65,-1
1049,1050,1582725056873,-2.9506183,-13.507751,3.2069520000000002,1.686,-4.869,3.417,-1
1050,1051,1582725056883,-0.6292677,-12.792496,3.0611281000000004,4.3580000000000005,-4.356,3.412,-1
1051,1052,1582725056893,1.3916378,-11.646811999999999,1.7329853,6.763,-3.4560000000000004,2.2119999999999997,-1
1052,1053,1582725056903,2.9179939999999998,-9.626704,0.7399705,8.734,-1.755,1.357,-1
1053,1054,1582725056913,4.521567299999999,-7.8801804,-0.23551863,10.905999999999999,-0.47600000000000003,0.531,-1
1054,1055,1582725056923,5.2405267,-5.9826155,0.09675264,12.003,1.058,1.0290000000000001,-1
1055,1056,1582725056933,6.029191,-5.070577,1.0439783,13.122,1.607,2.1719999999999997,-1
1056,1057,1582725056944,6.5285335,-4.5941133,2.7762312999999996,13.922,1.7069999999999999,4.119,-1
1057,1058,1582725056954,6.8814754,-3.1033506,4.9050164,14.552,2.804,6.466,-1
1058,1059,1582725056964,8.709092,-1.3234448,6.2139044000000005,16.64,4.167,7.982,-1
1059,1060,1582725056974,11.344095,0.6973715,6.4914885,19.519000000000002,5.75,8.443999999999999,-1
1060,1061,1582725056984,13.761845999999998,2.4734054,5.7678566,22.158,7.082000000000001,7.874,-1
1061,1062,1582725056995,15.279817999999999,4.19715,4.552392,23.866,8.375,6.787000000000001,-1
1062,1063,1582725057005,15.446109,4.741682,3.8270273,24.184,8.516,6.188,-1
1063,1064,1582725057015,13.155592,4.647241999999999,4.509079,22.006999999999998,8.047,7.0120000000000005,-1
1064,1065,1582725057025,11.435141,5.2329435,6.4996023,20.372,8.272,9.158,-1
1065,1066,1582725057035,11.413022,6.130666000000001,8.882859,20.417,8.808,11.699000000000002,-1
1066,1067,1582725057046,12.471848,7.4432125,9.259076,21.528000000000002,9.766,12.219000000000001,-1
1067,1068,1582725057056,12.91717,8.722542,7.578538000000001,22.011999999999997,10.72,10.655,-1
1068,1069,1582725057066,12.451450999999999,9.17111,4.7975855,21.576,10.885,7.956,-1
1069,1070,1582725057076,10.840793,8.877149000000001,1.8610861,19.998,10.232999999999999,5.098,-1
1070,1071,1582725057087,10.043394000000001,8.527764,2.0416536,19.212,9.671,5.327999999999999,-1
1071,1072,1582725057097,9.826491,8.186501,2.691265,18.997,9.228,6.006,-1
1072,1073,1582725057107,8.672372,7.680467,5.7682905,17.835,8.44,9.18,-1
1073,1074,1582725057118,8.026849,7.889442999999999,6.5262737,17.184,8.566,9.97,-1
1074,1075,1582725057128,7.1470994999999995,8.147484,6.261389,16.285999999999998,8.61,9.788,-1
1075,1076,1582725057138,6.778057,8.083387,4.582203,15.907,8.437000000000001,8.147,-1
1076,1077,1582725057148,6.416486,8.110488,3.7167974000000004,15.540999999999999,8.42,7.297000000000001,-1
1077,1078,1582725057158,5.224217400000001,7.286116000000001,2.092368,14.335999999999999,7.496,5.712000000000001,-1
1078,1079,1582725057169,4.763794,7.024072599999999,1.9955075,13.870999999999999,7.209,5.627999999999999,-1
1079,1080,1582725057179,4.0418844,6.3993754,2.1783822,13.136,6.526,5.846,-1
1080,1081,1582725057189,3.684475,6.017194,2.2163142999999996,12.772,6.119,5.901,-1
1081,1082,1582725057199,3.4174547,5.9237895,2.112773,12.502,6.018,5.805,-1
1082,1083,1582725057210,2.6343287999999996,5.5534362999999995,1.116427,11.709000000000001,5.642,4.833,-1
1083,1084,1582725057220,2.5592184,5.471997,0.67100334,11.63,5.563,4.397,-1
1084,1085,1582725057230,2.1205578,5.1970243,0.06841230400000001,11.179,5.3,3.824,-1
1085,1086,1582725057240,1.9135703999999998,4.813028,0.3134327,10.964,4.926,4.088,-1
1086,1087,1582725057251,2.161768,4.4749327,0.89785624,11.206,4.596,4.687,-1
1087,1088,1582725057261,2.3422585,4.078723,1.1647131000000002,11.385,4.212,4.957,-1
1088,1089,1582725057271,2.2797375,3.9874129999999997,1.3033285,11.12,4.013999999999999,5.096,-1
1089,1090,1582725057281,1.3692265,3.4765818,1.2999649,10.415,3.678,5.082,-1
1090,1091,1582725057291,0.96347237,3.1092436,0.63493013,10.011000000000001,3.372,4.409,-1
1091,1092,1582725057301,0.9744339,3.0688047000000003,0.28306365,10.023,3.367,4.052,-1
1092,1093,1582725057311,1.3259611,2.7938726000000003,-0.14756131,10.375,3.1919999999999997,3.611,-1
1093,1094,1582725057321,1.4479647,2.6176631,0.24929189999999998,10.492,3.068,4.013999999999999,d
1094,1095,1582725057331,1.2351398,2.632835,0.7096366999999999,10.272,3.135,4.485,-1
1095,1096,1582725057342,0.7932520000000001,2.39415,1.191824,9.821,2.9530000000000003,4.981,-1
1096,1097,1582725057352,0.8620348,2.1067553,1.3133428,9.881,2.72,5.115,-1
1097,1098,1582725057362,1.2295418,2.2958752999999996,1.2775829,10.241,2.957,5.0889999999999995,-1
1098,1099,1582725057372,1.5187988000000001,2.4481778,1.0848265,10.523,3.156,4.905,-1
1099,1100,1582725057383,2.338993,2.538611,0.2954986,11.338,3.293,4.119,-1
1100,1101,1582725057393,2.6035538,2.5053148,-1.0304298,11.600999999999999,3.3169999999999997,2.785,-1
1101,1102,1582725057403,1.509839,2.324509,-1.7312915,10.511,3.218,2.057,-1
1102,1103,1582725057414,0.0029363632,1.596434,-1.4384333999999999,9.019,2.634,2.2769999999999997,-1
1103,1104,1582725057424,-0.35829163,0.67188525,-0.24557471,8.657,1.791,3.448,-1
1104,1105,1582725057434,0.14627838,0.43645608,1.7318089,9.139,1.611,5.462999999999999,-1
1105,1106,1582725057445,1.6817369999999998,0.06253266,3.328225,10.667,1.254,7.072,-1
1106,1107,1582725057454,2.6053752999999995,0.83538854,3.3099324999999995,11.587,2.05,7.055,-1
1107,1108,1582725057464,1.7277536,2.2869835,1.0438049,10.705,3.554,4.782,-1
1108,1109,1582725057474,-0.18685436,3.2886843999999997,-1.2736762,8.787,4.694,2.423,-1
1109,1110,1582725057485,-0.5689192,3.1855032000000003,-1.8986162,8.408,4.782,1.712,-1
1110,1111,1582725057495,-0.36195374,2.607964,-0.73322797,8.597999999999999,4.495,2.778,-1
1111,1112,1582725057505,2.3987799,1.6974194,0.8988761999999999,11.349,3.623,4.414,-1
1112,1113,1582725057515,4.6982230000000005,2.8675349999999997,1.2476556,13.637,4.811,4.782,-1
1113,1114,1582725057526,4.9108953,5.2976327,0.21169186,13.831,7.297000000000001,3.762,-1
1114,1115,1582725057536,4.62325,5.554288,0.24969363,13.539000000000001,7.58,3.7960000000000003,-1
1115,1116,1582725057547,4.453153599999999,6.3133583,2.1918883,13.360999999999999,8.423,5.709,-1
1116,1117,1582725057557,5.3819847,6.712903,3.5581095,14.286,8.875,7.053,-1
1117,1118,1582725057567,6.217122,6.6319256,4.253851,15.119000000000002,8.82,7.7379999999999995,-1
1118,1119,1582725057578,8.261887,7.2913809999999994,5.232594000000001,17.938,9.75,8.61,-1
1119,1120,1582725057588,9.914267,7.710008599999999,4.5554485,18.798,10.032,7.999,-1
1120,1121,1582725057599,10.674528,8.55451,1.24266,19.531,11.055,4.631,-1
1121,1122,1582725057609,10.658501,8.376251,0.28223348,19.49,11.030999999999999,3.6180000000000003,-1
1122,1123,1582725057620,10.506088,7.931660000000001,0.5980095999999999,19.323,10.672,3.903,-1
1123,1124,1582725057630,9.229677,6.603581,3.0622637000000004,17.991,9.632,6.2620000000000005,-1
1124,1125,1582725057640,8.236156,6.259714,4.298522,16.949,9.505,7.417000000000001,-1
1125,1126,1582725057650,7.859728,5.364916,4.602535700000001,16.516,8.844,7.625,-1
1126,1127,1582725057660,7.236764999999999,4.7281322,4.351693,15.507,8.001,6.832000000000001,-1
1127,1128,1582725057671,6.8478164999999995,3.6294777000000003,3.8516402000000003,15.364,7.6160000000000005,6.636,-1
1128,1129,1582725057681,6.5981607,2.7000055,3.4116156,15.027999999999999,6.95,6.066,-1
1129,1130,1582725057691,6.430723,0.9912504999999999,2.72479,14.705,5.642,5.19,-1
1130,1131,1582725057701,6.018903,0.6180229,2.6530354,13.706,5.319,5.187,-1
1131,1132,1582725057711,4.802313,-0.31454040000000005,3.5228786,12.81,4.89,5.75,-1
1132,1133,1582725057722,4.404996,-1.11479,4.5144806,12.257,4.375,6.607,-1
1133,1134,1582725057732,3.9447107000000003,-1.4237298999999999,4.7372646,11.167,3.9560000000000004,6.421,-1
1134,1135,1582725057742,2.3092875,-2.6824310000000002,2.7078042,9.818999999999999,3.386,4.425,-1
1135,1136,1582725057752,1.2470484,-3.2101474,0.7891592,8.617,3.0789999999999997,2.306,-1
1136,1137,1582725057762,0.7068566999999999,-3.5685873,-0.039087415,7.888999999999999,2.9789999999999996,1.271,-1
1137,1138,1582725057773,0.53092813,-3.7726915,0.6588261,7.513,3.015,1.82,-1
1138,1139,1582725057783,0.80564165,-3.9452443,1.9551234,7.5920000000000005,3.051,3.036,-1
1139,1140,1582725057793,1.0265603,-3.7929554,2.7352574,7.635,3.3739999999999997,3.8,-1
1140,1141,1582725057803,1.1041126,-3.4581562999999993,3.1002555,7.553,3.846,4.21,-1
1141,1142,1582725057813,0.7585354000000001,-3.3949163,3.2070912999999996,7.1129999999999995,3.99,4.327,-1
1142,1143,1582725057824,-0.36959982,-3.6605496,3.6334696,5.652,4.004,4.713,-1
1143,1144,1582725057834,-1.0932306999999999,-3.9223256,3.5096903,4.689,3.935,4.5089999999999995,-1
1144,1145,1582725057844,-2.1776687999999997,-4.1636095,2.9139085,3.36,3.8819999999999997,3.793,-1
1145,1146,1582725057854,-2.9126856,-4.342868,1.522022,2.385,3.877,2.256,-1
1146,1147,1582725057865,-3.7010856,-3.9162564,0.084926605,1.367,4.459,0.6679999999999999,-1
1147,1148,1582725057875,-3.6760087,-3.8092446000000004,-1.0834852,1.18,4.699,-0.637,-1
1148,1149,1582725057886,-2.9277849999999996,-3.9139524,-1.5134803999999997,1.736,4.706,-1.173,-1
1149,1150,1582725057896,-2.0531669,-3.8761034,-1.3854539,2.4330000000000003,4.84,-1.113,-1
1150,1151,1582725057906,-1.9425886000000003,-3.57968,-0.5107649999999999,2.373,5.223,-0.268,-1
1151,1152,1582725057916,-2.1737509,-3.9074879,1.3861588,1.973,4.976,1.6280000000000001,-1
1152,1153,1582725057927,-2.3038495,-4.0804954,2.8137455,1.6780000000000002,4.878,3.06,-1
1153,1154,1582725057937,-2.145244,-4.5948567,2.501121,1.6780000000000002,4.433,2.727,-1
1154,1155,1582725057947,-2.0394886000000003,-4.6811795,1.3652388999999998,1.631,4.4110000000000005,1.5390000000000001,-1
1155,1156,1582725057958,-1.9562981,-4.496703599999999,-0.14768346,1.5659999999999998,4.655,-0.047,-1
1156,1157,1582725057968,-2.231017,-4.988862,-1.5063772,1.077,4.243,-1.518,-1
1157,1158,1582725057978,-2.32721,-5.1731462,-1.6587911,0.912,4.083,-1.7,-1
1158,1159,1582725057988,-2.4073992000000004,-5.531619999999999,-1.6487892,0.701,3.7689999999999997,-1.7309999999999999,-1
1159,1160,1582725057998,-2.426361,-5.7823253,-1.0852784,0.56,3.5580000000000003,-1.187,-1
1160,1161,1582725058008,-2.7939358,-5.927744000000001,-0.09127001,0.079,3.448,-0.201,-1
1161,1162,1582725058018,-2.310261,-5.4786515,0.4152817,0.41100000000000003,3.9419999999999997,0.287,-1
1162,1163,1582725058028,-2.120103,-5.319714,0.46883159999999996,0.555,4.114,0.33,-1
1163,1164,1582725058038,-2.2679152,-5.155166,0.20588462,0.193,4.3389999999999995,-0.091,-1
1164,1165,1582725058048,-2.534042,-5.143055,-0.21125877,-0.031,4.337,-0.395,-1
1165,1166,1582725058058,-2.906816,-5.1476555,-0.99250257,-0.47600000000000003,4.351,-1.185,-1
1166,1167,1582725058068,-3.5026956,-5.0854945,-1.2783254,-1.13,4.428,-1.463,-1
1167,1168,1582725058078,-3.3839052000000005,-4.714281,-1.6976327000000002,-1.0490000000000002,4.809,-1.858,-1
1168,1169,1582725058088,-2.5967453,-4.0872555,-1.113645,-0.28,5.441,-1.238,-1
1169,1170,1582725058099,-1.5745901000000002,-3.6273727,-0.019512355,0.735,5.903,-0.11,-1
1170,1171,1582725058109,-1.1549996,-3.1523237,0.112562224,1.147,6.38,0.035,-1
1171,1172,1582725058119,-1.042848,-2.6796187999999996,-0.25886170000000003,1.245,6.856,-0.349,-1
1172,1173,1582725058129,-1.2659223,-2.537548,-1.0906607,0.991,7.005,-1.219,-1
1173,1174,1582725058140,-1.9080901000000001,-2.238927,-1.3567924,0.325,7.309,-1.501,-1
1174,1175,1582725058150,-2.1477296000000003,-1.9768085,-0.92338413,0.069,7.575,-1.063,-1
1175,1176,1582725058160,-1.6593243999999998,-1.5731349,-0.31135932,0.5529999999999999,7.98,-0.428,-1
1176,1177,1582725058170,-1.2042968,-1.0362883,-0.14892629,1.013,8.516,-0.237,-1
1177,1178,1582725058180,-1.0963713,-0.72191525,-0.13943338,1.264,9.026,-0.34700000000000003,-1
1178,1179,1582725058190,-0.41412878,-0.15582275,-0.52411616,1.81,9.395,-0.598,-1
1179,1180,1582725058201,0.21179795,0.13415813,-0.7358823,2.464,9.677999999999999,-0.85,-1
1180,1181,1582725058211,0.3599031,0.24853611,-1.178027,2.636,9.786,-1.341,-1
1181,1182,1582725058221,0.22897959,0.44927216,-1.8158071,2.512,9.984,-2.033,-1
1182,1183,1582725058231,0.10726476,0.5622759,-1.5035279,2.387,10.097000000000001,-1.7530000000000001,-1
1183,1184,1582725058242,-0.57181025,0.8256769,-0.44746274,1.69,10.365,-0.684,d
1184,1185,1582725058251,-0.8479681999999998,0.7033385999999999,1.0661473999999997,1.389,10.25,0.9,-1
1185,1186,1582725058261,-0.7843472,0.8520956000000001,1.8058186,1.446,10.401,1.686,-1
1186,1187,1582725058271,-0.10901475,0.79243374,2.5665697999999995,2.126,10.341,2.5669999999999997,-1
1187,1188,1582725058281,0.37642193,0.7271470999999999,1.4558103,2.627,10.272,1.489,-1
1188,1189,1582725058292,0.5189223,1.0272884,-0.41974145,2.783,10.569,-0.41100000000000003,-1
1189,1190,1582725058302,0.44894052,1.2605343,-1.3742633,2.718,10.800999999999998,-1.41,-1
1190,1191,1582725058312,0.5684564000000001,1.2197504,-1.5622673999999999,2.838,10.76,-1.619,-1
1191,1192,1582725058322,0.29308963,1.1247158000000002,-1.2583772,2.553,10.667,-1.348,-1
1192,1193,1582725058333,-0.20370698,0.8706579,-0.55619454,2.035,10.418,-0.639,-1
1193,1194,1582725058343,-0.604154,0.7023134,0.3363253,1.604,10.257,0.287,-1
1194,1195,1582725058353,-0.6958574000000001,0.61623573,0.9997483,1.482,10.177999999999999,1.001,-1
1195,1196,1582725058363,-0.5457343000000001,0.5006733,1.3523502,1.607,10.068,1.401,-1
1196,1197,1582725058373,-0.44400680000000003,0.6432724,0.93165565,1.693,10.214,1.001,-1
1197,1198,1582725058383,-0.20524585,0.738595,0.27943403,1.92,10.312000000000001,0.34,-1
1198,1199,1582725058394,0.48042559999999995,0.83728313,-0.61869395,2.605,10.411,-0.596,-1
1199,1200,1582725058404,0.60607934,1.0440321,-1.4728459999999999,2.725,10.619000000000002,-1.496,-1
1200,1201,1582725058414,0.37010956,1.0161953000000001,-1.4807297,2.471,10.595,-1.537,-1
1201,1202,1582725058424,-0.18515109999999999,0.5230198,-1.0460441999999999,1.882,10.109,-1.125,-1
1202,1203,1582725058434,-0.707487,0.05442238,-0.4003806,1.295,9.654,-0.493,-1
1203,1204,1582725058445,-1.7131087999999999,-0.45694733,0.27644250000000004,0.225,9.156,0.203,-1
1204,1205,1582725058455,-2.4335392000000002,-0.88498306,0.8393940999999999,-0.55,8.738999999999999,0.799,-1
1205,1206,1582725058465,-2.629118,-1.3327408,1.3739475,-0.78,8.298,1.369,-1
1206,1207,1582725058475,-2.3469748,-1.5633553999999998,1.7771217000000001,-0.517,8.071,1.805,-1
1207,1208,1582725058486,-1.9709752,-2.0945659,1.6880540000000002,-0.14800000000000002,7.541,1.743,-1
1208,1209,1582725058496,-2.46092,-2.9508419999999997,2.3091493,-0.6459999999999999,6.686,2.397,-1
1209,1210,1582725058506,-3.9636430000000002,-4.145683,3.8851535000000004,-2.167,5.494,4.023,-1
1210,1211,1582725058517,-6.1405125,-5.564393,6.3014402,-4.397,4.083,6.542999999999999,-1
1211,1212,1582725058527,-8.245911999999999,-7.1436777000000005,9.383675,-6.593,2.5140000000000002,9.793,-1
1212,1213,1582725058537,-9.243382,-8.597644,11.049685,-7.5920000000000005,1.058,11.51,-1
1213,1214,1582725058547,-9.36076,-9.676153,10.186212,-7.678,-0.026000000000000002,10.648,-1
1214,1215,1582725058558,-8.003123,-10.701269,6.722394,-6.421,-1.046,7.388,-1
1215,1216,1582725058568,-7.251878,-10.879180999999999,5.583028,-5.587000000000001,-1.238,6.251,-1
1216,1217,1582725058578,-6.9266586,-10.930424,5.9953959999999995,-5.204,-1.3,6.672000000000001,-1
1217,1218,1582725058588,-6.4166126,-11.183110000000001,8.403514,-4.619,-1.597,9.426,-1
1218,1219,1582725058599,-6.19773,-11.212797,9.029003999999999,-4.323,-1.6469999999999998,10.102,-1
1219,1220,1582725058608,-4.731281299999999,-10.191208,8.550028999999999,-2.6,-0.706,9.838,-1
1220,1221,1582725058618,-2.7620068,-9.328509,6.660368400000001,-0.40700000000000003,0.098,7.989,-1
1221,1222,1582725058628,-1.3897893,-8.819181,5.5078059999999995,1.092,0.579,6.806,-1
1222,1223,1582725058639,2.5291897999999997,-6.835791599999999,1.7884950000000002,5.415,2.4619999999999997,2.969,-1
1223,1224,1582725058649,4.694405000000001,-5.2589664,-0.88506186,7.896,3.944,0.222,-1
1224,1225,1582725058659,6.0436005999999995,-3.3613123999999996,-2.618445,9.661,5.695,-1.585,-1
1225,1226,1582725058669,7.637842,-1.5114893999999999,-3.5597255,11.532,7.431,-2.541,-1
1226,1227,1582725058680,8.713273,0.009671210999999999,-4.0783,12.857999999999999,8.835,-3.0269999999999997,-1
1227,1228,1582725058690,9.311914,1.1614408,-3.8615812999999997,13.687000000000001,9.867,-2.747,-1
1228,1229,1582725058700,10.059355,2.336936,-4.008534,14.65,10.921,-2.821,-1
1229,1230,1582725058710,10.554914,3.3514986000000007,-4.2592854,15.349,11.814,-3.005,-1
1230,1231,1582725058720,11.393415,4.2336434999999994,-4.345274,16.379,12.575999999999999,-3.034,-1
1231,1232,1582725058731,12.121881,4.8762045,-4.5374765,17.284000000000002,13.103,-3.18,-1
1232,1233,1582725058741,12.867367,5.566496,-5.3879867,18.187,13.687000000000001,-3.9989999999999997,-1
1233,1234,1582725058751,13.7801,6.1052904,-7.9962873,19.239,14.13,-6.591,-1
1234,1235,1582725058761,14.113798000000001,6.4186034,-10.572878999999999,19.689,14.36,-9.151,-1
1235,1236,1582725058772,13.749409,6.524684400000001,-11.85183,19.416,14.394,-10.390999999999998,-1
1236,1237,1582725058782,12.796379,6.3178377,-11.137079,18.53,14.125,-9.606,-1
1237,1238,1582725058792,11.405700999999999,5.878153299999999,-8.843698,17.186,13.632,-7.22,-1
1238,1239,1582725058802,10.614344000000001,5.6681894999999995,-6.806503299999999,16.429000000000002,13.378,-5.098,-1
1239,1240,1582725058812,10.481262,5.7493925,-6.5376544,16.324,13.427999999999999,-4.785,-1
1240,1241,1582725058823,10.7779045,5.672378500000001,-8.858208,16.645,13.335,-7.117000000000001,-1
1241,1242,1582725058833,10.748043,5.5863442,-11.965686,16.631,13.249,-10.279000000000002,-1
1242,1243,1582725058843,10.212652,5.042212,-13.860510999999999,16.101,12.715,-12.24,-1
1243,1244,1582725058853,9.184511,4.168094600000001,-14.889434,15.067,11.857000000000001,-13.325,-1
1244,1245,1582725058864,8.255688000000001,3.3007593,-14.703215,14.125,11.007,-13.175,-1
1245,1246,1582725058874,7.630133,2.3104472,-13.097936,13.482999999999999,10.032,-11.584000000000001,-1
1246,1247,1582725058884,6.863549000000001,0.900486,-9.897067999999999,12.687999999999999,8.646,-8.396,-1
1247,1248,1582725058895,6.356756,0.55737066,-9.367348,12.171,8.312999999999999,-7.879,-1
1248,1249,1582725058905,5.170105,-0.9082041,-8.988154,10.954,6.885,-7.58,-1
1249,1250,1582725058915,4.291341,-1.9027758000000001,-8.784068,10.059,5.917999999999999,-7.465,-1
1250,1251,1582725058925,3.4990248999999998,-2.5773854,-8.734091000000001,9.256,5.269,-7.525,-1
1251,1252,1582725058935,3.1480107000000004,-3.4660425000000004,-8.318315,8.904,4.399,-7.232,-1
1252,1253,1582725058946,2.6820211,-4.302554,-7.8200035,8.452,3.57,-6.871,-1
1253,1254,1582725058956,2.2348876,-5.093474400000001,-7.371563,8.044,2.7680000000000002,-6.582999999999999,-1
1254,1255,1582725058966,1.6168971,-5.863707499999999,-6.6449300000000004,7.561,1.92,-6.143,-1
1255,1256,1582725058976,1.44454,-6.180665,-6.184348,7.455,1.5590000000000002,-5.807,-1
1256,1257,1582725058986,1.3162379,-6.778131500000001,-4.299775599999999,7.382999999999999,0.922,-4.03,-1
1257,1258,1582725058997,1.2714562,-7.174532000000001,-2.293203,7.347,0.519,-2.033,-1
1258,1259,1582725059007,0.65296125,-7.513120699999999,-0.25914356,6.727,0.182,-0.011000000000000001,-1
1259,1260,1582725059017,-0.53185844,-7.7975435,0.87316865,5.534,-0.095,1.089,-1
1260,1261,1582725059027,-1.2877808000000002,-7.9411645,1.0217634,4.773,-0.23399999999999999,1.214,-1
1261,1262,1582725059037,-2.8571619999999998,-8.631316,0.46784818,3.199,-0.919,0.584,-1
1262,1263,1582725059048,-3.4614294,-9.088266,0.22923899,2.608,-1.386,0.316,-1
1263,1264,1582725059058,-3.9799857000000003,-9.253811,1.0969328999999999,2.119,-1.575,1.19,-1
1264,1265,1582725059068,-4.121512,-9.298299,2.8369994,2.026,-1.659,2.977,-1
1265,1266,1582725059078,-4.547964599999999,-9.149455999999999,5.381392,1.666,-1.5659999999999998,5.601,-1
1266,1267,1582725059088,-4.8818226,-9.014966000000001,7.462339999999999,1.4169999999999998,-1.506,7.795,-1
1267,1268,1582725059099,-5.3831735,-8.819908999999999,8.792486,1.0390000000000001,-1.439,9.462,-1
1268,1269,1582725059109,-5.6521444,-8.920428,9.451138499999999,0.898,-1.686,10.415,-1
1269,1270,1582725059120,-5.81585,-8.949738,10.03814,0.8640000000000001,-1.86,11.172,-1
1270,1271,1582725059129,-5.9902287,-8.551861,10.920627,0.828,-1.6159999999999999,12.175999999999998,-1
1271,1272,1582725059139,-6.147752,-8.211134,12.207487,0.8190000000000001,-1.4480000000000002,13.584000000000001,-1
1272,1273,1582725059149,-6.024765,-7.5007863,14.269274,1.101,-0.9359999999999999,15.785,-1
1273,1274,1582725059159,-5.207908,-6.747739999999999,16.560204000000002,2.086,-0.41100000000000003,18.238,-1
1274,1275,1582725059170,-3.9569805000000002,-6.0263405,18.729494,3.511,0.055,20.578000000000003,-1
1275,1276,1582725059180,-1.5816259,-5.3730097,20.298735,6.064,0.433,22.3,-1
1276,1277,1582725059190,0.8882146000000001,-4.436092400000001,20.332094,8.71,1.087,22.45,-1
1277,1278,1582725059200,2.131001,-2.4313471,19.332428,10.118,2.8139999999999996,21.538,-1
1278,1279,1582725059210,2.437437,-0.8275733000000001,18.257034,10.571,4.15,20.546,-1
1279,1280,1582725059220,2.0655136,0.52278805,18.492335999999998,10.324000000000002,5.237,20.889,-1
1280,1281,1582725059231,1.9711542000000002,1.6505723,19.153854,10.334000000000001,6.097,21.695999999999998,-1
1281,1282,1582725059241,3.0493813,2.5726642999999996,19.452548999999998,11.5,6.744,22.165,-1
1282,1283,1582725059251,5.313842,3.7065861000000004,17.863634,13.838,7.601,20.752,-1
1283,1284,1582725059261,8.047092999999998,4.782507,15.551001999999999,16.628,8.408,18.616,-1
1284,1285,1582725059271,10.268569,6.376524400000001,13.478704,18.884,9.75,16.729,-1
1285,1286,1582725059281,11.870562,7.7938833,12.34428,20.494,10.937999999999999,15.797,-1
1286,1287,1582725059291,12.708753999999999,8.819061,12.024272999999999,21.315,11.764000000000001,15.689,-1
1287,1288,1582725059301,13.024734500000001,9.753672,11.60668,21.590999999999998,12.54,15.482999999999999,-1
1288,1289,1582725059312,12.660785,9.927344,9.639975,21.164,12.602,13.728,-1
1289,1290,1582725059322,12.578349000000001,10.525087,7.103935000000001,20.997,13.129000000000001,11.407,-1
1290,1291,1582725059332,13.444289000000001,11.204676,4.305165000000001,21.758000000000003,13.765999999999998,8.832,-1
1291,1292,1582725059342,14.683121,11.720976,2.0608697,22.877,14.264000000000001,6.811,-1
1292,1293,1582725059353,15.726564000000002,11.633678,1.1187081,23.791999999999998,14.187999999999999,6.077999999999999,-1
1293,1294,1582725059363,15.986597,10.864983,1.0395279,23.921,13.469000000000001,6.181,-1
1294,1295,1582725059373,15.049557,9.140112,0.80949163,22.791,11.905,6.157,-1
1295,1296,1582725059383,14.261420999999999,8.620118,0.6804514,21.049,11.103,5.961,-1
1296,1297,1582725059394,12.745792,7.693538,0.22057152,20.302,10.72,5.69,-1
1297,1298,1582725059404,11.446596000000001,6.648455599999999,-1.4346299,18.834,10.011000000000001,4.069,-1
1298,1299,1582725059414,10.663533000000001,5.9281654,-3.3311946000000003,17.945,9.544,2.153,-1
1299,1300,1582725059424,10.083150999999999,5.7123555999999995,-4.3776025999999995,17.311,9.46,1.089,-1
1300,1301,1582725059434,7.875559,4.4412556,-4.994909,14.935,8.583,0.40700000000000003,-1
1301,1302,1582725059444,7.2065735,3.799779,-4.511612,14.209000000000001,8.068,0.866,-1
1302,1303,1582725059454,6.3365893,2.1695417999999997,-3.0727667999999997,13.177,6.801,2.2119999999999997,-1
1303,1304,1582725059464,6.3839364000000005,1.6793885,-2.4302857,13.175,6.428,2.8139999999999996,-1
1304,1305,1582725059474,6.4570669999999994,0.8027029,-1.7314622,13.158,5.7860000000000005,3.41,-1
1305,1306,1582725059485,6.406863700000001,0.24834728,-2.0359993000000003,12.992,5.599,2.8810000000000002,-1
1306,1307,1582725059495,6.595865700000001,0.079164505,-2.0749412,13.145999999999999,5.556,2.7489999999999997,-1
1307,1308,1582725059505,5.925873999999999,-1.3038688,-2.3403137000000003,12.375,4.555,2.16,-1
1308,1309,1582725059515,4.880763,-1.9397278000000002,-2.6132348,11.265999999999998,4.167,1.642,-1
1309,1310,1582725059526,4.235286,-2.1951346000000003,-2.8877453999999996,10.595,4.0280000000000005,1.235,-1
1310,1311,1582725059536,3.1371713,-2.7578497000000004,-4.506078,9.491,3.764,-0.8640000000000001,-1
1311,1312,1582725059547,3.0132585,-2.9542862999999997,-4.919068299999999,9.39,3.647,-1.465,-1
1312,1313,1582725059557,3.037077,-3.4119403,-5.0857095999999995,9.472000000000001,3.384,-2.157,-1
1313,1314,1582725059567,3.2820058,-3.775013,-4.7607875,9.718,3.13,-2.102,-1
1314,1315,1582725059577,3.2319322,-3.8551552000000004,-4.604293,9.673,3.094,-2.076,-1
