,Seq,Time,ACCx,ACCy,ACCz,ADGx,ADGy,ADGz,Keydown
0,1,1582724953439,2.0981807999999997,-0.24337924,-2.3331747000000003,10.667,1.163,2.224,-1
1,2,1582724953449,2.0981807999999997,-0.24337924,-2.3331747000000003,1.76,10.181000000000001,1.0959999999999999,-1
2,3,1582724953460,0.27050830000000003,0.7098093000000001,0.35327053,2.0540000000000003,10.257,1.71,-1
3,4,1582724953471,-0.22412145,0.5736475000000001,0.70623636,1.5419999999999998,10.118,2.105,-1
4,5,1582724953481,-0.67574,0.5451994000000001,1.0753059999999999,1.072,10.087,2.5140000000000002,-1
5,6,1582724953491,-0.554307,0.49269962,1.35648,1.178,10.032,2.83,-1
6,7,1582724953502,-0.17667055,0.49939632,1.4590608999999999,1.544,10.037,2.957,-1
7,8,1582724953512,0.31195259999999997,0.49453450000000004,1.2659569,2.021,10.032,2.778,-1
8,9,1582724953523,0.179106,0.5525198,1.2152665,1.87,10.092,2.735,-1
9,10,1582724953533,-0.32699179999999994,0.57446766,1.3917537,1.334,10.118,2.9189999999999996,-1
10,11,1582724953543,-0.9610356,0.25131226,2.0949755000000003,0.6579999999999999,9.8,3.635,-1
11,12,1582724953554,-1.9200248,-0.28617764,2.7663379,-0.354,9.267999999999999,4.327,-1
12,13,1582724953564,-2.9257002,-0.96116734,3.2630744,-1.425,8.597999999999999,4.857,-1
13,14,1582724953574,-3.5928593,-1.4602451,3.7299452000000004,-2.162,8.102,5.369,-1
14,15,1582724953584,-4.2369165,-2.269288,3.7583559999999996,-2.9139999999999997,7.292000000000001,5.4910000000000005,-1
15,16,1582724953595,-4.1805463,-2.5139122000000005,4.0258303,-2.9019999999999997,7.042999999999999,5.815,-1
16,17,1582724953605,-3.935589,-2.7693214,3.8834269999999997,-2.665,6.785,5.692,-1
17,18,1582724953615,-3.5967562000000006,-3.0481853,3.9736736000000006,-2.33,6.5,5.817,-1
18,19,1582724953626,-3.3116546000000002,-3.5977044,4.223080599999999,-2.0380000000000003,5.944,6.095,-1
19,20,1582724953636,-3.7197466,-4.473543599999999,4.4673824,-2.435,5.06,6.372999999999999,-1
20,21,1582724953646,-4.1969166,-4.960093,4.3952756,-2.909,4.572,6.306,-1
21,22,1582724953657,-5.5998209999999995,-6.1931133,3.560189,-4.296,3.338,5.465,-1
22,23,1582724953667,-6.5311129999999995,-6.944905,2.7358860000000003,-5.206,2.5860000000000003,4.627,-1
23,24,1582724953677,-6.821795,-7.3219270000000005,2.130444,-5.479,2.208,4.013999999999999,-1
24,25,1582724953688,-6.9627113,-8.413222,1.1026008999999999,-5.53,1.1059999999999999,2.9739999999999998,-1
25,26,1582724953698,-6.688898599999999,-8.910614,0.90294397,-5.162999999999999,0.593,2.78,-1
26,27,1582724953708,-5.967297599999999,-9.4480505,0.90286577,-4.323,0.033,2.7939999999999996,-1
27,28,1582724953719,-5.029793700000001,-10.045894,0.68488383,-3.1710000000000003,-0.61,2.603,-1
28,29,1582724953729,-4.8638535,-10.160316,0.63374746,-2.926,-0.742,2.56,-1
29,30,1582724953740,-4.4829550000000005,-10.564378999999999,-0.0025804043,-2.375,-1.185,1.935,-1
30,31,1582724953750,-3.8018087999999994,-10.877577,-1.0452428,-1.506,-1.544,0.9,-1
31,32,1582724953760,-2.655623,-11.157747,-2.0772285,-0.045,-1.913,-0.105,-1
32,33,1582724953770,-2.217607,-11.267522,-2.2052052000000004,1.101,-2.069,-0.419,-1
33,34,1582724953780,-1.4120388000000001,-11.444792,-2.6500463,1.5419999999999998,-2.32,-0.605,-1
34,35,1582724953790,-0.9298053,-11.423694,-2.4446849999999998,2.263,-2.399,-0.316,-1
35,36,1582724953801,-0.7264085,-11.539766,-2.4784787,2.7110000000000003,-2.6319999999999997,-0.24100000000000002,-1
36,37,1582724953810,-0.60494184,-11.248102000000001,-2.3833580000000003,3.0869999999999997,-2.476,-0.019,-1
37,38,1582724953820,0.8896527,-10.570609,-2.4687507,4.852,-1.956,0.033,-1
38,39,1582724953831,3.4462037000000003,-9.6849575,-3.0525033,7.702000000000001,-1.254,-0.41100000000000003,-1
39,40,1582724953841,5.5124903,-8.305178,-3.5617654,10.166,-0.126,-0.802,-1
40,41,1582724953851,7.0222163,-7.180364999999999,-4.85489,12.557,0.89,-2.445,-1
41,42,1582724953861,8.033934,-6.7053747,-6.182469,13.261,1.013,-3.137,-1
42,43,1582724953872,8.387497,-6.295396,-6.5491953,13.958,1.056,-3.218,-1
43,44,1582724953882,9.080682000000001,-5.3345113,-6.556606299999999,14.849,1.7480000000000002,-2.988,-1
44,45,1582724953892,10.4065075,-3.795147,-6.366699,16.35,2.9930000000000003,-2.524,-1
45,46,1582724953902,11.947203,-2.5822689999999997,-4.9177556,18.046,3.884,-0.775,-1
46,47,1582724953913,13.354296,-1.496067,-2.8551803,19.590999999999998,4.631,1.587,-1
47,48,1582724953923,13.873844,-0.63174915,-1.4553821000000002,20.237000000000002,5.1579999999999995,3.252,-1
48,49,1582724953933,13.833017000000002,-0.29179335,-1.6556556,20.316,5.178,3.266,-1
49,50,1582724953943,14.236485,0.16164732,-3.3587182,20.836,5.327999999999999,1.733,-1
50,51,1582724953954,15.223963000000001,1.1077852,-4.8467665,21.933000000000003,5.97,0.39899999999999997,-1
51,52,1582724953964,16.974083,2.2622299999999997,-4.7895293,23.776999999999997,6.803999999999999,0.62,-1
52,53,1582724953974,18.491999,3.5457807,-3.2675812,25.368000000000002,7.752000000000001,2.318,-1
53,54,1582724953985,18.64603,4.5239296,-1.165801,25.578000000000003,8.394,4.591,-1
54,55,1582724953995,17.964989000000003,5.45881,0.68792963,24.945999999999998,9.007,6.591,-1
55,56,1582724954005,17.575151,6.1152496,1.6930127000000001,24.608,9.362,7.707000000000001,-1
56,57,1582724954015,18.0817,6.947961,2.9838232999999996,25.205,9.777999999999999,9.101,-1
57,58,1582724954026,19.275818,7.935078599999999,3.905304,26.467,10.514000000000001,10.054,-1
58,59,1582724954036,20.85071,8.891859,4.0012403,28.11,11.254000000000001,10.157,-1
59,60,1582724954046,21.307991,9.26005,4.1784205000000005,28.634,11.455,10.317,-1
60,61,1582724954056,20.862,9.4332485,4.2435327,28.221999999999998,11.567,10.363,-1
61,62,1582724954066,17.733807000000002,9.509811000000001,4.9655569999999996,25.209,11.550999999999998,10.975999999999999,-1
62,63,1582724954077,16.136408,9.042564,5.664670500000001,23.698,11.081,11.567,-1
63,64,1582724954087,15.494198,8.236385,6.1134486,23.138,10.3,11.9,-1
64,65,1582724954097,15.387501,7.285601600000001,7.411921,23.099,9.39,13.093,-1
65,66,1582724954107,14.444948000000002,6.299021700000001,9.798727,22.206,8.461,15.39,-1
66,67,1582724954117,12.647297,5.1008368,12.851192,20.445999999999998,7.35,18.355,-1
67,68,1582724954128,10.749666,3.7686756,15.847005,18.585,6.148,21.243000000000002,-1
68,69,1582724954138,8.5490465,2.6609217999999997,17.399786,16.425,5.221,22.651999999999997,-1
69,70,1582724954148,6.2717996,1.6022911,17.794567,14.185,4.39,22.872,-1
70,71,1582724954158,4.5886674,0.95267177,17.658493,12.523,3.9989999999999997,22.551,-1
71,72,1582724954168,3.7926587999999994,0.5556359000000001,17.06675,11.722999999999999,3.875,21.785,-1
72,73,1582724954178,3.0910192000000003,-0.40131664,16.98274,10.99,3.199,21.545,-1
73,74,1582724954189,1.8556881,-1.2379537,17.324848,9.699,2.6510000000000002,21.744,-1
74,75,1582724954199,0.57783794,-2.3157883,18.054535,8.346,1.87,22.333000000000002,-1
75,76,1582724954209,-1.1976371000000001,-3.1504178,18.51066,6.48,1.341,22.64,-1
76,77,1582724954219,-2.3881773999999996,-3.6729214,17.841854,5.187,1.128,21.809,-1
77,78,1582724954229,-2.699286,-3.8293943,16.030684,4.763,1.276,19.828,-1
78,79,1582724954239,-2.1774014999999998,-4.0026720000000005,14.160135999999998,5.1610000000000005,1.393,17.794,-1
79,80,1582724954249,-1.3650788999999999,-4.3203115,12.277039,5.836,1.3459999999999999,15.770999999999999,-1
80,81,1582724954259,-1.0827131,-4.460160299999999,11.021293,5.962999999999999,1.4580000000000002,14.413,-1
81,82,1582724954269,-1.0042429,-4.7989736,10.689285,5.867000000000001,1.357,14.015,-1
82,83,1582724954279,-1.4581614,-5.262053,10.3772135,5.223,1.123,13.658,-1
83,84,1582724954289,-1.8666496,-5.420679,10.127256,4.715,1.077,13.388,-1
84,85,1582724954299,-3.0272155,-6.108414,8.404697,3.245,0.711,11.618,-1
85,86,1582724954310,-3.197433,-6.546368599999999,6.8244905,2.862,0.433,10.102,-1
86,87,1582724954320,-3.2784733999999998,-6.6849275,4.8468027000000005,2.572,0.433,8.205,-1
87,88,1582724954330,-3.6886466,-6.855519999999999,3.1718574,1.963,0.455,6.456,-1
88,89,1582724954341,-3.9812760000000003,-7.089823700000001,2.2173388,1.475,0.397,5.434,-1
89,90,1582724954351,-4.2399025,-6.8892417,1.9371595000000001,1.0270000000000001,0.752,5.106,-1
90,91,1582724954361,-4.2517059999999995,-6.880415400000001,1.8751948,0.838,0.895,5.007,-1
91,92,1582724954371,-3.91129,-7.003742699999999,1.4132679,1.0170000000000001,0.89,4.507,-1
92,93,1582724954382,-3.6024879999999997,-6.847895599999999,0.80754375,1.178,1.1540000000000001,3.855,-1
93,94,1582724954392,-3.2327943,-6.8376410000000005,0.12469721,1.413,1.266,3.111,-1
94,95,1582724954402,-3.156653,-6.9794083,-1.1036593000000001,1.367,1.2209999999999999,1.805,-1
95,96,1582724954413,-3.3017445,-6.783437299999999,-1.6563481,1.113,1.506,1.166,-1
96,97,1582724954423,-3.0564177000000003,-6.6455517,-2.1523432999999996,1.266,1.722,0.581,-1
97,98,1582724954433,-2.5269346,-6.157349,-2.625542,2.069,2.5839999999999996,-0.24100000000000002,-1
98,99,1582724954443,-1.6012437,-5.555105,-2.9362195,2.5810000000000004,2.9360000000000004,-0.371,-1
99,100,1582724954453,-0.94050026,-5.107399,-3.6480029999999997,3.185,3.4339999999999997,-1.159,-1
100,101,1582724954464,-0.8164294,-4.7170057,-4.2537417,3.2539999999999996,3.872,-1.839,-1
101,102,1582724954474,-0.8336406,-4.719733,-4.7701519999999995,3.185,3.915,-2.4330000000000003,-1
102,103,1582724954484,-0.8285167,-4.54505,-5.456087999999999,3.125,4.155,-3.2539999999999996,-1
103,104,1582724954494,-0.6662743,-4.341608,-5.998865,3.2569999999999997,4.399,-3.906,-1
104,105,1582724954505,-0.31686258,-3.9816952000000003,-6.323737599999999,3.597,4.7780000000000005,-4.294,-1
105,106,1582724954515,0.16203856,-3.1001382,-7.003277000000001,4.0760000000000005,5.7139999999999995,-5.225,-1
106,107,1582724954525,0.16735005,-2.805234,-6.96853,4.105,6.042000000000001,-5.422000000000001,-1
107,108,1582724954535,0.35010862,-2.5935454,-6.43993,4.32,6.277,-5.127000000000001,-1
108,109,1582724954546,0.44351816,-2.7613845,-5.699404,4.437,6.121,-4.548,-1
109,110,1582724954556,0.28057957,-2.6355076,-4.7925949999999995,4.279,6.255,-3.7239999999999998,-1
110,111,1582724954566,0.107411385,-2.4095372999999998,-4.1506824,4.105,6.4879999999999995,-3.139,-1
111,112,1582724954576,0.5556821999999999,-2.0451155,-3.8368322999999998,4.564,6.856,-2.9019999999999997,-1
112,113,1582724954587,0.57618284,-1.7774506,-3.6368911,4.605,7.125,-2.8089999999999997,-1
113,114,1582724954597,0.16360569,-1.4964566000000001,-3.4322337999999997,4.2,7.412000000000001,-2.713,-1
114,115,1582724954607,-0.42763376,-1.337121,-3.331614,3.6060000000000003,7.58,-2.7110000000000003,-1
115,116,1582724954617,-0.38148355,-1.2047338,-3.2770574,3.6519999999999997,7.718999999999999,-2.759,-1
116,117,1582724954628,-0.026080607999999998,-0.6875781999999999,-2.9859715000000002,4.023,8.236,-2.605,-1
117,118,1582724954638,0.96537924,-0.12341499,-2.5058186,5.06,8.783999999999999,-2.256,-1
118,119,1582724954648,1.8309698,0.11872673,-1.9623686999999999,5.973,9.005,-1.743,-1
119,120,1582724954658,1.9606046999999998,0.25162125,-0.8353251,6.14,9.12,-0.601,-1
120,121,1582724954668,1.4874825,0.21343994,-0.16037187,5.692,9.068999999999999,0.107,-1
121,122,1582724954678,0.64478016,0.15749359,0.5285668,4.859,9.007,0.84,-1
122,123,1582724954688,-0.07389212,0.005824089,0.8924235,4.126,8.859,1.2830000000000001,-1
123,124,1582724954698,-0.6660656999999999,0.15063477,0.9154581,3.4789999999999996,9.026,1.381,-1
124,125,1582724954708,-0.5613811,0.1544323,0.49652648,3.537,9.05,0.9890000000000001,-1
125,126,1582724954718,-0.34132670000000004,0.3764639,0.019272417,3.7289999999999996,9.285,0.51,-1
126,127,1582724954728,-0.17107677,0.49805737,-0.41506454,3.8939999999999997,9.41,0.057,-1
127,128,1582724954739,-0.042823315,0.6240635,-0.49871930000000003,4.023,9.536,-0.033,-1
128,129,1582724954749,0.11237192,0.7273321,0.10177642,4.181,9.637,0.586,-1
129,130,1582724954759,0.01055336,0.7749615,0.8543710999999999,4.078,9.683,1.3769999999999998,-1
130,131,1582724954769,-0.27806640000000005,0.7298813,1.33355,3.781,9.639,1.901,-1
131,132,1582724954780,-0.41993475,0.63342667,1.2423176,3.6260000000000003,9.546,1.848,d
132,133,1582724954790,-0.32788658,0.76916885,0.7540376999999999,3.7089999999999996,9.685,1.3719999999999999,-1
133,134,1582724954800,-0.064091444,0.83444786,0.29363292,3.97,9.752,0.905,-1
134,135,1582724954810,0.108970165,0.8945284,0.12536639,4.145,9.812000000000001,0.725,-1
135,136,1582724954821,0.18284129999999998,0.9963521999999999,0.19480741,4.224,9.912,0.787,-1
136,137,1582724954831,0.2903824,1.0076656,0.31390650000000003,4.3389999999999995,9.92,0.905,-1
137,138,1582724954841,0.47528553,0.9173355,0.4432915,4.531000000000001,9.826,1.041,-1
138,139,1582724954851,0.4656906,0.9612235999999998,0.51052403,4.526,9.867,1.12,-1
139,140,1582724954862,0.5729847,0.90955067,0.53703547,4.6339999999999995,9.814,1.161,-1
140,141,1582724954872,0.39000416,0.7987213000000001,0.5638970999999999,4.447,9.704,1.202,-1
141,142,1582724954882,-0.008967399999999999,0.7457123000000001,0.5682176,4.035,9.656,1.219,-1
142,143,1582724954892,-0.10015726,0.5661888,0.68539137,3.92,9.486,1.3530000000000002,-1
143,144,1582724954902,-0.16497946,0.6253004,0.7428058000000001,3.8480000000000003,9.548,1.415,-1
144,145,1582724954913,-0.17817974,0.57005215,0.7312299,3.772,9.524,1.3430000000000002,-1
145,146,1582724954923,-0.30807399999999996,0.59452343,0.4686424,3.6660000000000004,9.533999999999999,1.149,-1
146,147,1582724954933,-0.29636788,0.5029745,0.30749005,3.661,9.45,0.986,-1
147,148,1582724954944,-0.1848185,0.5126009,0.23126839999999999,3.76,9.465,0.912,-1
148,149,1582724954954,-0.02811718,0.5324106,0.46053009999999994,3.8080000000000003,9.445,1.219,-1
149,150,1582724954964,-0.11011982,0.44960500000000003,0.71061236,3.8169999999999997,9.407,1.4269999999999998,-1
150,151,1582724954974,-0.15308666,0.5444803,1.0123271999999999,3.762,9.505,1.755,-1
151,152,1582724954985,-0.049788713,0.5689621,1.0488269,3.855,9.532,1.815,-1
152,153,1582724954995,0.14296293,0.72179985,1.1258209,4.04,9.687000000000001,1.906,-1
153,154,1582724955005,0.38521504,0.7439928000000001,0.88838303,4.277,9.711,1.6740000000000002,-1
154,155,1582724955016,0.7796489999999999,0.8081293,0.54813665,4.67,9.776,1.331,-1
155,156,1582724955025,0.92401433,0.8114424,0.4547407,4.811,9.781,1.235,-1
156,157,1582724955035,0.44554138,0.73083305,0.6478663,4.323,9.704,1.4340000000000002,-1
157,158,1582724955045,-0.0012648105999999999,0.5288868,1.0555587,3.858,9.508,1.8630000000000002,-1
158,159,1582724955055,-0.32422137,0.42392349999999995,1.275253,3.511,9.41,2.119,-1
159,160,1582724955066,-0.08891082,0.48436356,1.3492937,3.7310000000000003,9.474,2.224,-1
160,161,1582724955076,0.17576218,0.50757504,1.1948016000000001,3.99,9.498,2.086,-1
161,162,1582724955086,0.39828205,0.49552917,0.8640380999999999,4.212,9.486,1.757,-1
162,163,1582724955096,0.60605145,0.43685340000000006,0.47307938,4.425,9.426,1.357,-1
163,164,1582724955106,0.6328354,0.49509716,0.014395356000000002,4.457,9.484,0.878,-1
164,165,1582724955117,0.4803326,0.40285683,-0.37268007,4.308,9.392999999999999,0.462,-1
165,166,1582724955127,0.32286644,0.26861763,-0.5572395,4.152,9.261000000000001,0.24600000000000002,-1
166,167,1582724955137,0.15061712,0.31184673,-0.38521513,3.978,9.307,0.395,-1
167,168,1582724955148,-0.025293589,0.27771378,0.03834063,3.798,9.275,0.8140000000000001,-1
168,169,1582724955158,-0.038283825,0.20803165,0.40458262,3.781,9.206,1.192,-1
169,170,1582724955168,0.20021391,0.22311115,0.6196227,4.023,9.218,1.425,-1
170,171,1582724955178,0.3677554,0.20111752,0.5193433,4.198,9.192,1.334,-1
171,172,1582724955189,0.3835354,0.16829205,0.20603454,4.2219999999999995,9.156,1.0170000000000001,-1
172,173,1582724955199,0.357023,0.15562439,0.0078318715,4.203,9.141,0.809,-1
173,174,1582724955209,0.23033547,0.10692501,-0.27343386,4.083,9.091000000000001,0.51,-1
174,175,1582724955219,0.21950817,0.16300774,0.027000785,4.0760000000000005,9.146,0.804,-1
175,176,1582724955230,0.11943841,0.31301022,0.05795598,3.975,9.297,0.828,-1
176,177,1582724955240,0.13596988,0.28531265,-0.20781219,3.99,9.271,0.55,-1
177,178,1582724955250,0.035467148,0.26091479999999995,-0.29190093,3.887,9.249,0.45,-1
178,179,1582724955260,0.17535472,0.35357857,-0.29197812,4.0280000000000005,9.342,0.44,-1
179,180,1582724955270,0.27333546,0.28839016,-0.06678069,4.131,9.275,0.6609999999999999,-1
180,181,1582724955281,0.40159702,0.34222507,0.06666559,4.265,9.326,0.799,-1
181,182,1582724955291,0.40226054,0.5458813,0.27805203,4.27,9.527000000000001,1.02,-1
182,183,1582724955301,0.3453884,0.5269556,0.24029982,4.212,9.508,0.9890000000000001,-1
183,184,1582724955311,0.19215322,0.41712475,0.17064446,4.053999999999999,9.4,0.922,-1
184,185,1582724955321,0.10628605,0.37107944,0.0744859,3.9610000000000003,9.357000000000001,0.826,-1
185,186,1582724955332,0.0069568157,0.3368473,0.2116906,3.853,9.326,0.9690000000000001,-1
186,187,1582724955342,-0.030321121,0.30553246,0.32009232,3.8080000000000003,9.297,1.089,-1
187,188,1582724955352,-0.07173419,0.409688,0.47518940000000004,3.762,9.402000000000001,1.2570000000000001,-1
188,189,1582724955362,0.2270813,0.45285416,0.40797132,4.064,9.443,1.199,-1
189,190,1582724955372,0.3433938,0.6015196,0.2952695,4.186,9.589,1.089,-1
190,191,1582724955382,0.4436016,0.6565218,0.3588335,4.291,9.642000000000001,1.1520000000000001,-1
191,192,1582724955393,0.6918738,0.603055,0.40256608,4.543,9.587,1.195,-1
192,193,1582724955403,0.6026108,0.7180052,0.26037472,4.454,9.702,1.051,-1
193,194,1582724955413,0.5931034000000001,0.66971684,0.19253445,4.44,9.656,0.9790000000000001,-1
194,195,1582724955423,0.32891345,0.7408885999999999,0.1845898,4.169,9.73,0.972,-1
195,196,1582724955433,0.33172345,0.7767954,0.14086539,4.164,9.769,0.9309999999999999,d
196,197,1582724955444,0.20549512,0.7943534999999999,0.063396096,4.03,9.79,0.852,-1
197,198,1582724955454,0.35464120000000005,0.94678307,0.016541898,4.172,9.946,0.799,-1
198,199,1582724955464,0.6641946,1.0486507,0.0045413375,4.476,10.051,0.778,-1
199,200,1582724955474,0.80461407,1.0481291,-0.24502075,4.61,10.054,0.519,-1
200,201,1582724955484,0.83880377,0.966485,-0.027919947999999997,4.6339999999999995,9.977,0.732,-1
201,202,1582724955494,0.69879365,0.91630554,0.45574343,4.481,9.932,1.219,-1
202,203,1582724955504,0.47907066,0.8930464,0.5731286,4.246,9.915,1.338,-1
203,204,1582724955514,0.5003414,1.067833,0.21931535,4.251,10.097000000000001,0.9790000000000001,-1
204,205,1582724955524,0.410053,1.1025257,-0.09904194,4.143,10.14,0.649,-1
205,206,1582724955534,0.33111882,1.0045662,-0.32352424,4.045,10.051,0.41100000000000003,-1
206,207,1582724955544,0.47586894,1.0405378,-0.3900765,4.172,10.095,0.335,-1
207,208,1582724955554,0.6501601,0.8954791999999999,-0.18611288,4.332,9.956,0.536,-1
208,209,1582724955564,0.9956877000000001,0.8467617000000001,0.16136402,4.665,9.912,0.888,-1
209,210,1582724955574,1.1781518,0.82033634,0.39619440000000006,4.833,9.891,1.128,-1
210,211,1582724955584,1.1975163999999998,0.68547153,0.12827224,4.833,9.764,0.8590000000000001,-1
211,212,1582724955594,0.6467921999999999,0.55322075,-0.041471243,4.253,9.644,0.682,-1
212,213,1582724955604,0.4180069,0.30899525,-0.13525087,3.99,9.414,0.579,-1
213,214,1582724955614,0.02072525,-0.09906578,-0.09379965,3.554,9.022,0.608,-1
214,215,1582724955624,-0.40440536,-0.43148994,-0.12249732,3.082,8.708,0.574,-1
215,216,1582724955635,-0.58564496,-0.967988,-0.11147666,2.8569999999999998,8.187999999999999,0.586,-1
216,217,1582724955645,-0.8352556000000001,-1.4876246000000002,-0.26832998,2.5669999999999997,7.683,0.435,-1
217,218,1582724955655,-1.0422292,-2.2364755,-0.5967399999999999,2.323,6.947,0.11699999999999999,-1
218,219,1582724955665,-1.7140037000000001,-2.9370751,-0.8274288000000001,1.6159999999999999,6.257999999999999,-0.098,-1
219,220,1582724955675,-1.9688953999999999,-3.8307786,-0.82655513,1.329,5.374,-0.07400000000000001,-1
220,221,1582724955685,-2.6826386,-4.739768499999999,-0.8198466,0.586,4.473,-0.038,-1
221,222,1582724955696,-3.3471992,-5.471357299999999,-0.7996340000000001,-0.105,3.748,0.013999999999999999,-1
222,223,1582724955706,-4.14764,-6.3709115999999995,-0.95363563,-0.929,2.8539999999999996,-0.11,-1
223,224,1582724955716,-4.8830222999999995,-7.254088,-1.4854503000000001,-1.683,1.975,-0.617,-1
224,225,1582724955726,-5.8685410000000005,-8.241883999999999,-2.5932708,-2.68,0.9890000000000001,-1.702,-1
225,226,1582724955736,-6.894991,-9.139596000000001,-3.7206050000000004,-3.707,0.08800000000000001,-2.7939999999999996,-1
226,227,1582724955746,-7.9565163,-9.919846000000001,-4.1642094,-4.754,-0.7040000000000001,-3.173,-1
227,228,1582724955757,-8.709187,-10.284244000000001,-3.9135494,-5.472,-1.092,-2.821,-1
228,229,1582724955767,-8.971230499999999,-10.87227,-3.1193169999999997,-5.671,-1.719,-1.896,-1
229,230,1582724955777,-8.816915,-10.992238,-2.359387,-5.422000000000001,-1.8940000000000001,-0.993,-1
230,231,1582724955787,-8.250043,-11.206337,-2.0839461999999997,-4.732,-2.177,-0.579,-1
231,232,1582724955797,-7.594002000000001,-11.481086,-2.2374932999999997,-3.927,-2.533,-0.608,-1
232,233,1582724955807,-7.3851147,-11.397105999999999,-2.451967,-3.549,-2.541,-0.713,-1
233,234,1582724955817,-7.089753599999999,-11.409672,-3.1504757000000003,-3.065,-2.658,-1.3119999999999998,-1
234,235,1582724955827,-6.4787335,-11.577935,-3.8764937000000006,-2.244,-2.948,-1.9369999999999998,-1
235,236,1582724955837,-6.119748,-11.439264999999999,-3.64854,-1.6569999999999998,-2.9530000000000003,-1.59,-1
236,237,1582724955847,-5.5725408,-11.390687,-3.1361272000000002,-0.8640000000000001,-3.075,-0.934,-1
237,238,1582724955857,-4.7353724999999995,-11.4744425,-2.3687992,0.237,-3.36,-0.002,-1
238,239,1582724955867,-3.6058912000000003,-11.375959,-1.7282629,1.645,-3.4939999999999998,0.816,-1
239,240,1582724955877,-1.6068716,-11.203379,-1.2006669,3.935,-3.585,1.5230000000000001,-1
240,241,1582724955888,-0.06790686,-10.31293,-1.1077673000000001,5.774,-2.991,1.796,-1
241,242,1582724955898,1.6960502,-8.789574,-0.99975514,7.855,-1.8130000000000002,2.093,-1
242,243,1582724955908,3.8573976,-7.2981443,-0.31598568,10.504000000000001,-0.888,2.986,-1
243,244,1582724955918,5.078355,-6.4995637,1.1146283000000001,12.001,-0.5,4.615,-1
244,245,1582724955928,5.5374794000000005,-6.401928400000001,2.6189828,12.698,-0.807,6.306,-1
245,246,1582724955938,5.8358893,-6.6075615999999995,4.080842,13.215,-1.42,7.928999999999999,-1
246,247,1582724955948,5.80225,-6.668895200000001,4.7835540000000005,13.385,-1.896,8.77,-1
247,248,1582724955958,6.3654866,-5.864152,5.0822053,14.133,-1.52,9.201,-1
248,249,1582724955968,7.956069500000001,-4.1969314,5.384044,15.886,-0.306,9.644,-1
249,250,1582724955978,10.500010000000001,-2.4035316000000004,6.6283335999999995,18.566,1.008,11.040999999999999,-1
250,251,1582724955988,13.069626,-0.90303016,8.575301,21.243000000000002,2.016,13.140999999999998,-1
251,252,1582724955999,14.398551000000001,-0.110397816,10.763422,22.651999999999997,2.33,15.464,-1
252,253,1582724956009,13.796635,0.24574971,11.683277,22.105999999999998,2.246,16.492,-1
253,254,1582724956019,12.056751,-0.018152118000000002,12.040583999999999,20.398,1.585,16.942,-1
254,255,1582724956029,10.429611999999999,0.0030099154,12.110553999999999,18.781,1.24,17.1,-1
255,256,1582724956039,10.77828,0.99537206,11.677624,19.121,1.8840000000000001,16.755,-1
256,257,1582724956049,11.6081295,3.2350838,10.918713,19.928,3.793,16.08,-1
257,258,1582724956060,13.969859,6.008953,7.5813217,22.244,6.124,12.844000000000001,-1
258,259,1582724956070,14.576070999999999,6.468054,6.5106883,22.834,6.454,11.8,-1
259,260,1582724956080,13.015977000000001,6.5455914,5.3298445,21.226999999999997,6.207000000000001,10.681,-1
260,261,1582724956090,10.357781,6.1370935,5.954234,18.537,5.622999999999999,11.34,-1
261,262,1582724956100,9.324933,5.853680000000001,6.495028,16.463,4.967,12.382,-1
262,263,1582724956111,6.7308254000000005,5.1039124000000005,7.7568827,14.827,4.287,13.23,-1
263,264,1582724956121,6.213854,4.9237967000000005,8.01803,14.262,3.978,13.540999999999999,-1
264,265,1582724956131,5.9733410000000005,4.890781400000001,7.53578,13.998,3.889,13.083,-1
265,266,1582724956141,5.5469040000000005,4.9270344,6.3257737,13.134,3.7910000000000004,11.349,-1
266,267,1582724956152,5.0153975,4.949498,5.096346,12.964,3.7910000000000004,10.722000000000001,-1
267,268,1582724956162,4.2090879999999995,4.695951,3.6953273,12.123,3.477,9.357000000000001,-1
268,269,1582724956172,3.6616607000000005,4.624439,3.4970602999999993,11.567,3.3930000000000002,9.168,-1
269,270,1582724956182,2.7431812,4.212699400000001,3.2002062999999996,10.624,2.9530000000000003,8.899,-1
270,271,1582724956192,2.3697220000000003,4.0829830000000005,3.4741125,10.231,2.806,9.196,-1
271,272,1582724956203,2.2321577,3.90729,3.4661107,10.073,2.617,9.213,-1
272,273,1582724956213,2.4832959999999997,3.8274980000000003,3.0620990000000003,10.308,2.533,8.83,-1
273,274,1582724956223,2.4521284,3.78694,2.3546524,10.267000000000001,2.502,8.138,-1
274,275,1582724956233,2.4287,3.7740035000000005,2.005762,10.241,2.5,7.795,-1
275,276,1582724956244,2.010425,3.2483168,0.95246553,9.821,2.03,6.756,-1
276,277,1582724956253,1.7555531999999998,2.9864676,0.45833729999999995,9.568,1.82,6.27,-1
277,278,1582724956263,1.7886901000000002,2.708495,0.42548847,9.606,1.595,6.2410000000000005,-1
278,279,1582724956273,1.958982,2.4020162,0.5372834,9.786,1.338,6.349,-1
279,280,1582724956283,1.728837,2.373549,0.58677053,9.562999999999999,1.338,6.394,-1
280,281,1582724956294,0.64957714,1.9125535,0.39531659999999996,8.511000000000001,0.998,6.186,-1
281,282,1582724956304,0.14436054,1.4995543,-0.029291152999999997,8.027999999999999,0.728,5.752000000000001,-1
282,283,1582724956314,-0.15019655,1.1772003999999998,-0.45152664,7.752000000000001,0.498,5.316,-1
283,284,1582724956324,0.06645632,0.93452984,-0.19140768,7.987,0.34700000000000003,5.561,-1
284,285,1582724956334,0.115431786,0.65481114,0.04839039,8.042,0.146,5.8,-1
285,286,1582724956344,0.47640324,0.47392642,0.5246935,8.399,-0.009000000000000001,6.284,-1
286,287,1582724956354,0.69780874,0.36505204,0.5565399999999999,8.617,-0.1,6.322,-1
287,288,1582724956364,0.527895,0.27869916,0.57462215,8.443999999999999,-0.165,6.346,-1
288,289,1582724956375,0.27189493,0.18604854,0.36411238,8.186,-0.23399999999999999,6.14,-1
289,290,1582724956385,0.13332462,0.089562625,0.22153473,8.049,-0.306,5.997000000000001,-1
290,291,1582724956395,-0.11088133,0.0041192174,0.36141348,7.8,-0.368,6.145,-1
291,292,1582724956405,-0.07455587400000001,0.14640288,0.41084242,7.831,-0.205,6.202999999999999,-1
292,293,1582724956415,0.26920938,0.011188686000000002,0.6199789000000001,8.171,-0.32799999999999996,6.417999999999999,-1
293,294,1582724956426,0.44996357,-0.0067921877000000005,1.0146283999999999,8.346,-0.337,6.821000000000001,-1
294,295,1582724956436,0.45519304,0.008711547,1.1194339,8.341000000000001,-0.316,6.94,d
295,296,1582724956446,0.6022816,0.0583722,1.3283329,8.478,-0.258,7.162999999999999,-1
296,297,1582724956456,0.7511300999999999,0.13695607,1.0340939,8.619,-0.16699999999999998,6.88,-1
297,298,1582724956467,0.9062991,0.15163386,0.5806608,8.77,-0.136,6.433,-1
298,299,1582724956477,1.330986,0.25644863,0.36291979999999996,9.193999999999999,-0.013999999999999999,6.2170000000000005,-1
299,300,1582724956487,1.4392791,0.47559154,0.76364183,9.302,0.225,6.619,-1
300,301,1582724956497,1.1078305,0.78126985,1.4964538,8.969,0.5579999999999999,7.355,-1
301,302,1582724956508,0.8248371999999999,0.7455275,1.4351926000000002,8.686,0.5579999999999999,7.295,-1
302,303,1582724956518,0.7893648,0.7272672,1.1803341,8.652999999999999,0.581,7.037999999999999,-1
303,304,1582724956528,0.60979605,0.6683003000000001,1.2028937,8.472999999999999,0.562,7.062,-1
304,305,1582724956538,1.0614556999999998,0.6399617,1.2575011,8.921,0.565,7.122000000000001,-1
305,306,1582724956549,1.922059,0.94542843,1.6760826000000002,9.774,0.893,7.551,-1
306,307,1582724956559,2.4203224,1.304453,2.1285743999999998,10.26,1.274,8.02,-1
307,308,1582724956569,3.1474972,1.8359368000000003,2.7584062,10.969000000000001,1.851,8.674,-1
308,309,1582724956580,3.5630584,2.1909153,3.121025,11.378,2.251,9.045,-1
309,310,1582724956590,3.7725230000000005,2.5634527,2.9563346,11.587,2.6839999999999997,8.88,-1
310,311,1582724956600,3.7836657,2.889698,2.959711,11.603,3.0839999999999996,8.875,-1
311,312,1582724956610,3.8344544999999997,3.0244014,3.6131406000000004,11.663,3.3,9.513,-1
312,313,1582724956621,4.0292187,3.1264507999999998,4.508673,11.869000000000002,3.487,10.389000000000001,-1
313,314,1582724956631,4.616179,3.4505293,5.4411325,12.463,3.8989999999999996,11.306,-1
314,315,1582724956641,5.4508195,3.6333723,6.307034,13.294,4.1739999999999995,12.169,-1
315,316,1582724956651,5.9998484,3.8257842000000006,6.9533114000000005,13.828,4.468999999999999,12.825,-1
316,317,1582724956661,6.115087,4.027985,7.36827,13.922,4.79,13.254000000000001,-1
317,318,1582724956672,6.3940296,3.8894947,7.745094,14.18,4.79,13.639000000000001,-1
318,319,1582724956682,6.789184599999999,3.7337701,8.129885,14.559000000000001,4.797,14.017999999999999,-1
319,320,1582724956693,6.9712806,3.595879,8.119972,14.731,4.849,13.984000000000002,-1
320,321,1582724956703,7.1292786999999995,3.3016080000000003,7.7185698,14.882,4.773,13.540999999999999,-1
321,322,1582724956713,7.278969999999999,3.0408785,6.801871,15.020999999999999,4.758,12.571,-1
322,323,1582724956723,6.764773399999999,2.665422,5.4720845,14.485,4.651,11.184000000000001,-1
323,324,1582724956734,5.887275700000001,2.1847324,4.420363,13.572000000000001,4.452,10.075,-1
324,325,1582724956744,4.9082284000000005,1.7143936000000002,4.425293,12.545,4.2669999999999995,10.023,-1
325,326,1582724956754,4.1742023999999995,1.1089031999999999,5.1841345,11.754000000000001,3.946,10.722000000000001,-1
326,327,1582724956764,3.6926732,0.607116,6.1710033,11.210999999999999,3.7289999999999996,11.639000000000001,-1
327,328,1582724956774,3.2006001,-0.050158978,6.9243703,10.657,3.362,12.302999999999999,-1
328,329,1582724956785,2.7381449,-0.55765605,6.7349606,10.133,3.154,11.999,-1
329,330,1582724956795,2.5280476000000003,-0.7733395000000001,5.68755,9.86,3.247,10.811,-1
330,331,1582724956805,2.2592092,-0.996001,4.192826999999999,9.606,3.458,8.384,-1
331,332,1582724956816,2.4947882000000003,-1.2296468999999999,2.7953172000000004,9.687000000000001,3.398,7.593999999999999,-1
332,333,1582724956826,2.440627,-1.7647803,1.8688244999999999,9.513,3.278,6.421,-1
333,334,1582724956836,1.6110506000000002,-2.0548344,1.9056438999999998,8.595,3.238,6.308,-1
334,335,1582724956846,0.23262787,-2.188677,2.603242,7.1129999999999995,3.326,6.895,-1
335,336,1582724956857,-0.94886255,-2.4990072,3.7126265,5.803,3.216,7.946000000000001,-1
336,337,1582724956867,-1.3971334,-2.8193855,4.445456500000001,5.221,3.0989999999999998,8.61,-1
337,338,1582724956877,-1.5584316,-3.0825033,4.1621995,4.921,3.005,8.301,-1
338,339,1582724956887,-1.643476,-3.2816706,2.983625,4.715,2.9810000000000003,7.047999999999999,-1
339,340,1582724956897,-1.7721991999999998,-3.2572951,2.2030087000000003,4.533,3.12,6.171,-1
340,341,1582724956908,-1.6918931000000001,-3.1147306,0.5627272,4.452,3.597,4.22,-1
341,342,1582724956918,-1.6081595,-3.1507986,0.06612539,4.425,3.767,3.5180000000000002,-1
342,343,1582724956928,-1.1784525,-3.2068436,-0.63096595,4.742,3.903,2.62,-1
343,344,1582724956938,-0.9554615,-3.6254663000000003,-0.9945146999999999,4.849,3.6639999999999997,2.062,-1
344,345,1582724956949,-1.731106,-4.143751,-0.9012786,3.951,3.3169999999999997,1.966,-1
345,346,1582724956959,-2.4662132000000003,-4.502174,-0.9484627,3.091,3.12,1.733,-1
346,347,1582724956969,-3.0132863999999997,-4.675086,-1.3736897,2.423,3.094,1.128,-1
347,348,1582724956979,-3.4055521,-4.7559059999999995,-1.4302290000000002,1.9180000000000001,3.142,0.905,-1
348,349,1582724956990,-3.5227177000000003,-5.179557,-1.3686421,1.7,2.8280000000000003,0.816,-1
349,350,1582724956999,-3.6812031000000003,-5.5076733,-1.5049707,1.334,2.519,0.526,-1
350,351,1582724957009,-3.4521337,-5.3885164,-1.5995085,1.611,2.787,0.32299999999999995,-1
351,352,1582724957019,-1.5926049,-5.572234,-1.4739538,3.412,2.665,0.335,-1
352,353,1582724957029,-0.8691087,-5.9041357,-1.2148507,4.0760000000000005,2.39,0.495,-1
353,354,1582724957040,-1.1502073,-6.1957955,-0.6788211,3.7260000000000004,2.157,0.941,-1
354,355,1582724957050,-1.4902208000000001,-6.400221,-0.27110922,3.3139999999999996,2.011,1.2590000000000001,-1
355,356,1582724957060,-2.2318006,-6.491943,-0.8556969000000001,2.505,1.975,0.574,-1
356,357,1582724957070,-2.4706674,-6.1201587,-1.7672265,2.2119999999999997,2.395,-0.45,-1
357,358,1582724957081,-2.3134930000000002,-5.717533,-2.554647,2.332,2.835,-1.3530000000000002,-1
358,359,1582724957091,-2.1165285,-5.5198855,-2.9162736000000002,2.505,3.06,-1.8219999999999998,-1
359,360,1582724957101,-2.028009,-5.0255327,-3.0335217,2.5789999999999997,3.573,-2.028,-1
360,361,1582724957112,-1.5049698,-4.6654663,-2.7623136,3.096,3.944,-1.825,-1
361,362,1582724957121,-0.3649211,-4.4222584000000005,-2.6377453999999996,4.236000000000001,4.1930000000000005,-1.755,-1
362,363,1582724957131,0.26951408,-4.21213,-2.3394141,4.869,4.409,-1.508,-1
363,364,1582724957142,-0.059084415,-3.9986733999999995,-2.133471,4.5280000000000005,4.6339999999999995,-1.355,-1
364,365,1582724957152,-0.9335431999999999,-4.0421143,-2.1481117999999997,3.63,4.6080000000000005,-1.4269999999999998,-1
365,366,1582724957162,-1.8490236,-3.9244818999999995,-2.360906,2.6889999999999996,4.744,-1.702,-1
366,367,1582724957172,-2.092129,-3.6023002,-2.6244726000000003,2.43,5.079,-2.028,-1
367,368,1582724957183,-1.8640578,-3.3804111000000003,-2.6610992,2.656,5.303999999999999,-2.095,-1
368,369,1582724957192,-1.61992,-3.1843448,-2.821153,2.905,5.501,-2.311,-1
369,370,1582724957202,-1.6536412,-2.6658343999999996,-2.472723,2.883,6.016,-2.009,-1
370,371,1582724957212,-0.42398977,-2.1079950000000003,-1.866509,4.15,6.557,-1.4580000000000002,-1
371,372,1582724957222,-0.043893814,-1.9792452,-1.6428466,4.548,6.6770000000000005,-1.25,-1
372,373,1582724957232,0.3813777,-1.6043863,-1.2585553,5.015,7.031000000000001,-0.898,-1
373,374,1582724957242,0.2839036,-1.1342497,-1.418118,4.976,7.472,-1.123,-1
374,375,1582724957253,0.22574377,-1.0803156,-1.5386713,4.651,7.704,-1.465,-1
375,376,1582724957263,-0.4347782,-0.5875449,-2.1297712000000004,4.306,7.996,-1.995,-1
376,377,1582724957273,-0.6910138000000001,-0.22402573,-2.2427837999999998,4.0489999999999995,8.361,-2.2359999999999998,-1
377,378,1582724957283,-0.6773566999999999,-0.14486122,-2.222384,4.0569999999999995,8.442,-2.371,-1
378,379,1582724957294,-0.09570122,0.08315086,-2.1444678,4.648,8.66,-2.469,-1
379,380,1582724957303,0.4175253,0.51140404,-2.0287460999999998,5.192,9.068999999999999,-2.406,-1
380,381,1582724957313,0.85263205,0.67962456,-1.8223919999999998,5.659,9.218,-2.229,-1
381,382,1582724957323,1.2787566000000001,0.80969715,-1.1896007,6.1160000000000005,9.33,-1.609,-1
382,383,1582724957333,1.5604386000000001,0.8989935,-0.33916846,6.422999999999999,9.405,-0.7559999999999999,-1
383,384,1582724957344,0.7733283000000001,0.95011806,-0.07404876,5.647,9.45,-0.486,-1
384,385,1582724957354,0.043560505,1.0000591,-0.07726899,4.912,9.503,-0.488,-1
385,386,1582724957364,-0.26273346,0.978981,-0.064454526,4.593,9.488999999999999,-0.479,-1
386,387,1582724957374,-0.030893326000000002,1.1442184,-0.12348172,4.825,9.654,-0.541,-1
387,388,1582724957384,0.36565447,1.1741962,-0.40063740000000003,5.237,9.675,-0.821,-1
388,389,1582724957395,0.76444674,1.2726517,-0.43742213,5.6610000000000005,9.759,-0.857,d
389,390,1582724957405,1.1265711999999999,1.2962475,-0.6600355,6.0520000000000005,9.766,-1.077,-1
390,391,1582724957415,1.3464398000000002,1.4672575,-0.6869441999999999,6.297999999999999,9.922,-1.099,-1
391,392,1582724957425,1.1275077,1.5431566,0.0012888908,6.104,9.984,-0.395,-1
392,393,1582724957435,0.8674245,1.4041653,0.22274007,5.848,9.843,-0.165,-1
393,394,1582724957446,0.61999035,1.1093187,0.84004354,5.606,9.546,0.47600000000000003,-1
394,395,1582724957456,0.93665123,0.8946103999999999,1.2443565,5.939,9.323,0.914,-1
395,396,1582724957466,0.9910959999999999,0.85180473,0.7824075,6.006,9.273,0.45899999999999996,-1
396,397,1582724957476,0.92552567,0.8874254,0.23160273,5.9510000000000005,9.302,-0.1,-1
397,398,1582724957486,0.8547449,0.828516,-0.37775135,5.888999999999999,9.237,-0.73,-1
398,399,1582724957496,0.7152386,0.9625044,-0.53634995,5.752000000000001,9.369,-0.9,-1
399,400,1582724957506,0.31496763,0.83918667,-1.0734861,5.355,9.242,-1.475,-1
400,401,1582724957516,0.40059520000000004,0.87252045,-1.0018456,5.443,9.273,-1.422,-1
401,402,1582724957526,0.80156994,0.8356180000000001,-0.72763854,5.853,9.23,-1.161,-1
402,403,1582724957537,1.249373,0.7526826999999999,-0.59905165,6.313,9.139,-1.046,-1
403,404,1582724957547,1.3512363,0.65401745,-0.5184824,6.636,9.204,-0.9790000000000001,-1
404,405,1582724957557,2.1450992,0.87897015,-0.95843583,7.225,9.251,-1.482,-1
405,406,1582724957567,2.6849960999999998,1.0839405,-2.094634,7.7620000000000005,9.453,-2.6889999999999996,-1
406,407,1582724957578,2.7023554,1.2799473,-3.7247263999999998,7.767,9.651,-4.3919999999999995,-1
407,408,1582724957588,2.7634357999999994,1.3495854999999999,-4.9271894,7.812,9.726,-5.647,-1
408,409,1582724957598,2.7604976000000003,1.0824432,-5.2167129999999995,7.795,9.465,-5.962999999999999,-1
409,410,1582724957608,3.0985656,0.7203436,-4.713238,8.123,9.107999999999999,-5.47,-1
410,411,1582724957618,3.6502419,0.57269096,-4.02489,8.667,8.964,-4.792,-1
411,412,1582724957629,4.0407243,0.7459955,-3.526649,9.048,9.141,-4.315,-1
412,413,1582724957639,4.637187,0.7800884,-4.051125,9.63,9.18,-4.878,-1
413,414,1582724957649,5.5791593,0.78712654,-5.5006385,10.55,9.193999999999999,-6.3870000000000005,-1
414,415,1582724957659,6.267499,0.9152870000000001,-7.2529984,11.203,9.335,-8.212,-1
415,416,1582724957670,6.936136200000001,0.6535187,-8.546063,11.819,9.096,-9.572000000000001,-1
416,417,1582724957679,6.5724089999999995,0.32115078,-8.849439,11.385,8.799,-9.915,-1
417,418,1582724957689,5.682715,-0.37762070000000003,-7.6418996,10.415,8.145,-8.71,-1
418,419,1582724957699,5.06168,-1.1714306,-6.070396400000001,9.714,7.398,-7.115,-1
419,420,1582724957709,4.6923733,-1.8854183999999998,-4.312797,9.275,6.725,-5.327999999999999,-1
420,421,1582724957719,4.5658636,-2.2335653,-3.1350117,9.097999999999999,6.406000000000001,-4.129,-1
421,422,1582724957730,4.4836472999999994,-2.5064797000000003,-2.7783012,8.679,6.018,-3.525,-1
422,423,1582724957740,3.7150483,-2.706305,-2.474368,8.212,5.949,-3.491,-1
423,424,1582724957750,3.7174397000000003,-2.899517,-2.9368877,8.202,5.757000000000001,-3.997,-1
424,425,1582724957760,3.5106330000000003,-3.5392308,-2.761619,8.017999999999999,5.096,-3.8960000000000004,-1
425,426,1582724957771,2.7926578999999996,-4.077548,-1.9296578999999998,7.398,4.49,-3.178,-1
426,427,1582724957781,1.8387008000000002,-4.718152,-0.6946236,6.343999999999999,3.906,-1.9180000000000001,-1
427,428,1582724957791,0.16120720000000002,-5.556667299999999,0.5032286,4.5360000000000005,3.142,-0.665,-1
428,429,1582724957802,-1.4425092,-6.1877580000000005,2.2896252,2.804,2.5839999999999996,1.197,-1
429,430,1582724957812,-2.3180408,-6.6242065000000006,3.9898891000000005,1.82,2.21,2.988,-1
430,431,1582724957822,-1.7689476000000002,-6.755987599999999,5.069748400000001,2.256,2.145,4.208,-1
431,432,1582724957832,-1.3876419,-6.784611999999999,5.4307620000000005,2.61,2.133,4.615,-1
432,433,1582724957842,-0.94991684,-6.775370599999999,5.744271299999999,2.938,2.234,5.077,-1
433,434,1582724957853,-1.1676292,-6.8896246,5.7901654,2.725,2.088,5.142,-1
434,435,1582724957863,-2.3545055,-7.245072400000001,6.2990785,0.359,1.662,5.9270000000000005,-1
435,436,1582724957873,-5.7310886,-7.7651687,7.291061999999999,-2.026,1.305,6.872999999999999,-1
436,437,1582724957883,-6.685938,-8.180828,7.970061,-3.0269999999999997,0.912,7.649,-1
437,438,1582724957893,-7.7940435,-9.076613,9.394817999999999,-4.282,0.079,9.498,-1
438,439,1582724957904,-8.753199,-9.5476055,12.992763499999999,-5.273,-0.392,13.475999999999999,-1
439,440,1582724957914,-8.327992,-9.726974,14.659320000000001,-4.806,-0.601,15.354000000000001,-1
440,441,1582724957924,-8.31684,-9.052091,15.719474,-4.725,0.031,16.595,-1
441,442,1582724957934,-8.917082,-8.255797,16.262203,-5.24,0.778,17.282,-1
442,443,1582724957944,-9.42512,-7.948231,16.637707000000002,-5.702000000000001,1.06,17.715,-1
443,444,1582724957955,-10.740488000000001,-7.989729400000001,17.706204999999997,-6.861000000000001,0.938,18.896,-1
444,445,1582724957965,-10.837404,-8.228805,17.277287,-6.827999999999999,0.637,18.499000000000002,-1
445,446,1582724957975,-9.694506,-8.251789,16.229282,-5.527,0.5379999999999999,17.471,-1
446,447,1582724957985,-8.231447,-8.043453999999999,15.096074,-3.8789999999999996,0.6509999999999999,16.374000000000002,-1
447,448,1582724957995,-6.755975,-7.539083,14.642991,-2.198,1.0390000000000001,15.989,-1
448,449,1582724958005,-5.6552725,-6.620636500000001,14.959270000000002,-0.878,1.8219999999999998,16.398,-1
449,450,1582724958016,-4.6521930000000005,-5.7522206,15.485714999999999,0.35200000000000004,2.541,17.019000000000002,-1
450,451,1582724958026,-3.0329552000000004,-5.299361,15.884481,2.2030000000000003,2.835,17.493,-1
451,452,1582724958036,-1.3804193,-4.808056,15.371013,4.088,3.1630000000000003,17.023,-1
452,453,1582724958046,-0.22211456,-4.620489,13.679381,5.475,3.185,15.349,-1
453,454,1582724958057,0.8514466,-4.510483,11.349552000000001,6.775,3.12,13.04,-1
454,455,1582724958067,2.1438012000000004,-3.9742447999999997,9.489983,8.293,3.463,11.235,-1
455,456,1582724958077,3.6277866000000003,-3.5453765,8.941253999999999,9.996,3.681,10.784,-1
456,457,1582724958087,5.090051,-2.691031,9.65955,11.663,4.313,11.637,-1
457,458,1582724958097,6.0940223,-1.9889374,10.233983,12.856,4.787,12.363,-1
458,459,1582724958108,7.2411184,-1.2544007,10.659445,14.177999999999999,5.295,12.93,-1
459,460,1582724958118,8.333111,-0.7684674,9.381882000000001,15.433,5.563,11.764000000000001,-1
460,461,1582724958128,9.38208,-0.82456064,7.327457000000001,16.631,5.3020000000000005,9.795,-1
461,462,1582724958138,10.165708,-1.1924318999999999,5.0427,17.545,4.742,7.5920000000000005,-1
462,463,1582724958149,10.390338,-0.7884412,3.5181292999999996,17.878,4.962,6.171,-1
463,464,1582724958159,11.849745,0.34008932,2.5711633999999997,19.428,5.901,5.367000000000001,-1
464,465,1582724958169,14.55732,1.6847433999999997,1.9343574000000001,22.211,7.046,4.909,-1
465,466,1582724958179,16.78165,2.973209,1.1874502,24.489,8.14,4.361000000000001,-1
466,467,1582724958189,17.272823000000002,3.4857873999999995,0.14110208,25.006,8.487,3.511,-1
467,468,1582724958199,16.087254,3.2697835,-1.3342485,23.823,8.15,2.2030000000000003,-1
468,469,1582724958209,14.007913,2.6330547,-2.682759,21.732,7.434,0.986,-1
469,470,1582724958219,12.279945,2.120788,-3.6413712999999994,19.984,6.871,0.134,-1
470,471,1582724958229,11.420553,2.5799993999999997,-4.24258,19.1,7.29,-0.368,-1
471,472,1582724958239,12.793037,3.303485,-5.8443685,20.448,7.97,-1.87,-1
472,473,1582724958250,14.671387,3.8590998999999995,-7.823331,22.3,8.485,-3.752,-1
473,474,1582724958260,14.815132,3.7917762,-9.383278,22.41,8.394,-5.223,-1
474,475,1582724958270,13.78301,3.1245580000000004,-10.470325,21.339000000000002,7.726,-6.239,-1
475,476,1582724958280,12.508282000000001,2.6228008,-11.395111,20.027,7.242000000000001,-7.117000000000001,-1
476,477,1582724958290,11.6694145,1.7650862,-12.211554,19.157,6.412999999999999,-7.91,-1
477,478,1582724958300,11.120459,1.4406352,-12.786414,18.585,6.121,-8.48,-1
478,479,1582724958311,10.656563,1.318686,-13.420520999999999,18.105999999999998,6.0329999999999995,-9.125,-1
479,480,1582724958321,10.529898,1.2279425,-13.5281105,17.972,5.975,-9.256,-1
480,481,1582724958331,10.100814999999999,1.0248089,-13.410629,17.541,5.803,-9.17,-1
481,482,1582724958341,9.356527,0.78571844,-13.159742000000001,16.796,5.593999999999999,-8.952,-1
482,483,1582724958352,8.779916,0.2731409,-13.000551,15.919,4.8180000000000005,-8.727,-1
483,484,1582724958362,8.235329,-0.31512976,-12.84252,15.675,4.55,-8.701,-1
484,485,1582724958372,7.758476700000001,-1.6145036,-12.466387,15.203,3.293,-8.384,-1
485,486,1582724958382,6.700686999999999,-2.5609683999999997,-12.037714999999999,14.154000000000002,2.375,-8.006,-1
486,487,1582724958392,6.4224095000000005,-3.0171561000000002,-11.58198,13.883,1.932,-7.58,-1
487,488,1582724958402,4.8165793,-4.08562,-9.140711,12.322000000000001,0.8859999999999999,-5.252000000000001,-1
488,489,1582724958413,3.0409403,-4.5327915999999995,-6.984615299999999,10.642999999999999,0.40399999999999997,-3.242,-1
489,490,1582724958423,1.4844499,-4.478703,-5.0401664,9.354,0.275,-1.6280000000000001,-1
490,491,1582724958433,1.2120361000000002,-4.369088,-4.1791224,9.23,0.265,-0.953,-1
491,492,1582724958444,1.8107605,-4.052205000000001,-3.9436872000000003,10.109,0.306,-1.06,-1
492,493,1582724958454,2.372593,-3.5393402999999997,-4.06275,10.782,0.713,-1.348,-1
493,494,1582724958464,3.5679769999999995,-3.1913602,-3.7394184999999998,12.039000000000001,1.003,-1.128,-1
494,495,1582724958474,4.2936983,-3.0373978999999998,-2.6984625,12.806,1.1179999999999999,-0.16,-1
495,496,1582724958484,3.2574234,-3.1735544,-0.6423738,11.807,0.948,1.825,-1
496,497,1582724958495,1.9259529,-3.1285634,1.1673527,10.515999999999998,0.948,3.568,-1
497,498,1582724958505,0.97302437,-2.9796486,2.7665610000000003,9.601,1.044,5.12,-1
498,499,1582724958515,0.63512516,-2.9064918,3.1509177999999998,9.302,1.06,5.457999999999999,-1
499,500,1582724958525,0.6142826,-2.727115,3.1803946,9.323,1.178,5.434,-1
500,501,1582724958535,1.5360451000000002,-2.5224743,3.4122505,10.286,1.3359999999999999,5.585,-1
501,502,1582724958546,2.1105042000000003,-2.3589344,4.487297,10.897,1.46,6.581,-1
502,503,1582724958556,2.5064392000000004,-2.1186595,6.4784565,11.323,1.666,8.507,-1
503,504,1582724958566,2.7078990000000003,-2.0589492,8.777852000000001,11.548,1.7,10.751,-1
504,505,1582724958576,2.2554540000000003,-2.2612443,11.882976,11.112,1.4869999999999999,13.802,-1
505,506,1582724958586,1.487956,-2.321462,14.267407999999998,10.356,1.4340000000000002,16.118,-1
506,507,1582724958596,0.6348486,-2.3165126,15.482385999999998,9.51,1.463,17.248,-1
507,508,1582724958606,-0.13212204,-2.2026248,15.497003,8.746,1.611,17.172,-1
508,509,1582724958616,-0.7784014,-1.9793718999999996,14.898852,8.099,1.87,16.494,-1
509,510,1582724958627,-1.2674742,-1.4481983,13.441126,7.606,2.4330000000000003,14.98,-1
510,511,1582724958637,-1.3351855,-0.8959011999999998,12.100772000000001,7.532,3.012,13.607999999999999,-1
511,512,1582724958647,-1.1859813,-0.38688612,11.4852495,7.672999999999999,3.5469999999999997,12.972999999999999,-1
512,513,1582724958657,-1.4138155000000001,0.021564245,11.057668,7.434,3.987,12.527999999999999,-1
513,514,1582724958668,-2.0836682,0.01909542,10.799908,6.749,4.023,12.257,-1
514,515,1582724958678,-2.3743672,0.21669531,10.6122265,6.44,4.263,12.062999999999999,-1
515,516,1582724958688,-2.4322642999999995,0.28102493,9.734831,6.361000000000001,4.37,11.194,-1
516,517,1582724958698,-2.3560543,0.2830267,9.027685,6.412999999999999,4.414,10.514000000000001,-1
517,518,1582724958709,-2.1250709999999997,0.20361567,8.251299000000001,6.617000000000001,4.375,9.783,-1
518,519,1582724958719,-2.063198,0.14681005,7.6277266,6.648,4.3580000000000005,9.225,-1
519,520,1582724958729,-2.101005,0.09268284,7.106472999999999,6.574,4.343999999999999,8.792,-1
520,521,1582724958739,-2.1288113999999996,0.062461376,6.4054345999999995,6.504,4.354,8.202,-1
521,522,1582724958750,-2.0417461,0.35727215,5.4340577,6.513999999999999,4.715,7.428999999999999,-1
522,523,1582724958760,-1.7188086999999999,0.22911453,4.7404684999999995,6.782,4.629,6.872999999999999,-1
523,524,1582724958770,-1.7436352,-0.03589058,4.5386915,6.6979999999999995,4.399,6.827999999999999,-1
524,525,1582724958780,-1.9599756999999998,-0.07742548,4.402450599999999,6.444,4.375,6.794,-1
525,526,1582724958791,-2.020658,-0.37122774,4.1958876,6.296,4.107,6.832000000000001,-1
526,527,1582724958800,-1.711196,-0.5182729,3.7268991000000002,6.524,3.966,6.598,-1
527,528,1582724958810,-1.1840429,-0.47487402,3.4767911,6.997999999999999,4.002,6.507000000000001,-1
528,529,1582724958820,-0.56287813,-0.2239933,2.3066828,7.565,4.246,5.489,-1
529,530,1582724958830,-0.50200653,-0.13208437,1.9129236,7.608,4.3389999999999995,5.138999999999999,-1
530,531,1582724958840,-0.51811075,0.18234348,1.2793406999999999,7.551,4.67,4.584,-1
531,532,1582724958851,-0.25177956,0.2617402,0.6618223000000001,7.767,4.7780000000000005,4.0489999999999995,-1
532,533,1582724958861,-0.08083439,0.17983437,0.71687555,7.9270000000000005,4.699,4.126,-1
533,534,1582724958871,0.008904934,-0.14999056,0.9598235999999999,7.999,4.361000000000001,4.421,-1
534,535,1582724958881,-0.086865425,-0.42622852,1.3360983999999998,7.879,4.0569999999999995,4.888,-1
535,536,1582724958891,-0.1373787,-0.45985222,1.2100763,7.822,4.011,4.792,-1
536,537,1582724958901,0.26593733,-0.25436306,0.97520065,8.222000000000001,4.191,4.596,-1
537,538,1582724958911,0.39838648,-0.08285427,0.81407285,8.356,4.3580000000000005,4.437,d
538,539,1582724958921,0.5114145,0.35382986,0.036378384,8.475,4.794,3.647,-1
539,540,1582724958931,0.5374111999999999,0.54200554,-0.00016117096000000002,8.502,4.984,3.6060000000000003,-1
540,541,1582724958942,0.57688046,0.26844025,-0.33165479999999997,8.545,4.711,3.266,-1
541,542,1582724958952,0.5374174,-0.32579136,-0.348763,8.519,4.09,3.252,-1
542,543,1582724958962,0.45564938,-0.23969173,-0.11500001,8.447000000000001,4.15,3.4960000000000004,-1
543,544,1582724958972,0.41190004,0.09545326,-0.20747209,8.411,4.4639999999999995,3.412,-1
544,545,1582724958983,0.79263306,0.40866804,-0.026551485,8.796,4.756,3.609,-1
545,546,1582724958992,1.0186576999999999,0.6158347,0.2740848,9.022,4.952,3.923,-1
546,547,1582724959002,1.5179825,0.15252495,1.4115639,9.517000000000001,4.452,5.113,-1
547,548,1582724959013,1.406508,-0.12109041,1.6827995999999998,9.402000000000001,4.167,5.405,-1
548,549,1582724959023,0.2507205,-0.2353611,1.9597528000000002,8.224,4.03,5.755,-1
549,550,1582724959033,-0.24288034,0.029666424,1.6335051,7.716,4.294,5.46,-1
550,551,1582724959043,-0.9629921999999999,0.6809621,0.7566228,6.938,4.974,4.67,-1
551,552,1582724959054,0.32179213,1.7648491999999998,0.35080004,8.158999999999999,6.09,4.356,-1
552,553,1582724959064,2.4749584,1.4753208,0.32821178,10.293,5.771,4.402,-1
553,554,1582724959074,3.6874294,1.1765957,0.7964277,11.479000000000001,5.439,4.955,-1
554,555,1582724959085,4.3264575,0.73676825,0.9508743000000001,12.104000000000001,4.986000000000001,5.149,-1
555,556,1582724959095,5.0801044,0.42524052,1.3442664,12.832,4.66,5.604,-1
556,557,1582724959105,2.268609,1.3902316000000001,2.9906626,9.977,5.645,7.309,-1
557,558,1582724959115,0.35148478,1.5252366000000002,4.206487999999999,8.02,5.812,8.564,-1
558,559,1582724959126,-1.1622620000000001,1.704977,5.605992,6.478,6.0089999999999995,9.996,-1
559,560,1582724959136,-1.6531605999999999,2.1855526000000003,6.755643400000001,5.922000000000001,6.528,11.22,-1
560,561,1582724959146,-1.2958813,2.2888498,6.93648,6.26,6.641,11.424000000000001,-1
561,562,1582724959156,0.63965464,2.8062953999999998,6.813694,8.157,7.187,11.338,-1
562,563,1582724959167,2.1161522999999995,3.2803755,5.808387000000001,9.62,7.69,10.327,-1
563,564,1582724959177,2.787705,3.66685,5.1922927,10.952,8.6,9.204,-1
564,565,1582724959187,4.45129,4.465924,4.3211107,11.927,8.964,8.799,-1
565,566,1582724959198,4.893477,4.5116663,4.81308,12.341,9.068999999999999,9.277999999999999,-1
566,567,1582724959208,4.376325,4.5369053,5.935601,11.780999999999999,9.165,10.399000000000001,-1
567,568,1582724959218,2.4336127999999997,4.97,8.096478999999999,9.75,9.726,12.571,-1
568,569,1582724959228,2.4435177,4.9356349999999996,8.6026945,9.726,9.738,13.083,-1
569,570,1582724959239,3.2612857999999996,4.826246,9.376068,10.432,9.777999999999999,13.874,-1
570,571,1582724959249,4.357035,4.573918,9.072731,11.445,9.644,13.57,-1
571,572,1582724959259,4.967211,4.311555,8.610922,12.011,9.45,13.1,-1
572,573,1582724959269,5.607734,3.4213524,6.3288345,12.504000000000001,8.806000000000001,10.758,-1
573,574,1582724959280,4.4731974999999995,2.730369,5.382466,11.255999999999998,8.31,9.745,-1
574,575,1582724959290,3.2374867999999997,2.6528883,5.027129,9.898,8.44,9.307,-1
575,576,1582724959300,2.6804137000000003,2.4422145,4.995722,9.277999999999999,8.334,9.23,-1
576,577,1582724959311,2.0581217,2.2139783,4.899212,8.527999999999999,8.312999999999999,9.036,-1
577,578,1582724959321,3.0775595,1.8562226000000002,4.246654,9.359,8.248,8.229,-1
578,579,1582724959331,4.0721717,1.5431622999999999,4.1712394,10.231,8.116,8.049,-1
579,580,1582724959341,4.5231953,1.1992998,4.2010937,10.620999999999999,7.86,8.025,-1
580,581,1582724959352,4.454728599999999,0.49481916,3.8290032999999997,10.365,7.417000000000001,7.479,-1
581,582,1582724959362,3.6173572999999997,0.05137348,4.041834,9.395,7.151,7.561,-1
582,583,1582724959372,2.5663042000000003,-0.38149214,4.100751399999999,8.205,6.897,7.477,-1
583,584,1582724959383,1.9084401000000002,-0.48386097,3.5046932999999996,7.405,6.971,6.727,-1
584,585,1582724959393,2.4087605,-0.8493514000000001,1.5780072,7.776,6.768,4.6339999999999995,-1
585,586,1582724959403,3.029849,-1.0740662,-0.49195479999999997,8.296,6.686,2.375,-1
586,587,1582724959413,2.9302864,-1.3882632,-1.6169984,8.123,6.492000000000001,1.0490000000000002,-1
587,588,1582724959424,2.4176998,-1.7906208,-1.4242636999999998,7.381,5.973,1.551,-1
588,589,1582724959434,1.8184871999999999,-2.50732,0.45219064,6.933,5.544,2.73,-1
589,590,1582724959444,1.6102152,-2.888667,0.32347894,6.603,5.263999999999999,2.509,-1
590,591,1582724959454,1.6683369,-3.362256,-0.020484447,6.593,4.8469999999999995,2.1069999999999998,-1
591,592,1582724959464,0.7801485,-4.419023999999999,-1.0482407,5.475,3.9730000000000003,0.8759999999999999,-1
592,593,1582724959475,0.25088453,-5.378211,-1.9349005000000001,4.79,3.1319999999999997,-0.162,-1
593,594,1582724959485,-0.14852667,-6.032088,-3.0816142999999996,4.243,2.5860000000000003,-1.465,-1
594,595,1582724959495,-0.86646605,-6.1005910000000005,-3.3999165999999996,3.388,2.612,-1.93,-1
595,596,1582724959505,-0.77353215,-6.098358,-3.474935,3.417,2.656,-2.0709999999999997,-1
596,597,1582724959516,-0.92596054,-6.619366599999999,-2.7352571,3.091,2.241,-1.499,-1
597,598,1582724959526,-0.9144082,-6.6627965,-1.8664421000000002,3.0,2.256,-0.725,-1
598,599,1582724959536,-0.48472259999999995,-6.8322330000000004,-1.5670358999999998,3.338,2.138,-0.522,-1
599,600,1582724959547,-0.55744934,-6.8489960000000005,-1.6207862,3.18,2.169,-0.684,-1
600,601,1582724959556,-0.6931629,-6.74891,-1.7469063000000002,3.003,2.292,-0.8690000000000001,-1
601,602,1582724959566,-1.3169658000000002,-6.6196823,-3.720621,2.265,2.483,-3.0269999999999997,-1
602,603,1582724959576,-1.8739004000000001,-6.705955499999999,-4.498793599999999,1.642,2.43,-3.9130000000000003,-1
603,604,1582724959587,-2.084446,-6.524767,-4.8972739999999995,1.379,2.636,-4.3919999999999995,-1
604,605,1582724959597,-1.7667465,-6.657333400000001,-4.4471807,1.662,2.519,-3.99,-1
605,606,1582724959607,-1.3617692,-6.397760400000001,-3.408879,2.0469999999999997,2.787,-2.972,-1
606,607,1582724959617,-0.77137995,-6.053363,-2.3533766,2.6289999999999996,3.135,-1.9269999999999998,-1
607,608,1582724959627,-0.38536572,-5.3274927000000005,-1.6349332,3.012,3.863,-1.2309999999999999,-1
608,609,1582724959637,-0.3782208,-4.7211576,-1.3170955,3.015,4.473,-0.965,-1
609,610,1582724959647,-0.5263548000000001,-4.2367873,-1.6872581000000002,2.8569999999999998,4.9639999999999995,-1.425,-1
610,611,1582724959657,-1.0323312,-4.192278,-2.8278658,2.335,5.0169999999999995,-2.6839999999999997,-1
611,612,1582724959667,-1.6826457,-3.8010892999999997,-3.6163104,1.669,5.415,-3.592,-1
612,613,1582724959678,-1.4960545,-3.6707587,-4.1521635,1.8530000000000002,5.546,-4.227,-1
613,614,1582724959688,-0.61519027,-3.1107311,-4.1269193,2.7560000000000002,6.097,-4.279,-1
614,615,1582724959698,0.73325825,-2.1096406,-3.7349055,4.169,7.072,-3.987,-1
615,616,1582724959708,1.2231288,-1.2012843999999998,-2.8683596000000002,4.821000000000001,7.9079999999999995,-3.365,-1
616,617,1582724959718,0.99649405,-0.8227377,-1.9131961,4.737,8.217,-2.593,-1
617,618,1582724959729,0.24787712,-0.7874154999999999,-0.38211757,4.038,8.229,-1.0959999999999999,-1
618,619,1582724959739,-0.36302805,-0.6483946,0.27175635,3.4389999999999996,8.361,-0.467,-1
619,620,1582724959749,0.23202205,-0.40966320000000006,-0.41093147,4.052,8.586,-1.2209999999999999,-1
620,621,1582724959759,0.8624277,0.12551403,-1.9587917000000001,4.708,9.097999999999999,-2.895,-1
621,622,1582724959770,1.0617082,0.5368556999999999,-3.3505979,4.921,9.493,-4.382,-1
622,623,1582724959780,0.8229970999999999,0.9877815000000001,-3.9594398,4.691,9.934,-5.043,-1
623,624,1582724959790,0.08735156,1.0359392,-2.9050922000000003,3.958,9.98,-3.997,-1
624,625,1582724959800,-0.6051922,0.7560749,-0.79843366,3.252,9.709,-1.865,-1
625,626,1582724959810,-0.9753646999999999,0.671937,0.64976764,2.845,9.649,-0.344,-1
626,627,1582724959820,-0.75986433,0.75213337,1.3063228,3.032,9.75,0.395,-1
627,628,1582724959830,-0.08234024,0.9257908000000001,0.7355606,3.707,9.927,-0.153,-1
628,629,1582724959840,0.7244543999999999,1.1914415,-0.6225845,4.521,10.186,-1.547,-1
629,630,1582724959850,0.941983,1.471549,-2.0122310000000003,4.737,10.460999999999999,-2.991,-1
630,631,1582724959860,0.49164079999999993,1.4247952,-2.1997285,4.275,10.415,-3.216,-1
631,632,1582724959870,-0.390208,1.2542276,-1.4260266000000001,3.372,10.253,-2.445,-1
632,633,1582724959880,-1.1061758999999998,1.1001139,0.21008629,2.622,10.118,-0.764,-1
633,634,1582724959890,-1.4801209,0.78523064,1.4809918,2.193,9.836,0.608,-1
634,635,1582724959900,-1.4992478,0.9698495999999999,2.1952437999999996,2.133,10.047,1.432,-1
635,636,1582724959910,-0.84601545,0.9702215000000001,1.8988112000000001,2.778,10.056000000000001,1.202,-1
636,637,1582724959920,0.04622221,1.1379928999999998,0.8059225999999999,3.685,10.219,0.124,-1
637,638,1582724959931,0.6989064,1.2522278,-0.08703619,4.3580000000000005,10.324000000000002,-0.7829999999999999,-1
638,639,1582724959941,1.0515417999999999,1.1625223,-0.52549416,4.727,10.226,-1.2429999999999999,d
639,640,1582724959951,0.62808704,1.1245651,-0.2674052,4.306,10.186,-0.998,-1
640,641,1582724959962,-0.03639412,0.9416189,0.33709753,3.63,10.008,-0.39,-1
641,642,1582724959972,-0.71901584,0.83585644,0.5551746999999999,2.9189999999999996,9.915,-0.155,-1
642,643,1582724959982,-1.0401917,0.55009365,0.6106691999999999,2.548,9.651,-0.07400000000000001,-1
643,644,1582724959992,-0.8742571,0.4957857,0.3064973,2.675,9.613,-0.364,-1
644,645,1582724960002,0.24856067,0.79391384,0.08195877,3.805,9.908,-0.593,-1
645,646,1582724960012,1.226121,0.838706,-0.49101537,4.809,9.941,-1.185,-1
646,647,1582724960023,2.0815031999999998,1.0721129999999999,-1.1299298,5.685,10.164,-1.8530000000000002,-1
647,648,1582724960033,2.1287203,1.1243086000000002,-1.640824,5.736000000000001,10.212,-2.397,-1
648,649,1582724960043,1.3471141000000002,0.98853207,-1.4148892,4.938,10.08,-2.2030000000000003,-1
649,650,1582724960053,0.32819033,0.81920433,-0.8840771999999999,3.884,9.922,-1.7,-1
650,651,1582724960063,-0.5965357,0.49102783,-1.2252383999999998,2.905,9.611,-2.083,-1
651,652,1582724960074,-0.6620054,0.62036514,-1.9065201,2.79,9.754,-2.818,-1
652,653,1582724960084,0.91096425,0.7787733,-3.3116797999999994,4.343999999999999,9.912,-4.296,-1
653,654,1582724960094,1.560777,0.7744694000000001,-3.2754605,4.996,9.905,-4.277,-1
654,655,1582724960105,2.7060732999999995,0.9364376,-3.4465718,6.143,10.062999999999999,-4.478,-1
655,656,1582724960115,2.5045072999999998,0.84533215,-3.1940145,5.915,9.975,-4.284,-1
656,657,1582724960125,1.7901900000000002,0.71829987,-3.4663084000000004,5.1610000000000005,9.855,-4.619,-1
657,658,1582724960135,1.7913404,0.61873627,-4.683338,5.115,9.762,-5.917999999999999,-1
658,659,1582724960146,2.4368515,0.6178007,-6.0664573,5.716,9.766,-7.381,-1
659,660,1582724960156,3.1498625,0.5023718,-7.031423599999999,6.388999999999999,9.656,-8.406,-1
660,661,1582724960166,3.8334036,0.09249306,-7.254676,7.0360000000000005,9.254,-8.662,-1
661,662,1582724960176,3.9780377999999996,-0.14644527,-6.17807,7.144,9.026,-7.597,-1
662,663,1582724960186,3.8088436000000003,-0.46804714,-5.2013674000000005,6.935,8.717,-6.627000000000001,-1
663,664,1582724960196,3.5836334,-0.7330179,-4.528439,6.667000000000001,8.464,-5.97,-1
664,665,1582724960206,3.3496678,-1.0512447,-4.2242293,6.388999999999999,8.155,-5.7,-1
665,666,1582724960216,2.8356838,-1.3769231000000002,-4.6088343,5.827000000000001,7.836,-6.14,-1
666,667,1582724960226,2.4700794,-1.619134,-5.0880995,5.41,7.599,-6.686,-1
667,668,1582724960236,2.9631352000000004,-1.8742061,-5.4392934,5.855,7.35,-7.0889999999999995,-1
668,669,1582724960246,3.4564452000000006,-2.314283,-5.039878,6.31,6.916,-6.722,-1
669,670,1582724960257,3.4853853999999997,-2.8256278,-4.2009419999999995,6.322,6.404,-5.915,-1
670,671,1582724960267,3.1459217,-3.154872,-2.7766043999999996,6.059,6.035,-4.574,-1
671,672,1582724960277,2.5769355,-3.7293781999999998,-1.4803338,5.446000000000001,5.482,-3.238,-1
672,673,1582724960287,1.4953818,-4.32266,-0.24463761,4.279,4.928,-1.932,-1
673,674,1582724960297,0.050225735,-4.836289,1.0493581,2.787,4.435,-0.601,-1
674,675,1582724960307,-1.1704023000000001,-5.3201327,2.7416110000000002,1.425,4.011,1.204,-1
675,676,1582724960318,-1.8936060000000001,-5.599969000000001,4.105087999999999,0.622,3.764,2.636,-1
676,677,1582724960328,-2.2980542,-5.6085139999999996,4.3796550000000005,0.155,3.781,2.969,-1
677,678,1582724960338,-1.9987109,-5.7979136,4.236019000000001,0.41100000000000003,3.611,2.8810000000000002,-1
678,679,1582724960348,-1.7151909,-5.882738,3.5293975,0.6679999999999999,3.542,2.239,-1
679,680,1582724960358,-1.8884465,-6.128669,4.070719,0.479,3.312,2.8710000000000004,-1
680,681,1582724960368,-2.1136165,-6.4580555,5.9523497,0.24600000000000002,3.0,4.881,-1
681,682,1582724960379,-2.6250637,-6.492182700000001,8.660272,-0.273,2.988,7.7860000000000005,-1
682,683,1582724960389,-3.3624252999999995,-6.6562285,11.762792,-1.041,2.862,11.333,-1
683,684,1582724960399,-4.5269575,-6.7755246,14.2651615,-2.2119999999999997,2.7510000000000003,14.027000000000001,-1
684,685,1582724960410,-5.9819584,-6.8877935,14.863935000000001,-3.6660000000000004,2.641,14.77,-1
685,686,1582724960420,-6.823571,-7.216911,14.061469,-4.49,2.3080000000000003,14.092,-1
686,687,1582724960430,-6.836305599999999,-7.3501606,13.212223000000002,-4.457,2.162,13.38,-1
687,688,1582724960440,-5.71584,-6.866375,14.45946,-3.252,2.62,14.789000000000001,-1
688,689,1582724960450,-4.5720134,-6.000881,17.509947,-1.8559999999999999,3.805,19.464000000000002,-1
689,690,1582724960461,-4.402473400000001,-5.208032599999999,20.111464,-1.705,4.198,20.76,-1
690,691,1582724960471,-5.0216617999999995,-4.6691519999999995,22.563189,-2.205,4.694,23.316999999999997,-1
691,692,1582724960481,-5.475069,-4.420408,21.219028,-2.469,4.881,22.005,-1
692,693,1582724960491,-5.036492,-4.2954300000000005,19.724826999999998,-1.959,4.984,20.494,-1
693,694,1582724960501,-3.6738910000000002,-4.071972,16.86176,-0.435,5.156000000000001,17.586,-1
694,695,1582724960511,-1.7375776,-3.2263732000000003,14.510672,1.686,5.937,15.205,-1
695,696,1582724960521,0.41010690000000005,-1.8133211,13.547369,4.038,7.271,14.243,-1
696,697,1582724960531,1.6810101999999998,-0.31342602,13.925632,5.522,8.681000000000001,14.645,-1
697,698,1582724960541,2.6232127999999997,0.5667982,14.299783999999999,6.6739999999999995,9.467,15.04,-1
698,699,1582724960551,3.6489987,0.6064215000000001,12.886095,7.903,9.412,13.618,-1
699,700,1582724960562,4.8770776,0.6500521,10.853589,9.326,9.362,11.546,-1
700,701,1582724960572,6.1571984,1.9556379000000002,7.1720866999999995,10.878,10.53,7.776,-1
701,702,1582724960582,7.710853999999999,2.9516287,4.827743,12.607000000000001,11.431,5.374,-1
702,703,1582724960592,8.982973,3.7842035000000003,2.7407543999999997,14.049000000000001,12.165999999999999,3.242,-1
703,704,1582724960603,9.280219,4.079609,1.8995866000000001,14.427,12.413,2.385,-1
704,705,1582724960613,9.59102,4.3291807,0.22729981,14.956,12.525,0.6920000000000001,-1
705,706,1582724960623,9.484074,3.8603315,-0.6439635,14.970999999999998,11.975,-0.179,-1
706,707,1582724960633,9.125707,3.6470947,-0.96850777,14.717,11.69,-0.5,-1
707,708,1582724960644,9.343276,4.1677523,-1.6567304,15.027999999999999,12.145,-1.19,-1
708,709,1582724960654,10.555982,4.5424733,-4.386351,16.331,12.456,-3.944,-1
709,710,1582724960664,11.616067999999999,5.242891,-7.5872706999999995,17.474,13.097999999999999,-7.197,-1
710,711,1582724960674,12.103966,5.4587483,-11.031938,18.027,13.267999999999999,-10.71,-1
711,712,1582724960684,11.511631,5.06596,-13.983116,17.476,12.845999999999998,-13.722999999999999,-1
712,713,1582724960695,10.097694,4.5477643,-15.202010000000001,16.08,12.315,-14.972999999999999,-1
713,714,1582724960705,8.861873,4.1613164,-14.895961999999999,14.845999999999998,11.927,-14.662,-1
714,715,1582724960715,8.417189,3.8490279999999997,-14.140367499999998,14.395999999999999,11.618,-13.880999999999998,-1
715,716,1582724960725,8.843685,3.5200763,-13.636725,14.815,11.294,-13.354000000000001,-1
716,717,1582724960735,8.902113,3.5311160000000004,-13.788345999999999,14.868,11.309000000000001,-13.5,-1
717,718,1582724960745,9.270916,3.1702957,-14.832592000000002,15.205,10.972999999999999,-14.559000000000001,-1
718,719,1582724960755,8.743063000000001,2.6175493999999997,-15.650104,14.638,10.450999999999999,-15.411,-1
719,720,1582724960766,7.8072724000000004,1.9372258000000002,-16.037032999999997,13.645999999999999,9.814,-15.847000000000001,-1
720,721,1582724960776,6.731225,1.0890837,-16.466068,12.499,9.019,-16.326,-1
721,722,1582724960786,5.3842225,0.26999235,-15.989446,11.072000000000001,8.258,-15.883,-1
722,723,1582724960797,4.1093335,-0.4922719,-14.858177,9.716000000000001,7.553,-14.762,-1
723,724,1582724960807,3.500833,-1.1579165,-12.782049,9.033999999999999,6.938,-12.679,-1
724,725,1582724960817,3.8139248,-1.6005855,-10.377846,9.287,6.5360000000000005,-10.269,-1
725,726,1582724960827,4.285955400000001,-1.9118938,-7.667442299999999,9.714,6.255,-7.575,-1
726,727,1582724960837,4.734957700000001,-2.2364469,-5.733364599999999,10.128,5.954,-5.688,-1
727,728,1582724960848,4.598177400000001,-2.6322669999999997,-5.21178,9.958,5.58,-5.249,-1
728,729,1582724960858,4.093095,-3.1332035,-5.872020200000001,9.417,5.101,-6.028,-1
729,730,1582724960868,3.4639983,-3.690639,-5.9395275000000005,8.756,4.56,-6.242999999999999,-1
730,731,1582724960878,2.9717617,-4.131273,-5.242116,8.262,4.112,-5.724,-1
731,732,1582724960888,2.4159607999999997,-4.475219200000001,-3.129007,7.817,3.678,-3.853,-1
732,733,1582724960899,1.7317103999999999,-4.8457,-1.095265,7.101,3.324,-1.868,-1
733,734,1582724960909,1.3637438,-5.1997776,0.45124912,6.6770000000000005,3.005,-0.337,-1
734,735,1582724960919,1.3675208,-5.3302565,1.1701865,6.631,2.905,0.366,-1
735,736,1582724960929,1.3855986999999998,-5.723155,1.3156896,6.587999999999999,2.548,0.483,-1
736,737,1582724960940,1.4538111999999999,-5.930863400000001,1.571796,6.638,2.351,0.732,-1
737,738,1582724960950,1.3817401000000002,-6.1915846,2.6727157000000004,6.5329999999999995,2.11,1.825,-1
738,739,1582724960960,0.45422935,-6.9198949999999995,4.2894835,5.546,1.4169999999999998,3.429,-1
739,740,1582724960970,-0.06419611,-7.209892,4.4887505,5.005,1.14,3.6210000000000004,-1
740,741,1582724960980,-2.0301864,-8.084024000000001,5.2067309999999996,2.977,0.301,4.3180000000000005,-1
741,742,1582724960991,-3.3709912,-8.329163000000001,5.6794557999999995,1.614,0.069,4.79,-1
742,743,1582724961001,-3.7991805,-8.345504,5.766083,1.183,0.055,4.883,-1
743,744,1582724961011,-3.2817736000000006,-8.056275,7.38766,1.7380000000000002,0.33,6.586,-1
744,745,1582724961021,-2.5957725,-8.136935000000001,9.544692,2.61,0.172,9.366,-1
745,746,1582724961031,-2.6922702999999997,-7.981787,12.453688,2.617,0.263,12.527999999999999,-1
746,747,1582724961042,-2.7695408,-7.9930925,15.134960000000001,2.6319999999999997,0.18899999999999997,15.352,-1
747,748,1582724961052,-2.9738995999999998,-7.959283,16.159107000000002,2.476,0.18899999999999997,16.432000000000002,-1
748,749,1582724961062,-4.0172086,-7.3680639999999995,16.670060999999997,1.59,0.6679999999999999,17.059,-1
749,750,1582724961072,-4.501386,-7.2038326,14.758442,1.226,0.7440000000000001,15.205,-1
750,751,1582724961083,-3.8668206,-6.555937299999999,13.123363000000001,2.002,1.2830000000000001,13.651,-1
751,752,1582724961093,-2.7055876,-5.84776,13.009439,3.326,1.858,13.651,-1
752,753,1582724961103,-1.7976470000000002,-5.048782,14.996432999999998,4.406000000000001,2.5069999999999997,15.767999999999999,-1
753,754,1582724961113,-1.4642162,-4.425343499999999,16.811613,4.912,2.969,17.727,-1
754,755,1582724961123,-1.2303128,-4.057538,18.111486,5.316,3.168,19.164,-1
755,756,1582724961134,-0.9289193000000001,-3.5070367,18.311335,5.7829999999999995,3.5469999999999997,19.477999999999998,-1
756,757,1582724961144,-0.7746897,-3.1133971000000003,16.909874,6.097,3.7689999999999997,18.168,-1
757,758,1582724961154,-0.53158474,-2.9994507,15.816881,6.417999999999999,3.7960000000000003,17.119,-1
758,759,1582724961165,0.8388485999999999,-2.0750241000000003,13.793172,8.017999999999999,4.445,15.249,-1
759,760,1582724961174,1.3011918,-1.75141,13.705903,8.555,4.672,15.22,-1
760,761,1582724961184,2.1486982999999995,-0.599123,13.077458,9.613,5.53,14.777000000000001,-1
761,762,1582724961195,2.4596467,-0.39052963,12.756928,9.988999999999999,5.64,14.520999999999999,-1
762,763,1582724961205,2.4050312000000003,-0.30182266,11.739747999999999,10.056000000000001,5.532,13.637,-1
763,764,1582724961215,3.1117392,-0.09983826,10.230601,10.925999999999998,5.436,12.343,-1
764,765,1582724961226,3.2416457999999997,-0.014402866,9.989283,11.299000000000001,5.319,12.262,-1
765,766,1582724961236,3.7538557,0.32997750000000003,9.248089,11.747,5.46,11.69,-1
766,767,1582724961246,4.523937,1.076818,7.849208999999999,12.59,6.004,10.463,-1
767,768,1582724961256,5.230824500000001,1.2451568000000002,6.024001,13.359000000000002,5.973,8.808,-1
768,769,1582724961267,5.5020112999999995,1.4880833999999998,4.231194,13.68,6.025,7.182,-1
769,770,1582724961277,5.153944,1.4238968,2.9152627,13.368,5.779,6.035,-1
770,771,1582724961287,4.6785755,1.0732818000000002,1.7325275000000002,12.915999999999999,5.252000000000001,5.027,-1
771,772,1582724961298,4.4629,1.4187288,0.7331228,12.712,5.332999999999999,4.311,-1
772,773,1582724961307,4.9102707,1.2644429,0.06622362,13.158,5.087,3.745,-1
773,774,1582724961317,5.4924774,1.570024,-0.75024414,13.728,5.206,3.139,-1
774,775,1582724961327,5.898568,2.0464241999999997,-0.8040476,14.109000000000002,5.496,3.302,-1
775,776,1582724961337,6.5382394999999995,2.233534,-0.9517882,14.715,5.501,3.365,-1
776,777,1582724961348,6.535742,2.2405310000000003,-1.3015385,14.675999999999998,5.34,3.2039999999999997,-1
777,778,1582724961358,6.565548,1.9966523999999997,-1.7507153000000002,14.674000000000001,4.948,2.909,-1
778,779,1582724961368,6.7125187,1.8342264,-2.2085876,14.796,4.658,2.572,-1
779,780,1582724961379,5.947507,1.9985342000000001,-2.621711,14.001,4.672,2.294,-1
780,781,1582724961389,5.733637,2.215388,-3.2124099999999998,13.770999999999999,4.809,1.7719999999999998,-1
781,782,1582724961399,5.808673000000001,2.2959680000000002,-4.081816000000001,13.833,4.8180000000000005,0.96,-1
782,783,1582724961409,5.786231,2.2439332000000003,-4.630305,13.802,4.7010000000000005,0.457,-1
783,784,1582724961419,5.4216213,1.9889894000000001,-4.667585400000001,13.436,4.387,0.45,-1
784,785,1582724961430,4.616934,1.9035508999999997,-4.253403,12.64,4.251,0.8740000000000001,-1
785,786,1582724961440,3.6871176,1.6696796000000003,-3.5374622000000002,11.73,3.975,1.578,-1
786,787,1582724961450,3.2461042,1.5402288,-3.0942947999999997,11.302,3.827,2.009,-1
787,788,1582724961460,2.7699509,1.81739,-2.0834843999999997,10.866,4.0569999999999995,2.977,-1
788,789,1582724961471,2.964425,2.1113447999999995,-1.9881768,11.072000000000001,4.337,3.06,-1
789,790,1582724961481,4.6116247,2.5448877999999997,-3.4355307,12.753,4.725,1.578,-1
790,791,1582724961491,5.0665073,2.894462,-4.336696599999999,13.23,5.051,0.6509999999999999,-1
791,792,1582724961501,4.8892050000000005,3.0737782000000005,-4.570571,13.075999999999999,5.216,0.385,-1
792,793,1582724961512,4.3586817,2.8991916,-4.312513,12.571,5.0360000000000005,0.603,-1
793,794,1582724961522,3.4612265,2.7904612999999996,-3.924139,11.702,4.933,0.941,-1
794,795,1582724961532,2.680293,2.5491617000000004,-3.1659665,10.952,4.706,1.64,-1
795,796,1582724961542,2.490899,2.3800435,-2.3991957000000004,10.789000000000001,4.548,2.356,-1
796,797,1582724961552,2.3300095,2.2102706000000003,-1.8057499,10.65,4.387,2.907,-1
797,798,1582724961562,2.2448864,2.235474,-1.0570705,10.581,4.421,3.623,-1
798,799,1582724961572,2.0706224,2.1806242,-0.9177878,10.42,4.378,3.733,-1
799,800,1582724961582,1.7353392,2.1981627999999995,-1.0753117,10.099,4.418,3.5389999999999997,-1
800,801,1582724961592,1.7015543000000002,2.1509366,-1.4156713,10.083,4.402,3.1510000000000002,-1
801,802,1582724961602,1.720027,2.0678427,-1.3648479,10.123,4.349,3.147,-1
802,803,1582724961613,1.5529766,2.0202377,-1.0154886,9.975,4.33,3.446,-1
803,804,1582724961623,1.2273359,1.7444823,-0.5745537,9.663,4.083,3.846,-1
804,805,1582724961633,1.023591,1.6464299999999998,-0.10081577,9.467,4.011,4.291,-1
805,806,1582724961643,0.9530268,1.5730111999999998,0.30788898,9.398,3.9610000000000003,4.684,-1
806,807,1582724961653,0.84182453,1.6067278,0.78513193,9.283,4.013999999999999,5.1579999999999995,-1
807,808,1582724961663,0.76465034,1.5384811999999999,1.0201535,9.199,3.966,5.395,-1
808,809,1582724961673,0.6024666,1.5863748,0.807776,9.029,4.042,5.182,-1
809,810,1582724961683,0.40576935,1.3821635,0.6770563,8.825,3.872,5.046,-1
810,811,1582724961694,0.40768909999999997,1.2635534,0.5354880999999999,8.82,3.793,4.895,-1
811,812,1582724961704,0.3195057,1.2929853999999998,0.12331915,8.727,3.867,4.466,-1
812,813,1582724961714,0.30269718,1.0789752000000001,0.29251862,8.703,3.695,4.624,-1
813,814,1582724961724,0.18193245,1.1636765,0.5415616,8.568999999999999,3.8169999999999997,4.876,-1
814,815,1582724961735,0.3981743,1.2415333,0.8352847,8.772,3.923,5.178,-1
815,816,1582724961745,0.31807518,1.1679218,1.2916245000000002,8.677,3.872,5.649,-1
816,817,1582724961755,0.04255867,1.1282983,1.613318,8.382,3.858,5.992000000000001,-1
817,818,1582724961765,-0.10026169,1.0969582,1.8304863,8.219,3.853,6.231,-1
818,819,1582724961775,0.031147003,1.0971444,1.7418952,8.332,3.8819999999999997,6.159,d
819,820,1582724961785,0.2169962,1.0509975,1.4770975,8.504,3.863,5.903,-1
820,821,1582724961796,0.18450451,1.0190768,0.9527754999999999,8.456,3.865,5.386,-1
821,822,1582724961806,0.033823967,1.1471733999999998,0.6621661,8.283999999999999,4.035,5.1080000000000005,-1
822,823,1582724961816,0.639946,1.2576389,0.7040185999999999,8.866,4.186,5.167999999999999,-1
823,824,1582724961826,0.7220907,1.3874443,0.9143800999999999,8.94,4.327,5.386,-1
824,825,1582724961836,1.0484685999999999,1.4458756000000001,1.198739,9.251,4.406000000000001,5.685,-1
825,826,1582724961846,1.5285673,1.4948668,1.4767327,9.718,4.476,5.973,-1
826,827,1582724961856,1.5927448,1.4530294,1.4796348,9.769,4.4639999999999995,5.98,-1
827,828,1582724961866,1.5455531999999998,1.3733411,1.5994325,9.709,4.423,6.097,-1
828,829,1582724961876,1.3328257,1.4513998,1.658814,9.481,4.548,6.152,-1
829,830,1582724961886,1.2003403,1.6986465,1.865025,9.328,4.849,6.358,-1
830,831,1582724961896,1.6173763,2.007717,2.042067,9.722999999999999,5.212999999999999,6.5360000000000005,-1
831,832,1582724961906,2.3358984,2.356057,1.6960692,10.42,5.617999999999999,6.188,-1
832,833,1582724961917,3.0893269,2.5356505,1.1520371,11.151,5.858,5.64,-1
833,834,1582724961927,3.7284737,2.9249353,0.25478697,12.087,6.542999999999999,4.368,-1
834,835,1582724961937,4.254074,3.2864006000000003,-0.30573225,12.26,6.749,4.176,-1
835,836,1582724961947,4.538612400000001,3.4012337,0.10741854,12.509,6.94,4.593,-1
836,837,1582724961957,5.054924,3.9392080000000003,1.5823607,12.952,7.597,6.102,-1
837,838,1582724961968,4.765736,4.001688,2.330192,12.597000000000001,7.75,6.89,-1
838,839,1582724961978,4.523969,4.1220016,2.9960603999999997,12.280999999999999,7.973,7.597,-1
839,840,1582724961988,4.4647846,4.306204,2.9838147,12.145,8.272,7.6160000000000005,-1
840,841,1582724961998,4.196569,4.195723,2.882597,11.838,8.224,7.525,-1
841,842,1582724962009,4.4016589999999995,4.5090145999999995,2.4947982000000004,11.929,8.737,7.146,-1
842,843,1582724962019,4.9521513,4.706141000000001,2.4697032,12.405999999999999,9.074,7.11,-1
843,844,1582724962029,5.609689700000001,4.9879136,2.9031372,12.99,9.503,7.52,-1
844,845,1582724962039,6.2420897,5.092151599999999,3.3827786,13.546,9.766,7.962999999999999,-1
845,846,1582724962049,6.3180190000000005,5.0714315999999995,3.2345185,13.540999999999999,9.922,7.7589999999999995,-1
846,847,1582724962060,6.2776165,4.965987,4.5285835,13.415999999999999,10.011000000000001,8.974,-1
847,848,1582724962070,6.3200197,3.6709709999999998,3.597128,13.370999999999999,8.933,7.928999999999999,-1
848,849,1582724962080,5.095261,3.791862,3.9075732000000003,12.044,9.285,8.116,-1
849,850,1582724962091,5.0802164,3.9697747000000003,5.3479443,11.915,9.697000000000001,9.429,-1
850,851,1582724962101,4.699671299999999,2.9529061000000003,4.0714426,11.414000000000001,8.927999999999999,7.994,-1
851,852,1582724962111,3.99439,2.8213491000000004,3.6629447999999996,10.574000000000002,9.048,7.419,-1
852,853,1582724962122,3.2224956000000002,2.7007828,3.4505907999999996,9.658999999999999,9.17,7.041,-1
853,854,1582724962132,2.855432,2.5483842,4.620021299999999,9.148,9.249,8.037,-1
854,855,1582724962143,3.0697136,2.1528373,4.748232,9.218,9.077,7.977,-1
855,856,1582724962153,3.8402977,1.4289508,3.760775,9.847999999999999,8.568999999999999,6.777,-1
856,857,1582724962163,4.606701999999999,0.45808172,3.805546,10.468,7.807,6.6,-1
857,858,1582724962173,2.4845295,-1.2000866000000001,0.51800036,8.205,6.33,3.115,-1
858,859,1582724962183,1.0907631000000002,-0.08166313,5.1103153,6.5329999999999995,7.716,7.507999999999999,-1
859,860,1582724962194,0.60745764,-1.27916,3.5653276,5.8629999999999995,6.682,5.8389999999999995,-1
860,861,1582724962204,-0.13418388,-1.5526175,3.0153797000000004,5.027,6.444,5.379,-1
861,862,1582724962214,-1.7176678,-3.7809858,4.4650087,3.2539999999999996,4.375,6.686,-1
862,863,1582724962224,-2.0372593,0.08944988,4.994955,2.634,8.475,7.002999999999999,-1
863,864,1582724962234,-1.1137214,-2.1668453,2.1490998,3.367,6.365,3.966,-1
864,865,1582724962245,0.78823423,-2.172946,0.5559406,5.12,6.483,2.131,-1
865,866,1582724962255,2.1927514,-0.9818983,0.30840158,6.444,7.75,1.669,-1
866,867,1582724962265,2.810564,-1.259357,-0.22185868,6.9639999999999995,7.551,0.917,-1
867,868,1582724962275,2.2064538,-1.8959379,-0.11514550400000001,6.26,6.986000000000001,0.807,-1
868,869,1582724962285,-0.27589965,-2.7721028,-0.50003207,3.523,6.239,0.23399999999999999,-1
869,870,1582724962296,-2.8305635,-3.8829508,0.30654675,0.687,5.252000000000001,0.898,-1
870,871,1582724962305,-4.504471,-4.7855906,1.3474078999999999,-1.254,4.454,1.8319999999999999,-1
871,872,1582724962315,-4.8862065999999995,-4.9091716,1.9429811999999997,-1.87,4.414,2.332,-1
872,873,1582724962325,-4.514796,-5.4553394,1.7761619999999998,-1.693,3.932,2.069,-1
873,874,1582724962335,-4.55082,-6.1294260000000005,1.0975653,-1.889,3.307,1.295,-1
874,875,1582724962346,-3.6381335,-6.4160037,0.46715268,-1.1079999999999999,3.0580000000000003,0.5770000000000001,-1
875,876,1582724962356,-1.3775522,-6.41713,0.7096005,1.051,3.0839999999999996,0.742,-1
876,877,1582724962366,0.6913736,-7.1103883,0.028964682999999998,3.0269999999999997,2.414,-0.006999999999999999,-1
877,878,1582724962376,0.4948032,-7.5384044999999995,0.43410659999999995,2.7110000000000003,2.0140000000000002,0.332,-1
878,879,1582724962386,0.036527395,-7.107011999999999,1.6224167,2.112,2.476,1.453,-1
879,880,1582724962396,-0.6632353,-7.2882547,2.5384617,1.2590000000000001,2.325,2.292,-1
880,881,1582724962406,-5.0965137,-7.077076400000001,-7.1330137,-3.362,2.5669999999999997,-7.525,-1
881,882,1582724962416,-5.335785,-7.902996000000001,1.6259458999999998,-3.7089999999999996,1.76,1.238,-1
882,883,1582724962426,-5.4719987,-7.050939,1.3674523,-3.911,2.6239999999999997,1.008,-1
883,884,1582724962436,-3.0976147999999997,-6.8423195,1.5657828,-1.5319999999999998,2.833,1.238,-1
884,885,1582724962447,-1.7969548,-6.349097,1.4017576,-0.215,3.324,1.087,-1
885,886,1582724962457,0.1896857,-5.196433,1.9458441999999998,1.825,4.468999999999999,1.671,-1
886,887,1582724962467,0.8215524,-4.5733809999999995,2.5969436000000004,2.478,5.0889999999999995,2.342,-1
887,888,1582724962477,1.1977463,-4.1348567,2.4685283,2.8569999999999998,5.527,2.2119999999999997,-1
888,889,1582724962488,0.9601878,-3.7855934999999996,1.8311396,2.5980000000000003,5.879,1.5419999999999998,-1
889,890,1582724962498,0.30818713,-3.4358473,0.7762611999999999,1.9040000000000001,6.234,0.433,-1
890,891,1582724962508,-0.41410172,-3.0946097000000004,-0.18783179,1.1320000000000001,6.581,-0.591,-1
891,892,1582724962518,-1.4873171,-2.5732383999999997,-0.78016627,0.009000000000000001,7.108,-1.2329999999999999,-1
892,893,1582724962528,-2.137962,-2.3412347000000002,-0.61712515,-0.682,7.345,-1.094,-1
893,894,1582724962539,-2.1363618,-2.1793547,0.22590269,-0.6990000000000001,7.51,-0.244,-1
894,895,1582724962549,-1.7415463,-1.8132830000000002,0.9040699000000001,-0.301,7.877000000000001,0.46399999999999997,-1
895,896,1582724962559,-0.9214851999999999,-1.5607481,1.4166596000000002,0.541,8.128,1.0170000000000001,-1
896,897,1582724962569,0.18078542,-0.90779305,1.7642716,1.683,8.777000000000001,1.42,-1
897,898,1582724962579,1.321918,-0.58460426,1.0790229,2.926,9.086,0.802,-1
898,899,1582724962590,1.0611698999999999,-0.033696175,0.0610386,2.8160000000000003,9.611,-0.205,-1
899,900,1582724962599,0.56112933,0.10381031,-0.56992126,2.354,9.74,-0.8859999999999999,-1
900,901,1582724962609,-0.18440247,0.25521755,-0.7435517,1.59,9.892999999999999,-1.111,-1
901,902,1582724962619,-0.7264477,0.29860306,-0.39532217,0.998,9.943999999999999,-0.799,-1
902,903,1582724962629,-1.0671277,0.23341942,0.23349056,0.562,9.896,-0.155,-1
903,904,1582724962639,-1.0552163,0.15087032,0.875883,0.495,9.829,0.5579999999999999,-1
904,905,1582724962649,-0.96826124,0.30779266,1.6270806,0.546,9.994,1.393,-1
905,906,1582724962659,-0.7488603,0.35451984,1.5375774,0.754,10.044,1.3769999999999998,-1
906,907,1582724962669,-0.12537658,0.5625266999999999,1.0193146,1.393,10.25,0.8859999999999999,-1
907,908,1582724962679,0.7107675,1.0930986,0.13345599,2.263,10.775,-0.013999999999999999,-1
908,909,1582724962689,1.2591691999999999,1.2760382,-0.57902217,2.845,10.952,-0.7559999999999999,-1
909,910,1582724962699,1.7553865000000002,1.3602905,-1.4730946000000003,3.3689999999999998,11.030999999999999,-1.683,-1
910,911,1582724962710,1.7246186999999997,1.3772326000000001,-1.2136831,3.353,11.045,-1.444,-1
911,912,1582724962720,1.0294694,1.2239714,-0.5215287000000001,2.656,10.892000000000001,-0.754,-1
912,913,1582724962730,0.6719307,1.2037516000000001,-0.20121774,2.292,10.873,-0.428,-1
913,914,1582724962740,-0.38889432,1.3127022,0.4808781,1.199,10.988,0.287,-1
914,915,1582724962750,-0.29418790000000006,1.0842028000000001,1.0966985,1.276,10.763,0.9359999999999999,d
915,916,1582724962761,0.0018326044,1.0201321,1.0451213,1.568,10.7,0.912,-1
916,917,1582724962771,0.36950052,0.9623870999999999,0.2117978,1.944,10.640999999999998,0.086,-1
917,918,1582724962781,0.6469414000000001,0.9516486999999999,-0.14509942,2.229,10.629000000000001,-0.273,-1
918,919,1582724962791,1.4218541,0.9204568999999999,-0.62346697,3.032,10.593,-0.764,-1
919,920,1582724962802,1.5305107,0.96524906,-0.45613873,3.1510000000000002,10.636,-0.601,-1
920,921,1582724962812,1.6001377,0.92431355,-0.014993966000000001,3.221,10.595,-0.16,-1
921,922,1582724962822,0.9973625,0.6848221,0.10528466,2.603,10.357999999999999,-0.043,-1
922,923,1582724962832,0.14947617,0.56209946,-0.092205435,1.719,10.241,-0.253,-1
923,924,1582724962843,-0.37482417,0.54407024,-0.35625840000000003,1.1420000000000001,10.231,-0.5379999999999999,-1
924,925,1582724962853,-0.34758055,0.5060291,-0.72540426,1.12,10.2,-0.934,-1
925,926,1582724962863,-0.33281540000000004,0.56329155,-1.20167,1.099,10.262,-1.4369999999999998,-1
926,927,1582724962873,-0.07452881,0.61349773,-1.2287153,1.3359999999999999,10.315,-1.4769999999999999,-1
927,928,1582724962884,0.20460725,0.6136017,-0.8499962999999999,1.604,10.317,-1.087,-1
928,929,1582724962894,0.710515,0.64326096,-0.3554802,2.105,10.347999999999999,-0.565,-1
929,930,1582724962904,1.0383204,0.5106411,-0.007038742299999999,2.426,10.217,-0.184,-1
930,931,1582724962914,0.6213926,0.2619524,0.34421490000000005,1.9869999999999999,9.972000000000001,0.201,-1
931,932,1582724962924,-0.40239440000000004,-0.15116692,0.22362822,0.9,9.568,0.114,-1
932,933,1582724962935,-1.1376093999999999,-0.41918755,0.09616615,0.081,9.311,0.002,-1
933,934,1582724962945,-1.7487502000000001,-0.6155739,-0.13586593,-0.615,9.125,-0.215,-1
934,935,1582724962955,-2.0988512000000004,-0.85027695,-0.40278485,-1.041,8.899,-0.457,-1
935,936,1582724962965,-2.4106252,-1.256773,-0.21314168,-1.413,8.499,-0.222,-1
936,937,1582724962976,-2.4918118,-1.9299988999999997,1.5395098999999999,-1.554,7.831,1.6569999999999998,-1
937,938,1582724962986,-2.435108,-2.4616146,3.943919,-1.53,7.3,4.1930000000000005,-1
938,939,1582724962996,-2.3309715,-2.7818766,4.9565434,-1.446,6.979,5.292000000000001,-1
939,940,1582724963006,-2.2570127999999996,-3.4561142999999994,6.614697500000001,-1.5130000000000001,6.284,7.479,-1
940,941,1582724963017,-2.2419767000000004,-3.756297,6.6329365000000005,-1.5630000000000002,5.965,7.731,-1
941,942,1582724963027,-2.9636662,-4.716814,6.0697155,-2.43,4.96,7.568,-1
942,943,1582724963037,-3.802344,-5.671113,5.990031200000001,-3.36,3.9819999999999998,7.6610000000000005,-1
943,944,1582724963047,-4.631843,-6.729044999999999,6.2019157,-4.363,2.878,8.152000000000001,-1
944,945,1582724963058,-5.4068629999999995,-7.890216400000001,6.825136,-5.287999999999999,1.666,9.024,-1
945,946,1582724963068,-6.2343907,-8.995071000000001,7.8007526,-6.152,0.534,10.116,-1
946,947,1582724963078,-6.4773498,-9.826410000000001,8.852863000000001,-6.38,-0.318,11.251,-1
947,948,1582724963089,-6.5035186,-10.561672999999999,9.47295,-6.356,-1.07,11.934000000000001,-1
948,949,1582724963099,-6.392712,-10.920274000000001,9.718708,-6.164,-1.4409999999999998,12.220999999999998,-1
949,950,1582724963109,-5.858535,-11.287105,9.445534,-5.52,-1.817,11.97,-1
950,951,1582724963119,-4.8176622,-11.592575,8.507484,-4.346,-2.133,11.05,-1
951,952,1582724963130,-3.7640907999999995,-11.851931,7.686577000000001,-3.142,-2.416,10.284,-1
952,953,1582724963140,-2.8609762,-11.755901,6.922592999999999,-2.066,-2.38,9.685,-1
953,954,1582724963150,-1.7157962,-11.682592,5.533736,-0.7040000000000001,-2.354,8.384,-1
954,955,1582724963160,-0.75786865,-10.847163,3.8440468,0.488,-1.5230000000000001,6.615,-1
955,956,1582724963171,0.7352458000000001,-9.819953,1.6635647,2.2359999999999998,-0.502,4.327,-1
956,957,1582724963181,3.2670684,-7.660435700000001,-1.1949565,5.192,1.621,1.319,-1
957,958,1582724963191,4.9297304,-6.955151,-3.381876,7.175,2.275,-0.946,-1
958,959,1582724963202,5.8086166,-6.4088330000000004,-4.484721700000001,8.277000000000001,2.775,-2.09,-1
959,960,1582724963212,7.561187299999999,-5.073151999999999,-5.9270973,10.487,3.9939999999999998,-3.6039999999999996,-1
960,961,1582724963222,10.214121,-2.5205802999999998,-6.226056,13.615,6.372999999999999,-3.8789999999999996,-1
961,962,1582724963232,11.378067,-1.5081844,-6.3734,14.923,7.3229999999999995,-4.004,-1
962,963,1582724963243,14.077754999999998,1.0787649,-6.896907000000001,18.024,9.721,-4.466,-1
963,964,1582724963253,14.664945000000001,1.9396229,-7.7994556,18.846,10.466,-5.352,-1
964,965,1582724963263,14.592732999999999,2.3417082000000002,-8.544824,18.879,10.815,-6.095,-1
965,966,1582724963273,13.469072,3.4153862,-11.213349000000001,18.027,11.742,-8.751,-1
966,967,1582724963284,13.954634,4.0814686,-12.835318,18.673,12.308,-10.339,-1
967,968,1582724963294,15.586545999999998,4.8336086,-14.307594,20.458,12.952,-11.752,-1
968,969,1582724963304,17.504514999999998,5.3135176,-15.168656,22.517,13.321,-12.537,-1
969,970,1582724963314,18.082497,5.3001027,-15.241288,23.214000000000002,13.206,-12.533,-1
970,971,1582724963325,17.214026999999998,5.0541295999999996,-15.094803,22.436,12.878,-12.322000000000001,-1
971,972,1582724963335,15.357636,4.755851,-14.845415,20.645,12.515999999999998,-12.017999999999999,-1
972,973,1582724963346,14.588220999999999,4.5584016,-14.820251,19.902,12.290999999999999,-11.967,-1
973,974,1582724963356,13.901676,3.6164975,-16.222984,19.284000000000002,11.273,-13.294,-1
974,975,1582724963367,14.098167000000002,3.3591347000000003,-16.9141,19.521,10.966,-13.931,-1
975,976,1582724963377,13.762570000000002,2.5986786,-17.430176,19.217,10.157,-14.382,-1
976,977,1582724963387,13.038586,1.3681778999999998,-17.034092,18.512999999999998,8.878,-13.902999999999999,-1
977,978,1582724963398,12.03065,0.23073149,-14.897498,17.517,7.69,-11.668,-1
978,979,1582724963408,10.171073,-1.3193883999999998,-12.000483500000001,15.675,6.066,-8.634,-1
979,980,1582724963418,9.190166,-2.2443576000000003,-10.741613000000001,14.717,5.098,-7.319,-1
980,981,1582724963429,8.490472,-2.6533427000000005,-10.537325,14.034,4.67,-7.101,-1
981,982,1582724963438,6.871657400000001,-3.4784417000000003,-10.168169,12.487,3.7910000000000004,-6.734,-1
982,983,1582724963448,6.3367734,-3.618763,-9.846588,11.984000000000002,3.63,-6.421,-1
983,984,1582724963458,4.721623,-3.6766078,-7.474400999999999,10.514000000000001,3.4819999999999998,-4.102,-1
984,985,1582724963469,4.432932,-3.813483,-6.516605,10.3,3.3,-3.178,-1
985,986,1582724963479,3.509326,-3.1364193,-4.460761,9.68,3.7960000000000003,-1.2930000000000001,-1
986,987,1582724963489,3.1936388,-3.0456244999999997,-3.9836817000000004,9.607999999999999,3.741,-0.9890000000000001,-1
987,988,1582724963499,3.147654,-2.8475287000000002,-4.0348562999999995,9.901,4.071000000000001,-1.14,-1
988,989,1582724963510,3.8499327000000005,-2.1313796000000003,-3.5463674,10.642999999999999,4.4110000000000005,-0.8590000000000001,-1
989,990,1582724963520,5.5022097,-1.9073171999999998,-2.9891992000000003,12.437000000000001,4.521,-0.39,-1
990,991,1582724963530,7.2691482999999995,-1.7405701,-0.70008194,14.329,4.569,1.8530000000000002,-1
991,992,1582724963540,8.311031,-0.98225594,3.5058792000000003,15.481,5.206,6.0489999999999995,-1
992,993,1582724963550,8.5673065,-0.27160883,8.552567,15.833,5.803,11.097999999999999,-1
993,994,1582724963561,7.9338894,0.67561054,12.824722999999999,15.282,6.655,15.359000000000002,-1
994,995,1582724963571,6.946991400000001,1.7021727999999998,15.612135999999998,14.365,7.611000000000001,18.108,-1
995,996,1582724963581,6.391153299999999,2.911518,16.743579999999998,13.869000000000002,8.772,19.174,-1
996,997,1582724963591,6.6499996,3.6602601999999997,16.591984,14.175999999999998,9.488999999999999,18.949,-1
997,998,1582724963602,7.1396046,4.453216599999999,16.673029,14.698,10.262,18.975,-1
998,999,1582724963612,7.330514,4.7522917,17.129025,14.901,10.554,19.409000000000002,-1
999,1000,1582724963622,7.022132400000001,4.874433,18.740842999999998,14.585,10.686,21.021,-1
1000,1001,1582724963632,6.093865,5.253849,20.53323,13.632,11.097999999999999,22.811999999999998,-1
1001,1002,1582724963643,5.0916076,5.5677080000000005,21.06726,12.59,11.472000000000001,23.322,-1
1002,1003,1582724963653,4.060491000000001,5.609375,19.7737,11.505,11.600999999999999,21.976,-1
1003,1004,1582724963663,3.5876536,5.932049299999999,16.8001,10.964,12.03,18.939,-1
1004,1005,1582724963673,3.5683722,5.8542905,14.110707999999999,10.863,12.065999999999999,16.202,-1
1005,1006,1582724963683,3.6517519999999997,5.723100700000001,12.602618,10.850999999999999,12.050999999999998,14.675999999999998,-1
1006,1007,1582724963693,4.056323,5.631036,11.884075,11.145999999999999,12.08,13.962,-1
1007,1008,1582724963704,3.7746562999999993,5.178646,11.536512,10.739,11.761,13.62,-1
1008,1009,1582724963714,3.3583616999999997,4.766433,10.494913,9.817,11.321,11.710999999999999,-1
1009,1010,1582724963724,2.5675673,4.0717206,8.6762295,9.232000000000001,10.972999999999999,10.708,-1
1010,1011,1582724963734,1.3170772,2.7914987,6.284662,7.716,9.956,8.258,-1
1011,1012,1582724963744,0.8231386999999999,2.0814476,5.520151,7.034,9.414,7.477,-1
1012,1013,1582724963755,0.97290564,1.4905329,5.329737000000001,6.995,8.978,7.29,-1
1013,1014,1582724963765,1.3634658000000002,1.2076306,5.0286254999999995,7.2010000000000005,8.837,7.0,-1
1014,1015,1582724963775,1.7556076,1.0477809999999999,4.6936173,7.502999999999999,8.744,6.67,-1
1015,1016,1582724963785,2.5115857000000004,0.64014006,3.3028717000000003,7.992000000000001,8.526,5.29,-1
1016,1017,1582724963795,2.2710857000000004,0.12199592599999999,3.1617634,7.568,8.128,5.166,-1
1017,1018,1582724963806,2.109292,-0.47632979999999997,3.7173697999999997,7.22,7.644,5.745,-1
1018,1019,1582724963816,2.0768075,-1.1721282,3.7542584000000003,7.005,7.058,5.791,-1
1019,1020,1582724963826,2.0661817,-1.5589061000000002,3.2512974999999997,6.912000000000001,6.72,5.287999999999999,-1
1020,1021,1582724963836,1.2471533000000001,-2.0390468,0.86853313,5.932,6.334,2.897,-1
1021,1022,1582724963846,1.0470848,-2.217103,0.10532355,5.507999999999999,5.98,1.4269999999999998,-1
1022,1023,1582724963857,0.7614522,-2.956018,-1.6160362,5.072,5.659,0.22,-1
1023,1024,1582724963867,0.6802416,-3.3746389999999997,-1.9269606,4.7989999999999995,5.35,-0.17,-1
1024,1025,1582724963877,0.7094772,-3.9748135,-1.5889739999999999,4.638999999999999,4.849,0.105,-1
1025,1026,1582724963887,0.48377585,-4.4438033,-1.4315453000000002,4.224,4.473,0.203,-1
1026,1027,1582724963898,0.56960464,-4.941964,-1.8284328,4.121,4.064,-0.263,-1
1027,1028,1582724963907,0.18152118,-5.388172,-2.7274814,3.542,3.705,-1.247,-1
1028,1029,1582724963917,-0.57605577,-6.101580599999999,-4.112749,2.589,3.077,-2.7319999999999998,-1
1029,1030,1582724963927,-1.5521829,-6.5223059999999995,-5.104294,1.415,2.737,-3.827,-1
1030,1031,1582724963937,-2.130239,-7.140414,-5.557666,0.644,2.191,-4.375,-1
1031,1032,1582724963947,-2.7281976,-7.701094599999999,-6.013041,-0.138,1.693,-4.912,-1
1032,1033,1582724963957,-3.2337432,-7.8874664,-6.03201,-0.8140000000000001,1.5590000000000002,-4.993,-1
1033,1034,1582724963967,-3.4025521,-7.9328327000000005,-5.6288540000000005,-1.137,1.556,-4.629,-1
1034,1035,1582724963977,-3.4848242,-8.000084,-5.2415347,-1.357,1.5230000000000001,-4.265,-1
1035,1036,1582724963987,-3.5051723,-8.009442,-5.056067,-1.501,1.5419999999999998,-4.095,-1
1036,1037,1582724963997,-3.5272593,-8.069861999999999,-4.9155235,-1.58,1.494,-3.9610000000000003,-1
1037,1038,1582724964007,-2.9641813999999997,-8.116289,-5.743682,-1.171,1.48,-4.813,-1
1038,1039,1582724964017,-2.8533623,-8.288952,-6.0318365,-1.1079999999999999,1.317,-5.11,-1
1039,1040,1582724964028,-3.2797723,-8.734532000000002,-6.7458925,-1.6740000000000002,0.898,-5.848,-1
1040,1041,1582724964038,-4.04205,-9.058986,-6.934891,-2.526,0.589,-6.047000000000001,-1
1041,1042,1582724964048,-4.635739,-9.275522,-6.89432,-3.202,0.385,-6.006,-1
1042,1043,1582724964058,-5.1846312999999995,-9.268379,-6.706562,-3.7880000000000003,0.397,-5.812,-1
1043,1044,1582724964069,-6.3191690000000005,-9.444233,-5.3194932999999995,-5.003,0.22699999999999998,-4.368,-1
1044,1045,1582724964079,-6.389007,-9.52167,-4.6512666,-5.084,0.14800000000000002,-3.6689999999999996,-1
1045,1046,1582724964089,-5.9002875999999995,-10.059069000000001,-3.7140772000000006,-4.581,-0.402,-2.6319999999999997,-1
1046,1047,1582724964099,-5.537013,-10.614377000000001,-3.9794339999999995,-4.181,-0.9690000000000001,-2.84,-1
1047,1048,1582724964109,-5.4457054000000005,-11.052230999999999,-4.2229605,-4.038,-1.42,-3.036,-1
1048,1049,1582724964120,-5.983756,-11.572502,-4.878145,-4.5169999999999995,-1.954,-3.6519999999999997,-1
1049,1050,1582724964130,-6.714297999999999,-12.254249,-5.105948000000001,-5.182,-2.6510000000000002,-3.841,-1
1050,1051,1582724964140,-7.2700796,-12.87606,-4.6575766,-5.657,-3.293,-3.341,-1
1051,1052,1582724964150,-7.884765600000001,-13.585028,-4.031382,-6.176,-4.0280000000000005,-2.648,-1
1052,1053,1582724964160,-7.8342614,-14.043397,-2.8975327,-5.987,-4.526,-1.422,-1
1053,1054,1582724964170,-6.766595,-14.532758,-1.967972,-4.715,-5.075,-0.38299999999999995,-1
1054,1055,1582724964181,-5.6078470000000005,-14.762807,-1.4587041,-3.3,-5.3839999999999995,0.239,-1
1055,1056,1582724964191,-4.7714685999999995,-14.636282000000001,-0.6594526999999999,-2.174,-5.355,1.1520000000000001,-1
1056,1057,1582724964201,-4.168291,-14.747649,-0.47880816,-1.2570000000000001,-5.582000000000001,1.4409999999999998,-1
1057,1058,1582724964211,-4.3560834,-14.746070999999999,-0.96054184,-1.113,-5.7139999999999995,1.058,-1
1058,1059,1582724964221,-4.2078104000000005,-14.894514000000001,-1.6761415000000002,-0.615,-6.018,0.43799999999999994,-1
1059,1060,1582724964232,-4.2366779999999995,-14.630354,-2.5628505,-0.275,-5.937,-0.349,-1
1060,1061,1582724964242,-3.4253383,-14.447004000000002,-3.6740909,0.929,-5.973,-1.35,-1
1061,1062,1582724964252,-0.9221158000000002,-14.196419,-4.807389700000001,3.875,-5.999,-2.366,-1
1062,1063,1582724964262,0.9946203000000001,-13.236195,-4.428331,6.327000000000001,-5.417000000000001,-1.86,-1
1063,1064,1582724964272,2.1803699,-11.874136,-2.6429505,8.547,-4.909,0.026000000000000002,-1
1064,1065,1582724964283,5.015728500000001,-10.661063,-0.436759,11.880999999999998,-4.272,2.43,-1
1065,1066,1582724964293,7.959738300000001,-9.703066,1.9732304,15.213,-3.863,5.048,-1
1066,1067,1582724964303,12.011519999999999,-7.9201179999999995,3.7779385999999997,19.608,-2.6460000000000004,7.041,-1
1067,1068,1582724964313,16.901032999999998,-4.025857,4.911984400000001,24.8,0.6679999999999999,8.339,-1
1068,1069,1582724964324,20.892244,-0.4356122,4.9277115,29.044,3.685,8.497,-1
1069,1070,1582724964334,22.46866,3.4823122000000004,4.0099506,30.895,6.818,7.757000000000001,-1
1070,1071,1582724964344,20.872078,4.3598137,3.741593,29.421999999999997,7.235,7.5889999999999995,-1
1071,1072,1582724964354,18.504948000000002,4.141665,4.418868,27.145,6.595,8.356,-1
1072,1073,1582724964364,15.820045,4.371157599999999,6.4310246,24.522,6.417999999999999,10.463,-1
1073,1074,1582724964374,14.799978,4.727005999999999,8.021108,23.523000000000003,6.569,12.106,-1
1074,1075,1582724964384,14.758206,6.2351246,10.341005000000001,23.504,7.6610000000000005,14.542,-1
1075,1076,1582724964394,16.667182999999998,8.359758,9.589475,25.401,9.187000000000001,13.972000000000001,-1
1076,1077,1582724964404,16.829391,9.539508999999999,6.944596300000001,25.541999999999998,10.03,11.419,-1
1077,1078,1582724964415,16.415194,9.701177000000001,5.631122,24.275,9.781,9.163,-1
1078,1079,1582724964424,14.262870000000001,9.375206,4.114802,22.951,9.474,8.662,-1
1079,1080,1582724964434,11.081147999999999,8.367244,5.344177200000001,19.754,8.164,9.917,-1
1080,1081,1582724964444,9.939036999999999,8.164887,6.1358809999999995,18.605999999999998,7.872000000000001,10.715,-1
1081,1082,1582724964454,8.375555,7.7288666,7.033964999999999,17.028,7.271,11.627,-1
1082,1083,1582724964465,7.418197599999999,7.582466999999999,6.8112664,16.051,6.976,11.424000000000001,-1
1083,1084,1582724964474,7.9826937000000004,7.484812700000001,5.5490355000000005,16.592,6.744,10.186,-1
1084,1085,1582724964484,8.413869,7.5288997,4.0912805,16.999000000000002,6.672000000000001,8.753,-1
1085,1086,1582724964494,7.777089999999999,7.445712599999999,3.2510743,16.340999999999998,6.497000000000001,7.934,-1
1086,1087,1582724964504,6.647869999999999,7.2191095,3.1879706000000003,15.196,6.205,7.886,-1
1087,1088,1582724964515,5.3438099999999995,6.7977567,3.0340447,13.880999999999998,5.742999999999999,7.742999999999999,-1
1088,1089,1582724964525,4.510388400000001,6.5402856,2.5885072,13.04,5.4670000000000005,7.307,-1
1089,1090,1582724964535,3.8288697999999997,6.3449693,1.5702386000000002,12.355,5.276,6.296,-1
1090,1091,1582724964545,3.3576288,6.159939,0.5733041999999999,11.884,5.115,5.303999999999999,-1
1091,1092,1582724964555,2.961958,5.706409,-0.20984316,11.493,4.7010000000000005,4.521,-1
1092,1093,1582724964565,2.4240197999999995,5.3331385000000004,-0.87192416,10.966,4.385,3.8510000000000004,-1
1093,1094,1582724964576,2.4433289,4.824282,-1.0007527,11.182,3.8289999999999997,3.812,-1
1094,1095,1582724964586,2.4272451,4.343227400000001,-0.48875569999999996,11.007,3.532,4.191,-1
1095,1096,1582724964596,2.4240122000000004,4.1854916,-0.61524296,11.020999999999999,3.429,4.042,-1
1096,1097,1582724964606,2.3061694999999998,3.8176236000000006,-0.50450563,10.911,3.091,4.143,-1
1097,1098,1582724964616,1.3631268,3.2850065,0.035756588,9.982000000000001,2.66,4.672,-1
1098,1099,1582724964627,1.0344582,3.0773029999999997,-0.013375759,9.666,2.555,4.612,-1
1099,1100,1582724964637,1.1751652,2.6804595,0.20933151,9.818999999999999,2.248,4.821000000000001,-1
1100,1101,1582724964647,1.1283264,2.5054555,0.4393401,9.781,2.15,5.041,-1
1101,1102,1582724964658,0.8646536,2.3529305,0.17633486,9.527000000000001,2.09,4.766,-1
1102,1103,1582724964668,0.8959655999999999,2.0394251,-0.31323862,9.572000000000001,1.8719999999999999,4.255,-1
1103,1104,1582724964678,1.2810221000000002,1.8023086,-0.5838897,9.972000000000001,1.71,3.958,-1
1104,1105,1582724964689,1.7308540000000001,1.6572669999999998,-0.5671326999999999,10.432,1.6159999999999999,3.9560000000000004,-1
1105,1106,1582724964699,1.4533787,1.5598163999999999,-0.006559372,10.157,1.561,4.512,-1
1106,1107,1582724964709,0.92319393,1.2452843,0.46532202,9.623,1.29,4.9910000000000005,-1
1107,1108,1582724964719,0.7611866,1.1180156,0.61358356,9.453,1.204,5.154,-1
1108,1109,1582724964730,0.7720909,1.1816002,0.72449255,9.455,1.307,5.281000000000001,-1
1109,1110,1582724964739,1.2159739,1.3427042,0.9355235000000001,9.891,1.501,5.506,-1
1110,1111,1582724964749,1.7102871,1.5771464,1.0576538999999998,10.38,1.767,5.6370000000000005,-1
1111,1112,1582724964759,2.078477,1.659534,0.5231075,10.748,1.889,5.101,d
1112,1113,1582724964769,1.9037066000000002,1.7553813000000003,-0.16674471,10.578,2.04,4.399,-1
1113,1114,1582724964780,1.5285492,1.6266475,-0.6924794,10.212,1.98,3.8510000000000004,-1
1114,1115,1582724964790,1.4959726,1.4565743999999998,-0.94246936,10.19,1.8769999999999998,3.575,-1
1115,1116,1582724964801,1.5309687,1.4272038,-0.72814226,10.229,1.9040000000000001,3.7760000000000002,-1
1116,1117,1582724964811,1.8938074,1.4061772,0.13773632,10.585,1.92,4.651,-1
1117,1118,1582724964821,1.9909438999999998,1.3560905,1.2099123,10.669,1.899,5.745,-1
1118,1119,1582724964831,1.819891,1.6089864,1.9086169999999998,10.482999999999999,2.186,6.468,-1
1119,1120,1582724964842,1.9837275,1.7683266,1.7328572,10.633,2.387,6.313,-1
1120,1121,1582724964852,2.4712534,2.2545314,0.96095467,11.107999999999999,2.9210000000000003,5.558,-1
1121,1122,1582724964862,2.8916636000000002,2.4991779999999997,0.30139112,11.515,3.216,4.916,-1
1122,1123,1582724964872,3.2412415,2.6264074,0.09621334,11.85,3.3930000000000002,4.73,-1
1123,1124,1582724964882,3.4927998,2.7545783999999998,0.6115594,12.087,3.57,5.263999999999999,-1
1124,1125,1582724964893,3.6801413999999997,2.9091315,1.6430511000000003,12.26,3.7739999999999996,6.313,-1
1125,1126,1582724964903,4.041645,3.4981402999999998,2.5380912,12.597000000000001,4.445,7.237,-1
1126,1127,1582724964913,4.2758389999999995,3.7852724,2.8706918,12.822000000000001,4.763,7.58,-1
1127,1128,1582724964923,5.7529325,4.4951476999999995,3.407875,14.270999999999999,5.577999999999999,8.145,-1
1128,1129,1582724964934,6.018244,4.736585,3.494564,14.517999999999999,5.91,8.243,-1
1129,1130,1582724964944,5.961666999999999,4.970269999999999,3.1622205,14.444,6.255,7.912999999999999,-1
1130,1131,1582724964954,5.8589067,5.15222,3.2973727999999998,14.322000000000001,6.562,8.047,-1
1131,1132,1582724964964,6.217457,5.4835606,3.8830466,14.657,7.024,8.634,-1
1132,1133,1582724964974,6.5828857,5.493228,4.07552,15.009,7.101,8.828,-1
1133,1134,1582724964984,7.8022029999999996,5.6210785,4.270298,16.18,7.4479999999999995,9.029,-1
1134,1135,1582724964994,8.439504,5.6557617,3.9875339999999997,16.777,7.652,8.749,-1
1135,1136,1582724965005,8.443425999999999,5.2538953,4.102367,16.734,7.443,8.861,-1
1136,1137,1582724965015,7.913284299999999,4.805295500000001,4.886368,16.154,7.211,9.627,-1
1137,1138,1582724965025,7.854083,4.7884474,5.2350970000000006,16.07,7.311,9.958,-1
1138,1139,1582724965035,7.8086424,4.1670940000000005,4.996701,15.95,7.077000000000001,9.625,-1
1139,1140,1582724965046,7.704344,3.8218349999999996,4.2280984,15.79,7.017,8.765,-1
1140,1141,1582724965056,7.634854300000001,3.7626626000000005,3.8961089999999996,15.689,7.106,8.382,-1
1141,1142,1582724965066,7.4188423,2.8601103,2.6443696,15.359000000000002,6.66,6.9670000000000005,-1
1142,1143,1582724965077,6.974234,2.3373442000000004,2.3328824,14.82,6.447,6.542999999999999,-1
1143,1144,1582724965087,6.4310265,1.6383185,2.426221,14.168,6.059,6.521,-1
1144,1145,1582724965097,5.6593056,0.74270725,2.7031379,13.273,5.475,6.678999999999999,-1
1145,1146,1582724965107,4.4739065,0.07107448599999999,3.2990305,11.950999999999999,5.115,7.149,-1
1146,1147,1582724965117,3.6274620000000004,-0.5611563,3.2471947999999995,10.959000000000001,4.792,6.957000000000001,-1
1147,1148,1582724965127,3.0207477000000003,-1.1669450000000001,2.5303047000000003,10.202,4.488,6.082999999999999,-1
1148,1149,1582724965137,2.6512914,-1.507103,1.3049263999999998,9.687000000000001,4.433,4.678999999999999,-1
1149,1150,1582724965147,2.1163344,-2.0761757,0.30136799999999997,9.033999999999999,4.107,3.477,-1
1150,1151,1582724965157,1.0422225,-2.469293,-0.27555776,7.949,3.8339999999999996,2.68,-1
1151,1152,1582724965167,-0.24272633,-3.0064222999999997,-0.47804284,6.492000000000001,3.563,2.289,-1
1152,1153,1582724965177,-1.5062928,-3.2317237999999997,0.39478135,5.039,3.592,2.9960000000000004,-1
1153,1154,1582724965188,-1.9255915000000001,-3.7149427000000004,0.98781824,4.43,3.338,3.444,-1
1154,1155,1582724965197,-1.8558025000000002,-3.9799463999999998,1.4136218999999999,4.315,3.281,3.7310000000000003,-1
1155,1156,1582724965207,-1.8915520000000001,-4.0148015,1.3710468,4.1,3.4410000000000003,3.535,-1
1156,1157,1582724965217,-1.2179122,-3.9814043,0.7164121999999999,4.6,3.659,2.7030000000000003,-1
1157,1158,1582724965227,-1.0993838,-4.0223,-0.53536355,4.543,3.798,1.247,-1
1158,1159,1582724965238,-1.591572,-4.3446655,-2.233115,3.865,3.6519999999999997,-0.6679999999999999,-1
1159,1160,1582724965248,-2.1320195,-4.5606813,-3.3819375,3.13,3.602,-2.021,-1
1160,1161,1582724965258,-2.6816153999999996,-4.878669,-3.8022622999999998,2.38,3.4360000000000004,-2.612,-1
1161,1162,1582724965269,-3.341474,-5.1995830000000005,-3.60944,1.518,3.252,-2.548,-1
1162,1163,1582724965279,-3.8020513,-5.723339599999999,-2.5850122000000004,0.8590000000000001,2.85,-1.614,-1
1163,1164,1582724965289,-4.1393523000000005,-6.173938,-1.4628282,0.332,2.5069999999999997,-0.5579999999999999,-1
1164,1165,1582724965299,-4.449732,-6.4623995,-0.7353925,-0.155,2.313,0.11199999999999999,-1
1165,1166,1582724965310,-4.589328299999999,-6.5754703999999995,-0.38227332,-0.455,2.282,0.40700000000000003,-1
1166,1167,1582724965320,-4.768826,-6.8235173,-0.7247722,-0.778,2.105,0.0,-1
1167,1168,1582724965330,-4.947094,-6.735834,-1.794488,-1.082,2.253,-1.137,-1
1168,1169,1582724965340,-4.524334400000001,-6.629053599999999,-2.7610822,-0.7659999999999999,2.4090000000000003,-2.162,-1
1169,1170,1582724965351,-2.9701862,-6.174597,-3.3276513,0.6579999999999999,2.9189999999999996,-2.7680000000000002,-1
1170,1171,1582724965361,-2.5985239,-6.029637999999999,-3.1933036,0.991,3.0789999999999997,-2.6289999999999996,-1
1171,1172,1582724965371,-2.2678213,-6.0363693,-2.2532387000000003,1.247,3.0989999999999998,-1.652,-1
1172,1173,1582724965381,-2.471189,-5.9013987,-0.72925663,0.972,3.2569999999999997,-0.067,-1
1173,1174,1582724965391,-3.1159055,-5.5160730000000004,1.6681476000000002,0.22699999999999998,3.673,2.414,-1
1174,1175,1582724965401,-3.4090226,-5.2283597,1.7230608,-0.124,3.98,2.488,-1
1175,1176,1582724965412,-3.4871469,-5.1154995,1.3407296999999998,-0.299,4.356,1.547,-1
1176,1177,1582724965422,-3.302203,-4.647088500000001,0.416206,-0.081,4.586,1.1540000000000001,-1
1177,1178,1582724965432,-2.2077417,-4.2309237,-0.6619041,1.65,5.209,-0.282,-1
1178,1179,1582724965442,-0.56090117,-3.688582,-1.0910144,2.627,5.558,-0.37799999999999995,-1
1179,1180,1582724965453,-0.02141428,-3.2872453,-0.32912245,3.1660000000000004,5.956,0.428,-1
1180,1181,1582724965462,0.0005042553,-3.1287894,0.38977998,3.187,6.112,1.18,-1
1181,1182,1582724965472,-0.041273355,-2.572867,1.6404376,3.142,6.662000000000001,2.509,-1
1182,1183,1582724965482,-0.92973924,-2.1172743,2.422031,2.2319999999999998,7.115,3.391,-1
1183,1184,1582724965492,-1.308119,-1.7134909999999999,1.9464743000000002,1.829,7.525,2.9360000000000004,-1
1184,1185,1582724965503,-1.301518,-1.4860487,1.2225312,1.825,7.757000000000001,2.2030000000000003,-1
1185,1186,1582724965513,-1.172173,-1.0178795,-0.3122813,1.9369999999999998,8.236,0.62,-1
1186,1187,1582724965523,-0.44587445,-0.65688705,-1.907244,2.66,8.607000000000001,-1.068,-1
1187,1188,1582724965534,0.5478103,-0.12738991,-2.2599695,3.7310000000000003,9.137,-1.8030000000000002,-1
1188,1189,1582724965544,0.7235636999999999,0.004506111,-1.958621,3.93,9.263,-1.547,-1
1189,1190,1582724965554,0.46707892,0.102313995,-0.44691450000000005,3.707,9.35,-0.055,-1
1190,1191,1582724965564,-0.3914652,0.31236553,1.8035318,2.8280000000000003,9.56,2.339,-1
1191,1192,1582724965574,-1.012351,0.36592959999999997,1.8745459999999998,2.15,9.627,2.509,-1
1192,1193,1582724965585,-1.4808402,0.5257807,0.6743593000000001,1.5830000000000002,9.817,1.35,-1
1193,1194,1582724965595,-1.1499177,0.7421321999999999,-1.0767088,1.851,10.059,-0.47600000000000003,-1
1194,1195,1582724965605,-0.54831815,0.98616123,-2.3720765,2.4419999999999997,10.312000000000001,-1.865,-1
1195,1196,1582724965615,0.34810472,1.1805391,-2.6385326,3.355,10.504000000000001,-2.189,-1
1196,1197,1582724965626,0.83409953,1.2975283000000002,-1.8578648999999998,3.865,10.614,-1.425,-1
1197,1198,1582724965636,1.246707,1.2509270000000001,-0.5198614,4.301,10.559000000000001,-0.071,-1
1198,1199,1582724965646,1.0047493,1.4002228,0.5987246999999999,4.071000000000001,10.703,1.075,-1
1199,1200,1582724965656,0.5415260999999999,1.5994482,1.0091276,3.6060000000000003,10.902000000000001,1.501,-1
1200,1201,1582724965667,0.7358434,1.7246552,0.683198,3.7960000000000003,11.029000000000002,1.168,-1
1201,1202,1582724965677,0.6283581,1.7606401000000003,-0.201125,3.681,11.069,0.253,-1
1202,1203,1582724965688,0.65567374,1.7080832,-0.9988023000000001,3.7,11.020999999999999,-0.584,-1
1203,1204,1582724965698,0.7901001,1.388876,-1.4582045,3.8289999999999997,10.705,-1.077,-1
1204,1205,1582724965708,0.7471547,1.3345747,-1.1048715,3.781,10.652999999999999,-0.74,-1
1205,1206,1582724965719,0.39686012,1.1928796999999998,-0.47034496,3.4219999999999997,10.514000000000001,-0.102,d
1206,1207,1582724965729,0.34616995,1.0050993000000001,0.30899867,3.36,10.329,0.6990000000000001,-1
1207,1208,1582724965739,0.20830369,0.88234615,0.83302474,3.2089999999999996,10.209,1.2570000000000001,-1
1208,1209,1582724965750,0.42321348,0.9950351999999999,0.9544475,3.403,10.327,1.4080000000000001,-1
1209,1210,1582724965759,0.4604621,0.90628624,0.6309279999999999,3.432,10.241,1.082,-1
1210,1211,1582724965769,0.24534297,0.9479494,-0.22500347,3.194,10.290999999999999,0.203,-1
1211,1212,1582724965779,-0.20552588,0.9612198000000001,-0.9777858,2.708,10.317,-0.589,-1
1212,1213,1582724965789,-0.4068737,0.72013474,-1.1851459,2.4659999999999997,10.09,-0.835,-1
1213,1214,1582724965800,-0.28839207,0.6012725999999999,-0.99965054,2.545,9.984,-0.6729999999999999,-1
1214,1215,1582724965809,-0.20553659999999999,0.5279235999999999,-0.34673294,2.596,9.92,-0.013999999999999999,-1
1215,1216,1582724965819,-0.22959423,0.3250847,0.36951455,2.5380000000000003,9.726,0.735,-1
1216,1217,1582724965829,-0.15363670000000001,0.37359428,0.39798096,2.5810000000000004,9.783,0.792,-1
1217,1218,1582724965839,-0.2685628,0.26241970000000003,0.19493195,2.426,9.683,0.598,-1
1218,1219,1582724965850,-0.5074916,0.2950095999999999,-0.32899317,2.129,9.732999999999999,0.05,-1
1219,1220,1582724965860,-0.28335285,0.24544334,-0.9119296999999998,2.3040000000000003,9.699,-0.586,-1
1220,1221,1582724965870,-0.22109604,0.14079475,-1.0044978,2.323,9.607999999999999,-0.74,-1
1221,1222,1582724965880,-0.24500418,0.023647308,-0.9165097,2.251,9.505,-0.706,-1
1222,1223,1582724965890,-0.49156737,-0.17248535,-0.5680015,1.9509999999999998,9.323,-0.368,-1
1223,1224,1582724965900,-0.7598828000000001,-0.43572903,-0.22722234,1.633,9.072000000000001,-0.009000000000000001,-1
1224,1225,1582724965910,-0.86867905,-0.65071774,0.26761112,1.4769999999999999,8.868,0.517,-1
1225,1226,1582724965920,-1.2064567,-1.0851993999999998,0.93695986,1.092,8.443999999999999,1.2229999999999999,-1
1226,1227,1582724965931,-1.5065336,-1.4406986000000002,1.6672619999999998,0.7440000000000001,8.099,1.983,-1
1227,1228,1582724965941,-1.7392418,-1.8192539,1.9931782,0.46399999999999997,7.731,2.323,-1
1228,1229,1582724965951,-2.812668,-2.150261,2.0546403000000004,-0.682,7.417000000000001,2.3680000000000003,-1
1229,1230,1582724965961,-3.238257,-2.4716702,1.8745744,-1.41,6.749,1.932,-1
1230,1231,1582724965972,-3.8219051,-3.1485572,1.3728645000000002,-1.75,6.433,1.64,-1
1231,1232,1582724965982,-4.1014349999999995,-4.2361765,0.49711645,-2.057,5.352,0.737,-1
1232,1233,1582724965992,-4.327996,-5.420763,1.1416178,-2.2840000000000003,4.167,1.401,-1
1233,1234,1582724966002,-4.421821,-5.936091,1.8108705000000003,-2.373,3.65,2.093,-1
1234,1235,1582724966012,-5.120657,-7.636735000000001,5.311783,-3.0410000000000004,1.939,5.7,-1
1235,1236,1582724966023,-5.761442,-8.413044000000001,7.369339,-3.6710000000000003,1.1540000000000001,7.891,-1
1236,1237,1582724966033,-5.8156013,-8.768502999999999,8.771522000000001,-3.8,0.787,9.666,-1
1237,1238,1582724966043,-5.642496599999999,-8.971243,9.256989,-3.614,0.5720000000000001,10.248,-1
1238,1239,1582724966054,-6.2036877,-9.237384,9.788712,-4.119,0.28,10.904000000000002,-1
1239,1240,1582724966064,-7.514414,-9.884321,10.368361,-5.3,-0.409,11.587,-1
1240,1241,1582724966074,-7.5222864000000005,-10.738996,9.943023,-5.185,-1.3,11.213,-1
1241,1242,1582724966084,-6.544471,-10.967556,8.881418,-4.064,-1.578,10.243,-1
1242,1243,1582724966095,-4.988886,-10.519207000000002,8.028181,-2.3680000000000003,-1.216,9.687000000000001,-1
1243,1244,1582724966105,-2.9564042,-9.480729,7.406246,-0.141,-0.371,9.699,-1
1244,1245,1582724966115,-0.8191196999999999,-8.947619,6.3335485,2.287,0.027999999999999997,8.775,-1
1245,1246,1582724966125,1.2016892,-8.200938,4.137023,4.593,0.68,6.545,-1
1246,1247,1582724966135,2.4161797000000003,-7.471288,1.562582,6.082999999999999,1.3219999999999998,3.887,-1
1247,1248,1582724966146,3.5377815000000004,-6.598498299999999,-0.7537198,7.484,2.095,1.4869999999999999,-1
1248,1249,1582724966156,3.9586434,-4.802214599999999,-1.6035801,8.234,3.748,0.584,-1
1249,1250,1582724966166,4.4595985,-3.2126946,-2.0097568,9.216000000000001,5.091,0.134,-1
1250,1251,1582724966176,5.7408996,-1.6224976,-1.7200366999999999,10.775,6.507000000000001,0.457,-1
1251,1252,1582724966186,7.4445357,-0.32182790000000006,-2.0609531000000003,12.727,7.635,0.165,-1
1252,1253,1582724966196,8.891509,0.45933914,-3.5027823,14.408,8.246,-1.2429999999999999,-1
1253,1254,1582724966207,9.914942,1.4114909,-5.095791,16.214000000000002,9.714,-3.8360000000000003,-1
1254,1255,1582724966217,11.096722,2.9277252999999996,-7.1335429999999995,17.033,10.389000000000001,-4.84,-1
1255,1256,1582724966227,13.663456,4.428693,-9.0026,19.79,11.725999999999999,-6.682,-1
1256,1257,1582724966237,15.7062645,6.1466184,-10.520093,22.592,14.100999999999999,-8.452,-1
1257,1258,1582724966247,16.216808,7.6072793,-10.529202,22.706999999999997,14.527999999999999,-8.049,-1
1258,1259,1582724966257,15.037970000000001,7.8267975000000005,-9.815846,21.615,14.633,-7.249,-1
1259,1260,1582724966268,14.406445000000001,7.7991633,-9.551238,21.018,14.556,-6.943,-1
1260,1261,1582724966278,14.947222,8.085155499999999,-10.590703,21.646,14.717,-7.886,-1
1261,1262,1582724966288,16.051251999999998,8.198777999999999,-12.607353,22.8,14.765,-9.867,-1
1262,1263,1582724966298,17.345,8.038065,-14.2591505,24.134,14.556,-11.503,-1
1263,1264,1582724966308,17.525833,7.7697460000000005,-15.476604,24.338,14.262,-12.717,-1
1264,1265,1582724966319,16.290932,7.0574594,-15.751345,23.104,13.550999999999998,-12.997,-1
1265,1266,1582724966329,14.51905,6.0826263,-14.858551,21.315,12.602,-12.123,-1
1266,1267,1582724966339,12.369216999999999,5.088234,-14.496626999999998,19.136,11.654000000000002,-11.8,-1
1267,1268,1582724966349,10.439813000000001,3.6908565,-15.069473,17.169,10.317,-12.427,-1
1268,1269,1582724966359,8.892211999999999,2.4681373,-15.302848000000001,15.581,9.158,-12.719000000000001,-1
1269,1270,1582724966370,7.892855,1.1363158000000002,-14.720025,14.542,7.886,-12.19,-1
1270,1271,1582724966380,6.986186,-0.3701687,-13.299198,13.597999999999999,6.433,-10.815,-1
1271,1272,1582724966390,5.877326999999999,-1.8465151999999998,-11.126489999999999,12.458,5.005,-8.693,-1
1272,1273,1582724966400,4.7335577,-3.0605845,-9.183327,11.297,3.8360000000000003,-6.832000000000001,-1
1273,1274,1582724966410,3.5312753,-4.187689,-8.582592,10.099,2.7489999999999997,-6.365,-1
1274,1275,1582724966421,2.1915478999999998,-5.145951999999999,-8.535658,8.801,1.815,-6.528,-1
1275,1276,1582724966430,0.58297443,-6.042828,-8.3024235,7.357,0.871,-6.727,-1
1276,1277,1582724966440,-0.39663982,-6.7522616,-7.599514999999999,6.476,0.134,-6.367999999999999,-1
1277,1278,1582724966450,-1.1368284,-7.4684467,-6.508551000000001,5.74,-0.562,-5.422000000000001,-1
1278,1279,1582724966460,-1.732048,-8.136737,-4.9352503,5.1339999999999995,-1.207,-3.932,-1
1279,1280,1582724966470,-2.0575333,-8.708299,-4.0102844,4.803999999999999,-1.765,-3.072,-1
1280,1281,1582724966481,-2.3556513999999997,-8.960915,-3.4897327000000007,4.512,-2.016,-2.61,-1
1281,1282,1582724966491,-2.7464557000000003,-9.151392,-2.9489875,4.138,-2.217,-2.119,-1
1282,1283,1582724966501,-2.713142,-9.11016,-2.7688446,4.184,-2.186,-1.959,-1
1283,1284,1582724966511,-3.2743703999999996,-8.812542,-0.8651042999999999,3.673,-1.935,-0.08800000000000001,-1
1284,1285,1582724966521,-3.6923957,-8.649006,1.2507002,3.2969999999999997,-1.815,2.035,-1
1285,1286,1582724966531,-4.4967885,-9.118017,3.5259986000000003,2.541,-2.3369999999999997,4.337,-1
1286,1287,1582724966542,-5.35544,-9.899736,5.909979,1.745,-3.1919999999999997,6.782,-1
1287,1288,1582724966552,-6.128472299999999,-10.293407,7.684837299999999,1.1179999999999999,-3.827,9.043,-1
1288,1289,1582724966562,-6.677048700000001,-10.493829,10.13369,0.675,-4.181,11.639000000000001,-1
1289,1290,1582724966572,-7.181633000000001,-9.967713999999999,11.813114,0.285,-3.81,13.395,-1
1290,1291,1582724966582,-7.25427,-9.107477000000001,13.775873,0.344,-3.13,15.421,-1
1291,1292,1582724966592,-6.462487,-8.056361,16.12446,1.2830000000000001,-2.292,17.842,-1
1292,1293,1582724966603,-5.0736989999999995,-7.102597,19.053255,2.8280000000000003,-1.585,20.866999999999997,-1
1293,1294,1582724966613,-3.473908,-6.4033747000000005,22.107862,4.584,-1.159,24.041,-1
1294,1295,1582724966623,-1.8634471999999997,-5.859474,24.533901,6.343999999999999,-0.902,26.590999999999998,-1
1295,1296,1582724966633,-0.8055434,-5.140183,25.463684,7.541,-0.467,27.624000000000002,-1
1296,1297,1582724966643,-0.8019204000000001,-3.9156647000000007,23.933674,7.671,0.488,26.166999999999998,-1
1297,1298,1582724966653,-1.1954354999999999,-2.3419647,21.31654,7.391,1.805,23.607,-1
1298,1299,1582724966663,-1.03437,-1.3013077,19.453552,7.654,2.589,21.809,-1
1299,1300,1582724966673,-0.34352207,-0.17715096,19.116453,8.435,3.446,21.561999999999998,-1
1300,1301,1582724966683,0.8298073,0.32480929999999997,19.204342,9.685,3.6689999999999996,21.768,-1
1301,1302,1582724966694,2.4561195,0.6733253,19.092516,11.373,3.733,21.794,-1
1302,1303,1582724966704,4.3498497,1.6389265,18.057121,13.311,4.416,20.913,-1
1303,1304,1582724966714,7.2135105,2.6497450000000002,16.676952,16.199,5.151,19.706,-1
1304,1305,1582724966725,9.958902,4.089651,14.647267000000001,18.947,6.334,17.864,-1
