,Seq,Time,ACCx,ACCy,ACCz,ADGx,ADGy,ADGz,Keydown
0,1,1582725247579,2.7818713,0.61727166,-1.4267626,9.826,2.641,5.0889999999999995,-1
1,2,1582725247590,2.7818713,0.61727166,-1.4267626,0.203,9.35,0.37799999999999995,-1
2,3,1582725247600,-0.1402447,-0.030638695,0.34298235,-0.006999999999999999,9.754,0.986,-1
3,4,1582725247611,-0.32661042,-0.14572334,0.87038964,-0.301,9.426,2.04,-1
4,5,1582725247621,-0.6514918000000001,-0.46396732,1.9220221000000002,-0.579,9.314,2.668,-1
5,6,1582725247631,-0.38754556,-0.3522358,2.7409407999999997,-0.32299999999999995,9.422,3.535,-1
6,7,1582725247642,0.047177404000000006,-0.23853016,3.2062244,0.11199999999999999,9.533999999999999,4.021,-1
7,8,1582725247652,1.1493566000000002,-0.14262295,3.8142278,1.216,9.627,4.663,-1
8,9,1582725247662,1.339745,-0.048734665,3.4982437999999996,1.403,9.721,4.346,-1
9,10,1582725247673,1.4410309,-0.24744987,2.871105,1.329,9.491,3.1630000000000003,-1
10,11,1582725247683,1.0574951000000001,-0.26427078,1.9888810000000001,1.072,9.51,2.785,-1
11,12,1582725247693,-0.02581792,-0.33736324,0.89275277,-0.081,9.441,1.635,-1
12,13,1582725247703,-0.544953,-0.37239647,0.79197794,-0.627,9.407,1.518,-1
13,14,1582725247714,-1.4977878,-0.41842937,1.3222497,-1.6569999999999998,9.362,2.021,-1
14,15,1582725247724,-1.6250658000000002,-0.6196995,1.8880861,-1.827,9.16,2.5860000000000003,-1
15,16,1582725247734,-1.5980313999999998,-0.7191553,2.2876053,-1.817,9.06,2.988,-1
16,17,1582725247744,-1.3741994,-0.8788767,2.3615277000000003,-1.6280000000000001,8.899,3.068,-1
17,18,1582725247755,-1.03968,-1.0679493,2.2426437999999997,-1.3019999999999998,8.71,2.945,-1
18,19,1582725247765,-0.8986093,-1.1231937,2.105004,-1.166,8.655,2.802,-1
19,20,1582725247775,-0.9171374,-1.0752363,2.0426946,-1.19,8.703,2.737,-1
20,21,1582725247785,-1.1662046,-1.1489115,2.2307023999999998,-1.4480000000000002,8.629,2.926,-1
21,22,1582725247796,-1.3657843,-1.381299,2.8038627999999997,-1.659,8.396,3.503,-1
22,23,1582725247806,-2.193163,-1.6455126,3.1685874,-2.502,8.131,3.872,-1
23,24,1582725247816,-2.6632279999999997,-1.8827405,3.4840332999999997,-2.988,7.893,4.191,-1
24,25,1582725247826,-2.8681242,-2.2129025,3.690118,-3.199,7.563,4.3919999999999995,-1
25,26,1582725247836,-2.8923585,-2.449417,3.5330733999999997,-3.216,7.327999999999999,4.217,-1
26,27,1582725247847,-2.9130982999999997,-2.5118756,3.0501614,-3.218,7.268,3.707,-1
27,28,1582725247857,-2.835947,-3.0386825,2.8374057,-3.111,6.744,3.465,-1
28,29,1582725247868,-2.7385683,-3.2212124,2.6191714,-2.9739999999999998,6.564,3.2230000000000003,-1
29,30,1582725247878,-2.7013574,-3.683529,2.854437,-2.866,6.104,3.444,-1
30,31,1582725247888,-2.7937226,-4.0188637,2.9124684,-2.9330000000000003,5.769,3.503,-1
31,32,1582725247898,-3.0781806,-4.677906500000001,3.780367,-3.1660000000000004,5.11,4.38,-1
32,33,1582725247909,-3.9859242,-5.9294252,4.621239,-3.992,3.858,5.235,-1
33,34,1582725247919,-4.3675976,-6.698639999999999,4.4647937,-4.306,3.089,5.072,-1
34,35,1582725247929,-4.5044174,-6.961911,4.41976,-4.402,2.826,5.0169999999999995,-1
35,36,1582725247940,-3.9716864000000003,-7.2112474,3.907712,-3.7689999999999997,2.577,4.473,-1
36,37,1582725247950,-3.3678167,-7.678833999999999,2.8182318,-2.9739999999999998,2.1069999999999998,3.321,-1
37,38,1582725247960,-3.8809562000000004,-7.3507679999999995,1.9858625,-3.341,2.43,2.45,-1
38,39,1582725247970,-4.7028623,-7.452133,1.5659161,-4.006,2.32,2.002,-1
39,40,1582725247981,-5.276799700000001,-8.402453,1.6130415,-4.4110000000000005,1.357,2.03,-1
40,41,1582725247991,-5.3664017,-9.492772,1.5216875,-4.313,0.249,1.92,-1
41,42,1582725248001,-5.372471,-10.243675,0.94175565,-4.109,-0.526,1.317,-1
42,43,1582725248011,-4.699699,-10.882244,0.1608175,-3.202,-1.197,0.512,-1
43,44,1582725248022,-3.693439,-11.049782,-0.52911466,-1.935,-1.4080000000000001,-0.191,-1
44,45,1582725248031,-2.1970735,-11.039334,-0.58303344,-0.146,-1.456,-0.23199999999999998,-1
45,46,1582725248041,-0.5791545,-10.730172999999999,0.05083909599999999,1.7930000000000001,-1.2229999999999999,0.447,-1
46,47,1582725248051,0.9853864,-10.29342,0.80084914,3.697,-0.8809999999999999,1.274,-1
47,48,1582725248061,2.1836047,-10.068103,1.8025767,5.24,-0.768,2.383,-1
48,49,1582725248072,3.0532825,-9.830504,1.8156082999999998,6.449,-0.6579999999999999,2.526,-1
49,50,1582725248082,3.2566564,-9.691599,0.9980087,6.976,-0.6579999999999999,1.8530000000000002,-1
50,51,1582725248092,3.0898504,-9.441432,-0.780977,7.1129999999999995,-0.555,0.22699999999999998,-1
51,52,1582725248102,2.925353,-8.543408,-1.8191655,7.242000000000001,0.184,-0.649,-1
52,53,1582725248113,3.2866168,-7.635591000000001,-2.4349303,7.903,0.912,-1.094,-1
53,54,1582725248123,4.173899700000001,-6.9979863,-2.0235282999999997,9.129,1.329,-0.514,-1
54,55,1582725248133,4.6550627,-6.3660616999999995,-1.4715527,10.062999999999999,1.645,0.18600000000000003,-1
55,56,1582725248143,5.4248223,-6.174563,-1.6161244,11.163,1.5659999999999998,0.20800000000000002,-1
56,57,1582725248153,7.309172599999999,-5.8267627,-2.4331286,13.34,1.6380000000000001,-0.414,-1
57,58,1582725248163,9.124260000000001,-4.788869999999999,-4.0252943,15.414000000000001,2.385,-1.757,-1
58,59,1582725248173,10.489335,-3.3139756,-4.9167566,17.002,3.549,-2.3369999999999997,-1
59,60,1582725248183,12.253513,-1.6419506000000001,-4.6983,18.954,4.888,-1.76,-1
60,61,1582725248194,14.003418,-0.37201690000000004,-3.5047638,20.858,5.81,-0.193,-1
61,62,1582725248203,14.959762,0.21184158,-2.0436099999999997,21.935,6.0489999999999995,1.6230000000000002,-1
62,63,1582725248213,14.109695,0.49293423,-0.4138286,21.174,6.0089999999999995,3.5660000000000003,-1
63,64,1582725248223,12.029622,0.19749117,0.72641087,19.164,5.4270000000000005,4.96,-1
64,65,1582725248233,10.767066999999999,0.45797825,0.49540758,17.972,5.4270000000000005,4.919,-1
65,66,1582725248243,11.568605,1.7303824,-0.51942587,18.86,6.442,4.042,-1
66,67,1582725248253,13.759378,2.9770627,-1.1101518,21.15,7.422000000000001,3.5580000000000003,-1
67,68,1582725248264,16.06113,4.065653,-1.5472138,23.543000000000003,8.238,3.2260000000000004,-1
68,69,1582725248274,17.831028,4.8678017,-1.5436212999999999,25.375,8.772,3.3569999999999998,-1
69,70,1582725248284,18.394385999999997,5.125452,-1.0272999,25.965999999999998,8.78,4.021,-1
70,71,1582725248294,17.465107,4.689255,-0.13239002,25.044,8.123,5.058,-1
71,72,1582725248305,16.118603,4.688542,1.5628057,23.708000000000002,7.928999999999999,6.861000000000001,-1
72,73,1582725248314,15.760422,4.786357,3.6038485000000002,23.381999999999998,7.853,8.959,-1
73,74,1582725248324,16.193035000000002,5.1439322999999995,5.3061123,23.871,8.056000000000001,10.667,-1
74,75,1582725248334,16.150408,5.776956,6.353441,23.899,8.566,11.677999999999999,-1
75,76,1582725248344,15.656814,6.222188500000001,7.092981299999999,23.478,8.926,12.355,-1
76,77,1582725248355,15.1387615,6.158099,7.316669500000001,23.025,8.812999999999999,12.505999999999998,-1
77,78,1582725248365,14.601951999999999,6.084078,7.6460384999999995,22.541,8.722000000000001,12.763,-1
78,79,1582725248375,14.567506,5.6899343,7.923595,22.546,8.339,12.972999999999999,-1
79,80,1582725248385,13.204046,5.084193,9.337616,21.224,7.807,14.280999999999999,-1
80,81,1582725248395,12.429331,5.097027,9.819583999999999,20.46,7.862,14.722000000000001,-1
81,82,1582725248406,10.92448,4.662087400000001,10.943336500000001,18.975,7.537000000000001,15.749,-1
82,83,1582725248416,8.697761,3.9247017,12.39617,16.777,7.026,17.009,-1
83,84,1582725248426,7.445755999999999,3.2241292,12.595766000000001,15.538,6.5120000000000005,17.054000000000002,-1
84,85,1582725248436,7.0039815999999995,2.926157,12.6563,15.097999999999999,6.315,17.035,-1
85,86,1582725248446,6.233957299999999,2.2818918,12.502406,14.315,5.882000000000001,16.734,-1
86,87,1582725248457,5.403804,1.5413219999999999,13.444092000000001,13.415999999999999,5.4670000000000005,17.514,-1
87,88,1582725248467,4.75009,0.8625474,15.936176999999999,12.687999999999999,5.01,19.930999999999997,-1
88,89,1582725248477,3.7881746,0.018316269,18.273386,11.639000000000001,4.404,22.185,-1
89,90,1582725248487,2.7290277,-0.8030801,19.12754,10.485,3.8480000000000003,22.92,-1
90,91,1582725248497,2.190477,-1.3035381000000001,18.921124,9.896,3.491,22.636999999999997,-1
91,92,1582725248508,0.6591139,-2.1389222,16.565160000000002,8.195,3.113,20.0,-1
92,93,1582725248518,-0.039591312000000004,-2.591196,14.885238000000001,7.364,2.967,18.12,-1
93,94,1582725248528,-0.11846876,-2.8963007999999997,13.701073999999998,7.1370000000000005,2.9530000000000003,16.753,-1
94,95,1582725248538,-0.18321943,-3.1570666000000003,13.324263,6.909,2.965,16.221,-1
95,96,1582725248549,-0.009086609,-3.5224934,13.392992000000001,6.909,2.8539999999999996,16.159000000000002,-1
96,97,1582725248559,0.56511116,-4.1288523999999995,13.00487,7.3020000000000005,2.488,15.651,-1
97,98,1582725248569,0.68343353,-4.610218,12.326386999999999,7.23,2.241,14.850999999999999,-1
98,99,1582725248579,0.5026612,-5.2371626,11.810771,6.849,1.844,14.209000000000001,-1
99,100,1582725248590,-0.12501049,-5.6806207,11.172372,6.011,1.626,13.437999999999999,-1
100,101,1582725248599,-1.3486428,-5.8367379999999995,10.877079,4.567,1.69,13.004000000000001,-1
101,102,1582725248609,-1.854943,-6.5419436,10.144186,3.839,1.192,12.128,-1
102,103,1582725248619,-2.1969872,-7.256562700000001,8.669217999999999,3.283,0.6579999999999999,10.54,-1
103,104,1582725248629,-2.3720565,-7.469261599999999,6.999096000000001,2.909,0.581,8.863,-1
104,105,1582725248640,-2.2464437000000004,-7.7588843999999995,5.042707,2.8280000000000003,0.455,6.761,-1
105,106,1582725248650,-1.7824845,-8.158303,3.2838871,3.091,0.205,4.857,-1
106,107,1582725248660,-1.7522166000000001,-8.124266,2.0419064,2.924,0.373,3.491,-1
107,108,1582725248671,-2.2101164,-8.277064,1.4273821000000002,2.27,0.342,2.773,-1
108,109,1582725248681,-3.2303197,-8.632606,1.3342454,1.056,0.098,2.589,-1
109,110,1582725248691,-3.9849067000000002,-8.72916,1.4097953,0.11699999999999999,0.102,2.574,-1
110,111,1582725248701,-3.8411236000000004,-8.599152,0.93084896,0.095,0.32,1.992,-1
111,112,1582725248712,-3.7584918,-8.320791999999999,-0.18919134,0.031,0.675,0.752,-1
112,113,1582725248722,-3.6329464999999996,-7.668182000000001,-1.8651723999999998,0.027999999999999997,1.393,-1.051,-1
113,114,1582725248732,-3.3596292,-7.220928,-3.3809117999999994,0.191,1.8940000000000001,-2.687,-1
114,115,1582725248742,-3.1505167000000003,-6.735138,-4.433795,0.306,2.423,-3.841,-1
115,116,1582725248752,-2.876814,-6.438481299999999,-4.756553,0.5,2.7539999999999996,-4.2410000000000005,-1
116,117,1582725248763,-2.3143425,-6.038989,-4.7361894,0.998,3.18,-4.279,-1
117,118,1582725248773,-1.7281721999999997,-5.597118,-4.6010776,1.508,3.6519999999999997,-4.212,-1
118,119,1582725248783,-1.5072775,-5.325599700000001,-4.750286,1.7069999999999999,3.932,-4.382,-1
119,120,1582725248793,-1.1609079,-4.876922,-5.199678400000001,1.992,4.404,-4.893,-1
120,121,1582725248803,-1.6247418,-4.8328614000000005,-5.2039375,1.484,4.4639999999999995,-4.931,-1
121,122,1582725248813,-2.0265386000000003,-4.6856046,-4.8037257,1.06,4.619,-4.543,-1
122,123,1582725248823,-2.3926515999999998,-4.6455584000000005,-3.677423,0.6559999999999999,4.672,-3.4339999999999997,-1
123,124,1582725248833,-2.4463072,-4.339641599999999,-2.8293482999999995,0.579,4.986000000000001,-2.605,-1
124,125,1582725248843,-1.6383023,-3.8772373,-3.279482,1.381,5.4510000000000005,-3.0839999999999996,-1
125,126,1582725248853,-0.4358883,-3.47082,-3.7990227,2.593,5.855,-3.64,-1
126,127,1582725248864,0.49241328,-2.982009,-4.166582,3.5439999999999996,6.337000000000001,-4.047,-1
127,128,1582725248874,0.71786046,-2.2493854,-3.8044038000000002,3.8,7.06,-3.7260000000000004,-1
128,129,1582725248884,0.43752527,-1.7515116000000002,-3.2923722,3.5469999999999997,7.5489999999999995,-3.247,-1
129,130,1582725248894,0.61128974,-1.4617772,-2.7666066000000002,3.75,7.829,-2.747,-1
130,131,1582725248904,0.666281,-1.3102631999999999,-2.4017386000000003,3.8360000000000003,7.97,-2.406,-1
131,132,1582725248914,0.70405674,-1.2341423,-1.9488134,4.131,8.186,-1.722,-1
132,133,1582725248925,0.892329,-0.63923454,-1.4966881,4.172,8.602,-1.614,-1
133,134,1582725248935,0.83264804,-0.37253379999999997,-1.6856787,4.169,8.847000000000001,-1.8840000000000001,-1
134,135,1582725248945,0.7728307,-0.30320835,-1.498524,4.133,8.907,-1.726,-1
135,136,1582725248955,0.7735615,-0.15612984,-1.1165091999999999,4.176,9.038,-1.365,-1
136,137,1582725248965,0.8153796,-0.029845238,-0.4570617,4.263,9.148,-0.684,-1
137,138,1582725248975,0.67528725,0.009781837,0.16025826,4.066,9.225,0.313,-1
138,139,1582725248985,0.5804074,0.25521183,0.55728084,4.107,9.405,0.435,-1
139,140,1582725248995,1.0369458,0.60738087,0.4594391,4.596,9.745,0.373,d
140,141,1582725249005,1.3555218999999998,0.6721630000000001,0.20746717,4.945,9.798,0.136,-1
141,142,1582725249015,1.4326062,0.7285756999999999,0.11969114,5.046,9.845,0.052000000000000005,-1
142,143,1582725249025,1.3028102,0.7042475,0.20833049999999997,4.933,9.814,0.141,-1
143,144,1582725249035,0.9423828000000002,0.60579014,0.45162708,4.584,9.711,0.387,-1
144,145,1582725249046,0.29767323,0.87280846,0.7967871999999999,3.9419999999999997,9.977,0.742,-1
145,146,1582725249056,-0.07500291,0.9089421999999998,1.344417,3.57,10.013,1.3219999999999998,-1
146,147,1582725249066,0.072227,0.95343494,1.5308899999999999,3.7260000000000004,10.054,1.537,-1
147,148,1582725249076,0.40095234,0.9770508,1.9042326,4.071000000000001,10.071,1.939,-1
148,149,1582725249086,0.550998,0.8192625,1.740564,4.2410000000000005,9.905,1.801,-1
149,150,1582725249097,0.902349,0.8955889000000001,1.3707623,4.615,9.972000000000001,1.444,-1
150,151,1582725249107,1.1732605,1.1872406,0.94705105,4.907,10.255,1.02,-1
151,152,1582725249117,1.2616713,1.1840458,0.7758145000000001,5.012,10.245,0.843,-1
152,153,1582725249128,1.2268493,1.0264893,0.72362524,4.988,10.083,0.785,-1
153,154,1582725249138,0.9591527,1.0444441,0.94823474,4.725,10.099,1.01,-1
154,155,1582725249148,0.8621681000000001,0.93991756,1.2917545,4.629,9.994,1.3619999999999999,-1
155,156,1582725249158,0.533365,0.71957684,1.577767,4.2989999999999995,9.774,1.666,-1
156,157,1582725249169,0.21745968,0.7995138,1.7851206000000002,3.98,9.855,1.8940000000000001,-1
157,158,1582725249180,0.21369386,0.87110615,1.7578665,3.975,9.927,1.875,-1
158,159,1582725249190,0.23611903,0.6420784,1.7162828,3.9989999999999997,9.697000000000001,1.8559999999999999,-1
159,160,1582725249200,0.3246386,0.6982012,1.4584985000000001,4.09,9.752,1.604,-1
160,161,1582725249210,0.29198122,0.554904,1.2977498,4.059,9.607999999999999,1.444,-1
161,162,1582725249221,0.40322185,0.56755066,0.90794206,4.172,9.62,1.0490000000000002,-1
162,163,1582725249231,0.46871709999999994,0.5560188,0.55661416,4.239,9.607999999999999,0.687,-1
163,164,1582725249241,0.51775503,0.44924830000000004,0.18615511,4.289,9.501,0.304,-1
164,165,1582725249251,0.39250898,0.28324509999999997,-0.026611887,4.164,9.335,0.083,-1
165,166,1582725249261,0.1018672,0.450675,0.31539792,3.867,9.505,0.431,-1
166,167,1582725249271,0.05785179,0.51466465,0.79344445,3.815,9.572000000000001,0.9309999999999999,-1
167,168,1582725249282,-0.06276798,0.4386568,1.2975716999999998,3.688,9.498,1.472,-1
168,169,1582725249292,-0.24248981,0.33970737,1.6324027,3.4989999999999997,9.402000000000001,1.848,-1
169,170,1582725249302,-0.17855620000000003,0.28891754,1.5786628,3.554,9.354,1.829,-1
170,171,1582725249313,-0.16603565,0.15198803,1.1563586000000001,3.556,9.22,1.453,-1
171,172,1582725249323,-0.059849262,0.25814915,0.85362947,3.657,9.328,1.159,-1
172,173,1582725249333,-0.043940783,0.3883772,0.52578604,3.6689999999999996,9.46,0.826,-1
173,174,1582725249343,0.06708336,0.32584858,0.39216107,3.779,9.398,0.6890000000000001,-1
174,175,1582725249353,0.0191226,0.43970966,0.07921755,3.7239999999999998,9.515,0.368,-1
175,176,1582725249364,0.032591105,0.31723595,0.14409304,3.7310000000000003,9.395,0.43799999999999994,-1
176,177,1582725249374,-0.09140134,0.1547594,0.5488869000000001,3.5989999999999998,9.235,0.866,-1
177,178,1582725249384,-0.26111007,0.07381344,1.0107338,3.415,9.158,1.3769999999999998,-1
178,179,1582725249394,-0.28417826,0.033852577,1.1390572,3.384,9.12,1.535,-1
179,180,1582725249404,-0.45532559999999994,0.09961510000000001,1.4889278000000001,3.187,9.192,1.9709999999999999,-1
180,181,1582725249415,-0.59097815,0.120903015,1.4887402,3.034,9.218,2.011,-1
181,182,1582725249425,-0.50426793,0.10980606,1.0160897,3.1060000000000003,9.211,1.568,-1
182,183,1582725249435,-0.3673265,0.16712475,0.5604243,3.235,9.271,1.12,-1
183,184,1582725249445,-0.102525234,0.11893844599999999,0.17427713,3.5010000000000003,9.222999999999999,0.723,-1
184,185,1582725249456,0.0034089088000000003,0.23085022,-0.11973515,3.614,9.333,0.414,-1
185,186,1582725249466,0.29979515,0.33050346,0.08208752,3.92,9.429,0.613,-1
186,187,1582725249476,0.35527040000000004,0.30618763,0.18063729999999997,3.9819999999999998,9.402000000000001,0.713,-1
187,188,1582725249487,0.11246085,0.33987140000000005,0.500397,3.745,9.433,1.0390000000000001,-1
188,189,1582725249497,-0.027739286000000002,0.5368967,0.79162014,3.6039999999999996,9.63,1.3359999999999999,-1
189,190,1582725249507,-0.20039153,0.43322754,0.9791614,3.429,9.527000000000001,1.528,-1
190,191,1582725249517,-0.056265116,0.38797474,0.9311743,3.575,9.481,1.48,-1
191,192,1582725249527,0.02388668,0.38207436,0.538482,3.659,9.474,1.08,-1
192,193,1582725249538,-0.08160519599999999,0.32129383,0.34627622,3.5580000000000003,9.412,0.878,-1
193,194,1582725249548,-0.08383012,0.2891817,0.31678979999999995,3.5610000000000004,9.378,0.845,-1
194,195,1582725249558,0.05102229,0.35291862,0.25769496,3.705,9.437999999999999,0.787,-1
195,196,1582725249569,0.30285358,0.55173874,0.44223379999999995,3.968,9.632,0.977,-1
196,197,1582725249579,0.41428159999999997,0.6425266,0.6276337,4.09,9.718,1.171,-1
197,198,1582725249589,0.33315754,0.51681805,0.924903,4.016,9.589,1.475,-1
198,199,1582725249599,0.27982807,0.5378399,0.8143041,3.968,9.607999999999999,1.3619999999999999,-1
199,200,1582725249610,0.056324244,0.5124483,0.4860223,3.748,9.582,1.02,-1
200,201,1582725249620,-0.07425904,0.49237250000000005,0.12279236,3.6180000000000003,9.562999999999999,0.634,-1
201,202,1582725249630,-0.25120187,0.42603874,0.08461106,3.4410000000000003,9.498,0.5720000000000001,-1
202,203,1582725249640,-0.29009962,0.40655136,0.35474029999999995,3.403,9.479,0.826,-1
203,204,1582725249651,-0.08068204,0.5488261999999999,0.004171133,3.623,9.618,0.455,d
204,205,1582725249661,0.06811929,0.48457718,0.00305292,3.779,9.551,0.45,-1
205,206,1582725249672,0.22251177,0.45306587,0.3033765,3.949,9.513,0.752,-1
206,207,1582725249682,0.40866113,0.44262886,0.74949217,4.157,9.493,1.209,-1
207,208,1582725249692,0.2562766,0.5893955,0.8946715000000001,4.016,9.635,1.355,-1
208,209,1582725249702,0.15806627,0.57084846,0.92120945,3.927,9.613,1.374,-1
209,210,1582725249713,-0.08884525,0.55472755,0.7988923000000001,3.6830000000000003,9.596,1.245,-1
210,211,1582725249723,-0.11691093400000001,0.5576477,0.12390527,3.6660000000000004,9.596,0.534,-1
211,212,1582725249733,0.24340677,0.59683704,-0.30420846,4.042,9.63,0.07400000000000001,-1
212,213,1582725249743,0.7114613000000001,0.5905590000000001,-0.68260676,4.531000000000001,9.616,-0.332,-1
213,214,1582725249753,0.8513615,0.5624752,-0.7653850999999999,4.691,9.58,-0.431,-1
214,215,1582725249763,0.7331481,0.54590416,-0.45840943,4.581,9.56,-0.126,-1
215,216,1582725249773,0.41259718,0.6500168000000001,-0.0020376444,4.272,9.658999999999999,0.335,-1
216,217,1582725249783,0.09532857,0.5861559000000001,0.6160667,3.9610000000000003,9.592,0.965,-1
217,218,1582725249793,-0.32340837,0.5673189000000001,0.88546526,3.5439999999999996,9.572000000000001,1.245,-1
218,219,1582725249804,-0.44367743,0.6680583999999999,0.5020076,3.424,9.673,0.852,-1
219,220,1582725249814,-0.34562564,0.70489216,0.22834203,3.525,9.709,0.5670000000000001,-1
220,221,1582725249824,0.38461304,0.7374821,-0.6042328,4.279,9.732999999999999,-0.313,-1
221,222,1582725249835,1.1081886,1.0442972,-0.89043605,5.027,10.03,-0.625,-1
222,223,1582725249845,1.2233622,1.2432241000000002,-0.9202485999999999,5.154,10.224,-0.6629999999999999,-1
223,224,1582725249855,1.4578421,1.468646,-0.5761371999999999,5.417000000000001,10.437000000000001,-0.32299999999999995,-1
224,225,1582725249866,1.4990873,1.5241518,-0.06579648,5.47,10.487,0.198,-1
225,226,1582725249876,1.5916808,1.7697706000000002,0.57001173,5.57,10.729000000000001,0.845,-1
226,227,1582725249886,2.0652623,1.8422804,0.9207511999999999,6.0489999999999995,10.799000000000001,1.199,-1
227,228,1582725249896,2.4417965,2.0250874,1.115308,6.428,10.981,1.3840000000000001,-1
228,229,1582725249907,2.8702737999999997,2.2142744,0.75207317,6.854,11.172,0.996,-1
229,230,1582725249917,3.1523767000000005,2.3863354,0.28960156,7.127000000000001,11.349,0.498,-1
230,231,1582725249927,3.2358215,2.522255,-0.24917245,7.194,11.493,-0.079,-1
231,232,1582725249937,3.355018,2.5586567000000002,-0.5298182,7.287999999999999,11.540999999999999,-0.39,-1
232,233,1582725249948,3.2481983,2.3800898,-0.19407518,7.146,11.378,-0.071,-1
233,234,1582725249958,3.0535915,1.9729346999999997,0.16792646,6.907,10.99,0.287,-1
234,235,1582725249968,2.500205,1.2156181000000001,0.8008003,6.272,10.267000000000001,0.929,-1
235,236,1582725249978,2.1923522999999996,1.0161858,1.06576,5.934,10.08,1.199,-1
236,237,1582725249989,1.6850101999999998,0.32430553,1.2845678,5.332999999999999,9.426,1.432,-1
237,238,1582725249998,1.4951761000000001,0.058338165,1.1415428,5.113,9.172,1.2930000000000001,-1
238,239,1582725250008,0.9867606,-0.527091,1.1100896999999998,4.564,8.602,1.2930000000000001,-1
239,240,1582725250018,0.3057592,-1.4234328,0.5040753,3.7760000000000002,7.747000000000001,0.68,-1
240,241,1582725250028,0.049088717000000004,-1.6107187,0.3115705,3.4789999999999996,7.575,0.48100000000000004,-1
241,242,1582725250039,-0.6274884,-2.4688811,-0.03513877,2.677,6.763,0.11699999999999999,-1
242,243,1582725250049,-0.9611902,-2.7789797999999997,-0.29087234,2.301,6.468,-0.14300000000000002,-1
243,244,1582725250059,-1.6861445,-3.2032824,-0.23583844,1.492,6.0729999999999995,-0.09300000000000001,-1
244,245,1582725250069,-2.3974147,-3.9834099999999997,-0.43894390000000005,0.6609999999999999,5.332999999999999,-0.294,-1
245,246,1582725250080,-2.8894396,-4.5862393,-0.5722276999999999,0.095,4.754,-0.419,-1
246,247,1582725250090,-3.7097895,-5.180035,-0.6891961,-0.792,4.181,-0.522,-1
247,248,1582725250100,-4.0290284,-5.751579,-1.0016886,-1.166,3.6260000000000003,-0.816,-1
248,249,1582725250110,-4.0308967,-6.4565625,-1.6093651000000002,-1.209,2.9330000000000003,-1.401,-1
249,250,1582725250120,-4.14079,-7.106164,-2.1145343999999997,-1.35,2.292,-1.8769999999999998,-1
250,251,1582725250131,-4.6415076,-7.651198399999999,-2.6090806,-1.875,1.7530000000000001,-2.33,-1
251,252,1582725250141,-5.368703400000001,-8.335522000000001,-2.9279903999999997,-2.62,1.072,-2.591,-1
252,253,1582725250151,-6.227027,-8.8957205,-2.565408,-3.489,0.512,-2.155,-1
253,254,1582725250161,-7.105339999999999,-9.402083,-1.9894928,-4.368,0.002,-1.499,-1
254,255,1582725250171,-7.593935000000001,-9.8147,-1.7749834999999998,-4.842,-0.419,-1.2109999999999999,-1
255,256,1582725250182,-7.9034595,-10.274903,-1.9517131,-5.118,-0.893,-1.3259999999999998,-1
256,257,1582725250192,-7.827238,-10.630054,-2.463416,-4.986000000000001,-1.2690000000000001,-1.7790000000000001,-1
257,258,1582725250202,-7.8285860000000005,-10.867806,-3.0664759,-4.907,-1.537,-2.311,-1
258,259,1582725250212,-7.970505999999999,-11.053517,-3.0702697999999997,-4.9430000000000005,-1.765,-2.217,-1
259,260,1582725250223,-7.5057917000000005,-11.301559,-2.8790102,-4.343999999999999,-2.0709999999999997,-1.8940000000000001,-1
260,261,1582725250233,-7.4466220000000005,-11.605642999999999,-2.5820608,-4.126,-2.45,-1.4340000000000002,-1
261,262,1582725250243,-6.923836,-11.814096000000001,-1.8298476000000001,-3.424,-2.7510000000000003,-0.495,-1
262,263,1582725250253,-6.416176999999999,-12.001614,-1.3102,-2.72,-3.048,0.22,-1
263,264,1582725250264,-6.8569493,-11.906897,-0.58118665,-2.9530000000000003,-3.077,1.14,-1
264,265,1582725250274,-6.9650936,-11.951300999999999,-0.017675757,-2.835,-3.262,1.882,-1
265,266,1582725250284,-6.767044,-11.755794999999999,0.034710646,-2.385,-3.228,2.095,-1
266,267,1582725250294,-6.033621,-11.90594,-0.73822343,-1.3719999999999999,-3.5660000000000003,1.472,-1
267,268,1582725250304,-3.3443565000000004,-11.257824000000001,-2.343731,1.781,-3.2689999999999997,0.122,-1
268,269,1582725250315,-1.0935221000000002,-10.250191000000001,-2.2021859,4.356,-2.553,0.486,-1
269,270,1582725250325,1.7180429,-9.680837,-0.88693047,7.505,-2.339,2.076,-1
270,271,1582725250335,3.0286274,-8.862553,1.4822726000000002,9.235,-2.03,4.794,-1
271,272,1582725250345,3.0333176,-8.349695,4.7936034,9.527000000000001,-1.9609999999999999,8.425,-1
272,273,1582725250356,2.5139022,-7.9626399999999995,7.3447185,9.259,-2.0069999999999997,11.244000000000002,-1
273,274,1582725250366,2.961866,-7.1595364,8.12199,9.951,-1.635,12.220999999999998,-1
274,275,1582725250376,4.166065000000001,-5.771741400000001,6.9798946,11.397,-0.682,11.22,-1
275,276,1582725250386,7.062531,-3.938557,5.1162434,14.527999999999999,0.701,9.465,-1
276,277,1582725250396,12.7483,-2.3659556,3.6672672999999993,20.429000000000002,1.7930000000000001,8.126,-1
277,278,1582725250407,17.29747,-0.5854609000000001,3.6669927,25.145,3.075,8.27,-1
278,279,1582725250417,17.922567,0.46237683,5.233092,25.868000000000002,3.64,10.023,-1
279,280,1582725250427,15.809648000000001,0.45850086,7.369059599999999,23.794,3.19,12.365,-1
280,281,1582725250437,12.345291,0.23096799999999998,9.547759,20.336,2.555,14.735999999999999,-1
281,282,1582725250447,9.578228999999999,0.3355546,11.845450999999999,17.567,2.2840000000000003,17.189,-1
282,283,1582725250457,7.570186,1.8400290000000001,13.042797,15.56,3.4410000000000003,18.499000000000002,-1
283,284,1582725250468,8.081266000000001,3.9145947,12.561653,16.077,5.192,18.094,-1
284,285,1582725250478,10.291761,4.8617225,10.253794000000001,18.297,5.841,15.833,-1
285,286,1582725250488,11.463064,4.9878364,7.2293973,19.473,5.702000000000001,12.842,-1
286,287,1582725250498,12.117727,4.9089127,4.556256299999999,20.12,5.3839999999999995,10.205,-1
287,288,1582725250508,12.015963000000001,4.12479,3.5093303,19.996,4.37,9.204,-1
288,289,1582725250519,11.460899000000001,3.6900804,4.9564667,19.406,3.702,10.705,-1
289,290,1582725250529,10.952239,3.3969095,7.6280594,18.852999999999998,3.1710000000000003,13.433,-1
290,291,1582725250540,9.609955000000001,3.403892,10.478703,17.462,2.948,16.336,-1
291,292,1582725250550,9.013061,3.8335922,12.412651,16.817,3.168,18.314,-1
292,293,1582725250561,9.295863,4.5305023,12.24262,17.057000000000002,3.69,18.178,-1
293,294,1582725250571,9.561529,5.167254,10.095459,17.287,4.2,16.058,-1
294,295,1582725250581,9.636722,5.454116,7.3124666,17.335,4.409,13.297,-1
295,296,1582725250591,8.826659,5.409696599999999,4.717844,16.506,4.327,10.72,-1
296,297,1582725250602,7.275211,5.160189599999999,2.9473553,14.942,4.069,8.964,-1
297,298,1582725250612,5.5003242,4.7401776,1.7583146,13.158,3.657,7.787999999999999,-1
298,299,1582725250622,4.0949802,4.286008,1.2614589,11.742,3.216,7.307,-1
299,300,1582725250632,2.798637,3.7634363,1.1784954,10.423,2.713,7.256,-1
300,301,1582725250643,2.4307613,3.7061102,1.0690565,10.047,2.6630000000000003,7.1579999999999995,-1
301,302,1582725250652,2.2131472000000003,3.5876539,0.85124254,9.814,2.56,6.962000000000001,-1
302,303,1582725250662,2.4914312,3.6746457,0.34337616,10.078,2.6719999999999997,6.476,-1
303,304,1582725250672,2.7501067999999997,3.6066928,0.35977507,10.334000000000001,2.612,6.497000000000001,-1
304,305,1582725250682,2.840004,3.3570266,0.097325325,10.312000000000001,2.399,6.239,-1
305,306,1582725250693,2.4094048,2.9395194,0.13019848,10.003,2.019,6.267,-1
306,307,1582725250703,1.8875046000000002,2.6181324,0.27701426,9.493,1.745,6.406000000000001,-1
307,308,1582725250713,1.3442955,2.1235218,0.55564356,8.962,1.305,6.6770000000000005,-1
308,309,1582725250723,1.1280918,1.8194015,0.5654268,8.751,1.0290000000000001,6.684,-1
309,310,1582725250733,0.81532574,1.2695146000000002,0.86793756,8.449,0.56,6.983,-1
310,311,1582725250744,0.7917675999999999,1.1195344999999999,0.76460457,8.43,0.46399999999999997,6.88,-1
311,312,1582725250754,0.84647655,0.92470896,0.28698683,8.492,0.325,6.399,-1
312,313,1582725250764,0.9097924000000001,0.89026177,-0.16832542,8.568999999999999,0.349,5.932,-1
313,314,1582725250774,0.9451441999999999,0.84060204,-0.46259308,8.624,0.359,5.617999999999999,-1
314,315,1582725250784,0.7563863000000001,0.64846087,-0.4862709,8.461,0.225,5.566,-1
315,316,1582725250795,0.28999758,0.43438956,-0.14962292,8.016,0.067,5.879,-1
316,317,1582725250805,-0.15786982,0.26369846,0.38964940000000003,7.568,-0.059000000000000004,6.421,-1
317,318,1582725250815,-0.33368635,0.052349284,0.40974426,7.374,-0.237,6.466,-1
318,319,1582725250825,0.0041327477,0.012561201999999999,0.5668496999999999,7.704,-0.256,6.6339999999999995,d
319,320,1582725250835,0.37182808,0.038183764,0.47429562,8.068,-0.21,6.547000000000001,-1
320,321,1582725250846,0.47620153,0.15832588,0.29213285,8.169,-0.067,6.37,-1
321,322,1582725250856,0.7360163000000001,0.21628505,0.04629278,8.427999999999999,0.013999999999999999,6.126,-1
322,323,1582725250866,0.9808344999999999,0.40792888,-0.013475418000000001,8.672,0.22899999999999998,6.068,-1
323,324,1582725250876,1.2785125,0.55068904,0.105027676,8.969,0.395,6.188,-1
324,325,1582725250887,1.3266425,0.63872266,0.43850613,9.014,0.507,6.526,-1
325,326,1582725250897,1.075377,0.62289715,0.75299597,8.758,0.519,6.847,-1
326,327,1582725250907,0.92895985,0.7482795,1.1007538000000001,8.607000000000001,0.677,7.2010000000000005,-1
327,328,1582725250917,1.0042443,0.7846989999999999,1.3533225,8.679,0.747,7.457999999999999,-1
328,329,1582725250927,1.4149585,1.0817028,1.5425415,9.086,1.077,7.652,-1
329,330,1582725250937,1.8780103,1.4577606,1.5539865,9.539,1.482,7.676,-1
330,331,1582725250948,2.5888891,1.7927519,1.8195791000000001,10.231,1.841,7.965,-1
331,332,1582725250958,3.4855733,2.1738932,2.3522172,11.103,2.244,8.527999999999999,-1
332,333,1582725250968,4.343583,2.4438242999999997,2.7248936,11.936,2.543,8.931000000000001,-1
333,334,1582725250978,5.101259,2.4637537,3.156711,12.674000000000001,2.605,9.386000000000001,-1
334,335,1582725250989,5.203721,2.649775,3.759417,12.765,2.85,10.001,-1
335,336,1582725250999,4.9635050000000005,3.0299668,4.960103,12.523,3.305,11.200999999999999,-1
336,337,1582725251009,4.7422037,3.4857476000000003,5.822379,12.308,3.8510000000000004,12.050999999999998,-1
337,338,1582725251019,4.479469,3.5885262000000004,5.8836727,12.056,4.061,12.092,-1
338,339,1582725251030,4.693767,3.9994687999999994,5.2930512,12.472999999999999,4.7219999999999995,11.1,-1
339,340,1582725251040,5.2380943,4.1482725,4.5695825,12.812999999999999,4.869,10.755999999999998,-1
340,341,1582725251050,5.864353700000001,4.1881294,4.762047,13.4,5.101,10.970999999999998,-1
341,342,1582725251061,6.502903,4.2440987,5.7376394,14.005999999999998,5.29,11.965,-1
342,343,1582725251071,6.849201700000001,4.4040728,6.1998096,14.324000000000002,5.601,12.434000000000001,-1
343,344,1582725251081,6.8861666,4.4738417,6.247868,14.338,5.848,12.472999999999999,-1
344,345,1582725251092,6.5945907,4.3729677,6.100643,14.025,5.9510000000000005,12.302999999999999,-1
345,346,1582725251102,6.2345343,4.044792,5.917549,13.642000000000001,5.851,12.085,-1
346,347,1582725251112,5.449270200000001,3.7056693999999997,5.971406,12.832,5.7620000000000005,12.09,-1
347,348,1582725251122,5.097894,3.5388123999999994,5.899359,12.468,5.728,11.987,-1
348,349,1582725251132,4.557999,2.467623,5.4629107,11.884,5.075,11.437999999999999,-1
349,350,1582725251142,4.355517400000001,1.9281240000000002,5.0458527,11.639000000000001,4.823,10.94,-1
350,351,1582725251152,4.1537485,1.3335066,4.7580953,11.380999999999998,4.519,10.571,-1
351,352,1582725251162,4.127414,0.8232111999999999,4.5335,11.287,4.301,10.262,-1
352,353,1582725251172,4.0643663,0.28636718,4.0775185,11.117,4.061,9.711,-1
353,354,1582725251182,3.0044923,-0.07418728,4.070257,10.008,4.004,9.592,-1
354,355,1582725251193,2.0940194,-0.71316147,4.2629547,9.014,3.6710000000000003,9.654,-1
355,356,1582725251203,1.1259698999999999,-1.4186769,4.6680126,7.961,3.2689999999999997,9.91,-1
356,357,1582725251213,0.36023474,-1.8051627000000001,4.6359878,7.108,3.18,9.714,-1
357,358,1582725251223,-0.08089018,-2.2670147000000003,4.284544,6.5760000000000005,3.003,9.192,-1
358,359,1582725251233,-0.24665879999999998,-2.6459873,3.6051383,6.315,2.885,8.351,-1
359,360,1582725251244,-0.39996195,-2.6329765,2.583561,6.061,3.0989999999999998,7.228,-1
360,361,1582725251254,-0.37692213,-2.78463,1.569437,5.987,3.168,6.068,-1
361,362,1582725251264,-0.85399055,-2.8462696,1.1709938,5.405,3.343,5.494,-1
362,363,1582725251274,-1.2993708000000002,-2.8183165,1.3314018,4.849,3.5989999999999998,5.477,-1
363,364,1582725251284,-1.4097371,-3.0242178,1.4091117,4.629,3.609,5.372000000000001,-1
364,365,1582725251295,-1.5699964,-3.0499,1.4978341999999998,4.361000000000001,3.7880000000000003,5.271,-1
365,366,1582725251305,-1.8033872,-2.9498142999999994,1.5541883,4.021,4.083,5.13,-1
366,367,1582725251315,-2.0360088,-2.9687552000000004,1.4507389,3.6830000000000003,4.251,4.8180000000000005,-1
367,368,1582725251325,-2.6809773,-2.7583566000000004,1.2260711000000002,2.9330000000000003,4.641,4.373,-1
368,369,1582725251336,-2.8804562000000002,-2.5903982999999995,0.70701027,2.6289999999999996,4.979,3.6260000000000003,-1
369,370,1582725251346,-3.3632076,-2.9439025,0.27871466,2.042,4.782,2.9739999999999998,-1
370,371,1582725251356,-3.6075873,-3.539311,0.42496133,1.693,4.327,2.9139999999999997,-1
371,372,1582725251366,-3.3660383,-4.1590376000000004,0.4782107,1.834,3.8289999999999997,2.785,-1
372,373,1582725251377,-2.424575,-4.445079,-0.07644272,2.682,3.647,2.0709999999999997,-1
373,374,1582725251387,-1.6970177,-4.6489544,-0.30819738,3.321,3.535,1.695,-1
374,375,1582725251397,-1.9388964,-4.7163305,-0.3462938,2.991,3.554,1.516,-1
375,376,1582725251407,-2.9347231,-4.649218599999999,-0.60005724,1.865,3.745,1.034,-1
376,377,1582725251417,-3.2157257,-5.078743,-0.51903325,1.504,3.391,0.95,-1
377,378,1582725251427,-3.244504,-5.3146663,-0.35289437,1.403,3.2230000000000003,0.943,-1
378,379,1582725251438,-3.0059667,-5.581155,-0.6999879,1.58,3.015,0.41600000000000004,-1
379,380,1582725251448,-2.435645,-5.643669999999999,-1.5178966999999999,2.1,3.0,-0.5770000000000001,-1
380,381,1582725251458,-1.6720814999999998,-5.256033,-3.147457,2.823,3.424,-2.359,-1
381,382,1582725251468,-0.78516483,-4.867175,-4.545116,3.678,3.839,-3.872,-1
382,383,1582725251479,-0.5581708000000001,-4.7805824,-5.1364675,3.875,3.946,-4.533,-1
383,384,1582725251489,-0.9818325000000001,-4.787780000000001,-3.9992408999999998,3.415,3.958,-3.408,-1
384,385,1582725251499,-1.3867476,-4.874197000000001,-1.9748918999999998,2.972,3.889,-1.36,-1
385,386,1582725251509,-1.3523059,-4.7566795,-0.13905463,2.9739999999999998,4.021,0.498,-1
386,387,1582725251520,-1.2400316999999998,-4.509024,0.5470891999999999,3.06,4.282,1.178,-1
387,388,1582725251529,-0.8621867,-4.2831144,0.54833734,3.417,4.521,1.137,-1
388,389,1582725251539,-0.5713835,-3.919952,0.36613595,3.69,4.897,0.888,-1
389,390,1582725251549,-0.83429193,-3.5833583,0.31890061,3.408,5.247000000000001,0.764,-1
390,391,1582725251559,-1.162056,-3.4555945,-0.3570974,3.06,5.388,0.011000000000000001,-1
391,392,1582725251570,-1.2009463,-3.2213664,-0.52498037,3.012,5.627999999999999,-0.193,-1
392,393,1582725251580,-1.0167818000000002,-2.909976,-1.4604236000000002,3.178,5.9510000000000005,-1.2209999999999999,-1
393,394,1582725251590,-1.0555375,-2.806964,-1.540869,3.135,6.057,-1.341,-1
394,395,1582725251600,-0.9310341000000001,-2.4421935,-1.1237411,3.262,6.421,-0.943,-1
395,396,1582725251610,-0.5428536,-2.354241,1.3783574e-05,3.661,6.504,0.172,-1
396,397,1582725251621,-0.5928197,-2.1640377,0.6475767,3.6180000000000003,6.691,0.8140000000000001,-1
397,398,1582725251631,-0.7666447,-1.8288889,1.6273603,3.465,7.017,1.745,-1
398,399,1582725251642,-0.27383637,-1.642879,1.0678915,3.978,7.194,1.111,-1
399,400,1582725251652,-0.13529015,-0.96834373,-0.4960098,4.138,7.858,-0.5670000000000001,-1
400,401,1582725251662,-0.24978638,-0.501071,-2.1306974999999997,4.038,8.315,-2.38,-1
401,402,1582725251672,-0.13821507,-0.5443906999999999,-2.6256216,4.167,8.25,-3.168,-1
402,403,1582725251683,-0.5396476,-0.4774084,-2.259584,3.7689999999999997,8.302999999999999,-2.9739999999999998,-1
403,404,1582725251693,-0.6741059,-0.5459919,-1.3414358999999998,3.642,8.226,-2.112,-1
404,405,1582725251703,-0.49633932,-0.52919674,-0.43760079999999996,3.841,8.231,-1.2229999999999999,-1
405,406,1582725251713,-0.04456377,-0.1628542,0.03684157,4.325,8.581,-0.752,-1
406,407,1582725251724,0.5369071999999999,0.3422966,-0.44856409999999997,4.945,9.065,-1.2570000000000001,-1
407,408,1582725251734,0.8983926999999999,0.6077880999999999,-0.91350263,5.343,9.309,-1.7530000000000001,-1
408,409,1582725251745,0.79381037,0.67071915,-1.1191977,5.266,9.354,-1.9969999999999999,-1
409,410,1582725251755,0.48583984,0.80427074,-0.9969364,4.976,9.474,-1.916,-1
410,411,1582725251765,0.20604038,0.61243916,-1.2465457,4.708,9.271,-2.2119999999999997,-1
411,412,1582725251775,0.22508907,0.6557331,-1.8709898999999997,4.742,9.302,-2.8760000000000003,-1
412,413,1582725251786,0.44490433,0.72070885,-1.7564889,4.984,9.354,-2.773,-1
413,414,1582725251796,0.31415415,0.81095314,-1.2209973,4.878,9.433,-2.222,-1
414,415,1582725251806,0.056325912,0.8673639000000001,-0.7364449000000001,4.643,9.481,-1.705,d
415,416,1582725251816,-0.014611721000000001,1.066556,-0.31956009999999996,4.593,9.673,-1.252,-1
416,417,1582725251826,0.28337955,1.0606489,0.19156957,4.912,9.658999999999999,-0.711,-1
417,418,1582725251836,0.55550766,1.04142,0.4194201,5.204,9.63,-0.474,-1
418,419,1582725251847,0.6223564,1.0508738000000002,0.113345504,5.285,9.63,-0.797,-1
419,420,1582725251857,0.7199401999999999,1.1074381000000002,-0.36985534,5.391,9.677999999999999,-1.317,-1
420,421,1582725251867,0.45634890000000006,1.0661973999999999,-0.94836986,5.132000000000001,9.627,-1.959,-1
421,422,1582725251878,0.4554062,0.9704838,-0.96651006,5.132000000000001,9.529,-1.992,-1
422,423,1582725251888,0.2578621,0.840209,-0.93968725,4.938,9.395,-1.98,-1
423,424,1582725251898,0.037255287000000005,0.80446434,-0.27536094,4.73,9.354,-1.3019999999999998,-1
424,425,1582725251909,0.13045263,0.86490154,-0.09524763,4.83,9.412,-1.111,-1
425,426,1582725251918,0.85966635,1.0182304,-0.26418716,5.5889999999999995,9.551,-1.262,-1
426,427,1582725251928,0.97946787,1.1283321000000002,-0.39552915,5.726,9.651,-1.3980000000000001,-1
427,428,1582725251939,1.1155558,1.1519747,-0.46268559,5.874,9.666,-1.482,-1
428,429,1582725251949,1.1690464,1.2129936000000001,-0.62728095,5.932,9.722999999999999,-1.659,-1
429,430,1582725251959,1.4536619,1.1946163,-0.855917,6.224,9.697000000000001,-1.916,-1
430,431,1582725251969,1.8644013,1.3545885,-1.2065864,6.641,9.85,-2.294,-1
431,432,1582725251980,2.2476315,1.5811043,-1.5366848999999998,7.029,10.071,-2.6460000000000004,-1
432,433,1582725251990,2.1863256,1.5978241000000002,-1.6795983,6.968999999999999,10.085,-2.804,-1
433,434,1582725252001,1.8848418999999998,1.6099968,-1.1889936,6.662000000000001,10.099,-2.323,-1
434,435,1582725252011,1.7956523999999998,1.6652842,-0.80082536,6.567,10.157,-1.939,-1
435,436,1582725252021,2.0115228,1.438324,-0.56590784,6.777,9.932,-1.714,-1
436,437,1582725252031,2.0087333,1.3537331,-0.98570955,6.768,9.847999999999999,-2.155,-1
437,438,1582725252042,2.1198506,1.3270845,-1.1265817,6.876,9.821,-2.311,-1
438,439,1582725252052,2.7785162999999997,1.4796629,-1.8918078999999999,7.525,9.97,-3.139,-1
439,440,1582725252062,3.3646026,1.6091986,-2.0330462,8.485,10.241,-3.573,-1
440,441,1582725252072,4.0914593,1.7325868999999998,-2.390245,8.816,10.219,-3.7430000000000003,-1
441,442,1582725252082,4.432708,1.7255611000000002,-2.8795919999999997,9.137,10.214,-4.289,-1
442,443,1582725252092,4.623132,1.7050037,-2.8825498,9.299,10.2,-4.346,-1
443,444,1582725252102,4.5991154000000005,1.3804674,-2.9961612,9.238999999999999,9.886000000000001,-4.512,-1
444,445,1582725252112,4.068677,1.1313353000000002,-2.6867115000000004,8.665,9.651,-4.255,-1
445,446,1582725252122,3.79184,0.96385,-2.3229146000000003,8.365,9.491,-3.918,-1
446,447,1582725252132,3.3852,0.46727179999999996,-2.0028858,7.888999999999999,9.014,-3.688,-1
447,448,1582725252142,3.252224,0.3263235,-2.2809925,7.733,8.878,-4.002,-1
448,449,1582725252153,3.5345258999999998,-0.014363289,-3.3949766,7.944,8.547,-5.247000000000001,-1
449,450,1582725252163,4.2249813,0.12376213,-4.040166,8.581,8.691,-5.989,-1
450,451,1582725252173,5.1516833,0.113162994,-4.4337454,9.445,8.691,-6.473,-1
451,452,1582725252184,5.30355,-0.07210922,-4.3650775,9.52,8.526,-6.478,-1
452,453,1582725252193,4.797731,-0.50296116,-3.4722532999999998,8.926,8.126,-5.632999999999999,-1
453,454,1582725252203,3.8251023,-1.2654018,-2.262923,7.867000000000001,7.398,-4.449,-1
454,455,1582725252213,2.7151275000000004,-1.9936866999999998,-1.0910236999999998,6.725,6.6770000000000005,-3.307,-1
455,456,1582725252223,2.109491,-2.2962759999999998,-0.29479384,6.071000000000001,6.394,-2.521,-1
456,457,1582725252234,1.7363023999999998,-2.8896995,-0.7595854000000001,5.577999999999999,5.848,-3.01,-1
457,458,1582725252244,1.6493521,-3.125626,-1.0680716000000001,5.446000000000001,5.627999999999999,-3.333,-1
458,459,1582725252254,1.7237394,-3.5623727,-2.0297077,5.3839999999999995,5.235,-4.349,-1
459,460,1582725252264,1.7424557,-3.6931686000000004,-2.1764243,5.309,5.1370000000000005,-4.5169999999999995,-1
460,461,1582725252274,1.2684057,-4.0664945,-1.9371626,4.727,4.813,-4.253,-1
461,462,1582725252284,0.73067856,-4.1610265,-1.7313602,4.131,4.749,-4.016,-1
462,463,1582725252294,-0.40544248,-4.624378,-0.9861045,2.8760000000000003,4.354,-3.175,-1
463,464,1582725252304,-2.0071925999999998,-5.423691000000001,1.1656625,1.1059999999999999,3.661,-0.821,-1
464,465,1582725252314,-2.378915,-5.9943523,2.2121,0.637,3.154,0.373,-1
465,466,1582725252324,-2.0454046999999997,-6.381813,2.8352199000000002,0.888,2.821,1.14,-1
466,467,1582725252334,-1.7952689,-6.448986,2.9432726000000002,1.101,2.778,1.317,-1
467,468,1582725252344,-1.3389859,-6.426263,3.8873589999999996,1.4509999999999998,2.866,2.459,-1
468,469,1582725252355,-1.833374,-6.517553299999999,4.8839874000000005,0.8809999999999999,2.8160000000000003,3.585,-1
469,470,1582725252365,-2.8180704,-6.871753699999999,5.9792495,-0.184,2.502,4.811,-1
470,471,1582725252375,-3.3175334999999997,-7.020028,6.4759215999999995,-1.2570000000000001,2.2359999999999998,5.683,-1
471,472,1582725252386,-4.34525,-7.5488634,6.952762,-1.8219999999999998,1.88,6.004,-1
472,473,1582725252396,-5.41674,-7.8615960000000005,7.6388783,-2.9619999999999997,1.611,6.995,-1
473,474,1582725252406,-6.0441895,-7.6333704,8.837385000000001,-3.681,1.882,8.629,-1
474,475,1582725252416,-6.4876765999999995,-7.683573,10.818858,-4.15,1.839,10.981,-1
475,476,1582725252426,-6.9795694,-7.2292438,13.224884,-4.612,2.2769999999999997,13.668,-1
476,477,1582725252437,-7.081471400000001,-7.2812815,14.436098000000001,-4.66,2.198,15.107000000000001,-1
477,478,1582725252447,-6.560347,-7.380267999999999,14.350385999999999,-4.064,2.066,15.190999999999999,-1
478,479,1582725252457,-5.9677143,-7.060239,13.318957000000001,-3.3789999999999996,2.349,14.286,-1
479,480,1582725252467,-6.036430999999999,-6.3478,11.907903999999998,-3.345,3.02,12.99,-1
480,481,1582725252478,-5.962971,-5.4801817,11.278657,-3.161,3.839,12.492,-1
481,482,1582725252488,-6.391964,-4.8521953,11.862153,-3.47,4.409,13.227,-1
482,483,1582725252498,-6.618205000000001,-4.5934978,13.540244,-3.563,4.6,15.062000000000001,-1
483,484,1582725252508,-6.382022,-4.604499,14.610387,-3.178,4.513999999999999,16.271,-1
484,485,1582725252518,-5.709537,-4.9881363,14.785352,-2.339,4.052,16.542,-1
485,486,1582725252528,-4.239977400000001,-5.135699,13.261442,-0.684,3.824,15.064,-1
486,487,1582725252539,-2.8868663,-4.408748,10.558474,0.866,4.466,12.382,-1
487,488,1582725252549,-1.3619499,-3.6461773,7.5818067,2.589,5.127000000000001,9.477,-1
488,489,1582725252559,-0.40435362,-2.5586019,5.819114,3.7430000000000003,6.087999999999999,7.87,-1
489,490,1582725252569,-0.35676408,-1.3532171,6.6936564,3.963,7.167999999999999,8.907,-1
490,491,1582725252579,-0.65623355,-1.4788833000000001,9.602925,3.82,6.912000000000001,11.995999999999999,-1
491,492,1582725252590,-0.64575744,-1.9968700000000001,12.028589,3.985,6.26,14.588,-1
492,493,1582725252600,-0.38092613,-2.3568897,12.849872999999999,4.4110000000000005,5.769,15.529000000000002,-1
493,494,1582725252610,0.6071029,-2.9212937,11.621945,5.57,5.079,14.367,-1
494,495,1582725252620,2.2103080000000004,-2.4270509999999996,8.821054,7.352,5.4479999999999995,11.599,-1
495,496,1582725252630,3.7184767999999995,-1.4641604,5.360365,9.038,6.279,8.174,-1
496,497,1582725252640,4.9594154,-0.1563878,3.0963624,10.442,7.446000000000001,5.98,-1
497,498,1582725252651,5.4547367,0.87404346,2.5430574,11.074000000000002,8.327,5.551,-1
498,499,1582725252661,5.4972677,1.2058853999999999,3.5322065,11.105,8.248,7.731,-1
499,500,1582725252671,5.044929,0.8979349,5.1882790000000005,10.859000000000002,8.035,8.568999999999999,-1
500,501,1582725252681,4.511474,-0.13637161,5.906549500000001,10.435,6.77,9.565,-1
501,502,1582725252692,4.2536793,-0.3643341,6.0579433,10.472999999999999,6.5520000000000005,10.003,-1
502,503,1582725252702,6.120572599999999,0.27837086,6.21087,12.187999999999999,6.89,10.166,-1
503,504,1582725252712,8.052126,1.0699887,5.262719000000001,14.192,7.539,9.34,-1
504,505,1582725252722,9.019107,1.9743810000000002,4.279775,15.22,8.312999999999999,8.468,-1
505,506,1582725252733,9.714655,2.3110971,3.3361917,15.96,8.533,7.632000000000001,-1
506,507,1582725252743,9.884424000000001,2.229136,2.115312,16.154,8.349,6.521,-1
507,508,1582725252753,9.187667999999999,1.9432144,1.1359066999999998,15.459000000000001,7.975,5.659,-1
508,509,1582725252763,8.103044500000001,1.4713602,0.5001321,14.357999999999999,7.4239999999999995,5.149,-1
509,510,1582725252773,7.6264734,1.4945402,0.23010015,13.855,7.369,5.012,-1
510,511,1582725252784,8.066032,1.6051712,0.12898302,14.280999999999999,7.438,4.979,-1
511,512,1582725252794,10.26647,2.3638797,-0.41529512,16.448,8.066,4.629,-1
512,513,1582725252804,11.417755,2.5934133999999998,-0.82087135,17.584,8.219,4.327,-1
513,514,1582725252814,12.226646,2.722919,-1.8703880000000002,18.384,8.293,3.3480000000000003,-1
514,515,1582725252825,12.588688000000001,2.5543560000000003,-3.5039432,18.738,8.097000000000001,1.7530000000000001,-1
515,516,1582725252835,12.107063,2.3611226000000003,-4.4652996,18.25,7.901,0.802,-1
516,517,1582725252845,10.106213,1.4626493,-6.445735,16.219,7.024,-1.166,-1
517,518,1582725252856,9.882571,1.1761594,-7.526797999999999,15.974,6.757999999999999,-2.244,-1
518,519,1582725252866,10.837826,1.1934236999999999,-8.761982000000001,16.913,6.789,-3.475,-1
519,520,1582725252876,11.980558,1.4515633999999997,-9.79395,18.046,7.053,-4.502,-1
520,521,1582725252886,12.423096000000001,1.3956962,-10.610109,18.484,7.0,-5.316,-1
521,522,1582725252897,12.487003,1.1973791,-10.951989999999999,18.551,6.806,-5.666,-1
522,523,1582725252907,12.301413,0.9036107,-10.736013,18.379,6.521,-5.475,-1
523,524,1582725252917,11.632083,0.18231297,-10.161822,17.73,5.817,-4.9430000000000005,-1
524,525,1582725252927,11.118158,-0.7282462,-9.902687,17.236,4.931,-4.734,-1
525,526,1582725252938,10.266371000000001,-1.2541342,-9.9686985,16.396,4.435,-4.8469999999999995,-1
526,527,1582725252948,9.276606,-1.9389374,-10.100941,15.409,3.781,-5.0169999999999995,-1
527,528,1582725252958,8.362805,-2.568382,-9.888256,14.497,3.175,-4.833,-1
528,529,1582725252968,7.697905499999999,-2.909415,-9.033403999999999,13.843,2.845,-4.004,-1
529,530,1582725252978,7.280593400000001,-3.5633347,-7.0408835000000005,13.469000000000001,2.186,-2.059,-1
530,531,1582725252988,6.8419037,-3.8706207000000004,-6.323071,13.075999999999999,1.868,-1.386,-1
531,532,1582725252999,6.5707835999999995,-3.7817928999999997,-6.044445,12.832,1.9509999999999998,-1.135,-1
532,533,1582725253009,5.755383999999999,-4.0924949999999995,-6.0503626,12.118,1.621,-1.25,-1
533,534,1582725253019,5.0435376,-4.2956614,-5.8636913,11.498,1.396,-1.161,-1
534,535,1582725253029,4.584906,-4.435676,-5.1034527,11.151,1.219,-0.512,-1
535,536,1582725253040,3.79037,-4.653617,-4.299012,10.505999999999998,0.9309999999999999,0.16,-1
536,537,1582725253050,2.8136463,-4.721492,-3.262684,9.817,0.6679999999999999,0.9890000000000001,-1
537,538,1582725253060,2.074432,-4.551312,-2.2063080000000004,9.29,0.6729999999999999,1.8940000000000001,-1
538,539,1582725253070,1.5176573,-4.488729,-1.4255857,8.856,0.634,2.5839999999999996,-1
539,540,1582725253080,1.3841653,-4.012904,-0.81719923,8.844,0.993,3.115,-1
540,541,1582725253091,1.2236638000000002,-3.3743057,-0.28434038,8.816,1.4869999999999999,3.575,-1
541,542,1582725253101,1.1539731000000002,-2.6495466,0.40076756,8.902000000000001,2.019,4.188,-1
542,543,1582725253111,0.6739311,-2.1223443,1.1015278999999998,8.527999999999999,2.43,4.811,-1
543,544,1582725253121,0.4270568,-1.9682386000000003,1.9270232,8.37,2.502,5.546,-1
544,545,1582725253131,0.45590878,-2.1811564,3.1503856,8.48,2.227,6.665,-1
545,546,1582725253142,0.50678444,-2.395728,4.846426,8.602,1.956,8.267000000000001,-1
546,547,1582725253152,0.38243866,-2.2794542,7.665966,8.535,2.019,11.017000000000001,-1
547,548,1582725253162,-0.03546238,-1.5870662,10.664100999999999,8.164,2.6630000000000003,13.962,-1
548,549,1582725253172,-1.1485643,-0.8927361999999999,12.524019000000001,7.093999999999999,3.326,15.754000000000001,-1
549,550,1582725253182,-1.9292784,-0.25827432,12.625717,6.361000000000001,3.951,15.744000000000002,-1
550,551,1582725253192,-1.9495945,-0.072299,11.457867,6.394,4.143,14.422,-1
551,552,1582725253202,-1.9741077,-0.058182715999999995,10.230953,6.417999999999999,4.167,13.04,-1
552,553,1582725253212,-2.0967903000000003,0.13062477,9.675203,6.33,4.3580000000000005,12.375,-1
553,554,1582725253222,-1.9857574,0.12784386,10.59826,6.461,4.342,13.255999999999998,-1
554,555,1582725253233,-2.0157380000000003,0.25268793,12.024560000000001,6.44,4.442,14.693,-1
555,556,1582725253242,-2.0340786,0.45460463,12.656216,6.425,4.617,15.356,-1
556,557,1582725253252,-1.5322423,0.80955696,12.769584,6.931,4.95,15.49,-1
557,558,1582725253262,-1.1128783000000002,1.1864104,11.703308,7.357,5.319,14.415,-1
558,559,1582725253273,-1.3009481,1.2246137,9.785442,7.175,5.367000000000001,12.463,-1
559,560,1582725253282,-1.5105057,1.3001614,8.942646,6.9670000000000005,5.452999999999999,11.599,-1
560,561,1582725253292,-1.706245,1.2096992,6.3888169999999995,6.765,5.405,8.998,-1
561,562,1582725253302,-1.6979003000000001,1.2376013000000001,5.496608999999999,6.757999999999999,5.462999999999999,8.107000000000001,-1
562,563,1582725253312,-1.8603392,1.0964622,5.0000805999999995,6.571000000000001,5.35,7.644,-1
563,564,1582725253322,-1.9018134999999998,1.0056534,4.88807,6.5,5.2829999999999995,7.587000000000001,-1
564,565,1582725253333,-1.9599786,0.8428068000000001,4.951976,6.4110000000000005,5.138999999999999,7.716,-1
565,566,1582725253343,-2.0028296,0.7777829,5.071089,6.337000000000001,5.0889999999999995,7.905,-1
566,567,1582725253353,-1.9615493000000002,0.9524226,4.932078400000001,6.346,5.278,7.837999999999999,-1
567,568,1582725253363,-1.7950749,1.0825138,4.6530213,6.48,5.422000000000001,7.63,-1
568,569,1582725253374,-1.5307708,1.0708728,4.2568207000000005,6.712999999999999,5.4239999999999995,7.3,-1
569,570,1582725253384,-1.4282088,1.0474582000000001,3.8825336000000004,6.782,5.415,6.995,-1
570,571,1582725253394,-1.57828,0.92088175,3.645002,6.593,5.303999999999999,6.837000000000001,-1
571,572,1582725253405,-1.6950622,0.8234476999999999,3.4600129999999996,6.43,5.223,6.746,-1
572,573,1582725253414,-1.6762185,0.8867674000000001,3.4390416,6.404,5.3,6.816,-1
573,574,1582725253424,-1.3218594,0.89431477,3.4041286,6.722,5.316,6.856,-1
574,575,1582725253434,-1.059216,0.9485034999999999,3.5273051,6.959,5.376,7.031000000000001,-1
575,576,1582725253444,-0.7144699000000001,0.9091058000000001,3.2750168,7.287999999999999,5.345,6.803999999999999,-1
576,577,1582725253455,-0.63737774,0.95989513,2.8940425,7.355,5.41,6.428,-1
577,578,1582725253465,-0.30178022,0.98046017,2.3378692,7.683,5.4479999999999995,5.867000000000001,-1
578,579,1582725253476,-0.07998896,0.96974516,1.8886813999999998,7.893,5.455,5.422000000000001,-1
579,580,1582725253486,-0.35529613,0.8230376,1.7259543000000002,7.593999999999999,5.3260000000000005,5.29,-1
580,581,1582725253496,-0.65844536,0.62164164,2.196097,7.256,5.138999999999999,5.819,d
581,582,1582725253507,-0.9217681999999999,0.4787717000000001,2.5577369,6.955,5.005,6.251,-1
582,583,1582725253517,-0.72954845,0.6174054,2.4672577,7.115,5.149,6.222,-1
583,584,1582725253527,-0.28752327,0.8849244,2.069069,7.534,5.422000000000001,5.865,-1
584,585,1582725253537,0.17728996,1.0698838,1.6838674999999999,7.984,5.6129999999999995,5.502999999999999,-1
585,586,1582725253547,0.2243743,1.1385903,1.4710572,8.017999999999999,5.69,5.307,-1
586,587,1582725253558,0.5584511999999999,1.2579593999999998,1.6376121000000001,8.339,5.817,5.4910000000000005,-1
587,588,1582725253568,0.6079521,1.3476915,1.7921913,8.286,5.977,5.944,-1
588,589,1582725253578,0.33411264,1.5456581,2.8657665,8.061,6.126,6.801,-1
589,590,1582725253588,0.20575476,1.4410472,3.3233727999999996,7.891,6.0520000000000005,7.817,-1
590,591,1582725253599,0.19860172,1.5477371000000002,4.1202803,7.877000000000001,6.138,8.138,-1
591,592,1582725253608,0.43675995,2.1109357,4.8488370000000005,8.085,6.707999999999999,8.916,-1
592,593,1582725253618,0.92507124,2.6947527,5.029965,8.55,7.303999999999999,9.127,-1
593,594,1582725253628,1.6941066000000002,3.3010297,4.8073883,9.295,7.944,8.911,-1
594,595,1582725253639,2.2115807999999997,3.5845117999999996,4.7309804,9.795,8.26,8.83,-1
595,596,1582725253649,2.2098756,3.7525792,4.959891000000001,9.625,8.568999999999999,9.206,-1
596,597,1582725253659,1.9507918000000002,4.0399427,5.634119999999999,9.465,8.801,9.762,-1
597,598,1582725253669,1.9513946,3.9204906999999998,6.169152700000001,9.414,8.732000000000001,10.332,-1
598,599,1582725253679,2.1902513999999997,4.028343700000001,7.014365700000001,9.594,8.895,11.218,-1
599,600,1582725253690,2.5276446,4.3009900000000005,7.8842854,9.867,9.23,12.128,-1
600,601,1582725253700,2.5576868,4.076312000000001,8.808483,9.829,9.079,13.083,-1
601,602,1582725253710,2.6940055,3.9178610000000003,9.2997675,9.896,9.01,13.585999999999999,-1
602,603,1582725253720,2.500979,3.911171,9.04785,9.635,9.113,13.315999999999999,-1
603,604,1582725253731,2.3998766,4.003803700000001,8.575510000000001,9.501,9.267999999999999,12.822000000000001,-1
604,605,1582725253741,2.8478732000000004,3.6717,6.2950099999999996,9.85,9.146,10.439,-1
605,606,1582725253751,3.0123787,3.57513,4.990063,9.939,9.199,9.06,-1
606,607,1582725253761,3.3314214,3.236185,4.350887999999999,10.169,9.01,8.361,-1
607,608,1582725253771,3.3698019999999995,2.9354682,4.3999453,10.106,8.859,8.363,-1
608,609,1582725253781,3.095986,2.619349,4.627977400000001,9.722999999999999,8.696,8.543,-1
609,610,1582725253792,2.9519372,2.2496881,4.3244333,9.469,8.485,8.174,-1
610,611,1582725253802,2.9576807,1.8796491999999998,3.8111799,9.369,8.279,7.568,-1
611,612,1582725253812,2.7754072999999995,1.5844703000000002,3.0263734,9.084,8.152000000000001,6.665,-1
612,613,1582725253822,2.6190772,1.176384,2.2964412999999997,8.825,7.912999999999999,5.8,-1
613,614,1582725253833,2.2929492000000002,0.79335976,1.8762336,8.394,7.695,5.24,-1
614,615,1582725253843,2.326048,0.47706127,1.6480671999999998,8.32,7.537000000000001,4.873,-1
615,616,1582725253853,2.6150927999999998,0.15458202,0.9634688,8.502,7.364,4.052,-1
616,617,1582725253863,2.6128430000000002,0.18808746,0.8375628,8.387,7.541,3.798,-1
617,618,1582725253874,2.451035,-0.08553314,0.6857926999999999,8.109,7.405,3.523,-1
618,619,1582725253883,1.9381161,-0.6134834,0.36380625,7.484,7.005,3.0789999999999997,-1
619,620,1582725253893,0.9017544,-0.94598436,0.26771426,6.356,6.777,2.8710000000000004,-1
620,621,1582725253903,0.37583065,-1.2172885,0.47074579999999994,5.712000000000001,6.622000000000001,2.969,-1
621,622,1582725253914,0.15672874,-1.4439568999999999,0.6334069,5.369,6.5120000000000005,3.022,-1
622,623,1582725253924,-0.045945644,-1.4153261000000001,0.080828905,5.046,6.653,2.349,-1
623,624,1582725253934,0.19606829,-1.5780558999999998,-0.6811638000000001,5.178,6.593,1.46,-1
624,625,1582725253944,0.28960562,-1.5913992000000001,-1.4845033,5.166,6.6739999999999995,0.534,-1
625,626,1582725253955,-0.030006886,-1.5791783000000001,-1.8564796000000001,4.737,6.775,0.055,-1
626,627,1582725253965,-0.31233692,-1.7376862000000002,-2.0261939,4.3389999999999995,6.7010000000000005,-0.203,-1
627,628,1582725253975,-0.02222538,-2.1351595000000003,-2.1607267999999995,4.513999999999999,6.382000000000001,-0.414,-1
628,629,1582725253985,0.3423791,-2.4037657,-2.3413844,4.768,6.186,-0.6679999999999999,-1
629,630,1582725253995,0.97625875,-2.3282017999999995,-1.9325659,5.3020000000000005,6.327000000000001,-0.337,-1
630,631,1582725254006,0.6180744,-2.2365180000000002,-0.1775428,4.7989999999999995,6.5120000000000005,1.29,-1
631,632,1582725254016,0.058743477,-2.1963152999999997,0.9268255,4.138,6.617000000000001,2.289,-1
632,633,1582725254026,-0.8297515,-2.2431817,0.7345065,3.1439999999999997,6.638,1.9609999999999999,-1
633,634,1582725254036,-1.0284977,-2.3357415,0.33124375,2.8930000000000002,6.579,1.48,-1
634,635,1582725254046,-0.64323664,-3.066722,-0.9357599,3.18,5.91,0.05,-1
635,636,1582725254056,-0.5721986,-3.5398959999999997,-2.1885537999999998,3.159,5.4910000000000005,-1.357,-1
636,637,1582725254066,-0.54002404,-3.726626,-2.4782642999999998,3.1060000000000003,5.35,-1.777,-1
637,638,1582725254076,-0.52117896,-3.6882935,-2.136645,3.012,5.443,-1.5830000000000002,-1
638,639,1582725254087,-0.5093627000000001,-3.8331327000000006,-1.640887,2.957,5.327999999999999,-1.163,-1
639,640,1582725254097,-0.6375109999999999,-3.7747892999999997,-1.1797053999999998,2.7969999999999997,5.4,-0.735,-1
640,641,1582725254107,-0.8755504999999999,-3.8962402000000003,-0.39994752,2.498,5.303999999999999,-0.019,-1
641,642,1582725254117,-0.9575224,-4.1500916,-0.15732408,2.363,5.072,0.155,-1
642,643,1582725254127,-0.7639916,-4.097597,-0.65760076,2.5140000000000002,5.142,-0.423,-1
643,644,1582725254137,-0.24599814,-4.1004944,-1.1177295,3.003,5.151,-0.9620000000000001,-1
644,645,1582725254147,0.25182962,-3.8413123999999996,-1.7463031999999998,3.484,5.417000000000001,-1.662,-1
645,646,1582725254158,0.25899076,-3.6738906000000005,-2.2000985,3.302,5.6129999999999995,-2.253,-1
646,647,1582725254167,-0.021697521,-3.6218562000000007,-2.1182075,3.187,5.645,-2.124,-1
647,648,1582725254177,0.10156298,-3.2926940000000005,-2.101642,3.302,5.977,-2.121,-1
648,649,1582725254187,0.3629446,-3.0735512000000003,-1.7328662000000001,3.5580000000000003,6.1979999999999995,-1.7530000000000001,-1
649,650,1582725254198,0.42929244,-2.9847426,-0.88484627,3.5180000000000002,6.318,-0.361,-1
650,651,1582725254208,0.29320050000000003,-3.0291424,0.03637351,3.472,6.247999999999999,0.021,-1
651,652,1582725254218,-0.007088184399999999,-3.1004338,0.8036915,3.159,6.181,0.768,-1
652,653,1582725254228,-0.5769085999999999,-2.983276,0.9302444,2.574,6.303,0.845,-1
653,654,1582725254239,-1.0822201,-2.47262,-0.6643127,2.05,6.818,-0.8740000000000001,-1
654,655,1582725254249,-0.9319171999999999,-2.3282232000000005,-1.4556069999999999,2.198,6.962000000000001,-1.712,-1
655,656,1582725254259,-0.5701721,-2.2234607000000004,-3.2680192000000003,2.5669999999999997,7.06,-3.65,-1
656,657,1582725254270,-0.6355335999999999,-2.0421996,-3.5435822,2.5140000000000002,7.235,-3.9730000000000003,-1
657,658,1582725254280,-0.6166486999999999,-2.1165133,-3.0011556,2.541,7.1579999999999995,-3.429,-1
658,659,1582725254290,-0.6125586,-2.0638194,-0.27014995,2.574,7.204,-0.622,-1
659,660,1582725254301,-0.8553145000000001,-1.8319869,1.4058924,2.351,7.431,1.111,-1
660,661,1582725254311,-0.41323066,-1.5037688999999999,2.0716061999999997,2.8160000000000003,7.752000000000001,1.801,-1
661,662,1582725254321,0.3131001,-1.0985593999999999,1.5850408999999999,3.575,8.145,1.29,-1
662,663,1582725254331,0.73123384,-0.80870056,1.0560813999999998,4.018,8.425,0.73,-1
663,664,1582725254342,0.5259607,-0.5266218,-1.7644343,3.915,8.655,-2.383,-1
664,665,1582725254352,-0.21577048,-0.3766966,-2.5584284999999998,3.173,8.787,-3.403,-1
665,666,1582725254362,-1.1203486999999999,-0.6284828,-2.333944,2.234,8.527999999999999,-3.372,-1
666,667,1582725254372,-1.4593636,-0.6269226,-1.7176197,1.88,8.527999999999999,-2.8160000000000003,-1
667,668,1582725254383,-1.180526,-0.43014526,-0.5682374,2.165,8.722000000000001,-1.671,-1
668,669,1582725254393,-0.5614798000000001,-0.1996727,0.037151575,2.806,8.947000000000001,-1.044,-1
669,670,1582725254403,0.30173302,-0.023415565,0.24840534,3.714,9.11,-0.804,-1
670,671,1582725254413,0.6053803000000001,0.07373047,0.1369021,4.069,9.189,-0.905,-1
671,672,1582725254424,0.13001943,0.09929371,0.23895359,3.6180000000000003,9.204,-0.8140000000000001,d
672,673,1582725254434,-0.4631307,0.03434086,0.20518845,3.02,9.137,-0.8809999999999999,-1
673,674,1582725254444,-0.97426486,0.2986002,0.11375260000000001,2.4659999999999997,9.41,-1.034,-1
674,675,1582725254454,-0.9822774,0.21709728,-0.5360253,2.4090000000000003,9.333,-1.7890000000000001,-1
675,676,1582725254464,-0.9195719000000001,0.39596558,-1.3694898000000002,2.445,9.505,-2.739,-1
676,677,1582725254475,-0.75423837,0.5810394,-2.2805223,2.603,9.677999999999999,-3.745,-1
677,678,1582725254485,-0.6404276,0.59826946,-2.5650625,2.7230000000000003,9.683,-4.09,-1
678,679,1582725254495,-0.6956701,0.49138165,-1.8759593999999997,2.68,9.568,-3.4219999999999997,-1
679,680,1582725254506,-0.85872626,0.49298668,-0.3398894,2.533,9.568,-1.86,-1
680,681,1582725254516,-0.7286215,0.5713911,0.12702537,2.67,9.647,-1.374,-1
681,682,1582725254526,-0.11616993,1.0158224,0.6947319000000001,3.3169999999999997,10.085,-0.7659999999999999,-1
682,683,1582725254536,0.4064095,1.0195675,0.8047029,3.867,10.078,-0.6579999999999999,-1
683,684,1582725254547,0.67956567,1.1408033000000002,0.74319685,4.152,10.193,-0.73,-1
684,685,1582725254556,0.8065369000000001,1.1802044,0.029401302,4.2989999999999995,10.214,-1.508,-1
685,686,1582725254566,0.21465945,0.9527445,-0.5072783,3.707,9.977,-2.1,-1
686,687,1582725254576,-0.15161633,0.96325207,-0.8475007,3.338,9.98,-2.488,-1
687,688,1582725254587,-0.25768828,0.9892969000000001,-0.8606360999999999,3.235,9.999,-2.533,-1
688,689,1582725254597,-0.1733172,1.1384458999999998,-0.94635844,3.333,10.14,-2.634,-1
689,690,1582725254607,0.31712866,1.2466526000000002,-0.8951266,3.8480000000000003,10.238,-2.5860000000000003,-1
690,691,1582725254618,0.92703366,1.2534895000000001,-0.75935936,4.488,10.232999999999999,-2.45,-1
691,692,1582725254628,1.1436522,1.2819128,-0.7953899999999999,4.73,10.25,-2.4930000000000003,-1
692,693,1582725254638,1.1557496,1.3463450000000001,-0.8991153000000001,4.756,10.305,-2.617,-1
693,694,1582725254648,1.1241324,1.288269,-1.073736,4.73,10.238,-2.826,-1
694,695,1582725254659,0.9759228000000001,1.1492167,-1.3240542,4.581,10.09,-3.123,-1
695,696,1582725254669,1.1575751,1.3867741000000002,-2.0691368999999997,4.761,10.317,-3.923,-1
696,697,1582725254679,1.9273627,1.5865421,-3.261719,5.534,10.504000000000001,-5.17,-1
697,698,1582725254689,3.1236450000000002,1.6907539,-4.2280607,6.739,10.595,-6.181,-1
698,699,1582725254700,4.4342194,2.0997963,-4.494129,8.061,10.993,-6.476,-1
699,700,1582725254710,5.874497,2.154645,-4.438453,9.51,11.040999999999999,-6.435,-1
700,701,1582725254720,6.249708,1.9741601999999998,-3.9160974000000004,9.881,10.859000000000002,-5.9270000000000005,-1
701,702,1582725254732,5.7576385000000005,1.5757446000000002,-3.8531760000000004,9.363999999999999,10.463,-5.898,-1
702,703,1582725254742,4.740981,1.7231131000000002,-5.4155370000000005,8.277000000000001,10.612,-7.5729999999999995,-1
703,704,1582725254753,6.0147943,1.6517992,-6.910838,9.498,10.535,-9.175,-1
704,705,1582725254763,7.421990400000001,1.5662212,-7.892747999999999,10.849,10.442,-10.269,-1
705,706,1582725254773,8.623598,1.078311,-8.6553755,11.984000000000002,9.951,-11.136,-1
706,707,1582725254783,9.026067999999999,0.39174747,-9.162711,12.302999999999999,9.271,-11.73,-1
707,708,1582725254794,8.460386,-0.196702,-8.984964999999999,11.632,8.703,-11.613,-1
708,709,1582725254803,7.035883999999999,-0.85867405,-8.338484,10.083,8.076,-10.995,-1
709,710,1582725254813,5.908014,-1.6377549,-7.1835995,8.823,7.343,-9.833,-1
710,711,1582725254823,5.292507,-2.5251217,-5.483156,8.078,6.507000000000001,-8.097000000000001,-1
711,712,1582725254833,4.508621,-3.3143616000000002,-3.8064358,7.1770000000000005,5.763999999999999,-6.382000000000001,-1
712,713,1582725254843,3.979118,-4.06875,-2.4515324,6.638,5.003,-5.06,-1
713,714,1582725254854,3.6056583,-4.887624,-1.2282093,6.131,4.236000000000001,-3.7880000000000003,-1
714,715,1582725254864,2.946962,-5.8163333,-0.22604609,5.295,3.3739999999999997,-2.715,-1
715,716,1582725254874,1.447705,-6.620075999999999,0.44940186,3.602,2.641,-1.9509999999999998,-1
716,717,1582725254884,-0.38119006,-7.1007050000000005,1.5884873,1.578,2.2319999999999998,-0.6990000000000001,-1
717,718,1582725254895,-2.4141583,-7.374459299999999,3.1167922000000003,-0.639,2.028,0.9690000000000001,-1
718,719,1582725254905,-3.7535877,-7.7764716,4.4214972999999995,-2.138,1.69,2.435,-1
719,720,1582725254915,-4.262747,-8.282759,5.57845,-2.775,1.24,3.7689999999999997,-1
720,721,1582725254925,-4.2124853,-8.659214,6.8534966,-2.821,0.912,5.233,-1
721,722,1582725254936,-3.5242652999999997,-8.705288000000001,7.7564282,-2.201,0.907,6.334,-1
722,723,1582725254946,-2.7097599999999997,-8.289918,8.255378,-1.432,1.357,7.041,-1
723,724,1582725254956,-2.7574053,-8.029657,9.027771000000001,-1.518,1.65,8.059,-1
724,725,1582725254966,-3.8433537,-7.866475,11.136139,-2.699,1.8630000000000002,10.690999999999999,-1
725,726,1582725254977,-5.2931404,-7.9694457,13.68263,-4.178999999999999,1.7719999999999998,13.5,-1
726,727,1582725254986,-6.7744083,-8.305519,15.253105,-5.672999999999999,1.439,15.294,-1
727,728,1582725254996,-7.428941,-8.524526,16.062616000000002,-6.315,1.216,16.29,-1
728,729,1582725255006,-7.5247564,-7.997632,15.061464,-6.367999999999999,1.733,15.445,-1
729,730,1582725255016,-7.4300679999999995,-7.158309,13.684623,-6.205,2.557,14.216,-1
730,731,1582725255027,-7.3899407,-6.5396996,14.040976,-6.0760000000000005,3.154,14.731,-1
731,732,1582725255037,-7.906743,-5.855886,15.596335999999999,-6.49,3.81,16.453,-1
732,733,1582725255047,-8.754761,-5.404772,17.689735,-7.225,4.229,18.7,-1
733,734,1582725255057,-9.655992,-5.38034,19.338285,-7.999,4.22,20.46,-1
734,735,1582725255068,-9.194892,-5.3437023,19.598848,-7.388,4.224,20.767,-1
735,736,1582725255078,-7.4218454,-4.8454638,16.97257,-5.439,4.689,18.127,-1
736,737,1582725255088,-5.726039,-3.875214,14.038712,-3.549,5.621,15.158,-1
737,738,1582725255098,-4.083776,-2.6625422999999997,12.212369,-1.6980000000000002,6.785,13.318,-1
738,739,1582725255108,-2.6128728,-1.7137923,12.823936999999999,-0.004,7.672999999999999,13.943,-1
739,740,1582725255119,-1.6829201,-1.4499011,14.15654,1.159,7.867000000000001,15.292,-1
740,741,1582725255129,-0.4759884,-1.3000593,14.213494,2.608,7.941,15.337,-1
741,742,1582725255139,1.6074209,-0.053082465999999995,11.320638,5.065,9.065,12.357999999999999,-1
742,743,1582725255149,2.6275585,0.5038166000000001,9.962225,6.212000000000001,9.577,10.962,-1
743,744,1582725255159,5.307140400000001,1.5471907,6.9174547,9.151,10.520999999999999,7.848,-1
744,745,1582725255169,9.150295,2.8063382999999997,4.0032287,13.376,11.613,4.873,-1
745,746,1582725255179,9.870375,3.0692863,3.6863704,14.674000000000001,12.087,4.488,-1
746,747,1582725255189,10.04808,3.46869,4.246772,14.7,12.058,5.115,-1
747,748,1582725255200,8.961689,3.1969242,4.445693,13.78,11.694,5.314,-1
748,749,1582725255210,8.324669,3.2755175,4.186452399999999,13.218,11.73,5.051,-1
749,750,1582725255220,8.662728999999999,3.6156702000000003,2.0200633999999997,13.767999999999999,11.946,2.864,-1
750,751,1582725255230,10.398703999999999,4.0516195,-0.12422252,15.640999999999998,12.298,0.7040000000000001,-1
751,752,1582725255240,12.170502,4.368369,-2.1546702,17.541,12.533,-1.338,-1
752,753,1582725255250,13.545955,4.3329705999999995,-3.89854,19.026,12.425,-3.0869999999999997,-1
753,754,1582725255260,13.645253,4.0834790000000005,-4.971101999999999,19.205,12.120999999999999,-4.16,-1
754,755,1582725255270,11.718038,3.5158080000000003,-5.389724299999999,17.32,11.524000000000001,-4.579,-1
755,756,1582725255281,8.478872,2.6350813,-5.4583163,14.092,10.636,-4.6530000000000005,-1
756,757,1582725255291,6.381325,1.9065418,-5.5589657,11.995999999999999,9.908,-4.77,-1
757,758,1582725255301,6.495172,1.7469115000000002,-6.351284,12.123,9.742,-5.5920000000000005,-1
758,759,1582725255312,8.517952000000001,2.0358782,-8.0178,14.175999999999998,10.013,-7.295,-1
759,760,1582725255322,10.080480999999999,2.1965156,-9.445848,15.773,10.152000000000001,-8.756,-1
760,761,1582725255332,10.704408,1.7970185,-9.964731,16.42,9.738,-9.299,-1
761,762,1582725255342,10.215059,1.3739046999999998,-10.332291,15.934000000000001,9.314,-9.685,-1
762,763,1582725255353,8.405998,0.6399001999999999,-10.201905,14.106,8.595,-9.572000000000001,-1
763,764,1582725255363,6.6719007,-0.16647148,-9.727348,12.339,7.814,-9.122,-1
764,765,1582725255373,5.6464553,-0.7150936,-9.527708,11.28,7.292000000000001,-8.962,-1
765,766,1582725255384,4.999496499999999,-1.0925813,-9.424425999999999,10.605,6.938,-8.916,-1
766,767,1582725255394,5.2405029999999995,-1.2369785,-9.542587,10.827,6.811,-9.105,-1
767,768,1582725255404,5.3296523,-1.2954383,-9.489488,10.904000000000002,6.765,-9.134,-1
768,769,1582725255414,5.3111973,-1.3852863000000002,-9.46834,10.875,6.686,-9.206,-1
769,770,1582725255425,5.4798089999999995,-1.3041921,-9.721774,11.033,6.777,-9.558,-1
770,771,1582725255435,5.722335299999999,-1.4924826999999998,-10.064953,11.261,6.6,-9.992,-1
771,772,1582725255445,5.589674,-1.6236916000000001,-9.785527,11.107999999999999,6.483,-9.786,-1
772,773,1582725255456,5.4546113,-1.9383845000000002,-8.586541,10.933,6.195,-8.662,-1
773,774,1582725255466,5.2327757,-2.0553737,-7.9729295,10.696,6.087999999999999,-8.068,-1
774,775,1582725255476,4.459726,-2.3058925,-5.831627,9.877,5.867000000000001,-5.997000000000001,-1
775,776,1582725255487,3.9601697999999996,-2.4535017000000003,-4.6867475999999995,9.354,5.733,-4.928,-1
776,777,1582725255496,3.7824912000000004,-2.6053715,-4.266301599999999,9.168,5.585,-4.5569999999999995,-1
777,778,1582725255506,3.0688581000000004,-2.7081904,-4.8366017,8.43,5.489,-5.321000000000001,-1
778,779,1582725255516,3.0635457,-2.8725662,-5.4302335,8.413,5.327999999999999,-5.982,-1
779,780,1582725255526,3.8393946000000003,-3.1926403,-6.08487,9.16,5.019,-6.7410000000000005,-1
780,781,1582725255537,4.4062157,-3.8493557000000003,-5.045864,9.68,4.387,-5.767,-1
781,782,1582725255546,4.0802298,-4.203087,-3.8883742999999993,9.35,4.035,-4.619,-1
782,783,1582725255556,3.1053557,-4.8186064,-1.614599,8.427999999999999,3.384,-2.3609999999999998,-1
783,784,1582725255566,2.0715337,-5.356464,0.9521598,7.345,2.883,0.265,-1
784,785,1582725255576,0.95147467,-5.782748000000001,3.1224105,6.152,2.5069999999999997,2.4859999999999998,-1
785,786,1582725255587,0.13562346,-6.1844053,4.2053804,5.261,2.153,3.582,-1
786,787,1582725255597,-0.37473726,-6.224572,4.1521360000000005,4.677,2.155,3.4939999999999998,-1
787,788,1582725255607,-0.6221185,-6.296223,3.2561407000000004,4.361000000000001,2.119,2.533,-1
788,789,1582725255617,-0.750432,-6.443824,2.069844,4.172,2.002,1.29,-1
789,790,1582725255627,-1.1309156,-6.7304306,1.5150656,3.7430000000000003,1.743,0.73,-1
790,791,1582725255637,-2.0163450000000003,-7.410143,3.8249282999999994,2.8160000000000003,1.099,3.182,-1
791,792,1582725255648,-3.065198,-8.172329,7.3400445,1.7619999999999998,0.35200000000000004,6.888,-1
792,793,1582725255658,-3.989614,-8.335799,9.237889,0.847,0.191,8.971,-1
793,794,1582725255668,-6.283418,-8.379607,14.502145,-1.413,0.131,14.64,-1
794,795,1582725255678,-6.722174000000001,-8.278179,16.364020999999997,-1.798,0.198,16.642,-1
795,796,1582725255688,-6.3304715,-7.9940643,16.05097,-1.324,0.431,16.403,-1
796,797,1582725255699,-5.490053,-7.5566473,14.798896,-0.376,0.802,15.186,-1
797,798,1582725255709,-4.9370356,-7.33052,13.841225,0.7440000000000001,1.228,13.282,-1
798,799,1582725255719,-4.3308883,-6.4591894,11.694052000000001,1.053,1.719,12.243,-1
799,800,1582725255729,-4.4887559999999995,-6.267892400000001,12.191492,1.046,1.796,12.905999999999999,-1
800,801,1582725255740,-5.1371927,-6.494438,13.832016000000001,0.555,1.439,14.743,-1
801,802,1582725255750,-6.0951653,-6.4546595,15.69484,-0.239,1.331,16.817,-1
802,803,1582725255760,-6.189663400000001,-6.5785227,17.874693,-0.16,1.041,19.2,-1
803,804,1582725255770,-6.029673000000001,-6.1942782,19.269814,0.184,1.2429999999999999,20.769000000000002,-1
804,805,1582725255780,-5.2601557,-5.9565790000000005,18.942892,1.147,1.286,20.575,-1
805,806,1582725255790,-3.8760953000000002,-5.775739700000001,16.382906,2.73,1.262,18.115,-1
806,807,1582725255800,-3.1996303,-4.903500599999999,13.898211499999999,3.6039999999999996,1.9180000000000001,15.728,-1
807,808,1582725255810,-1.8497801,-4.3202085,12.143252,5.146,2.2680000000000002,14.099,-1
808,809,1582725255820,-0.40765762,-3.6483123,10.921025,6.77,2.6889999999999996,13.04,-1
809,810,1582725255830,0.117461205,-3.0081532,10.570267,7.457999999999999,3.068,12.887,-1
810,811,1582725255841,0.4993415,-3.2084479999999997,11.326761999999999,7.984,2.6,13.859000000000002,-1
811,812,1582725255851,1.4437113000000001,-3.020262,11.873833,9.057,2.517,14.620999999999999,-1
812,813,1582725255861,1.8384676,-2.5568584999999997,12.043909,9.565,2.7110000000000003,14.997,-1
813,814,1582725255871,2.1233168,-1.8434686999999998,11.629392,9.948,3.159,14.779000000000002,-1
814,815,1582725255881,3.1102333,-0.67342424,11.081389,11.019,4.066,14.422,-1
815,816,1582725255892,4.727614,0.32253695,9.792261,12.705,4.802,13.323,-1
816,817,1582725255902,6.177266,1.1381545,8.192259,14.204,5.367000000000001,11.915,-1
817,818,1582725255912,6.907068300000001,1.2497685,7.1360244999999995,14.960999999999999,5.245,11.052999999999999,-1
818,819,1582725255922,6.9733734,0.90423155,6.31754,15.035,4.687,10.425,-1
819,820,1582725255933,5.926231400000001,0.46179056,5.7338567000000005,13.982000000000001,4.053999999999999,10.02,-1
820,821,1582725255943,4.9152927,0.12070274,5.5224943,12.959000000000001,3.537,9.972000000000001,-1
821,822,1582725255953,4.737521,1.0313058000000002,5.722226999999999,12.767000000000001,4.275,10.324000000000002,-1
822,823,1582725255963,6.187752,2.4034077999999996,5.781848,14.202,5.472,10.527999999999999,-1
823,824,1582725255973,8.630886,3.3830147000000004,4.3592334,16.628,6.277,9.242,-1
824,825,1582725255984,10.818069,4.2253,2.2322316000000004,18.793,6.959,7.242000000000001,-1
825,826,1582725255994,12.848688000000001,4.6018667,-0.27063990000000004,20.793000000000003,7.199,4.859,-1
826,827,1582725256004,13.781476000000001,4.636695,-2.374858,21.682,7.127000000000001,2.8739999999999997,-1
827,828,1582725256015,12.757261999999999,4.3515644,-3.3321347,20.599,6.768,2.0380000000000003,-1
828,829,1582725256024,10.274313000000001,3.7907976999999997,-3.0487813999999998,18.046,6.162000000000001,2.4419999999999997,-1
829,830,1582725256034,7.9928446,2.9444356,-2.5146677000000004,15.692,5.287999999999999,3.089,-1
830,831,1582725256044,6.549373,2.1597047000000003,-2.1071155,14.18,4.485,3.597,-1
831,832,1582725256054,5.961243,2.0396970000000003,-2.011255,13.530999999999999,4.351,3.779,-1
832,833,1582725256065,6.68955,1.9597659,-2.362144,14.207,4.258,3.5010000000000003,-1
833,834,1582725256075,7.916644,2.013507,-3.2964046000000002,15.39,4.301,2.627,-1
834,835,1582725256085,8.854755,2.1177444,-4.111644,16.29,4.404,1.86,-1
835,836,1582725256095,7.836892999999999,1.6389991999999998,-4.9537234,15.222000000000001,3.951,1.07,-1
836,837,1582725256105,7.2772190000000005,1.4106021,-5.14732,14.647,3.736,0.89,-1
837,838,1582725256116,5.8627996,0.9283924000000001,-5.116128400000001,13.206,3.281,0.943,-1
838,839,1582725256126,4.8691059999999995,0.5271647,-4.6145864,12.193,2.9,1.46,-1
839,840,1582725256136,3.5756492999999994,0.012123585,-2.8349316000000004,10.887,2.392,3.252,-1
840,841,1582725256146,3.4427276,-0.1004827,-2.2095609,10.609000000000002,2.471,4.291,-1
841,842,1582725256156,3.4494648,0.04040885,-1.7806034,10.755999999999998,2.418,4.313,-1
842,843,1582725256167,3.730051,0.21893406,-2.7215266,11.064,2.622,3.3289999999999997,-1
843,844,1582725256177,3.7843117999999993,0.24688864,-3.0919416,11.136,2.665,2.931,-1
844,845,1582725256187,3.1925726,0.34896016,-4.161833000000001,10.629000000000001,2.823,1.733,-1
845,846,1582725256197,2.3806462,0.42985606,-4.0819019999999995,9.902999999999999,2.943,1.686,-1
846,847,1582725256208,1.8544273,0.37508225,-3.5799475,9.437999999999999,2.909,2.0980000000000003,-1
847,848,1582725256218,0.6285143,0.39690970000000003,-1.9515383000000002,8.361,2.986,3.4960000000000004,-1
848,849,1582725256228,0.27755213,0.5753076,-1.4080243000000001,7.716,3.1919999999999997,4.648,-1
849,850,1582725256238,-0.20579243,0.97209454,0.02058649,7.537000000000001,3.616,5.4270000000000005,-1
850,851,1582725256249,-0.022214413,1.0604866000000002,-0.056624413,7.721,3.717,5.343,-1
851,852,1582725256259,0.7248926,1.3197956,-0.5565386,8.485,3.992,4.811,-1
852,853,1582725256269,1.3654065,1.398726,-1.4691732,9.158,4.085,3.844,-1
853,854,1582725256279,1.6115098,1.3642645,-2.3072069,9.445,4.069,2.9360000000000004,-1
854,855,1582725256290,0.5130100000000001,1.2838705,-1.5965368999999998,8.413,4.053999999999999,3.511,-1
855,856,1582725256300,0.26330614,1.365732,-0.9340544,8.171,4.157,4.15,-1
856,857,1582725256310,0.1069026,1.3703079,1.0400314,8.008,4.164,6.132999999999999,d
857,858,1582725256320,0.2809682,1.459847,1.2716068999999999,8.177999999999999,4.246,6.375,-1
858,859,1582725256330,0.78861,1.6263044,1.8871721999999997,8.677,4.3919999999999995,7.015,-1
859,860,1582725256340,1.6875442999999999,1.7326921999999998,2.2591338,9.56,4.471,7.426,-1
860,861,1582725256350,1.7698531000000002,1.6475749,2.3279634,9.635,4.382,7.507999999999999,-1
861,862,1582725256361,1.6897563999999998,1.5346313,2.458921,9.536,4.272,7.666,-1
862,863,1582725256371,0.98879194,1.5786396999999999,2.4037403999999998,8.799,4.346,7.649,-1
863,864,1582725256381,0.78876543,1.6110413000000001,2.3837032000000002,8.586,4.394,7.64,-1
864,865,1582725256391,0.50458,1.8253846000000002,2.027248,8.262,4.667,7.311,-1
865,866,1582725256401,0.7146368000000001,2.0806663,1.8051381000000002,8.447000000000001,4.9639999999999995,7.103,-1
866,867,1582725256412,1.6476473999999999,2.3196232000000006,1.1529102,9.357000000000001,5.24,6.4639999999999995,-1
867,868,1582725256422,2.7261113999999997,2.671495,0.7238034999999999,10.411,5.625,6.0520000000000005,-1
868,869,1582725256432,3.8743758,2.789709,0.42574929999999994,11.532,5.774,5.776,-1
869,870,1582725256442,4.6397796,2.90805,0.767694,12.267000000000001,5.925,6.143,-1
870,871,1582725256453,4.5273699999999995,3.1587248,1.299356,12.123,6.2170000000000005,6.696000000000001,-1
871,872,1582725256463,4.2859893,3.5318267,1.8068485,11.852,6.641,7.216,-1
872,873,1582725256473,4.569694999999999,4.200122,2.3178243999999997,12.513,7.723,7.841,-1
873,874,1582725256483,5.97839,4.9478089999999995,2.3975587000000003,13.495,8.214,7.7829999999999995,-1
874,875,1582725256494,6.871406599999999,5.355958,2.3976965,14.377,8.701,7.75,-1
875,876,1582725256504,7.3963733,5.366973000000001,2.1574445,14.897,8.756,7.489,-1
876,877,1582725256514,8.057129,5.5229454,1.7083373,15.744000000000002,9.074,6.785,-1
877,878,1582725256524,8.173936,5.4131136,1.7983474999999998,15.632,9.068999999999999,7.0120000000000005,-1
878,879,1582725256534,7.933052,5.235735,2.6999902999999996,15.360999999999999,9.017000000000001,7.867000000000001,-1
879,880,1582725256544,7.212744,4.9461184000000005,4.2338543,14.609000000000002,8.863,9.345,-1
880,881,1582725256555,7.0763683,4.871487999999999,5.093006,14.458,8.861,10.169,-1
881,882,1582725256565,6.5972424,4.1076427,6.768619999999999,13.943,8.341000000000001,11.697000000000001,-1
882,883,1582725256575,6.1962967,3.7810555,6.8427872999999995,13.519,8.202,11.639000000000001,-1
883,884,1582725256585,5.884839,3.2286468,6.351328,13.177,7.853,11.0,-1
884,885,1582725256595,5.342409,2.536025,5.8834653,12.59,7.374,10.382,-1
885,886,1582725256606,4.992849,2.1783438,5.925524,12.212,7.125,10.350999999999999,-1
886,887,1582725256616,4.947794,1.2036366000000003,5.9189167000000005,12.058,6.48,10.135,-1
887,888,1582725256626,4.486116,0.64494896,5.909979,11.505,6.148,9.987,-1
888,889,1582725256636,3.3364992,0.087528706,6.3754926,10.253,5.824,10.302999999999999,-1
889,890,1582725256646,1.8758326,0.07992172,6.7860575,8.684,6.053999999999999,10.545,-1
890,891,1582725256657,1.5636826000000001,-0.2575612,6.717982000000001,8.265,5.9510000000000005,10.284,-1
891,892,1582725256667,1.519949,-0.5761423000000001,6.421768,8.116,5.858,9.777999999999999,-1
892,893,1582725256677,1.5360413,-1.09832,5.84734,8.023,5.551,8.99,-1
893,894,1582725256687,1.0611739,-1.8152131999999999,5.3874655,7.428999999999999,5.0360000000000005,8.334,-1
894,895,1582725256697,-0.15639448,-2.0818691000000005,5.578380999999999,6.0760000000000005,4.957,8.368,-1
895,896,1582725256707,-1.2455053,-2.5321646,5.957444000000001,4.837,4.677,8.641,-1
896,897,1582725256718,-1.5767832,-3.136364,6.0945263,4.356,4.22,8.713,-1
897,898,1582725256728,-1.2805305,-3.487881,5.5953383,4.513999999999999,3.9819999999999998,8.202,-1
898,899,1582725256738,-1.0180936,-3.6180606,4.5502124,4.651,3.9010000000000002,7.287999999999999,-1
899,900,1582725256748,-1.5381379,-3.7648387000000003,4.117589,4.006,3.887,6.7410000000000005,-1
900,901,1582725256758,-2.21997,-3.8857696,3.8309998999999997,3.187,3.911,6.31,-1
901,902,1582725256769,-3.0842332999999997,-3.8041663,3.4913905,2.1719999999999997,4.138,5.829,-1
902,903,1582725256779,-4.0069056000000005,-3.99893,3.1709034,1.089,4.083,5.381,-1
903,904,1582725256789,-4.5212392999999995,-4.415824400000001,2.9961580000000003,0.41100000000000003,3.7960000000000003,5.096,-1
904,905,1582725256799,-5.10802,-4.825151,2.8780675,-0.337,3.5060000000000002,4.878,-1
905,906,1582725256809,-5.158294000000001,-5.339403,2.6122544,-0.5379999999999999,3.0989999999999998,4.513999999999999,-1
906,907,1582725256819,-4.978583,-5.331607,1.8624825,-0.495,3.202,3.6639999999999997,-1
907,908,1582725256830,-4.166665,-4.928042,1.1579771,0.191,3.69,2.864,-1
908,909,1582725256840,-3.2775497000000002,-4.931512000000001,0.8813,0.96,3.762,2.505,-1
909,910,1582725256850,-2.83675,-4.981990000000001,1.0939178,1.281,3.781,2.6510000000000002,-1
910,911,1582725256860,-2.4426014,-4.8529860000000005,1.2475815000000001,1.556,3.975,2.747,-1
911,912,1582725256870,-2.5754094,-4.8434553,1.1493389999999999,1.305,4.047,2.589,-1
912,913,1582725256880,-3.4093556000000005,-4.44452,0.8081664000000001,0.35200000000000004,4.507,2.184,-1
913,914,1582725256891,-4.0335636,-4.41573,1.0801239,-0.387,4.593,2.39,-1
914,915,1582725256901,-4.068494,-4.6790767,1.1157317,-0.57,4.404,2.311,-1
915,916,1582725256911,-3.59139,-4.7916512,0.86114013,-0.134,4.313,2.011,-1
916,917,1582725256921,-2.3165026,-4.727348999999999,0.18562067,1.07,4.416,1.235,-1
917,918,1582725256932,-1.1053678999999998,-4.6334105,-0.84487766,2.217,4.545,0.098,-1
918,919,1582725256942,-1.1001315,-4.352717,-1.7930066999999998,2.117,4.876,-0.986,-1
919,920,1582725256952,-1.9290236,-4.202103,-1.3384118,1.209,5.058,-0.581,-1
920,921,1582725256962,-2.9001627,-4.586490599999999,-0.12548053,0.16,4.7010000000000005,0.615,-1
921,922,1582725256972,-3.479776,-4.524156,0.5145166,-0.852,5.106,1.839,-1
922,923,1582725256982,-3.4537516000000004,-3.6626163,1.6634665000000002,-0.505,5.6610000000000005,2.4019999999999997,-1
923,924,1582725256993,-1.4929378,-3.1878572,1.5792131,1.4369999999999998,6.143,2.301,-1
924,925,1582725257003,-0.33499384,-2.7615738,1.2316758999999997,2.593,6.571000000000001,1.939,-1
925,926,1582725257013,1.6824398,-2.089497,-0.063370526,4.622,7.244,0.581,-1
926,927,1582725257023,1.3427029,-1.9433398000000002,-0.5894204000000001,4.277,7.395,0.006999999999999999,-1
927,928,1582725257033,0.25228405,-1.8442054,-0.54287577,3.1489999999999996,7.507999999999999,0.019,-1
928,929,1582725257044,-1.0267465,-1.7907113999999997,0.020937562,1.8130000000000002,7.58,0.565,-1
929,930,1582725257054,-1.3531163,-1.9176330000000001,0.32001007,1.4580000000000002,7.462000000000001,0.8590000000000001,-1
930,931,1582725257064,-1.1946058000000002,-1.945487,1.3606558000000002,1.5490000000000002,7.455,1.8840000000000001,-1
931,932,1582725257074,-0.4347322,-1.6299709999999998,1.0508486000000001,2.2840000000000003,7.779,1.551,-1
932,933,1582725257085,0.43266750000000004,-1.5347466,-0.21067621,3.142,7.879,0.249,-1
933,934,1582725257095,0.7806699,-1.2852716,-1.0793123,3.489,8.131,-0.6679999999999999,-1
934,935,1582725257105,0.8852136,-0.8835591999999999,-1.1943357,3.5989999999999998,8.533,-0.828,-1
935,936,1582725257115,0.57776594,-0.61259174,-0.12149653,3.285,8.806000000000001,0.24100000000000002,-1
936,937,1582725257125,0.28901362,-0.67960167,0.8487771999999999,2.9739999999999998,8.744,1.245,-1
937,938,1582725257135,-0.5121896,-0.70052147,1.1866896999999998,2.129,8.734,1.6159999999999999,-1
938,939,1582725257146,-1.1032848,-0.7865380999999999,1.3991111999999999,1.484,8.662,1.848,-1
939,940,1582725257156,-1.2962073,-0.94711494,1.309808,1.245,8.514,1.757,-1
940,941,1582725257166,-1.2684674999999999,-0.6280813000000001,0.37154734,1.235,8.844,0.799,-1
941,942,1582725257176,-0.70060766,-0.11607456,-0.59822774,1.7719999999999998,9.366,-0.215,d
942,943,1582725257187,0.07000494,0.21889877,-1.2306715,2.531,9.707,-0.9309999999999999,-1
943,944,1582725257197,0.7598126000000001,0.47117709999999996,-1.4340764,3.238,9.956,-1.175,-1
944,945,1582725257207,0.9491,0.42730427,-0.76355404,3.444,9.908,-0.514,-1
945,946,1582725257217,0.85215116,0.4079094,0.33474594,3.355,9.886000000000001,0.603,-1
946,947,1582725257227,0.291476,0.2782688,1.3314504999999999,2.787,9.757,1.642,-1
947,948,1582725257238,-0.110361814,0.6113453000000001,1.4236064,2.363,10.095,1.76,-1
948,949,1582725257248,0.2713778,0.829299,1.0126680000000001,2.73,10.317,1.3430000000000002,-1
949,950,1582725257258,0.6615608000000001,1.0328846,-0.23389399,3.115,10.523,0.064,-1
950,951,1582725257268,0.74015164,1.070878,-1.6538256000000002,3.187,10.564,-1.401,-1
951,952,1582725257279,0.7211920999999999,0.97882366,-2.0008529999999998,3.159,10.475,-1.777,-1
952,953,1582725257289,0.60916924,0.8466710999999999,-0.7979568,3.034,10.345999999999998,-0.5670000000000001,-1
953,954,1582725257299,0.36187172,0.7541523,0.68280333,2.7680000000000002,10.257,0.96,-1
954,955,1582725257310,0.42831898,0.7899151,1.8602227999999998,2.802,10.298,2.224,-1
955,956,1582725257320,0.3315544,0.84037685,1.8369061999999998,2.6919999999999997,10.350999999999999,2.22,-1
956,957,1582725257330,0.5440185000000001,0.93692875,0.98852515,2.866,10.456,1.396,-1
957,958,1582725257340,0.668782,0.9043722,0.02579248,2.965,10.43,0.426,-1
958,959,1582725257350,0.65079856,0.8217344000000001,-0.29376963,2.9330000000000003,10.350999999999999,0.1,-1
959,960,1582725257360,0.09901404400000001,0.33844376,0.039274216,2.325,9.881,0.433,-1
960,961,1582725257371,-0.5565751999999999,0.30008698,0.90374005,1.607,9.855,1.3430000000000002,-1
961,962,1582725257381,-1.0593801999999999,0.037984847999999995,1.8107988000000002,1.015,9.607999999999999,2.342,-1
962,963,1582725257391,-1.4242687,-0.10406971,2.2590337000000003,0.5479999999999999,9.481,2.897,-1
963,964,1582725257401,-1.3749175,0.23428535,1.7115349999999998,0.507,9.833,2.414,-1
964,965,1582725257412,-0.8512501,-0.052448273,0.36529320000000004,0.948,9.56,1.0959999999999999,-1
965,966,1582725257422,-0.9560031999999999,-0.6768321999999999,-0.17357635,0.775,8.947000000000001,0.5720000000000001,-1
966,967,1582725257432,-1.6244891000000001,-1.6340861,1.1531243,0.031,7.999,1.949,-1
967,968,1582725257442,-2.6753218,-2.4398956000000003,2.8122043999999997,-1.1079999999999999,7.2010000000000005,3.688,-1
968,969,1582725257452,-3.7702193,-3.2437663,4.060828,-2.306,6.404,5.034,-1
969,970,1582725257462,-5.1478915,-4.114722,5.144335,-3.822,5.539,6.247999999999999,-1
970,971,1582725257472,-6.162194,-5.016961599999999,5.978905,-5.0889999999999995,4.636,7.335,-1
971,972,1582725257483,-6.7343106,-5.9362525999999995,6.7962933,-5.817,3.7119999999999997,8.293,-1
972,973,1582725257493,-7.5356507,-7.136601400000001,6.8055710000000005,-6.727,2.509,8.38,-1
973,974,1582725257503,-7.983353599999999,-7.637784,6.4047537000000005,-7.75,1.683,7.544,-1
974,975,1582725257513,-9.600031,-8.6312475,5.479128,-8.937999999999999,1.01,7.146,-1
975,976,1582725257523,-10.505087,-9.2296295,6.650322,-9.833,0.402,8.368,-1
976,977,1582725257534,-11.14605,-9.840014,8.775782000000001,-10.408,-0.22699999999999998,10.569,-1
977,978,1582725257543,-10.870422,-10.602354,11.27512,-10.017999999999999,-1.015,13.152999999999999,-1
978,979,1582725257553,-10.116807000000001,-10.812786000000001,12.673789,-9.103,-1.254,14.616,-1
979,980,1582725257563,-8.159283,-10.605653,13.037873,-6.935,-1.075,14.997,-1
980,981,1582725257574,-4.8851833,-10.116394999999999,10.835701,-3.405,-0.615,12.76,-1
981,982,1582725257584,-1.675255,-9.285405,7.2496095,0.095,0.165,9.18,-1
982,983,1582725257594,0.84713626,-8.444855,3.8740172,2.924,0.9690000000000001,5.672999999999999,-1
983,984,1582725257604,2.1622703,-8.196609500000001,1.6095636,4.5360000000000005,1.171,3.278,-1
984,985,1582725257614,1.9684482,-7.9162235,1.1973903000000001,4.622,1.391,2.78,-1
985,986,1582725257625,1.8609688000000002,-7.499667999999999,1.9166738,4.787,1.7309999999999999,3.467,-1
986,987,1582725257635,2.5191722000000003,-6.881031,2.006071,5.731,2.253,3.563,-1
987,988,1582725257645,4.500431,-5.694623,1.6092296999999998,8.085,3.29,3.221,-1
988,989,1582725257656,7.0113697,-4.7502985,0.47313583,10.993,4.0569999999999995,2.131,-1
989,990,1582725257666,9.394556,-4.1463957,-1.0477839,13.706,4.5,0.632,-1
990,991,1582725257676,11.340544,-3.160707,-2.5015144,15.953,5.324,-0.797,-1
991,992,1582725257686,12.139027,-1.7681227,-3.4320230000000005,17.019000000000002,6.557,-1.686,-1
992,993,1582725257696,12.75407,-0.2700634,-3.8943586000000003,17.871,7.898,-2.086,-1
993,994,1582725257707,13.596428,0.9343461999999999,-4.4878836,18.927,8.947000000000001,-2.603,-1
994,995,1582725257717,14.456654,2.1795687999999998,-5.023733999999999,19.979,10.042,-3.06,-1
995,996,1582725257727,14.831303,2.5691137000000004,-6.1633263,20.52,10.293,-4.126,-1
996,997,1582725257737,14.30475,2.6428962000000005,-7.4412985,20.13,10.245,-5.332999999999999,-1
997,998,1582725257747,14.146841,2.8173485,-8.323028,20.132,10.26,-6.097,-1
998,999,1582725257757,14.842092000000001,2.990889,-8.658116,20.874000000000002,10.382,-6.3870000000000005,-1
999,1000,1582725257768,16.560707,3.4305162000000005,-9.598088,22.676,10.722000000000001,-7.23,-1
1000,1001,1582725257778,18.031734,3.7575687999999996,-10.768993,24.23,10.925999999999998,-8.246,-1
1001,1002,1582725257788,16.845533,3.4433269999999996,-11.107847,23.061,10.559000000000001,-8.48,-1
1002,1003,1582725257798,14.813035999999999,2.7974687,-11.208996,21.016,9.884,-8.475,-1
1003,1004,1582725257809,12.740089999999999,2.352985,-11.554495,18.910999999999998,9.426,-8.715,-1
1004,1005,1582725257819,10.883266,1.99331,-11.511471,17.014,9.06,-8.571,-1
1005,1006,1582725257829,10.382544000000001,0.9715109000000001,-10.386436,16.477,8.032,-7.357,-1
1006,1007,1582725257839,10.14038,0.671772,-9.71809,16.207,7.726,-6.619,-1
1007,1008,1582725257850,9.530806,0.16137362,-9.487361,15.574000000000002,7.212999999999999,-6.337000000000001,-1
1008,1009,1582725257860,8.748989,-0.6628604,-9.173258,14.772,6.388999999999999,-5.985,-1
1009,1010,1582725257870,7.84652,-1.4291835,-8.911854,13.855,5.622999999999999,-5.697,-1
1010,1011,1582725257880,7.140867699999999,-2.0067873,-9.070917,13.142999999999999,5.043,-5.8389999999999995,-1
1011,1012,1582725257890,6.7990146,-2.3720293,-9.249359,12.802999999999999,4.67,-6.004,-1
1012,1013,1582725257901,6.6151789999999995,-2.6160822,-9.294359,12.628,4.4110000000000005,-6.0329999999999995,-1
1013,1014,1582725257911,6.9611087,-2.854134,-9.015672,12.988,4.15,-5.731,-1
1014,1015,1582725257921,7.0833516,-2.8774147,-7.911319000000001,13.129000000000001,4.0969999999999995,-4.598,-1
1015,1016,1582725257931,7.014087,-3.3532830000000002,-6.187232,13.088,3.5869999999999997,-2.8539999999999996,-1
1016,1017,1582725257942,6.8216076,-3.7974937000000004,-4.777314700000001,12.935,3.108,-1.444,-1
1017,1018,1582725257951,6.0048685,-4.24181,-4.0058966,12.171,2.627,-0.6940000000000001,-1
1018,1019,1582725257961,5.223217,-4.526418700000001,-3.6354512999999997,11.46,2.294,-0.35600000000000004,-1
1019,1020,1582725257971,5.029407,-4.800141,-3.3464077000000003,11.345,1.959,-0.091,-1
1020,1021,1582725257981,4.9334807000000005,-4.966864,-2.6758318,11.33,1.7169999999999999,0.5770000000000001,-1
1021,1022,1582725257992,4.720536,-4.872827,-1.4163289,11.199000000000002,1.722,1.8559999999999999,-1
1022,1023,1582725258002,5.0402074,-4.820626,0.21520615,11.587,1.69,3.52,-1
1023,1024,1582725258012,4.85166,-4.5823602999999995,1.3284862,11.462,1.851,4.658,-1
1024,1025,1582725258022,4.936666000000001,-4.370324,2.4462040000000003,11.607999999999999,1.9969999999999999,5.781000000000001,-1
1025,1026,1582725258033,5.090433999999999,-4.1431413,3.4609949999999996,11.819,2.1719999999999997,6.78,-1
1026,1027,1582725258043,3.6423497000000005,-3.932636,4.284587,10.423,2.339,7.58,-1
1027,1028,1582725258053,2.95934,-3.8487430000000002,4.830393,9.764,2.4019999999999997,8.116,-1
1028,1029,1582725258063,0.40897417,-3.1512425,5.9744387,7.2829999999999995,3.029,9.249,-1
1029,1030,1582725258073,-0.35354042,-2.4657423,6.781108000000001,6.569,3.661,10.054,-1
1030,1031,1582725258083,-0.24454069,-2.1315112000000003,8.533839,6.734,3.935,11.8,-1
1031,1032,1582725258094,0.56577396,-1.7143096999999998,11.031788,7.606,4.287,14.286,-1
1032,1033,1582725258104,1.0770736,-1.3151306999999999,13.734261499999999,8.176,4.624,16.975,-1
1033,1034,1582725258114,0.57175255,-0.6113781999999999,15.936712,7.718999999999999,5.278,19.162,-1
1034,1035,1582725258124,-1.0087533000000002,-0.038974285,17.5403,6.176,5.817,20.743000000000002,-1
1035,1036,1582725258134,-2.186833,0.7492956999999999,18.369225,5.031000000000001,6.582999999999999,21.538,-1
1036,1037,1582725258145,-2.3879857,1.7063255000000002,18.186373,4.828,8.02,20.616,-1
1037,1038,1582725258155,-2.3213662999999998,2.8611517,16.784119,4.9639999999999995,8.66,19.861,-1
1038,1039,1582725258165,-1.1276426000000002,3.9296207,15.739722,6.186,9.709,18.785999999999998,-1
1039,1040,1582725258175,0.5975728,4.672059,15.593063,7.9270000000000005,10.43,18.642,-1
1040,1041,1582725258186,1.5809202,5.1232,15.944403,8.907,10.868,19.026,-1
1041,1042,1582725258196,1.717802,5.333815599999999,16.684458,8.727,11.095999999999998,19.864,-1
1042,1043,1582725258206,0.30055618,5.183744,16.711174,7.532,11.0,19.881,-1
1043,1044,1582725258216,-0.20511484,4.894185,16.197119,6.997999999999999,10.745999999999999,19.366,-1
1044,1045,1582725258226,-1.0599937,4.390295,13.354610000000001,6.0520000000000005,10.377,16.477,-1
1045,1046,1582725258237,-1.0029611999999999,4.285648999999999,12.190197999999999,6.0760000000000005,10.322000000000001,15.292,-1
1046,1047,1582725258247,0.26230240000000005,4.262158,9.431063,7.23,10.447000000000001,12.492,-1
1047,1048,1582725258257,1.3820848,4.093697,7.841794500000001,8.265,10.377,10.894,-1
1048,1049,1582725258267,1.8057418,4.0598279999999995,7.3033175,8.642999999999999,10.394,10.353,-1
1049,1050,1582725258278,2.4791064,3.8524718,5.526145,9.168,10.350999999999999,8.559,-1
1050,1051,1582725258288,2.1348767000000004,3.677423,4.700259,8.717,10.296,7.707000000000001,-1
1051,1052,1582725258298,2.048409,3.7683415,4.728408,8.521,10.511,7.697,-1
1052,1053,1582725258308,2.7586374,3.7739701,4.940256,9.125,10.638,7.86,-1
1053,1054,1582725258318,3.8220887,4.0167074000000005,4.7919339999999995,10.085,11.0,7.652,-1
1054,1055,1582725258329,4.6940349999999995,4.266938,3.6521385000000004,10.850999999999999,11.370999999999999,6.444,-1
1055,1056,1582725258339,5.5295663,4.2708416,3.0936425,11.572000000000001,11.498,5.819,-1
1056,1057,1582725258349,5.616847,3.78645,3.2189229,11.532,11.140999999999998,5.882000000000001,-1
1057,1058,1582725258359,5.218443,3.031577,3.1601162,10.993,10.520999999999999,5.755,-1
1058,1059,1582725258370,4.856990000000001,1.9830017,3.1627169,10.482999999999999,9.613,5.672999999999999,-1
1059,1060,1582725258380,4.4605346,1.2286978000000002,2.4893112,9.934,9.002,4.895,-1
1060,1061,1582725258390,4.249348,0.47445726,1.6830296999999999,9.57,8.389,3.968,-1
1061,1062,1582725258400,4.23321,-0.36363268,1.0133471,9.405,7.685,3.168,-1
1062,1063,1582725258410,3.9408607000000004,-0.74859,0.5505306999999999,8.966000000000001,7.426,2.574,-1
1063,1064,1582725258421,3.6470895,-1.5353389,0.09474826,8.54,6.749,1.992,-1
1064,1065,1582725258431,2.8183974999999997,-2.2197165,-0.10561395,7.664,6.119,1.671,-1
1065,1066,1582725258441,2.1942706000000003,-2.8462572,-0.28283322,6.935,5.575,1.3840000000000001,-1
1066,1067,1582725258452,1.7532740000000002,-3.8621483,-0.50935984,6.334,4.667,1.053,-1
1067,1068,1582725258462,1.583766,-4.631272,-0.7632496999999999,5.994,4.006,0.6920000000000001,-1
1068,1069,1582725258472,1.1826067,-5.3044996,-1.3524833,5.417000000000001,3.4389999999999996,-0.013999999999999999,-1
1069,1070,1582725258483,0.6234684,-5.717188,-2.001003,4.677,3.13,-0.79,-1
1070,1071,1582725258493,-0.06615853,-6.3165894,-2.5694838,3.805,2.6289999999999996,-1.492,-1
1071,1072,1582725258503,-0.80570364,-6.658436,-3.0224092000000002,2.885,2.378,-2.0780000000000003,-1
1072,1073,1582725258513,-1.8743463,-7.065542999999999,-3.4670072,1.556,2.09,-2.7060000000000004,-1
1073,1074,1582725258524,-2.367188,-7.281078999999999,-3.465278,0.9,1.942,-2.8089999999999997,-1
1074,1075,1582725258534,-2.3683624,-7.3855343,-3.687669,0.821,1.868,-3.0789999999999997,-1
1075,1076,1582725258544,-1.9728063000000002,-7.689178999999999,-4.4941487,1.07,1.619,-3.975,-1
1076,1077,1582725258555,-1.7045027,-7.878848,-5.010738,1.202,1.4769999999999999,-4.574,-1
1077,1078,1582725258564,-1.9317725,-8.345203,-4.7696733,0.845,1.053,-4.404,-1
1078,1079,1582725258574,-2.3223233,-8.734503,-3.7561964999999997,0.332,0.701,-3.446,-1
1079,1080,1582725258584,-3.6485339999999997,-8.817194,-2.04942,-1.1079999999999999,0.6509999999999999,-1.786,-1
1080,1081,1582725258594,-5.223192,-8.749073,-1.3802698999999998,-2.8280000000000003,0.759,-1.207,-1
1081,1082,1582725258605,-5.447284,-8.774464,-1.7930386000000003,-3.091,0.7440000000000001,-1.662,-1
1082,1083,1582725258615,-6.0106773,-8.635481,-5.1447325,-3.75,0.907,-5.172999999999999,-1
1083,1084,1582725258625,-6.233855999999999,-8.589546,-7.23238,-4.04,0.9670000000000001,-7.405,-1
1084,1085,1582725258636,-6.299077,-8.654246,-7.919904700000001,-4.1739999999999995,0.914,-8.241,-1
1085,1086,1582725258646,-5.5926279999999995,-8.508800500000001,-7.472207000000001,-3.688,1.075,-8.305,-1
1086,1087,1582725258656,-5.1973066,-8.597118,-6.6790576,-3.285,0.9840000000000001,-7.525,-1
1087,1088,1582725258666,-4.97421,-8.490821,-5.2378573,-3.015,1.084,-6.047000000000001,-1
1088,1089,1582725258677,-4.55869,-8.540205,-3.7729947999999998,-2.495,1.02,-4.49,-1
1089,1090,1582725258687,-4.4111123,-8.646669000000001,-3.3819902,-2.3080000000000003,0.907,-4.071000000000001,-1
1090,1091,1582725258698,-4.3859606,-8.836633,-4.052964,-2.153,0.6920000000000001,-4.677,-1
1091,1092,1582725258708,-4.4454765,-9.046325,-5.4336944,-2.119,0.462,-6.025,-1
1092,1093,1582725258718,-4.581359,-9.095265,-5.751681,-2.205,0.402,-6.322,-1
1093,1094,1582725258729,-4.8533325,-9.461039,-5.183164,-2.3040000000000003,-0.002,-5.627999999999999,-1
1094,1095,1582725258739,-5.2513514,-9.882974,-3.7039955,-2.562,-0.457,-4.002,-1
1095,1096,1582725258749,-6.1090193,-10.749144,-1.4802619,-3.264,-1.365,-1.599,-1
1096,1097,1582725258759,-6.653220699999999,-11.381758999999999,0.54267555,-3.633,-2.052,0.608,-1
1097,1098,1582725258769,-6.055471400000001,-11.721368,1.7440165,-2.833,-2.4619999999999997,1.9680000000000002,-1
1098,1099,1582725258780,-3.9875708,-11.676027000000001,0.9542105,0.062,-2.366,0.14800000000000002,-1
1099,1100,1582725258790,-2.9921422000000004,-11.231855,-1.4302137,0.72,-2.165,-1.003,-1
1100,1101,1582725258800,-1.1941798000000001,-10.591485,-3.9229321,2.931,-1.7169999999999999,-3.293,-1
1101,1102,1582725258810,-0.74297523,-10.550413,-2.2501755,3.6660000000000004,-1.834,-1.381,-1
1102,1103,1582725258820,-1.8083775000000002,-10.444366,1.8020368000000002,2.878,-1.911,2.9810000000000003,-1
1103,1104,1582725258830,-2.4569243999999997,-10.441474000000001,4.037812000000001,2.3680000000000003,-2.011,5.386,-1
1104,1105,1582725258840,-3.6452440999999998,-10.219154,7.3486012999999994,1.499,-2.114,9.352,-1
1105,1106,1582725258850,-2.8021772,-9.451698,8.078135000000001,2.653,-1.6740000000000002,10.511,-1
1106,1107,1582725258861,-0.8877573000000001,-8.039055000000001,5.355176,4.9639999999999995,-0.737,8.289,-1
1107,1108,1582725258871,2.1423159,-6.777663,1.2080824,8.418,0.069,4.356,-1
1108,1109,1582725258881,5.7820044,-5.5271797,-2.2394017999999996,12.418,0.905,1.041,-1
1109,1110,1582725258891,8.804064,-3.9410343,-2.0998306,15.823,1.889,1.494,-1
1110,1111,1582725258902,8.500986,-3.3389684999999996,1.7022092,15.708,2.064,5.58,-1
1111,1112,1582725258912,7.191589,-2.902333,4.818205,14.547,2.064,8.99,-1
1112,1113,1582725258922,6.366268,-2.1341074,8.304955,13.85,2.392,12.741,-1
1113,1114,1582725258932,7.4105644,-0.6410198,10.423747,15.019,3.446,15.069,-1
1114,1115,1582725258942,9.82328,0.7490770999999999,9.542128,17.555,4.4110000000000005,14.335999999999999,-1
1115,1116,1582725258953,11.715456,1.9734268,6.480794400000001,19.56,5.237,11.378,-1
1116,1117,1582725258963,12.658174,2.735229,3.3996138999999994,20.592,5.625,8.387,-1
1117,1118,1582725258973,11.93597,2.3151599999999997,3.011262,19.924,4.84,8.109,-1
1118,1119,1582725258983,10.208158000000001,2.4443474,4.7349253,18.215999999999998,4.603,9.968,-1
1119,1120,1582725258994,8.411589,3.4118910000000002,6.6767664,16.413,5.204,12.056,-1
1120,1121,1582725259004,8.482814999999999,3.8415012,8.158914999999999,16.463,5.269,13.677,-1
1121,1122,1582725259014,9.6616535,4.945583,8.571388,17.617,6.021,14.204,-1
1122,1123,1582725259024,10.9072075,5.886260500000001,8.460825,18.840999999999998,6.636,14.175999999999998,-1
1123,1124,1582725259034,11.979357,6.427643,7.3463163,19.9,6.89,13.11,-1
1124,1125,1582725259045,11.832882000000001,6.692084299999999,6.066602,19.750999999999998,6.914,11.847999999999999,-1
1125,1126,1582725259055,10.938761999999999,6.23275,4.301674,18.86,6.257999999999999,10.083,-1
1126,1127,1582725259065,9.671327999999999,6.192597,3.7020459999999997,17.593,6.047000000000001,9.481,-1
1127,1128,1582725259076,8.839094000000001,6.1342278,4.029637,16.75,5.827000000000001,9.817,-1
1128,1129,1582725259086,8.08127,5.9844875,4.754653,15.967,5.522,10.565999999999999,-1
1129,1130,1582725259096,7.652966,5.8751917,5.0343304,15.505,5.269,10.878,-1
1130,1131,1582725259106,7.6119449999999995,5.8018730000000005,4.915987,15.433,5.072,10.787,-1
1131,1132,1582725259116,7.341853599999999,5.6055636,4.746474,15.142999999999999,4.7780000000000005,10.630999999999998,-1
1132,1133,1582725259127,6.6911488,5.306642500000001,4.3277735999999996,14.485,4.4110000000000005,10.212,-1
1133,1134,1582725259137,5.8909807,4.903166000000001,3.6211214,13.687000000000001,3.966,9.496,-1
1134,1135,1582725259147,5.291443,4.614027,2.966838,13.095,3.654,8.828,-1
1135,1136,1582725259157,4.8312707,4.6127825,2.4735084,12.642999999999999,3.642,8.322000000000001,-1
1136,1137,1582725259167,4.2850633,4.3887587,2.1369529,12.099,3.415,7.982,-1
1137,1138,1582725259177,3.7238789,4.3381996,2.0664296,11.532,3.3689999999999998,7.92,-1
1138,1139,1582725259188,3.1098112999999996,4.019723,1.7921758,10.905999999999999,3.065,7.664,-1
1139,1140,1582725259198,2.7731117999999997,3.7496237999999997,1.2897058000000001,10.557,2.821,7.182,-1
1140,1141,1582725259208,2.5142646,3.4810595999999996,0.16210365,10.293,2.617,6.071000000000001,-1
1141,1142,1582725259218,2.3525572,3.3069138999999996,-0.21106339,10.135,2.471,5.697,-1
1142,1143,1582725259229,1.9058952,2.9790318,-0.8821783000000001,9.716000000000001,2.246,5.003,-1
1143,1144,1582725259239,1.5152311,2.7088330000000003,-0.78656816,9.35,2.0540000000000003,5.075,-1
1144,1145,1582725259249,1.3602867,2.6377234,-0.10933161,9.211,2.05,5.7379999999999995,-1
1145,1146,1582725259259,1.3853326000000001,2.5285888,0.12847662,9.242,1.995,5.973,-1
1146,1147,1582725259270,1.3157248,2.3734124,0.6718826,9.168,1.882,6.526,-1
1147,1148,1582725259280,1.2893391,2.2387259999999998,0.8632417,9.137,1.765,6.725,-1
1148,1149,1582725259290,1.6466255,2.120604,1.0978173999999998,9.481,1.695,6.981,d
1149,1150,1582725259300,1.7019113999999997,2.0744643,0.7564163,9.532,1.6880000000000002,6.648,-1
1150,1151,1582725259310,1.7642999,2.0328630000000003,0.54702854,9.594,1.693,6.442,-1
1151,1152,1582725259321,1.6887468999999997,1.9561113,0.24428749,9.52,1.669,6.14,-1
1152,1153,1582725259331,1.6285534,2.1276029999999997,0.30826712,9.46,1.868,6.205,-1
1153,1154,1582725259341,1.8880568,2.3330908,0.74881077,9.716000000000001,2.148,6.653,-1
1154,1155,1582725259351,2.5322084,2.3683424,1.2622252,10.356,2.222,7.172999999999999,-1
1155,1156,1582725259362,3.1172423,2.4138412000000002,1.981514,10.935,2.301,7.901,-1
1156,1157,1582725259372,3.7067113,2.7004995,2.9865012,11.515,2.62,8.919,-1
1157,1158,1582725259382,4.3131037,2.9459453,3.9468446000000004,12.109000000000002,2.9019999999999997,9.896,-1
1158,1159,1582725259392,4.642180000000001,3.3630178,4.5135879999999995,12.425,3.3689999999999998,10.48,-1
1159,1160,1582725259403,5.0993543,3.9232638,3.971218,12.87,3.9989999999999997,9.953,-1
1160,1161,1582725259413,6.0449343,4.3767014,2.5599513,13.804,4.54,8.555,-1
1161,1162,1582725259423,6.708388,4.940285,2.1650633999999997,14.450999999999999,5.199,8.177999999999999,-1
1162,1163,1582725259433,7.600889,5.4472537,3.163125,15.318,5.8,9.204,-1
1163,1164,1582725259444,7.856738000000001,5.866683,4.753915,15.540999999999999,6.318,10.83,-1
1164,1165,1582725259454,8.080775,5.892,6.2354956,15.73,6.459,12.345999999999998,-1
1165,1166,1582725259464,7.9286194000000005,5.8503346,6.809386,15.548,6.562,12.942,-1
1166,1167,1582725259474,8.107503999999999,5.528617400000001,6.4621086,15.706,6.421,12.597000000000001,-1
1167,1168,1582725259484,8.429199,5.34441,4.729426999999999,16.005,6.569,10.835,-1
1168,1169,1582725259495,8.419727,5.3426085,4.1257150000000005,15.985999999999999,6.691,10.217,-1
1169,1170,1582725259505,8.230169,4.736518,3.2319107000000002,15.767999999999999,6.346,9.295,-1
1170,1171,1582725259515,7.605872,3.8765655,2.6051173,15.074000000000002,5.898,8.631,-1
1171,1172,1582725259525,7.340508,3.5624187000000007,2.7231178,14.585,5.513,9.045,-1
1172,1173,1582725259536,6.9333553,2.6950908,3.2722797000000003,14.269,5.2829999999999995,9.244,-1
1173,1174,1582725259546,6.778703699999999,2.325903,3.5556912000000005,14.077,5.06,9.508,-1
1174,1175,1582725259556,5.7879366999999995,1.0196142,4.3574133,12.972999999999999,4.215,10.217,-1
1175,1176,1582725259566,4.911416,0.46423078,3.8718147000000003,12.025,3.992,9.627,-1
1176,1177,1582725259576,4.183919,0.04978323,2.7032293999999997,11.227,3.925,8.32,-1
1177,1178,1582725259587,3.4887056000000003,-0.25721455,1.8198266,10.456,3.966,7.278,-1
1178,1179,1582725259597,2.6615585999999998,-0.41875887,1.430285,9.541,4.143,6.725,-1
1179,1180,1582725259607,1.8927421999999998,-0.9643306999999999,1.5195451000000002,8.669,3.915,6.662000000000001,-1
1180,1181,1582725259617,1.1806173,-1.4881554,1.7919598,7.841,3.678,6.803999999999999,-1
1181,1182,1582725259627,0.8558816999999999,-1.9865028999999998,1.7699056,7.395,3.432,6.6739999999999995,-1
1182,1183,1582725259637,0.44330406,-2.228555,1.6515155,6.867999999999999,3.391,6.48,-1
1183,1184,1582725259647,0.15241909,-2.4046195,1.5244651000000002,6.478,3.338,6.3389999999999995,-1
1184,1185,1582725259657,-0.1938467,-2.324853,1.564642,6.016,3.633,6.267,-1
1185,1186,1582725259667,-0.51656866,-2.1815705000000003,1.7719135,5.57,4.011,6.33,-1
1186,1187,1582725259678,-0.74461126,-2.2959308999999997,2.5032501,5.209,4.102,6.952000000000001,-1
1187,1188,1582725259688,-0.68715906,-2.2624722000000004,2.3267574,5.132000000000001,4.334,6.662000000000001,-1
1188,1189,1582725259698,-0.30848408,-2.3956098999999997,0.79683065,5.388,4.442,4.916,-1
1189,1190,1582725259708,-0.100494385,-2.3749304,-0.3291881,5.462999999999999,4.7010000000000005,3.563,-1
1190,1191,1582725259718,0.16084385,-2.7756338,-0.69574976,5.58,4.524,2.9810000000000003,-1
1191,1192,1582725259728,0.04676342,-2.9451318,-1.4738958,5.309,4.567,1.9969999999999999,-1
1192,1193,1582725259739,-0.39889622,-3.090765,-1.862293,4.696000000000001,4.624,1.4080000000000001,-1
1193,1194,1582725259749,-0.83218765,-3.4396489999999997,-2.1129742,4.09,4.466,0.96,-1
1194,1195,1582725259759,-1.6775668000000001,-3.6157845999999996,-1.7555856,3.068,4.468999999999999,1.123,-1
1195,1196,1582725259769,-2.0363941000000003,-3.710373,-1.8594503,2.533,4.54,0.828,-1
1196,1197,1582725259780,-2.1730137000000003,-3.9532637999999998,-2.0284455,2.224,4.447,0.47600000000000003,-1
1197,1198,1582725259790,-2.0833502,-3.8580932999999997,-2.5581582000000003,2.145,4.677,-0.225,-1
1198,1199,1582725259800,-1.6541671999999998,-4.09175,-3.2809386,2.4090000000000003,4.564,-1.104,-1
1199,1200,1582725259810,-1.5120995000000002,-4.353482,-3.5810517999999996,2.387,4.409,-1.535,-1
1200,1201,1582725259820,-1.8194564999999998,-4.4526067000000005,-3.5002817999999998,1.913,4.404,-1.551,-1
1201,1202,1582725259831,-2.3091058999999996,-4.505463,-3.023037,1.2570000000000001,4.433,-1.137,-1
1202,1203,1582725259841,-2.8442886,-4.6544924000000005,-2.5588752999999995,0.562,4.354,-0.711,-1
1203,1204,1582725259851,-3.36479,-4.4601727,-1.8375868000000002,-0.107,4.6080000000000005,-0.013999999999999999,-1
1204,1205,1582725259861,-3.4236633999999997,-4.5976114,-0.5597435000000001,-0.29600000000000004,4.521,1.24,-1
1205,1206,1582725259872,-2.9436880000000003,-4.7927113,0.99985814,0.174,4.406000000000001,3.42,-1
1206,1207,1582725259882,-2.302145,-4.705559,1.2136983000000001,0.579,4.521,2.8689999999999998,-1
1207,1208,1582725259892,-1.7221574,-4.250364299999999,-0.78770536,1.077,5.019,0.7659999999999999,-1
1208,1209,1582725259902,-1.5990962,-3.9325699999999997,-1.7467268,1.159,5.357,-0.24100000000000002,-1
1209,1210,1582725259912,-1.1413137,-3.6096597000000004,-2.8058305,1.5319999999999998,5.716,-1.3719999999999999,-1
1210,1211,1582725259923,-1.2554513999999999,-3.618723,-2.5216794,1.286,5.747999999999999,-1.1159999999999999,-1
1211,1212,1582725259933,-2.0931358,-3.6994233,-1.682078,0.359,5.688,-0.256,-1
1212,1213,1582725259943,-2.5577395,-3.5721629999999998,-1.1127194999999999,-0.14800000000000002,5.824,0.32799999999999996,-1
1213,1214,1582725259953,-2.5157762000000004,-3.1980925,1.0881778,-0.21,6.218999999999999,2.562,-1
1214,1215,1582725259964,-1.7118049,-2.5225014999999997,1.02626,0.546,6.907,2.495,-1
1215,1216,1582725259974,-0.7150873999999999,-1.8752898999999998,0.13222420000000001,1.506,7.568,1.568,-1
1216,1217,1582725259984,-0.112758875,-1.6791387,-0.8589989,2.074,7.779,0.531,-1
1217,1218,1582725259994,0.42118454,-1.8763452,-1.3463176000000001,2.591,7.5889999999999995,0.021,-1
1218,1219,1582725260005,0.110952854,-1.7915626,-2.4503207000000002,2.215,7.695,-1.128,-1
1219,1220,1582725260015,-0.59642696,-1.8276811000000002,-1.7048199,1.4480000000000002,7.671,-0.376,-1
1220,1221,1582725260025,-1.2837648000000002,-2.0958848000000003,-0.20453608,0.696,7.412000000000001,1.156,-1
1221,1222,1582725260036,-1.5065928,-1.6032658000000002,0.5365856999999999,0.409,7.912999999999999,1.93,-1
1222,1223,1582725260046,-1.0440809000000002,-1.3369417,0.3621248,0.8140000000000001,8.187999999999999,1.774,-1
1223,1224,1582725260056,-0.46484780000000003,-1.3312502,0.09896171,1.35,8.202,1.511,-1
1224,1225,1582725260067,-0.26758254,-0.9655360999999999,-0.83033997,1.508,8.578,0.562,-1
1225,1226,1582725260077,0.085953236,-0.8701334000000001,-1.6434574,1.825,8.686,-0.292,-1
1226,1227,1582725260087,-0.07757056,-0.9638939000000001,-1.8020781000000003,1.621,8.605,-0.49,-1
1227,1228,1582725260097,-0.5999423,-1.0528545,-1.4377091999999998,1.046,8.527999999999999,-0.146,-1
1228,1229,1582725260107,-1.4492357,-1.0453386,-0.9105200999999999,0.131,8.547,0.37799999999999995,-1
1229,1230,1582725260118,-1.4812319999999999,-0.97991467,-0.31476027,0.031,8.622,0.9840000000000001,-1
1230,1231,1582725260128,-1.3446131000000001,-0.94459057,-0.2623067,0.105,8.665,1.051,-1
1231,1232,1582725260138,-1.195099,-1.0635595,-0.030675292000000003,0.198,8.552,1.3,-1
1232,1233,1582725260149,-0.8409793999999999,-1.2569636999999998,0.047773123,0.507,8.363,1.393,-1
1233,1234,1582725260159,-0.5665665,-1.0871115,-0.7493841,0.7440000000000001,8.538,0.596,-1
1234,1235,1582725260169,-0.5603033000000001,-0.90954304,-0.8561006999999999,0.713,8.722000000000001,0.479,-1
1235,1236,1582725260179,-0.47716790000000003,-0.80807877,-0.9168879000000001,0.7609999999999999,8.83,0.40399999999999997,-1
1236,1237,1582725260190,-0.50432336,0.020275116,-1.1595008,0.684,9.671,0.114,-1
1237,1238,1582725260199,-0.28865826,0.24930286,-1.6319962,0.845,9.917,-0.44,d
1238,1239,1582725260209,-0.12039924,-0.08213806,-2.0160704,0.972,9.604,-0.941,-1
1239,1240,1582725260219,-0.6032618000000001,-0.43170070000000005,-1.951257,0.433,9.263,-0.898,-1
1240,1241,1582725260229,-1.2524775,-0.840044,-1.173392,-0.285,8.859,-0.095,-1
1241,1242,1582725260239,-1.7295955000000003,-1.0801935,0.316275,-0.833,8.619,1.453,-1
1242,1243,1582725260249,-2.2118316000000005,-1.0541563,1.3565954,-1.393,8.642999999999999,2.5669999999999997,-1
1243,1244,1582725260260,-2.4433126,-0.7182951,1.9355,-1.7480000000000002,8.974,3.2569999999999997,-1
1244,1245,1582725260270,-1.8626163,-0.604558,2.0800943,-0.955,9.267999999999999,3.3569999999999998,-1
1245,1246,1582725260280,-0.9882380999999999,-0.36126040000000004,1.3156518999999998,-0.524,9.309,2.878,-1
1246,1247,1582725260290,0.15668839,-0.26118565,-1.0594723,0.605,9.419,0.445,-1
1247,1248,1582725260301,0.18213916,-0.3599882,-1.6750786,0.629,9.326,-0.20800000000000002,-1
1248,1249,1582725260311,0.24694470000000002,-0.36447048,-2.0613246,0.687,9.333,-0.67,-1
1249,1250,1582725260321,-0.3577876,-0.5392618,-1.7955519,0.055,9.172,-0.495,-1
1250,1251,1582725260331,-0.93175,-0.6630020000000001,-0.8067434,-0.5479999999999999,9.052999999999999,0.467,-1
1251,1252,1582725260341,-1.2148473,-0.7086544,0.15703869,-0.8640000000000001,9.01,1.42,-1
1252,1253,1582725260351,-1.4600176,-0.70589066,0.3284688,-1.128,9.014,1.587,-1
1253,1254,1582725260362,-2.0110996,-0.93836784,-0.060935736,-1.733,8.787,1.168,-1
1254,1255,1582725260372,-1.8997984,-1.1007605,-0.3702249,-1.642,8.629,0.828,-1
1255,1256,1582725260383,-1.7462039,-1.3277225000000001,-0.48694086,-1.492,8.404,0.696,-1
1256,1257,1582725260393,-1.3803021999999998,-1.6120281,-0.8181772,-1.125,8.123,0.337,-1
1257,1258,1582725260403,-1.2738075,-2.1693783,-0.78077483,-1.008,7.568,0.35200000000000004,-1
1258,1259,1582725260413,-1.2883847,-2.3557667999999996,0.15924704,-1.013,7.381,1.295,-1
1259,1260,1582725260423,-1.4294996000000002,-2.8908577,1.8597269,-1.147,6.843999999999999,3.01,-1
1260,1261,1582725260434,-2.074346,-3.6605787000000003,3.16664,-1.7890000000000001,6.0729999999999995,4.327,-1
1261,1262,1582725260444,-2.5321083,-4.079550299999999,3.729103,-2.248,5.654,4.89,-1
1262,1263,1582725260454,-4.236717700000001,-5.7704635,4.132724,-3.9610000000000003,3.966,5.271,-1
1263,1264,1582725260464,-5.2286673,-6.974272,3.326023,-4.948,2.766,4.43,-1
1264,1265,1582725260475,-6.1978290000000005,-7.5327883,2.673606,-5.898,2.21,3.75,-1
1265,1266,1582725260485,-7.40678,-7.562829,2.8975246,-7.091,2.1790000000000003,3.978,-1
1266,1267,1582725260495,-7.760517,-7.4309,3.458197,-7.46,2.3080000000000003,4.569,-1
1267,1268,1582725260505,-6.5182294999999995,-7.833081699999999,5.855448,-6.476,1.86,7.343,-1
1268,1269,1582725260516,-5.871683999999999,-8.167921,6.448186,-5.848,1.506,8.056000000000001,-1
1269,1270,1582725260526,-3.759625,-8.418072,5.8517823,-3.7089999999999996,1.195,7.79,-1
1270,1271,1582725260536,-2.680744,-8.245227,4.201621,-2.457,1.379,6.071000000000001,-1
1271,1272,1582725260546,-2.2676997,-7.3502235,1.8242813000000002,-1.8559999999999999,2.287,3.592,-1
1272,1273,1582725260557,-1.8934843999999997,-6.4221773,-0.26964235,-1.281,3.221,1.405,-1
1273,1274,1582725260567,-1.2558572000000001,-5.2550383,-0.5273310999999999,-0.428,4.382,1.089,-1
1274,1275,1582725260577,-0.5121136,-4.808852,0.12585068,0.546,4.809,1.722,-1
1275,1276,1582725260587,1.0478985,-4.8140279999999995,0.78661656,2.351,4.773,2.387,-1
1276,1277,1582725260597,2.3080654,-4.372015,0.7292831,3.865,5.175,2.342,-1
1277,1278,1582725260608,2.9643936,-3.1012444,-0.14754653,4.785,6.397,1.4769999999999999,-1
1278,1279,1582725260618,5.0410843000000005,-0.84078026,-1.5304626000000001,7.242000000000001,8.578,0.086,-1
1279,1280,1582725260628,5.851339299999999,-0.078707695,-1.6876671000000003,8.32,9.271,-0.057,-1
1280,1281,1582725260638,7.492455499999999,1.5539436000000002,-2.4187675,10.226,10.827,-0.773,-1
1281,1282,1582725260649,8.363632,2.3338223,-3.6908297999999995,11.342,11.529000000000002,-2.033,-1
1282,1283,1582725260659,8.508666,2.4136438,-4.1280303,11.52,11.57,-2.955,-1
1283,1284,1582725260669,7.452617,3.101078,-4.7149779999999994,10.850999999999999,12.142000000000001,-3.017,-1
1284,1285,1582725260679,6.981870699999999,3.8844757000000003,-4.439510299999999,10.565999999999999,12.845999999999998,-2.7030000000000003,-1
1285,1286,1582725260690,9.748009,5.035527,-5.2589345000000005,13.62,13.864,-3.46,-1
1286,1287,1582725260700,11.468258,5.4655323,-5.8218746,17.258,14.7,-4.84,-1
1287,1288,1582725260710,14.653560999999998,6.1662903,-7.517392,18.81,14.856,-5.678,-1
1288,1289,1582725260720,15.465629999999999,6.5865279999999995,-8.968924000000001,19.837,15.167,-7.115,-1
1289,1290,1582725260731,14.584257000000001,6.5193033,-8.712347,19.004,15.074000000000002,-6.854,-1
1290,1291,1582725260741,11.945625,6.369441,-7.7790256,16.463,14.868,-5.898,-1
1291,1292,1582725260751,11.659757,5.903159,-7.3549895,16.226,14.372,-5.457999999999999,-1
1292,1293,1582725260761,11.980761,5.7880793,-7.160161500000001,16.570999999999998,14.243,-5.2589999999999995,-1
1293,1294,1582725260772,13.483589000000002,5.1769485,-8.218601,18.139,13.600999999999999,-6.3389999999999995,-1
1294,1295,1582725260782,13.764634,4.5393114,-9.225143,18.445999999999998,12.959000000000001,-7.391,-1
1295,1296,1582725260793,12.762808,3.7539290999999997,-9.839628,17.447,12.185,-8.066,-1
1296,1297,1582725260803,12.040225999999999,3.2280235,-9.910038,16.717,11.67,-8.169,-1
1297,1298,1582725260814,9.262064,1.4511441999999999,-9.821062,13.890999999999998,9.939,-8.177999999999999,-1
1298,1299,1582725260824,7.7139716,0.5777283000000001,-9.831789,12.3,9.101,-8.253,-1
1299,1300,1582725260834,6.624542699999999,-0.17544746,-9.76474,11.167,8.382,-8.246,-1
1300,1301,1582725260844,5.748070200000001,-0.9099478999999999,-9.368475,10.248,7.678,-7.896,-1
1301,1302,1582725260854,4.997636,-1.5402312,-8.392031,9.457,7.074,-6.95,-1
1302,1303,1582725260864,4.729932,-1.9873891,-7.9136820000000005,9.172,6.638,-6.485,-1
1303,1304,1582725260874,3.7986712,-3.4665227,-6.251165,8.226,5.18,-4.907,-1
1304,1305,1582725260884,2.875669,-4.3302703000000005,-5.3792667000000005,7.382999999999999,4.301,-4.215,-1
1305,1306,1582725260894,1.9276137,-5.2373294999999995,-5.2071953,6.421,3.412,-4.126,-1
1306,1307,1582725260904,0.73843575,-5.8667620000000005,-5.4699025,5.19,2.8110000000000004,-4.445,-1
1307,1308,1582725260914,-0.4253714,-6.034664,-5.3550744,3.9819999999999998,2.67,-4.368,-1
1308,1309,1582725260925,-1.3593950000000001,-6.3579626,-5.1406074,3.012,2.366,-4.164,-1
1309,1310,1582725260935,-1.8852956000000003,-6.7370615,-4.6115723,2.464,1.995,-3.609,-1
1310,1311,1582725260945,-2.3417312999999997,-7.3672338,-3.8416667,1.8840000000000001,1.252,-2.184,-1
