,Seq,Time,ACCx,ACCy,ACCz,ADGx,ADGy,ADGz,Keydown
0,1,1583935482691,0.415,0.3525,1.0359,2.394709,9.832286999999999,1.9727073,-1
1,2,1583935482701,0.5559,0.3592,0.44869998,-2.19125,9.710901,-0.07738060000000001,-1
2,3,1583935482712,-0.0346,0.1441,0.0016,-2.332594,9.679681,0.15270218,-1
3,4,1583935482722,-0.0425,0.1085,0.041899998,-2.3562777,9.629757000000001,0.2624141,-1
4,5,1583935482732,-0.0063,0.1112,0.1857,-2.322299,9.660565,0.46327803,-1
5,6,1583935482742,0.0053,0.1522,0.3293,-2.2630281,9.680294,0.6192459,-1
6,7,1583935482752,0.0053,0.1522,0.3293,-2.0113401,9.722958,0.58268166,-1
7,8,1583935482762,0.4996,0.2366,0.10229999599999999,-1.697489,9.769214999999999,0.33162567,-1
8,9,1583935482772,0.6468,0.24939999,-0.2175,-1.5733448,9.827145,0.03740701,-1
9,10,1583935482783,0.6631,0.261,-0.49249998,-1.5655781000000002,9.809446000000001,-0.21641669,-1
10,11,1583935482793,0.5625,0.1549,-0.6695,-1.7590773999999998,9.716292999999999,-0.32849404,-1
11,12,1583935482803,0.2261,0.1525,-0.3694,-2.0305703,9.69507,-0.015782578000000002,-1
12,13,1583935482813,-0.0558,0.032199997,-0.0229,-2.369417,9.5593195,0.31779677,-1
13,14,1583935482823,-0.34199998,-0.0274,0.3441,-2.6117675,9.569164,0.8159821999999999,-1
14,15,1583935482834,-0.3902,-0.0142,0.6705,-2.6354702000000003,9.525782000000001,1.1345356000000002,-1
15,16,1583935482844,-0.31399998,-0.0103,0.8246,-2.5969331,9.513705,1.2039387,-1
16,17,1583935482854,-0.3075,-0.0645,0.7412,-2.6717758,9.421729,1.1425513999999999,-1
17,18,1583935482864,-0.2444,-0.0989,0.59319997,-2.5424986,9.410678,1.0308475000000001,-1
18,19,1583935482874,-0.0426,-0.0959,0.25059998,-2.4137766,9.369392,0.7310169,-1
19,20,1583935482884,0.0442,-0.1245,0.0198,-2.2768474,9.377073,0.57000196,-1
20,21,1583935482895,0.252,-0.0801,-0.20899999,-2.13377,9.45726,0.27843606,-1
21,22,1583935482905,0.35,-0.0046,-0.46739998,-2.0942369999999997,9.465534,0.2067058,-1
22,23,1583935482915,0.2838,-0.0072,-0.3586,-2.2681231,9.515487,0.5475826,-1
23,24,1583935482925,0.055299997000000004,0.0117999995,0.11889999,-2.529388,9.511961999999999,1.1050965,-1
24,25,1583935482936,-0.20189999,0.015899998999999998,0.6364,-2.7318130000000003,9.53374,1.5545073999999999,-1
25,26,1583935482946,-0.35619998,0.070199996,0.92219996,-2.7983236000000002,9.572277,1.7130418,-1
26,27,1583935482956,-0.2968,0.13329999,0.9406,-2.5748203,9.742878,1.4918079,-1
27,28,1583935482966,-0.037299998,0.3117,0.6574,-2.22067,9.850253,1.0205429,-1
28,29,1583935482976,0.2756,0.3604,0.1495,-2.2537389,9.865364999999999,0.5421813,-1
29,30,1583935482987,0.18699999,0.37919998,-0.2733,-2.42117,9.833072999999999,0.27417442,-1
30,31,1583935482996,0.021699998999999998,0.3495,-0.4901,-2.4332752,9.859581,0.21870553,-1
31,32,1583935483006,0.022599999,0.4377,-0.4669,-2.4750490000000003,10.007888000000001,0.45571235,-1
32,33,1583935483016,-0.0844,0.6051,-0.0717,-2.6799161,10.173662,1.2854948,-1
33,34,1583935483026,-0.2295,0.7151,0.6924,-2.7748032000000005,10.214038,2.004828,-1
34,35,1583935483036,-0.3247,0.7477,1.3385999,-2.7661362,10.158761,2.5496428,-1
35,36,1583935483046,-0.312,0.6828,1.8334999,-2.819613,10.103263,2.9141072999999995,-1
36,37,1583935483056,-0.348,0.5787,2.1915,-2.7692869,9.967148,3.1219337000000005,-1
37,38,1583935483066,-0.19919999,0.49359998,2.1720998,-2.4618043999999997,9.931581,2.838144,-1
38,39,1583935483076,0.1823,0.4463,1.7294999,-1.9349459999999998,9.805280999999999,2.2899966,-1
39,40,1583935483086,0.6017,0.3001,1.2823,-1.7011473000000001,9.551753999999999,2.0150368000000003,-1
40,41,1583935483097,0.81619996,0.036599997,1.0601,-1.5704527,9.274285,1.9934316000000003,-1
41,42,1583935483107,0.93479997,-0.33359998,1.0881,-1.4782663999999999,8.829701,2.2046192000000002,-1
42,43,1583935483117,1.0059999,-0.70269996,1.2465,-1.3980893,8.364067,2.3471507999999996,-1
43,44,1583935483127,1.1075,-1.1688,1.3481,-1.2716275,7.906803,2.4137,-1
44,45,1583935483138,1.2372999,-1.6631,1.3399,-1.3298833,7.077173700000001,2.3819049999999997,-1
45,46,1583935483148,1.1539,-2.3606,1.226,-1.6738343,6.4494815,2.4807472,-1
46,47,1583935483158,0.72789997,-3.1437,1.3454,-2.2107387000000003,5.6023455,2.8636951,-1
47,48,1583935483168,0.24769999,-3.9457998,1.7667999,-2.4481957000000003,4.7924066,3.3526583,-1
48,49,1583935483178,0.12879999,-4.6015997,2.144,-2.5163636,4.2974772,3.6019902000000004,-1
49,50,1583935483189,0.131,-5.2107,2.4478,-2.4709885,3.6628413,3.7934690000000004,-1
50,51,1583935483199,0.1654,-5.7146,2.5916997999999998,-2.4341562000000003,3.1113703,3.8380872999999998,-1
51,52,1583935483209,0.21609999,-6.2714,2.6608,-2.1856763,2.719995,3.5867727,-1
52,53,1583935483219,0.7899,-6.9974,1.8611,-1.8584177,2.3933782999999997,2.9618382000000003,-1
53,54,1583935483230,0.96959996,-7.3227,1.3335999,-1.6741120999999999,2.085522,2.3690147,-1
54,55,1583935483240,0.9827,-7.5332,0.8217,-1.6232305,1.8231175,1.6139983999999998,-1
55,56,1583935483250,1.0337,-7.8152,-0.12719999,-1.5333617,1.6123512,0.7735283000000001,-1
56,57,1583935483261,1.0719,-7.8055,-0.50879997,-1.3738408000000002,1.6632997999999999,0.29340464,-1
57,58,1583935483271,1.1851,-7.7388997,-0.5273,-1.2785611000000001,1.7540113999999998,0.22041978,-1
58,59,1583935483281,0.9946,-7.6731,-0.40809998,-1.4073788,1.8460348999999998,0.34352005,-1
59,60,1583935483291,1.0009,-7.5199,-0.2376,-1.3013923,2.115823,0.40314525,-1
60,61,1583935483302,0.9568,-7.2702,-0.43089998,-1.1800253,2.3381293,0.09960837,-1
61,62,1583935483312,1.1457,-6.983,-0.9921,-0.9183392,2.693956,-0.50636405,-1
62,63,1583935483322,1.2344998999999999,-6.4224997,-1.3045,-0.6785551,3.4599087,-0.8568369,-1
63,64,1583935483332,1.3816,-5.7739997,-1.4495,-0.4579246,4.025582,-1.0875133999999997,-1
64,65,1583935483342,1.4598,-5.233,-1.6737,-0.06088934,4.686104,-1.6723689999999998,-1
65,66,1583935483353,1.9396,-4.7111,-2.7889,0.79346716,5.089795,-2.9128048,-1
66,67,1583935483363,2.7832,-4.5213,-3.8960000000000004,1.3829770000000001,5.188398,-3.5737004,-1
67,68,1583935483373,3.3695998,-4.1717,-4.687599700000001,2.3486927000000004,5.76994,-4.7186937,-1
68,69,1583935483383,3.6334,-3.6522,-5.3837,2.6226566000000004,6.357285500000001,-5.298943,-1
69,70,1583935483393,3.5558998999999996,-3.0412,-5.5448,2.5206347,6.9370270000000005,-5.3186235,-1
70,71,1583935483403,2.9489,-2.6037998,-5.6134,1.9819488999999997,7.267494,-5.4666615,-1
71,72,1583935483413,2.4146,-2.4092,-5.8506,1.7890433000000001,7.4456033999999995,-5.6611185,-1
72,73,1583935483423,2.1615999,-2.2022998,-6.2760997000000005,1.7128406000000003,7.6125940000000005,-6.2226834,-1
73,74,1583935483433,1.9544,-2.1687,-6.7544,1.7138366999999999,7.6800429999999995,-6.5264690000000005,-1
74,75,1583935483443,1.8414999,-1.9837999,-6.9540997,1.9108986000000001,7.9831686,-6.6152177,-1
75,76,1583935483453,2.0176,-1.5191,-6.9988,2.4139874,8.561149,-6.674095599999999,-1
76,77,1583935483463,2.1085,-1.1171,-7.3121,2.6450758,8.844967,-7.061257400000001,-1
77,78,1583935483474,2.2684999,-0.6687,-8.1025,3.1566207000000004,9.273883,-7.924961,-1
78,79,1583935483484,2.6283998,-0.2307,-9.1087,3.8404046999999997,9.701266,-8.832995,-1
79,80,1583935483494,3.1357,0.24,-9.9908,4.837504,10.184561,-9.570217999999999,-1
80,81,1583935483504,4.0257998,0.97319996,-10.634399,6.317819,11.193621,-9.830075,-1
81,82,1583935483514,4.9309,2.0607998,-10.5819,7.728387400000001,12.290529,-9.270789,-1
82,83,1583935483524,6.0958,3.2786,-10.1104,9.523665,13.532889,-8.635398,-1
83,84,1583935483535,7.5621996,4.6735997000000005,-9.5376,11.174927,14.723249,-7.8301215,-1
84,85,1583935483545,8.6293,5.9557,-8.879,12.175205,15.724715,-6.794994,-1
85,86,1583935483555,8.9289,6.9495997,-7.8680997,12.350269,16.450205,-5.516576000000001,-1
86,87,1583935483565,8.5365,7.6756997,-6.6678,11.975529,16.808273,-4.419179,-1
87,88,1583935483576,7.8904996,8.1474,-5.8227,11.808566,17.240963,-3.8074894,-1
88,89,1583935483586,7.5347,8.7246,-5.3943996,11.495673,17.757948000000003,-3.5244756,-1
89,90,1583935483596,6.9487,9.210199000000001,-5.1363,10.839566,18.077460000000002,-3.1625104,-1
90,91,1583935483606,6.086,9.633699,-4.682699700000001,10.477381,18.428535,-2.7978067,-1
91,92,1583935483616,5.686,10.0861,-4.206,10.715824000000001,18.963331,-2.4337923999999997,-1
92,93,1583935483626,5.8325,10.7368,-3.7991,11.074208,19.3687,-2.3019004,-1
93,94,1583935483636,6.192,11.2634,-3.4333,11.653134,19.719364000000002,-1.8491473000000003,-1
94,95,1583935483646,6.6376,11.4999,-2.7012,12.197797,19.679745,-0.96990067,-1
95,96,1583935483656,7.1122,11.416599,-1.5862,13.045919,19.329453,0.5154907999999999,-1
96,97,1583935483666,7.8043,11.1292,-0.2254,13.642439999999999,19.052845,1.9718548999999999,-1
97,98,1583935483676,8.1973,10.889000000000001,1.3224,13.664264999999999,18.744856,3.2754211,-1
98,99,1583935483687,8.0806,10.4657,3.03,13.508814000000001,18.103554000000003,5.3411669999999996,-1
99,100,1583935483696,8.0028,9.916599,4.6928997,13.720298999999999,17.567091,6.7628536,-1
100,101,1583935483707,8.2943,9.4279995,5.9266,14.195347,17.188875,7.888052,-1
101,102,1583935483717,8.847799,8.9594,7.1924996,14.302137,16.60964,9.160694,-1
102,103,1583935483727,8.885099,8.253,8.4481,13.639489000000001,15.709517000000002,10.059248,-1
103,104,1583935483737,8.2736,7.2587,9.299,12.811717999999999,14.858148000000002,10.5721245,-1
104,105,1583935483748,7.5994,6.312999700000001,9.7307,11.940113,14.032511999999999,10.342933,-1
105,106,1583935483758,6.8689,5.3712,9.425799000000001,10.903825999999999,13.259739999999999,9.788684,-1
106,107,1583935483768,6.0498,4.4872,8.9124,9.707272,12.503584,8.937441,-1
107,108,1583935483778,5.3129,3.7461,8.289,8.936933,11.96396,8.186982,-1
108,109,1583935483788,4.808,3.0758997999999997,7.6004996,8.454856,11.516282,7.701007400000001,-1
109,110,1583935483798,4.5882,2.5003998,7.1899,7.8390183,10.93136,7.4602656000000005,-1
110,111,1583935483809,4.2483997,1.8059,6.9705,7.2382464,10.376269,7.4570284,-1
111,112,1583935483819,3.6148998999999997,0.4931,6.8192997,6.634917,9.833293,7.2915220000000005,-1
112,113,1583935483829,3.4066,-0.1346,6.5794997,6.124559400000001,9.281727,7.068708,-1
113,114,1583935483840,3.4066,-0.1346,6.5794997,5.6768055,8.890773,6.962894,-1
114,115,1583935483850,3.1116,-1.0376999,6.3581,5.153241,8.469996,6.889545399999999,-1
115,116,1583935483860,2.9053,-1.4504,6.2918997,4.646236,8.098886,6.8018694,-1
116,117,1583935483871,2.8344,-1.7947999,6.0137,4.345600599999999,7.8434715,6.5117593000000005,-1
117,118,1583935483881,2.8188999,-2.189,5.6143,3.9512562999999994,7.4338619999999995,6.066676999999999,-1
118,119,1583935483891,2.5256998999999998,-2.6529999,4.8982997,3.4981199999999997,7.0971417,5.46331,-1
119,120,1583935483901,2.1978,-3.0988,3.9931,2.7891684,6.6254935,4.406968599999999,-1
120,121,1583935483911,2.1357,-3.35,3.3377,2.5156837000000003,6.365397,3.7460732000000005,-1
121,122,1583935483922,1.9741999,-3.6327,2.7395,2.019308,6.125259,3.2252579,-1
122,123,1583935483932,1.6560999,-3.8981,2.6011,1.4663719,5.8294883,3.1651347000000003,-1
123,124,1583935483942,1.4038,-4.1960998,2.7235,0.92355853,5.466019999999999,3.3465865,-1
124,125,1583935483952,1.3327999,-4.4198,2.8056,0.7004476,5.258232,3.3256707000000003,-1
125,126,1583935483962,1.2479,-4.698,2.6773999,0.30240682,4.979269,3.3257663,-1
126,127,1583935483973,1.0328,-4.8845997,2.717,-0.00076614454,4.776231299999999,3.3279212,-1
127,128,1583935483983,1.0789,-5.0694,2.5305,-0.19030073,4.560657,3.0788956,-1
128,129,1583935483993,0.7892,-5.2727,2.3281,-0.82733077,4.344988,2.9174976000000004,-1
129,130,1583935484003,0.2034,-5.5148997,2.1776,-1.5699163999999999,4.029796,2.7543662,-1
130,131,1583935484013,-0.34899998,-5.7578998,1.9619,-2.2530205000000003,3.869796,2.5634813,-1
131,132,1583935484023,-0.72529995,-5.7679,1.8693,-2.4874797,3.8733779999999998,2.424493,-1
132,133,1583935484034,-0.47669998,-5.7521,1.4804,-2.0135715,3.9655737999999996,1.7845517,-1
133,134,1583935484044,0.7327,-5.3866,0.9622,-0.45211148,4.5338519999999995,0.9800424999999999,-1
134,135,1583935484054,1.8928,-4.9245996,0.2131,0.2252848,4.8483157,0.18852903,-1
135,136,1583935484064,2.549,-4.5682,-0.80179995,0.29769504,5.02451,-1.177727,-1
136,137,1583935484074,2.1711,-4.5499997,-1.6297,-0.70221937,5.0125484,-1.5187473999999999,-1
137,138,1583935484085,1.0532,-4.5752997,-1.4944998999999999,-2.0103824,4.8859434,-1.1846510000000001,-1
138,139,1583935484095,-0.049599998,-4.6756,-1.1421,-3.3114011,4.75204,-1.0985267,-1
139,140,1583935484105,-1.3076,-4.7564,-1.068,-4.387518,4.809166,-1.264512,-1
140,141,1583935484115,-1.9885,-4.5764,-1.3483,-4.5720160000000005,5.1538925,-1.8944647000000001,-1
141,142,1583935484125,-1.7476,-4.0895,-1.964,-3.8319294000000004,5.681498,-2.5295315,-1
142,143,1583935484135,-0.7301,-3.5509,-2.5665,-2.8229747000000005,6.208624400000001,-3.1505682,-1
143,144,1583935484146,0.1909,-3.0858998,-2.9938998,-2.1331859,6.5596437000000005,-3.4812458,-1
144,145,1583935484156,0.76159996,-2.7702,-3.1813998,-1.7732223999999999,6.793547,-3.4589512000000004,-1
145,146,1583935484166,1.0382999,-2.5138,-2.7761,-1.7132908,7.07839,-2.6882002000000003,-1
146,147,1583935484177,0.9478,-2.3051999,-2.1949,-1.9821787,7.2802887,-2.200214,-1
147,148,1583935484187,0.64849997,-2.0946999,-1.7329999,-2.2846908999999997,7.511099300000001,-1.9865361000000001,-1
148,149,1583935484197,0.39519998,-1.8916998999999999,-1.579,-2.6280675,7.602778,-2.1273534,-1
149,150,1583935484207,0.058399998,-1.7912999,-1.7176,-2.948852,7.6502695,-2.4191875,-1
150,151,1583935484217,-0.1848,-1.7346,-2.0132,-2.9823612999999995,7.6301584,-2.887972,-1
151,152,1583935484228,-0.1752,-1.7664,-2.5108,-2.9186754,7.6507190000000005,-3.6764307,-1
152,153,1583935484238,-0.087,-1.7389,-3.1292,-2.8371193,7.690319500000001,-3.9352437999999994,-1
153,154,1583935484248,0.025899999,-1.6738,-3.4141998,-2.7108014,7.8061604,-3.9294693,-1
154,155,1583935484258,0.13409999,-1.5718,-3.3416,-2.8026812000000003,7.9039493,-3.0477805,-1
155,156,1583935484268,0.0523,-1.4721,-2.4629998,-3.1269902999999997,8.066879,-1.9349651,-1
156,157,1583935484278,-0.2676,-1.3052,-1.3708999,-3.2006454,8.174197,-1.1575677,-1
157,158,1583935484288,-0.3463,-1.1984,-0.6033,-3.136232,8.287203,-1.0386716999999999,-1
158,159,1583935484299,-0.27249998,-1.0828999,-0.4895,-3.0303888,8.389388,-1.1241256000000002,-1
159,160,1583935484309,-0.0519,-0.92679995,-0.8203,-2.9070494,8.451360000000001,-1.3771256,-1
160,161,1583935484319,-0.0519,-0.92679995,-0.8203,-2.7981036,8.622363,-1.9497421000000001,-1
161,162,1583935484329,-0.011899999,-0.6041,-1.8879,-2.8500001,8.775927000000001,-2.4724922,-1
162,163,1583935484339,-0.011899999,-0.6041,-1.8879,-2.9355689999999997,8.897591,-2.5005328999999996,d
163,164,1583935484349,-0.1077,-0.4587,-1.859,-2.9050095000000002,9.016334,-1.9935272000000002,-1
164,165,1583935484360,-0.1215,-0.39769998,-0.83739996,-2.9329066000000004,8.994852,-1.4242626,-1
165,166,1583935484370,-0.1073,-0.43219998,-0.4739,-2.9088783,8.9598875,-1.0455287,-1
166,167,1583935484380,0.100999996,-0.3493,-0.3029,-2.6792743,9.054191000000001,-0.87580854,-1
167,168,1583935484390,0.3286,-0.2368,-0.48889998,-2.4293678,9.169648,-1.0554887,-1
168,169,1583935484400,0.44959998,-0.1726,-0.6997,-2.2557112999999998,9.249041,-1.3111031000000002,-1
169,170,1583935484411,0.4852,-0.0976,-0.72279996,-2.2537196,9.342759,-1.2827367,-1
170,171,1583935484421,0.42749998,-0.0213,-0.4822,-2.2911744,9.391783,-1.0670861999999999,-1
171,172,1583935484431,0.24769999,-0.022000000000000002,-0.2126,-2.5216305,9.367947000000001,-0.7584831,-1
172,173,1583935484441,-0.024899999,-0.109299995,0.019,-2.8341985,9.29975,-0.5511165,-1
173,174,1583935484451,-0.3245,-0.1565,-0.1278,-3.1115236,9.255792,-0.8486870000000001,-1
174,175,1583935484461,-0.57769996,-0.1256,-0.70159996,-3.305914,9.311605,-1.4726734,-1
175,176,1583935484472,-0.4748,-0.057499997000000004,-1.0115,-3.1075304,9.38481,-1.7467234,-1
176,177,1583935484482,-0.1546,0.0568,-1.2483,-2.7249367,9.519058,-1.886899,-1
177,178,1583935484492,0.1405,0.1692,-1.1111,-2.40352,9.636864,-1.6361113,-1
178,179,1583935484502,0.4928,0.3001,-0.85539997,-2.123226,9.771839,-1.4402943000000001,-1
179,180,1583935484512,0.602,0.4509,-0.5864,-2.0419092,9.887143,-1.1990641000000002,-1
180,181,1583935484522,0.5009,0.4657,-0.2031,-2.1391904,9.904621,-0.79625404,-1
181,182,1583935484533,0.385,0.47219998,0.0047999997999999995,-2.2811284,9.938272999999999,-0.52706915,-1
182,183,1583935484543,0.3419,0.5096,0.012,-2.2923715000000002,9.954880000000001,-0.6369916999999999,-1
183,184,1583935484553,0.3706,0.5286,-0.1999,-2.2350736,9.985717999999999,-0.809585,-1
184,185,1583935484563,0.4218,0.5193,-0.4473,-2.2504060000000004,9.914935,-1.1431451000000001,-1
185,186,1583935484574,0.26999998,0.452,-0.71379995,-2.4096394,9.885189,-1.3078854,-1
186,187,1583935484584,0.1779,0.3847,-0.7581,-2.488859,9.843531,-1.2795188,-1
187,188,1583935484594,0.1827,0.37559998,-0.6802,-2.4420187,9.779308,-1.109272,-1
188,189,1583935484604,0.1859,0.30699998,-0.45099998,-2.4038072,9.709014999999999,-0.962766,-1
189,190,1583935484614,0.2665,0.2575,-0.4024,-2.3470263,9.726991,-0.8574115,-1
190,191,1583935484624,0.2983,0.2863,-0.3178,-2.4203175999999997,9.695041999999999,-0.7763534000000001,-1
191,192,1583935484635,0.1451,0.2175,-0.2742,-2.6237673999999997,9.613246,-0.6082326,-1
192,193,1583935484645,0.003,0.1392,-0.085,-2.719928,9.474642,-0.36295143,-1
193,194,1583935484656,-0.060999997,0.021699998999999998,0.1926,-2.652747,9.483777,-0.005832275400000001,-1
194,195,1583935484666,0.089999996,0.050899997,0.4062,-2.5472584,9.533874,0.11687535,-1
195,196,1583935484676,0.16939999,0.089999996,0.4926,-2.4573226000000004,9.498728,0.18776287,-1
196,197,1583935484686,0.23089999,0.0413,0.5202,-2.4562595000000003,9.4387665,0.18817468,-1
197,198,1583935484696,0.1872,-0.0358,0.47529998,-2.576506,9.395336,-0.14318284,-1
198,199,1583935484707,0.096499994,-0.0337,0.1511,-2.6930747000000004,9.448621000000001,-0.381042,-1
199,200,1583935484717,-0.022499999,0.0079,-0.0717,-2.7572488999999996,9.449253,-0.5137191,-1
200,201,1583935484727,-0.0727,0.0007,-0.17629999,-2.8250527,9.386095,-0.50001466,-1
201,202,1583935484737,-0.1328,-0.085,-0.1249,-3.0355606,9.265503,-0.3988453,-1
202,203,1583935484747,-0.31129998,-0.1415,-0.0061999997,-2.8278396,9.360888000000001,-0.28033227,-1
203,204,1583935484758,-0.0611,-0.032199997,0.0622,-2.5733837999999998,9.474813000000001,-0.304236,-1
204,205,1583935484769,0.20889999,0.0084,0.0319,-2.524025,9.440424,-0.31717426,-1
205,206,1583935484780,0.2322,0.019299998999999998,0.0903,-2.5044212000000003,9.44685,-0.26366863,-1
206,207,1583935484789,0.2322,0.019299998999999998,0.0903,-2.5654352000000005,9.490232,-0.2007203,-1
207,208,1583935484799,0.1784,0.06,0.1586,-2.9031324,9.368549,-0.21800642,-1
208,209,1583935484809,-0.27789998,-0.0534,0.052699998,-3.0328022999999997,9.360754,-0.30490637,-1
209,210,1583935484819,-0.096999995,-0.0128,-0.21079999,-2.8536394,9.413244,-0.57158214,-1
210,211,1583935484829,0.012,0.065799996,-0.25169998,-2.7313244,9.490232,-0.59505486,-1
211,212,1583935484840,0.012,0.065799996,-0.25169998,-2.633258,9.51224,-0.48681779999999997,-1
212,213,1583935484850,0.1292,0.094799995,-0.1312,-2.4892802000000005,9.535454,-0.49602112,-1
213,214,1583935484860,0.33519998,0.21159999,-0.0998,-2.4008577,9.644802,-0.37802529999999995,-1
214,215,1583935484870,0.3595,0.2516,0.047799997000000004,-2.424273,9.695905,-0.19144996,-1
215,216,1583935484880,0.28039998,0.2634,0.2427,-2.4921439,9.679288,-0.04750096,-1
216,217,1583935484890,0.028999999999999998,0.1393,0.33949998,-2.8363150000000004,9.533836,0.13846147,-1
217,218,1583935484900,-0.348,0.0354,0.5068,-3.1437209,9.451361,0.2811942,-1
218,219,1583935484911,-0.4921,-0.0002,0.46179998,-3.2943928,9.409079,0.23603955,-1
219,220,1583935484921,-0.35639998,0.0705,0.3715,-3.1748648,9.476450999999999,0.17536092,-1
220,221,1583935484931,-0.11699999999999999,0.14019999,0.27399999999999997,-2.9471187999999997,9.540319,0.08689995,-1
221,222,1583935484941,0.1601,0.2192,0.0602,-2.6442044,9.61203,-0.18704462,-1
222,223,1583935484951,0.243,0.2008,-0.0749,-2.5751266,9.605872,-0.26779625,-1
223,224,1583935484961,0.19229999,0.1933,-0.035499997,-2.6611743,9.580407000000001,-0.19760783,-1
224,225,1583935484972,0.1252,0.1475,-0.0067,-2.7540886,9.515161500000001,-0.17759229999999998,-1
225,226,1583935484982,0.0501,0.1121,-0.0563,-2.834754,9.509702,-0.23060949999999997,-1
226,227,1583935484992,0.015099999499999999,0.096599996,-0.1158,-2.893144,9.478922,-0.25643814,-1
227,228,1583935485002,-0.0591,0.0713,-0.0585,-2.9926755000000003,9.450805,-0.15514427,-1
228,229,1583935485012,-0.1827,0.0067,0.1734,-3.150147,9.356522,0.17986201,-1
229,230,1583935485022,-0.26819998,-0.0385,0.38529998,-3.1936063999999997,9.316596,0.3167433,-1
230,231,1583935485032,-0.2579,-0.1041,0.3931,-3.1793084,9.244138000000001,0.2944102,-1
231,232,1583935485042,-0.25959998,-0.1507,0.295,-3.1987683999999996,9.180863,0.19767487,-1
232,233,1583935485053,-0.27359998,-0.2078,0.22729999,-3.2285044,9.1354685,0.092962064,-1
233,234,1583935485063,-0.2512,-0.2953,0.0525,-3.146594,9.085728,-0.09399636,-1
234,235,1583935485073,-0.0368,-0.2859,-0.1033,-2.8979513999999997,9.088274,-0.19445707,-1
235,236,1583935485083,0.2039,-0.2285,-0.1633,-2.685892,9.142192999999999,-0.20086396,-1
236,237,1583935485093,0.3362,-0.23009999,-0.0407,-2.6211432999999995,9.140880000000001,0.03151727,-1
237,238,1583935485103,0.25509998,-0.28,0.2355,-2.7328759999999996,9.083582,0.41441718,-1
238,239,1583935485114,0.1573,-0.3682,0.63839996,-2.8398967,8.988877,0.7771196,-1
239,240,1583935485124,0.0137,-0.4357,0.8973,-2.9878106,8.885667999999999,1.0170377,-1
240,241,1583935485134,-0.10789999,-0.4829,0.98579997,-3.0611975,8.875342999999999,1.0192404,-1
241,242,1583935485144,-0.101399995,-0.49069998,0.8077,-3.0402147999999998,8.866102,0.72785646,d
242,243,1583935485154,-0.0458,-0.49839997,0.45999998,-2.9983928,8.869982,0.38883752,-1
243,244,1583935485165,-0.0784,-0.4669,0.2926,-3.0687153,8.907292,0.34884477,-1
244,245,1583935485175,-0.110999994,-0.41579998,0.36089998,-3.0398986,9.002236,0.27707618,-1
245,246,1583935485185,-0.056199998,-0.3258,0.1749,-3.0612836,9.067167,0.062345013,-1
246,247,1583935485195,-0.12,-0.2556,0.0082,-3.0967467,9.129752,-0.026403256,-1
247,248,1583935485206,-0.1249,-0.205,0.0185,-3.1408767999999996,9.163539,0.045327026,-1
248,249,1583935485216,-0.1822,-0.1653,0.1381,-3.2157192,9.186647,0.22762156,-1
249,250,1583935485226,-0.2502,-0.15519999,0.2976,-3.21027,9.227636,0.33646193,-1
250,251,1583935485236,-0.1925,-0.086899996,0.3311,-3.1315777000000002,9.31443,0.2545228,-1
251,252,1583935485246,-0.1072,-0.019199999,0.2502,-2.9944856,9.326880000000001,0.12699804,-1
252,253,1583935485257,-0.0026,-0.0594,0.0928,-3.0690506,9.279456,-0.010582372,-1
253,254,1583935485267,-0.1319,-0.0894,-0.0047,-3.0979822,9.286916999999999,-0.21036413,-1
254,255,1583935485277,-0.0938,-0.0504,-0.1617,-3.011082,9.334934,-0.25351724,-1
255,256,1583935485287,-0.0266,-0.0116,-0.154,-3.0093967999999998,9.399837,-0.18711165,-1
256,257,1583935485297,-0.047799997000000004,0.046699997,-0.0897,-3.0198834,9.442703,-0.122793816,-1
257,258,1583935485307,-0.0403,0.0852,-0.0268,-2.9348412,9.516751,-0.0638773,-1
258,259,1583935485318,0.0543,0.1724,0.0357,-2.8990622000000004,9.568934,0.009212888,-1
259,260,1583935485328,0.0609,0.21069999,0.118099995,-3.0217123,9.566771000000001,0.24243686,-1
260,261,1583935485338,-0.058399998,0.2003,0.3285,-3.0955112000000002,9.565803,0.3101736,-1
261,262,1583935485348,-0.1381,0.19999999,0.3942,-3.0253419999999998,9.597608000000001,0.22417389,-1
262,263,1583935485358,-0.041699997999999995,0.25849998,0.2674,-2.873272,9.644065,-0.10190679999999999,-1
263,264,1583935485369,0.1909,0.3365,-0.37919998,-2.767046,9.700721000000001,-0.5278832,-1
264,265,1583935485378,0.1909,0.3365,-0.37919998,-2.7839967999999997,9.713946,-0.60165334,-1
265,266,1583935485388,0.1725,0.3469,-0.4244,-2.8177263999999997,9.636527000000001,-0.5084231,-1
266,267,1583935485398,0.1361,0.2597,-0.3065,-2.8219306,9.54914,-0.38881835,-1
267,268,1583935485409,0.12979999,0.1727,-0.18159999,-2.8797363999999996,9.396801,-0.16084246,-1
268,269,1583935485419,0.0578,-0.1585,0.1409,-2.920141,9.197508000000001,-0.051848833,-1
269,270,1583935485429,0.0578,-0.1585,0.1409,-2.8819964,9.011066,-0.066070385,-1
270,271,1583935485439,0.17889999,-0.5593,0.051599998,-2.7950293999999998,8.79171,-0.14490665,-1
271,272,1583935485449,0.2298,-0.7841,0.0946,-2.742338,8.56338,-0.1131404,-1
272,273,1583935485460,0.2298,-0.7841,0.0946,-2.754577,8.289636,-0.043478699999999995,-1
273,274,1583935485470,0.19699999999999998,-1.4096,0.2663,-2.7858741,7.9486446,0.07818505,-1
274,275,1583935485480,0.19699999999999998,-1.4096,0.2663,-2.689359,7.622314500000001,0.05733634,-1
275,276,1583935485490,0.40969998,-2.1134,0.15339999,-2.5798959999999997,7.2320504,-0.058523864,-1
276,277,1583935485500,0.2967,-2.6905,0.19399999,-2.7214124,6.539953700000001,-0.004261679,-1
277,278,1583935485510,0.1252,-3.3362,0.2913,-2.9016385,5.8733025,0.121682905,-1
278,279,1583935485521,0.0398,-4.0316,0.504,-2.9783008,5.184069,0.36885070000000003,-1
279,280,1583935485531,0.0398,-4.0316,0.504,-3.0541009999999997,4.638632,0.57735693,-1
280,281,1583935485541,-0.0211,-5.3792,0.9242,-2.9716449000000003,3.8479803,0.7461769,-1
281,282,1583935485551,0.26369998,-5.973799700000001,0.7815,-2.6030815,3.2902940000000003,0.53587985,-1
282,283,1583935485562,0.83349997,-6.4241,0.3254,-2.0271227,2.856905,0.095873415,-1
283,284,1583935485572,1.0741999,-6.9055,0.151,-1.8386416,2.2590152999999997,0.0177554,-1
284,285,1583935485582,0.92969996,-7.4270000000000005,0.2944,-2.0165881999999997,1.7751952000000002,0.27882874,-1
285,286,1583935485592,0.73149997,-7.8809996,0.5423,-2.1281006000000002,1.3565452,0.40349,-1
286,287,1583935485602,0.64269996,-8.2785,0.5159,-2.092197,1.0095774,0.38074509999999995,-1
287,288,1583935485612,0.8089,-8.5999,0.34489998,-1.8391012,0.77189064,0.18096335,-1
288,289,1583935485622,1.4166,-8.894199,-0.0402,-0.68644637,0.5293293,-0.43125317,-1
289,290,1583935485632,2.6443,-8.8664,-0.6536,0.3707565,0.6870784000000001,-0.8133774,-1
290,291,1583935485642,2.8614,-8.7303,-0.562,0.2815581,0.8330576999999999,-0.38208586,-1
291,292,1583935485653,2.4987,-8.4564,0.0743,-0.018368315,1.2621465,0.38799474,-1
292,293,1583935485663,2.4987,-8.4564,0.0743,-0.033011254,1.8826948000000001,0.861405,-1
293,294,1583935485673,2.3497999,-7.1681,0.80429995,0.27288154,2.696551,0.88351786,-1
294,295,1583935485683,2.5028,-6.4498997000000005,0.7240000000000001,0.48239335,3.3931489999999997,0.8186733,-1
295,296,1583935485693,2.5284998,-5.8887997,0.53029996,0.52395666,3.9817011,0.5715055,-1
296,297,1583935485703,2.1957,-5.218899700000001,0.21329999,0.36264494,4.7105823,0.39413348,-1
297,298,1583935485713,2.0449998,-4.4007,0.18339999,0.45221683,5.969904,0.42727882,-1
298,299,1583935485724,2.0077999,-3.1887,0.23539999,0.40173745,7.0408587,0.6368768,-1
299,300,1583935485734,1.6259999,-1.8964,0.61719996,-0.05583278,8.64484,1.1108042,-1
300,301,1583935485744,0.9702,-0.59209996,0.92039996,-0.52258724,9.564041,1.3073299999999999,-1
301,302,1583935485754,0.3319,0.3313,1.1859,-1.0459214,10.544255999999999,1.4842518999999998,-1
302,303,1583935485764,-0.27629998,1.0597,1.1091,-1.4695610000000001,11.33913,1.1020702,-1
303,304,1583935485775,-0.63949996,2.0144,0.5893,-0.90428996,12.470496,0.391519,-1
304,305,1583935485785,0.2697,3.1469998,-0.22219999,0.8876455,13.726629,-0.61432344,-1
305,306,1583935485795,2.0705,4.4989,-1.2154,3.0353785,15.216242999999999,-1.4913961000000002,-1
306,307,1583935485805,3.7582998,5.9255,-1.8484999,4.3335915,16.424522,-1.6924419999999998,-1
307,308,1583935485815,4.3735,7.0058,-1.7718999,4.6263547,17.238146,-1.1775162000000001,-1
308,309,1583935485825,4.1327,7.6604996,-1.0703,4.3054643,17.705956,-0.361467,-1
309,310,1583935485835,3.4278998,7.9961,-0.2642,3.5850203,17.834131,0.49465165,-1
310,311,1583935485845,2.5661,8.061,0.39749998,3.4305272000000007,17.798735,0.8182328000000001,-1
311,312,1583935485855,2.5303,8.0711,0.5038,3.8570397000000005,17.919172,0.8562335999999999,-1
312,313,1583935485865,2.8285,8.2522,0.6096,4.234174299999999,17.948162,1.0907216999999998,-1
313,314,1583935485876,2.7918,8.1619,0.8786,4.1138515,17.695755,1.584703,-1
314,315,1583935485886,2.3901,7.896,1.4056,3.8081214,17.38676,1.9012835,-1
315,316,1583935485896,1.9402,7.5997,1.4291999,3.5322137000000002,16.974439999999998,1.3867406999999998,-1
316,317,1583935485906,1.5615,7.2811,0.8591,2.9553738,16.531082,0.61553967,-1
317,318,1583935485916,0.78389996,6.8215,0.13499999,2.185724,15.973519,-0.09840169,-1
318,319,1583935485926,-0.052199997000000005,6.2899,-0.4836,1.6752133000000002,15.551642000000001,-0.60890293,-1
319,320,1583935485937,-0.6513,5.7665997,-1.0713,1.4733247,14.925425,-1.5585679,-1
320,321,1583935485947,-0.7567,5.2827997,-1.8636999,1.7231357,14.479414000000002,-2.3452067000000003,-1
321,322,1583935485958,-0.5201,4.8789997000000005,-2.5021,2.1600200000000003,14.151226000000001,-2.6122944,-1
322,323,1583935485968,-0.16899999999999998,4.5752,-2.6162999,2.58252,13.805723,-2.2941623,-1
323,324,1583935485978,0.1695,4.2436,-2.1919,3.0452235,13.487745,-1.6246095,-1
324,325,1583935485988,0.5575,3.9519,-1.5396,3.389596,13.103858,-0.96703726,-1
325,326,1583935485998,0.745,3.5616999,-0.91349995,3.4423256,12.6453495,-0.28644228,-1
326,327,1583935486008,0.72789997,3.179,-0.3595,3.5261516999999998,12.271864,0.10386047,-1
327,328,1583935486019,0.7432,2.7833,-0.012999999,3.4423544,11.821303,0.46198517,-1
328,329,1583935486029,0.62439996,2.4231,0.2478,3.2488072,11.364510000000001,0.5837064000000001,-1
329,330,1583935486039,0.4086,1.9713,0.3545,3.142974,10.955417,0.54111826,-1
330,331,1583935486049,0.2332,1.3452,0.2095,3.112606,10.728092,0.422318,-1
331,332,1583935486060,0.2332,1.3452,0.2095,3.0793647999999996,10.621283,0.3046861,-1
332,333,1583935486070,0.1147,1.1448,-0.1621,3.0205345,10.52422,-0.014891935,-1
333,334,1583935486080,0.2768,1.1163,-0.53639996,3.1847765,10.493077,-0.41970354,-1
334,335,1583935486090,0.19919999,0.98819995,-0.82019997,3.1104703,10.36652,-0.7205494,-1
335,336,1583935486100,0.0002,0.77,-0.9776,2.9048946,10.121248,-0.9404998999999999,-1
336,337,1583935486111,-0.3312,0.57989997,-0.98209995,2.4706243999999997,9.913086999999999,-0.92367345,-1
337,338,1583935486121,-0.7687,0.2913,-0.8440000000000001,2.033338,9.614883,-0.79844713,-1
338,339,1583935486131,-1.1204,0.023,-0.68,1.7090865000000002,9.393871,-0.63587123,-1
339,340,1583935486141,-1.3511,-0.1352,-0.40199998,1.4661323999999998,9.216700999999999,-0.37214515,-1
340,341,1583935486151,-1.3461,-0.26119998,-0.3442,1.5859671,9.143543,-0.38102284,-1
341,342,1583935486162,-0.8134,-0.1287,-0.41079998,2.1982028,9.280788000000001,-0.44992796,-1
342,343,1583935486172,-0.053799997999999995,0.025999999,-0.48959997,3.0368342,9.4759245,-0.558845,-1
343,344,1583935486182,0.55579996,0.2798,-0.6702,3.5744379,9.646507000000001,-0.5372972,-1
344,345,1583935486192,0.63119996,0.3263,-0.3042,3.5844169000000003,9.689938,-0.25850675,-1
345,346,1583935486202,0.63119996,0.3263,-0.3042,3.3164768,9.689354,0.59547627,-1
346,347,1583935486213,0.23179999,0.32569999,0.77879995,3.1257452999999997,9.653211,1.033893,-1
347,348,1583935486223,-0.0462,0.2487,0.9381,2.8428464,9.550633,1.0847073999999999,-1
348,349,1583935486233,-0.23339999,0.1803,0.85639995,2.7359214,9.5319395,0.93014735,-1
349,350,1583935486243,-0.2439,0.1706,0.6002,2.8144033,9.519001,0.61530983,-1
350,351,1583935486254,0.0678,0.2004,0.1662,3.2023213,9.603593,0.10613975,-1
351,352,1583935486264,0.36879998,0.2796,-0.2552,3.4523623,9.649083000000001,-0.28184542,-1
352,353,1583935486274,0.57409996,0.3286,-0.49409997,3.6017509,9.6706505,-0.490208,d
353,354,1583935486284,0.5674,0.3178,-0.6415,3.4463383999999997,9.640367999999999,-0.51037675,-1
354,355,1583935486294,0.37829998,0.24679999,-0.5106,3.2273072999999997,9.593796000000001,-0.32415575,-1
355,356,1583935486305,0.16219999,0.19479999,-0.3254,3.0653919999999997,9.529574,-0.16990213,-1
356,357,1583935486315,0.07369999599999999,0.15259999,-0.2023,2.9595015,9.506273,-0.11610921,-1
357,358,1583935486325,-0.0257,0.1206,-0.16,2.8578436000000003,9.420916,0.009222465,-1
358,359,1583935486336,-0.1467,0.0402,-0.041699997999999995,2.7643356,9.361424000000001,0.18144219,-1
359,360,1583935486346,-0.15259999,-0.0197,0.1636,2.8673724999999997,9.327857,0.41267420000000005,-1
360,361,1583935486356,-0.063099995,-0.0297,0.29099998,3.0475984,9.348562,0.41569090000000003,-1
361,362,1583935486366,0.1621,-0.0001,0.2629,3.3057510000000003,9.409692,0.30574915,-1
362,363,1583935486376,0.4267,0.058799997,0.138,3.5566058,9.475858,0.20910957,-1
363,364,1583935486386,0.6254,0.1169,0.0634,3.4806809999999997,9.520964999999999,0.31473216,-1
364,365,1583935486397,0.4969,0.1633,0.2058,3.1583447000000002,9.560086,0.5262264,-1
365,366,1583935486407,0.17799999,0.1882,0.4197,2.8737507,9.62336,0.6865709,-1
366,367,1583935486417,-0.049799997,0.2809,0.5401,2.8031123,9.799686999999999,0.6312456999999999,-1
367,368,1583935486427,-0.0625,0.45209998,0.43879998,2.8668267999999997,10.083813000000001,0.5126465,-1
368,369,1583935486437,-0.0087,0.7614,0.3673,2.9243642999999997,10.487494,0.5863305,-1
369,370,1583935486447,0.0721,1.1695,0.4786,2.9575765,10.893072,0.7985429,-1
370,371,1583935486458,0.0924,1.5978,0.7323,2.821586,11.359807,1.2436345,-1
371,372,1583935486468,-0.0543,2.0458998999999998,1.1883999,2.633756,11.850225,1.6935529999999999,-1
372,373,1583935486478,-0.2104,2.5428998,1.6156,2.5674843999999997,12.371444,1.9649693,-1
373,374,1583935486488,-0.2383,3.0886998,1.8409,2.7707617,13.014717999999998,2.0045502,-1
374,375,1583935486498,0.057499997000000004,3.7127998,1.8572999,3.4975263999999995,13.82775,1.9670762,-1
375,376,1583935486508,0.7068,4.4151998,1.8420999,4.5036273,14.669782000000001,1.959587,-1
376,377,1583935486518,1.7200999,5.2545,1.8519,5.6867747,15.523123000000002,1.8302236,-1
377,378,1583935486529,2.9247,6.1022,1.745,6.571892299999999,16.086891,1.7741323,-1
378,379,1583935486539,3.8374,6.6523,1.7012999,6.656358999999999,16.210709,2.108085,-1
379,380,1583935486549,3.2164,6.6145,2.9710999,5.8206873,16.086899,3.0444956000000003,-1
380,381,1583935486559,2.3508,6.3803997,3.8021998,4.8445044,15.875032000000001,3.8666263,-1
381,382,1583935486570,1.8542999,6.0943,4.2681,4.2251434,15.621812,4.305828,-1
382,383,1583935486580,1.8542999,6.0943,4.2681,3.3887916,15.090213,4.090532,-1
383,384,1583935486590,0.5336,5.080899700000001,3.7479,2.4708930000000002,14.5544,3.5595648,-1
384,385,1583935486600,-0.20289999,4.464699700000001,3.1824,1.5897499,13.974820999999999,2.8534097999999997,-1
385,386,1583935486610,-0.7094,3.8528998,2.2868,1.1859438,13.402377,1.7471734,-1
386,387,1583935486621,0.52959996,3.8054997999999998,0.5661,2.625175,13.483521,-0.29485074,-1
387,388,1583935486630,2.478,3.8702,-1.6331999,4.0730059999999995,13.549764999999999,-2.158411,-1
388,389,1583935486640,3.3578,3.8367998999999995,-3.4829,4.833376,13.523352,-4.110193,-1
389,390,1583935486650,3.0816,3.5846,-4.2948,4.2635274,13.206895999999999,-5.0223455,-1
390,391,1583935486660,2.3341,3.1722999,-4.1142,3.2561430000000002,12.808185,-4.6694307,-1
391,392,1583935486671,2.3341,3.1722999,-4.1142,1.9924066999999999,12.398096,-3.508061,-1
392,393,1583935486680,0.6684,2.3183,-2.0602,1.4818672,12.079149000000001,-2.6930075,-1
393,394,1583935486690,0.61829996,1.8902999,-1.3483,1.2631424999999998,11.664627000000001,-1.9267865000000002,-1
394,395,1583935486700,0.5376,1.27,-0.91529995,0.9137040000000001,10.90105,-1.3862523000000002,-1
395,396,1583935486710,0.47649997,0.4869,-0.7747,0.76337683,10.294732000000002,-1.2766362,-1
396,397,1583935486720,0.51269996,-0.3216,-1.0807999,0.55612516,9.332367999999999,-1.6057048,-1
397,398,1583935486730,0.3023,-1.0186,-1.2268,0.20111294,8.692063000000001,-1.7020093,-1
398,399,1583935486741,0.28300000000000003,-1.5457,-1.3553,0.024315512,8.166594,-1.8546060000000002,-1
399,400,1583935486751,0.3252,-1.9718,-1.5455999,-0.070399106,7.7542257,-2.0635433,-1
400,401,1583935486761,0.51739997,-2.4148998,-1.5917,-0.063092,7.2916465,-2.0570025000000003,-1
401,402,1583935486771,0.4008,-2.787,-1.2692,-0.47411898,6.8237624000000014,-1.5994321000000002,-1
402,403,1583935486781,-0.0736,-3.3237,-0.6178,-1.0674021,6.2967124000000005,-0.964327,-1
403,404,1583935486791,-0.2539,-3.7117,-0.26319999,-1.2521771000000002,5.931185,-0.929975,-1
404,405,1583935486801,0.013499998999999999,-3.9515998,-0.70449996,-0.9847447,5.775628599999999,-1.4365689,-1
405,406,1583935486811,0.8656,-3.9559998999999997,-1.4087,-0.22106144,5.771941,-2.1961915000000003,-1
406,407,1583935486821,1.2684,-4.0097,-1.8848,-0.05237556,5.650077,-2.581476,-1
407,408,1583935486831,1.1194998999999999,-4.1912,-1.7875999,-0.36961687,5.455676599999999,-2.4462040000000003,-1
408,409,1583935486842,0.7133,-4.3336997,-1.5071,-0.88152593,5.3385050000000005,-2.1125958,-1
409,410,1583935486851,0.3136,-4.4077,-1.0085,-1.2795763,5.251308,-1.7051599999999998,-1
410,411,1583935486861,0.0863,-4.4521,-0.47169998,-1.6309206,5.182805,-1.0883466999999998,-1
411,412,1583935486871,-0.0875,-4.5259,-0.1371,-1.9022603,5.1162653,-0.82898754,-1
412,413,1583935486881,-0.1396,-4.5016,-0.2564,-1.9867182,5.1038346,-1.0526921999999999,-1
413,414,1583935486891,-0.0122,-4.4479,-0.7303,-1.8727733,5.190754,-1.5485026000000002,-1
414,415,1583935486901,0.3633,-4.13,-1.2590000000000001,-1.5955629999999998,5.459115,-1.9989573,-1
415,416,1583935486911,1.0196999,-3.7340998999999995,-1.6825,-1.0003645,5.847972,-2.4329016,-1
416,417,1583935486921,0.99189997,-3.4754998999999995,-1.4499999,-1.1904738000000001,6.1187177,-2.0705824,-1
417,418,1583935486931,0.46969998,-3.432,-0.4371,-1.8095376,6.0902457000000005,-0.92903644,-1
418,419,1583935486941,-0.089899994,-3.4961,0.7642,-2.4368186,6.0617356,0.34807859999999996,-1
419,420,1583935486952,-0.2227,-3.4132998,1.2854999,-2.5344636,6.1250862999999995,0.57417744,-1
420,421,1583935486962,-0.24659999,-3.2917,0.9298,-2.592384,6.2096114,0.039456442,-1
421,422,1583935486972,-0.2817,-3.2401,0.10759999599999999,-2.6196973,6.305475,-0.83369935,-1
422,423,1583935486982,0.2478,-2.9364998,-0.7794,-2.0102005000000003,6.614049400000001,-1.7412263,-1
423,424,1583935486992,0.9324,-2.6069,-1.3504,-1.2405891000000002,7.004419,-2.1835310000000003,-1
424,425,1583935487003,1.425,-2.3195,-1.2239,-1.0060626,7.166133,-1.7619505000000002,-1
425,426,1583935487013,1.1731,-2.2985,-0.28599998,-1.5330934999999999,7.163825,-0.5093233,-1
426,427,1583935487023,0.6096,-2.3859,1.0382,-1.9481428,7.088790400000001,0.5762364000000001,-1
427,428,1583935487033,0.1823,-2.3167,2.1060998,-2.3839736,7.186186999999999,1.6621124,-1
428,429,1583935487043,0.035299998,-2.1885,2.4227998,-2.3945369999999997,7.352038,1.6594595,-1
429,430,1583935487053,0.2563,-2.0109,1.9770999,-2.1103642000000002,7.524899499999999,1.019384,-1
430,431,1583935487064,0.6512,-1.8032,1.1401,-1.6634914,7.796583999999999,0.103257135,-1
431,432,1583935487074,0.97929996,-1.5645,0.40359998,-1.4472758,7.964695,-0.46150630000000004,-1
432,433,1583935487084,1.0489,-1.4613999,0.2856,-1.4885998,8.035573,-0.4129232,-1
433,434,1583935487094,0.99759996,-1.4156,0.42769998,-1.6326733,8.0180855,-0.28286058,-1
434,435,1583935487104,0.67649996,-1.5354999,0.62439996,-2.0548189,7.896441,-0.050316542,-1
435,436,1583935487114,0.20889999,-1.5180999,0.91679996,-2.5645347000000003,7.9458284,0.18779162,-1
436,437,1583935487124,-0.0771,-1.4625,0.9467,-2.724247,8.010242,0.030578746,-1
437,438,1583935487135,-0.1952,-1.3399,0.7086,-2.7318703999999996,8.170395,-0.39267778,-1
438,439,1583935487145,-0.048499997999999996,-1.1996,0.2908,-2.4382071,8.3834505,-0.9095189,-1
439,440,1583935487155,0.38369998,-0.8946,-0.21169999,-1.9627091,8.717134,-1.3221452,-1
440,441,1583935487165,0.7321,-0.5814,-0.3642,-1.7370794999999999,9.043044,-1.1575198999999998,-1
441,442,1583935487175,0.81579995,-0.29839998,-0.025999999,-1.8411123999999999,9.211967999999999,-0.75644326,-1
442,443,1583935487186,0.5991,-0.16219999,0.4321,-2.259887,9.32329,-0.31605378,-1
443,444,1583935487196,0.0346,-0.093399994,0.7812,-2.9786646,9.364087,-0.49255429999999994,-1
444,445,1583935487206,-0.5184,-0.0618,0.4288,-3.1864814999999997,9.339388,-1.1085538000000001,-1
445,446,1583935487217,-0.6681,-0.080299996,-0.14289999,-3.1860983,9.431249000000001,-1.4821832,-1
446,447,1583935487227,-0.6455,0.0093,-0.45799997,-3.1947078999999996,9.511752,-1.679207,-1
447,448,1583935487237,-0.6648,0.10759999599999999,-0.581,-3.174568,9.587227,-1.7666335,-1
448,449,1583935487247,-0.59889996,0.2241,-0.68009996,-2.8710117000000004,9.780755000000001,-1.9375412,-1
449,450,1583935487258,-0.2997,0.3983,-0.80469996,-2.4225297,10.032998,-1.9310002,-1
450,451,1583935487268,0.1475,0.64059997,-0.74939996,-2.2410877,10.084482000000001,-1.6975178,-1
451,452,1583935487279,0.22839999,0.6584,-0.5432,-2.6673896,9.899957,-1.3514407,-1
452,453,1583935487289,-0.19219999,0.46199998,-0.20359999,-3.1897662,9.663878,-1.0175453,-1
453,454,1583935487299,-0.7163,0.2374,0.1256,-3.5166898,9.544217,-0.7322043,-1
454,455,1583935487309,-1.0372,0.1105,0.4085,-3.4625041,9.534986,-0.6687963,-1
455,456,1583935487320,-0.5868,0.1752,0.2537,-3.0457501000000002,9.611829,-0.9041559000000001,-1
456,457,1583935487330,0.064399995,0.2686,-0.1626,-2.3692830000000002,9.70958,-1.3386173000000001,-1
457,458,1583935487340,0.7626,0.4499,-0.6853,-1.6559831999999999,9.894432,-1.8689904,-1
458,459,1583935487350,1.1031,0.5147,-1.0933,-1.2763010000000001,9.9603,-2.3421135,-1
459,460,1583935487360,0.9934,0.4538,-1.0963,-1.3795389999999998,9.903645,-2.3023312000000002,-1
460,461,1583935487370,0.6203,0.3064,-0.6956,-1.8344182,9.733474000000001,-1.8010526000000002,d
461,462,1583935487381,0.29299998,0.19929999,-0.2305,-2.149294,9.635973,-1.3429269,-1
462,463,1583935487391,0.0858,0.16149999,0.0379,-2.3009044999999997,9.595798,-1.1380598999999998,-1
463,464,1583935487401,0.0548,0.094399996,-0.024799999,-2.3841076,9.535138,-1.2639949,-1
464,465,1583935487411,-0.085599996,0.0077,-0.2713,-2.5145247000000004,9.434122,-1.4917791999999999,-1
465,466,1583935487421,-0.1893,-0.0796,-0.4488,-2.6022387000000005,9.356167,-1.6629071,-1
466,467,1583935487432,-0.2574,-0.0994,-0.6181,-2.6568457999999997,9.340585,-1.8475192999999999,-1
467,468,1583935487442,-0.15349999,-0.0914,-0.8009999999999999,-2.5107036,9.362114,-2.0190592,-1
468,469,1583935487453,0.024899999,-0.0263,-0.9413,-2.3562392999999995,9.430883999999999,-2.1005769,-1
469,470,1583935487463,0.0255,0.0275,-0.6982,-2.3769633999999997,9.494696000000001,-1.6217747999999998,-1
470,471,1583935487473,-0.0326,0.0019999999,-0.17909999,-2.425336,9.46902,-1.1046655,-1
471,472,1583935487483,-0.0907,-0.0138,0.1501,-2.465568,9.424593,-0.8564634,-1
472,473,1583935487493,-0.1197,-0.15699999,0.3048,-2.58184,9.206911999999999,-0.5858324,-1
473,474,1583935487503,-0.4525,-0.3191,0.7486,-2.8466196,9.16715,-0.18803102,-1
474,475,1583935487513,-0.3559,-0.22569999,0.8774,-2.4980717,9.32146,-0.23239079,-1
475,476,1583935487524,0.13949999,-0.0534,0.5185,-2.0084,9.4774475,-0.6552068,-1
476,477,1583935487534,0.45979998,0.012499999,0.0622,-1.8086950000000002,9.518619000000001,-1.0735025,-1
477,478,1583935487544,0.5308,0.0314,-0.2802,-1.8049886000000002,9.501178999999999,-1.3986351000000001,-1
478,479,1583935487555,0.41279998,-0.0556,-0.4944,-1.9867756,9.400325,-1.5511267,-1
479,480,1583935487565,0.2619,-0.10229999599999999,-0.5347,-2.1881473,9.317849,-1.5012411,-1
480,481,1583935487576,-0.0321,-0.20729999,-0.39319998,-2.583746,9.231783,-1.2999078000000002,-1
481,482,1583935487586,-0.4243,-0.27359998,-0.1978,-2.9512942000000004,9.2108965,-1.1928582,-1
482,483,1583935487596,-0.6939,-0.26299998,-0.1428,-3.0775547000000003,9.255774,-1.1768746,-1
483,484,1583935487606,-0.73569995,-0.21519999,-0.14829999,-2.9970138,9.382608,-1.1512662,-1
484,485,1583935487617,-0.6179,-0.0711,-0.12529999,-2.8571541000000003,9.505467999999999,-1.1399177,-1
485,486,1583935487627,-0.5057,0.091,-0.1125,-2.70676,9.74262,-1.0914304,-1
486,487,1583935487637,-0.37739998,0.2917,-0.0707,-2.474369,9.941203999999999,-1.0553353,-1
487,488,1583935487648,-0.1529,0.4919,-0.0685,-2.267826,10.131658999999999,-1.1482017,-1
488,489,1583935487658,-0.0167,0.6627,-0.145,-2.2559318999999998,10.382274,-0.9923200000000001,-1
489,490,1583935487668,-0.0251,0.87329996,-0.0056,-2.2398713,10.655845,-0.8458235000000001,-1
490,491,1583935487678,-0.021399999,1.1338999,0.1363,-1.9540994999999999,11.054326,-1.0005274,-1
491,492,1583935487688,0.2298,1.5307,-0.02,-1.8135023999999997,11.371338,-1.5295405,-1
492,493,1583935487698,0.36969998,1.8531,-0.5453,-1.7640287000000001,11.6600685,-1.9838258999999998,-1
493,494,1583935487708,0.4114,2.1367,-0.9975,-1.6024678999999997,12.019036,-2.4968555,-1
494,495,1583935487718,0.5606,2.4991,-1.4850999,-1.4859086000000001,12.244636999999999,-3.1346993,-1
495,496,1583935487728,0.69089997,2.7832,-2.2672,-1.2662166000000001,12.521569,-3.9015050000000002,-1
496,497,1583935487738,0.93829995,3.0469999999999997,-3.0253,-0.9118364999999999,12.738703999999998,-4.581573000000001,-1
497,498,1583935487748,1.3222,3.2507,-3.6460000000000004,-0.44015962,12.918969,-4.899178,-1
498,499,1583935487758,1.7076,3.3848,-3.8973,-0.058083333,13.005457,-4.854234,-1
499,500,1583935487768,2.0776,3.4794,-3.8765,0.2735902,12.937941,-4.618693,-1
500,501,1583935487779,2.3962,3.3983,-3.6775,0.54010314,12.719244,-4.407428299999999,-1
501,502,1583935487789,2.6762,3.1822,-3.5119,0.8227530999999999,12.400021,-4.242382,-1
502,503,1583935487799,2.9872,2.8609,-3.3753,0.9845245,12.076698,-4.156526,-1
503,504,1583935487809,3.4731,2.0237,-3.3553,1.2111596000000002,11.547101,-4.152330999999999,-1
504,505,1583935487819,3.7782,1.558,-3.4208998999999998,1.447678,11.064860000000001,-4.194488,-1
505,506,1583935487829,3.8667,0.9999,-3.4526,1.454286,10.484822,-4.199928,-1
506,507,1583935487839,3.8667,0.9999,-3.4526,1.184584,9.796135000000001,-4.2144365,-1
507,508,1583935487849,3.7108998,0.3405,-3.4910997999999998,0.8177827,9.190833,-4.313135,-1
508,509,1583935487859,2.8116,-1.2045,-3.5885,0.024851814,8.186705,-4.2808137,-1
509,510,1583935487869,2.4283,-1.9755,-3.4698,-0.53413683,7.3596992,-4.134557,-1
510,511,1583935487880,2.0637999,-2.7546,-3.2336,-1.0413052999999999,6.5441199999999995,-3.8501635000000003,-1
511,512,1583935487890,1.8305,-3.475,-2.9491,-1.4801146,5.636353,-3.4731247000000005,-1
512,513,1583935487900,1.6372,-4.1672,-2.8102,-1.8205798,4.882859,-3.3038354,-1
513,514,1583935487910,1.2983999,-4.88,-2.9029999,-2.2979453,4.1431184000000005,-3.3709497,-1
514,515,1583935487921,1.0012,-5.4957,-2.9917998,-2.749779,3.4187667,-3.3192157999999994,-1
515,516,1583935487931,0.7833,-6.1229,-2.8435,-3.0088892000000005,2.788977,-3.0648272,-1
516,517,1583935487941,0.71129996,-6.586199799999999,-2.6548998,-3.0974076,2.3818955,-2.7853088,-1
517,518,1583935487951,0.8231,-6.896,-2.3573,-3.0596080000000003,2.051371,-2.3502824,-1
518,519,1583935487961,0.8637,-7.18,-1.7759,-3.1179113,1.7335073,-1.6311218,-1
519,520,1583935487971,0.5973,-7.6246996,-0.9805,-3.5516355,1.1934711999999998,-0.67674506,-1
520,521,1583935487982,-0.1759,-8.359,0.046699997,-4.411096,0.41364145,0.5397967,-1
521,522,1583935487992,-0.8562,-9.0823,1.248,-5.138838,-0.4046967,2.271044,-1
522,523,1583935488002,-1.2063,-9.533299000000001,2.8325,-5.1913285,-0.75560045,4.1822870000000005,-1
523,524,1583935488012,-0.9163,-9.7133,4.5987,-4.5971546,-0.7894066,5.980878400000001,-1
524,525,1583935488024,0.0357,-9.5822,6.0952997,-3.0751703,-0.39608717,7.8108053,-1
525,526,1583935488034,1.247,-9.2049,7.4392,-1.8093269,0.14747325,9.294367,-1
526,527,1583935488044,2.2398,-8.6749,8.6591,-1.1133995,0.65779257,10.258168,-1
527,528,1583935488054,2.5644999,-8.165999000000001,9.441199000000001,-0.8608879,1.3368456,11.129514,-1
528,529,1583935488065,2.5612,-7.490999700000001,10.1636,-1.0285778,1.861693,11.544008,-1
529,530,1583935488075,1.9181,-7.0326,10.446899,-1.9716921000000003,2.4274142000000003,11.673419,-1
530,531,1583935488085,0.83919996,-6.575999700000001,10.4379,-2.9256954,2.9439678,11.437035,-1
531,532,1583935488095,-0.0951,-6.1035,10.191299,-3.3042184999999997,3.4736323,10.966325,-1
532,533,1583935488105,-0.2086,-5.5676,9.5743,-2.9412002999999998,4.1760144,9.757598,-1
533,534,1583935488116,0.0821,-4.8893,8.2303,-2.1952722000000002,5.0811954,7.5580254,-1
534,535,1583935488126,0.624,-4.1826,6.3863997,-1.6268218,5.809492,5.041250700000001,-1
535,536,1583935488136,0.9819,-3.5217998,3.9605,-1.476667,6.66517,3.0051349999999997,-1
536,537,1583935488146,0.8652,-2.6691,2.4407,-1.4908024,7.3412066,2.671249,-1
537,538,1583935488156,0.5746,-1.9684,2.6046999,-2.075677,7.891020299999999,3.8456721,-1
538,539,1583935488166,-0.23089999,-1.6868999,3.8808,-2.6352596,8.097171000000001,5.3923745,-1
539,540,1583935488177,-0.8448,-1.4829999,5.5072,-2.196661,8.473597,7.1037974,-1
540,541,1583935488187,-0.484,-1.1416,7.0713,-0.8216804,9.023430000000001,8.015969,-1
541,542,1583935488198,0.8504,-0.51309997,7.7395997,1.5004367,10.159142999999998,7.976244400000001,-1
542,543,1583935488208,2.8274,0.6416,7.4087996,4.43545,11.715738,7.2058,-1
543,544,1583935488218,5.0489999999999995,1.9340998999999999,6.7082,5.915019,12.9255295,6.8136779999999995,-1
544,545,1583935488228,6.218899700000001,3.1294,6.251,6.3712964,13.741004,6.9469389999999995,-1
545,546,1583935488238,6.4136,4.0986,6.3820996,5.585701,14.324203,7.4648523,-1
546,547,1583935488249,5.4052,4.5243,6.8029,4.2663236,14.442101999999998,7.328546,-1
547,548,1583935488259,3.0388,4.7448997,6.0014997,3.5748785000000005,14.523544000000001,6.687398,-1
548,549,1583935488269,3.0388,4.7448997,6.0014997,3.5938597000000003,14.981516000000001,5.826041,-1
549,550,1583935488280,3.5054,5.9494,3.8490998999999997,4.398119400000001,15.705695,4.567821,-1
550,551,1583935488290,4.6324,6.7275996,2.7475998,5.9495335,16.563747,3.3700589999999995,-1
551,552,1583935488300,5.4273996,7.2174997,2.2913,6.873169,16.982063,3.0683417,-1
552,553,1583935488311,5.8848996,7.4753,2.0866,7.5006413,17.153938,2.9765291,-1
553,554,1583935488321,6.1119,7.5172,1.9322,7.738931,17.094782000000002,2.855823,-1
554,555,1583935488332,5.8982,7.3002996,1.7034,7.5882309999999995,16.837357,2.6996636,-1
555,556,1583935488342,5.3914,6.9403,1.415,7.005855599999999,16.383389,2.3340786000000002,-1
556,557,1583935488352,4.677,6.6324,0.90129995,6.2926707,16.02441,1.7281060000000001,-1
557,558,1583935488362,3.9155,6.2202,0.1239,5.648381,15.608998000000001,0.7882956999999999,-1
558,559,1583935488372,3.4325,5.8127,-0.9938,5.411518599999999,15.304867000000002,-0.16980636,-1
559,560,1583935488382,3.359,5.4897,-2.4241,5.382232,14.903791,-1.9994936,-1
560,561,1583935488392,3.4180998999999996,5.125,-3.8093,5.545546,14.537151999999999,-3.400753,-1
561,562,1583935488402,3.6592,4.7490997,-5.1095,5.74324,14.222064999999999,-4.462428,-1
562,563,1583935488412,3.6727998,4.2544,-6.1171,5.6673627,13.626953,-5.559202,-1
563,564,1583935488422,3.4903998,3.8370998,-6.6818,5.426256700000001,13.278061,-6.079088700000001,-1
564,565,1583935488432,3.1413999,3.5463,-7.0715,5.086817,13.077389,-6.400802,-1
565,566,1583935488442,2.7229,3.3330998,-7.402,4.639925,12.825097,-6.8934717,-1
566,567,1583935488452,2.5563998,3.1187,-7.9403996,4.481802,12.627326,-7.514910700000001,-1
567,568,1583935488463,2.4368,2.8734,-8.5055,4.3026004,12.362011,-8.045782,-1
568,569,1583935488473,2.1896,2.5477998,-8.910399,3.8479129999999997,11.965942,-8.391457,-1
569,570,1583935488483,1.5907999,2.0635,-9.030499,3.1359541,11.476011,-8.451159,-1
570,571,1583935488493,0.97059995,1.5684999,-9.0436,2.6047862,11.056768,-8.560488000000001,-1
571,572,1583935488503,0.833,1.1913999,-9.155399000000001,2.551558,10.708067,-8.711122,-1
572,573,1583935488513,0.9005,0.83489996,-9.1629,2.5259116,10.437147999999999,-8.664473,-1
573,574,1583935488523,0.88979995,0.4596,-9.0295,2.4174829,10.010665,-8.586939,-1
574,575,1583935488533,0.8684,0.1048,-9.0571995,2.3679037,9.656668,-8.654972,-1
575,576,1583935488544,0.8935,-0.26839998,-9.1567,2.29806,9.328307,-8.851919,-1
576,577,1583935488554,0.895,-0.5327,-9.3782,2.35215,9.085268,-9.0373745,-1
577,578,1583935488564,1.1367999,-0.7956,-9.499499,2.4935322,8.755777,-9.084760000000001,-1
578,579,1583935488574,1.1981,-1.0964999,-9.367,2.3718397999999996,8.387196000000001,-8.669558,-1
579,580,1583935488584,1.0706999,-1.5531,-8.8349,2.1493417999999997,7.8928304,-7.963957300000001,-1
580,581,1583935488594,0.88049996,-2.0084999,-8.049,1.9916884999999998,7.593661,-7.268375,-1
581,582,1583935488605,0.77099997,-2.3055,-7.2402,1.7954789,7.246415600000001,-6.26463,-1
582,583,1583935488615,0.61329997,-2.6011,-6.4721,1.5976987,6.977268700000001,-5.6534,-1
583,584,1583935488625,0.4256,-2.8955,-6.0439,1.588706,6.7136960000000006,-5.353473,-1
584,585,1583935488635,0.6669,-3.0418,-5.8545,2.0930014,6.6244307000000004,-5.172663,-1
585,586,1583935488645,1.3076,-3.1773,-5.616699700000001,2.8006318,6.5888333,-4.7293434,-1
586,587,1583935488655,1.8822999,-3.1755,-5.111399700000001,3.227652,6.5021059999999995,-4.1606819999999995,-1
587,588,1583935488666,2.1438,-3.2531998,-4.461,3.1684002999999996,6.4085217000000005,-3.3821833,-1
588,589,1583935488676,1.8902999,-3.3916,-3.5921,2.7804153,6.2678285,-2.623068,-1
589,590,1583935488686,1.5244,-3.4633,-2.8139,2.4167167999999997,6.3586454,-1.8056782,-1
590,591,1583935488697,1.1905999,-3.3595,-2.0365999,2.0920438999999997,6.6117125,-1.0234254999999999,-1
591,592,1583935488707,0.9169,-3.0498998,-1.1536,1.7990509999999997,6.9220967,-0.49331087,-1
592,593,1583935488717,0.6031,-2.7686,-0.54069996,1.5777311,7.212886999999999,-0.267327,-1
593,594,1583935488728,0.4348,-2.4947999,-0.2421,1.5152136,7.348494500000001,-0.24241771,-1
594,595,1583935488738,0.361,-2.3843,-0.036199998,1.4473716,7.4546149999999995,-0.3048489,-1
595,596,1583935488748,0.2997,-2.2498999,0.0589,1.444623,7.774059299999999,-0.45587516,-1
596,597,1583935488758,0.24679999,-1.8657,0.121,1.2983277,8.360964,-0.23829968,-1
597,598,1583935488768,0.035099998,-1.2033,0.58989996,0.9223231,9.079846,0.31229009999999996,-1
598,599,1583935488778,-0.3929,-0.47939998,1.3139,1.1434228000000002,10.0771,1.0829358,-1
599,600,1583935488788,-0.16929999,0.4033,2.0742,2.4977652999999997,10.847275999999999,1.65379,-1
600,601,1583935488799,1.0883,1.1904,2.7268999,4.254918,11.430973,2.236098,-1
601,602,1583935488809,4.7469997,2.2956,4.2051,6.392624,11.907103,3.0626245,-1
602,603,1583935488819,6.405999700000001,2.6699,5.3283,8.190679,12.252728999999999,4.204381,-1
603,604,1583935488829,7.0600996,2.8936,6.4196,8.961439,12.465468,5.347526,-1
604,605,1583935488840,7.1144,3.0145,7.4953,9.107725,12.567767,6.473452,-1
605,606,1583935488850,6.5360000000000005,2.9638,8.2688,8.594878,12.513803,7.281572,-1
606,607,1583935488860,5.2953997,2.7809,8.5152,7.3776655,12.326394,7.5537834,-1
607,608,1583935488870,3.9245,2.5261998,8.1693,5.721108,12.008319,7.041989,-1
608,609,1583935488880,2.5698,2.2115,7.2278,4.3962426,11.68356,6.0080480000000005,-1
609,610,1583935488890,1.5738,1.9561,6.1626,3.4435515,11.437092,4.8830222999999995,-1
610,611,1583935488901,0.8609,1.6429,4.9941998,2.7556782,11.131219,3.6834986000000005,-1
611,612,1583935488911,0.3093,1.3992,4.1253,2.2151155,10.870202,2.8345048,-1
612,613,1583935488921,0.1514,1.1852,3.3897998,2.1259074,10.717433999999999,2.0734458,-1
613,614,1583935488931,0.0138,1.0198,2.8314,1.9657639999999998,10.537858,1.6025829,-1
614,615,1583935488942,-0.2491,0.88259995,2.7598999,1.6864566000000003,10.384142,1.6150903,-1
615,616,1583935488951,-0.55939996,0.6757,2.9687997999999998,1.3970837999999999,10.205582000000001,1.9347352,-1
616,617,1583935488961,-0.6436,0.5668,3.3165,1.4439527,10.100725,2.3235056,-1
617,618,1583935488971,-0.2659,0.62619996,3.5289998,1.9184738000000001,10.177886,2.5446534,-1
618,619,1583935488981,0.3529,0.69699997,3.4701998,2.5757492,10.251472999999999,2.5032337000000005,-1
619,620,1583935488992,0.76,0.71,3.3068,2.9461226000000003,10.241551,2.3708248,-1
620,621,1583935489002,0.89339995,0.6637,3.0644,3.0850246,10.196128999999999,2.1085925,-1
621,622,1583935489012,0.96089995,0.6166,2.5189,3.08898,10.118883,1.426676,-1
622,623,1583935489022,0.7658,0.5093,2.0086,2.885923,10.006471000000001,1.0504223999999998,-1
623,624,1583935489032,0.384,0.3222,1.7897999,2.3744447,9.758652,0.86875045,-1
624,625,1583935489042,-0.042,0.0854,1.7414,1.9425403,9.521654,0.7626776999999999,-1
625,626,1583935489052,-0.36049998,-0.1116,1.6484,1.7133194,9.4063015,0.66645,-1
626,627,1583935489063,-0.3992,-0.1012,1.5199,1.7558884999999997,9.41425,0.37370613,-1
627,628,1583935489073,-0.3076,-0.1479,1.1664,1.8645372,9.375388000000001,0.050412312,-1
628,629,1583935489083,-0.1445,-0.15429999,0.8477,1.996314,9.335921,-0.29300240000000005,-1
629,630,1583935489093,-0.093499996,-0.268,0.6821,2.0347459999999997,9.215349,-0.37660795,d
630,631,1583935489103,-0.122899994,-0.391,0.7022,2.0245752,9.123528,-0.42653182,-1
631,632,1583935489113,-0.0846,-0.38599998,0.53819996,2.1857912999999995,9.195746,-0.6951324999999999,-1
632,633,1583935489123,0.29709998,-0.1353,0.17379999,2.5338700000000003,9.408159,-1.0808958999999998,-1
633,634,1583935489134,0.4877,0.026899998999999997,-0.3408,2.6118443,9.543536999999999,-1.6757113000000001,-1
634,635,1583935489144,0.2556,0.040799998,-0.636,2.0777073,9.5331745,-1.9948009999999998,-1
635,636,1583935489154,-0.34129998,-0.005699999599999999,-0.9115,1.3829197,9.436564,-2.4185748,-1
636,637,1583935489164,-0.9762,-0.0924,-1.2702999,0.9318329,9.4014845,-2.644348,-1
637,638,1583935489174,-1.2943,-0.0909,-1.3871,0.80143505,9.414777,-2.7383057999999996,-1
638,639,1583935489184,-1.3103,-0.059699997000000005,-1.4527999,0.97799313,9.499158,-2.6951528,-1
639,640,1583935489194,-1.0447,0.0208,-1.3212999,1.2179592,9.51111,-2.5266778,-1
640,641,1583935489205,-1.0447,0.0208,-1.3212999,1.4989233999999998,9.485357,-2.3472562000000003,-1
641,642,1583935489215,-0.5847,-0.0235,-1.1166999,1.8763741000000003,9.475551,-2.26887,-1
642,643,1583935489225,-0.25939998,0.007999999,-1.0035,2.1271430000000002,9.516952499999999,-1.9127182,-1
643,644,1583935489235,-0.1017,0.097899996,-0.5962,2.263775,9.593164,-1.3866258999999999,-1
644,645,1583935489245,-0.0309,0.109,-0.156,2.417004,9.651017,-0.86650944,-1
645,646,1583935489255,0.1312,0.18879999,0.2764,2.6137787999999995,9.667173,-0.45685200000000004,-1
646,647,1583935489265,0.3177,0.19049999,0.5618,2.8205514,9.666139999999999,-0.21216458,-1
647,648,1583935489276,0.4421,0.20199999,0.6938,2.8217006000000002,9.654924000000001,-0.11453861,-1
648,649,1583935489286,0.3383,0.1541,0.7209,2.6466942,9.567938999999999,-0.11254663,-1
649,650,1583935489296,0.1136,0.0371,0.7018,2.444432,9.487789999999999,-0.16965313,-1
650,651,1583935489306,-0.0295,-0.0011999999,0.6055,2.4158645,9.483614999999999,-0.30065426,-1
651,652,1583935489316,0.0036,0.0199,0.39069998,2.6315725,9.561475,-0.6465877,-1
652,653,1583935489326,0.309,0.14999999,-0.0167,3.1328993,9.745818,-1.1578646000000001,-1
653,654,1583935489336,0.7398,0.3098,-0.40739998,3.3890019999999996,9.9519205,-1.2155745,-1
654,655,1583935489347,0.9066,0.5078,-0.3662,3.2884742999999994,10.162457,-0.81969804,-1
655,656,1583935489357,0.75259995,0.74329996,0.085,3.0312892999999996,10.397491,-0.16333245,-1
656,657,1583935489367,0.5028,0.9776,0.7134,2.8610423,10.66273,0.3793756,-1
657,658,1583935489377,0.3321,1.2508,1.181,2.8063683999999998,10.976917,0.8181658,-1
658,659,1583935489387,0.318,1.5731,1.5212,3.0118675,11.320005,0.89849603,-1
659,660,1583935489397,0.56769997,1.9156,1.54,3.41824,11.695953,0.9181572,-1
660,661,1583935489408,0.97459996,2.3074,1.5222,3.6626879999999997,12.040583999999999,0.90714383,-1
661,662,1583935489418,1.1604999,2.6294,1.4861,3.623816,12.369891,0.95693374,-1
662,663,1583935489428,1.1000999,2.9492998,1.5385,3.3505895,12.648348,1.1120013000000002,-1
663,664,1583935489438,0.8537,3.1685,1.6501,3.0160716,12.821697,1.1141945,-1
664,665,1583935489448,0.49809998,3.366,1.6047,2.8339112,13.086486,0.9227062,-1
665,666,1583935489459,0.4016,3.5821,1.4,3.0724982999999995,13.345289999999999,0.71758056,-1
666,667,1583935489469,0.6681,3.8372998,1.1608,3.4000921,13.632623,0.6416173000000001,-1
667,668,1583935489479,1.3467,4.2571,1.1561999,3.6732512,13.782815,0.7988398,-1
668,669,1583935489489,1.5019999999999998,4.3419,1.3679,3.7837675,13.885135,1.0694803,-1
669,670,1583935489499,1.6098,4.3364,1.4254999,3.8327339,13.89746,1.1706401000000002,-1
670,671,1583935489509,1.8757999,4.4467998,1.39,4.0247297,14.025817000000002,1.1857715,-1
671,672,1583935489520,1.8793999,4.4769998,1.2698,3.9490826,14.073625,1.1037556999999998,-1
672,673,1583935489530,2.0219998,4.4665,1.1096,3.9991595999999996,14.080673999999998,0.989763,-1
673,674,1583935489540,2.1155999,4.3865,1.0728999,3.9925516000000005,14.025176,0.9998091,-1
674,675,1583935489550,2.0231,4.2766,1.1506,3.7846775000000004,13.937769,1.12991,-1
675,676,1583935489560,1.7931999,4.1864,1.2279999,3.4373457000000003,13.865464000000001,1.2616198,-1
676,677,1583935489570,1.4537,4.1948,1.2195,2.9648836,13.889242999999999,1.3018615,-1
677,678,1583935489580,1.2488999,4.2729,1.0116999,2.5649657,14.015897,1.0620201,-1
678,679,1583935489591,1.1589999,4.2932997,0.5476,2.3467486,14.03459,0.5927469,-1
679,680,1583935489601,1.1541,4.2072,0.1006,2.1993424999999998,13.901913,0.18352993,-1
680,681,1583935489611,1.1457,3.8288998999999997,-0.3735,2.0236368000000002,13.511859,-0.27384877,-1
681,682,1583935489621,1.1228,3.3546998999999995,-0.63549995,1.8741619999999999,13.146725,-0.43656832,-1
682,683,1583935489631,1.2001,2.9227,-0.79639995,1.7615482,12.624357,-0.5875467,-1
683,684,1583935489641,1.3574,2.5035,-0.80689996,1.7710293999999998,12.235539,-0.4611807,-1
684,685,1583935489652,1.3798,2.0679,-0.431,1.5688437,11.767712,-0.006483498000000001,-1
685,686,1583935489662,1.1794,1.4883,0.0121,1.1680736999999999,11.186428999999999,0.5132019,-1
686,687,1583935489672,0.8224,0.84319997,0.52889997,0.47630249999999996,10.380148,1.1546085,-1
687,688,1583935489682,0.3645,0.1516,0.9199,-0.22097524,9.639679,1.5005229,-1
688,689,1583935489692,-0.375,-0.62619996,1.16,-1.1644632,8.865269999999999,1.7048153000000001,-1
689,690,1583935489703,-0.5776,-1.2068,1.0833,-0.8260379000000001,8.5099125,1.1790485000000002,-1
690,691,1583935489713,0.6324,-1.395,-0.06399999599999999,0.41125682,8.330233,-0.19702365,-1
691,692,1583935489724,1.8011999,-1.4553,-1.3895998999999999,1.1450223,8.268989,-1.3822014,-1
692,693,1583935489734,2.1361,-1.6215998999999999,-2.1062,1.092886,8.028802,-1.742682,-1
693,694,1583935489744,1.8379999,-1.9323,-1.8901999,0.3316544,7.5567899999999995,-1.0536402,-1
694,695,1583935489754,1.8379999,-1.9323,-1.8901999,-0.52423435,7.073055999999999,-0.049014095,-1
695,696,1583935489764,0.5392,-2.8116,-0.0735,-1.0579020000000001,6.632695,1.0054020000000001,-1
696,697,1583935489774,0.2503,-3.2063,0.9928,-1.4464905000000001,6.267158,2.0909138,-1
697,698,1583935489784,-0.0893,-3.6216998,1.9856,-1.7180026000000002,5.870065,2.7780592,-1
698,699,1583935489794,0.1866,-3.9412,2.4658,-1.0870728,5.689849,2.7238545,-1
699,700,1583935489804,1.5383999,-3.8811998,1.5407,0.79914623,5.902636,0.8816695999999999,-1
700,701,1583935489814,3.0628,-3.7533998,-0.1087,1.6967038,5.878340000000001,-0.61092365,-1
701,702,1583935489824,3.5205998,-3.8281,-1.1494,1.1906078000000002,5.598343,-1.1880603,-1
702,703,1583935489835,2.6725,-4.152199700000001,-1.2844,0.17509276,5.321937,-1.0520791999999999,-1
703,704,1583935489845,1.6004,-4.3933,-0.8017,-1.3158628,5.0854664000000005,-0.39704484,-1
704,705,1583935489855,0.4779,-4.5347,-0.1673,-2.1703918,4.995866,0.023798365,-1
705,706,1583935489865,-0.0278,-4.5099,0.2447,-2.5218412999999997,5.116007,0.18068561,-1
706,707,1583935489875,-0.2051,-4.3592997,0.2728,-2.5829127,5.232480000000001,-0.34260067,-1
707,708,1583935489886,-0.08249999599999999,-4.200599700000001,-0.40399998,-2.5519700000000003,5.365291,-1.3090153999999998,-1
708,709,1583935489896,0.028299998,-4.1019,-1.3289,-2.4276726,5.476573999999999,-2.4134029999999997,-1
709,710,1583935489906,0.23719999,-3.9064,-2.3244998,-2.2791555,5.7039366,-3.4466832000000003,-1
710,711,1583935489916,0.33929998,-3.6929998,-2.9206998,-2.403175,5.931127,-3.6222260000000004,-1
711,712,1583935489926,0.2384,-3.4524998999999994,-2.9192998,-2.6254241,6.0968056,-3.3125792,-1
712,713,1583935489937,0.0049,-3.2831,-2.4775999,-2.9620202,6.2057709999999995,-2.6274831,-1
713,714,1583935489947,-0.3108,-3.1743999,-1.7175,-3.4008198,6.346119,-2.037255,-1
714,715,1583935489957,-0.72889996,-3.0281,-1.1702,-3.5981690000000004,6.449606,-1.7446834999999998,-1
715,716,1583935489967,-0.8005,-2.9129999,-0.9073,-3.4339172999999996,6.640528999999999,-1.7136259999999999,-1
716,717,1583935489977,-0.5955,-2.7017,-0.8861,-3.21118,6.8419003,-1.8048642,-1
717,718,1583935489987,-0.34759998,-2.4819,-0.9485,-2.6849344,7.177739999999999,-2.0780425,-1
718,719,1583935489998,0.19929999,-2.1257,-1.2414,-2.3306308,7.554367,-2.557994,-1
719,720,1583935490008,0.45209998,-1.7394999,-1.6883,-2.4023612,7.821675,-2.9614072,-1
720,721,1583935490018,0.3172,-1.5187,-1.9900999,-2.7363427000000002,7.920124499999999,-3.0427911,-1
721,722,1583935490028,-0.027999998999999998,-1.4244,-1.9655999,-3.090177,7.982603500000001,-2.7263157000000002,-1
722,723,1583935490038,-0.3507,-1.3694,-1.5586,-3.311315,8.017941,-2.1312609,-1
723,724,1583935490048,-0.5372,-1.3254,-1.0418999,-3.5111637000000004,8.061728,-1.7837665,-1
724,725,1583935490058,-0.6983,-1.2830000000000001,-0.6856,-3.573729,8.091205,-1.9169607,-1
725,726,1583935490069,-0.76809996,-1.2523,-0.8091,-3.4256716,8.205197,-2.3355532,-1
726,727,1583935490079,-0.62079996,-1.1456,-1.2066,-2.9454331000000002,8.469106,-2.8919083999999997,-1
727,728,1583935490089,-0.15959999,-0.8754,-1.7447,-2.4611146,8.730409,-3.1195202,-1
728,729,1583935490099,0.29459998,-0.62799996,-1.9781,-2.3438373,8.870221,-2.6180022000000003,-1
729,730,1583935490110,0.1731,-0.5402,-0.5279,-2.5357757000000003,8.833867,-1.6198498,-1
730,731,1583935490120,-0.0378,-0.56079996,0.401,-2.71468,8.828121000000001,-0.6619297,-1
731,732,1583935490130,-0.0047,-0.47289997,0.7869,-2.6571617,8.920786,-0.25157315,-1
732,733,1583935490140,0.2926,-0.2855,0.62729996,-2.3297691,9.124628,-0.39692990000000006,-1
733,734,1583935490150,0.2926,-0.2855,0.62729996,-2.1746630000000002,9.284801,-0.7290536,-1
734,735,1583935490160,0.4192,-0.0596,-0.12329999,-2.1601062,9.370339999999999,-1.2353793,-1
735,736,1583935490171,0.45729998,-0.0116,-0.4782,-2.1225652999999998,9.399445,-1.5979381000000001,-1
736,737,1583935490181,0.35279998,-0.0407,-0.60679996,-2.246125,9.370235000000001,-1.6894061999999999,-1
737,738,1583935490191,0.15359999,-0.078999996,-0.5126,-2.4509727999999997,9.327293,-1.5452561000000002,-1
738,739,1583935490201,0.15359999,-0.078999996,-0.5126,-2.6666807999999995,9.290536999999999,-1.4958396999999999,-1
739,740,1583935490211,-0.31219998,-0.1951,-0.51739997,-2.9525582999999997,9.215991,-1.6387066000000003,-1
740,741,1583935490221,-0.625,-0.1671,-0.4112,-3.2211783,9.276746000000001,-1.4648299999999999,d
741,742,1583935490232,-0.6512,-0.0729,-0.1907,-3.1335025,9.375933999999999,-1.3061615,-1
742,743,1583935490242,-0.37129998,0.0583,-0.2356,-2.7591642999999997,9.534802,-1.4489805,-1
743,744,1583935490252,-0.0381,0.20789999,-0.54539996,-2.3696373,9.681605000000001,-1.8317366999999998,-1
744,745,1583935490262,0.27269998,0.2976,-0.86829996,-2.0813846999999996,9.733493,-2.0601625,-1
745,746,1583935490272,0.4174,0.28869998,-0.904,-1.9394756999999998,9.776847,-1.9213563999999999,-1
746,747,1583935490282,0.48639998,0.3777,-0.5556,-1.8866596000000002,9.855951,-1.4668219999999998,-1
747,748,1583935490293,0.51019996,0.428,-0.025799999,-1.8490229,9.90284,-0.92064714,-1
748,749,1583935490303,0.51019996,0.428,-0.025799999,-1.9719220000000002,9.889921000000001,-0.46590206,-1
749,750,1583935490313,0.1996,0.4053,0.871,-2.2256117000000004,9.860472,-0.0873309,-1
750,751,1583935490323,-0.0339,0.3442,1.0052,-2.4054449,9.833139,-0.16089994,-1
751,752,1583935490334,-0.0787,0.3635,0.5839,-2.3269822999999996,9.872767999999999,-0.7691613,-1
752,753,1583935490344,0.1214,0.42339998,-0.1502,-2.0224778999999997,9.958203,-1.7229729,-1
753,754,1583935490354,0.3901,0.51309997,-0.85109997,-1.8208958,10.045534,-2.1977527,-1
754,755,1583935490364,0.48409998,0.58309996,-1.1053,-1.8471841,10.074648,-2.2449374,-1
755,756,1583935490374,0.2879,0.5748,-0.9264,-2.188827,10.007121000000001,-1.8881919999999999,-1
756,757,1583935490385,-0.022499999,0.5075,-0.5983,-2.4959552000000005,9.897601,-1.6256247,-1
757,758,1583935490395,-0.254,0.43989998,-0.42100000000000004,-2.5947976,9.925794999999999,-1.562073,-1
758,759,1583935490405,-0.2729,0.44,-0.48009998,-2.4935419999999997,9.939097,-1.7979401000000002,-1
759,760,1583935490415,-0.12019999,0.4782,-0.73569995,-2.2338765,10.028085,-2.0632272,-1
760,761,1583935490425,0.23349999,0.5934,-1.022,-1.747298,10.161136,-2.3529258,-1
761,762,1583935490436,0.7212,0.7272,-1.3103,-1.1753423,10.412478,-2.4810631,-1
762,763,1583935490446,1.1897,0.97859997,-1.3167,-0.8319947,10.660806,-2.3670322999999995,-1
763,764,1583935490456,1.574,1.3093,-1.1762999,-0.47717398,11.140641,-2.2513156000000003,-1
764,765,1583935490466,1.8283999,1.7306999,-1.1387,-0.31449276,11.524739,-2.5070642999999997,-1
765,766,1583935490476,2.0231,2.1160997999999998,-1.4634999,-0.017602172,11.906307,-3.1692815,-1
766,767,1583935490486,2.2849,2.4954,-2.1578999,0.1977036,12.338624000000001,-4.0567063999999995,-1
767,768,1583935490496,2.5642998,2.9368,-3.0275,0.5396339,12.539507,-4.8919864,-1
768,769,1583935490507,3.0281,3.2048,-4.1449,0.9558898000000001,12.714791,-6.1783814,-1
769,770,1583935490517,3.3930000000000002,3.2891,-5.0557,1.1688781000000001,12.757437,-6.7302446,-1
770,771,1583935490527,3.612,3.3068,-5.4842997,1.2396314,12.557348,-6.8840485000000005,-1
771,772,1583935490537,3.7257,3.1107,-5.5235,1.2023393999999998,12.249464,-6.6474724,-1
772,773,1583935490547,3.7443,2.7695,-5.2534,0.9521549000000001,11.703211999999999,-6.440594,-1
773,774,1583935490558,3.5391998,2.2245,-5.0843,0.71577054,11.03386,-6.222607,-1
774,775,1583935490568,3.4419999999999997,1.5444,-4.8485,0.5378046999999999,10.141628,-5.744523,-1
775,776,1583935490578,3.3918998,0.8368,-4.4581,0.32949007,9.357785,-5.251174,-1
776,777,1583935490588,3.2998998,0.0923,-4.0197,0.13248555,8.691661,-4.8226886,-1
777,778,1583935490599,3.1562,-0.6983,-3.5514997999999998,-0.4012203,7.696525599999999,-4.3440012999999995,-1
778,779,1583935490609,2.8332,-1.505,-3.2179,-0.9876369,6.9150577,-3.9475884,-1
779,780,1583935490619,2.3792999,-2.2391,-2.8903,-1.7348385,6.069857,-3.3350462999999997,-1
780,781,1583935490629,1.7729,-3.0481,-2.3443,-2.5710278,5.1860610000000005,-2.8218252999999995,-1
781,782,1583935490639,0.42700000000000005,-4.6513,-1.6116999,-3.3563356,4.371803,-2.4372113,-1
782,783,1583935490649,0.42700000000000005,-4.6513,-1.6116999,-4.027296,3.6517034,-1.9582558999999997,-1
783,784,1583935490659,-0.4833,-5.763999999999999,-0.7319,-4.484464,3.1786764,-1.384155,-1
784,785,1583935490670,-0.8075,-6.0933,-0.51199996,-4.9030185,2.8124688,-1.0719032,-1
785,786,1583935490680,-1.0116999,-6.4681997,-0.3633,-5.177327,2.41076,-0.82659334,-1
786,787,1583935490690,-0.9288,-6.8006,-0.14209999,-5.1482806,2.067125,-0.5046403,-1
787,788,1583935490700,-0.6658,-7.1688,0.2365,-4.874748,1.579972,0.15086344,-1
788,789,1583935490710,-0.4267,-7.5915,1.2021998999999999,-4.710266000000001,1.2456936,1.0971093,-1
789,790,1583935490720,-0.3168,-8.0964,2.6310000000000002,-4.595057,0.6373365,2.9878487999999996,-1
790,791,1583935490730,-0.1964,-8.5647,4.2098,-4.445707,0.20158220000000002,4.705248,-1
791,792,1583935490741,-0.2886,-8.750299,5.7632,-4.7156386,0.084697284,6.329743,-1
792,793,1583935490751,-0.7858,-8.8192,6.7626,-5.1021876,-0.030339322999999998,7.2535214,-1
793,794,1583935490761,-0.6411,-8.832399,7.0864,-4.7964096,0.027332207,7.487674,-1
794,795,1583935490771,-0.0625,-8.5855,6.8810997,-4.254112999999999,0.28600177,7.2826257,-1
795,796,1583935490781,0.2456,-8.381599000000001,6.8265,-3.886182,0.55081004,7.312983999999999,-1
796,797,1583935490791,0.2456,-8.381599000000001,6.8265,-3.5060879999999996,0.88831586,7.405055,-1
797,798,1583935490801,0.91209996,-7.4249997,6.8241997,-3.1202195,1.6741886000000001,7.181475,-1
798,799,1583935490812,1.5474,-6.3761997,6.5102,-2.4770220000000003,2.7980172999999997,6.855212,-1
799,800,1583935490822,1.7167,-5.1766996,6.6201,-2.3014407,4.042945,7.054716,-1
800,801,1583935490833,1.4994999,-3.9034998,7.3511996,-2.5780380000000003,5.591179400000001,8.162504,-1
801,802,1583935490843,1.1091,-2.7142,8.672,-2.7572488999999996,6.804417,9.402001,-1
802,803,1583935490853,0.8767,-1.7271,9.5708,-2.8641355,7.8626924,9.872452000000001,-1
803,804,1583935490864,0.73149997,-0.9226,9.4787,-2.7395412999999995,8.410189,9.555699,-1
804,805,1583935490874,1.344,0.15879999,8.7121,-1.5345205,9.851115,8.452614,-1
805,806,1583935490884,2.4483,1.3915,7.7240996,-0.019488802,11.637669,7.298887,-1
806,807,1583935490894,3.3372,2.9076,7.0035,0.73732793,12.850245,7.0622435,-1
807,808,1583935490904,3.8386,4.1928,7.286299700000001,1.3136313999999998,14.267297,7.6813080000000005,-1
808,809,1583935490914,3.9069998,5.1723,7.8588996,1.3961835,15.150307999999999,8.176055,-1
809,810,1583935490925,3.5389998,5.8861,8.204599,0.8978831,15.741674,7.938483,-1
810,811,1583935490935,2.8432,6.2939997000000005,7.4921,0.5575713000000001,16.079918,6.694561500000001,-1
811,812,1583935490945,2.4397,6.6190996,6.1556,0.37974912,16.492804,5.2037687,-1
812,813,1583935490955,2.0681,6.9581,4.6587996,0.18082927,16.766068,3.6611269,-1
813,814,1583935490966,1.6890999,7.1245,3.1798,0.2523297,17.02085,2.0441884999999997,-1
814,815,1583935490976,1.7746998999999999,7.3926997000000005,1.9770999,0.7651964,17.31935,1.1523771999999999,-1
815,816,1583935490986,2.2884998,7.6843,0.92969996,1.4187847,17.479723,0.28711268,-1
816,817,1583935490997,2.6127,7.7448997,0.3513,1.4108934,17.259043,-0.3925533,-1
817,818,1583935491007,2.3047,7.4080997,-0.30519998,0.80040073,16.817331,-0.80826336,-1
818,819,1583935491017,1.5414,6.9670000000000005,-0.6364,0.07641334,16.435219,-0.94245356,-1
819,820,1583935491027,0.82519996,6.6067,-0.7971,-0.032312144,16.321943,-1.196986,-1
820,821,1583935491037,0.774,6.4635,-1.2239,0.36705026,16.16091,-1.7883729,-1
821,822,1583935491048,1.1402,6.3506,-1.7365999,0.7622085,15.972525,-2.3732476000000005,-1
822,823,1583935491059,1.4362999,6.1407,-2.3404,1.1498202,15.655885999999999,-3.0793647999999996,-1
823,824,1583935491069,1.7348,5.8536,-2.9227,1.635508,15.322451000000001,-3.7312198,-1
824,825,1583935491079,2.1847,5.5188,-3.5479998999999998,1.8779063999999999,14.942480999999999,-4.248865,-1
825,826,1583935491089,2.306,4.6284,-4.8055997,1.7661835,14.430543,-5.0855239999999995,-1
826,827,1583935491100,2.2038,4.1226997,-5.9638995999999995,1.6303078000000002,13.916901000000001,-6.3319163,-1
827,828,1583935491110,2.2038,4.1226997,-5.9638995999999995,1.3803147,13.303458,-7.922470599999999,-1
828,829,1583935491120,1.5727999,2.9422998,-8.7368,0.9136178,12.724003999999999,-9.312544,-1
829,830,1583935491130,1.1219,2.3149,-9.458,0.30008924,11.964343,-10.199797,-1
830,831,1583935491140,0.79819995,1.7263998999999999,-9.4755,-0.0096821515,11.382408,-10.159766000000001,-1
831,832,1583935491151,0.76409996,1.2247,-9.0644,-0.1021558,10.865989,-9.773495,-1
832,833,1583935491161,0.77419996,0.76089996,-8.5829,-0.13062765,10.503428999999999,-9.413254,-1
833,834,1583935491171,0.9964,0.37449998,-8.2893,0.13802093,10.036503,-9.110924,-1
834,835,1583935491181,1.3249999,0.0268,-8.228499000000001,0.42532513,9.6900625,-9.09065,-1
835,836,1583935491191,1.7730999,-0.3209,-8.0566,0.83002186,9.322475,-8.804772,-1
836,837,1583935491201,1.7730999,-0.3209,-8.0566,1.1626244,8.947094,-8.041022,-1
837,838,1583935491212,2.4408998,-1.1034,-6.4119997,1.3356581,8.4620285,-6.815459,-1
838,839,1583935491222,2.4717999,-1.4676,-5.2848997,1.1571177,8.095638000000001,-5.720045,-1
839,840,1583935491232,2.178,-1.8296,-4.3276997,0.74731654,7.7552886,-4.930187999999999,-1
840,841,1583935491242,1.8682,-2.0916,-3.8135,0.433906,7.545566,-4.6655426,-1
841,842,1583935491252,1.6425999,-2.3137999,-3.7745998,0.15640839999999998,7.2557529999999995,-4.6721888,-1
842,843,1583935491263,1.6699,-2.4492,-3.7387998,0.16298766,7.1577244,-4.584992400000001,-1
843,844,1583935491273,1.6825,-2.5777,-3.5068,0.122889586,7.019158,-4.268622,-1
844,845,1583935491283,1.6624,-2.6599998,-2.9823,0.004960786,6.9672804,-3.5909864999999996,-1
845,846,1583935491293,1.5352,-2.6662,-2.2905,-0.1850239,7.0150685,-2.8962276,-1
846,847,1583935491304,1.4131,-2.5456998,-1.6006999,-0.30814335,7.1579065,-2.1161296000000003,-1
847,848,1583935491314,1.3493998999999999,-2.4050999,-1.0723,-0.36680126,7.286341,-1.8125925999999999,-1
848,849,1583935491324,1.3084999,-2.2138999,-0.8955,-0.43679816,7.501713799999999,-1.8174767,-1
849,850,1583935491334,1.2250999,-2.0298998,-1.1259999,-0.62413967,7.624058,-2.1986816000000005,-1
850,851,1583935491344,1.0606999,-1.9609,-1.6183,-0.79034513,7.6284246,-2.9693560000000003,-1
851,852,1583935491355,0.9995,-1.9783,-2.3206,-0.9418790000000001,7.592368,-3.6092972999999997,-1
852,853,1583935491365,0.8903,-2.0249999,-2.8016,-1.1020318,7.5162034,-3.9648937999999996,-1
853,854,1583935491375,0.7672,-2.0934,-2.9933,-1.2880709,7.3719482,-3.8821695,-1
854,855,1583935491386,0.6443,-2.2638,-2.7854997999999997,-1.3249129,7.206892,-3.5375576,-1
855,856,1583935491396,0.68369997,-2.4394,-2.3662,-1.2233317,7.027547,-2.7247167,-1
856,857,1583935491406,0.7851,-2.5714,-1.6557,-1.0284916,6.882094400000001,-1.8785769,-1
857,858,1583935491416,1.0179,-2.747,-0.894,-0.66776204,6.7076716,-1.1738771000000001,-1
858,859,1583935491426,1.3650999,-2.9157,-0.3182,-0.30032867,6.4834123,-0.5512889,-1
859,860,1583935491436,1.6845,-3.1736,0.235,0.0055066635999999995,6.212762000000001,0.11794795,-1
860,861,1583935491447,1.9409999999999998,-3.4805,0.7995,0.41752005,5.85502,0.59762144,-1
861,862,1583935491457,2.2845,-3.8551,1.1434,0.6046891,5.5165663,0.9189233,-1
862,863,1583935491467,2.4225,-4.3364997,1.5904,0.68761474,4.9473970000000005,1.6954108,-1
863,864,1583935491477,2.4541,-4.9147997000000005,2.3832,0.5511069000000001,4.3903913,2.6551218,-1
864,865,1583935491487,2.0539,-5.5218997000000005,3.5031,-0.08392155,3.7090589999999994,4.2836676,-1
865,866,1583935491498,1.5029,-6.0407,4.7071,-0.59825355,3.3794637,5.3936577,-1
866,867,1583935491508,0.95199996,-6.3445,5.7760997000000005,-0.81603014,3.2081918999999997,6.274426999999999,-1
867,868,1583935491518,0.7413,-6.5615,6.7723,-0.73931986,3.0792403,7.34023,-1
868,869,1583935491528,0.7909999999999999,-6.6229,7.6224,-0.61076087,3.0713778,8.222244,-1
869,870,1583935491538,0.8005,-6.6457996,8.3393,-0.46368027,3.166035,8.625974000000001,-1
870,871,1583935491548,0.85179996,-6.5604997,8.778299,-0.46318224,3.4642660000000003,8.854218,-1
871,872,1583935491558,0.7495,-6.2781,9.0766,-0.35144964,4.1357055,8.70094,-1
872,873,1583935491569,0.7461,-5.6219997,9.0054,0.15020263,5.069157,8.464183,-1
873,874,1583935491579,1.0984,-4.6903,8.8686,1.1756010000000001,6.257485400000001,8.169888,-1
874,875,1583935491589,1.9767,-3.5126998,8.6839,2.3983867,7.545710000000001,7.931071,-1
875,876,1583935491599,3.9622998,-1.0643,8.9237995,3.5296566,8.715247999999999,8.247411999999999,-1
876,877,1583935491609,4.7448997,0.0711,9.2374,4.5244093,9.86163,8.493201,-1
877,878,1583935491620,4.7448997,0.0711,9.2374,5.161506,10.964974,8.490902,-1
878,879,1583935491630,5.1647997000000005,1.1815,9.2999,5.557143,11.828937,8.241244,-1
879,880,1583935491640,5.4224,2.2577,8.996799000000001,5.917595400000001,12.8396635,7.4460440000000006,-1
880,881,1583935491650,5.5278997,4.218899700000001,7.4585,6.2060580000000005,13.965216,6.4979787,-1
881,882,1583935491660,5.3459997,5.161299700000001,6.9196,6.2585583,15.089571,5.873628,-1
882,883,1583935491671,4.9658,6.0487,6.4834,6.0500712,15.884982,5.451568,-1
883,884,1583935491681,4.2636,6.763499700000001,5.9479,5.586697,16.544815,4.892676,-1
884,885,1583935491691,3.7512,7.2668,5.053999999999999,5.393724400000001,16.909346,4.192544,-1
885,886,1583935491701,3.6919,7.7156,4.0731,5.6730514,17.373476,3.0782156,-1
886,887,1583935491711,4.2351,8.089499,3.214,6.5277624,17.757957,2.4387434,-1
887,888,1583935491721,4.7422,8.4949,3.0063,7.189002499999999,18.102923999999998,2.5623798,-1
888,889,1583935491731,4.6788,8.6732,3.2043,7.193675999999999,18.154877,2.7510717000000002,-1
889,890,1583935491741,4.3104997,8.533,3.0537,6.898337,17.89047,2.6733177,-1
890,891,1583935491751,3.5444998999999995,7.9926,2.2758,6.136108999999999,17.257473,1.837818,-1
891,892,1583935491761,2.6929998,7.3641996,1.0716,5.287939499999999,16.556068,0.44201753,-1
892,893,1583935491772,1.6097,6.5309,-0.67789996,4.152762399999999,15.578869000000001,-1.5164874,-1
893,894,1583935491782,0.4109,5.4072,-2.8801,3.074969,14.541307999999999,-3.4567676,-1
894,895,1583935491792,-0.45639998,4.3203,-4.6274,2.2453399,13.307289,-5.414267,-1
895,896,1583935491802,-0.7787,3.3913,-5.9995,2.1393821,12.612789,-6.415848,-1
896,897,1583935491812,-0.4637,2.7296,-6.8138,2.5692754,12.023145,-7.034203,-1
897,898,1583935491822,0.21509999,2.4234998,-6.9073997,3.1643493,11.784031,-7.017932000000001,-1
898,899,1583935491833,0.9824,2.1766,-6.6942997,4.2282660000000005,11.427916999999999,-6.4139230000000005,-1
899,900,1583935491843,0.9824,2.1766,-6.6942997,4.5826839999999995,11.098035000000001,-5.4834785,-1
900,901,1583935491853,1.5802,1.4885,-5.0903,4.4644585,10.630677,-4.591101999999999,-1
901,902,1583935491863,1.2409999,0.9332,-4.4233,4.01906,10.065856,-3.9856372,-1
902,903,1583935491873,0.7528,0.38149998,-4.0662,3.4710943999999997,9.513207000000001,-3.8025480000000003,-1
903,904,1583935491884,0.363,-0.10529999400000001,-4.165499700000001,3.1193001000000002,9.160694,-4.030035,-1
904,905,1583935491894,0.1237,-0.4269,-4.5132,2.8475676,8.870565,-4.5010033,-1
905,906,1583935491904,0.030399999,-0.6597,-4.9837,2.8463515999999998,8.706955,-5.008478599999999,-1
906,907,1583935491914,0.20619999,-0.77269995,-5.2942,2.9848513999999997,8.611158,-5.1569,-1
907,908,1583935491924,0.2489,-0.8540000000000001,-5.141,2.7950008,8.5638485,-4.8063407,-1
908,909,1583935491934,0.021,-0.9332,-4.6173997,2.458893,8.507719,-4.2160363,-1
909,910,1583935491944,-0.20449999,-0.94149995,-4.0441,2.356785,8.547358000000001,-3.8753888999999995,-1
910,911,1583935491954,-0.2539,-0.8487,-3.6618,2.4001968,8.712548,-3.5520853999999997,-1
911,912,1583935491964,-0.029299999,-0.61579996,-3.4501998,2.7755693999999997,8.975297,-3.4631839999999996,-1
912,913,1583935491974,0.3523,-0.41939998,-3.3906998999999995,3.1363277000000003,9.170328999999999,-3.3265135000000003,-1
913,914,1583935491984,0.6308,-0.2511,-3.1701,3.2464993,9.223882000000001,-2.9318724,-1
914,915,1583935491994,0.6141,-0.2394,-2.6806,3.1791744,9.174313,-2.3736403,-1
915,916,1583935492005,0.5596,-0.3164,-2.1153,3.1277852000000004,9.166603,-1.9391118000000003,-1
916,917,1583935492015,0.43919998,-0.3254,-1.5595,2.9280512,9.121822,-1.2453393,-1
917,918,1583935492025,0.2244,-0.39429998,-1.0093,2.6826167,8.991846,-0.8115576999999999,-1
918,919,1583935492035,-0.036199998,-0.5229,-0.66679996,2.516076,8.912282000000001,-0.6301539,-1
919,920,1583935492045,-0.040999997,-0.5438,-0.6296,2.5735946,8.933303,-0.78269327,-1
920,921,1583935492055,-0.0365,-0.5057,-0.743,2.5140936000000003,8.969617999999999,-0.85945135,-1
921,922,1583935492066,-0.120299995,-0.5067,-0.7665,2.3989422,8.91413,-0.8450190999999999,-1
922,923,1583935492076,-0.26369998,-0.5858,-0.6823,2.2604616,8.865413,-0.7600633000000001,-1
923,924,1583935492086,-0.2913,-0.5958,-0.6275,2.4600902000000002,8.91254,-0.9381344000000001,-1
924,925,1583935492096,-0.037000000000000005,-0.5265,-0.8576,2.566115,8.970039,-0.9687610000000001,-1
925,926,1583935492106,-0.0574,-0.47689998,-0.7176,2.3146183,8.998492,-0.7384772,-1
926,927,1583935492116,-0.312,-0.4766,-0.484,2.1053843,8.956259,-0.5802108,-1
927,928,1583935492127,-0.5284,-0.5054,-0.3302,2.0292776000000003,8.906487,-0.5627331999999999,-1
928,929,1583935492137,-0.5621,-0.5725,-0.31239998,1.9955863,8.804811,-0.6090753000000001,-1
929,930,1583935492147,-0.5908,-0.6774,-0.36319998,2.1305811,8.827,-0.7446255,-1
930,931,1583935492157,-0.41889998,-0.5945,-0.47469997,2.6302316,9.036876,-0.85156006,-1
931,932,1583935492167,0.0806,-0.38259998,-0.5707,2.9445329,9.216441,-0.8841787,-1
932,933,1583935492177,0.2841,-0.1998,-0.5473,2.9284632,9.263856,-0.6512324,-1
933,934,1583935492189,0.23339999,-0.1743,-0.27699998,2.7654848,9.194098,-0.21335210000000002,d
934,935,1583935492199,0.065799996,-0.2374,0.07809999599999999,2.5862646000000002,9.106194,0.024095245,-1
935,936,1583935492209,-0.14039999,-0.3272,0.2846,2.390055,8.985151,0.07370310000000001,-1
936,937,1583935492219,-0.35119998,-0.43089998,0.33159998,2.457734,8.90213,0.009911995,-1
937,938,1583935492229,0.39819998,-0.2746,-0.3834,3.2033749,9.133027,-0.6677045,-1
938,939,1583935492239,0.56009996,-0.0879,-0.5822,3.40195,9.301378,-0.86293733,-1
939,940,1583935492250,0.2368,-0.0401,-0.2678,3.112261,9.341849,-0.53993076,-1
940,941,1583935492260,-0.102699995,0.0066,0.1607,2.7917542,9.381592999999999,-0.10130346,-1
941,942,1583935492270,-0.17809999,0.102699995,0.3635,2.7463217,9.472534,0.1352724,-1
942,943,1583935492280,0.097899996,0.3073,0.3234,3.0548866,9.665919,0.10947248,-1
943,944,1583935492290,0.48279998,0.53139997,0.24839999,3.4586732000000002,9.888714,0.039264906,-1
944,945,1583935492300,0.6374,0.74439996,0.24769999,3.6315633999999997,10.09248,0.039896976,-1
945,946,1583935492310,0.50479996,0.8768,0.1946,3.47663,10.235441999999999,-0.07829997,-1
946,947,1583935492321,0.29099998,0.99729997,0.060399997999999996,3.2899682999999995,10.376547,-0.23535003,-1
947,948,1583935492331,0.141,1.2143999,-0.21589999,3.1253142000000005,10.594783,-0.5623597,-1
948,949,1583935492341,-0.035099998,1.5090000000000001,-0.56299996,2.9597123,10.928334,-0.9103713,-1
949,950,1583935492351,-0.064899996,2.029,-0.70519996,2.9646442000000004,11.364557000000001,-0.9936128000000001,-1
950,951,1583935492361,0.195,2.7265,-0.4818,3.2850745000000003,12.196485000000001,-0.65127075,-1
951,952,1583935492371,0.52849996,3.4445998999999996,0.0034999999,3.637051,12.948177000000001,-0.111272916,-1
952,953,1583935492382,0.7431,4.2022,0.6174,3.8103048999999998,13.674339000000002,0.6080601999999999,-1
953,954,1583935492392,0.8157,4.8602,1.3416,3.8914876000000005,14.301553,1.3769628999999999,-1
954,955,1583935492402,0.84029996,5.446399700000001,1.8474,3.9061496,14.90041,1.8432383999999997,-1
955,956,1583935492412,0.9773,5.9793,1.8815998999999999,4.0784364,15.495915,1.8036766,-1
956,957,1583935492422,1.1904,6.35,1.6245999,4.2901607,15.793543,1.4123588,-1
957,958,1583935492433,1.5210999,6.5284,1.0632,4.5454016,15.940021,0.8291695,-1
958,959,1583935492443,1.7942,6.5831,0.5717,4.640087599999999,15.980013,0.39178717,-1
959,960,1583935492453,1.7354,6.5245,0.3065,4.422119,15.9274645,0.25209028,-1
960,961,1583935492463,1.3630999,6.3928,0.4292,3.8105445,15.788726,0.37334222,-1
961,962,1583935492473,1.0649998999999999,6.2292,0.4111,3.4613739999999997,15.664907000000001,0.28903759999999995,-1
962,963,1583935492483,1.0024998999999999,6.0846995999999995,0.2653,3.3398057999999997,15.548376999999999,0.07454587,-1
963,964,1583935492493,1.0849,5.8819,0.0424,3.2823834,15.332161,-0.15768214,-1
964,965,1583935492503,1.1558,5.5327997,-0.0795,3.1730162999999996,15.054386,-0.22866543,-1
965,966,1583935492513,1.0304999,5.0671,-0.13669999,2.7987547000000004,14.507492999999998,-0.30058724,-1
966,967,1583935492523,1.0027,4.6226,-0.1836,2.6615189999999997,14.166155999999999,-0.46310565,-1
967,968,1583935492533,1.0401,4.3574,-0.4554,2.5224542999999997,13.944070000000002,-0.84574693,-1
968,969,1583935492543,1.1013,4.1249,-0.8498,2.361181,13.789069,-1.3205651000000003,-1
969,970,1583935492553,1.1077,3.9547,-1.3521999,2.162242,13.608058999999999,-1.9354151000000002,-1
970,971,1583935492563,1.0468998999999999,3.6903,-1.9381,1.8103707999999998,13.313657000000001,-2.502621,-1
971,972,1583935492573,0.70089996,3.2921998999999995,-2.2807999,1.1832336,12.899488999999999,-2.709537,-1
972,973,1583935492584,0.25259998,2.8289999999999997,-2.2744,0.60833794,12.384803,-2.5674558,-1
973,974,1583935492593,-0.0985,2.1732,-1.8906,0.035443763999999996,11.680908,-2.0467074,-1
974,975,1583935492603,-0.5933,1.4223,-1.1499,-0.67177474,10.918374,-1.128301,-1
975,976,1583935492613,-1.1774,0.71309996,-0.0289,-1.363632,10.221163,0.074497975,-1
976,977,1583935492623,-1.5234,-0.0628,1.0116,-0.7947983000000001,9.472132,0.8442337999999999,-1
977,978,1583935492633,0.2776,-0.2588,0.8666,1.5248479,9.551974000000001,-0.35268506,-1
978,979,1583935492644,2.5093,-0.3365,-0.7373,3.2028387,9.347031,-1.9539272,-1
979,980,1583935492654,3.6266,-0.61,-2.0648,3.3244542999999998,8.738415,-2.585671,-1
980,981,1583935492664,3.4096,-1.3144,-2.1886,2.5873182,8.137461,-1.7211150000000002,-1
981,982,1583935492674,2.7503998,-1.9096999,-0.8908,1.893986,7.541094,-0.19732052,-1
982,983,1583935492685,2.1218,-2.4931997999999997,0.5179,1.3995066999999999,7.183802,0.65509194,-1
983,984,1583935492695,1.3033999,-3.1627,1.7564,0.51886183,6.3399515,2.1725082000000002,-1
984,985,1583935492705,1.4382,-3.5554997999999998,2.2667,0.9409117,6.065691,1.9405292,-1
985,986,1583935492715,2.2114,-3.7698,1.5568,1.7921749,5.930868599999999,0.7199269,-1
986,987,1583935492726,3.0623,-3.9717,0.239,2.0285686999999997,5.559508999999999,-0.32315975,-1
987,988,1583935492736,3.1492,-4.2985997000000005,-0.3884,1.5169086,5.231972,-0.51037675,-1
988,989,1583935492746,2.6146998,-4.6080000000000005,-0.3408,0.7260273,4.886402599999999,-0.12063904,-1
989,990,1583935492756,1.905,-4.9231997000000005,0.1139,-0.6007531,4.514564,0.40552990000000005,-1
990,991,1583935492766,0.9528,-5.1756,0.57769996,-1.6717466,4.347400700000001,0.73102635,-1
991,992,1583935492776,0.0611,-5.3377,0.88299996,-2.649864,4.0760517,0.98715806,-1
992,993,1583935492786,-0.75949997,-5.5589,1.2063,-3.5172162000000005,3.988194,1.2551553999999998,-1
993,994,1583935492797,-1.4092,-5.5676,1.3419999999999999,-3.8004599000000003,3.912183,0.85494065,-1
994,995,1583935492807,-1.3837999,-5.6112,0.8332,-3.2638237,4.1396704,0.14821066,-1
995,996,1583935492817,-0.70449996,-5.3187,0.1581,-2.5377007000000003,4.374149,-0.41102698,-1
996,997,1583935492827,0.065299995,-5.0622,-0.36609998,-1.9752738,4.7802725,-0.9189808,-1
997,998,1583935492837,0.60069996,-4.6144,-0.8221,-1.4734875,5.1780167,-1.037034,-1
998,999,1583935492847,1.1159999,-4.2478,-0.85899997,-1.2073576000000001,5.531994999999999,-0.7004668000000001,-1
999,1000,1583935492858,1.3054999,-3.9015,-0.4558,-1.3455317,5.966839,0.28662422,-1
1000,1001,1583935492868,1.1854,-3.5147998,0.34329998,-1.7023348999999999,6.154831400000001,0.9623446,-1
1001,1002,1583935492878,0.85649997,-3.332,0.988,-2.125151,6.261421,1.1557865,-1
1002,1003,1583935492888,0.466,-3.2157998,1.1640999,-2.4355257000000003,6.2522660000000005,1.07786,-1
1003,1004,1583935492898,0.109799996,-3.1961,1.0328,-2.814882,6.3374805,0.80572546,-1
1004,1005,1583935492908,-0.2156,-3.0778,0.731,-2.95297,6.54592,0.046706084,-1
1005,1006,1583935492919,-0.2589,-2.9011,0.0786,-2.8784623,6.7835493,-0.8169112,-1
1006,1007,1583935492929,-0.1502,-2.6471,-0.73539996,-2.8371003,6.992592,-1.1134473999999999,-1
1007,1008,1583935492939,-0.27089998,-2.2999,-0.7326,-3.0402052000000004,7.1186895,-0.85935557,-1
1008,1009,1583935492949,-0.31579998,-2.0212998,-0.29479998,-3.0999165,7.3986387,-0.41475236,-1
1009,1010,1583935492959,-0.3391,-1.8234999,0.0764,-3.126923,7.5915729999999995,-0.03490746,-1
1010,1011,1583935492969,-0.23259999,-1.6474999,0.4341,-3.0245855,7.7688303,0.35907277,-1
1011,1012,1583935492980,-0.23259999,-1.6474999,0.4341,-2.797864,7.877441,0.5961658000000001,-1
1012,1013,1583935492990,0.12789999,-1.252,0.8032,-2.6404693,8.164228,0.75234437,-1
1013,1014,1583935493000,0.2209,-0.8935,0.8303,-2.53183,8.527285000000001,0.77978194,-1
1014,1015,1583935493010,0.4516,-0.6035,0.2393,-2.2214937000000003,8.86593,0.027887661,-1
1015,1016,1583935493020,0.6752,-0.4793,-0.47329998,-2.054771,8.945771,-0.5576479,-1
1016,1017,1583935493030,0.6752,-0.4793,-0.47329998,-2.0263183000000002,9.03928,-0.9220166999999999,-1
1017,1018,1583935493040,0.5355,-0.3454,-0.4917,-2.2407044999999997,9.115454,-0.4452353,-1
1018,1019,1583935493051,0.014699998999999998,-0.32619998,0.35169998,-2.8404331000000003,9.121621000000001,0.47427222,-1
1019,1020,1583935493061,-0.5349,-0.3362,1.1144,-3.2595716,9.130058,1.113342,-1
1020,1021,1583935493071,-0.4033,-0.1516,1.0315,-3.0166557000000003,9.317208,0.87203526,-1
1021,1022,1583935493082,0.017199999,0.0414,0.3913,-2.6119783,9.519423,0.17781258,-1
1022,1023,1583935493092,0.2122,0.16589999,-0.27109998,-2.4396245,9.675189,-0.5831509,-1
1023,1024,1583935493102,0.2926,0.252,-0.7381,-2.3605106,9.719816999999999,-0.9502395,-1
1024,1025,1583935493112,0.3178,0.29999998,-0.8585,-2.3460400000000003,9.770756,-0.96751606,-1
1025,1026,1583935493123,0.29729998,0.3487,-0.6649,-2.4213424,9.797628999999999,-0.6159419,-1
1026,1027,1583935493133,0.16219999,0.359,-0.23449999,-2.5538661,9.796441,-0.22424093,-1
1027,1028,1583935493143,-0.1171,0.23279999,0.29799998,-2.9416884999999997,9.606715,0.38670188,-1
1028,1029,1583935493153,-0.4739,0.0677,0.5841,-3.2877657,9.488164,0.65119416,-1
1029,1030,1583935493163,-0.69629997,0.0391,0.85279995,-3.380536,9.514213,0.8341495000000001,-1
1030,1031,1583935493173,-0.5913,0.1069,0.7734,-3.1392775,9.604942999999999,0.66356736,-1
1031,1032,1583935493183,-0.22829999,0.24139999,0.5143,-2.703341,9.741164,0.36962643,-1
1032,1033,1583935493194,0.2085,0.3453,0.16229999,-2.2600403,9.858145,-0.010266337,-1
1033,1034,1583935493204,0.2085,0.3453,0.16229999,-1.9448961999999999,10.00739,-0.28377035,-1
1034,1035,1583935493214,0.73109996,0.58309996,-0.2245,-1.9534099999999999,10.077923,-0.07588662,-1
1035,1036,1583935493224,0.61,0.61149997,0.1258,-2.1956651000000003,10.063395,0.33541809999999994,-1
1036,1037,1583935493234,0.28,0.583,0.445,-2.5596313,9.972732,0.44368386,-1
1037,1038,1583935493245,-0.0156,0.48729998,0.36479998,-2.7266798,9.847208,0.20552784,-1
1038,1039,1583935493255,-0.103599995,0.3626,0.1223,-2.7836905,9.839231,-0.003993528400000001,-1
1039,1040,1583935493265,-0.1231,0.4046,-0.0199,-2.734686,9.880516,-0.20352629,-1
1040,1041,1583935493275,0.0026999997999999996,0.4364,-0.2796,-2.509564,9.916534,-0.5026674,-1
1041,1042,1583935493285,0.2341,0.43809998,-0.5609,-2.3887907999999998,9.857349000000001,-0.67943615,-1
1042,1043,1583935493296,0.29729998,0.42949998,-0.6218,-2.330171,9.887938499999999,-0.61513746,-1
1043,1044,1583935493306,0.401,0.4213,-0.44689998,-2.2288294,9.863584,-0.22835897,-1
1044,1045,1583935493316,0.46339998,0.41239998,-0.13329999,-2.202139,9.804859,0.076614454,d
1045,1046,1583935493327,0.48959997,0.3457,0.1046,-2.2569182,9.741757000000002,0.24051194,-1
1046,1047,1583935493337,0.42,0.2893,0.22569999,-2.3740714,9.621597,0.27844566,-1
1047,1048,1583935493348,0.3137,0.14549999,0.2316,-2.5384092000000003,9.474536,0.25292346,-1
1048,1049,1583935493358,0.1511,0.0319,0.2015,-2.705314,9.425761999999999,0.18666154,-1
1049,1050,1583935493368,0.0188,-0.0127,0.095699996,-2.71988,9.345678999999999,-0.014049175,-1
1050,1051,1583935493378,0.0525,-0.07719999599999999,-0.0967,-2.7023544,9.390260000000001,-0.19506998,-1
1051,1052,1583935493389,0.0751,-0.0244,-0.27019998,-2.6782974999999998,9.38325,-0.16365805,-1
1052,1053,1583935493399,0.107099995,-0.030499997999999997,-0.23089999,-2.7246304,9.381047,0.102433525,-1
1053,1054,1583935493409,-0.0905,-0.0416,0.37829998,-2.9074228,9.364967,0.4925639,-1
1054,1055,1583935493419,-0.1731,-0.056399997,0.621,-3.003459,9.340978,0.74656,-1
1055,1056,1583935493429,-0.1581,-0.0616,0.6048,-3.0056903,9.329974,0.73046136,-1
1056,1057,1583935493440,-0.085099995,0.0112,0.5069,-2.930455,9.420092,0.60874015,-1
1057,1058,1583935493450,0.0359,0.083799995,0.2584,-2.8334324,9.474997,0.3824402,-1
1058,1059,1583935493460,0.20600000000000002,0.1269,-0.0543,-2.6739306000000003,9.51882,0.0636283,-1
1059,1060,1583935493470,0.30859998,0.1803,-0.31689999,-2.5886204,9.572009,-0.29062736,-1
1060,1061,1583935493480,0.3548,0.2148,-0.46449998,-2.58026,9.593106,-0.38388628,-1
1061,1062,1583935493491,0.14919999,0.17189999,-0.3233,-2.8342464,9.519442,-0.21634008,-1
1062,1063,1583935493501,-0.1626,0.0414,-0.079799995,-3.174271,9.387129,0.041860222999999995,-1
1063,1064,1583935493511,-0.35869998,-0.0013,0.1698,-3.3588927,9.343869999999999,0.29183406,-1
1064,1065,1583935493521,-0.32439998,0.023,0.2032,-3.275019,9.369335000000001,0.26838043,-1
1065,1066,1583935493531,-0.0117,0.0356,-0.036000000000000004,-2.9499917,9.379793,0.0028921957,-1
1066,1067,1583935493541,0.3266,0.0176,-0.2938,-2.6138172,9.35495,-0.24960989,-1
1067,1068,1583935493552,0.5664,-0.039699998,-0.4553,-2.4110663,9.280941,-0.3742999,-1
1068,1069,1583935493562,0.6128,-0.1648,-0.4739,-2.4119186000000004,9.139923,-0.34836593,-1
1069,1070,1583935493572,0.5064,-0.37669998,-0.3017,-2.6228290000000003,8.849380499999999,-0.058638785,-1
1070,1071,1583935493582,0.2667,-0.6656,0.0023999998999999998,-2.8910751,8.534514,0.31112173,-1
1071,1072,1583935493592,0.0389,-0.95379996,0.39159998,-3.0459032,8.31669,0.63487524,-1
1072,1073,1583935493602,-0.0418,-1.2027,0.7216,-3.1070227999999998,8.015606,1.0238085,-1
1073,1074,1583935493612,-0.0058999998,-1.5107,0.8872,-3.0793936,7.6921005000000005,1.1134665000000001,-1
1074,1075,1583935493623,0.107099995,-1.7995,0.9195,-2.9263945,7.382789,1.1868728000000002,-1
1075,1076,1583935493633,0.2783,-2.1180000000000003,0.99369997,-2.7800702999999998,7.034250999999999,1.2924571000000002,-1
1076,1077,1583935493643,0.4103,-2.5247,1.1189,-2.7002572999999996,6.675915700000001,1.4223665,-1
1077,1078,1583935493653,0.49409997,-3.0389999999999997,1.3623999,-2.6177533,6.0267040000000005,1.7832301,-1
1078,1079,1583935493663,0.57769996,-3.6318,1.7031,-2.5755098,5.40696,2.1108432,-1
1079,1080,1583935493673,0.62979996,-4.2153997,1.9448999,-2.5764002999999995,4.785415599999999,2.3638432000000003,-1
1080,1081,1583935493684,0.55979997,-4.8494997,2.2832,-2.5884001,4.1293945,2.8711936000000002,-1
1081,1082,1583935493694,0.6685,-5.3192997,2.7944,-2.3993732999999997,3.6871183,3.586265,-1
1082,1083,1583935493704,0.87479997,-5.7335997,3.5266,-2.1907520000000003,3.434693,4.176532,-1
1083,1084,1583935493714,1.1099,-5.9649,4.335099700000001,-1.8910459,3.1645217,5.269245,-1
1084,1085,1583935493725,1.2277,-6.2581997000000005,5.3113,-1.9058613000000002,2.895988,6.0171269999999994,-1
1085,1086,1583935493735,1.2473999,-6.5548997,5.8339,-1.7157997999999999,2.6068547000000004,6.334186,-1
1086,1087,1583935493745,1.4492999,-6.7879996,5.9193,-1.3926208999999998,2.4395382000000003,6.211402,-1
1087,1088,1583935493755,1.7227999,-6.8893,5.6064997000000005,-0.96349376,2.6635400000000002,5.6107635,-1
1088,1089,1583935493765,2.1255,-6.5448,4.9996,-0.39861542,3.1946409,5.2520266,-1
1089,1090,1583935493776,2.5809999,-5.8314,4.9035997,-0.014767436,4.3647733,5.498274299999999,-1
1090,1091,1583935493786,2.6552,-4.9132,5.2268,-0.020848708,5.0908775,5.8534690000000005,-1
1091,1092,1583935493796,2.4155998,-3.9739999999999998,5.7792,-0.5571691,6.0747027000000005,6.436408999999999,-1
1092,1093,1583935493806,1.8001,-3.3067,6.1417,-0.86173064,6.745711,5.9124235999999994,-1
1093,1094,1583935493816,1.4459,-2.6273,5.486000000000001,-1.0887585,7.5522222999999995,4.5778284000000005,-1
1094,1095,1583935493827,1.124,-1.8383,4.1022997000000005,-1.2188115,8.349979,2.4150312,-1
1095,1096,1583935493837,0.91859996,-1.0472,1.9074999,-1.383207,9.424114,-0.46683103,-1
1096,1097,1583935493847,0.6087,0.0694,-0.8086,-1.6109722,10.570113000000001,-2.9780421,-1
1097,1098,1583935493857,0.29819998,1.1679,-3.0411,-1.8296968,11.54464,-4.368652,-1
1098,1099,1583935493867,-0.0938,2.0995,-3.9810000000000003,-2.1679017999999997,12.453268,-4.447067,-1
1099,1100,1583935493879,-0.5586,2.9313,-3.8269,-2.3543717999999996,13.189685999999998,-4.087841,-1
1100,1101,1583935493889,-0.84129995,3.5063,-3.5049998999999996,-2.2118976000000004,13.692201,-3.7246308,-1
1101,1102,1583935493899,-0.4799,4.5092998,-3.0760999,-1.6510509999999998,14.235109,-3.673194,-1
1102,1103,1583935493909,-0.4799,4.5092998,-3.0760999,-1.1679683,14.457991,-3.9187336000000004,-1
1103,1104,1583935493919,0.2031,4.8958,-3.6639998,-0.6125229999999999,14.656267999999999,-4.271562599999999,-1
1104,1105,1583935493930,0.2031,4.8958,-3.6639998,-0.053802499999999996,14.711451,-4.7256083,-1
1105,1106,1583935493940,0.4831,4.9430000000000005,-4.0324,0.5216390999999999,14.756595,-5.0668489999999995,-1
1106,1107,1583935493950,1.7195,4.9024997,-5.1274,1.5428045,14.6379,-6.0165234000000005,-1
1107,1108,1583935493960,2.2245,4.6573997,-6.2757998,2.1546092,14.387035999999998,-7.2711334,-1
1108,1109,1583935493970,2.3869998,4.3262997,-7.1871996,2.3307743,14.047308,-8.127222999999999,-1
1109,1110,1583935493981,2.3046,3.9566998,-7.7931,2.330698,13.739806,-8.619394,-1
1110,1111,1583935493991,2.0609999,3.5867,-8.0522995,2.164732,13.36045,-8.902436,-1
1111,1112,1583935494001,1.7778,3.2154,-8.0371,1.8996553,12.915866000000001,-8.873178999999999,-1
1112,1113,1583935494011,1.5475,2.8232,-7.9034996,1.7826651000000002,12.597714,-8.752875999999999,-1
1113,1114,1583935494021,1.6021,2.4792,-7.6973,1.9697098000000002,12.186621,-8.465513,-1
1114,1115,1583935494032,1.8424,2.1053998,-7.5910997,2.2486439,11.803041,-8.348294000000001,-1
1115,1116,1583935494042,2.0347,1.6824,-7.5530996,2.5262084,11.396391,-8.244462,-1
1116,1117,1583935494052,2.3476999,1.3575,-7.4427,2.9184265,11.093342,-8.083706,-1
1117,1118,1583935494062,2.6076999,1.1408,-7.3141,3.2098007,10.824407,-7.815881,-1
1118,1119,1583935494072,2.623,0.8655,-7.0456,3.1580575,10.574106,-7.469411,-1
1119,1120,1583935494082,2.4154,0.56079996,-6.7107997,2.9033813,10.222408,-7.1198,-1
1120,1121,1583935494093,2.0821,0.2563,-6.5604,2.6173222000000003,9.947305,-6.980324,-1
1121,1122,1583935494103,1.865,0.0009999999,-6.5339,2.4320588,9.685839,-7.016427999999999,-1
1122,1123,1583935494113,1.6728,-0.254,-6.6036,2.2555966,9.456684,-7.0849886,-1
1123,1124,1583935494123,1.5219999999999998,-0.43039998,-6.7149997,2.205577,9.3160305,-7.1394234,-1
1124,1125,1583935494133,1.6436,-0.49879998,-6.5906997,2.3433201,9.284149000000001,-6.857386,-1
1125,1126,1583935494143,1.7005999,-0.5279,-6.062999700000001,2.3445267999999997,9.245334,-6.159927,-1
1126,1127,1583935494154,1.6222,-0.54719996,-5.2444,2.3107686000000003,9.290546,-5.2722425,-1
1127,1128,1583935494164,1.6913999,-0.3895,-4.3766,2.4936664,9.498076,-4.4035115,-1
1128,1129,1583935494174,1.8414999,-0.103599995,-3.5572998999999994,2.7404416,9.850846,-3.3647442,-1
1129,1130,1583935494184,2.0671,0.22219999,-2.6992,2.9401946,10.237923,-2.5104642000000004,-1
1130,1131,1583935494194,2.0874,0.6076,-1.9044,2.8554301,10.628991000000001,-1.7521533999999999,-1
1131,1132,1583935494205,2.0874,0.6076,-1.9044,2.729993,10.834069,-1.0942843,-1
1132,1133,1583935494215,1.7958,1.2027999,-0.2156,2.7845237000000003,11.060196000000001,-0.010994173999999999,-1
1133,1134,1583935494225,1.9449999,1.2853999,0.69519997,3.0032194,11.037854,0.81224734,-1
1134,1135,1583935494235,2.106,1.2314999,1.5223,3.2246735,11.016498,1.4527059,-1
1135,1136,1583935494245,2.4064999,1.3255,2.1265,3.5240254,11.243621000000001,1.8373678,-1
1136,1137,1583935494256,2.5939,1.6364,2.4810998,3.5844934,11.608469,1.9430766,-1
1137,1138,1583935494266,2.5089,1.9972999,2.5988998,3.3211792,11.946942,1.8413901000000001,-1
1138,1139,1583935494276,2.2245998,2.428,2.5807998,3.0907322999999995,12.541001,1.5441165000000001,-1
1139,1140,1583935494286,2.1031,2.9099,2.4545,3.0072036,12.926745,1.1581328000000002,-1
1140,1141,1583935494296,2.0636,3.2765,2.1625,2.8876752999999997,13.151188000000001,0.6542587,-1
1141,1142,1583935494307,1.9916999,3.5069999999999997,1.8542999,2.8697572,13.418648999999998,0.29723534,-1
1142,1143,1583935494317,2.0351,3.786,1.6499,2.9803405,13.631139000000001,0.2231779,-1
1143,1144,1583935494327,2.2245,4.0422,1.7901,3.13809,14.035366,0.82102925,-1
1144,1145,1583935494337,2.3495,4.4598,2.5407999,3.260759,14.513516000000001,1.8071433999999997,-1
1145,1146,1583935494347,2.5194,4.9596,3.5604,3.5058584,15.117660500000001,3.2229210999999998,-1
1146,1147,1583935494358,2.7201998,5.4544,4.7302,3.7977977,15.5209875,4.098058999999999,-1
1147,1148,1583935494368,3.0872,5.9066,5.7395,4.3570547,15.710904000000001,4.8405495,-1
1148,1149,1583935494378,3.6969998,6.0431,6.3057,4.9605559999999995,15.799748999999998,5.350131,-1
1149,1150,1583935494388,4.2903,6.1292995999999995,6.7678,5.3427185999999995,15.81149,6.039603700000001,-1
1150,1151,1583935494398,4.629699700000001,6.0965,7.4142,5.182451,15.733918,6.866446000000001,-1
1151,1152,1583935494409,4.5067,6.0044,8.0067,4.657096,15.572644,7.133514,-1
1152,1153,1583935494420,4.071000000000001,5.8343997000000005,8.2101,4.247946,15.556401999999999,6.9312806,-1
1153,1154,1583935494430,3.569,5.765,7.329,3.8896870000000003,15.518439,6.322014299999999,-1
1154,1155,1583935494440,3.3974998,5.6610000000000005,6.6612,3.3928422999999994,15.359492999999999,5.4134626,-1
1155,1156,1583935494450,2.9108,5.3743,5.678999999999999,2.6745532,15.021863,4.3661814,-1
1156,1157,1583935494460,2.4082,4.9447,4.5650997,2.068504,14.619454999999999,3.3900075,-1
1157,1158,1583935494471,1.8835,4.4701,3.4605,1.4681532,14.222420000000001,2.5021513,-1
1158,1159,1583935494480,1.3022,3.9993,2.4473,0.5640643,13.633982999999999,1.3200958,-1
1159,1160,1583935494490,0.8361,3.3939,1.5971999,0.019881452,13.135701000000001,0.67781764,-1
1160,1161,1583935494500,0.49269998,2.722,0.9259999999999999,-0.5374791,12.444533999999999,0.052672435,-1
1161,1162,1583935494510,0.0046,1.8554,0.62619996,-1.2089857,11.567366,-0.20568107,-1
1162,1163,1583935494520,-0.5329999999999999,0.8329,0.5701,-1.9256276999999997,10.522928,-0.17386693,-1
1163,1164,1583935494531,-0.9586,-0.1793,0.7313,-2.573489,9.310073,0.18403749,-1
1164,1165,1583935494541,-0.9235,-1.0644,0.9486,-2.5973257999999997,8.406761,0.5214954,-1
1165,1166,1583935494551,-0.4869,-1.8912,1.1594,-2.2387605,7.596361,0.80442303,-1
1166,1167,1583935494561,0.34489998,-2.4338,1.0439,-1.3271635,7.116736,0.7166133000000001,-1
1167,1168,1583935494571,1.4512,-2.9364998,0.5654,-0.46334505,6.535912000000001,0.39940074,-1
1168,1169,1583935494582,1.9133999,-3.5339,0.54649997,-0.21038328,5.9595795,0.634837,-1
1169,1170,1583935494591,2.0621998,-4.0478,0.95119995,-0.1811836,5.3927383,1.1739058,-1
1170,1171,1583935494601,2.0667,-4.6735,1.3671,-0.33841562,4.741793,1.7100058999999999,-1
1171,1172,1583935494611,1.9854,-5.1368,1.8429999,-0.5495651,4.260606299999999,2.2828042999999996,-1
1172,1173,1583935494621,1.9854,-5.1368,1.8429999,-0.7150426999999999,3.8677563999999998,2.5463482999999996,-1
1173,1174,1583935494632,1.7141,-6.0014997,1.9662,-1.170075,3.3030502999999998,2.3218872999999998,-1
1174,1175,1583935494642,1.4018999,-6.4926996,1.6185,-1.6835930000000001,2.7355,1.9207243999999999,-1
1175,1176,1583935494652,0.94519997,-7.0400996,0.96709996,-2.2781594,2.146287,1.1489198999999999,-1
1176,1177,1583935494662,0.7703,-7.5663,-0.074599996,-2.4773857999999995,1.5492784,-0.24674644,-1
1177,1178,1583935494672,1.0490999,-7.9156,-1.272,-2.279979,1.1250546000000001,-1.5406114,-1
1178,1179,1583935494682,1.194,-8.3229,-2.2266998,-2.5524584999999997,0.56846964,-2.2092638,-1
1179,1180,1583935494693,0.78599995,-8.983399,-2.3234,-3.2160354,-0.24434265,-2.121598,-1
1180,1181,1583935494703,0.1162,-9.8203,-1.9504,-3.9092717000000006,-0.9655431999999999,-1.7323965000000001,-1
1181,1182,1583935494713,-0.4797,-10.651199,-1.1553,-4.618281,-1.9714144,-0.7499501000000001,-1
1182,1183,1583935494723,-0.9026,-11.3139,-0.2566,-5.121331700000001,-2.668223,0.18688181,-1
1183,1184,1583935494734,-1.0997,-11.8516,0.5959,-5.21414,-3.124299,1.0382025,-1
1184,1185,1583935494744,-0.9,-12.1696,1.2530999,-4.918428,-3.3810437000000007,1.5781715,-1
1185,1186,1583935494754,-0.9,-12.1696,1.2530999,-4.2321153,-3.6132910000000003,1.7984765,-1
1186,1187,1583935494764,0.3651,-12.5074,1.6084,-3.1287236000000003,-3.5258355000000003,1.5846455,-1
1187,1188,1583935494774,1.2939999,-12.3889,1.4223,-2.3324409,-3.4641992999999993,1.618873,-1
1188,1189,1583935494785,1.9359,-12.318999,1.5919999999999999,-1.9875323,-3.3299706,1.7513106999999999,-1
1189,1190,1583935494795,2.0305,-12.2069,1.9505999,-1.8315643,-3.0533349999999997,2.3588538,-1
1190,1191,1583935494805,1.9717,-11.9726,2.454,-1.7293797999999998,-2.742711,2.697796,-1
1191,1192,1583935494815,2.065,-11.6737995,2.6304998,-1.1861354,-2.3351127999999997,2.2670312000000004,-1
1192,1193,1583935494825,2.6652,-11.2499,1.8526,-0.33476683,-1.6112882,0.8360457,-1
1193,1194,1583935494836,3.1675,-10.6691,0.6615,0.27175146,-0.79616785,-0.59498787,-1
1194,1195,1583935494846,3.5469999999999997,-9.9092,-0.5696,0.6324906,-0.014077906000000001,-1.6893581999999998,-1
1195,1196,1583935494856,3.6595,-9.1846,-1.4915,0.45659342,0.8032547,-2.1206593999999996,-1
1196,1197,1583935494866,3.1905,-8.4175,-1.6157999,-0.11048762,1.4127227,-1.8811721000000001,-1
1197,1198,1583935494876,2.2316,-7.7376,-1.0467,-0.96130073,2.2822583,-1.2539583,-1
1198,1199,1583935494886,1.4376999,-6.9616,-0.49749997,-1.1178048999999999,3.4102339999999995,-0.9256175999999999,-1
1199,1200,1583935494896,1.2267,-5.395,-0.14019999,-0.84601516,5.5443583,-1.3866929,-1
1200,1201,1583935494907,1.2319,-3.7124,-0.7657,-0.15421532,7.2492213,-2.6981599999999997,-1
1201,1202,1583935494917,1.6939,-1.9987999,-2.0088,0.8732037,9.175299,-3.5355557999999996,-1
1202,1203,1583935494927,2.4347,-0.114199996,-2.6794,1.7836802999999999,10.895121000000001,-3.7663379,-1
1203,1204,1583935494937,2.9257998,1.4921,-2.7395,2.4039316000000004,12.396832,-3.372003,-1
1204,1205,1583935494947,3.2335,2.9204,-2.3467999,3.7139623,14.22606,-2.7303092,-1
1205,1206,1583935494958,4.004699700000001,4.4563,-1.8579999,4.5642962,15.483389,-2.202541,-1
1206,1207,1583935494968,4.4967,5.6997,-1.4031,5.196537999999999,16.239458,-2.1312704,-1
1207,1208,1583935494978,4.9386997,6.6619,-1.4546,5.925994,17.303385000000002,-2.3139288,-1
1208,1209,1583935494988,5.2760997000000005,7.7555,-1.7895,6.7302446,18.339613,-2.4945188,-1
1209,1210,1583935494998,5.593,8.6073,-2.0214,7.8886266,19.050978,-1.8890538000000001,-1
1210,1211,1583935495008,6.4110000000000005,9.3536,-1.5445,8.921609,19.70542,-0.09347921,-1
1211,1212,1583935495018,7.1263,10.0515995,0.12719999,9.203561,19.921206,1.5448251,-1
1212,1213,1583935495028,7.0832,10.3352995,1.9786999,8.860289,19.763092,3.2207952,-1
1213,1214,1583935495039,6.3812,10.170199,3.4194998999999995,8.030372999999999,19.357304,4.3065752999999996,-1
1214,1215,1583935495049,4.6723,9.4667,3.5268,7.4352800000000006,18.892979999999998,3.7177162000000004,-1
1215,1216,1583935495059,3.9924,8.8345995,1.8966,6.8965364000000005,18.212097,2.042752,-1
1216,1217,1583935495069,3.438,8.2451,-0.1206,6.4725137,17.590239,-0.07223786,-1
1217,1218,1583935495080,2.8154,7.6317,-1.9172,5.872852,16.828229999999998,-2.2487779,-1
1218,1219,1583935495090,2.5291997999999998,7.212000000000001,-2.8434,5.7604203,16.486960999999997,-2.9716258,-1
1219,1220,1583935495100,2.5291997999999998,7.212000000000001,-2.8434,5.742990499999999,16.102482000000002,-2.9350805,-1
1220,1221,1583935495111,2.2388,6.3954,-2.1485999,5.5678787000000005,15.5028105,-2.2258797,-1
1221,1222,1583935495121,1.9066,5.8286,-1.4283999,5.2733345,14.871707999999998,-1.5219078000000001,-1
1222,1223,1583935495132,1.3843,5.1288,-0.8359,4.723664299999999,14.16675,-1.02581,-1
1223,1224,1583935495142,0.7122,4.3740997,-0.7495,3.9725839999999994,13.250145000000002,-1.0938437,-1
1224,1225,1583935495152,0.1417,3.6639998,-0.93789995,3.4908992999999997,12.574587,-1.389269,-1
1225,1226,1583935495162,-0.07719999599999999,3.1185,-1.1978999,3.4912057,12.116806,-1.7394450000000001,-1
1226,1227,1583935495172,0.070199996,2.7881,-1.4793,3.658637,11.84401,-1.9896581999999998,-1
1227,1228,1583935495184,0.29799998,2.5651999,-1.5281999,3.942168,11.670709,-2.0800346999999997,-1
1228,1229,1583935495192,0.57559997,2.3909,-1.4808999,4.1383777,11.413542999999999,-2.0748057,-1
1229,1230,1583935495202,0.57559997,2.3909,-1.4808999,4.0923038,11.116163,-2.2588142999999996,-1
1230,1231,1583935495212,0.5555,1.755,-1.7177999,4.020612,10.798635,-2.4209017999999998,-1
1231,1232,1583935495222,0.42389998,1.4991,-1.7795999,3.8534675000000003,10.5272665,-2.4457726,-1
1232,1233,1583935495233,0.2516,1.1935999,-1.7480999,3.7196220999999996,10.299482000000001,-2.3866937000000004,-1
1233,1234,1583935495243,0.1458,0.99579996,-1.4472,3.6149669,10.070950999999999,-1.9064358000000001,-1
1234,1235,1583935495253,0.0872,0.80759996,-0.9528,3.5265536,9.88631,-1.3611228000000002,-1
1235,1236,1583935495263,-0.059499998,0.6289,-0.45319998,3.3714767,9.701037,-0.8677832000000001,-1
1236,1237,1583935495273,-0.2147,0.3913,-0.028099999,3.2385123,9.449895,-0.49064854,-1
1237,1238,1583935495283,-0.1436,0.2227,0.18159999,3.4878826000000003,9.371058,-0.3459047,-1
1238,1239,1583935495294,0.2223,0.16239999,0.2375,3.7793527,9.280930999999999,-0.33723766,-1
1239,1240,1583935495304,0.3178,0.023,0.20789999,3.7868707,9.148283000000001,-0.36894646,-1
1240,1241,1583935495314,0.4188,-0.078499995,0.1795,3.9572227,9.084951,-0.49583918,-1
1241,1242,1583935495324,0.5834,-0.12239999,-0.0466,3.9356269999999998,9.027749,-0.77909243,-1
1242,1243,1583935495334,0.3507,-0.1778,-0.1644,3.4591712999999995,8.946489999999999,-0.74279624,-1
1243,1244,1583935495345,-0.134,-0.27359998,-0.011899999,3.0042539,8.817328,-0.63451135,-1
1244,1245,1583935495355,-0.4736,-0.408,0.0694,2.8648539,8.738539,-0.67604595,-1
1245,1246,1583935495365,-0.4953,-0.4912,-0.0169,2.879899,8.6507015,-0.8714703000000001,-1
1246,1247,1583935495375,-0.47509998,-0.5524,-0.19469999,2.8570487,8.6270075,-0.92485136,-1
1247,1248,1583935495385,-0.50049996,-0.6117,-0.1626,2.8812492,8.563025,-0.90978706,-1
1248,1249,1583935495395,-0.3753,-0.65929997,-0.1946,3.1873145,8.545978999999999,-1.0403476999999999,-1
1249,1250,1583935495406,-0.0296,-0.6367,-0.33769998,3.5606663,8.592119,-1.2138028,-1
1250,1251,1583935495416,0.2852,-0.5941,-0.5412,3.6849062000000004,8.590272,-1.3790506,-1
1251,1252,1583935495426,0.28919998,-0.6016,-0.6469,3.3167546000000003,8.5133505,-1.354649,-1
1252,1253,1583935495436,-0.1335,-0.68939996,-0.5574,2.8934502999999996,8.477782000000001,-1.1832815,-1
1253,1254,1583935495446,-0.53429997,-0.69979995,-0.38299999999999995,2.7147183,8.505104,-1.085713,-1
1254,1255,1583935495457,-0.6924,-0.6508,-0.30089998,2.7090582999999997,8.565763,-1.0650556999999998,-1
1255,1256,1583935495467,-0.6403,-0.6198,-0.3107,2.8222754,8.614989,-0.9762501,-1
1256,1257,1583935495477,-0.5356,-0.5672,-0.2086,2.982208,8.641938,-0.87462103,d
1257,1258,1583935495487,-0.4269,-0.5424,-0.15259999,3.0269315,8.652377,-0.8239693000000001,-1
1258,1259,1583935495497,-0.3714,-0.5261,-0.1314,3.2911272000000005,8.708852,-0.86338747,-1
1259,1260,1583935495507,-0.1222,-0.45979998,-0.2386,3.4655879,8.750012,-1.0078536,-1
1260,1261,1583935495518,0.0001,-0.4229,-0.3924,3.488553,8.812634,-1.0891893,-1
1261,1262,1583935495528,-0.011000000000000001,-0.3381,-0.4856,3.605486,8.923008,-1.1699888999999999,-1
1262,1263,1583935495538,0.089099996,-0.2251,-0.5988,3.5921931000000002,9.052294999999999,-1.0487658000000002,-1
1263,1264,1583935495548,0.064399995,-0.0936,-0.4989,3.3537595000000002,9.12819,-0.68814147,-1
1264,1265,1583935495558,-0.1938,-0.011899999,-0.1691,3.242812,9.289769999999999,-0.26173413,-1
1265,1266,1583935495568,-0.31689999,0.1585,0.21329999,3.4424502999999995,9.541564,-0.02060929,-1
1266,1267,1583935495579,-0.1413,0.4096,0.4147,3.7917163,9.765623,0.09644802,-1
1267,1268,1583935495589,0.2552,0.6920000000000001,0.5068,4.157407,10.064046000000001,0.44539812,-1
1268,1269,1583935495599,0.5237,0.9457,0.7678,4.433468,10.3808565,0.5845108,-1
1269,1270,1583935495609,1.0927,1.6848999,0.6854,4.7678227,10.786463000000001,0.42514318,-1
1270,1271,1583935495620,1.4168,2.1785,0.48189998,5.102839,11.276049,0.23693977,-1
1271,1272,1583935495630,1.4082999,2.717,0.5765,5.0906377,11.814581,0.34048423,-1
1272,1273,1583935495640,1.1264,3.2707,0.77989995,4.704013,12.51026,0.58817875,-1
1273,1274,1583935495650,0.75479996,3.8995,0.8958,4.3482437,13.134916,0.6780379,-1
1274,1275,1583935495660,0.6525,4.5561,0.8455,4.2719455,13.683121,0.6492595999999999,-1
1275,1276,1583935495670,0.7492,5.4568,0.7266,4.370596400000001,14.782682000000001,0.51426494,-1
1276,1277,1583935495680,1.1638,6.3854,0.52669996,4.8795557,15.740842,0.2903113,-1
1277,1278,1583935495691,2.1253,7.399399799999999,0.1637,5.854072,16.741943,-0.08344272,-1
1278,1279,1583935495701,3.2495,8.2213,-0.2665,6.8989210000000005,17.533516,-0.494259,-1
1279,1280,1583935495711,4.0084,8.6413,-0.5988,7.426402,17.891018,-0.7159238,-1
1280,1281,1583935495721,3.7756998999999998,8.6075,-0.5155,6.8578844,17.81857,-0.50509995,-1
1281,1282,1583935495731,2.5834,8.2483,-0.0488,5.683873,17.56353,-0.067085534,-1
1282,1283,1583935495742,0.8265,7.8132,0.63049996,3.399575,17.157051,0.80973816,-1
1283,1284,1583935495752,-0.2546,7.6714997,1.1231999,2.1963928,17.1014,1.2011996999999999,-1
1284,1285,1583935495762,-0.2546,7.6714997,1.1231999,2.1736097,17.222920000000002,0.87525314,-1
1285,1286,1583935495772,0.1525,7.6758,0.45839998,2.5639124,17.173504,0.36139995,-1
1286,1287,1583935495782,0.7721,7.3332,-0.035,3.117653,16.787682999999998,-0.04905240599999999,-1
1287,1288,1583935495793,1.8551999,6.9266996,-0.4477,3.9891996,16.36594,-0.48500782,-1
1288,1289,1583935495803,2.7702,6.3282,-0.84709996,4.5032926,15.753321,-0.7072472,-1
1289,1290,1583935495813,3.1611,5.6059,-0.80259997,4.443102,15.027122,-0.42265323,-1
1290,1291,1583935495823,3.1087,4.7999,-0.4015,4.007060500000001,14.216242999999999,0.053821657,-1
1291,1292,1583935495833,2.8755999,3.8922,0.076,3.3163621,13.113406,0.7861026,-1
1292,1293,1583935495844,2.5351999,2.9429998,0.6358,2.8261635,12.348794,1.1975318000000001,-1
1293,1294,1583935495854,2.2096999,2.0019,0.94949996,2.2200189,11.394331,1.4288309,-1
1294,1295,1583935495864,1.9533999,1.0202,0.9127,1.6847806,10.436594,1.2345270000000002,-1
1295,1296,1583935495874,1.5465,-0.0023,0.68079996,0.6213911,9.178075999999999,1.1316242,-1
1296,1297,1583935495884,0.8576,-0.9485,0.6921,-0.39677668,8.316193,1.1980106000000001,-1
1297,1298,1583935495894,0.1144,-1.8001,0.7216,-1.3325744,7.459278599999999,1.0717691,-1
1298,1299,1583935495904,-0.48439997,-2.5495,0.48709998,-1.9044534,6.9146557,0.7740263000000001,-1
1299,1300,1583935495914,-0.7295,-3.1597998,-0.0613,-1.9755228999999999,6.3077927,-0.118714094,-1
1300,1301,1583935495924,-0.17459999,-3.5059998,-0.9007,-1.2966708999999998,6.019253,-1.0879923,-1
1301,1302,1583935495934,0.7313,-3.7754998,-1.9332,-0.67273235,5.746151,-1.9595392,-1
1302,1303,1583935495944,1.3979,-4.0071,-2.4062,-0.15388013,5.558618,-2.0154006,-1
1303,1304,1583935495954,2.0485,-4.2193,-2.2115,0.16824535,5.1768193,-1.4837346000000002,-1
1304,1305,1583935495964,2.1504,-4.5779,-1.6119999999999999,-0.186968,4.782829799999999,-0.39804083,-1
1305,1306,1583935495974,1.7964,-4.8663,-0.5897,-0.68302745,4.543448000000001,0.6060299,-1
1306,1307,1583935495985,1.3591,-5.1442,0.38959998,-1.2392292,4.1806016,1.5911577,-1
1307,1308,1583935495995,0.8753,-5.4133,1.1257,-1.5782578,4.0464400000000005,2.0656695,-1
1308,1309,1583935496005,0.87119997,-5.4207997,1.5518,-1.3883401000000002,4.140791,2.2110262,-1
1309,1310,1583935496016,1.2584,-5.3346,1.2221999,-0.85454804,4.187823000000001,1.3717436,-1
1310,1311,1583935496026,1.7479,-5.2517,0.43949997,-0.57270265,4.2425632,0.6858814000000001,-1
1311,1312,1583935496036,2.1204998,-5.1891,-0.37449998,-0.17885645,4.324244,-0.22271821,-1
1312,1313,1583935496046,2.5072,-5.0958,-1.0263,-0.21782447,4.363883,-0.6053404,-1
1313,1314,1583935496056,2.4208,-5.0485997000000005,-1.2319,-0.79687655,4.3175025,-0.2611978,-1
1314,1315,1583935496066,1.8687999,-5.0727997,-0.7503,-1.7805581999999998,4.308404400000001,0.3958094,-1
1315,1316,1583935496077,0.9262,-5.0488,-0.126,-2.6280675,4.3348074,0.79496115,-1
1316,1317,1583935496087,0.2303,-4.966,0.19749999,-2.9244022000000003,4.564239,0.8350593000000001,-1
1317,1318,1583935496097,0.0822,-4.718899700000001,0.1758,-2.842827,4.8449926,0.51858413,-1
1318,1319,1583935496107,0.24499999,-4.3848,-0.1734,-2.4178085,5.3116803,0.09355582,-1
1319,1320,1583935496117,0.7434,-3.9187999,-0.58239996,-1.954406,5.68122,-0.25338316,-1
1320,1321,1583935496127,1.1716,-3.5837,-0.8307,-1.79568,5.922708999999999,-0.123416305,-1
1321,1322,1583935496138,1.2717,-3.3474998,-0.6178,-1.8588103,6.0992093,0.17398185,-1
1322,1323,1583935496148,1.165,-3.1699,-0.3637,-2.2230737,6.2756050000000005,0.64926916,-1
