,Seq,Time,ACCx,ACCy,ACCz,ADGx,ADGy,ADGz,Keydown
0,1,1583935300458,-0.6271,-0.5349,-0.2996,0.33127132,9.120614999999999,-0.24179521,-1
1,2,1583935300468,-0.4587,-0.5958,-0.5584,-2.274913,9.284082000000001,-1.0345346,-1
2,3,1583935300479,0.07809999599999999,-0.23539999,-0.2149,-2.128388,9.289819,-1.317261,-1
3,4,1583935300489,0.1545,-0.21859999,-0.38149998,-2.045855,9.300592,-1.5269643,-1
4,5,1583935300499,0.0821,-0.19909999,-0.56189996,-2.1324964,9.289819,-1.7151581999999999,-1
5,6,1583935300509,-0.042,-0.266,-0.55399996,-2.2465943999999998,9.261136,-1.6994331000000003,-1
6,7,1583935300519,0.0343,-0.1477,-0.419,-2.0770466,9.3776,-1.557342,-1
7,8,1583935300529,0.34129998,-0.042999998,-0.2296,-1.7575165000000001,9.493708999999999,-1.4020348999999999,-1
8,9,1583935300540,0.4725,0.0589,-0.046699997,-1.6198882,9.592532,-1.2453678999999998,-1
9,10,1583935300550,0.4364,0.1112,0.003,-1.673298,9.640884,-1.1922358,-1
10,11,1583935300560,0.1004,0.0231,0.0064,-1.7509563000000001,9.564999,-1.1769034,-1
11,12,1583935300570,-0.1107,-0.0095,0.031,-2.0106506,9.578042,-1.0918326,-1
12,13,1583935300580,-0.24319999,-0.0246,0.047199998,-2.1151526,9.546018,-1.0799861000000002,-1
13,14,1583935300590,-0.2672,-0.0725,0.024999999,-2.2178447,9.490041,-1.0578636000000001,-1
14,15,1583935300601,-0.2548,-0.0442,0.079399996,-2.1938071,9.53624,-0.93026227,-1
15,16,1583935300611,-0.1151,-0.0202,0.14649999,-2.1582577,9.518332000000001,-0.8438603000000001,-1
16,17,1583935300621,-0.19,-0.0368,0.1566,-2.3480127,9.515037,-0.81733257,-1
17,18,1583935300631,-0.3507,-0.0128,0.1235,-2.4732966,9.549944,-0.8331726,-1
18,19,1583935300641,-0.37579998,0.058799997,0.0614,-2.482222,9.656075,-0.8715948,-1
19,20,1583935300651,-0.31149998,0.1978,0.023799999,-2.4309863999999997,9.779308,-0.8804725,-1
20,21,1583935300662,-0.29009998,0.23799999,0.0651,-2.482931,9.792255,-0.7897418,-1
21,22,1583935300672,-0.3103,0.2776,0.106,-2.4157495,9.84918,-0.690574,-1
22,23,1583935300682,-0.17799999,0.3455,0.3208,-2.2965183,9.958337,-0.4459344,-1
23,24,1583935300692,-0.0896,0.48099998,0.3879,-2.2330143,10.084138000000001,-0.483782,-1
24,25,1583935300702,-0.0459,0.6153,0.3082,-2.174232,10.171431,-0.5082507,-1
25,26,1583935300712,-0.0009,0.6228,0.3493,-2.1994667000000003,10.154527999999999,-0.361716,-1
26,27,1583935300723,-0.1245,0.6001,0.4269,-2.3577332,10.131419000000001,-0.2983367,-1
27,28,1583935300733,-0.1311,0.6166,0.51379997,-2.0793355,10.221402000000001,-0.1377432,-1
28,29,1583935300743,0.1732,0.6913,0.6584,-1.8205509999999998,10.270186,0.0038881834999999997,-1
29,30,1583935300753,0.3206,0.7071,0.72389996,-1.8561096000000001,10.231342,0.059443243,-1
30,31,1583935300763,0.23619999,0.6257,0.7204,-1.9243731,10.157199,0.05295016599999999,-1
31,32,1583935300773,0.0971,0.5845,0.6969,-2.0744417,10.10083,0.0744884,-1
32,33,1583935300784,0.030299998999999998,0.50479996,0.731,-2.1513627,10.037489,0.2153728,-1
33,34,1583935300794,-0.042999998,0.44529998,0.8703,-2.1447737,9.945159,0.43177032,-1
34,35,1583935300804,-0.015999998999999997,0.3372,0.9964,-2.1939217999999996,9.783111,0.502428,-1
35,36,1583935300814,-0.1326,0.0925,1.0605999,-2.4136138,9.485061,0.6377291,-1
36,37,1583935300824,-0.3042,-0.2003,1.1989,-2.4706342,9.199653999999999,0.8821962999999999,-1
37,38,1583935300834,-0.239,-0.44399998,1.4296,-2.2710633,8.940083,1.22156,-1
38,39,1583935300844,-0.0656,-0.6681,1.6636,-2.263325,8.734154,1.3586041000000002,-1
39,40,1583935300855,-0.0859,-0.9307,1.685,-2.3586237,8.283114,1.1830325000000002,-1
40,41,1583935300865,-0.1398,-1.3880999,1.4031,-2.4161136,7.586957000000001,1.1535263999999998,-1
41,42,1583935300875,-0.14379999,-2.1469998,1.3665,-2.3921523,6.5664525,1.4315985,-1
42,43,1583935300885,-0.0872,-3.2062,1.5928999,-2.430335,5.363375700000001,2.1552222000000003,-1
43,44,1583935300895,-0.0911,-4.404,2.363,-2.481504,4.377597,3.127498,-1
44,45,1583935300905,-0.1227,-5.678999999999999,3.5858998,-2.6851068,2.814135,5.0329185,-1
45,46,1583935300916,-0.319,-6.9521,5.126,-3.0883765,1.438197,6.8987484,-1
46,47,1583935300926,-0.62299997,-8.0568,6.5736,-3.4479665999999995,0.65816605,7.9221454,-1
47,48,1583935300936,-0.9993,-8.9753,7.6692,-3.6236242999999995,0.10539276,8.3597,-1
48,49,1583935300946,-1.0922999,-9.4653,7.8504,-3.3453032999999994,-0.30756873,7.948510000000001,-1
49,50,1583935300957,-0.7215,-9.804399499999999,7.225,-2.5411482000000003,-0.37874356,6.2903724,-1
50,51,1583935300966,-0.016999999,-9.8369,5.7453,-1.8510147000000001,-0.19971472,4.8096065999999995,-1
51,52,1583935300976,0.8379,-9.5845995,3.9903998,-0.6530233,0.5252496,2.9241822,-1
52,53,1583935300986,1.7743,-8.984,2.4984999,-0.17289010000000002,1.0624031,1.9405483000000001,-1
53,54,1583935300998,2.1887999,-7.8066998,0.54399997,-0.11230721,1.7406805,0.8139424,-1
54,55,1583935301008,2.2317,-7.0513997,-0.1812,0.02992752,2.5143716,-0.0011875241,-1
55,56,1583935301018,2.1329,-6.5214,-0.7992,0.017621325,3.0552217999999995,-0.7049295999999999,-1
56,57,1583935301028,2.1329,-6.5214,-0.7992,-0.2569553,3.4014040999999997,-1.5722818,-1
57,58,1583935301038,1.8777,-5.8631997,-2.6144,0.017381905,3.8112817000000003,-2.9000964,-1
58,59,1583935301048,1.8777,-5.8631997,-2.6144,0.43635765,4.0091677,-3.7914577000000005,-1
59,60,1583935301058,2.8906999,-5.0902,-4.4761,1.1626436000000002,4.5718144999999994,-4.6813154,-1
60,61,1583935301068,3.8334,-4.4537997,-5.3856,2.2376112999999997,5.220471,-5.6364775,-1
61,62,1583935301078,3.8334,-4.4537997,-5.3856,2.9392177999999998,5.7995033,-6.584744000000001,-1
62,63,1583935301089,4.613,-3.5307998999999994,-6.9673996,3.3042949999999998,6.2143903,-7.402546000000001,-1
63,64,1583935301099,4.5834,-3.3809,-7.5645,3.3514035000000004,6.392681,-7.968650299999999,-1
64,65,1583935301109,4.2392,-3.23,-7.555299799999999,3.107597,6.515178,-7.706399,-1
65,66,1583935301119,3.8792998999999995,-3.2258,-6.6299996,2.906082,6.577437,-6.635942,-1
66,67,1583935301129,3.633,-3.0247998,-5.589699700000001,2.8411703,6.779689299999999,-5.62057,-1
67,68,1583935301140,3.3489999999999998,-3.0088,-5.3076,2.6549973,6.766857000000001,-5.4274926,-1
68,69,1583935301150,3.1148999,-3.0391,-6.0069,2.864519,6.963334599999999,-6.5330105000000005,-1
69,70,1583935301160,3.4476,-2.5462,-7.4231997000000005,3.3385801,7.3592587,-7.641487,-1
70,71,1583935301170,3.7329998,-1.9210999,-8.5166,3.7196029999999998,8.28524,-8.594169,-1
71,72,1583935301180,3.7329998,-1.9210999,-8.5166,3.458252,9.256528999999999,-8.563169,-1
72,73,1583935301191,2.764,-0.0844,-8.7914,3.11342,9.967578999999999,-8.553678,-1
73,74,1583935301201,2.764,-0.0844,-8.7914,3.4775589,10.633052000000001,-8.597215,-1
74,75,1583935301211,3.208,1.35,-9.0743,4.5389566,11.290279,-8.783856,-1
75,76,1583935301221,4.8255,2.28,-9.5515995,7.355237,12.600980999999999,-9.485281,-1
76,77,1583935301231,6.5894,3.5186,-10.038,8.944536,13.849557,-9.520141,-1
77,78,1583935301242,7.8458,5.2331,-9.8961,10.0258255,15.476033,-9.116775500000001,-1
78,79,1583935301252,7.6635,6.8122997000000005,-9.4319,9.752943,16.880281,-8.261279,-1
79,80,1583935301262,7.6635,6.8122997000000005,-9.4319,9.51769,18.298893,-6.475118599999999,-1
80,81,1583935301272,6.8187,9.7388,-6.4212,9.924215,19.621489,-4.9347754,-1
81,82,1583935301282,7.4449,11.0924,-5.352999700000001,11.477133,20.927305,-3.9408943999999995,-1
82,83,1583935301293,8.6635,12.116199499999999,-4.802,12.501161999999999,21.58229,-3.3980713,-1
83,84,1583935301303,9.1425,12.999599,-4.0566998,12.299617,22.425806,-2.4200974,-1
84,85,1583935301313,7.7962,13.6945,-3.2865998999999997,10.441047,22.926397,-1.6245903,-1
85,86,1583935301323,5.8815,14.1772995,-2.6183,8.960396000000001,23.344194,-1.0259633,-1
86,87,1583935301334,4.5315,14.717099,-1.8872,8.601907,23.855854,-0.084946275,-1
87,88,1583935301344,4.4,15.1643,-0.81589997,8.68806,23.821072,1.4467107,-1
88,89,1583935301354,4.3981,15.012198999999999,0.59639996,9.641767,23.35718,3.1123855,-1
89,90,1583935301364,5.5867996,14.624,2.1917,11.984741,22.98649,4.745959,-1
90,91,1583935301374,7.9526997,14.288799,3.8046,13.811824,22.686277,6.055271599999999,-1
91,92,1583935301385,9.8966,13.886,5.3329,14.855858999999999,21.772459,7.792542500000001,-1
92,93,1583935301394,10.251699,12.9709,6.642299700000001,14.313381,20.84299,8.718572,-1
93,94,1583935301404,9.3852,11.687699,7.7794,13.016863,19.32118,10.218596,-1
94,95,1583935301414,8.5111,10.3671,9.032499000000001,12.127676,18.010891,11.433597,-1
95,96,1583935301424,7.8041,8.9494,10.1538,11.446688,16.832895,11.923508,-1
96,97,1583935301434,7.121299700000001,7.3522,10.6008,10.125147,14.938851000000001,12.256828,-1
97,98,1583935301445,6.1443,5.6284,10.8681,8.497271000000001,13.311233999999999,12.381537,-1
98,99,1583935301455,4.651799700000001,3.9099,10.969000000000001,6.298436,11.738014,12.309663,-1
99,100,1583935301465,2.733,2.2517,10.94,4.754923000000001,10.57835,11.799775,-1
100,101,1583935301475,1.6962,1.1017,10.366899499999999,4.4625330000000005,9.773055000000001,10.412249000000001,-1
101,102,1583935301485,1.8427999,0.38549998,9.246099000000001,4.716481,9.46087,9.336247,-1
102,103,1583935301495,2.4078999,-0.0928,7.9781,4.874221299999999,9.051548,7.969081,-1
103,104,1583935301505,2.7214,-0.5901,6.7089996,4.541197299999999,8.587542,6.814549400000001,-1
104,105,1583935301515,2.5528998,-1.0976,5.6566,3.683393,8.017176,5.948193,-1
105,106,1583935301526,1.8233,-1.7233,4.9142,2.5930927,7.5367937000000005,5.5237393,-1
106,107,1583935301536,0.9887,-2.2314,4.5592,1.7360643,7.098644999999999,5.256585,-1
107,108,1583935301546,0.5506,-2.6023998,4.3297,1.5384853,6.8388743000000005,5.1405044,-1
108,109,1583935301556,0.5545,-2.8765,4.1798997,1.8485631,6.696600999999999,5.381361,-1
109,110,1583935301566,1.1939,-3.0546,4.4351,2.865965,6.630980999999999,5.584897,-1
110,111,1583935301578,3.5402,-3.054,4.416,4.027986,6.68487,5.532177,-1
111,112,1583935301588,3.5402,-3.054,4.416,4.9762335,6.687283,5.0510855,-1
112,113,1583935301598,4.7346997,-3.2059999,3.5802,4.883405000000001,6.5452876,4.7447715,-1
113,114,1583935301608,4.4318,-3.57,3.3481998,4.1964707,6.06911,4.4715548,-1
114,115,1583935301619,3.5252,-4.2545,3.2119,2.9651709,5.3458120000000005,4.3464055,-1
115,116,1583935301629,2.2508,-4.9737,3.3950998999999995,1.3903033999999999,4.615111,4.543956,-1
116,117,1583935301639,1.0062,-5.6096997,3.5742998,-0.05785349,4.0068209999999995,4.611232299999999,-1
117,118,1583935301649,-0.1549,-6.0759,3.3888998,-1.4561151,3.5325682,4.2676834999999995,-1
118,119,1583935301659,-1.3719999999999999,-6.5116,2.9073,-2.9023373,3.119549,3.6899339999999996,-1
119,120,1583935301669,-1.9793999,-6.7036,2.2431997999999997,-3.1703446,3.0624905,2.7538395,-1
120,121,1583935301680,0.1319,-6.0073,0.519,-0.9217101999999999,3.808332,0.77757925,-1
121,122,1583935301690,2.0252,-5.4505,-1.4563999,0.6042006999999999,4.2889733,-1.2076927,-1
122,123,1583935301700,2.2354,-5.388999999999999,-2.2654998,0.31561324,4.1916246,-1.7431511999999998,-1
123,124,1583935301710,1.3749,-5.5639997,-1.7154,-0.87994576,4.007147,-0.7199269,-1
124,125,1583935301721,0.3847,-5.6264997,-0.2366,-1.8369944,4.0377540000000005,0.7818505,-1
125,126,1583935301731,-0.24319999,-5.4549,1.0465,-2.4354012000000003,4.2296543,1.7347237000000002,-1
126,127,1583935301741,-0.6881,-5.2567997,1.4865999,-2.9119432,4.3609233,1.8329912,-1
127,128,1583935301751,-1.1363,-5.2383,1.3276,-3.3081067,4.3739767,1.4675595,-1
128,129,1583935301762,-1.0501,-5.075999700000001,0.8257,-2.8033132999999997,4.7137427,0.31049925,-1
129,130,1583935301772,-0.4497,-4.7887,-0.4436,-2.3605106,4.886297,-1.0739623,-1
130,131,1583935301782,0.0931,-4.4821,-2.0493,-1.6870694,5.315884,-3.21027,-1
131,132,1583935301792,0.7529,-4.035599700000001,-3.6346,-1.1359339,5.8366995,-4.7496843,-1
132,133,1583935301802,0.9799,-3.5693998,-4.8115997,-1.4923155000000001,6.210042,-5.2470846,-1
133,134,1583935301813,0.35689998,-3.2171,-4.6496997,-2.4219169999999997,6.431649,-4.592385299999999,-1
134,135,1583935301823,-0.5427,-3.0989999999999998,-3.7247,-3.2182286,6.5050845,-3.6701102,-1
135,136,1583935301833,-1.2464,-3.0010998,-2.8785,-3.8668275000000003,6.5967727,-2.9020118999999998,-1
136,137,1583935301843,-1.6333,-2.8953,-2.2473,-3.9464870000000003,6.7885865999999995,-2.5134043999999998,-1
137,138,1583935301853,-1.6498,-2.7041,-1.8736999,-3.9072988,6.979261,-2.3993634999999998,-1
138,139,1583935301863,-1.4928,-2.4176,-1.8412,-3.3920187999999993,7.290190700000001,-2.7623724999999997,-1
139,140,1583935301873,-0.6913,-2.026,-2.4031,-2.2068217,7.873562,-3.5231445,-1
140,141,1583935301883,0.43609998,-1.4791,-3.0744,-1.5854021,8.199786,-4.0512195,-1
141,142,1583935301893,0.61689997,-1.275,-3.3936,-1.9083033,8.317860000000001,-3.9019072,-1
142,143,1583935301903,0.23869999,-1.2070999,-3.0814998,-2.2369792,8.331621,-3.4468174,-1
143,144,1583935301914,-0.1129,-1.1876,-2.4206,-2.5338411,8.456224,-2.5951998,-1
144,145,1583935301924,-0.3532,-1.0109999,-1.5133,-2.675664,8.576586,-1.6367433,-1
145,146,1583935301934,-0.4362,-0.9422,-0.84209996,-2.7147183,8.683598,-1.2325636999999998,-1
146,147,1583935301944,-0.442,-0.84389997,-0.5383,-2.5864754,8.741355,-1.3052614,-1
147,148,1583935301954,-0.2546,-0.7554,-0.7057,-2.1815773999999997,8.912435,-1.7746493000000003,-1
148,149,1583935301965,0.29189998,-0.5103,-1.4037,-1.6799635,9.271623,-2.4703948,-1
149,150,1583935301974,0.6326,-0.1866,-1.8053,-1.5117085,9.433634,-2.4616990000000003,-1
150,151,1583935301984,0.7127,-0.0976,-1.7133,-1.7444727,9.439169,-2.0239143,-1
151,152,1583935301994,0.45569998,-0.1257,-1.2096,-2.153182,9.298724,-1.408844,-1
152,153,1583935302004,0.025999999,-0.2514,-0.6161,-2.5052161,9.180327,-1.0283,-1
153,154,1583935302014,-0.3755,-0.3778,-0.2137,-2.8205802,9.127597,-0.6547470999999999,-1
154,155,1583935302024,-0.5378,-0.4271,0.070099995,-2.6668248,9.15809,-0.5101182,-1
155,156,1583935302035,-0.30769998,-0.34129998,0.1112,-2.18265,9.347489999999999,-0.55143255,-1
156,157,1583935302045,0.1875,-0.1397,0.058599997,-1.6972208,9.581317,-0.62359375,-1
157,158,1583935302055,0.62909997,0.0806,-0.058399998,-1.4009433,9.6852455,-0.8544427,-1
158,159,1583935302065,0.96349996,0.1838,-0.3689,-1.0328395000000001,9.812205,-1.1136965,-1
159,160,1583935302075,1.2142,0.26839998,-0.55189997,-1.0065031999999998,9.789211,-1.0183306,-1
160,161,1583935302085,1.1387,0.22699999999999998,-0.3556,-1.3292511999999999,9.708181,-0.5780465,-1
161,162,1583935302096,0.78709996,0.1481,0.0726,-1.6464830000000001,9.6238,-0.2188013,-1
162,163,1583935302106,0.53929996,0.051,0.3651,-1.8057356,9.524498,-0.132294,-1
163,164,1583935302116,0.4217,-0.0254,0.41799998,-1.9316514999999999,9.498296,-0.19497421,-1
164,165,1583935302126,0.2565,-0.0424,0.35889998,-2.146421,9.511875999999999,-0.27254635,-1
165,166,1583935302137,0.0716,-0.0297,0.2259,-2.2702584,9.511924,-0.4878138,d
166,167,1583935302147,0.1664,0.1026,-0.1489,-2.0981922,9.640789,-0.7161249,-1
167,168,1583935302157,0.50299996,0.2411,-0.3266,-1.7643925999999999,9.771656,-0.9097488000000001,-1
168,169,1583935302167,0.50299996,0.2411,-0.3266,-1.6760944,9.850109,-1.0745274,-1
169,170,1583935302177,0.59459996,0.3109,-0.49699998,-1.7970686000000002,9.855856,-1.0132261999999999,-1
170,171,1583935302188,0.4824,0.32209998,-0.4265,-1.8509765,9.853826,-0.94580543,-1
171,172,1583935302198,0.4227,0.3242,-0.32029998,-1.9006321,9.837852,-0.7351061,-1
172,173,1583935302208,0.2929,0.2889,0.019,-2.0024528999999998,9.81775,-0.56471556,-1
173,174,1583935302218,0.2929,0.2889,0.019,-2.1534216,9.654245,-0.4032123,-1
174,175,1583935302228,-0.049999997000000004,-0.0077,0.3153,-2.4033477000000003,9.486134,-0.25426424,-1
175,176,1583935302238,0.0047999997999999995,-0.0427,0.2341,-2.3279111,9.475598,-0.4044477,-1
176,177,1583935302248,0.0195,-0.0482,-0.107999995,-2.345322,9.462767,-0.70028484,-1
177,178,1583935302258,-0.2113,-0.092999995,-0.2837,-2.6511378,9.40046,-0.8888425999999999,-1
178,179,1583935302268,-0.43449998,-0.0994,-0.12019999,-2.8282416,9.428261000000001,-0.6760268,-1
179,180,1583935302278,-0.3089,-0.0383,0.0892,-2.681094,9.483614999999999,-0.5162474,-1
180,181,1583935302288,-0.3089,-0.0383,0.0892,-2.5709226000000003,9.530436,-0.5139585,-1
181,182,1583935302298,-0.0733,0.0234,0.018000000000000002,-2.4873745,9.517325,-0.60981274,-1
182,183,1583935302308,-0.0376,0.005699999599999999,0.0423,-2.4471328,9.503553,-0.59036225,-1
183,184,1583935302318,-0.0376,0.005699999599999999,0.0423,-2.5030804,9.507194,-0.4163325,-1
184,185,1583935302328,-0.33249998,-0.0866,0.4376,-2.7588482000000005,9.407441,-0.20913829999999997,-1
185,186,1583935302338,-0.33249998,-0.0866,0.4376,-2.9260688,9.325281,-0.23735158,-1
186,187,1583935302348,-0.1299,-0.0117999995,0.1236,-2.4751928,9.513398,-0.61673677,-1
187,188,1583935302359,0.2938,0.2059,-0.19839999,-2.1617246,9.689411,-0.8940906999999999,-1
188,189,1583935302369,0.405,0.2376,-0.28689998,-2.0631795,9.718658,-0.9795924000000001,-1
189,190,1583935302379,0.2753,0.16219999,-0.13509999,-2.22067,9.599724,-0.8400583,-1
190,191,1583935302389,-0.1346,-0.0594,0.022799998999999998,-2.737061,9.388603,-0.68644637,-1
191,192,1583935302399,-0.5334,-0.1239,0.051999997,-2.9991589,9.340806,-0.7652251999999999,-1
192,193,1583935302410,-0.31939998,-0.062099997000000004,-0.12419999400000001,-2.7449522,9.434983,-0.9221123999999999,-1
193,194,1583935302420,0.065799996,0.0079,-0.2627,-2.4324708,9.473692999999999,-1.0304549,-1
194,195,1583935302430,0.2529,-0.0111,-0.2681,-2.2269810000000003,9.463973,-1.0043005999999999,-1
195,196,1583935302440,0.2932,-0.0109,-0.18079999,-2.2361459999999997,9.4460745,-0.9013211999999999,-1
196,197,1583935302450,0.1486,-0.118499994,0.0199,-2.4377188999999997,9.323165,-0.67243546,-1
197,198,1583935302460,-0.2094,-0.1865,0.41399997,-2.7701392000000005,9.253417,-0.1946869,-1
198,199,1583935302471,-0.2541,-0.1663,0.653,-2.7292943,9.315054,-0.11100477,-1
199,200,1583935302481,-0.0556,-0.0676,0.4764,-2.460253,9.424813,-0.42870575,-1
200,201,1583935302491,0.15259999,-0.0075999996999999994,0.0901,-2.3639295,9.435089,-0.7896076999999999,-1
201,202,1583935302502,0.1091,-0.0742,-0.117599994,-2.4915307,9.346675999999999,-0.90839845,-1
202,203,1583935302512,-0.048299998,-0.1301,-0.141,-2.5922883,9.312689,-0.91766876,-1
203,204,1583935302522,-0.047599997000000005,-0.127,-0.1278,-2.6207314,9.372074000000001,-0.8461396000000001,-1
204,205,1583935302532,-0.1153,-0.0554,-0.048899997,-2.7095754000000003,9.387435,-0.8475091,-1
205,206,1583935302542,-0.18339999,-0.052699998,-0.1188,-2.7607060000000003,9.391648,-0.9401072,-1
206,207,1583935302553,-0.1938,-0.0603,-0.2294,-2.7848206,9.355037,-1.049618,-1
207,208,1583935302563,-0.29389998,-0.10759999599999999,-0.3125,-3.0170965,9.268644,-1.0788081,-1
208,209,1583935302573,-0.5327,-0.2144,-0.2715,-3.2084506,9.162227,-0.8769865,-1
209,210,1583935302583,-0.6368,-0.32209998,-0.057499997000000004,-3.1375055,9.103731,-0.69341826,-1
210,211,1583935302593,-0.49019998,-0.3232,0.1156,-2.9587831,9.181706,-0.50271535,-1
211,212,1583935302604,-0.26909998,-0.247,0.3085,-2.660102,9.287003,-0.28262115,-1
212,213,1583935302614,0.057999999999999996,-0.11229999,0.46379998,-2.395437,9.376709,-0.21561223,-1
213,214,1583935302624,0.23959999,-0.0552,0.4569,-2.2763975,9.419191,-0.34484166,-1
214,215,1583935302634,0.3078,-0.025999999,0.3475,-2.224673,9.464989,-0.45453438,-1
215,216,1583935302644,0.3223,0.0047999997999999995,0.19409999,-2.4176745,9.397817,-0.78926295,-1
216,217,1583935302655,0.1264,-0.08,-0.1314,-2.6769187000000003,9.324458,-0.991822,-1
217,218,1583935302665,-0.105399996,-0.1149,-0.27899998,-2.6780775,9.34747,-0.91649085,-1
218,219,1583935302675,-0.042999998,-0.051799998,-0.14299999,-2.6075057999999998,9.447280000000001,-0.6634237,-1
219,220,1583935302685,0.0187,0.0111,0.0699,-2.6828467999999996,9.462106,-0.5331121,-1
220,221,1583935302696,-0.067099996,0.0346,0.2332,-2.8219112999999996,9.468761,-0.49555188,-1
221,222,1583935302706,-0.1717,0.0389,0.2611,-2.7645752,9.451245,-0.63889754,-1
222,223,1583935302716,-0.106199995,0.021599998999999998,0.120299995,-2.6462247000000003,9.521979,-0.79706806,-1
223,224,1583935302726,0.0167,0.10229999599999999,-0.0381,-2.5755386000000002,9.566378,-0.92635494,-1
224,225,1583935302736,0.0986,0.14299999,-0.14899999,-2.596914,9.602157,-0.9580542,-1
225,226,1583935302746,0.0718,0.18329999,-0.18419999,-2.6274257000000003,9.628502000000001,-0.9767959999999999,-1
226,227,1583935302756,0.0536,0.23279999,-0.19319999,-2.6745433999999997,9.689103999999999,-0.89517283,-1
227,228,1583935302767,-0.0916,0.2719,0.1329,-2.766864,9.689612,-0.63999885,-1
228,229,1583935302777,-0.1874,0.2428,0.29459998,-2.8669224,9.655136,-0.47471273,-1
229,230,1583935302787,-0.1874,0.2428,0.29459998,-2.8641164,9.648565,-0.46314394,-1
230,231,1583935302797,-0.1849,0.23339999,0.30179998,-2.7751575,9.677047,-0.63063276,-1
231,232,1583935302807,-0.094299994,0.2636,0.13589999,-2.636859,9.712759,-0.9609655,-1
232,233,1583935302818,-0.0101,0.32459998,-0.2595,-2.6975472000000003,9.730946000000001,-1.0330024,-1
233,234,1583935302828,-0.0101,0.32459998,-0.2595,-2.7616544,9.738559,-0.9099403,-1
234,235,1583935302838,0.0365,0.36589998,-0.0352,-2.6181362,9.788952,-0.7770524999999999,-1
235,236,1583935302849,0.1372,0.3761,0.0493,-2.5570362,9.779969,-0.7157034999999999,-1
236,237,1583935302859,0.1697,0.3276,0.113199994,-2.5511656000000005,9.700952000000001,-0.6384474,-1
237,238,1583935302869,0.1697,0.3276,0.113199994,-2.5705297000000003,9.632266,-0.7070460999999999,-1
238,239,1583935302879,0.1699,0.1336,-0.0433,-2.5610106,9.514988,-0.78914803,-1
239,240,1583935302889,0.0681,0.0859,-0.0088,-2.6633387,9.486766000000001,-0.73004955,-1
240,241,1583935302899,0.0541,0.0871,0.0156,-2.6677153,9.491572999999999,-0.7271765,-1
241,242,1583935302910,0.0872,0.08779999599999999,-0.038399998,-2.6181072999999997,9.506397999999999,-0.7931224,-1
242,243,1583935302920,0.1585,0.0783,-0.1129,-2.5808728,9.472946,-0.8635215,-1
243,244,1583935302930,0.15089999,0.0,-0.1109,-2.5667088,9.408524,-0.81421053,-1
244,245,1583935302940,0.19319999,-0.0391,0.0262,-2.5429583,9.354759,-0.64557254,-1
245,246,1583935302950,0.08,-0.1269,0.26999998,-2.6562902999999998,9.2737875,-0.43837833,-1
246,247,1583935302960,-0.031,-0.1845,0.5053,-2.7537436,9.189952,-0.22764070000000003,-1
247,248,1583935302971,0.0647,-0.1924,0.2953,-2.6611552000000005,9.195975,-0.45001417,-1
248,249,1583935302981,0.27019998,-0.2288,-0.11449999,-2.4503028,9.182041,-0.9545587,-1
249,250,1583935302991,0.3225,-0.22459999,-0.3944,-2.4946816000000003,9.136666,-1.1180348,-1
250,251,1583935303001,0.1152,-0.34649998,-0.32369998,-2.8404427000000005,8.98815,-0.94096917,-1
251,252,1583935303012,-0.2552,-0.4676,-0.0802,-3.189881,8.875947,-0.67323035,-1
252,253,1583935303022,-0.47,-0.5402,0.1319,-3.3335809999999997,8.823601,-0.52166784,-1
253,254,1583935303032,-0.4736,-0.516,0.1876,-3.2849788999999996,8.894363,-0.52014506,-1
254,255,1583935303042,-0.3936,-0.46359998,0.1563,-3.2350166000000002,8.90667,-0.5747711999999999,-1
255,256,1583935303052,-0.366,-0.42200000000000004,0.0674,-3.2458577,8.948435,-0.6846746,-1
256,257,1583935303063,-0.3899,-0.4105,-0.0503,-3.253002,8.954861,-0.8102553000000001,-1
257,258,1583935303073,-0.377,-0.3899,-0.1778,-3.206018,8.988522999999999,-0.9694314,-1
258,259,1583935303083,-0.26899999999999996,-0.3703,-0.3746,-3.0441124,9.02753,-1.1307623,-1
259,260,1583935303093,-0.1239,-0.3123,-0.4655,-2.9949837,9.094806,-1.1033057,-1
260,261,1583935303103,-0.1463,-0.26459998,-0.3446,-3.0558634,9.109228,-0.8318223,-1
261,262,1583935303113,-0.2172,-0.2464,-0.0021,-3.1398711,9.087987,-0.45780012,-1
262,263,1583935303124,-0.2583,-0.287,0.2801,-3.1263487000000003,9.057264,-0.30234936,-1
263,264,1583935303134,-0.2607,-0.3178,0.3299,-3.1344887999999997,9.022558,-0.35688928,-1
264,265,1583935303144,-0.2635,-0.35819998,0.2472,-3.101899,9.0099745,-0.5230372999999999,-1
265,266,1583935303155,-0.2085,-0.3593,0.0903,-2.950212,9.080288000000001,-0.6452852,-1
266,267,1583935303165,-0.0762,-0.28219998,-0.024699999,-2.8302336,9.158491999999999,-0.78518325,-1
267,268,1583935303175,0.0356,-0.1955,-0.16839999,-2.7825507999999997,9.207841,-0.8732707000000001,-1
268,269,1583935303186,0.0497,-0.16759999,-0.22469999,-2.8624501,9.201664,-0.8281927,-1
269,270,1583935303196,-0.0429,-0.1591,-0.156,-2.9081986,9.239138,-0.7010126999999999,-1
270,271,1583935303206,-0.0429,-0.1591,-0.156,-2.8948963,9.275176,-0.5473719,-1
271,272,1583935303216,-0.0625,-0.103599995,0.0925,-2.9052393,9.250304,-0.48300627,-1
272,273,1583935303226,-0.0752,-0.13409999,0.1586,-2.885195,9.273892,-0.44732305,-1
273,274,1583935303237,-0.060599997999999995,-0.1064,0.195,-2.7860272,9.304960000000001,-0.5566806,-1
274,275,1583935303247,0.0412,-0.0592,0.037499998,-2.7000754000000002,9.349789,-0.7619882,-1
275,276,1583935303257,0.112799995,-0.0317,-0.12789999,-2.6176093,9.445068,-0.9143169,-1
276,277,1583935303267,0.24759999,0.1215,-0.2645,-2.555341,9.513848,-0.9064831,-1
277,278,1583935303277,0.24759999,0.1215,-0.2645,-2.592451,9.534467999999999,-0.79476005,-1
278,279,1583935303288,0.205,0.1398,-0.16,-2.7274363,9.481997,-0.61951405,-1
279,280,1583935303298,-0.09999999400000001,0.0308,0.18069999,-2.895308,9.431393,-0.44919056,-1
280,281,1583935303308,-0.1399,0.0106,0.20349999,-2.9321117,9.404214,-0.40772295,-1
281,282,1583935303318,-0.0348,0.019199999,0.1291,-2.8180997000000003,9.421767,-0.48809153,-1
282,283,1583935303328,0.058599997,0.0077,0.1038,-2.7215083,9.406713,-0.5045828,-1
283,284,1583935303339,-0.015299999,-0.0039999996999999995,0.13669999,-2.8245451,9.399635,-0.4617266,-1
284,285,1583935303349,-0.021499999,0.0034999999,0.17899999,-2.7546247999999998,9.424392,-0.37386897,-1
285,286,1583935303359,0.1573,0.0695,0.2313,-2.5526788,9.501916,-0.34907459999999996,-1
286,287,1583935303369,0.3757,0.1848,0.15709999,-2.363642,9.602616000000001,-0.45693818,-1
287,288,1583935303379,0.35169998,0.2126,0.1231,-2.396615,9.617049,-0.45727336,-1
288,289,1583935303389,0.2127,0.153,0.20629999,-2.5832956,9.553832,-0.33767822,-1
289,290,1583935303400,0.0457,0.1134,0.34939998,-2.7446935000000003,9.521979,-0.18657535,-1
290,291,1583935303410,-0.0528,0.1426,0.4461,-2.7971745,9.56157,-0.12735237,-1
291,292,1583935303420,-0.014599998999999999,0.1818,0.3706,-2.7400777,9.61045,-0.24478320000000003,-1
292,293,1583935303430,0.052899998,0.23089999,0.21069999,-2.6722739,9.639812,-0.40271428,-1
293,294,1583935303440,0.141,0.2805,-0.0639,-2.60447,9.67044,-0.7630321,-1
294,295,1583935303450,0.084,0.2129,-0.2701,-2.7113185,9.586327,-0.9239415999999999,-1
295,296,1583935303461,-0.030499997999999997,0.1358,-0.37109998,-2.7946177000000003,9.54755,-0.97893167,-1
296,297,1583935303471,0.0009999999,0.1269,-0.3769,-2.683632,9.553947,-0.99092174,-1
297,298,1583935303481,0.1484,0.1761,-0.39519998,-2.581122,9.585694,-1.0021745000000002,-1
298,299,1583935303491,0.2261,0.1856,-0.3965,-2.5236802000000003,9.604503,-1.0080738,-1
299,300,1583935303501,0.294,0.18509999,-0.35119998,-2.4642272000000003,9.582734,-0.90570736,-1
300,301,1583935303512,0.2649,0.1554,-0.2298,-2.5323472000000002,9.533050999999999,-0.76211274,-1
301,302,1583935303522,0.1498,0.0871,-0.0998,-2.6771388,9.413244,-0.5791957,-1
302,303,1583935303532,0.0755,-0.039499998,0.0298,-2.7030057999999997,9.320714,-0.53932744,-1
303,304,1583935303542,0.051099997,-0.107099995,0.0233,-2.7433243,9.27057,-0.55705416,-1
304,305,1583935303552,-0.0413,-0.1548,0.0079,-2.9623456000000004,9.212601,-0.50278234,-1
305,306,1583935303563,-0.2408,-0.1925,0.1302,-3.1009605,9.173374,-0.33971807,-1
306,307,1583935303573,-0.33319998,-0.21069999,0.2724,-3.1105947,9.21217,-0.2571085,-1
307,308,1583935303583,-0.2904,-0.1706,0.3085,-2.9939876,9.265772,-0.25955063,-1
308,309,1583935303593,-0.1714,-0.121199995,0.2687,-2.9494457,9.262803,-0.29835585,-1
309,310,1583935303603,-0.1319,-0.1112,0.2314,-2.8919275,9.370398,-0.3602316,-1
310,311,1583935303614,-0.054399997,0.0064,0.1476,-2.7774080000000003,9.430003999999998,-0.48230714,-1
311,312,1583935303624,0.0121,0.0552,0.0273,-2.7972512000000003,9.481364,-0.6667276999999999,-1
312,313,1583935303635,0.0001,0.094399996,-0.1393,-2.6808932,9.600518,-0.94513506,-1
313,314,1583935303645,0.11599999999999999,0.21229999,-0.41169998,-2.7194877,9.607567999999999,-1.1206397,-1
314,315,1583935303655,0.0477,0.2032,-0.5379999999999999,-2.8850706,9.538557,-1.1815289,-1
315,316,1583935303665,-0.1355,0.11639999599999999,-0.5689,-3.0086496,9.452375,-1.1401571000000001,-1
316,317,1583935303675,-0.22999999,0.0491,-0.525,-3.0005572,9.4140005,-1.0792774,-1
317,318,1583935303686,-0.1595,0.0007,-0.43559998,-2.8982196,9.410956,-0.95464486,-1
318,319,1583935303696,-0.0905,0.020299999,-0.3202,-2.826853,9.428922,-0.8198034,-1
319,320,1583935303706,-0.022499999,0.029399997999999997,-0.1797,-2.809701,9.456973,-0.63729817,-1
320,321,1583935303717,-0.0229,0.058399998,-0.0387,-2.8501055,9.4395895,-0.48587929999999996,-1
321,322,1583935303727,-0.0894,0.0186,0.19739999,-2.8851757,9.421337,-0.37708676,-1
322,323,1583935303737,-0.0894,0.0186,0.19739999,-2.9744222000000002,9.339589,-0.30443709999999996,-1
323,324,1583935303748,-0.2706,-0.0887,0.3471,-3.0667232999999996,9.301186999999999,-0.21902157,-1
324,325,1583935303758,-0.2706,-0.0887,0.3471,-2.9836732999999995,9.333193,-0.25343105,-1
325,326,1583935303768,0.0131,-0.0404,0.1608,-2.7805014,9.356129,-0.39042723,-1
326,327,1583935303778,0.13759999,0.0075,0.1382,-2.6550834,9.401245,-0.4207187,-1
327,328,1583935303788,0.096099995,-0.0030999999,0.2136,-2.710629,9.382244,-0.29717788,-1
328,329,1583935303798,0.064899996,-0.042999998,0.36749998,-2.69703,9.347614,-0.16213535,-1
329,330,1583935303808,0.064899996,-0.042999998,0.36749998,-2.6265063,9.336113000000001,-0.17252617,-1
330,331,1583935303818,0.2678,-0.043899997999999996,0.2208,-2.5193322,9.350689,-0.32006648,-1
331,332,1583935303828,0.2678,-0.043899997999999996,0.2208,-2.4526392999999995,9.389657000000001,-0.40864232,-1
332,333,1583935303838,0.2307,-0.0037,0.1283,-2.5783255,9.375838,-0.41406279999999995,-1
333,334,1583935303848,0.0973,-0.0514,0.18959999,-2.7256455,9.339675999999999,-0.3574735,-1
334,335,1583935303858,-0.015899998999999998,-0.049999997000000004,0.21169999,-2.8098352,9.337933,-0.3412408,-1
335,336,1583935303868,-0.0998,-0.087699994,0.1854,-2.9058905,9.301474,-0.36434004,-1
336,337,1583935303878,-0.1259,-0.1551,0.0911,-2.9369577999999996,9.233507000000001,-0.47021163,-1
337,338,1583935303888,-0.1259,-0.1551,0.0911,-3.004206,9.189942,-0.55422896,-1
338,339,1583935303898,-0.1539,-0.1838,0.038,-2.9497714,9.215943,-0.51885223,-1
339,340,1583935303908,-0.049799997,-0.1065,0.13669999,-2.846131,9.287013,-0.43348458,d
340,341,1583935303918,0.062099997000000004,-0.0297,0.1959,-2.7176201,9.382541,-0.37352420000000003,-1
341,342,1583935303928,0.1739,0.0274,0.1583,-2.6240067000000002,9.425685000000001,-0.40505105,-1
342,343,1583935303938,0.1739,0.0274,0.1583,-2.5594878,9.446581,-0.45793417,-1
343,344,1583935303948,0.1872,0.026099999,0.11800000000000001,-2.6033112999999997,9.430674,-0.4676259,-1
344,345,1583935303958,0.060799997,-0.0123,0.11449999,-2.741811,9.37849,-0.46860272,-1
345,346,1583935303968,-0.0154,-0.021,0.082899995,-2.8142693,9.368692999999999,-0.5348934000000001,-1
346,347,1583935303979,-0.14039999,-0.0393,0.023,-2.9652187999999997,9.343755,-0.5886384,-1
347,348,1583935303989,-0.31469998,-0.0479,-0.0165,-3.1387793999999998,9.3332205,-0.6306805999999999,-1
348,349,1583935303999,-0.4217,-0.0667,-0.0266,-3.2139667999999997,9.330559,-0.6533872,-1
349,350,1583935304009,-0.40359998,-0.0174,-0.0075,-3.174156,9.369048,-0.63895494,-1
350,351,1583935304020,-0.2798,-0.0081,-0.067,-3.0065715,9.387185,-0.751358,-1
351,352,1583935304030,-0.1179,0.020399999,-0.2342,-2.8643463,9.433949,-0.9614539000000001,-1
352,353,1583935304040,-0.0145,0.0393,-0.4023,-2.7698522,9.431852000000001,-1.0857608,-1
353,354,1583935304050,0.0314,0.0486,-0.4649,-2.7430367,9.448659,-1.1141753,-1
354,355,1583935304061,0.0202,0.0288,-0.43249997,-2.7849162,9.431067,-1.0488231000000001,-1
355,356,1583935304071,-0.0681,0.0189,-0.2856,-2.8775334,9.403639,-0.88872766,-1
356,357,1583935304081,-0.16669999,0.0088,-0.1219,-2.9831178,9.384542999999999,-0.70909554,-1
357,358,1583935304091,-0.2376,-0.021599998999999998,0.0493,-3.0349953,9.37601,-0.532097,-1
358,359,1583935304101,-0.26229998,0.0156,0.19049999,-2.9997048,9.434619999999999,-0.43932644,-1
359,360,1583935304111,-0.15269999,0.0914,0.1758,-2.8767867000000003,9.519671,-0.5158451000000001,-1
360,361,1583935304121,-0.0546,0.15699999,0.0554,-2.7599400000000003,9.604541000000001,-0.6281715,-1
361,362,1583935304132,0.0731,0.23259999,-0.044000000000000004,-2.6143248,9.661725,-0.7036846,-1
362,363,1583935304142,0.2121,0.2988,-0.084,-2.4243207,9.734173,-0.7140276,-1
363,364,1583935304152,0.3247,0.29729998,-0.055099998,-2.41438,9.707991,-0.65224755,-1
364,365,1583935304162,0.2846,0.297,0.0032,-2.497296,9.651075,-0.6201844,-1
365,366,1583935304172,0.1796,0.2096,0.0525,-2.6070175,9.58487,-0.5583661999999999,-1
366,367,1583935304182,0.0672,0.1426,0.0929,-2.7649868,9.530828,-0.56067413,-1
367,368,1583935304193,-0.053999998,0.1249,0.0857,-2.8282703999999996,9.491506,-0.5332175,-1
368,369,1583935304203,-0.11449999,0.0689,0.13069999,-2.8539362,9.440605,-0.5879489,-1
369,370,1583935304213,-0.08249999599999999,0.030599998,0.0064999997,-2.725818,9.410333,-0.77271426,-1
370,371,1583935304223,0.086399995,-0.0074,-0.2227,-2.6028037,9.340806,-1.0237797,-1
371,372,1583935304233,0.1859,-0.095,-0.4141,-2.5435998,9.237587,-1.087159,-1
372,373,1583935304244,0.1859,-0.095,-0.4141,-2.5154536,9.138514500000001,-0.9880966,-1
373,374,1583935304254,0.24689999,-0.2217,-0.40309998,-2.4216297000000004,8.968536,-0.8286619000000001,-1
374,375,1583935304264,0.36699998,-0.506,-0.0875,-2.3487504,8.733272999999999,-0.6080219,-1
375,376,1583935304274,0.4177,-0.70199996,0.0729,-2.2659588,8.610134,-0.51110464,-1
376,377,1583935304284,0.5493,-0.8781,0.1593,-2.154408,8.380041,-0.41706994,-1
377,378,1583935304294,0.6439,-1.1123999,0.23600000000000002,-2.1329656000000004,8.032805,-0.37021062,-1
378,379,1583935304304,0.6436,-1.4534999,0.2445,-2.2079902000000002,7.6559289999999995,-0.39433458,-1
379,380,1583935304315,0.48999998,-1.9700999,0.1656,-2.4347117000000003,6.856371,-0.5698966,-1
380,381,1583935304325,0.3488,-2.6917,0.018099999,-2.6286802000000002,6.0485196,-0.46716620000000003,-1
381,382,1583935304335,0.14989999,-3.5015,0.17099999,-2.9056509999999998,5.1261005,-0.0704853,-1
382,383,1583935304345,-0.1182,-4.4589,0.573,-3.247639,4.111964700000001,0.48102388,-1
383,384,1583935304355,-0.44919997,-5.4666,1.1276,-3.4830080999999997,3.2476006,0.9294100000000001,-1
384,385,1583935304365,-0.7104,-6.5162997,1.6219,-3.5614038,2.1567733,1.5933795,-1
385,386,1583935304375,-0.66249996,-7.3838,2.1381,-3.1969008,1.41414,1.8951830000000003,-1
386,387,1583935304386,-0.2609,-8.0899,2.3757,-2.6420877000000003,0.91925853,2.0152667,-1
387,388,1583935304396,0.22909999,-8.5757,2.4836,-2.076635,0.51248366,2.0178523,-1
388,389,1583935304406,0.63269997,-8.9189,2.4610999,-1.1400709,0.46991476,1.7433619999999999,-1
389,390,1583935304416,1.7754999,-8.971499,2.0816,0.30776027,0.55284035,1.2152201999999999,-1
390,391,1583935304427,2.8214998,-8.9275,1.6656,0.78378505,0.55269665,1.1505383999999999,-1
391,392,1583935304437,3.2029998,-8.9505,1.6105,0.7852406999999999,0.5495555,1.2176622,-1
392,393,1583935304447,3.0521998,-8.9711,1.6811999,0.195635,0.54700804,1.1838752000000001,-1
393,394,1583935304458,2.4556,-8.9895,1.6459,-0.33122346,0.5065269,1.1853023,-1
394,395,1583935304468,1.4329,-8.9368,1.4424,-0.6883713,0.6371833,0.9579870999999999,-1
395,396,1583935304478,1.3864,-8.6622,0.9018,-0.6367331999999999,0.9344857,0.39824194,-1
396,397,1583935304489,1.7863,-7.7521996,0.43699998,-0.05274905,2.0398407,-0.19864212,-1
397,398,1583935304500,1.8824999,-6.9607997,-0.17369999,0.17421168,2.8615499,-0.8608975,-1
398,399,1583935304510,2.0224,-5.8554,-0.70589995,0.38968027,4.239116,-1.3847201,-1
399,400,1583935304520,1.8005999,-4.8272,-0.95199996,0.20745279,5.0610550000000005,-1.4600513000000002,-1
400,401,1583935304530,1.2413,-3.7377,-0.5624,-0.5769451,6.281466,-0.82670826,-1
401,402,1583935304541,0.0624,-3.0865,0.0704,-1.6919153000000002,6.81566,-0.26731740000000004,-1
402,403,1583935304550,-0.94579995,-2.6483998,0.3206,-2.3299797000000004,7.341178,-0.32758427,-1
403,404,1583935304560,-1.2968,-1.8949,-0.013999999499999999,-2.3394701,8.161135,-0.86075383,-1
404,405,1583935304570,-1.1588,-1.1216999,-1.0222,-1.9808762999999998,8.855922,-2.008783,-1
405,406,1583935304580,-0.5891,0.3378,-3.0202,-0.98486924,10.712299,-4.5113177,-1
406,407,1583935304590,0.16759999,1.8359,-4.8055,-0.05605305,12.144320500000001,-5.955768,-1
407,408,1583935304601,0.8749,3.1408,-5.4891996,1.0835104,13.532775,-6.0700097,-1
408,409,1583935304610,2.2179,4.789,-4.825,2.3800087000000003,14.921316000000001,-5.20622,-1
409,410,1583935304620,3.112,6.3717,-3.179,3.2318754000000003,16.16998,-3.7577856,-1
410,411,1583935304630,3.6776998,7.6759,-1.1466,4.3966064000000005,17.951044,-0.72979105,-1
411,412,1583935304640,4.2612,8.8421,0.6584,5.1725097,18.86678,0.7138359999999999,-1
412,413,1583935304650,5.2848,9.8917,1.8418,6.756667,19.993671,2.2070422,-1
413,414,1583935304661,6.2929997,10.6758995,2.654,7.9364243000000005,20.658484,2.9692217999999997,-1
414,415,1583935304671,6.8806996,11.180099499999999,3.053,8.357947,20.93125,3.2559419,-1
415,416,1583935304681,6.4547,11.1626,2.971,7.7241063,20.663963,3.1417767999999997,-1
416,417,1583935304691,5.1370000000000005,10.658199,2.7559,6.268555999999999,20.065048,2.8108310000000003,-1
417,418,1583935304701,3.3230998999999994,10.0323,2.2161,4.557133,19.354774,2.0106888,-1
418,419,1583935304711,1.8357999,9.3265,1.2590000000000001,3.4470660000000004,18.705074,0.92194957,-1
419,420,1583935304722,0.89669997,8.6509,0.060399997999999996,2.3831022,17.819412,-0.7431123000000001,-1
420,421,1583935304732,0.012,7.9263997,-1.1481999,1.670875,16.992119,-1.7207031000000004,-1
421,422,1583935304742,-0.726,7.0559997999999995,-1.8123,1.0866995000000002,16.140644,-2.15685,-1
422,423,1583935304752,-1.173,6.2651997,-1.9851999,0.94432104,15.376042000000002,-2.1891525,-1
423,424,1583935304762,-1.3005999,5.5051,-1.8923999,1.0973297,14.649517000000001,-2.2167722999999997,-1
424,425,1583935304773,-0.9194,4.8826,-2.042,1.9049610000000001,14.169547,-2.495486,-1
425,426,1583935304783,-0.1823,4.436,-2.2724,2.3265130000000003,13.715213,-2.5567105,-1
426,427,1583935304793,-0.0906,3.9571,-2.1511,2.069299,13.063731,-2.1973119999999997,-1
427,428,1583935304803,-0.5525,3.2682,-1.6315998999999999,1.6381702,12.499457000000001,-1.6427767,-1
428,429,1583935304813,-1.1409,2.6253998,-0.8675,1.1314328000000002,11.823564999999999,-0.70979464,-1
429,430,1583935304824,-1.3331,2.1777,-0.2228,1.2646078,11.533664,-0.12732364,-1
430,431,1583935304834,-1.1728,1.9755,0.191,1.4349025,11.30386,0.12274593,-1
431,432,1583935304844,-1.0027,1.7833999,0.35700000000000004,1.7664133000000002,11.183125,0.14035769,-1
432,433,1583935304854,-0.6473,1.6702,0.3153,2.4943942999999997,11.104605000000001,-0.17404889,-1
433,434,1583935304864,0.1777,1.6261,-0.052899998,3.549921,11.166778,-0.7376822,-1
434,435,1583935304874,1.1721,1.6599,-0.584,4.047838700000001,11.080528,-0.9410265999999999,-1
435,436,1583935304884,1.6078,1.5537,-0.69299996,4.087189700000001,10.868393,-0.8650921,-1
436,437,1583935304894,1.3910999,1.2476,-0.48839998,3.550582,10.455411999999999,-0.55250514,-1
437,438,1583935304904,0.93219995,0.9185,-0.2436,3.2022257,10.221584,-0.42747992,-1
438,439,1583935304914,0.5197,0.617,-0.1037,2.6599197,9.889078,-0.27685590000000004,-1
439,440,1583935304924,0.10969999400000001,0.3347,0.048,2.3690624,9.67516,-0.18094419,-1
440,441,1583935304934,-0.17469999,0.0923,0.1709,2.0321599999999997,9.425129,0.034840424,d
441,442,1583935304944,-0.4057,-0.1192,0.36049998,1.9501251,9.276842,0.054798488,-1
442,443,1583935304954,-0.43809998,-0.27019998,0.3699,2.0335104,9.139692,0.014164096999999999,-1
443,444,1583935304964,-0.2913,-0.39,0.3278,2.429272,9.110388,-0.18895039,-1
444,445,1583935304975,0.15429999,-0.4202,0.0903,2.8807993,9.163634,-0.5430624,-1
445,446,1583935304984,0.57019997,-0.3621,-0.2339,3.1835701000000003,9.243036,-0.805601,-1
446,447,1583935304994,0.82379997,-0.2461,-0.47849998,3.0283108,9.321288000000001,-0.87509984,-1
447,448,1583935305004,0.6045,-0.2006,-0.4874,2.5900282999999997,9.334878,-0.7864857,-1
448,449,1583935305014,0.1654,-0.18599999,-0.3706,2.2282450000000003,9.342165,-0.66865265,-1
449,450,1583935305024,-0.14469999,-0.19139999,-0.24689999,1.8749185000000002,9.30562,-0.43603203,-1
450,451,1583935305035,-0.47709998,-0.23539999,0.021,1.6151955,9.321709,-0.10030747,-1
451,452,1583935305045,-0.6773,-0.21939999,0.3455,1.5005037,9.3355,0.06292919999999999,-1
452,453,1583935305055,-0.75769997,-0.20179999,0.4615,1.5605981000000002,9.358283,0.14722426,-1
453,454,1583935305065,-0.66859996,-0.18249999,0.49769998,1.8307693999999999,9.410592,-0.13331872,-1
454,455,1583935305075,-0.3102,-0.10300000000000001,0.17449999,2.4122636,9.658009,-0.53537226,-1
455,456,1583935305086,0.22219999,0.1635,-0.20349999,2.7995400000000004,9.925566,-0.78558546,-1
456,457,1583935305096,0.5912,0.4587,-0.4068,2.932332,10.286975,-0.72537607,-1
457,458,1583935305106,0.6527,0.8109999999999999,-0.2823,2.8160505000000002,10.586279,-0.42761400000000005,-1
458,459,1583935305116,0.52489996,1.0928,0.0224,2.6762577999999997,10.777317,-0.15295118,-1
459,460,1583935305126,0.3432,1.3144,0.36200000000000004,2.2095323,11.005675,0.34861493,-1
460,461,1583935305137,-0.0212,1.4568,0.6895,1.9363441000000003,11.104087,0.5628672,-1
461,462,1583935305147,-0.2669,1.5401,0.88079995,1.8216043999999998,11.320877000000001,0.5419515,-1
462,463,1583935305157,-0.36659998,1.7612,0.85179996,2.0518787,11.635542999999998,0.2855612,-1
463,464,1583935305167,-0.12459999,2.0613,0.5931,2.3420558,11.9156065,0.009356541,-1
464,465,1583935305178,0.2929,2.4501,0.25939998,2.7599494,12.571407,-0.33893278,-1
465,466,1583935305188,0.62509996,2.9951,-0.0174,2.7752054,12.9910145,-0.30284736,-1
466,467,1583935305198,0.6597,3.4108998999999995,0.011299999,2.5192556,13.251342000000001,0.106350444,-1
467,468,1583935305208,0.0034999999,3.8260998999999996,0.96709996,1.9758772,13.446622,0.8394263000000001,-1
468,469,1583935305218,-0.2555,3.9728,1.4883,1.6861596,13.619157999999999,1.3627414,-1
469,470,1583935305230,-0.4315,4.1878,1.7134,1.4992012,13.884483,1.4801338,-1
470,471,1583935305241,-0.5141,4.5004,1.4641,1.3604045,14.260735999999998,1.1138209,-1
471,472,1583935305251,-0.2879,4.9403,0.96629995,1.7579857,14.790478,0.49562848,-1
472,473,1583935305261,0.4114,5.3901997,0.3213,2.4976982999999997,15.216139000000002,-0.17346470000000003,-1
473,474,1583935305271,1.2832999,5.8199,-0.1783,3.2211685,15.592056,-0.53107226,-1
474,475,1583935305281,1.6279,5.9828997,-0.19119999,3.102081,15.690468,-0.32675105,-1
475,476,1583935305291,1.2243,6.0062,0.27879998,2.45851,15.679013000000001,0.32645419999999997,-1
476,477,1583935305301,1.2243,6.0062,0.27879998,1.7269281000000003,15.714247,1.2297098999999998,-1
477,478,1583935305312,0.37399998,5.9983997,1.6409,1.8633019,15.816776,1.5889263,-1
478,479,1583935305322,0.9198,6.1429,1.7615999,2.5316862999999996,15.920876000000002,1.5062306,-1
479,480,1583935305332,1.6777999,6.1678,1.5848999,2.9077387000000003,15.855907,1.4455806999999998,-1
480,481,1583935305342,1.9454,5.9679,1.6019999999999999,2.7334313,15.567301,1.6437343,-1
481,482,1583935305352,1.7163,5.6022,1.9066,1.9970994,15.076364499999999,2.1060738999999997,-1
482,483,1583935305362,1.0181,5.0713,2.4136999,1.2663028,14.595407999999999,2.3891259999999996,-1
483,484,1583935305372,0.5286,4.5822,2.5249999,0.60241944,14.038718,2.4122155,-1
484,485,1583935305383,0.0826,3.9785,2.5702999,0.26027843,13.396324,2.255185,-1
485,486,1583935305393,0.3409,3.3186998,2.1929,1.4093803,13.056252,1.4231901000000002,-1
486,487,1583935305403,1.849,3.2008997999999997,1.3227,2.3171180000000002,12.751211999999999,0.5093425,-1
487,488,1583935305413,2.4689999,2.6926,0.48369998,2.4690828,12.117725,-0.24138342,-1
488,489,1583935305423,2.6519999999999997,2.0194,-0.0751,2.3485107000000003,11.35566,-0.8147852,-1
489,490,1583935305434,2.4092999,1.2006999,-0.5827,1.4564503,10.355966,-1.2181123,-1
490,491,1583935305444,1.3679999,0.060099997,-0.8351,-0.42309374,8.719615,-1.3661985,-1
491,492,1583935305454,-0.1928,-1.3535,-0.8534,-2.2699332,7.1843386,-1.0713478,-1
492,493,1583935305464,-1.8630999,-2.9039,-0.4895,-2.982093,5.9026265,-0.75527483,-1
493,494,1583935305475,-2.0404,-4.013999999999999,-0.2297,-2.1611884,5.2492394,-0.66493684,-1
494,495,1583935305485,-1.0907999,-4.6759,-0.1892,-0.8941386,4.6175623,-0.9287779,-1
495,496,1583935305495,0.3338,-5.2233,-0.5189,1.0858951000000001,4.294077,-1.4323934,-1
496,497,1583935305505,2.4095,-5.4795,-1.0371,2.702623,4.1110554,-1.5335149,-1
497,498,1583935305516,3.7020998,-5.7469997,-0.9945,2.575529,3.4379587,-0.5040178,-1
498,499,1583935305525,3.438,-6.3374996,-0.1169,2.0483162,2.9786262999999997,0.33346440000000005,-1
499,500,1583935305535,2.7704,-6.8968,0.80609995,1.1559013,2.5133946,1.0138582,-1
500,501,1583935305545,1.8830999,-7.3164,1.3652999,0.16770905,2.232641,1.3636798,-1
501,502,1583935305555,0.97819996,-7.576699700000001,1.6486,-0.3376303,2.068188,1.2481931,-1
502,503,1583935305565,0.6884,-7.6874,1.4412,-0.3416909,2.1365472999999997,0.40182367,-1
503,504,1583935305576,0.74469995,-7.6089997,0.5955,-0.14843093,2.32205,-0.74376357,-1
504,505,1583935305586,1.1086,-7.321099799999999,-0.4317,0.5292048,2.8005362000000003,-2.008084,-1
505,506,1583935305596,1.8683,-6.7941,-1.5516,0.90036345,3.3266379999999995,-3.0939791000000003,-1
506,507,1583935305606,2.1158,-6.2932997,-2.3899999,0.1542249,3.6802807,-3.5438303999999996,-1
507,508,1583935305616,1.5092,-5.9863,-2.5784,-0.99643797,3.9874473,-3.5321946000000004,-1
508,509,1583935305627,0.4538,-5.6593,-2.4533,-2.1202765,4.484991,-3.5275687999999996,-1
509,510,1583935305637,-0.5901,-5.1373997000000005,-2.3634999,-2.7733572,5.1408873,-3.169291,-1
510,511,1583935305647,-1.2484,-3.8284998,-1.3388,-2.8787403,5.774268599999999,-2.647288,-1
511,512,1583935305657,-1.5597999,-3.3065,-0.9945,-3.2072246,6.27299,-2.3578193,-1
512,513,1583935305667,-1.6506,-2.9241,-1.2398,-3.306,6.6526437000000005,-2.6684144,-1
513,514,1583935305678,-1.6506,-2.9241,-1.2398,-2.8807897999999996,7.124761,-3.3082887999999997,-1
514,515,1583935305688,-1.226,-2.4462,-1.8219,-2.408203,7.660363,-4.0491790000000005,-1
515,516,1583935305698,-0.78209996,-1.9025999,-2.5214999,-2.2974183999999997,8.188811,-4.4605703000000005,-1
516,517,1583935305708,-0.6403,-1.0705999,-2.7694,-2.1842208,8.56814,-4.2445655,-1
517,518,1583935305718,-0.331,-0.7342,-2.2180998,-1.8311046000000002,8.879605,-3.6368308,-1
518,519,1583935305728,-0.1495,-0.5477,-1.5676999,-1.6949415,9.040429,-3.0759172,-1
519,520,1583935305739,-0.1444,-0.47100000000000003,-0.71529996,-1.6831143,9.116651,-1.994868,-1
520,521,1583935305749,-0.1894,-0.43429998,0.1595,-1.6686723,9.186629,-1.0946003,-1
521,522,1583935305759,0.0779,-0.30879998,0.635,-1.2808403999999998,9.316931,-0.66726404,-1
522,523,1583935305769,0.5611,-0.1814,0.6114,-0.7603698,9.48737,-0.72585493,-1
523,524,1583935305780,1.1664,-0.0025,0.20799999,-0.24819252,9.625053999999999,-1.0664253000000001,-1
524,525,1583935305790,1.6050999,0.15969999,-0.3706,0.22907722,9.82409,-1.6890519,-1
525,526,1583935305800,1.3923,0.20729999,-0.59139997,-0.107901886,9.842573,-1.8418785,-1
526,527,1583935305810,0.78239995,0.1785,-0.45,-0.77938926,9.806238,-1.6002748,-1
527,528,1583935305820,0.0654,0.08249999599999999,-0.0254,-1.6462244,9.660633,-1.0411329,-1
528,529,1583935305831,-0.4423,-0.032199997,0.44939998,-2.0660048,9.586259,-0.5872305999999999,-1
529,530,1583935305840,-0.7288,-0.0686,0.7129,-2.3244345,9.538845,-0.45931324,-1
530,531,1583935305850,-0.7597,-0.12529999,0.5997,-2.2272587,9.511503,-0.72126764,-1
531,532,1583935305861,-0.529,-0.095199995,0.23519999,-1.9125743999999998,9.585685,-1.0952133,-1
532,533,1583935305871,-0.0656,0.0504,-0.0998,-1.373793,9.731577,-1.4000716,-1
533,534,1583935305881,0.37019998,0.2042,-0.3999,-1.0428855,9.87025,-1.6053601999999998,-1
534,535,1583935305891,0.501,0.24929999,-0.4511,-0.9884127,9.893349,-1.5594872,-1
535,536,1583935305901,0.4197,0.22569999,-0.253,-1.1236275,9.883925,-1.2444295,-1
536,537,1583935305911,0.24499999,0.21229999,0.1388,-1.2761573999999998,9.818123,-0.8058787,-1
537,538,1583935305922,0.0945,0.151,0.5528,-1.4000716,9.792074000000001,-0.4228255999999999,-1
538,539,1583935305932,0.065799996,0.14019999,0.77879995,-1.3953025,9.760011,-0.30265582,-1
539,540,1583935305942,0.0787,0.1409,0.7312,-1.3223941000000001,9.791586,-0.4959541,-1
540,541,1583935305953,0.2801,0.1725,0.4297,-1.0188286,9.858585,-0.93308747,-1
541,542,1583935305962,0.5614,0.2346,0.037699997,-0.8583117,9.899871000000001,-1.2406178999999997,-1
542,543,1583935305972,0.68909997,0.3171,-0.24509999,-0.8104948000000001,9.96754,-1.4442973,-1
543,544,1583935305982,0.6532,0.3505,-0.2972,-0.9998761,9.951757,-1.4039503,-1
544,545,1583935305992,0.384,0.2755,-0.1999,-1.324865,9.8558655,-1.3068414,d
545,546,1583935306002,0.1134,0.1699,-0.0523,-1.6186527,9.71003,-1.0424929,-1
546,547,1583935306012,-0.18069999,0.052899998,0.2838,-1.7550265,9.664837,-0.64586943,-1
547,548,1583935306023,-0.1662,0.023,0.6265,-1.6026403,9.675811999999999,-0.39025488,-1
548,549,1583935306033,0.039699998,0.0808,0.80399996,-1.3393452,9.724271,-0.2994859,-1
549,550,1583935306043,0.3229,0.1488,0.84889996,-1.0394284,9.802321000000001,-0.32894415,-1
550,551,1583935306053,0.57839996,0.1882,0.7517,-1.0100563,9.771618,-0.45620078,-1
551,552,1583935306063,0.49589998,0.1016,0.6303,-1.2053465,9.741892,-0.64311135,-1
552,553,1583935306074,0.2713,0.13409999,0.47489998,-1.3254683999999999,9.758249000000001,-0.7039144,-1
553,554,1583935306084,0.2953,0.15789999,0.4904,-1.2660252,9.811983999999999,-0.6709798,-1
554,555,1583935306094,0.32119998,0.20199999,0.5282,-1.3402836,9.772796000000001,-0.6542587,-1
555,556,1583935306104,0.19319999,0.0998,0.53859997,-1.7495294,9.52041,-0.6319639,-1
556,557,1583935306114,-0.21679999,-0.1292,0.648,-2.338838,9.2890625,-0.419943,-1
557,558,1583935306125,-0.80399996,-0.33859998,0.8461,-2.7428833999999997,9.135392,-0.43636718,-1
558,559,1583935306134,-1.0934,-0.48,0.79209995,-2.694741,9.0852,-0.7063278000000001,-1
559,560,1583935306144,-0.9032,-0.4657,0.4182,-2.2169924,9.217677,-1.2627785,-1
560,561,1583935306154,-0.44799998,-0.3548,0.0061,-1.7976336,9.25924,-1.6245617,-1
561,562,1583935306165,-0.066199996,-0.3038,-0.2905,-1.6670251,9.278912,-1.728853,-1
562,563,1583935306175,-0.0176,-0.3024,-0.31759998,-1.7941477,9.288669,-1.5276061,-1
563,564,1583935306185,-0.1919,-0.2915,-0.045599997,-1.9882696,9.214669,-1.16838,-1
564,565,1583935306195,-0.4032,-0.3784,0.31239998,-2.1976283,9.187988,-0.86173064,-1
565,566,1583935306205,-0.59639996,-0.3956,0.6209,-2.2812147,9.154029,-0.8266125,-1
566,567,1583935306216,-0.6497,-0.4138,0.6253,-2.1934814,9.22621,-0.98347104,-1
567,568,1583935306226,-0.5429999999999999,-0.32259998,0.4314,-1.9228697,9.345929,-1.4293193000000002,-1
568,569,1583935306236,-0.264,-0.1818,-0.0104,-1.6035693000000002,9.548364,-1.9127468999999997,-1
569,570,1583935306246,0.051799998,0.027999998999999998,-0.4389,-1.3885508,9.803864,-2.3675497,-1
570,571,1583935306256,0.1725,0.2871,-0.84849995,-1.487958,10.143275,-2.5887065,-1
571,572,1583935306266,0.061199997,0.59529996,-0.9389,-1.5309386999999999,10.460678999999999,-2.5538855,-1
572,573,1583935306277,0.011899999,0.9129999999999999,-0.8678,-1.4973623999999999,10.812999999999999,-2.4972196,-1
573,574,1583935306287,0.033299997000000005,1.27,-0.7791,-1.4462128,11.178854,-2.5715353,-1
574,575,1583935306297,0.076,1.6377,-0.825,-1.1370924999999998,11.614819,-3.0638408999999998,-1
575,576,1583935306307,0.3838,2.0756,-1.2753999,-0.5842235,12.107545,-4.0470915000000005,-1
576,577,1583935306317,0.9264,2.5843,-2.2154,0.12891339,12.635427,-5.305953,-1
577,578,1583935306327,1.6158999,3.1234999,-3.4250998,0.75451833,13.018403999999999,-6.129012599999999,-1
578,579,1583935306338,2.2405999,3.5156,-4.1886997,1.3223941000000001,13.370524,-6.4185004,-1
579,580,1583935306348,2.8169,3.8783998,-4.4412,1.6089035,13.622337,-6.3571706,-1
580,581,1583935306358,3.1306,4.1316,-4.3492,1.6160382,13.719954500000002,-6.439884999999999,-1
581,582,1583935306368,3.1641,4.1946,-4.8486,1.5579741000000003,13.666026,-6.8934717,-1
582,583,1583935306378,3.221,4.034,-5.388,1.5817055,13.430715,-7.548027499999999,-1
583,584,1583935306388,3.4378998,3.7577998999999997,-5.7251997,1.7203583999999998,13.123654,-7.8813863,-1
584,585,1583935306399,3.7068,3.3360999,-6.0794,1.8790365000000002,12.647886999999999,-8.24113,-1
585,586,1583935306409,3.852,2.7784,-6.3276,1.8974621999999999,12.163215,-8.417686999999999,-1
586,587,1583935306419,3.9724998,2.0841,-6.2883,1.9043671999999998,11.334592,-8.304844000000001,-1
587,588,1583935306429,4.0871,1.3903999,-6.0042995999999995,1.8463988000000002,10.573887,-7.922021000000001,-1
588,589,1583935306439,3.9980998,0.5406,-5.5158997,1.5793781999999998,9.6935,-7.347689999999999,-1
589,590,1583935306449,3.7616,-0.3471,-4.9295,1.1779665000000001,8.756257000000002,-6.708534200000001,-1
590,591,1583935306459,3.6086998,-1.3508999,-4.409,0.90470177,7.727659700000001,-6.066764,-1
591,592,1583935306470,3.5951,-2.3134,-3.892,0.7300304,6.5290165,-5.3089986,-1
592,593,1583935306480,3.6116,-3.3023998999999997,-3.3355,0.51079816,5.4874434,-4.6072006,-1
593,594,1583935306490,3.4726,-4.2776,-2.7366998,0.27393496,4.6957097,-4.020516000000001,-1
594,595,1583935306500,3.4429998,-5.2773,-2.0535997999999998,0.032292992,3.4444803999999998,-3.0196438,-1
595,596,1583935306511,3.2698998,-6.2805,-1.3913,-0.488647,2.3733049999999998,-2.2487204,-1
596,597,1583935306521,2.787,-7.3255,-0.80609995,-1.2332628,1.2306005,-1.641388,-1
597,598,1583935306531,2.0586,-8.5904,-0.5711,-2.2026367000000002,-0.21665610000000002,-1.3905524,-1
598,599,1583935306541,1.1259,-9.9807,-0.35459998,-3.380297,-1.5894244,-0.8933245000000001,-1
599,600,1583935306551,0.0696,-11.177199,0.1722,-4.589062,-2.7609167,-0.11338939,-1
600,601,1583935306562,-0.9432,-12.1363,1.0296999,-5.848393,-3.854272,1.0493211999999998,-1
601,602,1583935306572,-1.7932999,-12.911699,1.6833999,-6.4749365,-4.534033999999999,1.64723,-1
602,603,1583935306582,-1.9855,-13.4386,2.0507998,-6.0740223,-4.9194427,1.9877812,-1
603,604,1583935306592,-1.2584,-13.719899,2.349,-5.0365286,-5.0391525999999995,2.6830096,-1
604,605,1583935306603,-0.0866,-13.772699,3.0273,-3.8156008999999997,-5.03379,3.5967612,-1
605,606,1583935306613,0.9421,-13.8271,4.019,-2.98488,-5.072576000000001,4.892014499999999,-1
606,607,1583935306623,1.4279,-13.8966,5.2495,-2.937063,-5.1005306,6.086769599999999,-1
607,608,1583935306633,1.2983999,-13.821798999999999,6.2753,-2.889447,-4.727658,6.975564,-1
608,609,1583935306643,1.3264999,-13.3291,6.9351997,-2.799703,-4.1481843000000005,7.331122,-1
609,610,1583935306653,1.4793999,-12.439899,7.1633997,-2.2492855,-2.8429422000000004,7.32483,-1
610,611,1583935306664,1.8929,-11.2720995,7.055,-2.1030187999999996,-1.2280434,7.643259,-1
611,612,1583935306674,1.7171999,-9.9508,7.5899,-2.4618330000000004,0.19837397,8.593384,-1
612,613,1583935306684,1.1784999,-8.5826,8.63,-2.9397924,1.6023530000000001,9.56519,-1
613,614,1583935306694,0.6049,-7.2869,9.566,-3.0905504,3.0935382999999996,9.747858,-1
614,615,1583935306704,0.28759998,-5.7743998,9.617499,-2.87716,4.8154387000000005,9.262936999999999,-1
615,616,1583935306715,0.50909996,-4.0374,9.1319,-1.9224002,7.01277,9.053981,-1
616,617,1583935306725,1.2860999,-1.9311999,9.174399000000001,-0.41688797,9.038035,10.020903,-1
617,618,1583935306735,2.6882,-0.0066,10.4321995,2.0793738,11.049047999999999,12.250661000000001,-1
618,619,1583935306745,4.9462,1.9179,12.783,4.1992283,12.99724,14.952335999999999,-1
619,620,1583935306756,6.508899700000001,3.6931998999999998,15.398299,5.7252545,14.706335999999999,16.612696,-1
620,621,1583935306766,7.406399700000001,5.0401998,16.5516,6.8122315,16.247923,15.908435999999998,-1
621,622,1583935306776,8.1685,6.5284,15.861199,7.8419585000000005,17.667524,14.529452,-1
622,623,1583935306786,9.1438,8.2649,14.1328,8.825764999999999,19.329136,12.41158,-1
623,624,1583935306796,9.691999000000001,9.8569,12.050999999999998,9.105264,20.839686999999998,10.452778,-1
624,625,1583935306806,9.5819,11.2639,10.3461,8.861591,21.613004999999998,9.22371,-1
625,626,1583935306816,8.9903,12.091,9.006599000000001,8.063652000000001,22.255722,7.148971,-1
626,627,1583935306826,8.1333,12.4439,7.5548997,7.597156,22.235056,6.305714,-1
627,628,1583935306836,6.7488,12.2727995,5.2532,5.4979973,21.575512,1.2837901000000003,-1
628,629,1583935306846,5.2620997,11.7828,1.9317,4.641217,21.161057,-0.980416,-1
629,630,1583935306856,3.7594,11.110499,-1.6569999999999998,3.599012,20.616022,-4.4150324,-1
630,631,1583935306866,2.8838,10.7143,-4.5435,3.008707,19.916483,-7.3379984,-1
631,632,1583935306876,2.3695,10.1687,-6.3714,2.8780699,19.191605,-7.959954700000001,-1
632,633,1583935306886,2.0776,9.4517,-7.0158997,3.5227232,18.619179000000003,-7.4183187,-1
633,634,1583935306897,2.5616,8.8877,-6.5747,4.187823000000001,17.870274,-6.378421299999999,-1
634,635,1583935306907,3.0707,8.1364,-5.7128,5.006533999999999,17.221521,-5.3271184,-1
635,636,1583935306917,4.2061,6.7851996,-4.1279,5.563866,16.509678,-4.430259700000001,-1
636,637,1583935306927,4.3696,5.9967,-4.2899,5.785148,15.552207000000001,-4.608474299999999,-1
637,638,1583935306938,4.3696,5.9967,-4.2899,5.98718,14.9220915,-5.382845400000001,-1
638,639,1583935306948,4.2901,4.3707,-6.4714,5.6226199999999995,13.905801,-6.8189926,-1
639,640,1583935306958,4.2901,4.3707,-6.4714,4.86972,12.973039,-7.919157000000001,-1
640,641,1583935306968,2.9808,2.5635998,-8.6602,4.194766,12.120311000000001,-9.024674000000001,-1
641,642,1583935306978,2.5198998,1.7710999,-9.500899,3.696389,11.376739500000001,-9.882643,-1
642,643,1583935306988,2.1515,1.0379,-10.3069,3.2988076,10.6476755,-10.787718,-1
643,644,1583935306999,1.9090999,0.5117,-11.0591,2.9722962,10.146818,-11.568275,-1
644,645,1583935307009,1.6704999,0.006,-11.67,2.6916287,9.6772,-12.164144,-1
645,646,1583935307019,1.7162,-0.3518,-11.9501,2.7703497,9.335749,-12.38327,-1
646,647,1583935307029,2.1726,-0.5524,-11.734699,3.2554342999999997,9.166766,-12.052928999999999,-1
647,648,1583935307039,2.7299,-0.76299995,-11.0232,3.69636,8.974665,-11.219899,-1
648,649,1583935307049,2.8955998,-1.023,-10.0034,3.806704,8.701065,-10.154853999999998,-1
649,650,1583935307060,3.0084999,-1.2636,-9.0925,3.8261256,8.439426,-9.2428055,-1
650,651,1583935307070,2.8462,-1.5728999,-8.3846,3.564861,8.168652999999999,-8.56518,-1
651,652,1583935307080,2.4679,-1.882,-7.9126997,2.970017,7.806611,-8.065232,-1
652,653,1583935307090,2.0283,-2.1808,-7.5989,2.5370204,7.4944453,-7.825755,-1
653,654,1583935307100,1.5818,-2.5475,-7.4077997,1.9060047999999998,7.0580297000000005,-7.656025,-1
654,655,1583935307110,1.0555,-2.9327998,-7.2092,1.4356209,6.7330217,-7.5070863,-1
655,656,1583935307121,0.9032,-3.2289999,-7.0221,1.3279391999999999,6.5217195,-7.3151193,-1
656,657,1583935307131,0.9138,-3.3676,-6.6095,1.4041896999999999,6.4101685999999996,-6.7814326000000005,-1
657,658,1583935307141,1.2828,-3.3783998,-5.9442,1.7946553,6.402948,-6.046748,-1
658,659,1583935307151,1.6301999,-3.4185998,-5.1324,2.0500112,6.367207,-5.211181,-1
659,660,1583935307161,1.7946,-3.4782998999999997,-4.257,2.0956542000000002,6.28839,-4.2453985,-1
660,661,1583935307171,1.6617998999999999,-3.6555,-3.1834,1.8276281000000003,6.0836854,-3.1592542999999997,-1
661,662,1583935307182,1.3206999,-3.8518,-2.3646,1.4062392,5.865727,-2.5864944,-1
662,663,1583935307192,1.0517,-3.9002,-2.0721,1.3163321000000001,6.104735400000001,-2.2853324,-1
663,664,1583935307203,1.0158,-3.4866998,-1.6753999,1.2951865,6.5928655,-1.8933539000000001,-1
664,665,1583935307213,0.9287,-2.7503,-0.85679996,1.208526,7.369793400000001,-0.91326344,-1
665,666,1583935307223,0.8526,-1.9921999,0.2244,1.191575,8.2677145,0.32961452,-1
666,667,1583935307233,0.87009996,-1.2253,1.1867,1.1753806,8.998128,0.9505650999999999,-1
667,668,1583935307243,0.76489997,-0.5234,1.6360999,1.0939299,9.605633000000001,0.9923200000000001,-1
668,669,1583935307254,0.76489997,-0.5234,1.6360999,1.1101052,10.080623,0.5715438,-1
669,670,1583935307264,0.72169995,0.44099998,1.3234999,1.0557663000000002,10.440481,0.28601129999999997,-1
670,671,1583935307274,0.57589996,0.87509996,1.2590000000000001,0.8512536,10.909697999999999,0.3677973,-1
671,672,1583935307284,0.4235,1.3716999,1.6811,0.70991915,11.445107,0.9071534,-1
672,673,1583935307294,0.1183,1.8867999,2.461,0.2588036,11.946521,1.7751665,-1
673,674,1583935307304,-0.2909,2.3019,3.2828998999999994,-0.124651715,12.324900999999999,2.433754,-1
674,675,1583935307315,-0.6121,2.7048,3.9239,0.24380635,12.71233,2.7751862999999997,-1
675,676,1583935307325,-0.106199995,3.0963,4.2794,1.4417691000000001,13.056453,3.0802457000000003,-1
676,677,1583935307335,1.0759999999999998,3.4081,4.6547,2.4328822999999997,13.149521,3.4647639999999997,-1
677,678,1583935307345,2.2458,3.5128998999999994,5.1026998,4.302189,13.347703,3.754951,-1
678,679,1583935307355,3.8944,3.7250997999999997,5.1977,5.8682456,13.547445999999999,3.3770025,-1
679,680,1583935307366,5.1728,3.9361,4.7774,6.121820400000001,13.633542000000002,3.046478,-1
680,681,1583935307376,5.0976996,3.9283997999999998,4.4402,4.999524,13.321444,2.8151312,-1
681,682,1583935307386,4.0778,3.6613998,4.2532997,3.8667123,12.997796000000001,2.7887566,-1
682,683,1583935307396,2.6748,3.2536,4.207,2.4265425,12.526769999999999,2.7587142000000004,-1
683,684,1583935307407,1.5619999,2.8536,4.1454997,1.7073435000000001,12.108972,2.4089882,-1
684,685,1583935307417,0.8745,2.4232,3.7549,1.4018531,11.632593,2.0022995,-1
685,686,1583935307427,0.4561,1.5131999,3.0105999,1.207281,11.220129,1.7579379000000002,-1
686,687,1583935307437,0.4561,1.5131999,3.0105999,0.8126878000000001,10.690858,1.7395023999999997,-1
687,688,1583935307447,0.0018,0.5527,2.8865,0.6981301,10.284417999999999,1.7463595,-1
688,689,1583935307458,-0.0385,0.22899999,2.886,0.6307381,9.967492,1.8123341,-1
689,690,1583935307468,-0.0385,0.22899999,2.886,0.5180956,9.713515,1.9016761999999998,-1
690,691,1583935307478,-0.0818,-0.16219999,2.8188999,0.52607316,9.573704,1.880789,-1
691,692,1583935307488,-0.0836,-0.2192,2.799,0.49527413,9.532457,1.9707345,-1
692,693,1583935307498,-0.1331,-0.3046,2.8357,0.40073190000000003,9.468158,2.0718656,-1
693,694,1583935307509,-0.1126,-0.34939998,2.8260999,0.43192357,9.406349,2.063936,-1
694,695,1583935307518,-0.0815,-0.44169998,2.7052,0.41092163,9.332493,1.9904915,-1
695,696,1583935307528,-0.2252,-0.621,2.5033,0.18818425,9.133257,1.7607437,-1
696,697,1583935307538,-0.4082,-0.7794,2.1396,-0.023166295,8.98022,1.3557788999999998,-1
697,698,1583935307549,-0.5459,-0.8976,1.6969999,-0.18600075,8.844573,0.9169409,-1
698,699,1583935307559,-0.5233,-0.9662,1.3762,-0.113418125,8.810949,0.5658935,-1
699,700,1583935307569,-0.17469999,-0.8285,0.89949995,0.26907954,8.981531,0.04030878,-1
700,701,1583935307579,0.1696,-0.7298,0.3735,0.57088304,9.068968,-0.47743255,-1
701,702,1583935307590,0.3281,-0.6997,0.0729,0.6737858,9.088992999999999,-0.73863035,-1
702,703,1583935307600,0.264,-0.6990000000000001,0.0968,0.56017613,9.065050999999999,-0.67112345,-1
703,704,1583935307610,-0.0037,-0.7768,0.26929998,0.16457742,8.954209,-0.51159304,-1
704,705,1583935307620,-0.3005,-0.9033,0.32639998,-0.13752295,8.842371,-0.49912402,-1
705,706,1583935307630,-0.53249997,-0.9411,0.31739998,-0.30314425,8.822672,-0.59422165,-1
706,707,1583935307640,-0.49589998,-0.95909995,0.1232,-0.09962752,8.837372,-0.8768812,-1
707,708,1583935307651,-0.13329999,-0.8788,-0.151,0.2590622,8.940562,-1.1216451,-1
708,709,1583935307661,0.0285,-0.7892,-0.2447,0.24294443,9.006125,-1.1059775,-1
709,710,1583935307671,-0.174,-0.7098,-0.1286,0.069230735,9.1019125,-0.9987939,-1
710,711,1583935307681,-0.2023,-0.5912,-0.141,0.15527835,9.231342,-1.1782249,-1
711,712,1583935307692,0.010799999,-0.4526,-0.4445,0.46669695,9.375732000000001,-1.4613729,-1
712,713,1583935307702,0.3859,-0.34289998,-0.6468,0.80533284,9.438316,-1.5837932,d
713,714,1583935307712,0.4639,-0.36159998,-0.513,0.64946073,9.370465,-1.1048954,-1
714,715,1583935307723,0.1699,-0.44959998,0.0843,0.21332337,9.259795,-0.47999915,-1
715,716,1583935307733,-0.3195,-0.509,0.7226,-0.12508267,9.270195,0.036717474,-1
716,717,1583935307744,-0.4985,-0.48009998,1.016,-0.11934617,9.337855000000001,0.08936118,-1
717,718,1583935307754,-0.39699998,-0.3816,0.90639997,0.07783071,9.488375,-0.339086,-1
718,719,1583935307764,-0.27789998,-0.24239999,0.4976,0.22228727,9.612767,-0.78047144,-1
719,720,1583935307774,-0.0799,-0.092099994,-0.064399995,0.5416546,9.8179035,-1.4375361,-1
720,721,1583935307785,0.1485,0.0787,-0.53029996,0.70076364,9.904917999999999,-1.7912555000000001,-1
721,722,1583935307795,0.26139998,0.1713,-0.8082,0.70146275,9.991809,-2.026366,-1
722,723,1583935307805,0.22929999,0.2342,-1.0014,0.5730761,10.001816,-2.1891717999999996,-1
723,724,1583935307815,0.0905,0.2571,-1.1033,0.5503024999999999,10.020817,-2.2038817,-1
724,725,1583935307825,0.058799997,0.2694,-1.0959999999999999,0.51099926,10.044891999999999,-2.1523107999999995,-1
725,726,1583935307835,0.0063,0.32,-1.0194,0.5555793000000001,10.096789,-1.9955479999999999,-1
726,727,1583935307846,0.049599998,0.3696,-0.8444,0.44807008,10.0902,-1.6663357,-1
727,728,1583935307856,-0.11449999,0.3398,-0.4635,0.23435403,10.096339,-1.0895534,-1
728,729,1583935307866,-0.3093,0.3584,-0.0016999998999999999,0.094638005,10.21671,-0.8052754,-1
729,730,1583935307876,-0.47579998,0.4748,0.252,-0.03005202,10.511991499999999,-0.6945579000000001,-1
730,731,1583935307886,-0.5954,0.7682,0.3502,-0.10942459,11.066996000000001,-0.56190956,-1
731,732,1583935307897,-0.6997,1.3167,0.4666,0.034926612,11.888629,-0.20116083,-1
732,733,1583935307907,-0.3556,3.1671999,1.6879,0.3171168,12.914831,0.7539916,-1
733,734,1583935307917,-0.078499995,4.2727,2.7589,0.63681936,14.028557000000001,1.8829917,-1
734,735,1583935307927,0.6236,5.5347,3.6773,1.3743197,15.292963,2.8663,-1
735,736,1583935307937,0.6236,5.5347,3.6773,2.1551167999999996,16.701347,3.4981297999999996,-1
736,737,1583935307948,1.6676999,7.7535996,4.3346,2.4849707999999997,17.690296,3.6721212999999997,-1
737,738,1583935307958,1.8808999,8.5329,4.3441997,2.659824,18.29374,3.731325,-1
738,739,1583935307969,2.142,9.134399,4.3865,2.8987176,18.907239999999998,3.8482482000000005,-1
739,740,1583935307979,2.4315999,9.4112,4.5885,3.210136,19.224415,4.210127,-1
740,741,1583935307989,2.8869998,9.4227,4.835099700000001,3.5981882000000005,19.180754,4.506951,-1
741,742,1583935307999,3.1269,9.0813,4.975,3.6821767999999997,18.772648,4.710209,-1
742,743,1583935308009,2.8207998,8.4267,4.9895997,3.0996196,18.062365,4.7445803,-1
743,744,1583935308019,1.8892,7.5185,4.7251997,1.9455667,17.126911,4.493945,-1
744,745,1583935308029,0.5981,6.4751997,4.141,0.49908572,16.054405,3.8256947999999995,-1
745,746,1583935308040,-0.5955,5.3069997,3.2947,-0.8220731,14.880423,2.9457395,-1
746,747,1583935308050,-1.7364,3.9155998,2.3734999,-1.9826959,13.435877,1.9351661,-1
747,748,1583935308060,-1.3786,2.761,1.0945,-0.7769472,12.292655,0.18518671,-1
748,749,1583935308070,0.96129996,2.1167998,-0.6401,1.7321666,11.640494,-1.6853169,-1
749,750,1583935308080,3.1746,1.3643999,-2.1104,3.2022927000000005,10.992498,-2.6962542999999997,-1
750,751,1583935308090,4.5109,0.4939,-2.7721,4.5958138,10.017636,-3.3443167000000003,-1
751,752,1583935308100,4.9955,-0.3671,-2.9562,4.4560976,9.197833000000001,-3.2837818,-1
752,753,1583935308110,3.3843,-1.6982,-2.2001,1.8843229,7.5272646,-2.1048865,-1
753,754,1583935308120,0.868,-3.0957,-1.0288,-0.71436274,6.2107220000000005,-0.807909,-1
754,755,1583935308130,-1.2038,-4.138099700000001,0.0212,-2.2700287999999995,5.482636,-0.1220181,-1
755,756,1583935308140,-2.4436998,-4.8757997,0.3705,-3.5727620000000004,4.646523,0.19553925,-1
756,757,1583935308151,-2.7979,-5.4679,0.3197,-3.3190627,4.1698084,-0.171693,-1
757,758,1583935308161,-1.2906,-5.5722,-0.6013,-1.1306665,4.37707,-1.604211,-1
758,759,1583935308172,1.4002999,-5.2078,-2.2417998,1.9710121999999999,4.7448573,-3.3853822,-1
759,760,1583935308181,3.6260998,-4.8233,-3.3037,3.2651453,5.093482,-3.9057282999999994,-1
760,761,1583935308191,4.5414,-4.6714997,-3.3379998,3.4842434,5.041250700000001,-3.6260470999999996,-1
761,762,1583935308201,3.82,-4.796,-2.5992,2.2617927000000004,4.896554,-2.9026153,-1
762,763,1583935308212,2.3528,-4.9542,-1.7662,0.6949218,4.707106,-2.194889,-1
763,764,1583935308222,0.8914,-5.1607,-1.2775999,-1.2819322,4.3947199999999995,-2.0235602999999998,-1
764,765,1583935308233,-0.6663,-5.4221,-1.2508999,-2.8085902000000003,4.150263,-2.3545152999999996,-1
765,766,1583935308243,-2.0249999,-5.6129,-1.5613999,-4.1348248,3.9173832,-2.8603144,-1
766,767,1583935308253,-3.0704,-5.8778,-2.0981,-4.225699,3.8360858,-4.3532624,-1
767,768,1583935308263,-2.0686998,-5.5185,-4.0726,-2.165048,4.7448096,-6.9176054,-1
768,769,1583935308273,0.1943,-4.4466,-6.4476,0.18884505,5.7839217000000005,-8.952581,-1
769,770,1583935308283,2.2616,-3.4417998999999995,-7.7707,1.5877291999999998,6.7333765,-8.812845,-1
770,771,1583935308294,2.9759,-2.5922,-6.5122,1.3818278,7.239022,-6.4395595000000005,-1
771,772,1583935308304,2.2087,-2.3460999,-3.7939,0.104894765,7.297239299999999,-3.3766575,-1
772,773,1583935308314,0.81189996,-2.3553998,-0.85139996,-1.7038575,7.261556,-0.27525659999999996,-1
773,774,1583935308325,-0.5998,-2.3614,1.3402,-2.5736613,7.326668700000001,0.78196543,-1
774,775,1583935308335,-1.2384,-2.2745,2.0456,-2.4883704,7.595192999999999,0.1730912,-1
775,776,1583935308345,-0.9869,-1.9770999,1.13,-1.6809595000000002,7.991663000000001,-1.7079372,-1
776,777,1583935308356,-0.0424,-1.5489998999999999,-0.8056,-0.1384136,8.601955,-3.8147485,-1
777,778,1583935308366,1.2579,-1.0216,-2.4428,0.46990517,8.913719,-4.588516,-1
778,779,1583935308376,1.9047999,-0.6522,-3.2303998,0.34005326,8.883293,-4.191979,-1
779,780,1583935308387,1.7287999,-0.72679996,-2.7540998,-0.5999965,8.695252,-2.7648625,-1
780,781,1583935308397,-0.1232,-1.0807999,0.27789998,-1.5671965,8.523598,-1.1075768,-1
781,782,1583935308407,-0.5243,-0.95559996,1.1719998999999999,-1.9491005000000001,8.689669,-0.16811126,-1
782,783,1583935308418,-0.1655,-0.7317,0.70379996,-1.4937425,8.94647,-0.85416496,-1
783,784,1583935308428,0.4784,-0.42749998,-0.38889998,-0.82954305,9.252106,-1.9939008000000003,-1
784,785,1583935308438,0.4784,-0.42749998,-0.38889998,-0.26985526,9.543978,-3.045281,-1
785,786,1583935308448,1.395,0.0491,-2.0485,-0.023683443999999998,9.665785000000001,-3.5321562000000006,-1
786,787,1583935308458,1.2418,0.0046,-1.9233999,-0.24477361,9.579019,-3.2636993,-1
787,788,1583935308468,0.8587,-0.1669,-1.2918,-0.75011295,9.40905,-2.574533,-1
788,789,1583935308479,0.1236,-0.3676,-0.5621,-1.3800945,9.231055,-1.9928951000000001,-1
789,790,1583935308489,-0.6768,-0.5388,-0.12079999599999999,-2.3405237000000003,9.036636,-1.4842135,-1
790,791,1583935308499,-1.1015999,-0.5833,0.036399997999999996,-2.758379,9.001748,-1.4249139,-1
791,792,1583935308509,-1.2264999,-0.5511,-0.34219998,-2.78551,9.065788000000001,-1.8594423999999998,-1
792,793,1583935308519,-0.8681,-0.4235,-0.79819995,-2.4879107000000005,9.159353,-2.2100685,-1
793,794,1583935308529,-0.4351,-0.2595,-1.072,-2.0360484,9.322964,-2.47231,-1
794,795,1583935308539,0.1466,-0.1469,-1.2846999,-1.2244713,9.485875,-2.6655412,-1
795,796,1583935308550,0.6196,-0.065299995,-1.1152999,-0.80510294,9.55231,-2.2367494,-1
796,797,1583935308560,0.81439996,-0.042799998,-0.44669998,-0.7785178,9.552071,-1.5963484,-1
797,798,1583935308570,0.5588,-0.13699999999999998,0.32369998,-1.0523187,9.464749000000001,-0.69141674,-1
798,799,1583935308580,0.3119,-0.21949999,0.75339997,-1.312578,9.374784,-0.45347136,-1
799,800,1583935308590,0.21579999,-0.2706,0.7604,-1.4057508,9.323922,-0.43067858,-1
800,801,1583935308601,0.1105,-0.2812,0.79679996,-1.5628487,9.351685,-0.35788527,-1
801,802,1583935308611,-0.035,-0.2907,0.7937,-1.6470575,9.328307,-0.41724232,-1
802,803,1583935308621,-0.0077,-0.2409,0.6027,-1.5844443000000001,9.386764999999999,-0.715579,-1
803,804,1583935308631,0.113299996,-0.2109,0.2601,-1.4274997,9.441572,-1.0258484,-1
804,805,1583935308641,0.2904,-0.1519,0.0841,-1.2940372,9.489638000000001,-1.0646632,-1
805,806,1583935308652,0.3595,-0.093399994,0.17819999,-1.2162066,9.556092,-0.9186073,-1
806,807,1583935308661,0.38149998,-0.035099998,0.3175,-1.300626,9.561656,-0.78019375,-1
807,808,1583935308671,0.1717,-0.094,0.4849,-1.5123885,9.532983999999999,-0.5584045,-1
808,809,1583935308681,0.0343,-0.0736,0.6842,-1.6354791000000002,9.553995,-0.43983403,-1
809,810,1583935308692,-0.0415,-0.0714,0.6257,-1.7226471999999997,9.516808000000001,-0.5699637,-1
810,811,1583935308702,-0.0415,-0.0714,0.6257,-1.7516459,9.480263,-0.72655404,-1
811,812,1583935308713,-0.0424,-0.103099994,0.23600000000000002,-1.6560404999999998,9.541400999999999,-1.1158608,-1
812,813,1583935308723,0.069299996,-0.03,-0.0602,-1.5542486999999998,9.636997000000001,-1.3806596000000002,-1
813,814,1583935308733,0.15079999,0.0427,-0.23099999,-1.6058868,9.601438499999999,-1.3480216999999999,-1
814,815,1583935308743,0.046499997,-0.0321,-0.0645,-1.8185303,9.497684,-1.1963443,-1
815,816,1583935308753,-0.1661,-0.1275,0.0563,-1.9504411,9.413656,-0.99643797,-1
816,817,1583935308764,-0.2547,-0.20459999,0.2986,-2.0073657,9.348955,-0.76731294,-1
817,818,1583935308773,-0.2794,-0.2536,0.50729996,-1.9761741000000002,9.353332,-0.5418845,-1
818,819,1583935308783,-0.1618,-0.2154,0.7249,-1.8343129,9.396581,-0.3503196,d
819,820,1583935308793,-0.067099996,-0.17729999,0.8968,-1.8260863999999997,9.413475,-0.21368729,-1
820,821,1583935308803,-0.1304,-0.1682,0.9277,-1.8238263,9.444598,-0.39319494,-1
821,822,1583935308813,-0.0077,-0.109,0.7116,-1.5325094,9.5574045,-0.6204430000000001,-1
822,823,1583935308824,0.3112,0.0,0.5021,-1.3023117,9.625419,-0.8181466,-1
823,824,1583935308834,0.4766,0.0219,0.3653,-1.2123471000000001,9.594945,-0.9640684000000002,-1
824,825,1583935308844,0.51919997,-0.0042,0.2197,-1.2963069999999999,9.494092,-1.1183698,-1
825,826,1583935308854,0.3897,-0.1276,0.1322,-1.6351153,9.400314999999999,-1.0999538,-1
826,827,1583935308864,0.0466,-0.1919,0.2197,-1.888211,9.374746,-1.0586778000000001,-1
827,828,1583935308875,-0.1601,-0.17809999,0.2278,-1.8896573,9.44593,-1.2051454,-1
828,829,1583935308885,-0.06839999599999999,-0.067099996,0.059899997,-1.6762955000000002,9.598564999999999,-1.3650301999999999,-1
829,830,1583935308895,0.095699996,0.0328,-0.040599998,-1.6445676,9.621167,-1.430277,-1
830,831,1583935308905,0.0885,0.0628,-0.056399997,-1.7279049,9.653805,-1.2721063999999997,-1
831,832,1583935308915,-0.0001,0.1016,0.13,-1.7240647,9.793051,-1.065257,-1
832,833,1583935308926,0.0069,0.24769999,0.345,-1.6434567,9.925192,-0.89912814,-1
833,834,1583935308936,0.0733,0.3845,0.5135,-1.6096983999999999,10.139693,-0.9102180000000001,-1
834,835,1583935308946,0.083799995,0.5717,0.49109998,-1.7196113999999998,10.253323,-1.0367372,-1
835,836,1583935308956,-0.0188,0.6821,0.3863,-1.7940901999999999,10.3344755,-1.1565239999999999,-1
836,837,1583935308966,-0.0984,0.79389995,0.2767,-1.7249553,10.636422999999999,-1.3703835,-1
837,838,1583935308977,-0.0298,1.0733,0.11229999,-1.4412425,10.896434,-1.7481693999999999,-1
838,839,1583935308987,0.25439999,1.3435999,-0.22469999,-1.1170866000000002,11.217821,-2.114578,-1
839,840,1583935308997,0.8225,1.9858999,-0.6745,-0.8826655000000001,11.525228,-2.2784467,-1
840,841,1583935309008,1.1107,2.3095,-0.8074,-0.5422771,11.871851,-2.538323,-1
841,842,1583935309017,1.1107,2.3095,-0.8074,-0.31360212,12.004499000000001,-3.0516303,-1
842,843,1583935309027,1.4239,2.4882998,-1.3562,0.058552597000000005,12.230042,-4.019357,-1
843,844,1583935309037,1.8004999,2.738,-2.271,0.47073838,12.529594,-4.96839,-1
844,845,1583935309047,2.6561,3.2809,-3.8151998999999996,0.85434693,12.755033500000001,-5.670724,-1
845,846,1583935309057,3.0010998,3.3772,-4.3443,1.1529804,12.829310000000001,-6.258108,-1
846,847,1583935309068,3.5526998,3.3279998,-4.9955997000000005,1.6655886000000002,12.759668,-6.954313000000001,-1
847,848,1583935309078,4.157,3.0946999,-5.6229,2.1981359,12.498643,-7.61631,-1
848,849,1583935309088,4.157,3.0946999,-5.6229,2.2164848,12.129121000000001,-8.0216675,-1
849,850,1583935309098,4.1695,2.3806,-6.4424,1.9819968000000001,11.652809,-8.579028,-1
850,851,1583935309108,4.0989,1.9861,-6.8834995999999995,1.8543859,11.319365,-8.940697,-1
851,852,1583935309118,4.0836,1.5028,-7.2321,1.7315537,10.810692999999999,-9.283881,-1
852,853,1583935309129,3.9952998,0.9887,-7.2962,1.4740908000000001,10.168988,-9.285260000000001,-1
853,854,1583935309139,3.9952998,0.9887,-7.2962,1.2556247999999999,9.694476,-8.943885,-1
854,855,1583935309149,3.4822998,-0.1422,-6.258899700000001,0.61384463,8.971946,-7.9661990000000005,-1
855,856,1583935309159,2.8507,-0.7872,-5.3222,-0.22436543,8.260512,-6.907952000000001,-1
856,857,1583935309169,2.0856,-1.5289999,-4.2639,-1.2844412,7.352737400000001,-5.553121,-1
857,858,1583935309179,1.3519,-2.2975,-3.3996,-1.9877523999999998,6.689217599999999,-4.816080599999999,-1
858,859,1583935309190,0.7367,-3.1699998,-2.6144,-2.6966085,5.7857704000000005,-3.908429,-1
859,860,1583935309200,0.7367,-3.1699998,-2.6144,-3.2903322999999998,4.812776599999999,-2.7907102000000004,-1
860,861,1583935309210,0.1779,-4.6983,-0.9952,-3.4593055,4.0441036,-1.9363346000000001,-1
861,862,1583935309220,0.1514,-5.4140997,-0.37799999999999995,-3.6228104,3.3272989,-1.2719915000000002,-1
862,863,1583935309230,0.107499994,-6.0407996,0.0902,-3.8179379,2.6986675,-0.9019628000000001,-1
863,864,1583935309240,-0.0642,-6.6194,0.251,-4.0554233,2.2122998,-0.6529946,-1
864,865,1583935309251,-0.39589998,-7.2994,0.6389,-4.731824,1.2467948999999998,0.09354625,-1
865,866,1583935309261,-1.176,-8.0539,1.7025,-5.6254835,0.6156738,1.5226356,-1
866,867,1583935309271,-1.8218,-8.4741,3.0226998,-6.1114106,0.267327,2.772907,-1
867,868,1583935309281,-1.9770999,-8.690499,3.9708997999999998,-6.139087,0.13204502,3.5686437999999994,-1
868,869,1583935309291,-1.7500999,-8.6544,4.3577,-5.788873000000001,0.27175146,3.830761,-1
869,870,1583935309301,-1.3024,-8.491,4.3433,-5.1829867,0.471629,3.6399336000000004,-1
870,871,1583935309312,-0.871,-8.323999,4.005,-4.9054127,0.6669288000000001,3.2316072,-1
871,872,1583935309322,-0.7234,-8.1111,3.6423,-4.6494727,0.9318903000000001,2.9809632,-1
872,873,1583935309332,-0.4825,-7.9683,3.4336998,-4.368518,0.9993973,2.8409693,-1
873,874,1583935309342,-0.311,-7.884299799999999,3.3818998,-4.3054255999999995,1.1301206,2.9504799999999998,-1
874,875,1583935309352,-0.2649,-7.8582997,3.7149,-3.9164255,1.1153342,3.7585232000000004,-1
875,876,1583935309362,0.057,-7.9400997,4.9052997000000005,-3.7707143,0.9482475,5.5917153,-1
876,877,1583935309373,0.124299996,-8.0812,6.9421,-3.606817,0.9810194,7.154420399999999,-1
877,878,1583935309382,0.4296,-7.9997997000000005,8.550099000000001,-3.180477,1.1366041,8.705652,-1
878,879,1583935309392,0.7873,-7.620199700000001,9.9052,-2.766251,1.7778575,9.854534,-1
879,880,1583935309402,0.98389995,-6.8763,10.6098995,-2.6032537999999996,2.667064,10.4968605,-1
880,881,1583935309412,0.9058,-5.8183,11.2633,-2.4481575,3.8929431000000005,11.199798,-1
881,882,1583935309422,1.4205999,-4.398,12.030399000000001,-1.1072034,5.8131123,12.055457,-1
882,883,1583935309433,2.5576,-2.8486,12.6095,0.1837885,7.3741316999999995,12.579088,-1
883,884,1583935309443,3.5635998,-1.36,13.134,1.1937202,8.97615,13.052747,-1
884,885,1583935309453,4.04,0.2303,13.5924,1.4474194,10.746029,13.380723999999999,-1
885,886,1583935309463,3.7993,1.9554,13.837999,1.3058551999999999,12.466369,13.186535000000001,-1
886,887,1583935309473,3.4585,3.5317,13.4186,1.2877071000000002,14.045767000000001,12.214564999999999,-1
887,888,1583935309483,3.4166,5.019,12.200999000000001,1.7521151000000001,15.452341,9.986502999999999,-1
888,889,1583935309494,3.7612,6.2918997,9.5464,3.0070407,16.760417999999998,5.8896885,-1
889,890,1583935309504,4.8079,7.3328,6.2876997,4.4960523,17.607859,3.1906567000000003,-1
890,891,1583935309514,6.5052,8.318999999999999,3.3179998,6.5333934000000005,18.422404999999998,-0.026441562999999998,-1
891,892,1583935309524,7.7303996,8.8769,1.1276,6.898642999999999,18.819181,-1.6535218999999997,-1
892,893,1583935309534,7.5889997000000005,9.3838,-0.6498,6.315588,19.355684,-3.784275,-1
893,894,1583935309544,6.7897997000000005,9.7828,-2.1513999,5.6039257000000005,19.33634,-5.156545599999999,-1
894,895,1583935309555,5.8855,9.7156,-3.3156998,4.9427624,19.22069,-5.77356,-1
895,896,1583935309565,5.1924,9.6026,-3.6876998,4.826537999999999,18.914154,-5.816665,-1
896,897,1583935309575,4.950599700000001,9.2287,-3.7371,4.506031,18.3058,-6.0152019999999995,-1
897,898,1583935309585,4.4722,8.5673,-3.9868998999999996,4.1283603,17.603271,-6.2740054,-1
898,899,1583935309595,4.0378,7.8655,-4.2374,3.7680042,16.847471,-6.184625,-1
899,900,1583935309606,3.6188,7.0848,-4.08,3.3424876000000006,16.158497,-5.733328,-1
900,901,1583935309616,3.1904,6.4312997,-3.659,2.951639,15.600723,-5.590633400000001,-1
901,902,1583935309626,2.8005,5.8764,-3.6864,2.5076199,14.927378,-6.2387824,-1
902,903,1583935309636,2.3909,5.1461,-4.4736,2.1387596,14.173119,-7.0689955,-1
903,904,1583935309647,2.1145,4.417,-5.2655,2.245809,13.354991,-7.608208,-1
904,905,1583935309657,2.2755,3.728,-5.6905,2.3274515,12.616888000000001,-7.8593210000000004,-1
905,906,1583935309667,2.4059,2.9910997999999998,-5.9438,2.1812232000000003,11.873018,-7.845281599999999,-1
906,907,1583935309677,2.0681,1.5328,-6.2128997,1.8691436999999997,11.16152,-8.122291,-1
907,908,1583935309687,2.0681,1.5328,-6.2128997,1.3550031999999999,10.476155,-9.095736,-1
908,909,1583935309697,1.6281999,0.853,-7.1510997000000005,0.9671713,9.855644999999999,-10.276287,-1
909,910,1583935309707,1.3427,0.24839999,-8.290999000000001,0.7366767,9.196817999999999,-11.667155000000001,-1
910,911,1583935309717,1.1908,-0.3971,-9.644299499999999,0.6191884,8.599111,-12.588683,-1
911,912,1583935309728,1.2585,-1.5258,-10.8046,0.63098705,8.038024,-12.915578,-1
912,913,1583935309738,1.3091999,-2.0052,-10.770999999999999,0.58140796,7.4493284,-12.878200999999999,-1
913,914,1583935309748,1.2480999,-2.467,-10.582,0.42324698,6.9953117,-12.694229,-1
914,915,1583935309758,1.3033999,-2.8019,-10.3974,0.4900165,6.712221,-12.519012,-1
915,916,1583935309768,1.5947,-2.9889,-10.2514,0.6558102,6.534361,-12.414549000000001,-1
916,917,1583935309779,1.6352999,-3.1843,-10.1730995,0.58038324,6.2911577,-12.325552,-1
917,918,1583935309789,1.5545,-3.3885,-10.0765,0.34530136,6.0381384,-12.217669,-1
918,919,1583935309799,1.2437999,-3.7101,-9.9558,-0.0499622,5.675455,-12.057333999999999,-1
919,920,1583935309809,1.084,-4.0326,-9.5708,-0.28073454,5.3834485999999995,-11.643644,-1
920,921,1583935309819,0.9058,-4.3768,-8.9451,-0.49952623,5.095781,-11.102909,-1
921,922,1583935309829,0.73579997,-4.7732,-8.2583,-0.87934244,4.543582,-10.099126,-1
922,923,1583935309840,0.6283,-5.1344,-7.5516,-0.97009224,4.266841,-9.419766000000001,-1
923,924,1583935309850,0.7558,-5.382999999999999,-6.611000000000001,-0.85505563,4.0398035000000005,-8.366988000000001,-1
924,925,1583935309860,1.1055,-5.607599700000001,-5.496299700000001,-0.5994602,3.7781365,-6.875285000000001,-1
925,926,1583935309870,1.1565,-5.8566,-4.3029,-0.61402655,3.578412,-5.4908047,-1
926,927,1583935309880,1.3496,-5.9914,-2.9671,-0.31923327,3.5196586,-3.9811837999999997,-1
927,928,1583935309890,1.8604,-5.9614,-1.5787,0.36024114,3.6232507000000007,-2.4787555,-1
928,929,1583935309901,2.5932,-5.7548,-0.3347,0.8754158999999999,3.8381352,-1.4475248,-1
929,930,1583935309911,3.073,-5.5368,0.4087,1.4374499,4.0575013,-0.5876616,-1
930,931,1583935309921,3.4512,-5.375099700000001,0.9288,1.7308259,4.3305073,0.22894314,-1
931,932,1583935309931,3.6829998,-5.0834,1.8212999,1.9598744,4.6361227,1.3064871999999998,-1
932,933,1583935309941,3.8492,-4.7889,2.8028,1.9878291000000001,4.8891134,2.3552241,-1
933,934,1583935309951,3.7840998,-4.5702,3.8251998,1.9460933999999996,5.0860887,3.2874974999999997,-1
934,935,1583935309962,3.7338,-4.3683,5.273,1.8509381999999999,5.330642,5.610735,-1
935,936,1583935309972,3.5904,-4.232199700000001,6.9073997,1.6222537000000001,5.505505,6.726078500000001,-1
936,937,1583935309982,3.1908998,-3.9178998,7.7528,0.9111469999999999,5.9502425,7.3031864,-1
937,938,1583935309992,2.5246,-3.5063,7.8931,0.38791809999999993,6.3363123,7.0774326,-1
938,939,1583935310002,2.2166997999999998,-3.0888999,7.5839,0.6347603,6.8323045,6.807232400000001,-1
939,940,1583935310012,2.6016,-2.5403,7.4108996,0.99596876,7.4215655,6.8419485,-1
940,941,1583935310023,2.8179,-2.0174,7.6383996,1.35802,7.918267,7.465638,-1
941,942,1583935310032,3.2106,-1.5487,8.435699000000001,1.9814126,8.322312,8.245918,-1
942,943,1583935310042,3.9406,-1.0932,9.5482,2.9153333,8.768927,9.559817,-1
943,944,1583935310052,4.8090997,-0.6777,10.9221,4.1367016,9.2773695,11.2281065,-1
944,945,1583935310062,5.5318,-0.3777,12.2385,4.5951624,9.48984,12.466906,-1
945,946,1583935310072,5.4941998,-0.1025,13.1529,4.323708,9.966497,13.007439999999999,-1
946,947,1583935310083,4.8512,0.4035,13.475698999999999,3.6195543,10.483185,12.847075,-1
947,948,1583935310092,4.0162997,0.9149,12.920199,3.069223,11.078574,11.574432,-1
948,949,1583935310102,3.3943,1.5781,11.3159,2.7071717,11.822108,9.501486,-1
949,950,1583935310112,3.0451,2.3824,9.302899,2.8298411,12.661027,7.6304164000000005,-1
950,951,1583935310122,3.3134,3.2089999,7.8092,3.5506873,13.567442999999999,6.430414,-1
951,952,1583935310133,3.9527997999999998,4.1548,6.9649997,4.1212254,14.424356,5.915651,-1
952,953,1583935310144,4.0094,4.9252,6.8219,3.7429992999999997,15.237418,6.1489806,-1
953,954,1583935310154,3.4127998,5.6082,7.1191998,3.5623136,15.908445,6.1120043,-1
954,955,1583935310164,3.2710000000000004,6.2832,6.9874997,4.180123,16.498713000000002,5.577886599999999,-1
955,956,1583935310174,4.0242,6.9902997000000004,6.2808,5.384693599999999,17.226368,4.565101,-1
956,957,1583935310184,5.2599998,7.7788997,5.0871997,6.335459999999999,17.818941,3.4314656,-1
957,958,1583935310196,5.7989999999999995,8.4229,3.5036,6.180134,18.268879000000002,0.5412045,-1
958,959,1583935310206,5.0856,8.5655,1.2947,5.0826125,18.085157000000002,-1.8793142,-1
959,960,1583935310217,3.978,8.3206,-0.9869,3.9470138999999995,17.53408,-3.9495614000000003,-1
960,961,1583935310227,2.7818,7.706,-2.8634,2.5149652999999996,16.490925,-5.4961294999999994,-1
961,962,1583935310237,1.6041,6.8197,-4.0193,2.1057099999999997,15.61847,-5.205761,-1
962,963,1583935310248,0.77809995,4.9426,-2.6176999,1.7108965,14.623085000000001,-3.9757633,-1
963,964,1583935310258,0.3473,3.9366999,-1.1197,1.2360497,13.434268,-2.043183,-1
964,965,1583935310268,0.3473,3.9366999,-1.1197,1.1563324,12.611706,-0.7749264,-1
965,966,1583935310279,0.1832,3.0253,0.0774,1.4093995000000001,11.935086,-0.41990465,-1
966,967,1583935310289,0.7899,1.7835,-0.2895,1.8145461999999999,11.394293,-1.4419223,-1
967,968,1583935310299,0.9468,1.1422,-1.811,1.8665005000000001,10.872683,-2.7151492000000004,-1
968,969,1583935310309,0.53929996,0.46379998,-3.593,1.2449179,10.049719,-4.8995614000000005,-1
969,970,1583935310321,-0.1292,-0.15439999,-5.1917,0.41716570000000003,9.450231,-6.731068,-1
970,971,1583935310331,-0.5259,-0.41009998,-6.2051997000000005,0.12456553,9.280510000000001,-7.340507499999999,-1
971,972,1583935310341,-0.87039995,-0.6092,-6.3627,-0.44595358,9.08135,-7.425128,-1
972,973,1583935310351,-1.2469,-0.7127,-6.3535,-0.64886695,9.036760000000001,-7.393409700000001,-1
973,974,1583935310361,-0.98039997,-0.6604,-6.3816,-0.06097553,9.181802000000001,-7.2558007,-1
974,975,1583935310372,-0.0466,-0.38259998,-6.0920997,1.1555758,9.5315275,-6.559489999999999,-1
975,976,1583935310382,0.83129996,-0.163,-5.3761997,1.6672359,9.612596,-5.821453599999999,-1
976,977,1583935310392,1.2436,-0.1192,-4.4783998,1.9352141999999999,9.610114999999999,-4.7097587999999995,-1
977,978,1583935310402,1.3018,-0.2412,-3.7452998,1.9162711,9.440767999999998,-3.9851199999999998,-1
978,979,1583935310412,1.2904999,-0.40179998,-2.9972,1.9266811999999998,9.267313,-3.1121366000000004,-1
979,980,1583935310423,1.2663,-0.6204,-2.2832,1.7906234,9.040066,-2.686754,-1
980,981,1583935310433,1.1608,-0.8088,-2.0704,1.5669763,8.820431,-2.7919647999999997,-1
981,982,1583935310443,0.7872,-1.1041,-2.3462,0.9415916999999999,8.513465,-3.3766384,-1
982,983,1583935310453,0.18429999,-1.3984,-3.0823,0.48222095,8.2510605,-4.2063440000000005,-1
983,984,1583935310464,-0.06399999599999999,-1.5838,-3.7752998,0.39556040000000003,8.1936865,-4.676498400000001,-1
984,985,1583935310474,-0.0792,-1.6018,-3.9852998,0.28906634,8.157237,-4.6246204,-1
985,986,1583935310484,-0.2236,-1.6198,-3.7393,-0.016414646,8.155379,-4.1311279999999995,-1
986,987,1583935310494,-0.42909998,-1.6086999,-3.2268999,-0.08832689,8.193207000000001,-3.5381703,-1
987,988,1583935310505,-0.4046,-1.5586,-2.5941,0.10105447,8.299022,-3.128762,-1
988,989,1583935310515,-0.20009999,-1.4494,-2.2668,0.26515305,8.465753999999999,-3.1669064,-1
989,990,1583935310525,-0.0689,-1.2807,-2.3564,0.20396683,8.621387,-3.568165,-1
990,991,1583935310535,-0.1274,-1.0919,-2.7661998,0.13151829,8.889997,-3.9859245000000003,-1
991,992,1583935310545,-0.2104,-0.8146,-3.1474,0.0046926355,9.198044,-4.2259574,-1
992,993,1583935310555,-0.3118,-0.5,-3.2680000000000002,0.035529952000000004,9.44186,-3.9648266000000003,-1
993,994,1583935310566,-0.2191,-0.2852,-2.9104997999999997,0.6206441,9.722288,-3.0602972999999998,-1
994,995,1583935310576,0.3724,-0.0033,-1.9476999,1.0139636,9.860022,-1.9872736,-1
995,996,1583935310586,0.6663,0.0916,-0.95589995,1.1735323999999998,9.889728999999999,-1.0998197,-1
996,997,1583935310596,0.77709997,0.0989,-0.166,1.3061040000000002,9.829348,-0.69620514,-1
997,998,1583935310606,0.89419997,0.038599997999999996,0.0793,1.4567376,9.783513000000001,-0.9388334999999999,-1
998,999,1583935310616,1.0097,0.0089,-0.1856,1.4596491000000003,9.731788,-1.3660261999999999,-1
999,1000,1583935310627,1.0074999,-0.039499998,-0.602,1.1713583,9.549887,-1.7683476999999999,-1
1000,1001,1583935310637,0.72999996,-0.2251,-0.99109995,0.53651184,9.395786,-1.7999798999999999,-1
1001,1002,1583935310647,-0.47619998,-0.55829996,-0.8440000000000001,-0.08551130400000001,9.219381,-1.6335639,-1
1002,1003,1583935310657,-0.65209997,-0.66639996,-0.616,-0.25859293,9.11396,-1.4147433999999999,-1
1003,1004,1583935310667,-0.6486,-0.74509996,-0.4603,-0.2607094,9.036685,-1.259714,-1
1004,1005,1583935310678,-0.6486,-0.74509996,-0.4603,-0.44326252,8.93924,-1.0113299999999998,-1
1005,1006,1583935310688,-0.82729995,-0.8336,-0.2191,-0.5186510999999999,8.892908,-0.9602280999999999,-1
1006,1007,1583935310698,-0.9148,-0.87289995,-0.1563,-0.32473993,8.959744,-1.2654792,-1
1007,1008,1583935310708,-0.8189,-0.83339995,-0.4104,0.44022664,9.259008999999999,-1.5857373,d
1008,1009,1583935310718,0.4592,-0.3233,-0.7748,0.9922242,9.492474000000001,-1.4415966,-1
1009,1010,1583935310729,0.4283,-0.226,-0.2278,0.9558610999999999,9.555048,-0.94431144,-1
1010,1011,1583935310739,0.2076,-0.2074,0.278,0.7081474,9.560516,-0.30571082,-1
1011,1012,1583935310749,-0.0278,-0.2571,0.5652,0.49720865,9.513542,-0.08088571,-1
1012,1013,1583935310759,-0.21059999,-0.2768,0.4908,0.3275268,9.499388,-0.20688775,-1
1013,1014,1583935310770,-0.40179998,-0.2665,0.1425,0.19896774,9.531450999999999,-0.5691305,-1
1014,1015,1583935310780,-0.4662,-0.1478,-0.18969999,0.1463336,9.656572,-0.87296426,-1
1015,1016,1583935310790,-0.36699998,0.0005999999700000001,-0.3538,0.3008458,9.824434,-0.9987939,-1
1016,1017,1583935310800,-0.2033,0.22749999,-0.3839,0.544882,10.128096000000001,-0.9711648,-1
1017,1018,1583935310810,-0.0624,0.50339997,-0.195,0.6318585999999999,10.334103,-0.76119334,-1
1018,1019,1583935310820,-0.080299996,0.7888,0.0945,0.64734423,10.676311,-0.40976283,-1
1019,1020,1583935310831,0.0378,1.084,0.2619,0.9573646,10.985201,-0.30145872,-1
1020,1021,1583935310841,0.5081,1.4577,0.2907,1.4751347,11.418369,-0.28826186,-1
1021,1022,1583935310851,0.8152,1.9589,0.25259998,1.5754901000000001,11.940468,-0.34016818,-1
1022,1023,1583935310861,0.5821,2.4989,0.1317,1.1846318,12.502187,-0.5059906,-1
1023,1024,1583935310871,0.0739,3.1562997999999998,-0.1689,0.71014893,13.373263,-1.0037163,-1
1024,1025,1583935310882,-0.1848,3.9115998999999997,-0.71129996,0.62013656,14.017744,-1.442995,-1
1025,1026,1583935310892,-0.1582,4.7156,-1.1107,0.7307774,14.789960999999998,-1.7143251,-1
1026,1027,1583935310902,0.0854,5.4894,-1.2276,1.1250546000000001,15.676754,-1.712582,-1
1027,1028,1583935310912,0.45049998,6.1739999999999995,-1.1932,1.446165,16.296747,-1.5590276,-1
1028,1029,1583935310922,0.7269,6.7299,-0.98569995,1.539893,16.831766000000002,-1.1189636,-1
1029,1030,1583935310933,0.6961,7.2943997000000005,-0.5462,1.3267612,17.369446,-0.6533106,-1
1030,1031,1583935310943,0.5119,7.75,-0.192,1.1620593000000001,17.745047,-0.4357926,-1
1031,1032,1583935310953,0.3718,8.2934,-0.0298,0.9644419,18.296497,-0.28118464,-1
1032,1033,1583935310963,0.3821,8.6112995,0.0783,0.93994445,18.481092,-0.22091779,-1
1033,1034,1583935310973,0.5204,8.6848,0.1849,0.96992946,18.41779,-0.13941915,-1
1034,1035,1583935310983,0.6265,8.4851,0.2722,0.8683291,18.060268,-0.21238483,-1
1035,1036,1583935310994,0.7069,8.042399000000001,0.0831,0.9351752000000001,17.686705,-0.57208014,-1
1036,1037,1583935311004,1.1005,7.6614,-0.55869997,1.3101263,17.226433,-1.7683668999999997,-1
1037,1038,1583935311014,1.5897,7.195399799999999,-1.7156,1.5235646,16.441319,-3.2011242,-1
1038,1039,1583935311024,1.9008,6.5168,-2.8005998,1.8763549,15.748216000000001,-3.9310782,-1
1039,1040,1583935311034,2.4921,5.811,-3.2975,2.2113326,14.892845000000001,-3.678557,-1
1040,1041,1583935311045,2.9115999,4.9405,-2.9004998,1.9441205000000001,13.778047,-2.8044722,-1
1041,1042,1583935311054,2.7105,3.7684,-1.9509999999999998,1.2619548999999999,12.755052000000001,-1.8553435,-1
1042,1043,1583935311064,1.925,2.4719,-0.8063,0.14564407,11.38556,-0.7109534000000001,-1
1043,1044,1583935311075,1.0367,1.1487,0.1788,-0.8970690999999998,9.964667,0.056867078,-1
1044,1045,1583935311085,0.39899999999999997,0.0431,0.5528,-1.7597574,8.758650999999999,0.16077544,-1
1045,1046,1583935311095,-0.3182,-1.1701,0.5365,-2.4390116,7.5935936,-0.12160629,-1
1046,1047,1583935311105,-0.73829997,-2.2479,0.1206,-2.4164295,6.6399927,-0.89310426,-1
1047,1048,1583935311116,-0.4549,-3.1731,-0.7769,-1.6004473,5.946421599999999,-1.6585785,-1
1048,1049,1583935311126,0.5552,-3.7694,-1.4580000000000002,-0.59478676,5.6608315000000005,-1.5538370000000001,-1
1049,1050,1583935311136,1.7852999,-4.044699700000001,-1.1258,0.33051476,5.258749,-0.13537775,-1
1050,1051,1583935311146,2.3497,-4.3384,-0.0626,0.18959203,4.8508058,1.3936648,-1
1051,1052,1583935311156,2.2684,-4.7363,1.3486999,0.13314635,4.4980154,2.228925,-1
1052,1053,1583935311167,1.6916,-5.6203,2.3683999,-0.56980085,3.9351962,2.5703096000000003,-1
1053,1054,1583935311177,0.9996,-6.0701,2.1771,-1.341452,3.4662101,2.4224436000000003,-1
1054,1055,1583935311187,0.9996,-6.0701,2.1771,-1.9182631999999997,3.0688014,1.6555904,-1
1055,1056,1583935311197,0.4937,-6.4437,1.3816,-2.1235993,2.7255113,0.73911875,-1
1056,1057,1583935311207,0.3762,-6.7665,0.47200000000000003,-1.4223952,2.7996933,-0.12963165,-1
1057,1058,1583935311218,2.2027,-6.461,-0.4998,-0.097233325,3.102378,-0.19713856,-1
1058,1059,1583935311228,3.1216,-6.2401,-0.1891,0.5868475999999999,3.228514,0.11574528,-1
1059,1060,1583935311238,3.3335998,-6.2419,0.2584,0.7243418,3.2540457000000003,0.70040935,-1
1060,1061,1583935311248,3.0194,-6.014199700000001,0.83059996,0.347188,3.4953141000000003,1.3415574,-1
1061,1062,1583935311259,3.0194,-6.014199700000001,0.83059996,-0.10220368,3.7224760000000003,2.050059,-1
1062,1063,1583935311268,1.8511,-5.3346,2.3559,-0.88012767,4.088751,2.7823017000000005,-1
1063,1064,1583935311278,1.0090000000000001,-5.1110997000000005,2.2872999,-1.7740556,4.2932253,2.7197459999999998,-1
1064,1065,1583935311288,1.0090000000000001,-5.1110997000000005,2.2872999,-2.757747,4.5557637,1.7370125,-1
1065,1066,1583935311298,-0.2985,-4.5592,0.61689997,-3.1898906000000005,4.815926999999999,0.9923392,-1
1066,1067,1583935311308,-0.62079996,-4.1561,-0.1286,-3.6067116,5.2813888,0.09303868,-1
1067,1068,1583935311319,-0.7194,-3.7561,-0.45679998,-3.7266612,5.652528299999999,-0.25176468,-1
1068,1069,1583935311329,-0.9079,-3.4768999,-0.5419,-3.9771616,5.964407,-0.26637888,-1
1069,1070,1583935311339,-1.1755999,-3.1711,-0.2497,-4.202303,6.288437999999999,0.07890331,-1
1070,1071,1583935311349,-1.2198,-2.8002,0.1968,-4.2076373,6.643497999999999,0.54057246,-1
1071,1072,1583935311359,-1.05,-2.2561998,0.6469,-3.9238763,7.2142563,0.9055158000000001,-1
1072,1073,1583935311369,-0.45839998,-1.6466999,0.5302,-3.134776,7.971102,0.6223583,-1
1073,1074,1583935311380,0.0906,-1.0971,0.24159999,-2.674419,8.428002000000001,0.37019145,-1
1074,1075,1583935311390,0.3296,-0.7816,0.06399999599999999,-2.5583193,8.646218,0.2558827,-1
1075,1076,1583935311400,0.3405,-0.5815,0.035499997,-2.5486565,8.901125,0.22427924,-1
1076,1077,1583935311410,0.2613,-0.3595,-0.0199,-2.6829807999999997,9.082403999999999,0.12137645,-1
1077,1078,1583935311420,-0.0164,-0.2626,-0.0635,-3.0194619,9.141761,0.14773183,-1
1078,1079,1583935311431,-0.41700000000000004,-0.2821,-0.018000000000000002,-3.4494220999999996,9.095783,0.12831005,-1
1079,1080,1583935311441,-0.7782,-0.2426,-0.021,-3.7389864999999998,9.232357,0.12516886,-1
1080,1081,1583935311451,-0.98709995,-0.0574,0.0242,-3.8639061000000003,9.369814,0.17044802,-1
1081,1082,1583935311461,-1.1242,0.0866,0.13669999,-3.9906552000000004,9.521328,0.28587726,-1
1082,1083,1583935311471,-1.0623,0.1893,0.23979999,-3.697289,9.642897,0.2624428,-1
1083,1084,1583935311481,-0.5469,0.37809998,0.021599998999999998,-3.1444776,9.884749000000001,-0.011999738000000001,-1
1084,1085,1583935311491,-0.0845,0.6247,-0.23349999,-2.7759714,10.087002,-0.2614181,-1
1085,1086,1583935311501,0.2703,0.7833,-0.45009997,-2.41732,10.235998,-0.47666642,-1
1086,1087,1583935311511,0.6383,0.9037,-0.5517,-1.963255,10.373347,-0.52860147,-1
1087,1088,1583935311521,0.8646,0.9963,-0.4123,-1.8294096000000002,10.440013,-0.32497936,-1
1088,1089,1583935311531,0.7647,0.9734,-0.1589,-2.0555372,10.360064999999999,-0.06861782,-1
1089,1090,1583935311541,0.43629998,0.7955,0.1516,-2.3904762,10.167438,0.27750713,-1
1090,1091,1583935311551,0.101399995,0.58919996,0.4732,-2.670847,10.009765,0.52714574,-1
1091,1092,1583935311562,0.070199996,0.56909996,0.46679997,-2.4684508,10.027712,0.21711579,-1
1092,1093,1583935311572,0.3403,0.60719997,0.065799996,-2.2182472,10.06553,-0.15317145,-1
1093,1094,1583935311582,0.70699996,0.64489996,-0.39,-1.7084448,10.126133,-0.79748946,-1
1094,1095,1583935311592,1.1042,0.71239996,-0.84749997,-1.347495,10.217409,-1.0715393,-1
1095,1096,1583935311602,1.3787,0.8106,-0.94979995,-1.3703549,10.276038,-0.9244203999999999,-1
1096,1097,1583935311612,1.2498,0.8032,-0.6019,-1.5821747,10.207400999999999,-0.4086902,-1
1097,1098,1583935311622,0.9736,0.7102,-0.057099998,-1.8459773999999998,10.090622,0.024497472000000003,-1
1098,1099,1583935311632,0.6365,0.58019996,0.3962,-2.3080773,9.918660000000001,0.42903137,-1
1099,1100,1583935311642,0.3234,0.4418,0.52959996,-2.5686817000000004,9.782210000000001,0.37126407,-1
1100,1101,1583935311652,0.15799999,0.3234,0.39569998,-2.6765642000000005,9.702177,0.10807426,-1
1101,1102,1583935311662,0.1471,0.2731,0.122499995,-2.6305192,9.691775999999999,-0.17204733,-1
1102,1103,1583935311673,0.2408,0.2907,-0.10569999,-2.5430539,9.675496,-0.4170412,-1
1103,1104,1583935311683,0.3419,0.2488,-0.36049998,-2.554211,9.61002,-0.7272723000000001,-1
1104,1105,1583935311693,0.28509998,0.16749999,-0.65459996,-2.6108580000000003,9.474584,-0.94894665,-1
1105,1106,1583935311703,0.2707,0.0481,-0.78249997,-2.6811996,9.372802,-1.0029694,-1
1106,1107,1583935311713,0.1687,-0.0253,-0.76519996,-2.8919947,9.265541,-0.8617881,d
1107,1108,1583935311723,-0.0089,-0.1371,-0.5374,-2.9957976000000004,9.213519999999999,-0.6575340000000001,-1
1108,1109,1583935311734,-0.0805,-0.18100000000000002,-0.353,-3.0458363999999998,9.177072,-0.45218807,-1
1109,1110,1583935311744,-0.0846,-0.1663,-0.1982,-3.04304,9.169764,-0.40061697,-1
1110,1111,1583935311754,-0.0398,-0.17119999,-0.1982,-2.9515336,9.233688,-0.47417644,-1
1111,1112,1583935311764,0.0836,-0.0975,-0.2546,-2.848219,9.203963,-0.49424943,-1
1112,1113,1583935311774,0.18789999,-0.1413,-0.25149998,-2.8884416,9.197527000000001,-0.46491566,-1
1113,1114,1583935311784,0.0876,-0.1357,-0.2103,-3.0469856,9.1633,-0.30261752,-1
1114,1115,1583935311795,-0.021599998999999998,-0.1787,-0.043199997000000004,-3.2060564,9.130212,-0.09441774,-1
1115,1116,1583935311805,-0.1603,-0.2022,0.1621,-3.3977839999999997,9.050025,-0.07704541,-1
1116,1117,1583935311815,-0.33899999999999997,-0.30429998,0.1239,-3.5967227999999993,8.9149065,-0.25499207,-1
1117,1118,1583935311826,-0.5291,-0.42639998,-0.0782,-3.6895510000000002,8.770957000000001,-0.48086107,-1
1118,1119,1583935311836,-0.5754,-0.5692,-0.29839998,-3.7043855000000003,8.606858,-0.62178373,-1
1119,1120,1583935311846,-0.5478,-0.7233,-0.4107,-3.5882379999999996,8.443306,-0.75629956,-1
1120,1121,1583935311856,-0.45639998,-0.8595,-0.515,-3.3529167,8.272225,-0.8713936999999999,-1
1121,1122,1583935311866,-0.2224,-1.0364,-0.6222,-3.1187735,8.071927,-0.88011813,-1
1122,1123,1583935311877,0.0084,-1.2342,-0.6367,-2.9328012,7.7915077,-0.6299049,-1
1123,1124,1583935311886,0.18899999999999997,-1.5208,-0.40379998,-2.7099106,7.4945602,-0.44965982,-1
1124,1125,1583935311896,0.4772,-1.8959,-0.2078,-2.3329868,6.960662400000001,-0.22339818,-1
1125,1126,1583935311906,0.7758,-2.3590999,-0.0486,-2.077487,6.4135876,0.13734100000000002,-1
1126,1127,1583935311916,1.0353,-2.9008,0.2586,-1.7535516,5.926817400000001,0.9639439000000001,-1
1127,1128,1583935311926,1.3429999,-3.3937,1.0357,-1.5176653,5.2272987,2.233752,-1
1128,1129,1583935311936,1.5728999,-4.0922,2.2535,-1.3699527,4.308739,4.036222,-1
1129,1130,1583935311947,1.7171999,-5.0148997,3.9943998,-1.4446039,3.4403242999999994,6.1670995,-1
1130,1131,1583935311957,1.6486,-5.8774,6.0494,-1.3675201000000001,2.7486490000000003,7.837179700000001,-1
1131,1132,1583935311967,2.0295,-7.0077,8.5415,-1.0474824,2.3107111000000002,8.730724,-1
1132,1133,1583935311978,2.5351999,-7.1431,8.8573,-0.52258724,2.1863277,9.042488,-1
1133,1134,1583935311988,2.8883997999999997,-7.0875998,8.6117,-0.07214208,2.3074357999999995,8.675427,-1
1134,1135,1583935311998,2.9996998,-6.7137,7.9470997,0.13103944,2.7516849999999997,7.8296714000000005,-1
1135,1136,1583935312008,3.3757,-6.1980996,6.9364996,0.63919437,3.3319337,6.760163,-1
1136,1137,1583935312018,3.8600998,-5.4614997,5.9558,1.1968326999999999,4.0763583,5.7225347,-1
1137,1138,1583935312028,4.1082,-4.7261,5.0989,1.424368,4.918887000000001,4.81019,-1
1138,1139,1583935312039,3.7482,-3.7435,4.6186,1.0948589,5.8923984,4.3571596,-1
1139,1140,1583935312049,3.0219,-2.9531999,4.4452,0.37212598,6.7464580000000005,4.050769,-1
1140,1141,1583935312059,1.9477999,-1.9533999,3.9257998,-0.63489443,7.754800299999999,3.2819428,-1
1141,1142,1583935312069,1.0467,-0.9421,2.6118999,-1.2516121,8.581461000000001,2.1065621,-1
1142,1143,1583935312079,0.5366,0.1575,1.0110999,-1.7007451,9.927462,0.019009963,-1
1143,1144,1583935312089,0.26899999999999996,1.2574999,-0.5961,-1.8121616999999999,11.035402000000001,-1.6951522,-1
1144,1145,1583935312099,0.0727,2.1532,-1.8982999,-1.8353279999999998,11.987654,-3.2500138,-1
1145,1146,1583935312110,0.1219,2.8855,-3.3471,-1.6224356000000002,12.686377,-4.7996655,-1
1146,1147,1583935312120,0.1365,3.5233998,-4.6714997,-1.5573229,13.268234,-6.078131,-1
1147,1148,1583935312130,-0.1283,4.1246,-5.9077997,-1.7350397000000002,13.916383999999999,-7.646333,-1
1148,1149,1583935312140,-0.23619999,4.5295997,-6.9876,-1.6326444,14.302003,-8.707099000000001,-1
1149,1150,1583935312150,-0.1033,4.9124,-7.7728996,-1.248289,14.651221,-9.362544999999999,-1
1150,1151,1583935312160,0.103099994,5.0562,-8.1117,-1.0310869,14.720568,-9.501677,-1
1151,1152,1583935312170,0.1812,5.04,-7.9441996,-0.7205302,14.691023000000001,-9.156375,-1
1152,1153,1583935312181,0.5743,4.9827,-7.5476,-0.114643954,14.615768,-8.724078,-1
1153,1154,1583935312191,1.0028,4.7785,-7.2160997,0.34284967,14.342216,-8.424506,-1
1154,1155,1583935312201,1.1360999,4.3641,-7.0136,0.5815324000000001,13.890613,-8.079339,-1
1155,1156,1583935312211,1.2867,3.9541,-6.5776,0.7811418000000001,13.531166,-7.636105000000001,-1
1156,1157,1583935312221,1.6416,3.5811,-6.379699700000001,1.3525516000000002,13.146714999999999,-7.499625999999999,-1
1157,1158,1583935312232,2.1388,3.1432,-6.457000000000001,1.9622016,12.550033,-7.791958,-1
1158,1159,1583935312242,2.4461,2.5423,-6.9034996,2.0326197,11.891128,-8.468866,-1
1159,1160,1583935312252,2.4155998,1.8956,-7.6619997,1.9545400000000002,11.259442,-9.317007,-1
1160,1161,1583935312263,2.2569999999999997,1.2802,-8.4873,1.7938125,10.593413,-9.988476,-1
1161,1162,1583935312273,2.1104,0.498,-9.0204,1.8466189999999998,9.670372,-10.430033,-1
1162,1163,1583935312283,2.3116999,-0.4328,-9.3306,2.2375540000000003,8.855942,-10.581769,-1
1163,1164,1583935312293,2.7287998,-1.15,-9.3326,2.7304720000000002,8.239942999999998,-10.3972225,-1
1164,1165,1583935312303,3.1399999,-1.6344,-9.2136,3.1393058,8.023181,-10.456082,-1
1165,1166,1583935312314,3.4838,-1.7048999,-9.3316,3.5298769999999995,8.137174,-10.579450999999999,-1
1166,1167,1583935312324,3.8449998,-1.5116,-9.5047,4.0036607,8.550011,-10.654131,-1
1167,1168,1583935312334,4.1863,-1.1215998999999999,-9.498799,4.3902187,8.833492999999999,-10.57087,-1
1168,1169,1583935312344,4.5699997,-0.8193,-9.3727,4.642367,8.982154,-10.373712,-1
1169,1170,1583935312354,4.5773,-0.7913,-9.207499499999999,4.3826246,8.8979645,-10.287856,-1
1170,1171,1583935312364,4.2281,-0.8716,-9.0666,3.98377,8.780610000000001,-9.658161999999999,-1
1171,1172,1583935312375,3.8428,-1.0114,-8.4439,3.6087227,8.668695,-9.036186,-1
1172,1173,1583935312385,3.2503,-1.0442,-7.6632,2.8895047000000003,8.938532,-8.204757,-1
1173,1174,1583935312395,2.524,-0.6655,-6.8504,2.2700193,9.553411500000001,-7.117224,-1
1174,1175,1583935312405,1.9935999,-0.061199997,-5.9936,2.00297,10.400671,-6.2757106,-1
1175,1176,1583935312415,1.7555,0.8181,-5.1986,2.0295935000000003,11.256291000000001,-5.2590847,-1
1176,1177,1583935312425,1.7781,1.6294,-4.1640997,2.5134711,11.836962,-4.0257254,-1
1177,1178,1583935312436,2.2475,2.1273,-3.0140998,3.4707019999999997,12.066421499999999,-2.8171709,-1
1178,1179,1583935312446,3.2231,2.3123,-1.8608999,4.874039,12.121671000000001,-1.3901885,-1
1179,1180,1583935312456,4.4739,2.3318,-0.47,5.8812127,12.179917,0.38459498,-1
1180,1181,1583935312466,5.3064,2.4508,1.2511,6.283784,12.5070505,2.5800110000000003,-1
1181,1182,1583935312476,5.4007,2.8062,3.4025,5.5538106,12.724952,5.100157299999999,-1
1182,1183,1583935312487,4.6623,2.9457998,5.3567,4.555792299999999,12.708959,6.574449,-1
1183,1184,1583935312497,3.3302,2.9175,7.0948,3.0299099999999997,12.45572,7.873514,-1
1184,1185,1583935312507,1.7436999,2.4959,8.341499,2.6544703999999997,12.268761,8.126332000000001,-1
1185,1186,1583935312518,1.7436999,2.4959,8.341499,2.8663668999999996,12.184888,8.044478999999999,-1
1186,1187,1583935312528,3.0449998,2.4596,8.2295,4.1465273,12.241064,8.004238,-1
1187,1188,1583935312538,3.0449998,2.4596,8.2295,4.6903559999999995,12.26787,8.229388,-1
1188,1189,1583935312549,3.7285998,2.5005,8.4526,4.7963905,12.099452000000001,8.536592500000001,-1
1189,1190,1583935312558,3.0363998,1.9096999,8.6914,3.9890847000000003,11.683503,8.5693655,-1
1190,1191,1583935312568,2.4589,1.9152,8.9551,3.3741195,11.691873,8.887067,-1
1191,1192,1583935312578,1.7830000000000001,2.3411,9.8586,2.6376824,12.123308,9.810825,-1
1192,1193,1583935312588,1.0327,3.0412,9.684899,1.6342916,12.983526,9.419737,-1
1193,1194,1583935312598,1.0327,3.0412,9.684899,1.2844893,13.640858999999999,8.012053,-1
1194,1195,1583935312608,0.7127,4.8054,6.2815,1.3891637,14.800208,5.879824,-1
1195,1196,1583935312619,1.072,5.6835,4.8989,1.5919238000000002,15.60035,4.490258,-1
1196,1197,1583935312629,0.9137,6.0122,3.8695998,1.2697027,15.839732000000001,3.6430172999999995,-1
1197,1198,1583935312639,0.53459996,6.0368,3.6295998,0.7453628999999999,15.825357,3.5596894999999997,-1
1198,1199,1583935312649,0.2135,5.7977,4.133899700000001,0.42156145,15.61914,4.1339917,-1
1199,1200,1583935312659,0.2764,5.6103997,5.5436,0.43571597,15.415957999999998,6.0555778,-1
1200,1201,1583935312669,1.0422,5.6039,7.2921996,1.2169728000000002,15.434239999999999,7.941768,-1
1201,1202,1583935312679,2.2496,5.8071,8.7827,2.3497176,15.673478,9.498267,-1
1202,1203,1583935312690,3.5365,6.0224,9.5428,3.4893574999999997,15.8124,10.097861,-1
1203,1204,1583935312699,3.5365,6.0224,9.5428,3.5100815,15.626159,9.6897745,-1
1204,1205,1583935312709,3.452,5.2204,7.8591,2.6336029,14.823652,8.267149,-1
1205,1206,1583935312719,2.602,4.4597,6.3675,1.5591137,14.084082999999998,6.646284599999999,-1
1206,1207,1583935312729,1.9671999,3.8216,4.611000000000001,0.74554485,13.423485000000001,4.7718067,-1
1207,1208,1583935312739,1.3896998999999999,3.1901999,2.8163998,-0.07433517,12.783628,2.9472432,-1
1208,1209,1583935312750,0.98829997,2.556,1.4268999,-0.7209324,12.09975,1.516066,-1
1209,1210,1583935312760,0.7151,1.9279,0.5082,-1.3010954,11.352308,0.5440009,-1
1210,1211,1583935312770,0.4377,1.3726,0.1218,-1.7208468000000001,10.82227,0.25079742,-1
1211,1212,1583935312780,-0.0424,0.67249995,-0.1256,-2.4770505000000003,10.103454,-0.020599712,-1
1212,1213,1583935312790,-0.5805,-0.0958,-0.24100000000000002,-3.1292120999999997,9.097037,-0.31936735,-1
1213,1214,1583935312800,-0.0731,-0.73899996,-0.7793,-2.1387405,8.515945,-1.0537072,-1
1214,1215,1583935312811,1.4096999,-1.2293,-1.4652,-0.8937363000000002,7.971696000000001,-1.5689013,-1
1215,1216,1583935312821,2.4476,-1.8979,-1.5493,-0.18273504,7.16213,-1.3715903,-1
1216,1217,1583935312831,3.1676998,-2.6738,-0.99469995,0.4419409000000001,6.3321557,-0.58499926,-1
1217,1218,1583935312841,3.7805998,-3.4671998,-0.099599995,0.71476495,5.5359883000000005,0.29566476,-1
1218,1219,1583935312852,3.7526998999999996,-4.2465997,0.6369,0.42603382,4.593985,0.9039451999999999,-1
1219,1220,1583935312862,3.7233998999999995,-5.3054,0.9019,0.33601183,3.5694193999999997,1.1184273999999998,-1
1220,1221,1583935312872,3.8191998,-6.2121,1.23,0.26360159999999994,2.5560498,1.5341853,-1
1221,1222,1583935312882,3.6699,-7.1516,1.6327,-0.47030740000000004,1.3127024999999999,1.9428563,-1
1222,1223,1583935312892,2.9443998,-8.1321,1.9550999,-1.6781437,0.29418993,2.0694904,-1
1223,1224,1583935312902,1.834,-9.0762,1.8945999,-2.888681,-0.7221390999999999,1.4050995000000002,-1
1224,1225,1583935312913,0.93619996,-9.9684,0.9019,-3.5103977,-1.6150136,-0.009346964000000001,-1
1225,1226,1583935312923,0.8093,-10.7058,-0.5001,-3.5266113,-2.4401226,-1.3708911,-1
1226,1227,1583935312933,0.9575,-11.5075,-1.569,-3.5729055,-3.2211783,-2.195416,-1
1227,1228,1583935312943,0.9683,-12.1401,-2.0792,-3.7867940000000004,-3.8754272000000003,-2.3028102,-1
1228,1229,1583935312954,0.9087,-12.5567,-1.8981999,-3.704328,-4.244987,-1.6272719,-1
1229,1230,1583935312964,1.0921,-12.8765,-1.0953,-3.716165,-4.5773782999999995,-0.9211069,-1
1230,1231,1583935312974,1.0697,-13.2752,-0.2604,-3.8349078000000003,-5.035782,-0.36041355,-1
1231,1232,1583935312984,1.0181999,-13.5861,0.0779,-3.8345246,-5.2506757,-0.3472167,-1
1232,1233,1583935312994,1.2109999999999999,-13.800099,0.023699999,-3.3861098,-5.282222,-0.7255868000000001,-1
1233,1234,1583935313005,1.5302999,-13.7799,-0.27519998,-3.4183934000000002,-5.3255377,-1.0704955,-1
1234,1235,1583935313015,1.3714,-13.837299,-0.556,-3.910172,-5.4638553,-1.5036544,-1
1235,1236,1583935313025,0.8235,-13.9913,-0.94879997,-4.2143793,-5.471498,-1.9519256,-1
1236,1237,1583935313035,0.5689,-13.9795,-1.3217,-4.080591,-5.193818599999999,-2.2257073,-1
1237,1238,1583935313046,0.6613,-13.6967,-1.4642998999999999,-3.795729,-4.896908799999999,-2.3390489,-1
1238,1239,1583935313056,1.0212,-13.2998,-1.5359,-2.8588972000000004,-4.1085362000000005,-2.2871425,-1
1239,1240,1583935313066,1.7163999,-12.6705,-1.3999,-2.2728157,-3.4025915,-2.2908678,-1
1240,1241,1583935313077,2.1225998,-12.0408,-1.3873999,-1.5407646000000002,-2.4060962000000004,-2.4405725,-1
1241,1242,1583935313087,2.5465999,-11.2709,-1.48,-0.5538555000000001,-1.3659782,-2.4290135,-1
1242,1243,1583935313097,4.3202,-9.1017,-1.5124999,0.6698784999999999,-0.07477571,-2.5135862999999996,-1
1243,1244,1583935313108,5.4992,-7.6854997,-1.4784,2.0605745,1.4525526000000002,-2.4779317,-1
1244,1245,1583935313118,6.1909,-6.3782997,-0.6466,2.9567626000000002,2.8342848,-1.6134526000000002,-1
1245,1246,1583935313128,6.1909,-6.3782997,-0.6466,2.5702808,3.872736,-0.6180871,-1
1246,1247,1583935313138,3.9225,-4.3342,1.0741999,0.6829125,5.2411757,0.23786873,-1
1247,1248,1583935313148,2.1060998,-2.7872999,1.0239999,-0.68073857,6.5806355,0.110133275,-1
1248,1249,1583935313159,0.2584,-0.77779996,0.31379998,-2.617054,9.101902,-0.82398844,-1
1249,1250,1583935313169,-0.2437,1.4123,-0.45139998,-2.4107790000000002,11.306312,-1.6525929,-1
1250,1251,1583935313179,2.0104,3.7201998,-1.6617998999999999,-0.1932887,13.234132,-2.7277810000000002,-1
1251,1252,1583935313189,5.8715997,6.2363,-3.0402,4.771653,16.278914999999998,-4.326112,-1
1252,1253,1583935313199,5.8715997,6.2363,-3.0402,8.042850999999999,18.336473,-5.007808,-1
1253,1254,1583935313210,10.700299000000001,10.1029,-3.6365,9.61046,20.082756,-4.478776,-1
1254,1255,1583935313220,9.6219,11.1319,-2.2591999,8.158769,20.974384,-2.8183298,-1
1255,1256,1583935313230,6.026799700000001,11.3407,-0.6971,3.8593574,21.067854,-1.2114853,-1
1256,1257,1583935313240,2.5647,11.2849,-0.387,1.2508172,21.091413,-1.489318,-1
1257,1258,1583935313250,1.2432,11.450999000000001,-1.3434,1.046017,21.433908,-2.7415907,-1
1258,1259,1583935313261,1.7049999,11.983299,-3.1453,1.8143644,21.916168,-4.450313599999999,-1
1259,1260,1583935313270,2.6919,12.3993,-4.7274,3.135303,22.258377,-5.6947427,-1
1260,1261,1583935313280,4.1323,12.580899,-5.272,4.983157,22.463903,-5.5417724,-1
1261,1262,1583935313290,5.2165,12.666599,-4.1495,5.6958345999999995,22.322762,-3.6859309999999996,-1
1262,1263,1583935313300,4.9336,12.1677,-2.0177999,5.063918599999999,21.616796,-1.1469183,-1
1263,1264,1583935313311,3.2728999,11.193399000000001,0.536,3.1059117,20.555382,1.6845603,-1
1264,1265,1583935313321,1.0067999,10.077,2.9928,1.0493306999999998,19.399029000000002,4.2553296,-1
1265,1266,1583935313331,-0.7098,8.9836,4.8055997,-0.29229373,18.348710999999998,5.760516,-1
1266,1267,1583935313341,-1.6824,7.9786997,5.3547,-0.9677459,17.315070000000002,5.9680457,-1
1267,1268,1583935313351,-1.6824,7.9786997,5.3547,-1.1050198999999998,15.931545000000002,5.100464,-1
1268,1269,1583935313362,-1.9712,5.7738,3.8328998,-0.23464134,14.994558999999999,3.5911013999999994,-1
1269,1270,1583935313372,-0.7966,5.0021,2.0902998,1.1380311,14.391269,1.558223,-1
1270,1271,1583935313382,0.3575,4.4824,0.0928,1.8934495,13.903502,-0.44919056,-1
1271,1272,1583935313392,0.8131,3.9413,-1.5968,2.0394099,13.44824,-1.6776363,-1
1272,1273,1583935313402,0.6888,3.4192998,-2.6134999,1.697489,12.82456,-2.5514433,-1
1273,1274,1583935313412,0.2147,2.8978,-2.9199998,1.1064947,12.460068,-2.412503,-1
1274,1275,1583935313423,-0.66429996,2.4752,-2.3088999,0.1114453,11.947047,-1.3424577,-1
1275,1276,1583935313433,-1.3187,2.0637999,-1.2326,-0.28076324,11.569338,-0.30705157,-1
1276,1277,1583935313443,-1.5084,1.7127999,-0.40089998,-0.20462762,11.331546000000001,0.28716055,-1
1277,1278,1583935313453,-1.097,1.5002999,0.1617,0.6159994000000001,11.136754,0.8661072,-1
1278,1279,1583935313463,-0.3155,1.3468,0.4294,1.3632966999999998,11.00719,0.8493190999999999,-1
1279,1280,1583935313474,0.3143,1.2408,0.2749,1.7879898999999997,10.841511,0.5870678,-1
1280,1281,1583935313484,0.61219996,1.0244,-0.0846,1.8873874,10.607481,0.17060125,-1
1281,1282,1583935313494,0.6987,0.8153,-0.47919998,1.8521928,10.483673,-0.40084684,-1
1282,1283,1583935313504,0.5614,0.7321,-0.91889995,1.3384545,10.303628999999999,-0.5668512,-1
1283,1284,1583935313514,0.050499998,0.54039997,-0.972,0.7456693,10.115436,-0.31022150000000004,-1
1284,1285,1583935313524,-0.5069,0.3295,-0.6734,0.08037814,9.814292,0.12981361,-1
1285,1286,1583935313535,-1.0981,-0.0075999996999999994,-0.20189999,-0.07751467,9.558649,0.49920059999999994,-1
1286,1287,1583935313545,-1.0228,-0.1761,-0.0278,1.0087921999999998,9.714483,0.30026162,-1
1287,1288,1583935313555,0.2547,0.010199999,-0.2147,2.2812335,9.961775999999999,0.43816763,-1
1288,1289,1583935313565,1.3886,0.24679999,-0.0449,2.7293515,10.0592575,0.9876848,-1
1289,1290,1583935313575,1.6456,0.3066,0.5545,2.1689265,9.897505,1.6664984,-1
1290,1291,1583935313586,0.97249997,0.0806,1.1586,1.1353592,9.542521,2.1889708,-1
1291,1292,1583935313596,-0.083799995,-0.29389998,1.6288999,0.20748152,9.11306,2.183895,-1
1292,1293,1583935313606,-0.7468,-0.6405,1.5504999,0.872179,9.288966,1.4620431999999999,-1
1293,1294,1583935313616,0.1998,-0.3989,0.67789996,1.9294776000000002,9.497050999999999,0.74800605,-1
1294,1295,1583935313626,1.1112,-0.2358,0.0609,1.9254075000000002,9.497405,0.46798027,d
1295,1296,1583935313636,0.9104,-0.30859998,-0.0822,0.9778207,9.203772,0.6307668000000001,-1
1296,1297,1583935313647,0.13,-0.5585,0.1073,0.27029580000000003,8.990927000000001,0.78005964,-1
1297,1298,1583935313657,-0.5396,-0.779,0.2969,0.09692687,8.903519000000001,0.61754125,-1
1298,1299,1583935313668,-0.68369997,-0.87149996,0.1647,0.09730994,8.803642,0.42563158,-1
1299,1300,1583935313678,-0.4159,-0.9766,-0.36879998,0.33820492,8.810385,-0.09479123,-1
1300,1301,1583935313688,-0.4159,-0.9766,-0.36879998,0.16476896,8.803087,-0.36950192,-1
1301,1302,1583935313698,-0.47200000000000003,-0.9795,-0.6658,-0.20525013,8.887746,-0.33024663,-1
1302,1303,1583935313708,-0.79899997,-0.9237,-0.6286,-0.30285692,9.06462,-0.20054792,-1
1303,1304,1583935313719,-0.73469996,-0.41669998,-0.21149999,-0.029439105,9.440673,0.1213956,-1
1304,1305,1583935313729,-0.3956,-0.113699995,0.0482,0.30710903,9.726377000000001,0.29938054,-1
1305,1306,1583935313739,-0.1566,0.061899997000000005,0.12539999,0.52388006,9.881435,0.34556950000000003,-1
1306,1307,1583935313749,0.0345,0.14919999,0.070999995,0.67575866,9.960521,0.20558532,-1
1307,1308,1583935313759,0.0032,0.1971,-0.1231,0.51116204,10.051328,-0.14329776,-1
1308,1309,1583935313770,-0.3874,0.34299999999999997,-0.43949997,0.010563218000000001,10.169534,-0.5043337999999999,-1
1309,1310,1583935313780,-0.87579995,0.47939998,-0.7752,-0.4358309,10.357536999999999,-0.90411764,-1
1310,1311,1583935313790,-1.1927999,0.7339,-1.1373,-0.6495278,10.588702,-1.2378885,-1
1311,1312,1583935313800,-1.1172,1.1362,-1.4552,-0.43428904,11.0479965,-1.5446431999999999,-1
1312,1313,1583935313810,-0.42569998,1.7353,-1.6083,0.5428613,11.7828045,-1.6530526,-1
1313,1314,1583935313820,0.3557,2.3741,-1.4813,1.2682756000000002,12.403267999999999,-1.3761008999999997,-1
1314,1315,1583935313831,0.96019995,2.915,-1.1805999,1.7952298999999998,12.905484,-1.0114832,-1
1315,1316,1583935313841,1.1488999,3.3479997999999997,-0.8657,1.8026711,13.209892000000002,-0.7138935000000001,-1
1316,1317,1583935313851,0.70239997,3.7119999999999997,-0.6073,1.1134473999999999,13.69356,-0.36682042,-1
1317,1318,1583935313861,0.0806,4.2522,-0.4211,0.58897364,14.342264000000002,-0.107959345,-1
1318,1319,1583935313871,-0.2094,5.0671,-0.25,0.47578534,15.233147,0.19599894,-1
1319,1320,1583935313881,-0.08109999400000001,6.0687,0.051999997,0.66423774,16.517607,0.7426143,-1
1320,1321,1583935313892,0.0955,7.1589,0.4877,0.7401148,17.524723,1.2339236999999998,-1
1321,1322,1583935313902,0.1379,8.0724,0.82909995,0.65423,18.294413,1.6054941,-1
1322,1323,1583935313912,0.1072,8.75,1.1618,0.6540289,18.804146,1.9662526000000002,-1
1323,1324,1583935313922,0.2286,9.151999,1.4118998999999999,0.70237255,19.027294,2.2130182,-1
1324,1325,1583935313932,0.3664,9.2687,1.6887,0.7004285,19.001448,2.510579,-1
1325,1326,1583935313942,0.43449998,9.198299,1.8343999,0.7145352,18.916701999999997,2.5430923,-1
1326,1327,1583935313952,0.6195,9.029699,1.76,0.6876722,18.598446,2.3211784,-1
1327,1328,1583935313963,0.56769997,8.5772,1.4462,0.29489863,18.00817,2.0381549999999997,-1
1328,1329,1583935313973,0.2778,7.9593997000000005,1.3145,-0.29918903,17.282393,1.9648063999999998,-1
1329,1330,1583935313983,-0.24509999,7.1770000000000005,1.1981,-1.0744315,16.481953,1.6488292000000002,-1
