,Seq,Time,ACCx,ACCy,ACCz,ADGx,ADGy,ADGz,Keydown
0,1,1583935679511,0.0506,0.0515,0.1319,1.7769574000000001,9.651401,0.3410301,-1
1,2,1583935679522,1.0214,0.0116,-0.49269998,-1.7149858,9.499129,-0.31482795,-1
2,3,1583935679532,0.0175,-0.1443,0.0063,-1.0843818,9.594945,-0.49823338,-1
3,4,1583935679542,0.2956,-0.115499996,-0.31309998,-0.84131294,9.682247,-0.8675149999999999,-1
4,5,1583935679552,0.4887,0.0695,-0.52739996,-0.6022279,9.827509,-1.0579404,-1
5,6,1583935679562,0.5337,0.0572,-0.5541,-0.68884057,9.747235,-1.05659,-1
6,7,1583935679572,0.0275,-0.0982,-0.303,-1.2038716999999999,9.616216,-0.81699735,-1
7,8,1583935679583,-0.6608,-0.28939998,0.2193,-2.0496187,9.371222,-0.18921855,-1
8,9,1583935679593,-1.1069,-0.41009998,0.6277,-2.4361384,9.2968,0.16755582,-1
9,10,1583935679604,-1.2293999,-0.4122,0.8265,-2.4930343999999995,9.296839,0.25963682,-1
10,11,1583935679613,-1.1367999,-0.4139,0.7184,-2.468604,9.306999000000001,0.16885826,-1
11,12,1583935679623,-0.9321,-0.355,0.5693,-2.4115547999999998,9.372035,0.09730994,-1
12,13,1583935679633,-0.66569996,-0.2864,0.37019998,-2.2277186,9.408533,-0.0974057,-1
13,14,1583935679643,-0.3442,-0.20099999,0.1443,-2.036259,9.495049,-0.25583482,-1
14,15,1583935679654,-0.1184,-0.109,-0.07200000000000001,-1.8547401000000001,9.574997,-0.4557602,-1
15,16,1583935679664,0.18859999,0.0378,-0.2145,-1.4766861,9.762654,-0.4358309,-1
16,17,1583935679674,0.52129996,0.1785,-0.107099995,-1.3581061,9.806516,-0.34027353,-1
17,18,1583935679685,0.4588,0.1874,-0.056599997,-1.6376339,9.777173,-0.27301559999999997,-1
18,19,1583935679695,0.1387,0.1466,0.0602,-1.8847156000000003,9.7727,-0.053850382999999995,-1
19,20,1583935679705,-0.030399999,0.1554,0.2252,-1.8858455000000003,9.852753,0.054712295999999994,-1
20,21,1583935679715,0.0911,0.28129998,0.2933,-1.7203201000000001,9.9779415,0.14793293,-1
21,22,1583935679725,0.2233,0.38799998,0.3733,-1.6415126,10.102583000000001,0.28423005,-1
22,23,1583935679735,0.24049999,0.51489997,0.5354,-1.6674848999999998,10.158895,0.4495832,-1
23,24,1583935679746,0.17449999,0.5743,0.6907,-1.8650544999999998,10.246992,0.75621337,-1
24,25,1583935679756,0.0166,0.625,0.9959,-1.8848592,10.342329,0.9355486999999999,-1
25,26,1583935679766,0.0208,0.73579997,1.1308,-1.7996352999999998,10.431394000000001,0.9230414,-1
26,27,1583935679776,0.15689999,0.82809997,1.1184,-1.5613451,10.494735,0.97997546,-1
27,28,1583935679786,0.44599998,0.8728,1.2233,-1.298749,10.467316,1.0099796,-1
28,29,1583935679797,0.6746,0.83129996,1.2975999,-1.5701749,10.311712,1.1344206000000001,-1
29,30,1583935679806,0.3576,0.64599997,1.416,-2.0205913,9.998886,0.8476431999999999,-1
30,31,1583935679816,0.003,0.336,1.1245999,-2.2221064999999998,9.680916,0.30277076,-1
31,32,1583935679826,-0.082899995,0.047,0.5744,-2.2985103,9.401743,-0.062220514000000005,-1
32,33,1583935679836,-0.2288,-0.3208,0.3227,-2.7189705,8.934213,-0.049990933,-1
33,34,1583935679846,-0.49469998,-0.6899,0.41889998,-2.7644412999999997,8.6149025,0.17740077,-1
34,35,1583935679857,-0.4224,-1.071,0.7502,-2.6976428,8.15196,0.8284703999999999,-1
35,36,1583935679867,-0.3148,-1.444,1.2614,-2.5263999,7.728540400000001,1.4088153,-1
36,37,1583935679877,-0.0773,-1.8858,1.7195,-2.3498132000000003,7.312524000000001,2.1284645,-1
37,38,1583935679887,0.1493,-2.279,2.3624,-2.1921406,6.898088,2.9159365000000004,-1
38,39,1583935679897,0.3178,-2.6832,3.0639,-1.9303203000000002,6.54095,3.4844446000000002,-1
39,40,1583935679908,0.6307,-3.0286999,3.4907,-1.8329433000000002,6.0395655999999995,3.5475172999999995,-1
40,41,1583935679918,0.66999996,-3.5695998999999996,3.4027998,-1.9184164000000001,5.4210377,3.3358697999999998,-1
41,42,1583935679928,0.6825,-4.1588,3.1546,-1.7740651,4.9254284,3.1128356,-1
42,43,1583935679938,0.87119997,-4.6401997,2.9006,-1.7169874,4.3852296,2.766452,-1
43,44,1583935679948,0.92209995,-5.1805,2.5091,-1.7962354,3.8237412,2.282316,-1
44,45,1583935679958,0.83339995,-5.7314,2.016,-2.0224876,3.2193873,1.7279338,-1
45,46,1583935679969,0.6601,-6.2152,1.5525999,-2.1201613,2.6851928,1.5458115,-1
46,47,1583935679979,0.5855,-6.750499700000001,1.3693,-2.0274005,2.1889517000000005,1.6031861,-1
47,48,1583935679989,0.6161,-7.8409,1.5698999,-2.0866616000000002,1.5953045,1.7830865000000002,-1
48,49,1583935679999,0.6516,-8.3764,1.6912999,-2.0136578000000003,1.0684078000000001,1.9282613999999998,-1
49,50,1583935680009,0.8976,-8.8277,1.7595999,-1.7396363999999997,0.6265913000000001,2.0265671999999997,-1
50,51,1583935680020,1.1180999,-9.0279,1.8446,-1.4557226,0.4428411,2.1488152,-1
51,52,1583935680030,1.1718,-8.929399499999999,1.4237,-1.1921208,0.6299911,1.5947969,-1
52,53,1583935680040,2.0334,-8.3932,0.5686,-0.17992905,1.2446114,0.75742006,-1
53,54,1583935680050,2.9429998,-7.7608,-0.026899998999999997,0.8102936,1.9022218999999998,0.20615034,-1
54,55,1583935680061,3.1269999,-7.254699700000001,-0.4148,0.8396273999999999,2.3619950000000003,-0.12175952,-1
55,56,1583935680071,2.2802,-7.1085997,-0.38869998,-0.064365715,2.508788,-0.016318878000000002,-1
56,57,1583935680081,1.0548999,-6.9904,-0.3752,-1.1135527,2.6401818,-0.12975615,-1
57,58,1583935680091,0.78929996,-6.7662997,-0.96449995,-1.1065329,2.9356837000000002,-0.84839016,-1
58,59,1583935680102,0.9025,-6.2615,-2.0563,-0.79884934,3.5991459999999997,-2.3584897999999996,-1
59,60,1583935680112,1.3025,-5.6129,-4.2620997,-0.025292346,4.262033,-4.8120103,-1
60,61,1583935680122,2.5658,-4.7995,-6.740999700000001,1.8240273,5.347507,-7.579133000000001,-1
61,62,1583935680132,4.0002,-3.7893999,-9.0399,3.1819324,6.2803835999999995,-9.507289,-1
62,63,1583935680142,4.6375,-3.0699,-10.0692,3.666605,6.9756117,-9.917397,-1
63,64,1583935680153,4.2798,-2.2863998,-9.6268,3.1015349999999997,7.778072,-8.877585,-1
64,65,1583935680164,2.9666997999999998,-1.7416999,-8.0953,1.6842251,8.22119,-6.883665,-1
65,66,1583935680174,1.7389,-1.4058,-6.8226,1.2018988000000002,8.821398,-5.992476,-1
66,67,1583935680185,1.4532,-0.6107,-6.5165997,2.2147994,9.857991,-6.138465,-1
67,68,1583935680195,2.9227998,0.5868,-7.0667995999999995,4.803209,11.231593,-6.853689699999999,-1
68,69,1583935680206,5.4585,2.1067998,-8.165299000000001,8.911027,13.068808,-7.9944024,-1
69,70,1583935680216,8.643499,3.6327998999999997,-9.129499000000001,11.130874,14.097911999999999,-8.288191000000001,-1
70,71,1583935680226,10.6466,4.8849,-9.3314,12.690859,15.151916,-7.782774000000001,-1
71,72,1583935680236,11.3825,5.882999999999999,-8.747499000000001,12.943639,16.087072,-6.7520704,-1
72,73,1583935680247,10.9958,6.6603,-8.078899,12.507032,16.324587,-6.426534999999999,-1
73,74,1583935680257,10.0611,6.956,-7.9172997,11.721494,16.477632999999997,-6.3631462999999995,-1
74,75,1583935680267,9.293,7.0817,-8.0086,11.431011,16.351754999999997,-6.767546,-1
75,76,1583935680277,8.7965,6.9407,-8.5411,11.180356,15.93415,-7.632016,-1
76,77,1583935680287,8.339399,6.6154,-9.4519,11.229294,15.661335000000001,-8.588136,-1
77,78,1583935680298,8.1535,6.4251,-10.3629,10.705691999999999,15.573564000000001,-8.833714,-1
78,79,1583935680308,7.1949,6.483,-10.350599,9.383796,15.569407,-6.907521000000001,-1
79,80,1583935680318,5.5397997000000005,6.6468,-7.961,7.8608537,16.306746,-3.207981,-1
80,81,1583935680328,3.9441,7.6052,-4.4576,7.584542999999999,17.034859,0.27879998,-1
81,82,1583935680338,3.8318,8.5223,-1.2608,9.479716999999999,18.425642,3.4821557999999997,-1
82,83,1583935680349,5.3231997,9.8391,1.1007,10.906125,19.39291,4.9202857,-1
83,84,1583935680359,6.5449996,10.9495,2.4113998,11.761161,20.164043,5.5094129999999994,-1
84,85,1583935680369,6.5442,12.2982,2.7811,11.249722,20.558493,5.2653475,-1
85,86,1583935680379,5.5224,12.5653,2.4865,10.336545,20.784285,4.861455,-1
86,87,1583935680389,4.6074,12.5564995,2.477,9.499732,20.780724,4.706253500000001,-1
87,88,1583935680399,4.6074,12.5564995,2.477,9.603641,20.655008,4.892484,-1
88,89,1583935680409,4.6724997,12.411099,2.8299,10.161816,20.396357000000002,4.8114834,-1
89,90,1583935680419,5.2243,12.1284,2.9101,10.361137,19.903631,4.998921,-1
90,91,1583935680430,5.468899700000001,10.954599,3.8242998,10.36111,19.30759,5.4958134,-1
91,92,1583935680440,5.0659,10.156799000000001,4.4937,9.878677,18.570711,6.0640529999999995,-1
92,93,1583935680450,4.402199700000001,9.2753,5.3808,9.098761999999999,17.766796,6.869654,-1
93,94,1583935680460,4.402199700000001,9.2753,5.3808,8.0465,16.822101999999997,7.6016,-1
94,95,1583935680470,2.5533,7.0669,6.2499,6.937467599999999,15.748512,7.587867,-1
95,96,1583935680480,2.0244,6.0025997,5.5913,6.1025233,14.492026000000001,6.602883,-1
96,97,1583935680491,1.9672999,4.9486,4.9258,6.0361657,13.588034,5.942418,-1
97,98,1583935680501,2.8072,4.1949997,4.7943,6.862011999999999,12.996675,5.904446,-1
98,99,1583935680511,3.6504998,3.3144998999999995,4.6527,7.240228699999999,12.390837,5.7629967,-1
99,100,1583935680521,4.2569,2.4263,5.4056997,7.857023,11.366415,7.376334700000001,-1
100,101,1583935680532,4.9322,1.8046999,7.522,8.084673,11.011728,8.814053,-1
101,102,1583935680542,4.6286,0.6694,9.7141,7.298264,9.731147,11.575084,-1
102,103,1583935680552,3.3061,-0.4675,11.185599,5.092169999999999,8.426900999999999,13.1303,-1
103,104,1583935680562,1.5152999,-1.5223999,11.5632,3.2024267,7.524066,12.986054,-1
104,105,1583935680572,0.6196,-2.2897,10.3846,2.5370588,7.0068226,11.178968,-1
105,106,1583935680583,0.8106,-2.7846,8.0651,2.6487724999999998,6.633384700000001,8.600211999999999,-1
106,107,1583935680593,1.3507,-3.0695,5.6907997,2.9652092,6.4478245,6.301874,-1
107,108,1583935680603,1.9088,-3.3932,3.9185,3.15211,6.2287264,4.5623045,-1
108,109,1583935680613,2.1346,-3.5069999999999997,2.6035,2.8972043999999997,6.132450599999999,3.2719352,-1
109,110,1583935680623,1.7541,-3.7733998,1.6251999,2.014826,5.788098000000001,2.4184692,-1
110,111,1583935680634,0.86329997,-4.2229,1.2207,0.91310066,5.3680105000000005,2.196613,-1
111,112,1583935680644,0.1422,-4.5924,1.2774,-0.0018291701999999998,4.963046,2.521621,-1
112,113,1583935680654,-0.3053,-4.9532,1.6523,-0.6060969,4.551119,3.1259272,-1
113,114,1583935680664,-0.5674,-5.2787,2.3056997999999997,-0.6574478,4.415856,3.7719017999999997,-1
114,115,1583935680674,-0.15349999,-5.4251,2.9047,-0.26170543,4.173553,4.290572,-1
115,116,1583935680684,0.3234,-5.5818,3.2403,0.21055567,4.1913184999999995,4.6478157,-1
116,117,1583935680695,0.9679,-5.544699700000001,3.4118,0.44353065,4.1533175,4.6254349999999995,-1
117,118,1583935680705,1.1198,-5.6282,3.1395,0.33765906,4.102072,3.7021732000000003,-1
118,119,1583935680715,1.1463,-5.5866,1.9738,0.27568752,4.1689467,1.7424042000000002,-1
119,120,1583935680727,1.2142998999999999,-5.5360000000000005,0.4181,-0.009749189,4.240974,0.57796985,-1
120,121,1583935680737,1.0409,-5.4834,-0.48499998,-0.42946229999999996,4.310262000000001,0.04971319999999999,-1
121,122,1583935680747,0.72389996,-5.3483,-0.7908,-1.2090431000000001,4.4053698,-0.1594634,-1
122,123,1583935680758,0.023699999,-5.2876,-0.8912,-1.9826959,4.4315620000000004,-0.5055692,-1
123,124,1583935680768,-0.5377,-5.2144,-1.1309999,-2.473019,4.823713,-0.8030919,-1
124,125,1583935680778,-0.8037,-4.837,-1.3027999,-2.510981,5.052934,-1.3457424999999998,-1
125,126,1583935680788,-0.7486,-4.5985,-1.7667999,-2.7300028999999997,5.2541137,-1.7374721999999998,-1
126,127,1583935680798,-0.90029997,-4.3816,-2.0916,-2.5958127999999996,5.4411106,-1.9741917000000002,-1
127,128,1583935680809,-0.7064,-4.1864,-2.2782,-2.0404823,5.713782,-2.0233781000000004,-1
128,129,1583935680819,-0.11409999400000001,-3.9048,-2.2768,-1.5014901000000003,6.0291653,-1.8589442999999999,-1
129,130,1583935680829,0.4736,-3.5842,-2.0671,-1.5065466,6.1514034,-1.3953598999999999,-1
130,131,1583935680839,0.50729996,-3.4582998999999996,-1.5572,-1.6607044999999998,6.1742725,-1.2177197,-1
131,132,1583935680850,0.3182,-3.3976998,-1.3984,-1.8035234,6.1897297,-1.3242042,-1
132,133,1583935680860,0.0677,-3.2782,-1.3929,-2.2473607,6.3570459999999995,-1.3291937,-1
133,134,1583935680870,-0.3337,-3.0805,-1.2566998999999999,-2.6520092,6.5454316,-1.3750091999999998,-1
134,135,1583935680880,-0.47919998,-2.845,-1.5291,-2.7064917,6.8030667000000005,-1.6858915,-1
135,136,1583935680890,-0.47919998,-2.845,-1.5291,-2.590785,7.0876225999999996,-1.8177929,-1
136,137,1583935680900,-0.094299994,-2.1738,-1.8707,-2.3582982999999995,7.437348399999999,-2.1268747,-1
137,138,1583935680911,0.196,-1.8941,-1.9264,-2.0933082,7.670227499999999,-2.2018322999999995,-1
138,139,1583935680921,0.30609998,-1.7819999999999998,-1.9404999,-2.0313077,7.759502400000001,-2.2835799999999997,-1
139,140,1583935680931,0.43249997,-1.5824,-2.1083998999999998,-1.8711836,7.995331299999999,-2.4846928,-1
140,141,1583935680941,0.6137,-1.3741,-2.1461,-1.7187111000000002,8.182433,-2.508798,-1
141,142,1583935680952,0.636,-1.0783,-1.9071,-1.721814,8.517957000000001,-2.2281687000000003,-1
142,143,1583935680962,0.648,-0.8318,-1.4188,-1.7282209,8.71611,-1.7302799999999998,-1
143,144,1583935680972,0.5633,-0.69299996,-0.93189996,-1.8372338,8.833666000000001,-1.332086,-1
144,145,1583935680982,0.4019,-0.64169997,-0.7748,-1.9880779999999998,8.865145,-1.2803042,-1
145,146,1583935680992,0.32999998,-0.6878,-0.92569995,-2.1050205,8.822825,-1.4870578,-1
146,147,1583935681002,0.2004,-0.6353,-1.0131999,-2.192313,8.908461,-1.534597,-1
147,148,1583935681013,0.22899999,-0.5136,-0.97169995,-2.1924088,9.044882000000001,-1.5221856000000002,-1
148,149,1583935681023,0.1113,-0.37199998,-0.96989995,-2.3824604,9.176438000000001,-1.5815331,-1
149,150,1583935681033,-0.0446,-0.36749998,-1.1268,-2.5521903,9.064505,-1.8290552,-1
150,151,1583935681044,-0.26999998,-0.4516,-1.2285,-2.8357117,9.002524000000001,-1.8394939,-1
151,152,1583935681054,-0.4989,-0.5467,-1.1699,-3.0381846,8.891069,-1.7120745,-1
152,153,1583935681064,-0.57699996,-0.5458,-0.97069997,-2.84933,8.954612,-1.5476981,-1
153,154,1583935681074,-0.2714,-0.52779996,-0.8463,-2.539472,9.080105999999999,-1.4470556,-1
154,155,1583935681084,-0.049799997,-0.35459998,-0.6879,-2.286367,9.238793,-1.2024255,-1
155,156,1583935681094,0.21959999,-0.1919,-0.406,-1.9785396,9.381258,-0.8981896,-1
156,157,1583935681105,0.4615,-0.1267,-0.1647,-1.9160701,9.398735,-0.84249085,-1
157,158,1583935681115,0.4335,-0.0309,-0.1767,-2.0593486,9.497176,-0.9097679,-1
158,159,1583935681125,0.22389999,-0.0613,-0.2848,-2.3052714,9.405593,-0.9729365,-1
159,160,1583935681135,-0.0218,-0.1006,-0.30359998,-2.4670331,9.3432,-0.97429645,-1
160,161,1583935681145,-0.11109999599999999,-0.1988,-0.3024,-2.452467,9.313128,-0.90938485,-1
161,162,1583935681156,-0.055099998,-0.1406,-0.1541,-2.3464231,9.435692999999999,-0.7044315999999999,-1
162,163,1583935681166,0.0284,-0.073,-0.0056,-2.2563912999999998,9.496668,-0.5787648,-1
163,164,1583935681176,0.1122,-0.015,0.0962,-2.1537375,9.496350999999999,-0.72443753,-1
164,165,1583935681186,0.2653,-0.0056,-0.092099994,-1.9676316000000003,9.558008000000001,-0.94972235,-1
165,166,1583935681197,0.3706,0.063,-0.3267,-2.123025,9.585694,-1.2678542,-1
166,167,1583935681207,0.1731,0.092999995,-0.5891,-2.3123775,9.589257,-1.2498595,d
167,168,1583935681217,0.015199998999999999,0.0735,-0.5065,-2.3282175,9.579392,-1.134909,-1
168,169,1583935681228,0.043399997,0.073199995,-0.3876,-2.2322867000000004,9.592599,-0.9386803,-1
169,170,1583935681238,0.1356,0.091,-0.1875,-2.0315567999999997,9.684086,-0.7338324,-1
170,171,1583935681248,0.3342,0.19659999,0.0018999999,-1.9877331999999999,9.738684,-0.61981094,-1
171,172,1583935681258,0.3369,0.22389999,0.0749,-1.9797845,9.77383,-0.7442807,-1
172,173,1583935681268,0.3412,0.2616,-0.0545,-1.8136748,9.749668,-0.8914665999999999,-1
173,174,1583935681279,0.504,0.2411,-0.2007,-1.8565599,9.752972,-0.79933774,-1
174,175,1583935681289,0.2793,0.212,0.1734,-2.0325336,9.724423,-0.52035576,-1
175,176,1583935681299,0.2793,0.212,0.1734,-2.2084212000000005,9.617547,-0.33307177,-1
176,177,1583935681309,-0.0078,0.0866,0.4244,-2.3292037999999997,9.597128999999999,-0.27442340000000004,-1
177,178,1583935681320,-0.0078,0.0866,0.4244,-2.1682465,9.571033,-0.34016818,-1
178,179,1583935681330,0.3293,0.0994,0.1867,-1.9562734,9.6208315,-0.61843187,-1
179,180,1583935681340,0.5378,0.1899,-0.155,-1.8107826,9.714741,-0.95800626,-1
180,181,1583935681350,0.4062,0.2322,-0.3002,-1.9721519,9.736127,-1.0816618999999998,-1
181,182,1583935681360,0.2579,0.2163,-0.359,-2.0961906999999997,9.718055,-1.1465927,-1
182,183,1583935681370,0.2579,0.2163,-0.359,-2.270096,9.703978,-1.0527593000000002,-1
183,184,1583935681381,-0.036000000000000004,0.1648,-0.1428,-2.4248667,9.664769,-0.9809332000000001,-1
184,185,1583935681391,-0.1355,0.1384,-0.27969998,-2.5162964,9.628703,-1.136585,-1
185,186,1583935681401,-0.2069,0.07200000000000001,-0.33229998,-2.598408,9.549743,-1.147809,-1
186,187,1583935681411,-0.1915,-0.0145,-0.25169998,-2.6168911,9.447146,-1.0820258999999999,-1
187,188,1583935681421,-0.49089998,-0.16049999,-0.2812,-2.886373,9.326823,-1.1129878,-1
188,189,1583935681431,-0.6066,-0.2189,-0.18439999,-3.0028843999999997,9.274754,-0.98828816,-1
189,190,1583935681441,-0.5108,-0.121599995,-0.019399998999999998,-2.9022033,9.361989,-0.8531306999999999,-1
190,191,1583935681451,-0.1348,-0.0056,-0.0106999995,-2.4502645,9.50048,-0.85483533,-1
191,192,1583935681461,0.1026,0.060799997,-0.012499999,-2.2563912999999998,9.558056,-0.8415619000000001,-1
192,193,1583935681471,0.0479,0.00029999999,-0.084199995,-2.3645136000000004,9.435329,-0.947376,-1
193,194,1583935681481,-0.22,-0.25579998,-0.118599996,-2.6652637,9.229811,-0.7957848000000001,-1
194,195,1583935681491,-0.2634,-0.16929999,0.28489998,-2.5613458,9.349405,-0.4874786,-1
195,196,1583935681501,0.033,-0.113,0.3744,-2.2705843,9.387780000000001,-0.4214753,-1
196,197,1583935681511,0.1916,-0.0468,0.4179,-2.1535268,9.472103,-0.37621528,-1
197,198,1583935681521,0.2058,0.0104,0.3858,-2.1439790000000003,9.509941,-0.42000043,-1
198,199,1583935681532,0.28219998,0.0492,0.1716,-2.068102,9.561465,-0.6792159000000001,-1
199,200,1583935681542,0.0579,-0.057999999999999996,0.0083,-2.3663716,9.435626,-0.778738,-1
200,201,1583935681552,-0.2026,-0.0665,0.108899996,-2.5765727000000003,9.440826,-0.67285687,-1
201,202,1583935681562,-0.1314,-0.0069999998,0.218,-2.3638623,9.523119,-0.58156115,-1
202,203,1583935681572,0.18239999,0.071499996,0.1999,-2.0411718,9.589113000000001,-0.6743796,-1
203,204,1583935681582,0.42769998,0.081599995,0.016099999,-1.8880004000000001,9.562768,-0.84718347,-1
204,205,1583935681593,0.42119998,0.0729,0.019399998999999998,-1.9795546999999998,9.614664,-0.7241119,-1
205,206,1583935681603,0.2137,0.1144,0.1699,-2.36007,9.579516,-0.6126762,-1
206,207,1583935681613,-0.3037,0.0591,0.17539999,-2.7923767999999995,9.55863,-0.69288194,-1
207,208,1583935681623,-0.4599,0.1016,0.0265,-2.7891874,9.652464,-0.90402186,-1
208,209,1583935681633,-0.26899999999999996,0.2113,-0.1907,-2.5501025,9.699457,-1.1065329,-1
209,210,1583935681644,-0.0635,0.2412,-0.3613,-2.4499388,9.7307825,-1.2733514,-1
210,211,1583935681654,-0.046299997999999995,0.2112,-0.44869998,-2.3746555,9.696660000000001,-1.2434046,-1
211,212,1583935681664,0.0872,0.21959999,-0.2875,-2.227393,9.673552,-1.0405391,-1
212,213,1583935681674,0.192,0.1493,-0.081999995,-2.2062953,9.573042999999998,-0.75837773,-1
213,214,1583935681684,0.113,0.079399996,0.1602,-2.3094854,9.584382000000002,-0.5629821999999999,-1
214,215,1583935681694,0.0075,0.0986,0.354,-2.3966534,9.57131,-0.40843168,-1
215,216,1583935681704,-0.0071,0.0893,0.44259998,-2.3656243999999997,9.577314,-0.34446818,-1
216,217,1583935681715,0.0491,0.0808,0.46609998,-2.3053386000000002,9.596803,-0.29894003,-1
217,218,1583935681725,0.058799997,0.0733,0.4445,-2.450772,9.524977999999999,-0.47755703,-1
218,219,1583935681735,-0.0958,-0.0313,0.2504,-2.5933417999999997,9.423807,-0.58547807,-1
219,220,1583935681745,-0.2501,-0.076799996,0.1765,-2.674716,9.391821,-0.67233974,-1
220,221,1583935681755,-0.21959999,-0.1127,0.084699996,-2.6589810000000003,9.347835,-0.758167,-1
221,222,1583935681765,-0.21059999,-0.1196,-0.0155,-2.6343112,9.330482,-1.0038216999999998,-1
222,223,1583935681776,-0.1647,-0.1466,-0.2924,-2.5725697999999997,9.320971499999999,-1.1919006,-1
223,224,1583935681785,-0.033299997000000005,-0.1355,-0.37629998,-2.4182968,9.348974,-1.1223252000000001,-1
224,225,1583935681795,0.0858,-0.1156,-0.2209,-2.359055,9.330242,-0.8651974,-1
225,226,1583935681805,0.0959,-0.1063,0.0858,-2.28471,9.396063999999999,-0.5562784000000001,-1
226,227,1583935681816,0.23199999999999998,-0.0976,0.33139998,-2.2344797,9.330482,-0.42413762,-1
227,228,1583935681826,0.17199999,-0.1475,0.3829,-2.3484724,9.294271,-0.39213192,-1
228,229,1583935681836,0.103599995,-0.1771,0.3804,-2.301776,9.343938,-0.48612829999999996,-1
229,230,1583935681846,0.16399999,-0.1274,0.2658,-2.3145707000000004,9.343726,-0.74639714,-1
230,231,1583935681856,0.1283,-0.1356,0.0187,-2.466928,9.332119,-0.90361965,-1
231,232,1583935681866,-0.0517,-0.13319999,-0.1679,-2.6132615,9.294464,-1.0281372,-1
232,233,1583935681877,-0.1815,-0.1894,-0.2383,-2.8040507000000003,9.238430000000001,-1.0378385,-1
233,234,1583935681887,-0.3506,-0.2067,-0.16489999,-2.8810387000000004,9.27258,-0.87881565,-1
234,235,1583935681897,-0.3841,-0.1854,-0.0357,-2.7614722,9.324325,-0.872179,-1
235,236,1583935681907,-0.2539,-0.11599999999999999,-0.0448,-2.6125243,9.343286500000001,-0.9494159,-1
236,237,1583935681917,-0.10669999599999999,-0.1258,-0.1331,-2.6166517999999996,9.318252000000001,-0.9988418,-1
237,238,1583935681927,-0.1767,-0.1753,-0.14400000000000002,-2.7296388,9.273278999999999,-0.8534084000000001,-1
238,239,1583935681938,-0.24759999,-0.1762,-0.0001,-2.7023544,9.318798,-0.72548145,-1
239,240,1583935681948,-0.2024,-0.1284,0.0942,-2.5823765,9.363463000000001,-0.67322075,-1
240,241,1583935681958,-0.0605,-0.090799995,0.1507,-2.3600795,9.369392,-0.6938300999999999,-1
241,242,1583935681968,0.14029999,-0.092099994,0.0916,-2.2291357999999994,9.403208,-0.77168953,-1
242,243,1583935681979,0.2644,-0.0634,0.0346,-2.0975122,9.4160795,-0.8842745000000001,-1
243,244,1583935681989,0.3716,-0.0535,-0.059899997,-2.1949468,9.42422,-0.9379812,-1
244,245,1583935681999,0.21679999,-0.0526,-0.1151,-2.5325387000000004,9.346972000000001,-0.98756987,-1
245,246,1583935682009,-0.0532,-0.11,-0.16129999,-2.6319077,9.383059,-0.9497511000000001,-1
246,247,1583935682019,-0.14819999,-0.0797,-0.12079999599999999,-2.5920107000000003,9.438872,-1.0492734,-1
247,248,1583935682029,-0.106199995,0.0339,-0.23959999,-2.5744658,9.525782000000001,-1.0868049,d
248,249,1583935682040,-0.106199995,0.0339,-0.23959999,-2.5460324,9.54595,-1.0378003,-1
249,250,1583935682050,-0.0535,0.0804,-0.191,-2.5149844,9.575294,-0.9357594000000001,-1
250,251,1583935682060,-0.024699999,0.0755,0.0884,-2.5035689999999997,9.53894,-0.7280767,-1
251,252,1583935682070,-0.0083,0.07369999599999999,0.2241,-2.4822509999999998,9.541488000000001,-0.5872498,-1
252,253,1583935682080,0.0581,0.0822,0.20549999,-2.4059044999999997,9.556744,-0.5947197,-1
253,254,1583935682091,0.0473,0.1206,0.19909999,-2.4165732999999996,9.586834,-0.60024554,-1
254,255,1583935682101,0.0766,0.1496,0.175,-2.3931482,9.623465,-0.61830735,-1
255,256,1583935682111,0.1261,0.2181,0.2209,-2.3442682999999995,9.684967,-0.56431335,-1
256,257,1583935682121,0.0883,0.1988,0.2681,-2.4084997,9.646517,-0.5084423,-1
257,258,1583935682131,-0.105,0.101399995,0.2581,-2.61217,9.558822,-0.55824167,-1
258,259,1583935682142,-0.1916,0.0726,0.1815,-2.6428442000000003,9.573101,-0.67145866,-1
259,260,1583935682152,-0.0655,0.1313,0.0275,-2.4303255,9.633319,-0.7873284,-1
260,261,1583935682162,0.2051,0.2481,-0.028999999999999998,-2.1965842,9.762453,-0.8477389999999999,-1
261,262,1583935682174,0.32889998,0.32569999,-0.07719999599999999,-2.115239,9.838272,-0.8631002000000001,-1
262,263,1583935682184,0.3278,0.3841,-0.0393,-2.1677008,9.857322,-0.72105694,-1
263,264,1583935682194,0.2608,0.37449998,0.1437,-2.2744534,9.806861,-0.52383214,-1
264,265,1583935682204,0.13949999,0.31689999,0.3448,-2.4310436,9.729375,-0.36830485,-1
265,266,1583935682215,-0.0145,0.239,0.43159997,-2.5157217999999997,9.713899000000001,-0.33857843,-1
266,267,1583935682225,0.009000000000000001,0.25,0.41369998,-2.3184588,9.766552,-0.46228203,-1
267,268,1583935682235,0.2959,0.3296,0.2232,-2.1008067,9.809189,-0.7305859,-1
268,269,1583935682245,0.4075,0.3509,-0.0231,-2.1649234,9.755184,-0.90855163,-1
269,270,1583935682255,0.2582,0.285,-0.1419,-2.3118315,9.756717,-0.99543244,-1
270,271,1583935682267,0.1803,0.2785,-0.1937,-2.292879,9.685149000000001,-1.0562356000000002,-1
271,272,1583935682277,0.2507,0.2329,-0.25779998,-2.1990838,9.617183,-1.142197,-1
272,273,1583935682288,0.31239998,0.1187,-0.32459998,-2.4612775,9.477389,-1.0758872,-1
273,274,1583935682298,0.0233,0.0049,-0.228,-2.6050065,9.352872,-0.90538174,-1
274,275,1583935682308,-0.0095999995,-0.1087,-0.0652,-2.4656255000000002,9.191618,-0.9549609,-1
275,276,1583935682318,0.1134,-0.252,-0.1382,-2.495371,9.025346,-1.0336343000000001,-1
276,277,1583935682328,0.0806,-0.4637,-0.2509,-2.6039432999999996,8.734057,-1.0858184,-1
277,278,1583935682338,0.0167,-0.6932,-0.2899,-2.486838,8.518752000000001,-1.0411137,-1
278,279,1583935682349,0.14469999,-0.9066,-0.24659999,-2.4262650000000003,8.275051,-0.90290135,-1
279,280,1583935682359,0.21139999,-1.1479,-0.1227,-2.5348656000000003,7.915632700000001,-0.7290823000000001,-1
280,281,1583935682370,0.0652,-1.8650999,0.22479999,-2.6169677000000005,7.5478454,-0.52444506,-1
281,282,1583935682381,0.076699995,-2.3312,0.3233,-2.6284504,7.077404,-0.40207267,-1
282,283,1583935682391,0.0685,-2.9345,0.29479998,-2.6591346000000002,6.3426237,-0.4193588,-1
283,284,1583935682401,0.0691,-3.5184,0.276,-2.6570085999999997,5.6680813,-0.40780917,-1
284,285,1583935682412,0.0774,-4.2207,0.3339,-2.686754,4.9743466,-0.25375664,-1
285,286,1583935682422,0.0727,-4.8945,0.6342,-2.6852984,4.372818,0.044072464000000006,-1
286,287,1583935682432,0.2496,-5.4912996,0.8461,-2.5057044,3.7938232000000003,0.2562562,-1
287,288,1583935682442,0.38149998,-6.0797,0.7769,-2.3662853,3.0801022000000002,0.1149121,-1
288,289,1583935682452,0.47829998,-6.679199700000001,0.57449996,-2.2869797000000003,2.4948347,-0.036334403,-1
289,290,1583935682462,0.64739996,-7.2117996,0.4438,-2.0722678,2.1026645,-0.1819306,-1
290,291,1583935682474,0.9772,-7.6675,0.19699999999999998,-1.6982073,1.563069,-0.39797378,-1
291,292,1583935682484,1.185,-8.144199,0.14469999,-1.4083748,1.0753030000000001,-0.34135570000000004,-1
292,293,1583935682494,1.3406999,-8.465,0.2943,-1.3645704,0.7661733000000001,-0.005889736,-1
293,294,1583935682504,1.4346,-8.7379,0.67399997,-1.0717596999999999,0.54065865,0.48102388,-1
294,295,1583935682514,1.7008,-8.9924,1.1481999,-0.92646986,0.38287115,1.0230328000000002,-1
295,296,1583935682525,1.7376,-9.0517,1.6796,-0.8893214,0.40052122,1.4840125,-1
296,297,1583935682535,1.7492,-8.9848995,2.1039999,-0.8075355,0.7231064,2.0932121,-1
297,298,1583935682545,1.9671999,-8.5574,2.6387,-0.30360395,1.1550491000000003,2.332029,-1
298,299,1583935682555,2.2635,-8.1515,2.5923,-0.37991193,1.6782491000000002,1.8612142,-1
299,300,1583935682565,1.9073,-7.6088996,1.9977,-0.48178999999999994,2.1578652999999997,1.3053187,-1
300,301,1583935682576,2.0269,-7.2236,1.3434,-0.39432502,2.4488375,0.41525033,-1
301,302,1583935682586,1.788,-6.9763,0.4384,-0.86332995,2.9854736,-0.21984519,-1
302,303,1583935682596,1.2778,-6.436,0.191,-1.4003876,3.8824375,0.30232066,-1
303,304,1583935682606,0.608,-5.4377,0.8566,-1.9287593,5.21143,1.4275666,-1
304,305,1583935682616,0.0651,-4.1293,1.949,-1.7778001,6.534035,2.1488056,-1
305,306,1583935682626,0.1846,-2.8144,2.4043,-1.2439793,7.9368167000000005,1.6362357,-1
306,307,1583935682637,0.6709999999999999,-1.4035,1.7168,-0.41088334,9.475254,0.67598844,-1
307,308,1583935682647,1.2649,0.017099998999999998,0.71989995,0.029352912999999998,10.691413,-0.6241109,-1
308,309,1583935682657,1.3958,1.2142,-0.62549996,0.13591404,11.874005,-1.712812,-1
309,310,1583935682667,1.2610999,2.3646998,-1.5979999,0.0001532289,13.100325999999999,-2.0177374,-1
310,311,1583935682677,0.92829996,3.6158997999999998,-1.7411,0.23300370000000004,14.562042000000002,-1.6040386,-1
311,312,1583935682687,1.0426999,5.047,-1.3334999,0.9643461,15.831103,-1.2305909,-1
312,313,1583935682697,1.5777999,6.2283998,-1.1528,1.8324071,16.80039,-1.2301600000000001,-1
313,314,1583935682707,2.2082,7.1710997,-1.2767,2.4811592,17.55079,-1.7985243000000002,-1
314,315,1583935682717,2.5472,7.8167995999999995,-2.1141999,2.9578637999999997,17.971348000000003,-2.5112302000000004,-1
315,316,1583935682727,2.7837,8.2244,-2.7891,3.4372022000000007,18.196066000000002,-2.74297,-1
316,317,1583935682737,3.0746,8.4241,-3.1485999,4.1918545,18.333761,-2.3001575,-1
317,318,1583935682748,3.6773,8.6133995,-2.6253,5.269963300000001,18.519121,-0.4837245,-1
318,319,1583935682758,4.3547997,8.7734995,-1.2679,5.6230316,18.532020000000003,0.92966855,-1
319,320,1583935682768,4.551,8.7855,0.2119,5.159380400000001,18.163153,2.9649412999999996,-1
320,321,1583935682778,3.9234,8.5086,1.6579,3.3393559999999995,17.541435,4.4275684,-1
321,322,1583935682789,2.0040998,7.9375,2.8964,0.7017788,16.755571,5.939718,-1
322,323,1583935682799,-2.2907,6.7393,4.9131,-0.86270744,16.262376999999997,6.780858,-1
323,324,1583935682809,-2.2907,6.7393,4.9131,-0.83088374,15.974995000000002,5.932918,-1
324,325,1583935682819,-1.3127999,6.659,2.2679,0.27103320000000003,16.150423,4.2228355,-1
325,326,1583935682830,-0.19849999,6.6556997,0.50049996,1.4714476,16.142828,2.4130297,-1
326,327,1583935682840,0.3218,6.4736,-0.6174,2.0778415,15.959230999999999,1.2453201,-1
327,328,1583935682850,0.6353,6.0569997,-0.9985,2.5275874,15.445032999999999,0.7945781,-1
328,329,1583935682860,0.9576,5.651799700000001,-0.9528,2.8334036,15.12445,0.84497124,-1
329,330,1583935682870,1.2796999,5.2377996,-0.7434,3.210816,14.588197000000001,1.1317104,-1
330,331,1583935682880,1.1054,4.7151,-0.2004,3.0269032000000005,14.039933,1.6526217,-1
331,332,1583935682890,0.847,4.0432,0.0647,2.8203602,13.369472,1.9112049999999998,-1
332,333,1583935682900,0.90349996,3.6134998999999994,0.3137,2.9108417,13.058043,2.0919194,-1
333,334,1583935682910,0.81369996,3.0721998,0.2865,2.8088007,12.520163,2.0543303,-1
334,335,1583935682920,0.519,2.5568,0.1979,2.4267724,11.896511,1.9181291,-1
335,336,1583935682930,0.0169,1.9504,0.24219999,1.8801762,11.293038000000001,1.9625080000000001,-1
336,337,1583935682940,-0.4624,1.3326,0.2531,1.4099166,10.683148,1.9219979999999999,-1
337,338,1583935682951,-0.6795,0.7442,0.1901,1.2624339,10.151463,1.8143738999999999,-1
338,339,1583935682961,-0.49159998,0.3726,0.15869999,1.522358,9.798184,1.7556777,-1
339,340,1583935682971,0.040799998,0.1011,0.0579,2.1681125,9.550786,1.6259215,-1
340,341,1583935682981,0.5786,0.0473,0.1775,2.7584171000000004,9.575897,1.8071433999999997,-1
341,342,1583935682992,1.1358,0.0924,0.2043,3.1458662,9.590406,1.6789484000000001,-1
342,343,1583935683002,1.5115,0.08800000000000001,0.1103,3.498762,9.630524000000001,1.5987426000000002,-1
343,344,1583935683012,1.4732,0.0338,0.1594,3.2489796,9.481258,1.7654172,-1
344,345,1583935683023,1.1215998999999999,-0.13949999,0.5578,2.8211837,9.319995,2.199036,-1
345,346,1583935683033,0.6202,-0.31399998,1.0144,2.2458763,9.104823,2.600534,-1
346,347,1583935683043,0.045199998,-0.5584,1.3756,1.737568,8.944038,2.8430572,-1
347,348,1583935683053,-0.5670000000000001,-0.7157,1.4583,0.97821337,8.750415,2.8521549999999998,-1
348,349,1583935683063,-1.0638,-0.83419997,1.3727,0.49537948,8.717891999999999,2.5540385,-1
349,350,1583935683073,-1.4197999,-0.8742,0.9328,0.2767889,8.711217,2.129987,-1
350,351,1583935683084,-1.3629999,-0.7755,0.67359996,0.4957434,8.890486,1.8125352,-1
351,352,1583935683094,-0.8656,-0.5966,0.2692,1.1242405,9.095639,1.3180558999999998,-1
352,353,1583935683104,-0.2967,-0.2886,-0.1061,1.5966069999999999,9.447194,0.91656744,-1
353,354,1583935683114,-0.032899998,-0.06839999599999999,-0.38459998,1.7307971999999998,9.605087,0.6479859,-1
354,355,1583935683124,0.0563,0.1026,-0.54539996,1.7128310000000002,9.751182,0.43226835,-1
355,356,1583935683135,-0.067,0.1459,-0.7461,1.3956951000000002,9.726032,0.14565365,d
356,357,1583935683144,-0.5003,0.14989999,-0.9007,0.9328959000000001,9.804859,0.18714038,-1
357,358,1583935683154,-0.8731,0.20359999,-0.76919997,0.65138566,9.782592999999999,0.22932622,-1
358,359,1583935683164,-1.0724,0.15089999,-0.6956,0.57377523,9.773026,0.31855333,-1
359,360,1583935683174,-1.032,0.1689,-0.63159996,0.7619595,9.779405,0.26675240000000006,-1
360,361,1583935683184,-0.8508,0.1498,-0.71599996,1.0065031999999998,9.787669000000001,0.16604269,-1
361,362,1583935683194,-0.52739996,0.1915,-0.8408,1.5008005,9.864828999999999,0.11496957,-1
362,363,1583935683205,-0.0004,0.2962,-0.80939996,2.0206106,9.99629,0.27787107,-1
363,364,1583935683215,0.3624,0.3881,-0.57339996,2.08625,10.003453,0.72138256,-1
364,365,1583935683225,0.31579998,0.3823,-0.049799997,1.9754272000000002,9.996021,1.3605483,-1
365,366,1583935683235,0.18079999,0.38799998,0.5268,1.8617983,9.95828,1.8496549,-1
366,367,1583935683245,0.115899995,0.3344,0.9018,1.9288262999999999,9.959572,2.1484704,-1
367,368,1583935683256,0.2276,0.35819998,1.0616,2.0670197,9.965013,2.2088522999999998,-1
368,369,1583935683266,0.3119,0.3608,1.0649998999999999,1.9264033999999999,9.969503999999999,2.221283,-1
369,370,1583935683276,0.0963,0.3812,1.0576999,1.5977658000000001,9.972789,2.1168287,-1
370,371,1583935683286,-0.2139,0.3899,0.9145,1.3150872,10.068097,1.7958619999999998,-1
371,372,1583935683296,-0.4919,0.5132,0.5976,1.0492061000000001,10.323769,1.4336288000000001,-1
372,373,1583935683306,-0.7259,0.8055,0.2681,1.0833571000000002,10.77475,1.1694335,-1
373,374,1583935683317,-0.6109,1.2846999,0.0691,1.3925443000000002,11.394763000000001,1.1436719,-1
374,375,1583935683327,-0.3074,1.9129,0.09999999400000001,1.7073723000000003,12.095152,1.3608738,-1
375,376,1583935683337,0.0019999999,2.6611,0.3426,2.0318153000000003,12.925701,1.8387182,-1
376,377,1583935683347,0.30069998,3.5094,0.88269997,2.0508828,13.781044,2.4852867,-1
377,378,1583935683358,0.1539,4.348799700000001,1.4646,1.6175705,14.383386999999999,2.9585437999999997,-1
378,379,1583935683368,-0.3462,5.0902,2.0338,1.4338683,15.459514000000002,3.8030267,-1
379,380,1583935683378,-0.3597,5.89,2.5691,1.7554287,16.180982999999998,4.2400928,-1
380,381,1583935683388,0.1217,6.7969,3.0479,2.902529,17.370794,4.5760760000000005,-1
381,382,1583935683399,2.2525,8.563499,3.0769,3.9762422999999996,18.129442,4.435756700000001,-1
382,383,1583935683409,2.2525,8.563499,3.0769,4.3311496,18.379301,4.031500299999999,-1
383,384,1583935683419,2.4187,8.7128,2.3966,4.011811,18.300864999999998,3.804645,-1
384,385,1583935683430,1.734,8.247,2.2405999,3.2106533,17.842817,3.6653025,-1
385,386,1583935683440,1.734,8.247,2.2405999,2.321533,17.346346,3.8933167,-1
386,387,1583935683450,0.6792,7.228399799999999,2.7684999,1.8372912000000001,16.764574,4.339462,-1
387,388,1583935683460,0.6019,6.6882997,2.9248,1.6550063000000002,16.32064,4.4655695,-1
388,389,1583935683470,0.37919998,5.9537997,2.6115,1.2574635,15.600791000000001,4.2131724,-1
389,390,1583935683480,0.3897,5.2981,2.2231,1.11701,14.832434,3.7498467000000004,-1
390,391,1583935683491,0.86139995,4.749399700000001,1.4283,1.4713136,14.294629,2.8617797,-1
391,392,1583935683501,1.5577999,4.1113,0.3955,1.9911617,13.655655,1.798486,-1
392,393,1583935683511,2.0125,3.3952,-0.611,2.1759557999999997,13.089857,0.97780156,-1
393,394,1583935683521,1.6697999,2.4078999,-1.4502,1.5193603,11.883774,0.04564306,-1
394,395,1583935683531,0.9777,1.2698,-1.4702,0.25879404,10.468436,0.24491726,-1
395,396,1583935683542,0.0084999995,0.0993,-0.90199995,-0.60794526,9.599427,0.78494376,-1
396,397,1583935683552,-0.6986,-0.7327,-0.1611,-1.5322795,8.638278999999999,1.6660867,-1
397,398,1583935683562,-0.75009996,-1.4843998999999999,0.6465,-1.2625104999999999,8.066047,2.320872,-1
398,399,1583935683572,-0.0626,-1.8554,0.75909996,-0.8405851000000001,7.6783295,2.3327856,-1
399,400,1583935683583,0.6159,-2.2977998,0.74109995,-0.18615398,7.177050599999999,2.1852071,-1
400,401,1583935683593,0.9084,-2.8906,0.48729998,-0.23256317,6.5895615,1.9621345000000001,-1
401,402,1583935683603,0.4856,-3.5946,0.294,-1.0550481000000003,5.781461,1.7077456999999998,-1
402,403,1583935683613,-0.5279,-4.3321,0.213,-2.4261115,4.9147887,1.5945958,-1
403,404,1583935683624,-2.2569999999999997,-5.2901998,0.36389998,-3.8918898,4.175296299999999,1.6956693999999999,-1
404,405,1583935683633,-2.862,-6.0288997,0.1369,-3.3470557,3.6077557000000002,0.64386785,-1
405,406,1583935683645,0.055,-5.8036,-1.8258,1.0479325000000002,4.330794999999999,-2.2757845000000003,-1
406,407,1583935683655,3.6271,-5.0892,-3.8047,3.9265003,4.990732,-3.6072671,-1
407,408,1583935683665,5.4978,-4.5158997,-4.5174,3.9577400000000003,5.271649,-3.4088260000000004,-1
408,409,1583935683675,4.3982,-4.4933,-3.648,1.9211171000000002,5.098031,-1.8894848999999998,-1
409,410,1583935683686,2.1506,-4.6906,-1.7269999999999999,-0.3570521,4.921483,0.13947661,-1
410,411,1583935683696,-0.0286,-4.9456,0.1479,-3.2200959,4.503014599999999,1.8504115,-1
411,412,1583935683707,-2.5486999,-5.3011,1.4207,-5.857616,3.9410953999999996,2.4537023999999996,-1
412,413,1583935683716,-5.0934,-5.9458,1.9756999,-6.115749,3.5324150000000003,2.2513732999999996,-1
413,414,1583935683726,-3.2328,-5.9495997,0.91789997,0.43486366,5.083551,-1.8603808999999998,-1
414,415,1583935683736,2.5657,-4.3787,-2.8689999999999998,5.4015010000000006,6.375941,-5.4730872999999995,-1
415,416,1583935683746,6.8577,-3.2147,-5.9726,6.5440235,7.076484,-6.5725527,-1
416,417,1583935683757,7.1551,-2.6311,-6.3666,4.6517615,7.075824000000001,-5.0281873,-1
417,418,1583935683767,4.9746,-2.7862,-4.4024997,2.0209744,6.544934,-2.4627619,-1
418,419,1583935683777,2.3906,-3.3393998,-1.8719999999999999,-0.673374,6.1885805,-0.20887016,-1
419,420,1583935683787,-0.0942,-3.5863,0.2879,-2.327681,6.309507,1.4744738000000002,-1
420,421,1583935683797,-1.4113,-3.4018,1.6667,-2.5803175,6.6047697,1.3663421999999998,-1
421,422,1583935683808,-1.3032,-3.053,1.2673,-1.2150766000000002,7.2237279999999995,0.1468699,-1
422,423,1583935683818,0.33519998,-2.3834999,-0.114999995,0.526054,7.861629499999999,-1.6195433000000001,-1
423,424,1583935683828,1.91,-1.7843,-1.7267,1.1503948,8.164150999999999,-2.3215137,-1
424,425,1583935683838,2.2566,-1.5863999,-2.1743999,0.38833952,8.071582000000001,-1.8075457,-1
425,426,1583935683848,1.3176999,-1.7004,-1.4568,-1.0855023000000001,7.860728999999999,-0.5210166,-1
426,427,1583935683858,0.1677,-1.8810999,-0.40219998,-2.0764625,7.773245299999999,0.44158655,-1
427,428,1583935683869,-0.7632,-1.9632,0.51199996,-2.535134,7.9449380000000005,1.0541478000000002,-1
428,429,1583935683879,-1.1803,-1.7809,1.1099,-2.5846174,8.0860815,0.9326085999999999,-1
429,430,1583935683889,-0.7015,-1.3328999,0.6504,-2.0998490000000003,8.389274,0.5962903,-1
430,431,1583935683899,0.28239998,-0.9597,0.20629999,-1.1133899999999999,8.757137,0.13505213,-1
431,432,1583935683909,1.0356,-0.6655,-0.0971,-0.36192670000000005,9.055369,-0.21017261,-1
432,433,1583935683919,1.0356,-0.6655,-0.0971,0.004185064699999999,9.236514,-0.45008117,-1
433,434,1583935683929,1.3901,-0.4788,-0.3145,-0.14262737,9.2992325,-0.31424376,-1
434,435,1583935683940,1.273,-0.4085,-0.17379999,-0.8439848,9.193266,-0.09423578,-1
435,436,1583935683950,0.0837,-0.6563,0.3091,-1.3702879,9.058261,0.16989255,-1
436,437,1583935683960,-0.1577,-0.67219996,0.3818,-1.6759125,9.046318,0.19687042,-1
437,438,1583935683970,-0.1577,-0.67219996,0.3818,-1.8841218000000002,9.127578,0.041467573,-1
438,439,1583935683980,-0.49749997,-0.50949997,-0.0598,-2.007404,9.212879,-0.32831209999999994,-1
439,440,1583935683990,-0.43989998,-0.4391,-0.3135,-1.9124308999999997,9.266624,-0.59945065,-1
440,441,1583935684001,-0.2886,-0.35959998,-0.4734,-1.8305203999999997,9.331296,-0.7382569,-1
441,442,1583935684011,-0.3937,-0.35889998,-0.45479998,-1.9268248,9.337674,-0.67618,-1
442,443,1583935684021,-0.3035,-0.36839998,-0.22909999,-1.825349,9.316634,-0.4577139,-1
443,444,1583935684031,-0.3511,-0.36839998,0.0001,-1.9245359,9.307421000000001,-0.18760964,-1
444,445,1583935684041,-0.5259,-0.53499997,0.168,-2.1399662,9.142374,-0.05073792,-1
445,446,1583935684052,-0.8204,-0.60389996,0.3566,-2.3390777000000003,9.087107000000001,0.1657458,-1
446,447,1583935684062,-0.5621,-0.4775,0.48929998,-2.001179,9.255352,0.3005968,-1
447,448,1583935684072,-0.0157,-0.2539,0.5191,-1.3486251,9.526739,0.24377762,-1
448,449,1583935684082,0.3042,-0.1284,0.3786,-1.1557481,9.569606,0.100355364,-1
449,450,1583935684092,0.3539,-0.1589,0.24419999,-1.161772,9.467238,-0.09677364,-1
450,451,1583935684103,0.28219998,-0.2863,0.037699997,-1.2071278,9.397932,-0.26791117,-1
451,452,1583935684113,0.23529999,-0.2951,-0.2331,-1.282526,9.342979,-0.77807724,-1
452,453,1583935684123,0.1723,-0.4014,-0.7888,-1.3562865,9.275176,-1.2244618,-1
453,454,1583935684133,0.0407,-0.44919997,-0.96279997,-1.5406592,9.197777,-1.292189,-1
454,455,1583935684143,-0.074599996,-0.5078,-0.8584,-1.5777502,9.197833000000001,-1.1120780000000001,-1
455,456,1583935684154,0.019299998999999998,-0.4109,-0.5118,-1.3632201000000002,9.339752,-0.6658754,-1
456,457,1583935684164,0.2733,-0.2662,-0.1532,-1.1318828,9.490768,-0.09250238,-1
457,458,1583935684174,0.3191,-0.20019999,0.3699,-1.2598385,9.473981,0.44081086,-1
458,459,1583935684184,0.16059999,-0.25149998,0.8476,-1.3280541000000001,9.447577,0.7494522,d
459,460,1583935684194,0.1513,-0.214,1.0507,-1.2214258999999998,9.571252000000001,0.7697071,-1
460,461,1583935684204,0.2297,-0.0879,0.8754,-1.1953098999999998,9.69758,0.43453804,-1
461,462,1583935684215,0.2969,0.0591,0.47239998,-1.1743463,9.860175,-0.048439487999999996,-1
462,463,1583935684225,0.2315,0.18769999,-0.0025,-1.2683618,9.939059,-0.58569837,-1
463,464,1583935684235,0.122999996,0.2683,-0.4429,-1.4265995,10.0126095,-0.9211069,-1
464,465,1583935684245,-0.060099997,0.3202,-0.6987,-1.6952383999999998,10.013278999999999,-1.1247002000000001,-1
465,466,1583935684255,-0.3019,0.31309998,-0.86289996,-1.872668,10.0214,-1.2706986999999998,-1
466,467,1583935684266,-0.37109998,0.32479998,-0.8991,-1.8466668000000002,10.04134,-1.1405402,-1
467,468,1583935684276,-0.319,0.38419998,-0.7101,-1.6917046000000002,10.075931,-0.94536495,-1
468,469,1583935684286,-0.18429999,0.3836,-0.56869996,-1.6993563999999999,10.085192,-0.8061086,-1
469,470,1583935684296,-0.22019999,0.40179998,-0.35529998,-1.7490218999999998,10.131342,-0.47505748,-1
470,471,1583935684306,-0.23969999,0.43899998,-0.0968,-1.5200403999999998,10.210101,-0.301679,-1
471,472,1583935684316,0.0314,0.5247,0.0145,-1.0713669,10.322007000000001,-0.25285643,-1
472,473,1583935684326,0.4685,0.6301,0.050699997999999996,-0.7695347,10.414778,-0.07150044,-1
473,474,1583935684337,0.7040000000000001,0.6971,0.2771,-0.7249451,10.438576,0.16848476,-1
474,475,1583935684347,0.6824,0.72609997,0.4497,-0.8619126,10.412556,0.07820419999999999,-1
475,476,1583935684357,0.5412,0.6879,0.27699998,-1.0576721000000002,10.354252,-0.33794636,-1
476,477,1583935684367,0.35689998,0.64089996,-0.113299996,-1.2299875,10.367918,-0.5668129,-1
477,478,1583935684377,0.1467,0.6633,-0.31329998,-1.4620719,10.400077,-0.5934172,-1
478,479,1583935684388,-0.012499999,0.6861,-0.2481,-1.7269473000000002,10.356244,-0.55340534,-1
479,480,1583935684398,-0.2218,0.6597,-0.20349999,-1.8438226000000002,10.337953,-0.6041624,-1
480,481,1583935684408,-0.3284,0.6422,-0.2487,-1.4856883,10.462288000000001,-0.7221104,-1
481,482,1583935684418,0.026999999,0.7705,-0.3543,-0.8106767,10.731741,-1.0165014,-1
482,483,1583935684428,0.6982,1.0349,-0.6365,-0.08298303,11.0137205,-1.4069573999999998,-1
483,484,1583935684438,1.4265,1.3284999,-1.0065,0.36520198,11.270072,-1.7236911,-1
484,485,1583935684448,1.8543999,1.5735999,-1.3084999,0.5088349,11.341823,-1.7682807,-1
485,486,1583935684458,1.9964998999999999,1.6728,-1.3276,0.55072385,11.402942,-1.620932,-1
486,487,1583935684468,2.0597,1.7147,-1.1695,0.57638013,11.400891,-1.6392331999999998,-1
487,488,1583935684478,2.0916,1.6992999,-1.2233,0.6123889,11.380053,-1.7423084999999998,-1
488,489,1583935684488,2.1983,1.7048,-1.29,0.86375135,11.384314999999999,-1.9876183999999997,-1
489,490,1583935684498,2.5149999,1.7213,-1.5741,1.2617346999999999,11.431663,-2.4402277000000003,-1
490,491,1583935684508,2.9534,1.7784,-2.006,1.5486846,11.361972,-3.0170293,-1
491,492,1583935684518,3.2321,1.6804999,-2.5491,1.4966346000000001,11.125529,-3.4782197,-1
492,493,1583935684529,3.1871998,1.4182,-2.9341998,1.2712444999999999,10.718621,-3.7836719,-1
493,494,1583935684539,3.0439999999999996,1.0892998999999999,-3.1157,0.96458554,10.296054,-3.893968,-1
494,495,1583935684550,2.6489,0.2129,-3.2433999,0.7169101999999999,9.802982,-3.9848614,-1
495,496,1583935684561,2.3367,-0.2755,-3.2378,0.31281679999999995,9.295899,-4.0168767,-1
496,497,1583935684571,1.9813,-0.71279997,-3.3811998,-0.22527522,8.7494755,-4.255980999999999,-1
497,498,1583935684581,1.755,-1.1488999,-3.7136,-0.54912454,8.276314999999999,-4.653466000000001,-1
498,499,1583935684591,1.5662,-1.5847,-4.1003,-0.79319906,7.835101600000001,-5.048012,-1
499,500,1583935684601,1.5403,-1.9721999,-4.4971,-0.8814589,7.4030538,-5.4813237,-1
500,501,1583935684611,1.5974,-2.5187,-4.8321,-0.9934978999999999,6.6622777,-5.669192,-1
501,502,1583935684621,1.3452,-3.1857,-4.544699700000001,-1.3559226,6.0985107,-5.265443299999999,-1
502,503,1583935684631,0.80179995,-3.9248,-3.8537,-1.9593381,5.331849,-4.4870787000000005,-1
503,504,1583935684641,0.41399997,-4.6191,-3.0293999,-2.3641305,4.670637,-3.5683086000000004,-1
504,505,1583935684651,0.3938,-5.151,-2.2309,-2.3543334,4.1664186,-2.6855759999999997,-1
505,506,1583935684661,0.6137,-5.4512997,-1.4499999,-2.1287422,3.8687332000000003,-1.6640085,-1
506,507,1583935684671,0.81329995,-5.6651998,-0.8071,-1.9906637999999999,3.6792464,-1.0835296,-1
507,508,1583935684682,0.81329995,-5.6651998,-0.8071,-1.9374168,3.524581,-0.59297675,-1
508,509,1583935684692,1.1054,-6.0134,0.1584,-1.832972,3.1922371,0.29060823,-1
509,510,1583935684702,0.82769996,-6.428499700000001,0.93039995,-2.3241954,2.7288728,1.1323426,-1
510,511,1583935684712,0.2295,-7.0153,1.7493,-3.071751,2.006322,1.9551146000000001,-1
511,512,1583935684722,-0.8275,-8.0097,2.3146,-4.3806806,0.8670361999999999,2.4228747000000004,-1
512,513,1583935684732,-2.2424998,-9.0999,2.8109999,-5.818092299999999,-0.08700529,2.971568,-1
513,514,1583935684743,-3.373,-9.7712,3.2623,-6.7739053,-0.70139575,3.2872775,-1
514,515,1583935684753,-3.9299,-10.312999999999999,3.4789,-7.122549,-1.1040621000000002,3.5573718999999997,-1
515,516,1583935684763,-4.0494,-10.287399,3.6906998,-7.029644500000001,-0.87483174,3.5610303999999995,-1
516,517,1583935684773,-3.5496,-10.0484,3.6676998,-5.994909,-0.48030559999999994,3.8124597000000002,-1
517,518,1583935684783,-2.6051,-9.5559,4.2353997,-5.1084986,0.027696125,4.505974,-1
518,519,1583935684793,-1.4240999,-9.0027,5.2714,-3.64002,0.6674842,5.741765,-1
519,520,1583935684803,0.011899999,-8.3066,6.915499700000001,-2.1649043999999997,1.4466534,7.646725999999999,-1
520,521,1583935684813,0.99869996,-7.4340997,8.9131,-1.1997153999999999,2.4544685,9.443421,-1
521,522,1583935684823,1.6215998999999999,-6.3044,9.958,-0.70491046,3.7481515,9.8675785,-1
522,523,1583935684833,1.6566,-5.0151997,9.7471,-0.61530024,5.0861845,9.307325,-1
523,524,1583935684844,1.5412999,-3.5865998,8.7422,-0.57687813,6.655555199999999,8.040697,-1
524,525,1583935684854,1.6025,-1.9417,7.6193,-0.06159802,8.228268,6.973447999999999,-1
525,526,1583935684864,2.6304998,-0.58169997,6.5804,1.8227537,10.056989,6.108231,-1
526,527,1583935684874,3.9225998,1.0433,6.4143,2.724391,11.453899,6.3726373,-1
527,528,1583935684884,4.3168,2.0928,6.6853,2.9271607000000004,12.146676,6.588642,-1
528,529,1583935684894,4.0745,2.9701998,6.83,2.3744542999999996,13.135998,6.8008356,-1
529,530,1583935684904,3.1641998,3.6071,6.8044,1.3408391000000002,13.535438000000001,6.912309,-1
530,531,1583935684915,1.8456999,3.8860997999999998,6.9184,0.31173465,13.940881,7.3712587,-1
531,532,1583935684925,1.0028,4.3956,7.1273,0.28015992,14.542361999999999,7.4594994,-1
532,533,1583935684936,1.1675999,5.0578,6.9466996,0.89042276,15.2161,7.819175200000001,-1
533,534,1583935684945,1.6393,5.678499700000001,7.4466,1.4673488000000001,15.711125,8.891250999999999,-1
534,535,1583935684955,1.9597,6.014199700000001,8.51,1.862507,15.886859,10.348947,-1
535,536,1583935684965,2.1107,6.2896,9.6992,1.8527961,16.272594,11.32082,-1
536,537,1583935684975,1.6758,6.5985,9.8351,1.3544669,16.345675,10.512058,-1
537,538,1583935684985,1.1725,6.7286,8.246099000000001,1.1921018,16.678268,8.413903999999999,-1
538,539,1583935684996,1.0416,7.1671,5.7383,1.3202682,16.983873000000003,5.6506414000000005,-1
539,540,1583935685006,1.0998,7.3462996,2.8539,1.5557714,17.045998,3.04123,-1
540,541,1583935685016,1.3242999,7.4082,0.53429997,1.971989,17.053257000000002,1.7017124,-1
541,542,1583935685026,1.5472,7.3486,-0.13239999,1.8760293999999997,16.623518,2.3008467999999995,-1
542,543,1583935685036,1.2445998999999999,6.9258,0.5922,1.657793,16.151514000000002,3.5551120000000003,-1
543,544,1583935685046,0.9295,6.4921,1.7175,1.3372669,15.810542000000002,4.342833000000001,-1
544,545,1583935685057,0.40539998,6.0815997,2.1921,1.1587648000000002,15.267681,4.0375147,-1
545,546,1583935685067,0.4527,5.736399700000001,1.4670999,2.1547527,15.170945000000001,2.596684,-1
546,547,1583935685077,1.3804,5.6874,-0.0413,3.377414,15.02646,0.76229465,-1
547,548,1583935685087,2.6641,5.5799,-2.1176,4.83624,15.067372,-1.0263752,-1
548,549,1583935685098,4.0478,5.651,-3.8427,5.9621463,15.045345000000001,-2.4042093999999996,-1
549,550,1583935685108,4.9911,5.5786,-5.1005,6.303617,14.770079,-3.1441615,-1
550,551,1583935685118,5.098099700000001,5.254699700000001,-5.7275996,5.4930069999999995,14.224832999999999,-3.541034,-1
551,552,1583935685128,4.1327,4.6688,-6.1043997,4.343896,13.608613,-4.097551999999999,-1
552,553,1583935685138,3.0368,4.0475,-6.6618,3.3783812999999996,13.007267,-5.132354299999999,-1
553,554,1583935685148,2.2970998,3.5509,-7.5021,3.2591789,12.635467,-6.121332,-1
554,555,1583935685159,2.2082,3.1625997999999997,-8.4485,3.8911428,12.502024,-6.864971000000001,-1
555,556,1583935685169,2.8448,3.0137,-9.1402,4.7734632,12.4981165,-7.169044500000001,-1
556,557,1583935685179,4.217,2.8104,-9.2907,5.2535872,12.314873,-7.0462604,-1
557,558,1583935685189,4.6233997,2.5762,-8.8805,5.643737000000001,12.073777,-6.625666000000001,-1
558,559,1583935685200,4.6233997,2.5762,-8.8805,5.76814,11.808060000000001,-5.980649,-1
559,560,1583935685210,4.7756,2.312,-8.2604,5.2991824,11.346716,-5.3980055,-1
560,561,1583935685220,3.8176,1.4577,-7.4307,4.5623045,10.852601,-5.139154,-1
561,562,1583935685230,3.0024,0.8947,-7.3852,3.700957,10.324314,-5.2126465,-1
562,563,1583935685240,2.3176,0.3771,-7.7935996,2.9775348,9.791730000000001,-5.729861,-1
563,564,1583935685250,2.3176,0.3771,-7.7935996,2.4588257999999996,9.297279,-6.31736,-1
564,565,1583935685261,1.8134999,-0.16659999,-8.3012,2.2013345,8.999325,-6.676902,-1
565,566,1583935685271,1.601,-0.8779,-9.092199,2.3392022,8.685972,-7.132346000000001,-1
566,567,1583935685281,2.2128,-0.9935,-9.101399,2.9808865,8.581614,-7.087650999999999,-1
567,568,1583935685291,2.8137999,-1.1230999,-8.5654,3.4792826,8.438919,-6.4075065,-1
568,569,1583935685301,2.9384,-1.2385,-7.4214997,3.5542881,8.341485,-4.9303703,-1
569,570,1583935685312,2.9104,-1.3511,-6.0931997,3.4930542,8.20762,-3.803697,-1
570,571,1583935685322,2.8265998,-1.4142,-4.8132997,3.4207015,8.1006565,-2.3483767999999996,-1
571,572,1583935685332,2.7356,-1.6653,-3.7001,3.3366074999999995,7.8535466,-1.4318091999999998,-1
572,573,1583935685342,2.6274998,-1.939,-2.7372,3.366372,7.578759,-0.47104484,-1
573,574,1583935685352,2.9420998,-2.1087,-2.3706,3.9068105,7.439273,-0.40652588,-1
574,575,1583935685362,3.8467998999999997,-2.0176,-2.6873999,4.9319024,7.709732000000001,-0.89888865,-1
575,576,1583935685373,4.3767,-1.8219,-2.8188999,4.9570894,7.848260400000001,-0.7442041,-1
576,577,1583935685383,3.4441,-1.7358999,-2.1174998,3.484119,7.7973022,0.1301105,-1
577,578,1583935685393,3.4441,-1.7358999,-2.1174998,1.220995,7.504318700000001,1.5274336000000002,-1
578,579,1583935685403,-0.7659999999999999,-2.1532,0.61689997,-0.43226835,7.530195,2.7602463,-1
579,580,1583935685413,-1.7105999,-1.9222,1.7369,-0.96537083,7.9163227,3.7371093999999996,-1
580,581,1583935685423,-1.6148,-1.2856,2.6534,-0.37489367,8.691929,4.7088103,-1
581,582,1583935685433,-0.93829995,-0.4192,3.8109,0.37428075,9.512135,5.7918706,-1
582,583,1583935685443,-0.3164,0.2741,4.7977,1.0955483999999998,10.120702,6.604156,-1
583,584,1583935685454,0.28849998,0.63769996,5.3259,2.040779,10.429611999999999,6.940119999999999,-1
584,585,1583935685464,0.95919997,0.90709996,5.4595,2.7868316,10.653412,7.051776400000001,-1
585,586,1583935685474,2.0319,1.3179,5.9398,4.218239,11.101645,8.049995,-1
586,587,1583935685484,2.9248998,1.6236999,6.9449,4.8518305,11.192098,8.950358999999999,-1
587,588,1583935685494,3.2071,1.6451,7.7436,4.8025007,11.147260000000001,9.70526,-1
588,589,1583935685505,2.7468998,1.5472,8.3373995,4.0810122,10.906231,10.047363,-1
589,590,1583935685515,1.9347999,1.2996,8.4272995,3.4067767,10.678513,9.922788,-1
590,591,1583935685525,1.3317,1.138,8.1553,3.0806673,10.596267999999998,9.55028,-1
591,592,1583935685535,1.0798,1.0626,7.6527,2.8813452999999996,10.47855,8.924616,-1
592,593,1583935685545,0.78599995,0.9454,6.9318,2.5251741,10.281966,8.116209,-1
593,594,1583935685555,0.41279998,0.747,6.040499700000001,2.244181,10.088285,7.3034740000000005,-1
594,595,1583935685566,0.13509999,0.5556,5.3526998,1.9560244999999998,9.906642,6.720256,-1
595,596,1583935685576,-0.16589999,0.35119998,4.7149997,1.7529292,9.744545,6.1657777000000005,-1
596,597,1583935685586,-0.3436,0.2216,4.1594,1.6591723000000003,9.604694,5.526114499999999,-1
597,598,1583935685596,-0.34989998,0.1277,3.7159,1.5641702,9.45769,4.9071940000000005,-1
598,599,1583935685606,-0.4788,-0.057699997,3.1292,1.3040067,9.336381,4.3011928,-1
599,600,1583935685617,-0.7302,-0.1767,2.5897,1.1078641000000002,9.195400999999999,3.67509,-1
600,601,1583935685627,-0.9101,-0.3354,1.9826,0.9420705,9.109153,3.076032,-1
601,602,1583935685637,-1.0415,-0.4247,1.2458999,0.8546916999999999,9.037422,2.1731689999999997,-1
602,603,1583935685647,-1.1077,-0.4924,0.5812,0.85524714,9.018105499999999,1.5368285,-1
603,604,1583935685657,-1.0812,-0.5079,0.0311,0.8728014000000001,8.975135,1.3036811000000001,-1
604,605,1583935685667,-1.0407,-0.5395,-0.1029,0.9601323,8.994555,1.4901702,-1
605,606,1583935685678,-0.9666,-0.5287,0.1409,1.0116843,9.026696000000001,1.8268334,-1
606,607,1583935685688,-0.9159,-0.47619998,0.4626,1.2222591999999999,9.075921000000001,2.0413346000000003,-1
607,608,1583935685698,-0.6623,-0.41239998,0.6214,1.4425353,9.11983,2.2107674999999998,-1
608,609,1583935685708,-0.5275,-0.38779998,0.7421,1.3905907,9.102839999999999,2.128139,-1
609,610,1583935685718,-0.5872,-0.4035,0.6529,1.4076661,9.027510000000001,1.8400685,-1
610,611,1583935685729,-0.5858,-0.4797,0.36499998,1.4625603,9.03588,1.7904607,-1
611,612,1583935685739,-0.5342,-0.4685,0.30699998,1.4259483,8.991932,1.9020495,-1
612,613,1583935685749,-0.5663,-0.5067,0.6507,1.4375073999999999,9.002007,2.1241167,-1
613,614,1583935685759,-0.62259996,-0.46739998,0.6994,1.3910694,9.0365505,2.1548772,-1
614,615,1583935685769,-0.7007,-0.4673,0.4569,1.3237828,9.037623,1.8975006,-1
615,616,1583935685780,-0.5672,-0.3879,0.2349,1.4747038000000001,9.115932,1.6694767,-1
616,617,1583935685790,-0.5672,-0.3879,0.2349,1.8983147,9.259699000000001,1.3953311000000002,-1
617,618,1583935685800,-0.0186,-0.17639999,-0.1077,2.0822468,9.33573,1.2965943000000002,-1
618,619,1583935685810,-0.0396,-0.1722,-0.0752,2.046056,9.297433,1.3608258999999998,-1
619,620,1583935685820,-0.0307,-0.15799999,0.072399996,2.1313088,9.345096,1.5180675,-1
620,621,1583935685830,0.1845,-0.0655,0.1628,2.4049373,9.453897999999999,1.5489336,-1
621,622,1583935685841,0.1845,-0.0655,0.1628,2.7654943,9.59982,1.3900831,-1
622,623,1583935685851,0.5244,0.1749,-0.047399998,2.4527544999999997,9.639764999999999,1.4001291999999999,-1
623,624,1583935685861,-0.2668,0.1752,0.1081,1.7608491000000002,9.641335,1.494432,-1
624,625,1583935685871,-0.7542,0.1073,-0.0235,1.4308994,9.564539,1.2994864,d
625,626,1583935685881,-0.6314,0.1595,-0.2179,1.6363794,9.648796,1.1180443000000002,-1
626,627,1583935685891,-0.24229999,0.2243,-0.3306,1.9769115000000002,9.690646000000001,1.0515908,-1
627,628,1583935685901,0.23969999,0.311,-0.2931,2.6120262000000003,9.774051,1.1299771,-1
628,629,1583935685912,0.79029995,0.3691,-0.1722,3.1651632999999997,9.837937,1.2948608,-1
629,630,1583935685922,0.9436,0.436,0.14479999,3.2130857,9.865538,1.6417999,-1
630,631,1583935685932,0.7026,0.3825,0.4482,2.9503557999999996,9.821638,1.9905968,-1
631,632,1583935685942,0.5064,0.3752,0.61469996,2.736582,9.787600999999999,2.0533151999999997,-1
632,633,1583935685952,0.2845,0.3651,0.5773,2.5919435,9.778964,1.9106495,-1
633,634,1583935685962,0.2316,0.3335,0.3242,2.5553699,9.771942999999998,1.58228,-1
634,635,1583935685972,0.1801,0.3496,-0.0598,2.5279322,9.799984,1.2359156999999998,-1
635,636,1583935685983,0.1786,0.3852,-0.3949,2.5019312,9.837019,0.85019064,-1
636,637,1583935685993,0.098699994,0.42159998,-0.5877,2.3758142,9.853711,0.6843873,-1
637,638,1583935686003,-0.109299995,0.3709,-0.70879996,2.1745097999999996,9.814647,0.60648006,-1
638,639,1583935686013,-0.20199999,0.35119998,-0.6222,2.1532492999999997,9.780257,0.7657326999999999,-1
639,640,1583935686023,-0.2193,0.3038,-0.3748,2.1376104,9.724097,1.0041951999999998,-1
640,641,1583935686033,-0.2482,0.20799999,-0.14919999,2.1017547000000003,9.594495,1.2394782,-1
641,642,1583935686044,-0.26839998,0.082899995,0.0486,2.1878022999999995,9.490501,1.3920943000000001,-1
642,643,1583935686054,-0.0642,0.0064999997,0.1136,2.3784959999999997,9.426748,1.4067945,-1
643,644,1583935686064,0.0229,0.0077,0.1638,2.3957338,9.447673,1.481034,-1
644,645,1583935686074,-0.053999998,-0.0016,0.2556,2.3266087000000004,9.485339,1.6001503000000001,-1
645,646,1583935686084,-0.049999997000000004,0.12529999,0.39749998,2.411277,9.693022000000001,1.8250712,-1
646,647,1583935686094,-0.0543,0.3206,0.72609997,2.1935484,9.864341,2.1776892999999995,-1
647,648,1583935686105,-0.41959998,0.555,1.1214,1.8137037,10.133057,2.4935706000000004,-1
648,649,1583935686115,-0.81409997,0.9468,1.4626,1.5863789,10.741221000000001,2.8219402000000002,-1
649,650,1583935686125,-0.73109996,1.6344,1.7485,1.8866022,11.734088,3.2990565000000003,-1
650,651,1583935686136,-0.4452,2.7654,2.3969998,2.0098462,12.842977000000001,4.212445,-1
651,652,1583935686146,-0.4707,3.8681997999999997,3.4136998999999997,1.9369762,14.265103,5.609806,-1
652,653,1583935686156,-0.4998,5.0599,4.5910997,2.0124798,15.377488,7.098654700000001,-1
653,654,1583935686166,-0.40539998,6.1739999999999995,6.0662,2.2178063,16.466305,8.50182,-1
654,655,1583935686176,-0.1174,7.2886996,7.3115997,2.7267083999999997,17.605253,9.359404,-1
655,656,1583935686186,0.4448,8.4127,7.9399,3.2334652000000004,18.657028,9.378844,-1
656,657,1583935686197,0.9924,9.4166,7.7602,4.0149040000000005,19.456738,9.046375999999999,-1
657,658,1583935686207,1.9248999,10.2013,7.312,5.069751,20.045914,8.938188,-1
658,659,1583935686217,3.0563,10.7085,7.2353997,5.879805,20.176743,9.224907,-1
659,660,1583935686227,3.8864,10.7315,7.5089999999999995,6.297191000000001,20.001526000000002,9.867405,-1
660,661,1583935686238,4.2907,10.5021,8.1297,5.966245,19.524055,10.511608,-1
661,662,1583935686248,4.0243,9.971399,8.607999999999999,5.4519515,18.896658,10.539486,-1
662,663,1583935686258,3.8725998,9.2305,8.4208,4.926711599999999,18.003984,9.831578,-1
663,664,1583935686268,3.4538998999999997,8.3137,7.5807996,4.640374700000001,16.964537,8.367218,-1
664,665,1583935686278,3.4129998999999995,7.1710997,6.0386996,4.2068615,15.471514,6.655746499999999,-1
665,666,1583935686289,3.2059,5.5457,4.459,4.938031,13.689557,4.508837000000001,-1
666,667,1583935686298,4.2876997,4.0504,2.7496998,7.0600122999999995,12.661219000000001,2.3145707000000004,-1
667,668,1583935686308,6.6763,2.9931,0.7001,7.115021700000001,11.495788000000001,1.3523983,-1
668,669,1583935686319,6.7433996,1.4943999,-0.2571,4.39699,9.430185,0.85838836,-1
669,670,1583935686328,4.6119,-0.2961,-0.5085,1.7806349,7.676692,0.786524,-1
670,671,1583935686338,2.3006,-2.0456998,-0.445,-0.12354081,6.1464042999999995,0.18015888,-1
671,672,1583935686348,0.7244,-3.5802998999999995,-0.9302,-1.115631,4.846026999999999,-0.8949143,-1
672,673,1583935686358,-0.24049999,-5.1682997,-2.0887,-2.1084201,3.235706,-2.3062196,-1
673,674,1583935686369,-0.7881,-6.4596,-3.0911999,-1.3097241000000002,2.4444895,-3.3910515,-1
674,675,1583935686379,2.5858998,-7.3679,-5.1531,0.99498236,2.2989794999999997,-4.683192299999999,-1
675,676,1583935686389,2.5858998,-7.3679,-5.1531,2.0415165,2.187448,-5.660707,-1
676,677,1583935686399,3.4782,-7.6024,-6.0316,1.6622655,2.038682,-5.857309,-1
677,678,1583935686409,3.0374,-7.6298,-5.5792,1.0969275,1.9862583999999999,-5.519746,-1
678,679,1583935686420,3.0374,-7.6298,-5.5792,0.6366566,2.1463444,-4.921569,-1
679,680,1583935686430,2.1792998,-7.2483997,-4.2549,-0.11646355,2.3478882000000003,-4.353003500000001,-1
680,681,1583935686441,1.4469999,-7.0589,-4.0322,-1.0029886000000001,2.528756,-4.247074,-1
681,682,1583935686451,0.9605,-6.8138,-3.7080998,-1.4432439,2.7636652,-3.8914876000000005,-1
682,683,1583935686461,1.0177,-6.3778996,-2.8918,-1.2903118999999998,3.2585564,-3.10776,-1
683,684,1583935686471,1.6672,-5.8107,-2.2680000000000002,-0.7398658,3.698783,-2.7026515,-1
684,685,1583935686481,2.7457,-5.19,-2.0098999,0.61824036,4.475376,-2.4913967,-1
685,686,1583935686491,3.7426,-4.4741,-1.9011999,1.4963186000000002,5.193569,-2.4678185,-1
686,687,1583935686502,4.1131997,-3.7577,-1.8533,1.7647085999999998,5.859225,-2.5057522999999997,-1
687,688,1583935686512,3.8988998,-3.3611998999999995,-1.8936,1.3880528,6.1765995,-2.5757399,-1
688,689,1583935686522,2.9494998,-3.2043,-1.9320998999999999,-0.064461485,6.3204913000000005,-2.6850683999999996,-1
689,690,1583935686532,1.3235999,-3.0807998,-1.8384,-1.7730211999999999,6.39317,-2.591455,-1
690,691,1583935686542,-0.15269999,-3.1097999,-1.6909,-3.2247982000000004,6.327818,-2.5541918,-1
691,692,1583935686553,-1.4625,-3.1475,-1.6768999,-4.472837999999999,6.233065,-2.7411790000000003,-1
692,693,1583935686563,-2.4126,-3.2366998,-2.0142999,-5.2187753,6.1650596,-3.3048699999999998,-1
693,694,1583935686573,-2.4571,-3.1855998,-2.7961,-4.2489419999999996,6.490327,-4.430632599999999,-1
694,695,1583935686584,-0.9862,-2.6741,-3.5899,-2.9089742000000003,6.972805999999999,-4.9919970000000005,-1
695,696,1583935686594,0.5965,-2.1229,-4.1316,-1.3101933000000001,7.5855303,-5.3237084999999995,-1
696,697,1583935686604,1.3764,-1.6656,-3.9088998,-1.1101626,7.870478599999999,-4.590451,-1
697,698,1583935686614,1.1621,-1.5339999,-2.9136999,-1.7715944,7.884269000000001,-3.1595514,-1
698,699,1583935686625,0.3599,-1.5785999,-1.4402,-2.3349693,7.9284854000000005,-1.7812956999999998,-1
699,700,1583935686635,-0.027199998,-1.4853,-0.2668,-2.315672,8.0977745,-0.77618104,-1
700,701,1583935686645,0.0722,-1.2936,0.513,-2.074863,8.305409,-0.44760079999999997,-1
701,702,1583935686655,0.5385,-1.0521,0.3387,-0.87555957,8.6904545,-1.2061509,-1
702,703,1583935686665,2.0116,-0.59349996,-0.6224,0.47169605,9.184503,-2.175611,-1
703,704,1583935686676,2.9071,-0.2198,-1.4683,0.6731059,9.347289,-2.503454,-1
704,705,1583935686686,2.7688,-0.1837,-1.4645,0.17761147,9.266643,-2.0990922000000003,-1
705,706,1583935686696,2.0391,-0.309,-0.8707,-0.99164957,9.067617,-1.2200468999999998,-1
706,707,1583935686706,1.0425,-0.48959997,-0.096599996,-2.0210223000000003,8.937994999999999,-0.5168315,-1
707,708,1583935686717,0.0991,-0.5711,0.4793,-2.4597453999999996,8.981081,-0.21328506,-1
708,709,1583935686727,-0.1856,-0.4385,0.7341,-2.5515868999999998,9.151855,-0.22727677,-1
709,710,1583935686737,-0.2471,-0.3378,0.62,-2.771729,9.141302,-0.42513362,-1
710,711,1583935686747,-0.4833,-0.3662,0.3919,-3.0326014,9.062858,-0.6797713000000001,-1
711,712,1583935686757,-0.7345,-0.4642,0.1661,-3.1996398,8.960702000000001,-0.8604282,-1
712,713,1583935686768,-0.8817,-0.5338,-0.079399996,-3.0677097,8.9912815,-1.1039951000000001,-1
713,714,1583935686778,-0.6511,-0.4969,-0.24939999,-2.617121,9.085335,-0.8723896999999999,-1
714,715,1583935686788,-0.19839999,-0.4025,0.035,-2.257627,9.227167,-0.10639832,-1
715,716,1583935686798,0.0659,-0.2798,0.6846,-2.3102036,9.304155,0.5199057,-1
716,717,1583935686808,-0.0154,-0.1776,1.4078,-2.263804,9.495883000000001,1.1285022,-1
717,718,1583935686818,0.0749,0.021699998999999998,1.9069999999999998,-2.1667812,9.589323,1.2688215,-1
718,719,1583935686829,0.0539,0.054399997,1.9257,-2.2705173,9.708833,1.2246723999999998,-1
719,720,1583935686838,-0.0243,0.1866,1.8413,-2.1892388,9.811572,0.7250409000000001,-1
720,721,1583935686848,0.0881,0.2821,1.2949,-1.9660227,9.890274,0.16019125,-1
721,722,1583935686858,0.2764,0.36089998,0.765,-2.3038445,9.761859,-0.6453810000000001,-1
722,723,1583935686868,-0.0753,0.2368,0.1373,-2.3764079,9.750808000000001,-1.1448307,-1
723,724,1583935686878,-0.1488,0.2316,-0.32189998,-2.1493227000000004,9.7763,-1.3469588,-1
724,725,1583935686888,0.088599995,0.2547,-0.4838,-1.9051046000000003,9.808374,-1.2207651000000002,-1
725,726,1583935686898,0.3701,0.30519998,-0.2932,-1.7133003,9.921581,-0.9812396000000001,-1
726,727,1583935686908,0.5492,0.3931,-0.0534,-1.6312367,9.994212,-0.9391591,-1
727,728,1583935686918,0.5791,0.4703,-0.0345,-1.5242158000000001,10.00874,-1.1119343000000002,d
728,729,1583935686928,0.7078,0.4985,-0.2519,-1.4173578000000002,10.063912,-1.5363497,-1
729,730,1583935686939,0.7915,0.5374,-0.6163,-1.7609928,9.940725,-1.8584751,-1
730,731,1583935686949,0.4504,0.4209,-0.9334,-2.3407153999999997,9.728589999999999,-1.8867171999999999,-1
731,732,1583935686959,-0.64669997,-0.0945,-0.77199996,-2.8819772999999995,9.425168,-1.7000651000000002,-1
732,733,1583935686970,-0.5714,-0.1626,-0.5085,-2.8028917,9.354491000000001,-1.4223665,-1
733,734,1583935686980,-0.3057,-0.1048,-0.1787,-2.4932353,9.443736999999999,-1.0238947,-1
734,735,1583935686990,-0.13159999,-0.028099999,-0.014599998999999999,-2.3154516,9.522008999999999,-0.9050370000000001,-1
735,736,1583935687000,-0.13159999,-0.028099999,-0.014599998999999999,-2.3725772000000003,9.587705,-0.9078334000000001,-1
736,737,1583935687010,-0.2455,0.067499995,-0.1037,-2.4587974999999997,9.597761,-1.0224199,-1
737,738,1583935687021,-0.2183,0.096599996,-0.2188,-2.4324992,9.619969000000001,-1.1165216,-1
738,739,1583935687031,-0.26819998,0.0186,-0.28059998,-2.4971044,9.549253,-1.1663976,-1
739,740,1583935687041,-0.376,0.009699999,-0.27089998,-2.609833,9.5404825,-1.1527219,-1
740,741,1583935687051,-0.36679998,0.020499998999999998,-0.2095,-2.5719569,9.558150999999999,-1.1224114,-1
741,742,1583935687061,-0.1249,0.1488,-0.4191,-2.2777095000000003,9.696527,-1.4442111,-1
742,743,1583935687071,0.2609,0.2962,-0.91999996,-1.8508423999999999,9.8861,-1.9567523,-1
743,744,1583935687082,0.7236,0.5706,-1.3452,-1.4354771000000002,10.125250999999999,-2.3566317999999997,-1
744,745,1583935687092,0.77669996,0.69769996,-1.5315,-1.447793,10.253811,-2.5216305,-1
745,746,1583935687102,0.64779997,0.8055,-1.4893999,-1.5585774,10.369096,-2.4504175,-1
746,747,1583935687112,0.75659996,0.97239995,-1.4900999,-1.3029151,10.545204,-2.5695624,-1
747,748,1583935687122,1.1108999,1.1294999,-1.7459999,-0.88672614,10.730744999999999,-2.8581502,-1
748,749,1583935687132,1.6028999,1.3062999,-2.1980999,-0.5160175,10.848855,-3.2705273999999998,-1
749,750,1583935687143,2.1950998,1.4246,-2.6905,0.2973024,11.009008,-3.8268154,-1
750,751,1583935687153,2.8311,1.5828999,-3.069,0.8137892,11.134762,-4.147035,-1
751,752,1583935687163,3.1826,1.6251999,-3.2272,1.0120195,11.139512,-4.140733200000001,-1
752,753,1583935687173,3.2519,1.5718,-3.1364,0.9576424000000001,11.032472,-4.046037999999999,-1
753,754,1583935687183,3.1172,1.4327999,-3.1369,0.77340376,10.870576,-4.018093,-1
754,755,1583935687193,3.0526998,1.2478,-3.1267998,0.69529533,10.652128999999999,-4.051497,-1
755,756,1583935687203,3.0526998,1.2478,-3.1267998,0.56529975,10.445558,-4.1241083,-1
756,757,1583935687214,2.8767,0.8685,-3.3214998,0.26839,10.234361,-4.3387150000000005,-1
757,758,1583935687224,2.6067998,0.56949997,-3.8356998,-0.21346703,9.739678999999999,-5.110155000000001,-1
758,759,1583935687234,2.3595998,0.1674,-4.5336,-0.5167069999999999,9.326592999999999,-5.7386622,-1
759,760,1583935687245,2.121,-0.25079998,-5.0606,-0.95491296,8.735331,-6.078533,-1
760,761,1583935687255,1.8189,-0.8143,-5.2676997000000005,-1.1610825,8.221296,-5.9954834,-1
761,762,1583935687265,1.9375999,-1.2407,-4.9939,-1.0112915999999998,7.803392999999999,-5.329589,-1
762,763,1583935687275,2.2287,-1.629,-4.2695,-0.76999444,7.342853999999999,-4.4833245,-1
763,764,1583935687285,2.6065,-2.0857,-3.4420998,-0.59065914,6.8992276,-3.4643717000000005,-1
764,765,1583935687295,2.7603998,-2.4617,-2.4469,-0.76711184,6.392643,-2.4572458,-1
765,766,1583935687306,2.4972,-3.0691,-1.6995,-1.5614983,5.5026317,-1.9419084,-1
766,767,1583935687316,1.5616,-4.0743,-1.3914,-2.887915,4.366928,-1.4519492,-1
767,768,1583935687326,0.39,-5.1359,-0.8278,-3.9543593,3.09871,-0.5387145000000001,-1
768,769,1583935687336,-0.16399999,-6.1109,-0.1388,-4.0844603,2.3257369999999997,0.51888096,-1
769,770,1583935687346,-0.0872,-6.7669997,0.9131,-3.9107082,1.8642020000000001,1.587624,-1
770,771,1583935687356,0.268,-7.2615,2.1750998,-3.3079440000000004,1.6931028000000001,3.1759565,-1
771,772,1583935687366,0.93549997,-7.2201996,3.4003,-3.0080080000000002,1.6323954999999999,4.3438864,-1
772,773,1583935687377,1.1776999,-7.2581,4.5172,-3.0940747,1.5401613,5.530089,-1
773,774,1583935687387,1.1098,-7.3426,5.648,-3.3435316,1.2631713,6.4423084,-1
774,775,1583935687397,0.9094,-7.6303,6.4807997,-3.8869576,0.8849448000000001,7.0804973,-1
775,776,1583935687407,0.31,-8.0041,7.0622997000000005,-5.138378599999999,0.20252074,6.824710400000001,-1
776,777,1583935687417,-0.90099996,-8.6536,6.6622996,-6.215453,-0.086219996,6.081474,-1
777,778,1583935687428,-1.8493998999999999,-8.774,5.9182,-6.7255807,0.22004629999999997,5.468758599999999,-1
778,779,1583935687438,-2.2302,-8.3853,5.5013,-6.645806299999999,0.7649953,5.512439,-1
779,780,1583935687448,-2.0730999,-7.8071,5.7118998,-5.936136,2.035646,6.756399000000001,-1
780,781,1583935687458,-1.5285,-6.736399700000001,6.8353996,-4.536543,3.3804884,8.498813,-1
781,782,1583935687468,-0.2676,-5.4723997,8.5458,-3.0761852000000003,5.0134872999999995,10.656725999999999,-1
782,783,1583935687478,1.0059,-3.9183,10.635799,-2.2296531,6.3012037,12.278635000000001,-1
783,784,1583935687489,1.8212,-2.3962,12.564799,-1.9156389999999999,8.131801,13.853742,-1
784,785,1583935687499,1.7727,-0.9576,13.7390995,-2.8258379000000002,9.436535000000001,13.647448,-1
785,786,1583935687509,-0.5664,1.6078,12.2394,-3.8927612000000003,10.846548,12.314969,-1
786,787,1583935687519,-1.1934999,3.2591999,10.206799499999999,-4.337326,12.564598,10.170789,-1
787,788,1583935687530,-1.2861999,4.7546,8.2904,-4.2281504,14.124707999999998,8.139501,-1
788,789,1583935687540,-0.19409999,6.2601,6.8819,-2.9136572,15.693925,6.600670299999999,-1
789,790,1583935687550,2.1338,7.9052997000000005,5.246,-0.33869335,17.397130999999998,4.836067,-1
790,791,1583935687560,4.1871,9.3914995,3.1506998999999998,2.3095906000000004,19.227488,2.2370272,-1
791,792,1583935687571,5.0165997,10.5553,1.6149,3.0755436,20.301270000000002,0.7169964,-1
792,793,1583935687581,4.666,11.053699499999999,0.4067,2.7160497,20.700879999999998,-0.58112067,-1
793,794,1583935687591,3.8894,10.962,-0.6979,2.1416614,20.537098,-1.6597852,-1
794,795,1583935687601,3.4287998999999996,10.3756,-1.4474,1.8503348999999998,19.882437,-2.3467295,-1
795,796,1583935687611,3.1892,9.6157,-1.6258999,1.6678296000000001,19.178036,-2.3585951,-1
796,797,1583935687621,2.8852,8.9463,-1.0948,1.3989704,18.443293,-1.7571429,-1
797,798,1583935687631,1.9782,7.8875,-0.8423,0.26914656,17.146172,-1.6412541,-1
798,799,1583935687642,1.1506,6.7535,-1.1084,-0.46150630000000004,16.001781,-1.9720081999999999,-1
799,800,1583935687652,0.5202,5.5727997,-1.6502,-0.91257393,14.794385,-2.5964544,-1
800,801,1583935687662,0.4919,4.4523997,-2.4341,-0.7064619000000001,13.968855,-3.2613528,-1
801,802,1583935687672,1.3055999,3.4796998999999995,-3.3048,0.54270804,12.892336,-4.195130000000001,-1
802,803,1583935687682,2.504,2.7823,-3.8167998999999995,1.540257,12.15858,-4.4797525,-1
803,804,1583935687692,2.9094,2.0275,-3.7498998999999995,1.4830164,11.46836,-4.2507234,-1
804,805,1583935687702,2.4182,1.3924999,-3.4269,0.7752521,10.892736,-4.078119999999999,-1
805,806,1583935687712,1.5841,0.9068,-3.7210998999999996,0.15205096,10.524499,-4.5194197,-1
806,807,1583935687722,1.3496,0.60899997,-4.6036997,-0.082801074,10.223366,-5.745643599999999,-1
807,808,1583935687732,1.3569,0.4202,-5.8872,-0.00794875,10.074954,-6.937142,-1
808,809,1583935687742,1.6636,0.29119998,-7.4403,0.44982259999999996,9.957111,-8.836492,-1
809,810,1583935687753,2.1618,0.2602,-8.658299000000001,0.9501725000000001,9.908471,-9.961765,-1
810,811,1583935687763,2.7178,0.19909999,-9.5046,1.493455,9.850205,-10.542253500000001,-1
811,812,1583935687773,3.1213999,0.1471,-9.6033,1.7192092,9.765566,-10.501102000000001,-1
812,813,1583935687783,3.2310998,0.0953,-9.2963,1.6429203999999997,9.736922,-10.011383,-1
813,814,1583935687794,2.9341998,0.064899996,-8.6046,1.2414318000000002,9.648900999999999,-9.406061,-1
814,815,1583935687804,2.6327,-0.099599995,-8.3709,0.8773313,9.4610815,-9.604886,-1
815,816,1583935687814,2.4968998,-0.2126,-8.8089,0.68402344,9.238516,-10.146474000000001,-1
816,817,1583935687825,2.3251998,-0.49159998,-9.2605,0.3906188,8.906545,-10.423119999999999,-1
817,818,1583935687834,2.1046,-0.8402,-9.3343,0.12702677,8.547137,-10.286726,-1
818,819,1583935687845,1.714,-1.3283,-8.918799,-0.39572322,8.091923,-9.601228,-1
819,820,1583935687855,1.2478,-1.6919999,-7.9941998,-0.88742524,7.7396210000000005,-8.622593,-1
820,821,1583935687865,1.0257,-2.0295,-7.093999999999999,-0.99603575,7.369056,-7.4042315,-1
821,822,1583935687875,1.0864,-2.2616,-6.1025996,-0.92756164,7.163672,-6.4001513,-1
822,823,1583935687885,1.1888,-2.4457,-5.2278,-0.82780963,6.996106599999999,-5.614393700000001,-1
823,824,1583935687895,1.3453,-2.6396,-4.592,-0.6725025,6.7953095,-5.0933003,-1
824,825,1583935687906,1.5867,-2.8334,-4.1939,-0.3739456,6.611003999999999,-4.743,-1
825,826,1583935687916,1.9919,-3.0077,-3.8797,0.26596707,6.3788238,-4.16706,-1
826,827,1583935687926,2.5712,-3.2117,-3.3988,0.61021495,6.220749,-3.7113192,-1
827,828,1583935687936,2.8757,-3.4354,-2.7833,0.6499396,5.836058,-2.6182892000000004,-1
828,829,1583935687946,2.8291,-3.7566998,-1.8479999,0.39310876,5.680732,-1.6307291000000002,-1
829,830,1583935687958,2.5781999,-3.8713998999999997,-0.9131,-0.09057744,5.532166999999999,-0.85070777,-1
830,831,1583935687968,2.0540000000000003,-4.0734997,-0.2385,-0.9002485999999998,5.1536913,-0.24158454,-1
831,832,1583935687978,1.2655,-4.4613,0.3163,-1.5103487,4.7190485,0.24619098,-1
832,833,1583935687988,0.7459,-4.8792995999999995,0.7531,-1.5227793,4.3133935999999995,0.83388126,-1
833,834,1583935687998,0.8125,-5.2114,1.2281,-0.97997546,4.021062000000001,1.0226879999999998,-1
834,835,1583935688008,1.3548,-5.5077,1.406,-0.5887342,3.7514076000000003,1.2093303999999998,-1
835,836,1583935688018,1.7278999,-5.7872,1.5959999999999999,-0.35867056,3.534129,1.6488484,-1
836,837,1583935688028,1.9233999,-6.0007997,2.0159,-0.26469335,3.4745230000000005,2.2110833999999997,-1
837,838,1583935688038,1.9592999,-6.0608997,2.7653,-0.60238117,3.6830196,3.6400870000000003,-1
838,839,1583935688048,1.5904,-5.8789997000000005,3.9482,-1.2439984,3.6485527,4.758064,-1
839,840,1583935688058,0.88629997,-5.9349,4.9976997,-1.8375306,3.719057,6.059198,-1
840,841,1583935688069,0.2083,-5.8851,6.2318,-1.6358335,3.8014845999999998,7.433747299999999,-1
841,842,1583935688079,0.304,-5.8285,7.529,-1.1192796,4.023839,8.874922999999999,-1
842,843,1583935688089,1.5943999,-5.0473,9.8784,-0.06955635,4.6326556,9.917128,-1
843,844,1583935688099,2.4092999,-4.4477997,10.0821,0.94533616,5.252256,10.1543455,-1
844,845,1583935688109,2.7394,-3.8567998,9.8578,1.458222,5.8714733,9.964266,-1
845,846,1583935688119,2.4150999,-3.2628,9.6296,1.3348441,6.48843,9.753815,-1
846,847,1583935688130,2.4150999,-3.2628,9.6296,1.1174313999999999,6.945129,9.460486999999999,-1
847,848,1583935688140,1.9968,-2.8221998,9.3055,1.1356178999999997,7.3403350000000005,9.113585,-1
848,849,1583935688150,2.0376,-2.0572999,8.7568,1.9310863999999999,8.029932,8.947227499999999,-1
849,850,1583935688160,3.0273,-1.1136,8.9523,3.1051455000000003,8.85097,9.260992,-1
850,851,1583935688170,3.9519,-0.3301,9.262,4.223525,9.664454,9.583521000000001,-1
851,852,1583935688180,4.4448,0.6757,9.5475,4.7642984,10.67769,9.894680000000001,-1
852,853,1583935688190,3.9017,1.5194,9.4913,4.2568717000000005,11.438845,9.777258999999999,-1
853,854,1583935688201,3.9017,1.5194,9.4913,3.2438369,11.934453999999999,9.339666000000001,-1
854,855,1583935688211,1.5149,2.5700998,8.4453,2.314044,12.437199,8.566933,-1
855,856,1583935688221,1.1152999,3.1431,7.0983,2.2463646,13.047786,7.124080999999999,-1
856,857,1583935688231,1.4512999,3.9692998,5.6154,2.9039464,13.883947000000001,5.597347,-1
857,858,1583935688241,2.0987,4.9586997,4.2378,3.5739495999999997,14.653031,4.499576599999999,-1
858,859,1583935688252,2.4585,5.64,3.4515,4.2562203,15.417682000000001,3.6128410000000004,-1
859,860,1583935688262,2.7161999,6.1884,2.892,4.6855197,15.899222,3.0535072999999997,-1
860,861,1583935688272,2.6832,6.6116,2.1543999,4.737081,16.324242,2.1977048,-1
861,862,1583935688282,2.4424,6.9372997000000005,1.2584,4.6864586,16.553387,1.2751902,-1
862,863,1583935688292,2.4143999,7.1253,0.2608,4.8260974999999995,16.629597,0.72947496,-1
863,864,1583935688302,2.8227,7.2738,-0.3622,5.60519,16.735394,0.048956636,-1
864,865,1583935688313,3.2867,7.2451,-0.62839997,6.172951,16.607956,0.08957188,-1
865,866,1583935688323,3.5756997999999998,7.0962996,-0.392,6.3852015,16.36007,0.55240935,-1
866,867,1583935688333,3.4499998,6.726999799999999,-0.0558,6.2410808,15.961425,0.8620275,-1
867,868,1583935688343,3.4499998,6.726999799999999,-0.0558,5.4658856,15.112,1.1427046,-1
868,869,1583935688353,1.8298999,5.2927,-0.0903,4.0850253,14.023328,0.6775974,-1
869,870,1583935688364,0.78459996,4.3726997,-0.70239997,3.4618144,13.341745999999999,0.23528299,-1
870,871,1583935688374,0.2074,3.656,-1.1881,3.0148745,12.726025,-0.051848833,-1
871,872,1583935688384,0.013599999,3.1546998,-1.4835,2.9938439999999997,12.248028,-0.30676427,-1
872,873,1583935688394,0.15179999,2.889,-1.7637,3.221245,11.984301,-0.67923504,-1
873,874,1583935688404,0.39729998,2.6023,-2.2948,3.5616623999999995,11.675641,-1.3516608,-1
874,875,1583935688414,0.8501,2.3511,-3.1371,4.218631299999999,11.524576,-2.324224,-1
875,876,1583935688425,1.6000999,2.1936,-4.1828,4.9397264000000005,11.39415,-3.3159406000000002,-1
876,877,1583935688435,2.1622,2.0709999,-4.9811,5.067711,11.217592,-3.7984586000000005,-1
877,878,1583935688445,2.0427,1.7969998999999999,-5.3108997,4.597624,10.865989,-3.8319294000000004,-1
878,879,1583935688455,1.4381,1.4324,-5.0565,3.8158595999999996,10.444436,-3.1412883,-1
879,880,1583935688465,0.6764,0.9309999999999999,-4.2235,2.9394286,9.936301,-2.1377444,-1
880,881,1583935688476,-0.1611,0.4712,-3.2315,2.1914225,9.603986,-1.1877921999999999,-1
881,882,1583935688486,-0.63049996,0.2013,-2.4943,2.1056142,9.383039,-0.7043550000000001,-1
882,883,1583935688496,-0.41419998,0.0328,-2.2756,2.7166240000000004,9.287683,-0.68525887,-1
883,884,1583935688506,0.23199999999999998,-0.036000000000000004,-2.3295,3.2171178,9.307124,-0.57968414,-1
884,885,1583935688516,0.8128,0.0312,-2.228,3.7597585,9.364353999999999,-0.6002264,-1
885,886,1583935688526,1.275,0.0554,-2.3486,4.099036,9.454683000000001,-0.9059371999999999,-1
886,887,1583935688537,1.5544,0.13319999,-2.6613998,3.9459317000000005,9.486823,-1.1825823999999998,-1
887,888,1583935688547,1.3311,0.1175,-2.8572,3.2970072999999998,9.391391,-1.2854086,-1
888,889,1583935688557,0.6648,0.0,-2.8648999,2.5672834,9.285796000000001,-1.2034118999999999,-1
889,890,1583935688567,0.0206,-0.1082,-2.7031999,2.250454,9.331938000000001,-1.0506619,-1
890,891,1583935688577,-0.1572,-0.047399998,-2.5168,2.342439,9.412258,-1.0456915,-1
891,892,1583935688588,0.0104,-0.0019999999,-2.4798,2.5540674,9.455584,-0.968196,-1
892,893,1583935688598,0.23099999,0.0276,-2.3595998,2.6003903999999998,9.390452,-0.9381344000000001,-1
893,894,1583935688608,0.2723,-0.067499995,-2.359,2.5640175,9.275855,-0.9109075000000001,-1
894,895,1583935688618,0.243,-0.1608,-2.2786999,2.5435903,9.303293,-0.61394995,-1
895,896,1583935688628,0.2513,-0.1349,-2.0296,2.4106066000000004,9.2341,-0.32882923,-1
896,897,1583935688638,0.141,-0.20619999,-1.7549,2.3975153,9.183009,-0.078951195,-1
897,898,1583935688649,0.18679999,-0.2773,-1.4411,2.7074206000000003,9.207353,0.3469869,-1
898,899,1583935688659,0.48139998,-0.18519999,-0.7032,2.7061374,9.266815,0.75429803,-1
899,900,1583935688669,0.2051,-0.2487,-0.396,2.4120624,9.212083999999999,1.0611198,-1
900,901,1583935688679,-0.1085,-0.3328,-0.22209999,2.0809348,9.130566,1.2212919,-1
901,902,1583935688689,-0.4525,-0.5151,-0.3493,1.7224270000000002,8.950369,1.0841902,-1
902,903,1583935688700,-0.4525,-0.5151,-0.3493,1.4656632,8.852561,1.0195564000000001,-1
903,904,1583935688710,-0.6846,-0.6307,-0.46989998,1.4636042,8.8430805,0.9485157,-1
904,905,1583935688720,-0.4193,-0.5923,-0.4748,1.7278476000000003,8.885276,0.9407871999999999,-1
905,906,1583935688730,0.036000000000000004,-0.4737,-0.42409998,2.1843738999999998,9.00646,0.9865356,-1
906,907,1583935688740,0.036000000000000004,-0.4737,-0.42409998,2.750612,9.169255999999999,1.0628819999999999,-1
907,908,1583935688751,0.9122,-0.185,-0.1829,3.084833,9.311989,1.2821333000000001,d
908,909,1583935688761,0.7342,-0.20349999,0.1354,2.8340836,9.2495,1.6352205,-1
909,910,1583935688771,0.7342,-0.20349999,0.1354,2.5030037999999997,9.193916,1.9694128,-1
910,911,1583935688781,-0.0857,-0.3825,0.847,2.0151708,9.08339,2.3118699,-1
911,912,1583935688791,-0.3518,-0.41509998,0.99289995,1.7492421000000002,9.053405,2.4167264,-1
912,913,1583935688801,-0.4346,-0.45839998,0.9339,1.7235858,9.02525,2.296997,-1
913,914,1583935688812,-0.38419998,-0.36519998,0.7005,1.7864191999999999,9.150744,1.9631783999999999,-1
914,915,1583935688822,-0.2005,-0.2724,0.1828,1.9387478999999999,9.220407000000002,1.5122066,-1
915,916,1583935688832,0.13599999,-0.0907,-0.1647,2.3448715,9.428328500000001,1.0342951999999999,-1
916,917,1583935688842,0.4218,0.062699996,-0.4673,2.6062417,9.603095,0.72107613,-1
917,918,1583935688852,0.5025,0.2367,-0.6013,2.6624575,9.754342,0.6157791,-1
918,919,1583935688862,0.40919998,0.40179998,-0.4515,2.4917797999999998,10.00127,0.8112609000000001,-1
919,920,1583935688873,0.19049999,0.5873,-0.1945,2.2379081000000003,10.167983,1.0924838,-1
920,921,1583935688883,-0.1357,0.7935,-0.015299999,1.9137716,10.370743,1.143643,-1
921,922,1583935688893,-0.3958,1.06,-0.0392,1.7867161,10.728581,1.1499063999999999,-1
922,923,1583935688903,-0.43539998,1.5051999,0.0072,1.7283741999999997,11.255851,1.1865568000000002,-1
923,924,1583935688914,-0.4897,2.1585999,-0.122099996,1.7388417,11.9663925,1.0332321,-1
924,925,1583935688924,-0.4298,3.0103,-0.17300000000000001,1.7872428,13.084658000000001,1.2320658000000002,-1
925,926,1583935688934,-0.52849996,4.0113997,0.077,1.5546988000000002,14.109979000000001,1.5208448,-1
926,927,1583935688944,-0.79499996,5.0836997,0.2635,1.5113351000000002,15.166282,1.7470106,-1
927,928,1583935688955,-0.6145,6.1882997,0.4102,1.8994351999999999,16.109041,1.8474331000000002,-1
928,929,1583935688965,-0.0173,7.3156996,0.2254,2.6014532999999997,17.124577,1.5850765,-1
929,930,1583935688975,0.6799,8.1889,-0.1691,3.4954099999999997,17.927984,1.2673947,-1
930,931,1583935688985,1.3979,8.6772995,-0.3942,4.075985,18.240656,1.4675595,-1
931,932,1583935688995,1.8692,8.9647,0.0335,4.52055,18.477682,2.3268766,-1
932,933,1583935689005,2.3946,9.1581,0.8937,4.9637356,18.488993,3.1860886,-1
933,934,1583935689016,2.3938,9.012,1.8448,4.1488357,18.148748,4.750412,-1
934,935,1583935689026,1.6172999,8.6236,3.3697,3.3807373,17.756071,5.859646,-1
935,936,1583935689036,1.1315,8.1895,4.0527,3.0953388,17.285503,6.3065667,-1
936,937,1583935689046,1.219,7.7177997000000005,4.2991,3.3089687999999993,16.745516000000002,6.1859856,-1
937,938,1583935689056,1.5697,7.196399700000001,4.0368,3.4551491999999997,16.227057000000002,5.652576,-1
938,939,1583935689067,1.8398,6.4479,3.3127,3.5951237999999996,15.266176999999999,4.446971400000001,-1
939,940,1583935689076,2.1864998,5.5926,2.3488998,3.8366315,14.665070000000002,3.4591043,-1
940,941,1583935689086,2.6787,4.7532,1.2788,4.1479545,13.764304000000001,2.2010662999999995,-1
941,942,1583935689096,3.0658,3.7391998999999996,0.1276,4.0158615,12.730947500000001,0.8208664000000001,-1
942,943,1583935689106,2.8409998,2.585,-0.9644,3.2566507000000002,11.6247015,-0.12946886,-1
943,944,1583935689116,2.1197,1.4799,-1.5564,2.0608044,10.517173,-0.6520178000000001,-1
944,945,1583935689126,1.0389,0.2873,-1.8313999,0.49420154,9.127482,-0.87701523,-1
945,946,1583935689137,-0.0418,-0.8558,-1.8708999,-0.4990378,8.225538,-0.8645367,-1
946,947,1583935689147,-1.0289,-2.0002,-1.7903999,-1.4620624,7.018047,-0.5651178000000001,-1
947,948,1583935689157,-1.454,-2.8932,-1.4167,-1.3679032,6.352803700000001,0.048027687,-1
948,949,1583935689167,-1.1309999,-3.5277,-0.8693,-0.6209505999999999,5.733328,0.44531196,-1
949,950,1583935689177,-0.1952,-4.1212,-0.48369998,0.8070854000000001,5.3449497,1.0927616000000002,-1
950,951,1583935689187,1.3632,-4.4392,0.1348,2.8555644,5.294461,1.5831515,-1
951,952,1583935689197,3.4636,-4.4323997,0.4673,4.413692,5.2525525,1.579407,-1
952,953,1583935689207,4.7696,-4.5280000000000005,0.33969998,4.713072299999999,5.008277400000001,1.8005162000000001,-1
953,954,1583935689217,4.851,-4.7762,0.59529996,3.8509967000000005,4.7678995,2.2314727000000003,-1
954,955,1583935689227,3.8964999,-4.9785,0.93479997,2.5272331,4.55857,2.6602166,-1
955,956,1583935689238,2.7001,-5.1808,1.2923,1.4074075000000001,4.4255958,2.9125080000000003,-1
956,957,1583935689248,1.7590000000000001,-5.278,1.4696,0.2038998,4.283859,2.9943802,-1
957,958,1583935689258,0.88809997,-5.3989,1.5345,-0.5455331999999999,4.127403,2.9011977000000004,-1
958,959,1583935689268,0.1206,-5.5825,1.4468,-1.4482334,4.0212727,2.5261605,-1
959,960,1583935689278,-0.5703,-5.6793,1.169,-2.1836076,4.025840799999999,1.8827907,-1
960,961,1583935689289,-1.0564,-5.6499,0.6931,-2.3972185,4.228419000000001,1.3791368,-1
961,962,1583935689299,-1.1662999,-5.3858,0.1563,-2.3174245,4.5832014,0.049789815999999994,-1
962,963,1583935689309,-0.5823,-4.7865,-1.9452,-2.0326866999999997,4.886565,-1.2043313,-1
963,964,1583935689319,-0.5823,-4.7865,-1.9452,-1.694482,5.209371,-2.1935293999999996,-1
964,965,1583935689329,-0.0415,-4.151,-3.1583,-1.6409474999999998,5.522025,-2.6264203,-1
965,966,1583935689339,-0.18859999,-3.8414,-3.1404998,-1.8323975,5.823762,-2.6590004,-1
966,967,1583935689350,-0.18859999,-3.8414,-3.1404998,-2.0416317,6.165644,-2.2656715,-1
967,968,1583935689360,-0.5002,-3.2909,-1.8765,-2.207023,6.363232599999999,-1.383973,-1
968,969,1583935689370,-0.6321,-2.9819999,-0.94689995,-2.3495736000000003,6.670610000000001,-0.40809646,-1
969,970,1583935689380,-0.5767,-2.6934,-0.1151,-2.264484,6.9998603,0.62600714,-1
970,971,1583935689390,-0.38099998,-2.4255,0.3539,-2.0852444,7.264966,1.0692218999999998,-1
971,972,1583935689401,-0.29659998,-2.2368,0.5556,-2.0126616999999998,7.4083686,1.2626636999999998,-1
972,973,1583935689411,-0.016999999,-2.0685,0.58129996,-1.7085023000000001,7.5910273,1.295876,-1
973,974,1583935689421,0.067999996,-1.9399998999999999,0.43339998,-1.6707026999999999,7.7172303,1.1623563000000001,-1
974,975,1583935689431,0.0394,-1.8215,0.2972,-1.684589,7.8623285,1.042311,-1
975,976,1583935689441,0.0241,-1.6640999,0.2801,-1.6982073,7.993645699999999,1.0371969,-1
976,977,1583935689451,0.0414,-1.5461,0.24419999,-1.6759125,8.102687,0.93379617,-1
977,978,1583935689462,0.1392,-1.4578999,0.14989999,-1.4856691,8.25265,0.82997394,-1
978,979,1583935689472,0.484,-1.2032,0.005699999599999999,-1.1894011,8.477131,0.62059623,-1
979,980,1583935689482,0.79459995,-1.046,-0.38619998,-0.94978935,8.626414,0.17522684,-1
980,981,1583935689492,0.7022,-0.87729996,-0.78569996,-1.2223357,8.77021,-0.36012626,-1
981,982,1583935689502,0.3737,-0.8731,-1.0137,-1.625184,8.757646000000001,-0.41263586,-1
982,983,1583935689512,-0.096099995,-0.8473,-0.6857,-2.2296915,8.812645,0.061205372,-1
983,984,1583935689522,-0.7712,-0.7614,-0.116799995,-2.903324,8.845866000000001,0.6722151999999999,-1
984,985,1583935689533,-1.2454,-0.7739,0.39319998,-3.3042667000000003,8.830266,1.0614071000000003,-1
985,986,1583935689543,-1.4575,-0.7984,0.63449997,-3.399891,8.822949000000001,1.1929923999999998,-1
986,987,1583935689553,-1.2748,-0.6793,0.5633,-3.0876486,9.029464,1.0194798,-1
987,988,1583935689563,-0.78639996,-0.40719998,0.2994,-2.5096693,9.328863,0.739703,-1
988,989,1583935689573,-0.243,-0.1085,-0.0206,-1.913082,9.644917,0.37801573,-1
989,990,1583935689583,0.3337,0.22829999,-0.3405,-1.3853521,9.942314999999999,0.12297577400000001,-1
990,991,1583935689593,0.7168,0.4481,-0.4278,-1.0833571000000002,10.138861,0.17501615,-1
991,992,1583935689604,0.78529996,0.54249996,-0.3129,-1.1104786,10.129906,0.22554338,-1
992,993,1583935689614,0.6303,0.45299998,-0.3375,-1.3031353,9.996798,0.21805432,-1
993,994,1583935689624,0.4186,0.2776,-0.2445,-1.4752496000000002,9.874119,0.33952653,-1
994,995,1583935689634,0.3523,0.22129999,-0.23879999,-1.6257491000000002,9.839269,0.25142950000000003,-1
995,996,1583935689644,0.19229999,0.23439999,-0.3585,-1.7509276000000003,9.913623,0.100671396,-1
996,997,1583935689654,0.132,0.2871,-0.5082,-1.8023548999999999,9.867042,0.027887661,-1
997,998,1583935689664,0.0716,0.2323,-0.5051,-1.871873,9.808622999999999,0.14421713,-1
998,999,1583935689675,0.0005999999700000001,0.1776,-0.3813,-2.0192409,9.702876,0.25742456,-1
999,1000,1583935689685,-0.1209,0.0349,-0.2837,-2.1311169999999997,9.546151,0.4056927,-1
1000,1001,1583935689695,-0.196,-0.098,-0.1334,-2.1860404,9.48713,0.6613359999999999,-1
1001,1002,1583935689705,-0.2154,-0.1528,0.121,-2.119194,9.429142,0.91260266,-1
1002,1003,1583935689716,-0.0712,-0.1591,0.31669998,-2.0084958,9.468455,1.0651611,-1
1003,1004,1583935689726,0.0415,-0.1171,0.4281,-1.878711,9.465937,1.2066106,-1
1004,1005,1583935689736,0.1643,-0.11449999,0.5354,-1.7367346999999997,9.47987,1.2777089,-1
1005,1006,1583935689746,0.2791,-0.102199994,0.51199996,-1.6566248,9.423328999999999,1.1451371000000001,-1
1006,1007,1583935689756,0.34759998,-0.17809999,0.3775,-1.6808636000000001,9.352517,1.0490338,-1
1007,1008,1583935689766,0.3313,-0.23399999999999999,0.3056,-1.7452006000000002,9.326353999999998,1.0824951999999999,-1
1008,1009,1583935689777,0.2686,-0.2501,0.32279998,-1.9116935000000002,9.356502,1.1098274,-1
1009,1010,1583935689787,0.1003,-0.1971,0.37039998,-2.0393906000000004,9.4579115,1.057519,-1
1010,1011,1583935689797,0.0201,-0.1149,0.26319999,-2.0848324000000003,9.447156,0.8856917999999999,d
1011,1012,1583935689807,0.0066,-0.1215,0.099599995,-2.1333392000000004,9.42783,0.7899142,-1
1012,1013,1583935689817,-0.0477,-0.1383,0.0251,-2.147139,9.376173,0.76320446,-1
1013,1014,1583935689827,-0.035099998,-0.21429999,0.0385,-2.080504,9.27462,0.9136848,-1
1014,1015,1583935689838,0.074099995,-0.2904,0.20709999,-2.0252361,9.259087,1.1967368999999999,-1
1015,1016,1583935689848,0.114,-0.2979,0.5117,-2.1373901,9.17711,1.3297491000000001,-1
1016,1017,1583935689858,0.0066,-0.3742,0.5827,-2.202608,9.111996000000001,1.084602,-1
1017,1018,1583935689868,-0.0436,-0.44149998,0.3539,-2.234671,9.1565,0.94196516,-1
1018,1019,1583935689879,-0.076799996,-0.3919,0.2174,-2.1072998,9.2740555,0.8184722,-1
1019,1020,1583935689889,0.1636,-0.2753,0.0128999995,-1.9939486000000002,9.277809,0.70584893,-1
1020,1021,1583935689899,0.1171,-0.30539998,-0.0382,-2.051668,9.24361,0.63971156,-1
1021,1022,1583935689909,0.0029,-0.3548,0.14469999,-2.173638,9.198571000000001,0.80335045,-1
1022,1023,1583935689919,-0.1206,-0.3746,0.3768,-2.293971,9.176343,1.0174782,-1
1023,1024,1583935689929,-0.1206,-0.3746,0.3768,-2.3649828,9.225969000000001,1.0845158000000001,-1
1024,1025,1583935689939,-0.17379999,-0.3074,0.41889998,-2.3715813,9.258177,0.9969935,-1
1025,1026,1583935689949,-0.24049999,-0.2694,0.3292,-2.4173294999999997,9.280022,0.905602,-1
1026,1027,1583935689959,-0.30769998,-0.3297,0.28239998,-2.4933026000000003,9.223433,0.8157907,-1
1027,1028,1583935689969,-0.30769998,-0.3297,0.28239998,-2.4773571,9.200064999999999,0.76130825,-1
1028,1029,1583935689979,-0.2681,-0.3707,0.2481,-2.4165634999999996,9.127127999999999,0.6861782,-1
1029,1030,1583935689989,-0.23279999,-0.6299,0.1414,-2.4081264,8.932824,0.57639927,-1
1030,1031,1583935690000,-0.2572,-0.7599,0.1043,-2.4259965,8.803509,0.51482993,-1
1031,1032,1583935690010,-0.1171,-0.94879997,0.14039999,-2.2502816,8.583491,0.52366936,-1
1032,1033,1583935690020,0.119799994,-1.1671,0.1885,-2.03352,8.403858,0.5546503,-1
1033,1034,1583935690030,0.36789998,-1.3847,0.47149998,-1.7843601999999998,8.192049,0.8324831,-1
1034,1035,1583935690040,0.5218,-1.7873,0.95769995,-1.6247915000000002,7.6886053,1.4258332,-1
1035,1036,1583935690051,0.5142,-2.2275,1.5101999,-1.6648224999999999,7.179885400000001,2.099782,-1
1036,1037,1583935690061,0.37399998,-2.7545,2.2786,-1.8191335,6.6702843,2.9253602,-1
1037,1038,1583935690071,0.2753,-3.2905,3.0916,-1.8978453999999998,6.1644855000000005,3.68663,-1
1038,1039,1583935690081,0.2753,-3.2905,3.0916,-1.981652,5.789103,4.351624500000001,-1
1039,1040,1583935690091,-0.045599997,-4.0699997,4.6705,-2.2462877999999997,5.465225,5.2722907,-1
1040,1041,1583935690102,-0.0208,-4.1394,4.999399700000001,-2.1073573,5.437107599999999,5.413108,-1
1041,1042,1583935690114,0.2364,-4.154,4.5754,-1.8126693,5.418241,4.7048364000000005,-1
1042,1043,1583935690124,0.45319998,-4.1621,3.6817,-1.5276635,5.427789700000001,3.5578604,-1
1043,1044,1583935690134,0.70089996,-4.2016,2.8395998,-1.231903,5.342671,2.894906,-1
1044,1045,1583935690145,1.0115,-4.3106,2.195,-0.98536724,5.2930150000000005,2.3317509999999997,-1
1045,1046,1583935690155,0.9361,-4.3020997,1.8959999,-1.1955111,5.35151,2.061245,-1
1046,1047,1583935690165,0.65999997,-4.156399700000001,1.7612,-1.4262354,5.6997323,1.8968015,-1
1047,1048,1583935690175,0.4236,-3.7961,1.5748,-1.5678382,6.015556299999999,1.6146497,-1
1048,1049,1583935690185,0.22549999,-3.5549,1.3579,-1.5985988000000002,6.3211427,1.4507903999999998,-1
1049,1050,1583935690196,0.1831,-3.1383997999999997,1.092,-1.4693406999999998,6.7804365,1.097119,-1
1050,1051,1583935690206,0.2706,-2.7777998,0.6968,-1.0924934,7.004410000000001,0.6801735,-1
1051,1052,1583935690216,0.59419996,-2.6008,0.2552,-0.77143097,7.289961,0.28344476,-1
1052,1053,1583935690226,0.7391,-2.2625,-0.0265,-0.66691923,7.768859,0.45725420000000006,-1
1053,1054,1583935690236,0.6896,-1.8635999,0.2455,-0.8266796000000001,8.263137,1.0597694,-1
1054,1055,1583935690246,0.3592,-1.3547,0.82769996,-1.3436451,8.711753,1.8236538,-1
1055,1056,1583935690257,-0.3102,-0.95159996,1.5195999,-2.0113208,9.125653,2.3271067000000003,-1
1056,1057,1583935690267,-1.0268999,-0.5176,1.8998,-2.3443544,9.572699,2.4254412999999997,-1
1057,1058,1583935690278,-1.4038,-0.113,1.8318,-2.4171765,9.877193,2.107271,-1
1058,1059,1583935690288,-1.464,0.32999998,1.2571,-1.884773,10.619577,1.0463907,-1
1059,1060,1583935690298,-0.99179995,1.0018,0.2543,-0.85434693,11.370772,-0.29961040000000005,-1
1060,1061,1583935690308,0.055,1.7802999,-1.1455,0.37642595,12.36815,-2.0032573,-1
1061,1062,1583935690318,1.1254,2.7329,-2.8407,1.3390962,13.046809,-4.07677,-1
1062,1063,1583935690328,1.7483,3.2535,-4.4691997,1.3334458,13.172831,-5.2904672999999995,-1
1063,1064,1583935690338,1.5719999,3.3841998999999996,-5.8641,0.6251165,13.159548000000001,-6.641151400000001,-1
1064,1065,1583935690349,0.85679996,3.3504998999999995,-6.8929,0.35821086,13.190835,-7.256164599999999,-1
1065,1066,1583935690359,0.5022,3.3773,-7.476999799999999,0.6710181,13.366608,-7.528366,-1
1066,1067,1583935690369,0.71099997,3.5526998,-7.7489,1.5204521,13.567107,-7.608399400000001,-1
1067,1068,1583935690379,2.3023,3.8514998,-8.118199,2.5317247000000003,13.656908999999999,-7.8213496,-1
1068,1069,1583935690389,3.3146,3.79,-8.4606,3.6776757000000004,13.592688,-8.077786999999999,-1
1069,1070,1583935690400,4.4761,3.6827,-8.6018,4.9958367,13.473273999999998,-8.124063,-1
1070,1071,1583935690410,5.4147,3.4605,-8.437799,6.058623000000001,13.238087,-7.8670979999999995,-1
1071,1072,1583935690420,5.4147,3.4605,-8.437799,6.3814096,12.850581,-7.3497395999999995,-1
1072,1073,1583935690430,5.6310997,3.0825999,-8.032599000000001,6.192239,12.437475,-6.706101400000001,-1
1073,1074,1583935690440,5.1605,2.3149,-6.8591,6.041318,11.965732000000001,-5.8213099999999995,-1
1074,1075,1583935690450,5.062,2.0007,-6.508899700000001,5.957205,11.649496000000001,-5.5578523,-1
1075,1076,1583935690461,4.8413,1.6137999,-6.5590997,5.754732,11.27736,-5.6584080000000005,-1
1076,1077,1583935690471,4.6131,1.2916,-6.883899700000001,5.5315633,10.930411999999999,-6.0180845000000005,-1
1077,1078,1583935690481,4.4041,0.8484,-7.3918,5.374035,10.572307,-6.4458513,-1
1078,1079,1583935690491,4.0162997,0.325,-7.7506,4.8570785999999995,9.932671000000001,-6.874002000000001,-1
1079,1080,1583935690501,3.4175,-0.19839999,-7.5825,4.2546496,9.455411,-6.592414999999999,-1
1080,1081,1583935690511,2.8360999,-0.524,-6.7056,3.6818705,9.176237,-5.5952587,-1
1081,1082,1583935690521,2.3222,-0.64019996,-5.3145,3.1951674999999997,9.090008000000001,-4.147016000000001,-1
1082,1083,1583935690532,2.0428998,-0.5463,-3.9678,3.0177188,9.208866,-2.8272169999999996,-1
1083,1084,1583935690542,2.1211,-0.31039998,-2.9629,3.2115629,9.466386,-1.8357686000000002,-1
1084,1085,1583935690552,2.5581,-0.0016,-2.2619,3.9226312999999995,9.791988,-1.0221996,-1
1085,1086,1583935690562,3.1950998,0.28059998,-1.8458999,4.6961884000000005,10.131860000000001,-0.57367945,-1
1086,1087,1583935690572,3.7491,0.7206,-1.4409,5.1319422999999995,10.55593,-0.07307104,-1
1087,1088,1583935690582,3.7022998,1.1488999,-0.89089996,4.9250264,10.910175,0.63729817,-1
1088,1089,1583935690593,3.1894999,1.4358,0.0539,4.394576,11.119314,1.7530153999999998,-1
1089,1090,1583935690603,2.4865,1.4239998999999999,1.3143,3.6779629999999996,10.987778,3.0618007,-1
1090,1091,1583935690614,1.6776999,1.2026,2.6701,2.7521348,10.606821,4.628375,-1
1091,1092,1583935690628,0.8919,0.8422,3.9392,2.2627313,10.400489,5.5483613,-1
1092,1093,1583935690638,0.4139,0.79609996,4.9702,1.8207234,10.648385000000001,6.6439,-1
1093,1094,1583935690648,0.1405,1.0263,5.5655,1.8998853,11.098533,6.435988,-1
1094,1095,1583935690658,0.1502,1.484,5.4216,2.3750098,11.567835,5.8252273,-1
1095,1096,1583935690668,0.5444,1.9627999,4.8634996,3.0859919,12.041015,5.313375,-1
1096,1097,1583935690678,1.1833999,2.4519,4.4193997000000005,3.6076214,12.482476,5.4185767,-1
1097,1098,1583935690689,1.6442,3.1713,5.447,3.6621230000000002,12.752179,6.224550700000001,-1
1098,1099,1583935690699,1.6442,3.1713,5.447,3.0931745,12.814782000000001,7.277951700000001,-1
1099,1100,1583935690709,1.0373,3.2422,6.5544,2.4494599999999997,12.806719000000001,8.117637,-1
1100,1101,1583935690720,-0.4353,3.5537,8.4755,1.6206733999999998,13.129964999999999,9.130450999999999,-1
1101,1102,1583935690730,-0.6617,4.013099700000001,8.6783,1.3989128,13.593051999999998,9.307449,-1
1102,1103,1583935690740,-0.6617,4.013099700000001,8.6783,2.217864,14.354225,8.73671,-1
1103,1104,1583935690750,1.5688,5.66,7.5432,3.9362206,15.426924,8.003758,-1
1104,1105,1583935690761,2.9217,6.5702996,7.0464997,5.258854400000001,16.305970000000002,7.488402400000001,-1
1105,1106,1583935690771,4.0515,7.3289,6.6461997,6.234482,17.02221,7.100743,-1
1106,1107,1583935690781,4.304199700000001,7.5706,6.4487,6.305312000000001,17.17764,6.9238973,-1
1107,1108,1583935690791,3.7454,7.3925996,6.1888,5.6411896,17.00957,6.636852,-1
1108,1109,1583935690801,2.7217,6.9937,6.0919,4.2321349999999995,16.572712,6.4911695,-1
1109,1110,1583935690811,1.9166,6.7402,6.0018,3.2663233,16.373983,6.3784695,-1
1110,1111,1583935690822,1.6676999,6.6844997,5.831,3.1742804000000002,16.417377,6.0316257,-1
1111,1112,1583935690832,2.1025,6.7303,5.1561,3.5480442,16.44647,5.2277393,-1
1112,1113,1583935690842,2.9259,6.6617,4.1014,4.211496400000001,16.403738,4.299258,-1
1113,1114,1583935690852,3.7702,6.5471,3.3564,4.9672117,16.18419,3.5838614,-1
1114,1115,1583935690862,4.4087,6.1407,3.1248,5.274991,15.723680499999999,3.6371372,-1
1115,1116,1583935690873,4.5649,5.5306997,3.4313998,5.0392294,14.98233,4.067069,-1
1116,1117,1583935690883,4.2823,4.6095,3.7789,4.4319735,13.989129,4.312110400000001,-1
1117,1118,1583935690893,3.8629,3.6032998999999997,3.7603998,3.77489,13.018578,4.176771,-1
1118,1119,1583935690903,3.4280998999999994,2.6601,3.444,3.09124,12.116624,3.7402508,-1
1119,1120,1583935690914,3.0210998,1.7904999,2.9003,2.4443650000000003,11.240537,3.0630555,-1
1120,1121,1583935690924,2.5298,0.7599,2.1059,1.6028893,9.986455,2.0703523,-1
1121,1122,1583935690934,1.8032999,-0.5877,1.0523,0.5473719,8.701514999999999,0.97158617,-1
1122,1123,1583935690944,0.992,-1.7819999999999998,0.1601,-0.6123602,7.264553500000001,-0.039102099999999994,-1
1123,1124,1583935690954,0.4314,-2.9219999999999997,-0.4716,-1.2438165,6.161392,-0.6540672,-1
1124,1125,1583935690964,0.115499996,-3.9215,-0.96779996,-1.4894806999999999,5.231733,-1.2268465,-1
1125,1126,1583935690974,0.1784,-4.7532,-1.5083,-1.5707592,4.415185500000001,-1.7217183999999996,-1
1126,1127,1583935690985,0.3739,-5.5462,-1.9189999,-1.1980202,3.6716232000000004,-2.1945922,-1
1127,1128,1583935690995,1.1437,-6.1745,-2.4475,-0.38688385,3.0891330000000004,-2.7863624,-1
1128,1129,1583935691005,2.0716999,-6.7065997,-2.9496999,0.26957753,2.5660863,-2.9699209,-1
1129,1130,1583935691015,2.6107,-7.2187996,-2.9287,0.30426475,1.9719986,-2.5669863,-1
1130,1131,1583935691025,2.5277,-7.8059997999999995,-2.3724,-0.124910295,1.293884,-1.7159915000000001,-1
1131,1132,1583935691036,2.1612,-8.5156,-1.5065,-0.7295898000000001,0.5328151999999999,-0.6976416999999999,-1
1132,1133,1583935691046,1.7349,-9.1514,-0.5428,-1.170803,-0.047615882000000005,0.3259562,-1
1133,1134,1583935691056,1.5302,-9.684899,0.2963,-1.4503211999999999,-0.7020661,0.91683555,-1
1134,1135,1583935691067,1.4168,-10.3625,0.52279997,-1.820618,-1.7428063999999999,0.5592089,-1
1135,1136,1583935691077,1.2172999,-11.224199,0.0433,-2.3310812000000003,-2.708225,-0.10104489,-1
1136,1137,1583935691087,0.80289996,-12.113199,-0.5876,-3.0846033,-3.5115084999999997,-0.5798948,-1
1137,1138,1583935691098,0.1893,-12.8048,-0.9795,-3.7910364000000003,-3.9742407999999996,-0.77886254,-1
1138,1139,1583935691108,-0.3753,-13.1837,-1.0735999,-4.5435915,-4.3864074,-0.70169264,-1
1139,1140,1583935691118,-0.94699997,-13.5373,-0.9342,-4.801159999999999,-4.581496700000001,-0.5545737,-1
1140,1141,1583935691128,-1.0145998999999999,-13.6052,-0.778,-4.7472900000000005,-4.578547,-0.30074048,-1
1141,1142,1583935691138,-0.88869995,-13.587299,-0.5155,-4.294901,-4.432491000000001,-0.17173129999999998,-1
1142,1143,1583935691148,-0.2574,-13.3384,-0.36069998,-3.5062699999999998,-4.00028,-0.05671385,-1
1143,1144,1583935691159,0.37809998,-12.996599,-0.2024,-2.4333612999999996,-3.6017699999999997,0.29305990000000004,-1
1144,1145,1583935691169,1.4151,-12.6186,0.15609999,-1.7573918999999998,-3.1574445,0.40083724,-1
1145,1146,1583935691179,1.8798,-12.2005,0.118099995,-1.8517331000000001,-3.1379366,0.15449305,-1
1146,1147,1583935691189,1.8798,-12.2005,0.118099995,-1.5870494,-2.9322171000000004,-0.15847701,-1
1147,1148,1583935691199,2.0630999,-12.0275,-0.109,-1.1423216,-2.5591237999999996,-0.49635630000000003,-1
1148,1149,1583935691209,2.3686,-11.707,-0.33789998,-0.5732102,-2.0207734,-0.9205993,-1
1149,1150,1583935691220,2.9722,-10.5001,-0.7427,-0.35174656,-1.2902832,-1.0232148,-1
1150,1151,1583935691230,2.8065,-9.8102,-0.2512,-0.37817854,-0.54743904,-0.60043705,-1
1151,1152,1583935691240,2.4284,-9.0153,0.2816,-0.6693039000000001,0.49330133,-0.037320815,-1
1152,1153,1583935691250,2.0906,-7.9582996,0.98789996,-0.7860356,1.7261142,0.7115568,-1
1153,1154,1583935691261,1.5739,-6.5113997,1.8723999,-1.1971104,3.2085654999999997,1.5217163999999999,-1
1154,1155,1583935691271,1.1829,-5.1233997,2.623,-1.2811181999999999,4.363567,2.0319877,-1
1155,1156,1583935691281,1.4828,-3.8909,3.0835,-0.58498013,5.813122,2.3937516,-1
1156,1157,1583935691291,2.3436,-2.9185998,2.5665,0.77198637,6.999755,1.4527059,-1
1157,1158,1583935691302,3.8256997999999998,-0.9794,0.6453,2.4769454,9.10355,-0.87743664,-1
1158,1159,1583935691312,4.7258997,1.3797,-1.9698,3.8054495000000004,12.138862,-4.1383395,-1
1159,1160,1583935691322,5.2028,4.1493,-4.183399700000001,4.5051217,14.812638,-6.107359400000001,-1
1160,1161,1583935691332,5.1594,6.2797,-5.3275,4.4119964000000005,16.732962,-6.857309299999999,-1
1161,1162,1583935691343,5.1594,6.2797,-5.3275,3.2359742999999996,18.274729999999998,-6.540404,-1
1162,1163,1583935691354,2.2027,9.031199,-4.7525997,1.716202,18.901112,-5.9416237,-1
1163,1164,1583935691365,0.7007,9.3049,-4.4363,1.0480475,19.148663,-5.5842075,-1
1164,1165,1583935691375,0.6012,9.5562,-4.2049,2.3639677000000003,19.545514999999998,-5.028829,-1
1165,1166,1583935691385,2.1389,10.064799,-3.6058,4.908305,20.084307,-3.961475,-1
1166,1167,1583935691395,4.5864,10.7177,-2.5672,8.057714,20.891756,-2.5892239,-1
1167,1168,1583935691406,7.3683996,11.5949,-1.4699,11.289867999999998,21.711358999999998,-1.2717711999999999,-1
1168,1169,1583935691416,9.361199000000001,12.260099,-0.7017,12.369968,22.031769,-0.48441404,-1
1169,1170,1583935691426,9.7767,12.5857,-0.1665,11.729109,21.908075,0.10545979400000001,-1
1170,1171,1583935691436,8.6317,12.392699,0.19919999,10.330473,21.359842,0.42285433,-1
1171,1172,1583935691447,6.4705997,11.6256,0.4226,7.5084753,20.046507000000002,0.6307476,-1
1172,1173,1583935691458,3.9659,10.469399000000001,0.4518,5.350437599999999,18.934036,0.34000537,-1
1173,1174,1583935691468,1.9199,9.4289,0.019,4.161257,17.929678,-0.44754332,-1
1174,1175,1583935691478,0.8815,8.4414,-0.7927,3.8100655,16.833038000000002,-1.4917027,-1
1175,1176,1583935691488,0.62549996,7.539499799999999,-1.6441,3.7325222,15.989810999999998,-2.028923,-1
1176,1177,1583935691499,0.523,6.7042,-2.1725,3.4488760999999997,15.128539000000002,-2.0682838,-1
1177,1178,1583935691509,0.16699999999999998,5.0155,-2.0691,3.3902662000000006,14.287254999999998,-1.9203126,-1
1178,1179,1583935691519,0.30179998,4.2714,-1.8721,3.5255672999999996,13.544151999999999,-1.7061752000000001,-1
1179,1180,1583935691529,0.4917,3.5744998,-1.5472,3.7190475,12.850974,-1.354036,-1
1180,1181,1583935691539,0.68869996,2.944,-1.2098,3.9013038,12.218722,-0.98315495,-1
1181,1182,1583935691550,0.639,2.2717,-0.80789995,3.8355013999999996,11.552885,-0.5399212,-1
1182,1183,1583935691560,0.5189,1.7537999,-0.3195,3.6817553,10.981189,0.08039729,-1
1183,1184,1583935691570,0.4048,1.4107,0.051999997,3.481495,10.615431,0.4897579000000001,-1
1184,1185,1583935691580,0.17909999,1.0067999,0.3024,3.2153264999999998,10.210438,0.78897566,-1
1185,1186,1583935691590,0.0251,0.6016,0.5349,3.0090039,9.778494,1.0387771000000001,-1
1186,1187,1583935691601,-0.1964,0.1664,0.6925,2.7606007999999997,9.435463,1.1411532,-1
1187,1188,1583935691611,-0.32099998,-0.0924,0.7065,2.626985,9.222704,1.1318731000000002,-1
1188,1189,1583935691621,-0.37899998,-0.3706,0.7062,2.5269362999999996,8.964677,1.1129495,-1
1189,1190,1583935691631,-0.48799998,-0.6094,0.6727,2.3665917000000003,8.708258,1.0393325,-1
1190,1191,1583935691641,-0.6778,-0.9163,0.5943,2.1307723999999997,8.39863,0.8978255999999999,-1
1191,1192,1583935691651,-0.7446,-1.1825,0.44829997,2.1498303,8.227215,0.6460514,-1
1192,1193,1583935691662,-0.17189999,-1.0145998999999999,-0.0052,2.7379133999999996,8.446322,0.064787105,-1
1193,1194,1583935691671,0.1998,-0.884,-0.5309,3.008554,8.545097,-0.48360002,-1
1194,1195,1583935691681,0.1607,-0.8609,-0.68689996,2.8890927000000004,8.551322,-0.6301826,-1
1195,1196,1583935691691,-0.024799999,-0.9651,-0.5715,2.6753001,8.438163000000001,-0.48456725,-1
1196,1197,1583935691701,-0.024799999,-0.9651,-0.5715,2.4420474,8.289214999999999,-0.27138755,-1
1197,1198,1583935691711,-0.305,-1.1808,-0.0014,2.4298467999999995,8.27417,0.05443457,-1
1198,1199,1583935691722,-0.0618,-0.9869,0.271,2.6623619,8.491582000000001,0.30441797,-1
1199,1200,1583935691732,0.0015,-0.8509,0.32639998,2.6640568,8.597741000000001,0.32862812,-1
1200,1201,1583935691742,-0.2287,-0.87189996,0.3875,2.3928514,8.570131,0.39333862,-1
1201,1202,1583935691752,-0.4685,-0.7851,0.49679998,2.174299,8.679546,0.45478338,-1
1202,1203,1583935691762,-0.5628,-0.7369,0.39069998,2.1168191000000003,8.73514,0.20944476,-1
1203,1204,1583935691772,-0.5618,-0.6779999999999999,0.17449999,2.1217224999999997,8.779231,0.0018674773,-1
1204,1205,1583935691782,-0.5834,-0.64739996,0.0788,2.0908849999999997,8.796527000000001,-0.11719138,-1
1205,1206,1583935691793,-0.62799996,-0.6647,0.1291,2.0496855,8.757299,-0.02060929,-1
1206,1207,1583935691803,-0.5976,-0.70059997,0.2835,2.1353216,8.732189,0.08215942,-1
1207,1208,1583935691813,-0.46469998,-0.6173,0.3236,2.3308606,8.884528,0.005544971,-1
1208,1209,1583935691823,-0.2498,-0.4441,0.1592,2.6244185,9.073822999999999,-0.29208302,-1
1209,1210,1583935691834,0.0778,-0.14209999,-0.2216,2.9418227999999997,9.387522,-0.65578145,-1
1210,1211,1583935691844,0.2756,0.062,-0.419,3.066551,9.548613000000001,-0.69360024,-1
1211,1212,1583935691854,0.21059999,0.19669999,-0.3532,2.9340367,9.624728999999999,-0.5014895,-1
1212,1213,1583935691864,0.0401,0.24239999,-0.078999996,2.8313637000000003,9.664932,-0.14460979999999998,-1
1213,1214,1583935691874,-0.049799997,0.2874,0.2223,2.7447512,9.649495,0.078884155,d
1214,1215,1583935691884,-0.1391,0.254,0.318,2.7306828,9.636192,0.11791922,-1
1215,1216,1583935691895,-0.110599995,0.2402,0.2487,2.8599887,9.58736,-0.043986276,-1
1216,1217,1583935691905,0.054899998,0.22659999,0.0546,3.1300068,9.641958,-0.24668896,-1
1217,1218,1583935691915,0.2993,0.2915,-0.1583,3.2957528,9.647349,-0.45091435,-1
1218,1219,1583935691926,0.32979998,0.248,-0.3642,3.2122333,9.621339,-0.5764566999999999,-1
1219,1220,1583935691936,0.1565,0.292,-0.4491,2.9887490000000003,9.623158,-0.49517837,-1
1220,1221,1583935691946,-0.035299998,0.2573,-0.3843,2.8857696,9.612967999999999,-0.4125305,-1
1221,1222,1583935691957,-0.110199995,0.2818,-0.33399999999999996,2.9162333,9.67609,-0.25244462,-1
1222,1223,1583935691967,-0.107999995,0.3559,-0.1986,2.9552397999999998,9.789201,-0.118091606,-1
1223,1224,1583935691977,-0.0576,0.4795,-0.1019,3.0855227000000003,9.9852,0.063206926,-1
1224,1225,1583935691987,0.0519,0.70129997,0.017199999,3.1602888,10.223912,0.17339766,-1
1225,1226,1583935691998,0.094299994,0.93259996,0.0713,3.1571762999999997,10.388565,0.23787831,-1
1226,1227,1583935692008,0.0902,1.1043,0.0995,3.3029642,10.713066,0.24044488,-1
1227,1228,1583935692018,0.23519999,1.4813,0.0528,3.3839934,11.209767,0.10062351,-1
1228,1229,1583935692028,0.2766,1.8962,-0.097799994,3.2978117,11.766869999999999,-0.06937439,-1
1229,1230,1583935692038,0.1872,2.4559,-0.26459998,2.803907,12.231881,-0.37743150000000003,-1
1230,1231,1583935692049,-0.2976,2.9253,-0.5988,2.5778369999999997,12.605511,-0.541894,-1
1231,1232,1583935692060,-0.134,3.9713998,-0.95089996,2.9576051,13.288116,-0.6574382,-1
1232,1233,1583935692070,0.3344,4.4814,-0.82449996,3.4995377,13.910264000000002,-0.41130468,-1
1233,1234,1583935692080,0.69909996,5.0502996,-0.5318,3.8274187999999993,14.4666195,0.033729516,-1
1234,1235,1583935692091,0.86689997,5.5298,0.0218,3.8875803999999996,14.928785999999999,0.7586459,-1
1235,1236,1583935692101,0.73399997,5.8592997,0.6712,3.7028339999999997,15.240847,1.4928231,-1
1236,1237,1583935692111,0.6339,6.1459,1.1733999,3.5990502999999996,15.510280999999999,2.0259066000000003,-1
1237,1238,1583935692121,0.7798,6.3111,1.4966999,3.7232517999999994,15.689271,2.4185936000000003,-1
1238,1239,1583935692131,0.9948,6.5116,1.6342,3.8406347999999997,15.901435999999999,2.5682697,-1
1239,1240,1583935692142,1.0847,6.5699997,1.5856,3.8292,15.946245000000001,2.531083,-1
1240,1241,1583935692152,1.1193,6.5353,1.4868,3.7519917,15.889885999999999,2.4475540000000002,-1
1241,1242,1583935692162,1.1286,6.3687997,1.4523,3.6554480000000003,15.746798499999999,2.4414917999999997,-1
1242,1243,1583935692172,1.1804,6.1793,1.5097,3.5975275,15.537363000000001,2.5166125,-1
1243,1244,1583935692182,1.2918999,5.8403997,1.6294,3.6087227,15.266378,2.5917807,-1
1244,1245,1583935692193,1.4219998999999999,5.4509,1.6287999,3.5939074,14.817129999999999,2.4890602000000004,-1
1245,1246,1583935692203,1.4219998999999999,5.4509,1.6287999,3.4841860000000002,14.268120000000001,2.2674623,-1
1246,1247,1583935692213,1.3747,4.3086,1.3343999,3.035915,13.664466000000001,2.0067527,-1
1247,1248,1583935692223,1.1069,3.5669,1.0739,2.8114536,12.955896000000001,1.5819256000000002,-1
1248,1249,1583935692233,1.2967,2.9462,0.6789,2.9417555,12.391766,1.057452,-1
1249,1250,1583935692244,1.6369,2.4277,0.3398,3.1431463,11.959862,0.6654253000000001,-1
1250,1251,1583935692254,2.0116,1.9037,0.065799996,3.46214,11.417525999999999,0.26578513,-1
1251,1252,1583935692264,2.6092,1.4425,-0.2126,3.913275,11.067044000000001,-0.076489955,-1
1252,1253,1583935692274,2.9619999999999997,1.0335,-0.4439,3.902635,10.446878,-0.47665682,-1
1253,1254,1583935692284,2.9575999,0.4504,-0.73939997,3.6588572999999998,9.915414,-0.73323864,-1
1254,1255,1583935692295,2.7925,-0.1109,-0.862,3.1985384999999997,9.35405,-0.645065,-1
1255,1256,1583935692305,2.4081,-0.6604,-0.611,2.600534,8.879078999999999,-0.21875341,-1
1256,1257,1583935692315,1.9512,-1.1192,-0.1156,1.9921961,8.358475,0.23922864,-1
1257,1258,1583935692325,1.5175999,-1.6636,0.2678,1.3214843,7.7639173999999995,0.52721274,-1
1258,1259,1583935692335,0.96629995,-2.323,0.4529,0.6209889000000001,7.1557035,0.6919434,-1
1259,1260,1583935692346,0.5075,-2.8423,0.5571,0.041400537,6.5798315999999994,0.77457213,-1
1260,1261,1583935692356,0.0574,-3.4278998,0.6802,-0.5878914000000001,6.049104,1.0632553999999999,-1
1261,1262,1583935692366,-0.29009998,-3.8451998,0.9353,-0.94552773,5.6335180000000005,1.2247586000000001,-1
1262,1263,1583935692377,-0.4486,-4.2421,1.0148,-0.75792766,5.4337173,0.87874866,-1
1263,1264,1583935692387,-0.056599997,-4.3743,0.5895,-0.17306247,5.436686,0.22129127,-1
1264,1265,1583935692398,0.655,-4.3497,-0.0583,0.38000768,5.4429110000000005,-0.60193104,-1
1265,1266,1583935692408,1.1952,-4.3835,-0.8764,0.5331887,5.166266,-1.429099,-1
1266,1267,1583935692418,1.3561,-4.6124,-1.4807999,0.46297157,5.179501,-1.3896137,-1
1267,1268,1583935692428,1.3758,-4.5947,-1.4182999,0.27837864,5.179233,-0.980033,-1
1268,1269,1583935692439,1.2940999,-4.5853,-0.99359995,-0.10014467,5.1100216,-0.5872210999999999,-1
1269,1270,1583935692449,1.0325999,-4.6429,-0.5959,-0.75142497,4.9926863,-0.044972684000000006,-1
1270,1271,1583935692459,-0.0229,-4.7047,0.3187,-1.3668784999999999,5.025975,0.33866462,-1
1271,1272,1583935692469,-0.4188,-4.6129,0.4032,-1.8508807,5.095982,0.42331403,-1
1272,1273,1583935692479,-0.66209996,-4.532099700000001,0.29729998,-2.174318,5.1647053,0.304236,-1
1273,1274,1583935692489,-0.5703,-4.3359,-0.0184,-2.1038616,5.4013862999999995,-0.14569196,-1
1274,1275,1583935692499,-0.2014,-3.9949,-0.3902,-1.8201200000000002,5.688604,-0.44736138,-1
1275,1276,1583935692510,0.3227,-3.5184,-0.5582,-1.2796049999999999,6.230067299999999,-0.63568926,-1
1276,1277,1583935692520,0.4516,-3.2286,-0.4366,-1.2771629,6.476172,-0.4935599,-1
1277,1278,1583935692530,0.1707,-3.1246998,-0.348,-1.5480525,6.550382599999999,-0.4411939,-1
1278,1279,1583935692540,-0.0503,-3.1185,-0.4454,-1.82759,6.5284038,-0.58060354,-1
1279,1280,1583935692550,-0.0284,-3.0832,-0.58,-1.8082831000000001,6.606445299999999,-0.7114514000000001,-1
1280,1281,1583935692560,0.00029999999,-2.8913999,-0.57629997,-1.8118648999999998,6.761063,-0.7071993000000001,-1
1281,1282,1583935692571,0.024899999,-2.5728,-0.5042,-1.8154179,7.071811,-0.6497863,-1
1282,1283,1583935692581,0.0345,-2.2453,-0.39429998,-1.8230313999999999,7.450842,-0.5474869000000001,-1
1283,1284,1583935692591,0.0191,-1.9580000000000002,-0.5025,-1.8622196,7.722162700000001,-0.71176744,-1
1284,1285,1583935692601,0.0378,-1.7207999,-0.6729999999999999,-1.83913,7.9668016,-0.8673044,-1
1285,1286,1583935692611,0.0725,-1.5531,-0.62439996,-1.8340543999999999,8.117847,-0.7303752,-1
1286,1287,1583935692621,-0.1094,-1.3857,-0.27969998,-2.0590806,8.293447500000001,-0.36764404,-1
1287,1288,1583935692631,-0.3805,-1.189,-0.0079,-2.3191482999999997,8.472247,-0.13095327,-1
1288,1289,1583935692643,-0.5352,-1.0612999,0.0497,-2.4037976000000003,8.60365,-0.116415665,-1
1289,1290,1583935692653,-0.06359999599999999,-0.7768,-0.1417,-1.7910544999999998,8.944028999999999,-0.32329386,-1
1290,1291,1583935692664,0.5667,-0.4624,-0.44509998,-1.2922559999999998,9.204191999999999,-0.67994374,-1
1291,1292,1583935692674,0.44309998,-0.43019998,-0.6676,-1.7012048,9.110551,-0.88804775,-1
1292,1293,1583935692684,0.0865,-0.6016,-0.7453,-2.1144059,8.860643,-0.7609539000000001,-1
1293,1294,1583935692694,-0.34239998,-0.8109,-0.47489998,-2.5132031,8.789738,-0.41492474,-1
1294,1295,1583935692704,-0.78169996,-0.8046,0.0457,-2.9173348,8.857358,0.24700500000000003,-1
1295,1296,1583935692714,-0.8749,-0.6917,0.478,-2.8192778,8.979903,0.46088383,-1
1296,1297,1583935692725,-0.5779,-0.56159997,0.5327,-2.2760717999999995,9.213836,0.363708,-1
1297,1298,1583935692735,-0.0082,-0.24759999,0.3293,-1.7586943,9.524767,-0.05147534,-1
1298,1299,1583935692745,0.41799998,-0.0033999997999999997,-0.1347,-1.4963473,9.687878999999999,-0.44867340000000006,-1
1299,1300,1583935692755,0.5591,0.1326,-0.3651,-1.488638,9.80439,-0.48399267,-1
1300,1301,1583935692765,0.4878,0.23009999,-0.2875,-1.6238434,9.78154,-0.25744373,-1
1301,1302,1583935692776,0.3525,0.1422,-0.0087,-1.7276846999999997,9.73922,0.08872912,-1
1302,1303,1583935692786,0.28059998,0.16309999,0.2879,-1.7366869999999999,9.842582,0.31445444,-1
1303,1304,1583935692796,0.3498,0.25349998,0.4802,-1.6779906000000002,9.892142,0.39117426,-1
1304,1305,1583935692806,0.4227,0.3055,0.4245,-1.6531292000000002,9.909084,0.117526576,-1
1305,1306,1583935692816,0.4209,0.3193,0.15169999,-1.7873863999999997,9.924675,-0.16514246,-1
1306,1307,1583935692827,0.2658,0.3242,-0.0854,-1.9947052,9.910606,-0.47256753,-1
1307,1308,1583935692836,0.0837,0.3101,-0.35979998,-2.1924662999999995,9.857560000000001,-0.6175508000000001,-1
1308,1309,1583935692846,-0.1475,0.23719999,-0.5087,-2.408835,9.804151,-0.71259105,-1
1309,1310,1583935692856,-0.29279998,0.2324,-0.5151,-2.4935803,9.774921,-0.6454576,-1
1310,1311,1583935692866,-0.3145,0.1581,-0.3998,-2.5364652000000003,9.614587,-0.5089402,-1
1311,1312,1583935692876,-0.3593,-0.0053,-0.2105,-2.6118731,9.554378,-0.28510153,-1
1312,1313,1583935692886,-0.4078,-0.022499999,-0.0423,-2.5931022,9.498967,-0.2594644,-1
1313,1314,1583935692897,-0.34239998,-0.089499995,-0.0975,-2.376025,9.460257,-0.5165538,-1
1314,1315,1583935692907,-0.0947,-0.0888,-0.37559998,-2.163688,9.537771000000001,-0.8231744000000001,d
1315,1316,1583935692917,0.0916,-0.0396,-0.6234,-1.955469,9.515227000000001,-0.9271019,-1
1316,1317,1583935692928,0.29729998,-0.0396,-0.7175,-1.8795058,9.525235,-0.8842553,-1
1317,1318,1583935692938,0.3283,-0.0392,-0.6408,-1.9468787,9.482292999999999,-0.69891536,-1
1318,1319,1583935692948,0.27359998,-0.0875,-0.4333,-1.8908734,9.438145,-0.3816932,-1
1319,1320,1583935692959,0.33879998,-0.1255,-0.1813,-1.8538974999999998,9.378882,-0.20473297,-1
1320,1321,1583935692969,0.3868,-0.1924,0.0098,-1.9683210999999998,9.252556,-0.05410896,-1
1321,1322,1583935692979,0.2809,-0.2978,0.1235,-2.1580281,9.238209,-0.047108315,-1
1322,1323,1583935692989,-0.091,-0.20269999,0.11599999999999999,-2.3697522,9.343133,-0.040806774,-1
1323,1324,1583935692999,-0.0958,-0.1305,0.0449,-2.3929183,9.422152,-0.11293928,-1
1324,1325,1583935693009,-0.0614,-0.087699994,-0.0528,-2.3734298,9.460066000000001,-0.2014194,-1
1325,1326,1583935693020,-0.1533,-0.16229999,0.0559,-2.5200026,9.345977,-0.0753982,-1
1326,1327,1583935693030,-0.3223,-0.2757,0.1566,-2.6683474,9.259364,0.02501462,-1
1327,1328,1583935693040,-0.4527,-0.35979998,0.3188,-2.8365544999999996,9.152554499999999,0.16146496,-1
1328,1329,1583935693050,-0.5463,-0.4443,0.16229999,-2.920457,9.065712,-0.06671204,-1
