,Seq,Time,ACCx,ACCy,ACCz,ADGx,ADGy,ADGz,Keydown
0,1,1583935746575,-0.773,-0.4242,-0.7743,1.1285979,9.504177,-0.43349418,-1
1,2,1583935746585,-0.90569997,0.4235,-0.9632,-0.4206804,9.676932,-0.31120792,-1
2,3,1583935746595,0.0058999998,-0.16679999,0.0044,-0.512771,9.562327,-0.06870401,-1
3,4,1583935746606,-0.1113,-0.23869999,0.2827,-1.0270072000000001,9.490528999999999,0.126931,-1
4,5,1583935746616,-0.4969,-0.3286,0.4421,-1.4222611,9.450096,0.2813187,-1
5,6,1583935746626,-0.7226,-0.3378,0.62079996,-1.6813711999999998,9.426872,0.15678191,-1
6,7,1583935746636,-0.83559996,-0.37469998,0.3929,-1.9982678,9.257928,-0.28930575,-1
7,8,1583935746646,-1.1265,-0.5076,-0.0985,-2.3524562999999996,9.220961,-0.9982959000000001,-1
8,9,1583935746656,-1.2163,-0.5209,-0.6983,-2.3902466,9.1945095,-1.5729521999999998,-1
9,10,1583935746667,-1.1129999,-0.573,-1.2616,-2.506212,9.194184,-1.8127171999999998,-1
10,11,1583935746677,-1.1559,-0.4777,-1.1717,-2.5650904,9.307248,-1.3480026000000003,-1
11,12,1583935746687,-0.7204,-0.2924,-0.4734,-2.4731433,9.422208,-0.87676626,-1
12,13,1583935746697,-0.305,-0.0678,0.16309999,-2.2069943,9.660708999999999,-0.2930886,-1
13,14,1583935746707,0.108899996,0.1688,0.5112,-2.1699896,9.676807,-0.10327628,-1
14,15,1583935746717,0.1021,0.1558,0.59679997,-2.2544186,9.7133045,-0.16039236,-1
15,16,1583935746727,0.0394,0.1918,0.4655,-2.1961342999999998,9.700892999999999,-0.3971502,-1
16,17,1583935746737,0.0915,0.16939999,0.1926,-2.2255445,9.688414999999999,-0.6279608,-1
17,18,1583935746747,0.0176,0.1682,-0.11009999,-2.362196,9.710844,-0.9312678,-1
18,19,1583935746757,-0.120699994,0.18859999,-0.2906,-2.4688241,9.733042999999999,-0.92557925,-1
19,20,1583935746767,-0.23539999,0.2103,-0.2017,-2.6390326,9.83157,-0.6843873,-1
20,21,1583935746777,-0.36659998,0.32099998,0.0616,-2.5734699,9.884586,-0.49676812,-1
21,22,1583935746788,-0.2439,0.392,0.24489999,-2.3912807000000003,9.972424499999999,-0.5404863,-1
22,23,1583935746798,-0.0845,0.44299999999999995,0.14559999,-2.363575,9.966975,-0.7501800000000001,-1
23,24,1583935746808,-0.0536,0.4646,-0.029299999,-2.2914712,10.073775999999999,-0.8295716999999999,-1
24,25,1583935746818,-0.0039,0.55469996,-0.0475,-2.3517861,10.191609,-0.72167945,-1
25,26,1583935746828,-0.0809,0.69369996,0.11599999999999999,-2.5191407000000003,10.224965,-0.37610033,-1
26,27,1583935746839,-0.40289998,0.805,1.2225,-2.7094798,10.320321,0.44117475,-1
27,28,1583935746850,-0.5595,0.7679,1.5023999,-2.9191830000000003,10.28232,0.7283353,-1
28,29,1583935746860,-0.6062,0.81,1.4232999,-2.9337974,10.315141,0.64618546,-1
29,30,1583935746871,-0.2503,0.7546,1.1926,-2.5029657000000003,10.249941999999999,0.34662294,-1
30,31,1583935746881,0.087299995,0.6117,0.7984,-2.2372189,10.057102,-0.09088389599999999,-1
31,32,1583935746891,0.14549999,0.26389998,0.41239998,-2.257627,9.649744,-0.42549753,-1
32,33,1583935746901,0.14549999,0.26389998,0.41239998,-2.3348637,9.39594,-0.26861984,-1
33,34,1583935746911,0.092099994,-0.46969998,0.848,-2.3544197000000002,8.9276905,0.12518802,-1
34,35,1583935746921,-0.010799999,-0.9543,1.0453,-2.5103588,8.39658,0.33854967,-1
35,36,1583935746932,-0.22549999,-1.4777,1.2032,-2.7756939999999997,7.8947270000000005,0.58543974,-1
36,37,1583935746942,-0.325,-1.9708999,1.3744,-2.819891,7.3387837,0.8732610999999999,-1
37,38,1583935746952,-0.1052,-2.4812999,1.5401,-2.6661924999999997,6.8221345,1.2210045,-1
38,39,1583935746962,0.1165,-2.9634,1.8709999,-2.44787,6.321333999999999,1.6374233,-1
39,40,1583935746972,0.36479998,-3.5844998,2.1066,-2.3324027000000003,5.726614499999999,1.8914384999999998,-1
40,41,1583935746982,0.2784,-4.1856,2.2927,-2.4518254,4.9733605,2.2100399,-1
41,42,1583935746993,0.3283,-4.7665997,2.4775,-2.3466816,4.4486566,2.4310148,-1
42,43,1583935747003,0.4357,-5.2981997000000005,2.6035,-2.385592,3.8969845999999997,2.7053714,-1
43,44,1583935747013,0.30769998,-5.7899,2.8397,-2.5383039000000003,3.4332469,2.9493406,-1
44,45,1583935747023,0.2749,-6.212999999999999,2.8569999,-2.4235067000000003,3.043193,2.9948493999999997,-1
45,46,1583935747033,0.90139997,-6.4125,2.7961,-1.6194285,2.938921,2.8709542999999997,-1
46,47,1583935747043,1.6762999,-6.5164,2.3264,-0.8615103999999999,2.7713554,2.1536612999999996,-1
47,48,1583935747054,2.2312,-6.7001,1.6150999,-0.29254273,2.584445,1.365825,-1
48,49,1583935747064,2.8408,-6.8167,0.7273,0.21291158,2.5090947,0.6189585999999999,-1
49,50,1583935747074,3.4166,-6.9933996,-0.2346,0.7508024999999999,2.3043810000000002,-0.25945488,-1
50,51,1583935747084,3.8809,-7.1417,-0.9841,1.1622413,2.247284,-0.82967705,-1
51,52,1583935747094,4.0072,-7.1833,-1.2262,1.185647,2.1754482000000004,-0.89891744,-1
52,53,1583935747105,4.0826,-7.2053,-1.1768,1.4467682,2.338101,-0.5923351,-1
53,54,1583935747115,4.527199700000001,-6.9238,-0.94949996,2.2132576,2.5714588,-0.74340916,-1
54,55,1583935747125,5.4309,-6.77,-1.4875,3.3449008,2.7566648,-1.5734023000000001,-1
55,56,1583935747135,6.5910997,-6.5469,-2.4936,4.4769273,2.999906,-2.6066248,-1
56,57,1583935747145,7.4142,-6.3511996,-3.6095,4.459191000000001,3.1123376,-3.719498,-1
57,58,1583935747155,6.8924,-6.1910996,-4.7272,3.5635586000000004,3.3732387999999998,-4.5526705000000005,-1
58,59,1583935747166,5.9483,-5.8626,-5.3169,2.6616244,3.8655057,-4.615408400000001,-1
59,60,1583935747176,5.1562,-5.2709,-5.3427,2.0966983,4.5282397,-4.28225,-1
60,61,1583935747186,4.5635,-4.6046,-4.9912,1.5086343999999998,5.2425356,-3.7518672999999994,-1
61,62,1583935747196,4.0018,-3.8634,-4.669699700000001,1.5574665,6.055003,-3.2227392000000004,-1
62,63,1583935747206,4.3199,-2.9973,-4.2135,2.3290603,6.823608999999999,-2.5610487,-1
63,64,1583935747216,5.0758,-2.3365998,-3.8399,3.218803,7.400554,-2.439069,-1
64,65,1583935747227,5.8610997000000005,-1.8264999,-4.1414,3.8624794000000002,7.876894999999999,-3.1650102,-1
65,66,1583935747237,5.9593997000000005,-1.4847,-5.0590997,3.726939,8.118383,-4.0563910000000005,-1
66,67,1583935747248,5.5063,-1.1946,-6.415499700000001,2.8761544,8.636508000000001,-5.627015599999999,-1
67,68,1583935747257,4.4625,-0.71129996,-7.6703997,1.8346289,9.169831,-6.2546029999999995,-1
68,69,1583935747267,3.2115998,-0.1303,-8.3578,1.1017350000000001,10.164497,-6.5523267,-1
69,70,1583935747277,2.3844,0.8856,-8.6369,1.2291638999999999,11.412538,-6.1180954000000005,-1
70,71,1583935747287,2.3796,2.2038,-8.2695,1.9784055,12.854603,-5.6483526,-1
71,72,1583935747299,2.9736,3.7486,-7.9437,3.8815851,14.978499,-5.0543512999999995,-1
72,73,1583935747309,6.4069,8.2366,-7.1654,6.4515696,17.684982,-4.4934187,-1
73,74,1583935747319,7.5912,10.3082,-7.0009,8.03359,19.71627,-4.227346400000001,-1
74,75,1583935747330,7.5912,10.3082,-7.0009,9.328652,21.332731,-3.4488857000000004,-1
75,76,1583935747340,8.776199,13.6959,-5.1526,9.89988,23.404144,-1.9322644,-1
76,77,1583935747350,8.0227995,15.0323,-4.0606,9.560708,24.267485,-1.0989386,-1
77,78,1583935747360,7.4335,16.0923,-2.5173,9.285317,25.261059,0.47227067,-1
78,79,1583935747370,6.8887997,16.872,-0.7633,9.037805,25.987382999999998,2.194937,-1
79,80,1583935747381,6.0413,17.0825,1.0172,8.351914,26.128841,4.1651063,-1
80,81,1583935747391,6.0288,17.064,1.8374,8.914159,26.129837,4.604682,-1
81,82,1583935747401,7.2233996,17.227299,1.5507,10.269977,26.289484,4.0433664,-1
82,83,1583935747412,7.3822,17.2677,0.9971,10.081246,26.18822,3.278093,-1
83,84,1583935747422,6.4758997,17.0017,0.7766,9.383585,25.988447,3.0274584,-1
84,85,1583935747432,5.4484997,16.5444,1.0776,8.441859,25.468626,3.4047847,-1
85,86,1583935747442,4.9881,15.813398999999999,2.4359999,8.226554,24.44591,5.2978797,-1
86,87,1583935747452,5.3943,14.6832,4.7346,8.682602000000001,23.23114,7.8322287,-1
87,88,1583935747462,5.5522,13.2188,7.4027996,8.468751,21.676413,10.502606,-1
88,89,1583935747473,5.0460997,11.5713,9.8345995,7.8268466,20.012213,12.714331,-1
89,90,1583935747483,4.6871,9.8824,11.5637,7.331735000000001,18.371677,14.210928,-1
90,91,1583935747493,4.4486,8.2942,12.480599,7.1656832999999995,16.918722,14.573476999999999,-1
91,92,1583935747503,4.5903,6.892299700000001,11.984099,6.915786,15.611248000000002,13.542582000000001,-1
92,93,1583935747513,3.8799998999999996,5.4351,10.6383,5.548064,14.208447,11.953702999999999,-1
93,94,1583935747523,2.3885,3.9914,9.1104,3.1603939999999997,12.691692,9.858891499999999,-1
94,95,1583935747534,0.60389996,2.7398,7.5969996,1.6428342,11.864581,8.694649,-1
95,96,1583935747544,-0.9119,1.7281,6.4332,-0.39427713,10.789114999999999,7.2503324000000005,-1
96,97,1583935747554,-2.1041,0.8418,5.4542,-1.2291927,10.145391,6.4847817,-1
97,98,1583935747564,-2.202,0.0718,4.8455997,-0.69779485,9.544005,6.238178700000001,-1
98,99,1583935747574,-0.86859995,-0.2803,4.9016,0.9312486999999999,9.209191,6.231953599999999,-1
99,100,1583935747584,1.2088,-0.5627,4.8542,3.0061023,8.98858,6.3331904,-1
100,101,1583935747595,3.3111,-0.7991,5.1032,4.425710700000001,8.6916895,7.020872,-1
101,102,1583935747605,4.3492,-1.2766,5.8802,4.1113324,8.025517,7.857454300000001,-1
102,103,1583935747615,3.6604997999999997,-1.9965998999999999,6.5720997,2.6761044999999997,7.184166,8.320089999999999,-1
103,104,1583935747625,2.3873,-2.8219,6.7202,1.2213205,6.4030814000000005,7.9905524,-1
104,105,1583935747635,1.2897999,-3.5361998,6.1398997,0.029975405,5.740491400000001,7.192948299999999,-1
105,106,1583935747645,0.48499998,-4.1972,5.3522,-0.9401838,5.037247,6.4572769999999995,-1
106,107,1583935747656,-0.1051,-4.883,4.6917,-1.309772,4.317655,5.807232,-1
107,108,1583935747666,0.1284,-5.388999999999999,4.2523,-0.6643814,3.8863062999999993,5.5144305000000005,-1
108,109,1583935747676,1.1147,-5.7363,4.0715,0.22585940000000002,3.8363538,5.323661,-1
109,110,1583935747686,2.0354,-5.7983,3.8778,0.27391583,3.579705,4.90004,-1
110,111,1583935747697,2.1072,-5.995899700000001,3.5388,-0.60661405,3.2895373999999995,4.518711,-1
111,112,1583935747707,1.3252,-6.2499,3.2129,-1.2554618999999998,3.1503866,4.0463347,-1
112,113,1583935747717,0.9686,-6.3651,2.7918,-1.6746291000000002,3.027784,3.4497093999999997,-1
113,114,1583935747727,0.72609997,-6.4605,2.3098,-2.097359,2.7466855,3.219215,-1
114,115,1583935747737,0.46019998,-6.7127,2.3086998,-2.6445967999999995,2.5113835,3.209504,-1
115,116,1583935747747,-0.016099999,-6.9357996,2.3165,-3.4462426,2.2749417000000003,2.9590611,-1
116,117,1583935747758,-0.6839,-7.0822,2.1027,-4.074644,2.1416998,1.8476533,-1
117,118,1583935747768,-1.0770998999999999,-7.1934,0.8465,-3.7957672999999996,2.2457802000000004,-0.039159562,-1
118,119,1583935747778,-0.5171,-6.9974,-0.8491,-2.6128687999999998,2.541809,-1.1811745,-1
119,120,1583935747788,0.8068,-6.6914,-1.66,-1.3628850000000001,2.7621903,-0.9595961,-1
120,121,1583935747798,1.9817,-6.5081,-1.0698999,-0.8711926,2.8795831,0.8681088,-1
121,122,1583935747808,2.3169,-6.3549,0.914,-1.6126288999999998,3.0451372,3.5852787000000004,-1
122,123,1583935747819,1.6071,-6.2292,3.2737,-2.5638068,3.4326053,5.156469,-1
123,124,1583935747829,0.3839,-5.3974,4.0229,-2.90771,3.8550286,4.187803700000001,-1
124,125,1583935747839,0.233,-5.0169,1.4354999,-3.0742795,4.231617,1.4373829,-1
125,126,1583935747849,0.4276,-4.468999999999999,-1.7836,-2.9100754,4.760937,-1.9881164,-1
126,127,1583935747860,0.4276,-4.468999999999999,-1.7836,-2.4487896,5.428824,-4.7202263,-1
127,128,1583935747870,0.76669997,-3.1083,-5.3403997,-2.5741593999999997,6.1006365,-5.9156127,-1
128,129,1583935747880,0.5527,-2.5238,-5.4954,-2.7697754,6.6929336,-6.196778299999999,-1
129,130,1583935747890,0.59779996,-1.9627999,-4.8094,-2.7141724,7.2481966,-5.593114,-1
130,131,1583935747900,0.6207,-1.5518,-3.9297,-2.6724846,7.6564464999999995,-4.7730618,-1
131,132,1583935747910,0.5445,-1.2209999999999999,-3.4106,-2.7383826,7.990543,-4.2904954,-1
132,133,1583935747920,0.8969,-0.8426,-3.4864,-2.214579,8.460074,-4.461825,-1
133,134,1583935747930,1.5505999,-0.4163,-3.7721998999999995,-1.6912831999999998,8.809063,-4.717899,-1
134,135,1583935747940,1.7751,-0.1273,-3.7522,-1.4411371000000002,9.104747,-4.7149589999999995,-1
135,136,1583935747950,1.3791,-0.1311,-3.4591,-1.8263161,9.0997,-4.4248389999999995,-1
136,137,1583935747960,1.0590000000000002,-0.1532,-2.7168,-2.1444004,9.083458,-3.687904,-1
137,138,1583935747970,0.6182,-0.24239999,-1.8642,-2.7199185000000003,8.989633999999999,-2.7117400000000003,-1
138,139,1583935747981,-0.021499999,-0.3193,-1.4921,-3.2648866,8.934271,-2.3858316000000004,-1
139,140,1583935747991,-0.2183,-0.21859999,-1.3008,-3.4399889999999997,9.044058999999999,-2.2183523,-1
140,141,1583935748001,-0.2225,-0.1086,-1.3384,-3.4598897000000006,9.134349,-2.3208048,-1
141,142,1583935748011,-0.2722,0.039,-1.4682,-3.489865,9.270253,-2.4204613999999998,-1
142,143,1583935748021,0.0727,0.1646,-1.4585999,-3.0207644,9.417842,-2.422961,-1
143,144,1583935748031,0.69589996,0.2882,-1.3312,-2.3681433,9.544896000000001,-2.2541025,-1
144,145,1583935748041,1.0827,0.3721,-1.0483,-2.0847273,9.620553999999998,-1.9563023000000002,-1
145,146,1583935748051,0.9055,0.2713,-0.7265,-2.3672047000000003,9.487053,-1.6592008999999999,-1
146,147,1583935748061,0.36159998,0.2512,-0.5694,-2.8051713,9.49346,-1.5693513000000001,-1
147,148,1583935748071,0.033,0.1626,-0.78169996,-3.1699900000000003,9.4094715,-1.8622961999999998,-1
148,149,1583935748081,0.1391,0.2289,-1.0121,-2.9018013,9.49232,-2.0731106,-1
149,150,1583935748091,0.8444,0.3706,-1.1757,-2.125055,9.659061,-2.2303615000000003,-1
150,151,1583935748101,1.3987,0.4613,-1.1873,-1.5728756000000002,9.716379,-2.2338765,-1
151,152,1583935748112,1.7413,0.4646,-1.2052,-1.2861555,9.692572,-2.210643,-1
152,153,1583935748122,1.7694999,0.3525,-0.9751,-1.3479164,9.579412,-1.9371581999999998,-1
153,154,1583935748132,1.2411,0.1357,-0.5068,-2.0706491000000002,9.398104,-1.3073586000000001,-1
154,155,1583935748142,0.7517,0.11800000000000001,0.066,-2.4010491000000003,9.352843,-0.85109085,-1
155,156,1583935748152,0.3664,0.0242,0.4849,-2.8511398,9.277128999999999,-0.3896132,-1
156,157,1583935748162,0.1416,-0.008599999,0.5789,-3.116839,9.222465,-0.5770218,-1
157,158,1583935748173,-0.14109999,-0.069299996,0.076299995,-3.3932830000000003,9.125759,-1.1984034,-1
158,159,1583935748183,-0.4251,-0.1982,-0.53679997,-3.6993577000000006,9.036464,-1.7191901000000003,-1
159,160,1583935748193,-0.5272,-0.1815,-0.83629996,-3.6808553,9.032691,-1.9399163000000001,-1
160,161,1583935748203,-0.5272,-0.1815,-0.83629996,-3.5158949999999995,9.081897,-2.0199878,-1
161,162,1583935748213,-0.2109,-0.1171,-0.75659996,-3.361143,9.107955,-1.6344831,-1
162,163,1583935748223,-0.0947,-0.0991,-0.2562,-3.2137465,9.142717999999999,-1.0573658000000001,d
163,164,1583935748234,0.050899997,-0.0716,0.22129999,-3.150195,9.140832000000001,-0.6686143,-1
164,165,1583935748244,-0.055299997000000004,-0.1505,0.3886,-3.4155202000000005,9.051845,-0.6156834,-1
165,166,1583935748254,-0.2659,-0.1883,0.36589998,-3.3796456,9.077156,-0.74173325,-1
166,167,1583935748264,-0.0938,-0.1077,0.14299999,-3.1808214,9.158397,-1.110517,-1
167,168,1583935748275,0.0865,-0.0468,-0.19409999,-3.0485656000000003,9.206922,-1.2283499,-1
168,169,1583935748285,0.2651,0.0132,-0.20899999,-2.8893225,9.226334,-1.2121938,-1
169,170,1583935748295,0.373,0.0036,-0.1287,-2.729093,9.215273,-1.0358179,-1
170,171,1583935748305,0.5191,-0.0263,0.105,-2.7742857999999995,9.148762,-0.7522773,-1
171,172,1583935748316,0.30429998,-0.14400000000000002,0.4155,-3.0139549999999997,9.038992,-0.5344720000000001,-1
172,173,1583935748326,-0.2017,-0.2214,0.73649997,-3.4499586000000004,8.9878235,-0.24778071,-1
173,174,1583935748336,-0.2087,-0.22019999,0.73829997,-3.385794,9.073699000000001,-0.46109449999999996,-1
174,175,1583935748346,-0.1593,-0.1506,0.5203,-3.480154,9.039978999999999,-0.71885425,-1
175,176,1583935748356,-0.30719998,-0.18869999,0.2483,-3.6727152000000003,9.007292999999999,-0.89101654,-1
176,177,1583935748366,-0.4748,-0.20699999,0.1454,-3.3597832000000003,9.119399000000001,-0.94253975,-1
177,178,1583935748377,-0.0067999995999999995,-0.0788,0.1205,-2.78008,9.276142,-0.92333823,-1
178,179,1583935748387,0.45949998,0.07809999599999999,0.17369999,-2.767563,9.310792,-0.95310295,-1
179,180,1583935748397,0.3721,0.0712,0.1365,-3.1861365000000004,9.146013,-1.0184934,-1
180,181,1583935748408,-0.085599996,-0.103199996,0.09559999400000001,-3.6982946000000005,9.013585,-0.95511407,-1
181,182,1583935748418,-0.6782,-0.2373,0.2625,-4.011207,9.018374,-0.8564634,-1
182,183,1583935748428,-0.755,-0.16669999,0.25439999,-3.4862642,9.16804,-1.1189255,-1
183,184,1583935748438,-0.1258,-0.0014,-0.037699997,-2.706329,9.358532,-1.4562588,-1
184,185,1583935748448,0.4861,0.1513,-0.30159998,-2.4401127999999996,9.467316,-1.4342513000000001,-1
185,186,1583935748459,0.7338,0.24419999,-0.26639998,-2.5729623,9.468579,-1.1401379999999999,-1
186,187,1583935748469,0.5936,0.2399,0.0184,-2.7280203999999997,9.40882,-0.7459853,-1
187,188,1583935748479,0.3195,0.1382,0.564,-2.8907495,9.319814,-0.5965296999999999,-1
188,189,1583935748490,0.3195,0.1382,0.564,-3.0374757999999997,9.2375965,-0.6591908000000001,-1
189,190,1583935748500,-0.2521,-0.152,0.3703,-3.4325285000000005,9.053721000000001,-0.8336418999999999,-1
190,191,1583935748510,-0.2602,-0.20879999,0.22479999,-3.3829112,9.018824,-0.9767673000000001,-1
191,192,1583935748520,0.1195,-0.1591,0.1197,-2.9552014,9.080544999999999,-1.1073757,-1
192,193,1583935748530,0.3496,-0.080699995,0.044499997,-2.796102,9.145094,-1.1723831,-1
193,194,1583935748540,0.3364,-0.1096,0.0179,-2.8365066000000003,9.11872,-1.2144348999999999,-1
194,195,1583935748551,0.2288,-0.1078,-0.1358,-2.924527,9.108798,-1.3732088,-1
195,196,1583935748561,0.0081,-0.1143,-0.1529,-3.1908195,9.091061999999999,-1.3843753,-1
196,197,1583935748571,-0.1988,-0.14909999,-0.0736,-3.3853822,9.056039,-1.3413947,-1
197,198,1583935748581,-0.3944,-0.23249999,-0.1028,-3.5706646,8.969225999999999,-1.3773077,-1
198,199,1583935748591,-0.8258,-0.36499998,-0.112799995,-4.0099816,8.835581,-1.3972752,-1
199,200,1583935748602,-0.90959996,-0.3426,-0.0845,-4.050376399999999,8.86818,-1.399497,-1
200,201,1583935748612,-0.54069996,-0.2252,-0.17469999,-3.631439,8.997879,-1.4815798999999998,-1
201,202,1583935748622,-0.1091,-0.1099,-0.3152,-3.2132389999999997,9.112053999999999,-1.6406889999999998,-1
202,203,1583935748632,0.15359999,-0.035,-0.3504,-2.9592907000000004,9.219803,-1.6296948,-1
203,204,1583935748642,0.2408,0.0398,-0.31039998,-2.8420706,9.275798,-1.5782673,-1
204,205,1583935748652,0.3891,0.1052,-0.20439999,-2.7151587000000004,9.337338,-1.43926,-1
205,206,1583935748663,0.4039,0.10300000000000001,-0.012499999,-2.8308945,9.309824,-1.2196829,-1
206,207,1583935748673,0.0605,0.043399997,0.198,-3.236884,9.165875999999999,-1.009788,-1
207,208,1583935748683,-0.3096,-0.113199994,0.3606,-3.5488007000000006,9.1019125,-0.9198427,-1
208,209,1583935748693,-0.37799999999999995,-0.113199994,0.32999998,-3.4264187999999995,9.124226,-1.0656496000000002,-1
209,210,1583935748703,-0.1468,-0.0947,0.0871,-3.1513155,9.174227,-1.2579040000000001,-1
210,211,1583935748713,0.16939999,0.0013,-0.075399995,-2.890874,9.268979,-1.4318476,-1
211,212,1583935748723,0.3773,0.11699999999999999,-0.2279,-2.5866284,9.422936,-1.6364273,-1
212,213,1583935748734,0.51879996,0.2332,-0.3524,-2.7665193,9.460928,-1.5785642,-1
213,214,1583935748744,0.20449999,0.22309999,-0.1769,-3.1074631,9.460621000000002,-1.3096858,-1
214,215,1583935748754,-0.0865,0.2429,0.0624,-3.3214282999999996,9.44776,-1.1287607,-1
215,216,1583935748764,-0.2497,0.2234,0.22129999,-3.3690822,9.499761999999999,-1.0100753,-1
216,217,1583935748774,-0.1795,0.3209,0.2723,-3.1922276000000003,9.617183,-0.9990429,-1
217,218,1583935748784,0.045399997000000004,0.4375,0.2954,-3.0360584,9.737755,-0.94216627,-1
218,219,1583935748794,0.07400000000000001,0.5543,0.34989998,-3.0823145,9.800942,-0.9091167,-1
219,220,1583935748805,0.0251,0.564,0.368,-3.1471683999999995,9.789928,-0.9015030999999999,-1
220,221,1583935748815,-0.022599999,0.54499996,0.389,-3.089248,9.694851,-0.8690378000000001,-1
221,222,1583935748825,0.0871,0.4481,0.4226,-2.9232438,9.63672,-0.88453305,-1
222,223,1583935748835,0.267,0.41099998,0.34129998,-2.7810759999999997,9.577898,-1.0827825,-1
223,224,1583935748845,0.37109998,0.3163,0.096,-2.7908156,9.472055000000001,-1.3852659999999999,-1
224,225,1583935748856,0.282,0.2228,-0.1972,-2.9314702,9.3937845,-1.6174747,-1
225,226,1583935748866,0.1356,0.14919999,-0.4238,-3.0799107999999995,9.341571,-1.8140675,-1
226,227,1583935748876,0.1156,0.1432,-0.49809998,-2.9332802000000004,9.376641000000001,-1.8023455000000002,-1
227,228,1583935748886,0.2793,0.18439999,-0.45139998,-2.8324652,9.3837185,-1.6457838,-1
228,229,1583935748896,0.3443,0.1951,-0.25419998,-2.9375322,9.300296000000001,-1.3560088,-1
229,230,1583935748906,0.2038,0.0581,0.0063,-3.2040740000000003,9.106069,-1.0911813999999997,-1
230,231,1583935748917,-0.0739,-0.1282,0.23429999,-3.3492775000000004,9.001566,-0.87919873,-1
231,232,1583935748927,-0.1287,-0.2076,0.40299999999999997,-3.0602972999999998,9.02481,-0.82621026,-1
232,233,1583935748937,0.2146,-0.141,0.41689998,-2.7304049999999997,9.153761,-0.8444062,-1
233,234,1583935748947,0.5178,-0.044999998,0.3845,-2.585872,9.164324,-0.84580445,-1
234,235,1583935748957,0.5794,-0.0552,0.39389998,-2.8219402000000002,9.122894,-0.6933321,-1
235,236,1583935748967,0.3426,-0.0924,0.5434,-2.9989482999999995,9.070969999999999,-0.60646087,-1
236,237,1583935748978,0.1884,-0.15709999,0.5893,-3.2565167,8.903519000000001,-0.71197814,-1
237,238,1583935748988,-0.0713,-0.30859998,0.45399999999999996,-3.4687195,8.8387985,-0.88748264,-1
238,239,1583935748998,-0.2242,-0.35200000000000004,0.303,-3.4223199999999996,8.832851,-1.0991684,-1
239,240,1583935749008,-0.1451,-0.3473,0.085099995,-3.3536828,8.859676,-1.2273827,-1
240,241,1583935749018,-0.059299998,-0.30449998,-0.0053999997,-3.3232763,8.89828,-1.2688503,-1
241,242,1583935749028,-0.0634,-0.2722,-0.028999999999999998,-3.4193702000000004,8.8553,-1.2644928,-1
242,243,1583935749039,-0.3761,-0.34600000000000003,0.0357,-3.6568843999999996,8.829184,-1.2049729999999998,-1
243,244,1583935749049,-0.285,-0.33519998,0.0751,-3.5659146,8.838368,-1.1625285,-1
244,245,1583935749059,-0.2748,-0.40379998,0.1136,-3.558368,8.769147,-1.1244608,-1
245,246,1583935749069,-0.22829999,-0.4147,0.132,-3.5119394999999995,8.7585745,-1.1065426,-1
246,247,1583935749079,-0.22829999,-0.4147,0.132,-3.2139474999999997,8.788166,-1.170075,-1
247,248,1583935749090,0.059299998,-0.38779998,0.061699998,-2.9998102,8.860308999999999,-1.1989013000000002,-1
248,249,1583935749100,0.2604,-0.2762,0.1725,-3.0375047000000004,8.890839,-1.0236553,-1
249,250,1583935749110,0.0222,-0.317,0.3051,-3.2327566,8.864042999999999,-0.9224476,-1
250,251,1583935749120,-0.23269999,-0.31739998,0.42,-3.4864748,8.866121000000001,-0.79967296,-1
251,252,1583935749131,-0.28149998,-0.3369,0.40089998,-3.5365135999999997,8.848041,-0.83430266,d
252,253,1583935749141,-0.2721,-0.3365,0.3267,-3.558885,8.843224000000001,-0.92492795,-1
253,254,1583935749151,-0.33229998,-0.3163,0.2074,-3.5553798999999997,8.885026,-1.0727078,-1
254,255,1583935749161,-0.16899999999999998,-0.20809999,0.012499999,-3.3982916,8.984452000000001,-1.2836848,-1
255,256,1583935749172,-0.0659,-0.1002,-0.17099999,-3.3409263999999994,9.090372,-1.4791473,-1
256,257,1583935749182,-0.1387,-0.080299996,-0.266,-3.4170046000000003,9.114247,-1.5966931999999998,-1
257,258,1583935749192,-0.1524,-0.0311,-0.3525,-3.3695230000000005,9.168614,-1.6581953,-1
258,259,1583935749202,-0.1524,-0.0311,-0.3525,-3.2569091,9.189625999999999,-1.7102644,-1
259,260,1583935749212,0.0357,0.037000000000000005,-0.3363,-3.1350825,9.199088,-1.5766488,-1
260,261,1583935749223,0.1496,0.025999999,-0.1686,-3.0228903,9.200305,-1.3967101999999998,-1
261,262,1583935749233,0.2042,-0.0053,0.043899997999999996,-3.0285599999999997,9.166374000000001,-1.1463437,-1
262,263,1583935749243,0.19909999,-0.0275,0.2733,-3.0071747,9.169208,-0.91137683,-1
263,264,1583935749253,0.2321,0.008599999,0.5022,-2.9839412999999997,9.220205,-0.7257017,-1
264,265,1583935749263,0.34289998,0.0938,0.6453,-2.7906432,9.33709,-0.6204046999999999,-1
265,266,1583935749274,0.43449998,0.2093,0.5966,-2.7951827000000002,9.431842999999999,-0.8082441999999999,-1
266,267,1583935749284,0.3236,0.2483,0.2591,-2.946314,9.445202,-1.1639458999999999,-1
267,268,1583935749294,0.14800000000000002,0.2695,-0.0556,-3.176282,9.468416,-1.4626082,-1
268,269,1583935749304,-0.121599995,0.28219998,-0.2819,-3.3968837,9.5025,-1.6732501,-1
269,270,1583935749314,-0.1936,0.3444,-0.40199998,-3.4098699999999997,9.586815,-1.7656183999999997,-1
270,271,1583935749324,-0.1489,0.4351,-0.5057,-3.3582318,9.642197999999999,-1.8403941000000001,-1
271,272,1583935749334,-0.1847,0.45589998,-0.5158,-3.4278648,9.627152,-1.8405952,-1
272,273,1583935749344,-0.21339999,0.4554,-0.5014,-3.3914058,9.654703999999999,-1.7567886000000001,-1
273,274,1583935749354,-0.1284,0.4332,-0.3845,-3.2778343999999997,9.605595,-1.5885049,-1
274,275,1583935749364,-0.036199998,0.38979998,-0.2228,-3.2494776,9.483336,-1.4216387,-1
275,276,1583935749374,-0.0521,0.21859999,-0.0832,-3.2024171000000003,9.318377,-1.3130089,-1
276,277,1583935749385,0.040599998,0.057499997000000004,-0.08109999400000001,-3.064674,9.188161000000001,-1.4010198,-1
277,278,1583935749395,0.1946,-0.122099996,-0.21509999,-3.046727,8.987259,-1.4917122,-1
278,279,1583935749405,0.0982,-0.3101,-0.2609,-3.2339724999999997,8.746986,-1.4415585,-1
279,280,1583935749415,-0.121199995,-0.5652,-0.16059999,-3.5058966000000003,8.490337,-1.1906652,-1
280,281,1583935749425,-0.4168,-0.8491,0.1343,-3.7829822999999996,8.146147000000001,-0.8035898,-1
281,282,1583935749435,-0.6153,-1.1626999,0.4885,-3.7785482000000004,7.8066297,-0.54305285,-1
282,283,1583935749446,-0.5337,-1.4575,0.6313,-3.6398187000000006,7.5233479999999995,-0.50359637,-1
283,284,1583935749456,-0.2694,-1.8312998999999999,0.5945,-3.1230830000000003,7.1415396,-0.7292930000000001,-1
284,285,1583935749466,0.36609998,-2.2535,0.2618,-2.5489627999999995,6.632427000000001,-1.0989386,-1
285,286,1583935749476,0.76949996,-2.8406,-0.045199998,-2.4369428,5.705746700000001,-1.2587085,-1
286,287,1583935749486,0.7779,-3.6701,-0.085,-2.5047752999999995,4.8026919999999995,-1.1870643,-1
287,288,1583935749496,0.71349996,-4.5859,0.0218,-2.7329621,3.908812,-0.9637715,-1
288,289,1583935749506,0.4644,-5.4719,0.25349998,-3.0588896,3.0227562999999997,-0.69471115,-1
289,290,1583935749517,0.1231,-6.3206997000000005,0.55,-3.4266962999999997,2.3946805,-0.45410344,-1
290,291,1583935749527,-0.3266,-7.0951996,0.8322,-3.7891977,1.5664783000000002,-0.28364587,-1
291,292,1583935749537,-0.5385,-7.7488,0.895,-3.7965910000000003,1.006034,-0.24948539999999997,-1
292,293,1583935749547,-0.58559996,-8.2926,0.9151,-3.8387384,0.5349221,-0.16330372,-1
293,294,1583935749557,-0.6536,-8.785,1.0198,-3.4453137000000003,0.16948074,-0.07849151,-1
294,295,1583935749567,-0.21239999,-9.137199,1.0916,-2.6877212999999998,0.018828003,0.071816474,-1
295,296,1583935749578,0.43629998,-9.2788,1.1608,-1.9678327000000002,-0.02600103,0.11188583,-1
296,297,1583935749588,1.0623,-9.315499,1.1808,-1.2742323999999998,0.07247727,0.029161377000000002,-1
297,298,1583935749598,1.6104,-9.2652,1.0631,-0.6781050000000001,0.26968288,-0.11999739,-1
298,299,1583935749608,2.0255,-9.0678,0.9048,-0.47197375,0.4682388,-0.13438176,-1
299,300,1583935749618,2.0351,-8.9386,0.92859995,-0.5749340000000001,0.75301474,0.38789898,-1
300,301,1583935749629,1.7939,-8.721399,1.3669,-0.32729694,1.0445518,0.8551322,-1
301,302,1583935749639,1.8924999,-8.466599,1.7883999,0.12526463,1.5766008999999999,1.2450615,-1
302,303,1583935749649,3.1207,-6.9811997,2.3518999,1.2736962,2.6237001,1.5040280000000001,-1
303,304,1583935749660,4.1194,-5.9526997,1.9614999,2.6605422,3.9434032,1.0757818000000001,-1
304,305,1583935749670,4.5092,-4.802,1.5345,3.0801979999999998,5.071053,0.7444914,-1
305,306,1583935749680,4.3115997,-3.7531998,1.1976,3.0441892000000004,5.954187999999999,0.4924394,-1
306,307,1583935749690,3.7644,-2.7380998,1.0588,2.6718047,6.9929266000000005,0.39076245,-1
307,308,1583935749700,2.3579,-2.1104998999999998,0.8731,1.1051252,7.733185300000001,0.177056,-1
308,309,1583935749710,0.8379,-1.5776,0.5216,-0.094676316,8.359623,-0.13759956,-1
309,310,1583935749721,0.44979998,-0.7396,0.1717,-0.07850108,9.223222,-0.5248856,-1
310,311,1583935749731,1.2886,0.35459998,-1.0066,1.274424,10.452261,-1.7951724999999998,-1
311,312,1583935749741,2.972,1.9519,-2.289,3.0716267000000004,12.063003,-2.9060533,-1
312,313,1583935749751,3.3990998,3.2208,-3.3255,3.3952459999999998,13.246572500000001,-3.687128,-1
313,314,1583935749761,2.2696,4.0745997,-3.1374,2.28516,13.9614525,-2.9977129000000002,-1
314,315,1583935749771,0.7295,4.4965,-1.6718998999999999,1.0817195,14.379076999999999,-1.115449,-1
315,316,1583935749782,-0.1322,4.9122,0.3764,0.6159515,14.787691,1.2689748,-1
316,317,1583935749792,-0.0069,5.6292,2.3351,1.6359293,15.754843,3.8104582000000002,-1
317,318,1583935749802,1.4496,6.6966,3.8211,3.5009167000000003,16.80854,5.377904,-1
318,319,1583935749812,2.9847999,7.8838,4.7441998,5.0836562999999995,17.913235,6.1943555,-1
319,320,1583935749822,3.6141,8.8,4.9062,5.3876915,18.534435000000002,6.337710400000001,-1
320,321,1583935749832,3.0242,9.1924,4.5195,4.9994473,18.693189999999998,5.967548000000001,-1
321,322,1583935749843,2.8281999,9.391,3.6121,5.311306500000001,18.851226999999998,4.903076,-1
322,323,1583935749853,3.0972,9.505,2.4445,5.7423873,18.80726,3.5800114,-1
323,324,1583935749863,3.7247999,9.5054,1.0051,6.7528844,18.779266,2.259322,-1
324,325,1583935749873,4.321399700000001,9.3249,-0.0089,7.142124000000001,18.43786,1.4438186000000002,-1
325,326,1583935749883,4.0499,8.9142,-0.6899,6.830849000000001,17.88167,0.7817451999999999,-1
326,327,1583935749893,3.5089,8.342,-1.0849999,6.361805400000001,17.29124,0.60682476,-1
327,328,1583935749904,2.9589,7.7577,-1.0258,5.7717023,16.505579,0.9650548000000001,-1
328,329,1583935749914,2.3667998,7.093,-0.6095,5.370185,15.910916,1.3516418,-1
329,330,1583935749924,1.8271998999999999,6.3767,-0.151,4.871731,14.974075,1.8770541,-1
330,331,1583935749934,1.4441,5.5783997,0.1444,4.6292367,14.159175,2.0102293,-1
331,332,1583935749944,1.2738999,4.844599700000001,0.0875,4.6338625,13.457970999999999,1.820302,-1
332,333,1583935749954,1.2268,4.1656,-0.1642,4.619353299999999,12.802027,1.5942031,-1
333,334,1583935749965,1.1667,3.5417,-0.38959998,4.495640799999999,12.293948,1.4939339,-1
334,335,1583935749975,0.7708,2.8948998,-0.2786,3.8419852,11.623916,1.7957278,-1
335,336,1583935749985,0.19559999,2.451,-0.0381,3.5015294999999997,11.251043,1.864269,-1
336,337,1583935749995,0.055,2.2307,-0.0982,3.5444145,11.186955000000001,1.7052462,-1
337,338,1583935750005,0.062299997,2.1274,-0.2342,3.5915036,11.082855,1.7205979,-1
338,339,1583935750015,0.198,2.0825999,-0.1453,3.8246512000000004,11.014726,1.8388426,-1
339,340,1583935750026,0.48169997,1.9793999,0.0774,4.1593413,10.863844,2.0986423,-1
340,341,1583935750036,0.7679,1.8167,0.2692,4.4524493,10.693529,2.3213701,-1
341,342,1583935750046,1.0188,1.6326,0.48189998,4.6473947,10.466761,2.4545453,-1
342,343,1583935750056,1.1673,1.3965,0.5712,4.5763345,10.126717,2.4998436,-1
343,344,1583935750066,1.0194,1.0881,0.5657,4.1921515,9.766417500000001,2.5203857000000003,-1
344,345,1583935750077,0.585,0.7076,0.63049996,3.5598235000000003,9.401982,2.6055232999999998,-1
345,346,1583935750086,-0.0104,0.3542,0.7069,3.1576169,9.139185000000001,2.6302605,-1
346,347,1583935750096,-0.4186,0.0587,0.75659996,2.908639,8.966391,2.6611168,-1
347,348,1583935750106,-0.5545,-0.1087,0.7884,2.8613775,8.806544,2.6814485,-1
348,349,1583935750116,-0.52639997,-0.23609999,0.79249996,2.9191735,8.718457,2.5197632000000003,-1
349,350,1583935750127,-0.4515,-0.3339,0.6328,3.101583,8.677545,2.2699903999999997,-1
350,351,1583935750137,-0.19219999,-0.3531,0.3987,3.4159608,8.721214999999999,2.0588028,-1
351,352,1583935750147,0.0854,-0.3238,0.23779999,3.5968190000000004,8.783311,1.9875609,-1
352,353,1583935750157,0.2963,-0.2762,0.2377,3.6211536,8.841136,2.0131118000000003,-1
353,354,1583935750167,0.2653,-0.22039999,0.2606,3.2079527000000003,8.846671,1.9206956999999998,-1
354,355,1583935750177,-0.20269999,-0.2547,0.1973,2.704653,8.827882,1.8197848,-1
355,356,1583935750187,-0.6407,-0.2696,0.1349,2.5993369,8.850923,1.697671,-1
356,357,1583935750198,-0.61259997,-0.2234,0.022000000000000002,2.8674397000000003,8.96935,1.5712476,-1
357,358,1583935750208,-0.32709998,-0.1504,-0.0412,2.8654957000000003,8.969101,1.4906108,d
358,359,1583935750218,-0.4211,-0.1727,-0.0931,2.7042889999999997,8.912453999999999,1.5702132,-1
359,360,1583935750228,-0.51949996,-0.2263,0.012399998999999998,2.965602,8.93924,1.5826343999999999,-1
360,361,1583935750238,-0.14109999,-0.17999999,-0.003,3.7576709000000004,9.103242999999999,1.4430907,-1
361,362,1583935750248,0.5394,-0.0448,-0.1261,3.7930477,9.081323,1.4393653999999998,-1
362,363,1583935750259,0.5866,-0.0681,-0.121,3.245666,8.947303999999999,1.5726458,-1
363,364,1583935750269,0.052699998,-0.20179999,0.021,2.6332197,8.8290205,1.7782215000000001,-1
364,365,1583935750279,-0.69589996,-0.2848,0.2683,2.4673493,8.88608,1.8194592,-1
365,366,1583935750289,-0.49859998,-0.1135,0.2577,2.6475275000000003,9.068183,1.7935157,-1
366,367,1583935750299,-0.2963,0.0787,0.21859999,2.8368417999999997,9.252335,1.7468957999999999,-1
367,368,1583935750309,-0.2963,0.0787,0.21859999,2.7953837000000004,9.379448,1.8137323,-1
368,369,1583935750320,-0.52239996,0.3577,0.5072,2.5642476000000003,9.586267999999999,2.0686,-1
369,370,1583935750330,-0.7349,0.6505,0.79319996,2.3934164,9.842342,2.3002532,-1
370,371,1583935750340,-1.0567,1.2481999,1.1553,1.9869576,10.591,2.7475762,-1
371,372,1583935750351,-1.5173,2.1011999,1.6947,1.4899596000000002,11.495003,3.3239372000000005,-1
372,373,1583935750361,-2.0296,3.2389997999999998,2.3362,1.1003081000000001,12.427764999999999,3.842464,-1
373,374,1583935750371,-2.2336,4.6031,3.0621,0.9927414000000001,14.1126795,4.7134647,-1
374,375,1583935750381,-1.1718,6.3128,3.9403,2.3738222,15.848207,5.599089599999999,-1
375,376,1583935750392,0.6961,7.9175997,4.669699700000001,4.7573647,17.722637,6.4287763,-1
376,377,1583935750401,2.6894999,9.3744,5.3889,6.244326999999999,18.833548,7.022183999999999,-1
377,378,1583935750411,2.6894999,9.3744,5.3889,6.608648,19.291672,7.2754330000000005,-1
378,379,1583935750421,3.4938,10.3855,5.909,6.674909599999999,19.607727,7.3535414,-1
379,380,1583935750431,3.7756,10.4548,5.6370997,6.887237,19.682405,6.9001850000000005,-1
380,381,1583935750441,3.7877,10.2969,4.7278,6.652452,19.472597,5.860977,-1
381,382,1583935750452,3.1281998,9.7671995,3.8593998,5.843624,18.962719,4.956697,-1
382,383,1583935750462,2.5844,9.0856,3.3523,5.330422,18.449574,4.4890323,-1
383,384,1583935750472,2.2467,8.305099499999999,2.9882,4.6506987,17.366697,3.8217491999999997,-1
384,385,1583935750482,1.7581999,7.2713,2.5256,4.048403700000001,16.499891,3.18266,-1
385,386,1583935750492,1.0347998999999999,5.9572,1.3808,3.071416,14.9848385,1.5144858,-1
386,387,1583935750502,0.9589,4.7773,0.080699995,3.5518463,13.995872,0.2607956,-1
387,388,1583935750512,2.4935,3.9682998999999994,-0.6716,4.8234835,13.407376000000001,-0.35139218,-1
388,389,1583935750523,3.8934998999999997,3.1648,-0.5812,5.8005285,12.380407,-0.2769517,-1
389,390,1583935750533,3.1652,1.9806,-0.59999996,4.198902599999999,11.103015,-0.5380345999999999,-1
390,391,1583935750543,1.5052999,0.6214,-1.0299,2.6904314,9.756917999999999,-1.2059212,-1
391,392,1583935750553,1.1112,-0.606,-0.93549997,3.0906272,8.797015,-0.56110513,-1
392,393,1583935750563,2.0437,-1.5051,-0.42159998,3.4695814,8.002332000000001,-0.5745222,-1
393,394,1583935750573,2.1078,-2.3917,-1.0632,3.47436,6.985083599999999,-1.5522472,-1
394,395,1583935750583,2.3351998,-3.2568,-1.7914,4.025256,6.2156734,-2.2472072,-1
395,396,1583935750594,3.1606998,-3.7282998999999997,-2.1624,4.527091,5.847378,-2.417914,-1
396,397,1583935750604,3.8567998,-4.0425,-1.8836,4.698889299999999,5.3796372,-2.1004810000000003,-1
397,398,1583935750614,3.3226,-4.6414,-1.7413,3.3331406,4.7227736,-2.1861648999999996,-1
398,399,1583935750624,2.0605,-5.3283997,-1.7542,2.215288,4.133953,-1.980091,-1
399,400,1583935750634,1.2168,-5.8078,-1.4366,1.3433867,3.819039,-1.6613172999999999,-1
400,401,1583935750645,0.62799996,-6.0885997000000005,-1.1156,0.871748,3.6144687999999996,-1.5258439,-1
401,402,1583935750654,0.16309999,-6.3567995999999996,-1.0131,0.17328274,3.3339834,-1.5683649,-1
402,403,1583935750664,-0.4242,-6.5733,-1.0899999,-0.55749464,3.1279097,-1.8109838,-1
403,404,1583935750674,-0.6479,-6.7086997,-1.3586,-0.55323297,3.144966,-2.1853986,-1
404,405,1583935750684,-0.2836,-6.5676,-1.8321999,-0.35328838,3.2783325,-2.7259903,-1
405,406,1583935750694,-0.1427,-6.4448,-2.0462,-0.33249715,3.3780558,-2.7180128,-1
406,407,1583935750704,-0.1325,-6.3802,-1.8096,-0.5416738,3.4982830000000003,-2.3578959999999998,-1
407,408,1583935750715,-0.1259,-6.1583,-1.3773999,-0.6228468,3.7966866,-1.8826756000000002,-1
408,409,1583935750725,-0.2427,-5.8283997,-0.9044,-0.87435293,4.0864425,-1.6230483999999998,-1
409,410,1583935750735,-0.3471,-5.4783998,-0.69949996,-0.9645568000000001,4.4682508,-1.4585188999999998,-1
410,411,1583935750745,-0.31419998,-5.148,-0.5744,-1.141249,4.8038983,-1.4806701,-1
411,412,1583935750755,-0.478,-4.8768,-0.6683,-1.2853894,5.100137999999999,-1.579972,-1
412,413,1583935750766,-0.4468,-4.567199700000001,-0.6992,-1.113208,5.485604299999999,-1.4714382,-1
413,414,1583935750776,-0.25079998,-4.1904,-0.5724,-1.2455691,5.662823,-1.3130473,-1
414,415,1583935750786,-0.37669998,-4.0306997,-0.4055,-1.4203937,5.8918047,-1.0236745,-1
415,416,1583935750796,-0.4502,-3.7738,-0.13669999,-1.1731972,6.1202593,-0.8816504000000001,-1
416,417,1583935750806,-0.1972,-3.5665998,-0.015199998999999999,-1.1048474,6.329484,-0.6942419,-1
417,418,1583935750816,-0.0756,-3.3005,0.247,-1.1180156,6.6693077,-0.48931736,-1
418,419,1583935750827,-0.124,-2.9851,0.2994,-1.0671723999999998,7.028485300000001,-0.5898451,-1
419,420,1583935750837,-0.019199999,-2.6303,0.1925,-0.8653603000000001,7.3291783,-0.7544512,-1
420,421,1583935750847,0.21939999,-2.3634999,0.0128,-0.6626097,7.5228304999999995,-0.9641066999999999,-1
421,422,1583935750857,0.3883,-2.1752,-0.16399999,-0.6896833,7.691478699999999,-0.9401360000000001,-1
422,423,1583935750867,0.3527,-2.0161,-0.0477,-0.8841882999999999,7.7315570000000005,-0.5328056999999999,-1
423,424,1583935750877,0.1327,-1.9943,0.4086,-1.2470821,7.712700999999999,-0.13433386,-1
424,425,1583935750887,-0.2437,-2.0117,0.7477,-1.7686447,7.750960000000001,-0.05572744,-1
425,426,1583935750897,-0.7412,-1.9210999,0.72929996,-1.9697194,7.9495830000000005,-0.86247766,-1
426,427,1583935750907,-0.8556,-1.7523999,-0.1935,-1.8407292000000002,8.203004,-1.5656643,-1
427,428,1583935750917,-0.6763,-1.4475,-0.7636,-1.346432,8.522745,-1.9791523999999998,-1
428,429,1583935750928,-0.114599995,-1.0857999,-1.1082,-0.64230686,8.982011,-1.7956511999999998,-1
429,430,1583935750938,0.5214,-0.6768,-0.8009999999999999,-0.4851323,9.238783999999999,-1.2578466,-1
430,431,1583935750948,0.54429996,-0.4549,-0.2628,-0.65106964,9.356847,-0.64046806,-1
431,432,1583935750958,0.3215,-0.35009998,0.3087,-1.1579413,9.354462,-0.28431624,-1
432,433,1583935750968,-0.1971,-0.3813,0.5421,-1.5462615,9.407977,-0.53994036,-1
433,434,1583935750978,-0.4969,-0.3227,0.2778,-1.4556075000000002,9.510995,-1.1396976,-1
434,435,1583935750988,-0.3974,-0.2145,-0.3278,-1.1470333000000001,9.707778999999999,-1.6583294999999998,-1
435,436,1583935750999,-0.0962,-0.018199998999999998,-0.8321,-0.95521945,9.825919,-1.781334,-1
436,437,1583935751009,0.0942,0.098799996,-0.9586,-1.0604686,9.805309,-1.4892988,-1
437,438,1583935751019,-0.019399998999999998,0.0779,-0.67329997,-1.1916516000000001,9.763124000000001,-1.0151511,-1
438,439,1583935751029,-0.1628,0.036399997999999996,-0.22199999,-1.2760808000000001,9.683301,-0.5745701,-1
439,440,1583935751039,-0.2496,-0.044999998,0.2023,-1.2534412,9.688703,-0.28252540000000004,-1
440,441,1583935751050,-0.019399998999999998,0.026999999,0.6709999999999999,-1.0162236999999998,9.760183,-0.055286907,-1
441,442,1583935751060,0.0729,0.0832,0.5775,-0.91400087,9.833819,-0.12642342,-1
442,443,1583935751070,0.1555,0.1793,0.34600000000000003,-0.76390356,9.937028999999999,-0.39566576,-1
443,444,1583935751080,0.3572,0.2564,0.14119999,-0.580479,10.021276,-0.5756427,-1
444,445,1583935751090,0.3572,0.2564,0.14119999,-0.550245,10.086647,-0.566832,-1
445,446,1583935751100,0.1547,0.3242,0.2787,-0.7782975000000001,10.066219,-0.43162668,-1
446,447,1583935751110,-0.2101,0.22639999,0.4023,-1.2258505,9.938139999999999,-0.31960678,d
447,448,1583935751120,-0.5456,0.1876,0.4007,-1.4785153,9.938303,-0.32262346,-1
448,449,1583935751130,-0.5456,0.1876,0.4007,-1.3353133,9.928458000000001,-0.49752468,-1
449,450,1583935751140,-0.056199998,0.32459998,0.0699,-0.96918243,10.068939,-0.6706063,-1
450,451,1583935751150,0.34759998,0.43159997,-0.0372,-0.5025621,10.199461999999999,-0.7974224,-1
451,452,1583935751160,0.525,0.4992,-0.067999996,-0.26036465,10.293219,-0.9012254000000001,-1
452,453,1583935751171,0.85109997,0.5963,-0.2483,0.08202535,10.398361999999999,-1.0636864,-1
453,454,1583935751181,1.0636,0.6933,-0.3936,0.23716962,10.436986,-1.1658038,-1
454,455,1583935751191,0.86179996,0.61399996,-0.2219,-0.05056554,10.355103999999999,-0.9179274,-1
455,456,1583935751201,0.86179996,0.61399996,-0.2219,-0.47975013,10.23548,-0.34166217,-1
456,457,1583935751211,0.26819998,0.4461,0.7768,-0.58100575,10.196666,0.18237112,-1
457,458,1583935751222,0.2729,0.4854,0.9594,-0.5842427,10.239378,0.20701225,-1
458,459,1583935751232,0.2188,0.5256,0.7409,-0.72278076,10.273548,-0.13761872,-1
459,460,1583935751242,-0.0208,0.5076,0.4617,-0.93324065,10.269162,-0.3534895,-1
460,461,1583935751252,-0.064899996,0.56839997,0.20629999,-0.8770726999999999,10.350986500000001,-0.7038378000000001,-1
461,462,1583935751262,0.085599996,0.64879996,-0.0187,-0.73046136,10.431795,-0.83335453,-1
462,463,1583935751273,0.13939999,0.7291,0.0285,-0.76764816,10.470525,-0.74257606,-1
463,464,1583935751283,0.1072,0.6723,0.1139,-0.7255005,10.391956,-0.75312966,-1
464,465,1583935751293,0.26119998,0.6058,-0.0154,-0.5999103,10.3398485,-0.99085474,-1
465,466,1583935751303,0.305,0.6766,-0.2902,-0.44994712,10.50297,-1.3552331,-1
466,467,1583935751313,0.7468,0.9532,-0.7783,0.054415415999999994,10.900149,-1.9550668000000002,-1
467,468,1583935751323,1.2336999,1.5337,-1.4599999,0.54729533,11.514578,-2.5965787999999996,-1
468,469,1583935751333,1.5531,2.1239,-1.8098999,0.70860714,12.052555,-2.7715757,-1
469,470,1583935751343,1.5709,2.5276,-1.8404,0.7362841,12.375974000000001,-2.8595194999999998,-1
470,471,1583935751353,1.6969999,2.8135,-2.0004,0.84695363,12.618046000000001,-3.1222209999999997,-1
471,472,1583935751364,1.6969999,2.8135,-2.0004,0.9703221,12.787336,-3.6431608,-1
472,473,1583935751374,2.1671999,3.2378,-2.9562,1.7118830000000003,13.075175999999999,-4.1747026,-1
473,474,1583935751384,3.2321,3.5332,-3.4334,3.1527421,13.444544,-4.712756,-1
474,475,1583935751394,4.515,3.7805,-3.7867,4.3467593,13.555932,-5.0800457,-1
475,476,1583935751404,5.4879,3.8142,-4.1514997000000005,4.866253400000001,13.444370999999999,-5.420683,-1
476,477,1583935751415,5.8573,3.5275998,-4.4491997,4.873953299999999,12.917178,-5.7075276,-1
477,478,1583935751425,5.6201,2.9507,-4.5144997,4.5038385000000005,12.355172999999999,-5.726088,-1
478,479,1583935751435,5.1481,2.2017,-4.4477,3.784936,11.379180999999999,-5.688843299999999,-1
479,480,1583935751445,4.6428,1.359,-4.3682,3.0922072,10.45973,-5.685578,-1
480,481,1583935751455,4.0498,0.4326,-4.3075,2.4054065,9.477332,-5.7433453000000005,-1
481,482,1583935751466,3.5497,-0.50949997,-4.3285,1.8929995,8.524604,-5.754186,-1
482,483,1583935751476,3.2839,-1.4488,-4.2304,1.2541115,7.2805089999999995,-5.442825,-1
483,484,1583935751489,2.8195,-2.4838,-3.82,0.31779677,5.965776,-4.8600283,-1
484,485,1583935751500,1.8439,-4.5933,-2.8497,-0.23105961,4.8725452,-4.421094999999999,-1
485,486,1583935751510,1.7806,-5.6766996,-2.431,-0.48591759999999995,3.7484963,-4.0179013999999995,-1
486,487,1583935751520,1.7806,-5.6766996,-2.431,-0.9680907,2.6627831000000004,-3.7145657999999995,-1
487,488,1583935751530,1.4794999,-6.705899700000001,-2.1042,-1.7110881000000002,1.6379118000000001,-3.0103352,-1
488,489,1583935751541,0.3129,-8.4411,-0.7646,-2.8750532000000004,0.48100470000000006,-2.239843,-1
489,490,1583935751551,-0.63089997,-9.4439,-0.34719998,-4.1079903,-0.53505623,-1.7915715,-1
490,491,1583935751561,-1.8034999,-10.154799,0.022799998999999998,-5.508627,-1.3084983000000001,-1.5220227,-1
491,492,1583935751571,-1.8034999,-10.154799,0.022799998999999998,-6.1397867,-1.7330381000000001,-1.5812362,-1
492,493,1583935751581,-3.3923,-11.2329,0.22309999,-7.0048594,-2.240494,-1.0907408,-1
493,494,1583935751591,-3.3128,-11.221399,0.76299995,-6.845923,-2.2022252,-0.42837057,-1
494,495,1583935751602,-2.5305998,-11.1251,1.3642,-5.7885957,-2.073302,0.61134505,-1
495,496,1583935751612,-1.4077,-11.0171995,2.3999,-4.770916000000001,-1.9204273999999997,1.6982552,-1
496,497,1583935751622,-0.294,-10.8316,3.9798,-3.7210586,-1.6903542,3.5533687999999994,-1
497,498,1583935751632,0.254,-10.512,5.8865,-3.0530286,-1.1879548999999998,6.1230364,-1
498,499,1583935751642,0.7812,-9.985499,7.8792995999999995,-2.2879183,-0.48240292,8.396025,-1
499,500,1583935751652,1.2902,-9.2012,9.9855995,-2.0786938999999998,0.21743183,10.167294,-1
500,501,1583935751662,0.74939996,-8.2551,11.5004,-2.657315,1.404046,11.753328,-1
501,502,1583935751672,0.295,-7.3357997,11.8517,-2.9210985000000003,2.133722,11.853807000000002,-1
502,503,1583935751682,0.011000000000000001,-6.3679,11.5337,-2.9809248,3.3263218,11.368867,-1
503,504,1583935751692,0.1099,-5.5393,10.8345995,-2.776479,4.200579,10.545884,-1
504,505,1583935751702,0.2271,-4.4873,10.0088,-2.4432063,5.453015,9.704523,-1
505,506,1583935751712,0.5965,-3.2407,9.4549,-1.8099973000000003,6.635654400000001,9.216384,-1
506,507,1583935751723,1.1815,-2.2784,9.1418,-1.1689067,7.562344599999999,8.852609,-1
507,508,1583935751733,1.3377999,-1.4420998999999999,8.9661,-1.0801201,8.390824,8.653037,-1
508,509,1583935751743,1.2408999,-0.6627,8.887,-0.9156385,9.260188000000001,8.427456,-1
509,510,1583935751753,1.6696,0.31399998,8.602,-0.19786641,10.118538000000001,7.956124000000001,-1
510,511,1583935751763,2.4838,1.3908,7.5424,0.88712835,11.461062,6.3332667,-1
511,512,1583935751773,2.8752,2.4220998,6.0822997,1.4044003,12.438721000000001,4.717468,-1
512,513,1583935751784,3.2861,3.2993998999999996,4.6851997,2.1586792,13.339841,3.4011934,-1
513,514,1583935751794,3.9998998999999995,4.1582,3.9703,3.0863461,14.09026,2.933146,-1
514,515,1583935751804,4.1584997,4.4481997,3.9622998,3.065009,14.231461,3.3407447,-1
515,516,1583935751814,3.9522,4.5715,4.726,3.2621381,14.420191,4.3680677,-1
516,517,1583935751824,3.9250998,4.7736,5.98,3.2851226000000002,14.599067000000002,5.4485426,-1
517,518,1583935751835,3.4613998,5.2142,6.6306,3.1060555,15.742115,6.26916,-1
518,519,1583935751845,3.2598,6.4645996,7.1733,3.199362,16.879114,6.8221436,-1
519,520,1583935751855,3.1302,7.4572997,7.4051,3.3445656,17.788555,6.965986999999999,-1
520,521,1583935751866,3.0713,8.202499000000001,7.3313,3.7160883,18.242898999999998,6.808755400000001,-1
521,522,1583935751876,3.4029998999999997,8.5323,6.8398,4.415741400000001,18.273075,5.867173,-1
522,523,1583935751886,4.0407,8.4647,5.4739,5.462572,18.210691,4.218171599999999,-1
523,524,1583935751896,4.936899700000001,8.37,3.7045,5.986337000000001,18.020533,2.4970374,-1
524,525,1583935751906,4.6698,8.1965,2.0588999,5.3295699999999995,17.794712,1.1815578000000002,-1
525,526,1583935751916,3.7205,7.9493,1.0328,4.1359735,17.444029,0.23112665,-1
526,527,1583935751927,2.7707999,7.674299700000001,0.285,3.628154,17.11293,-0.8267273999999999,-1
527,528,1583935751937,2.2391,7.3230996,-0.9679,3.7360462999999995,16.76371,-2.3267330000000004,-1
528,529,1583935751947,2.3264,6.9628997,-2.5504,4.098299,16.223043,-4.139508,-1
529,530,1583935751957,2.6125998,6.3975,-4.4357,4.522676000000001,15.489842999999999,-6.032765400000001,-1
530,531,1583935751967,3.0021,5.6653,-6.297000000000001,4.9619637,14.913770000000001,-7.1845493000000005,-1
531,532,1583935751977,3.4383,4.9716997,-7.5537,5.209591400000001,14.104911999999999,-7.941950299999999,-1
532,533,1583935751988,3.4046,4.3259,-7.9564,4.891526,13.691434,-7.595049400000001,-1
533,534,1583935751998,3.0400999,3.9926998999999994,-7.5555997,4.938308999999999,13.467289000000001,-6.853249000000001,-1
534,535,1583935752008,3.1471999,3.7863998,-6.9502997,5.208825,13.062669,-6.501273,-1
535,536,1583935752018,3.3063,3.3232,-6.7991,4.988013,12.499294,-6.668253999999999,-1
536,537,1583935752029,3.0312997999999998,2.7287998,-7.115999700000001,4.6639147,11.6259365,-7.387759,-1
537,538,1583935752039,2.7809,1.9932,-7.7544,4.4630410000000005,10.968824,-7.929433,-1
538,539,1583935752049,2.5997999,1.3431,-8.2935,4.2274519999999995,10.341946,-8.366413,-1
539,540,1583935752059,2.2107,0.276,-9.0231,4.037917,9.920058000000001,-8.648191,-1
540,541,1583935752070,2.4638,-0.0892,-9.0351,4.274129,9.554367999999998,-8.6438055,-1
541,542,1583935752080,2.6745,-0.3065,-8.8962,4.4688253,9.3364105,-8.466911999999999,-1
542,543,1583935752090,2.9629,-0.5237,-8.831699,4.742195,9.122637,-8.386247000000001,-1
543,544,1583935752100,2.9629,-0.5237,-8.831699,4.9421496,9.011057000000001,-8.600615,-1
544,545,1583935752110,3.5777,-0.76489997,-9.454599,5.364554,8.878169,-8.975498,-1
545,546,1583935752121,3.6069998999999995,-0.9177,-9.2976,5.2564316,8.708794000000001,-8.822413000000001,-1
546,547,1583935752131,3.1766,-1.1121,-9.2171,4.7138862999999995,8.484917,-8.789458999999999,-1
547,548,1583935752141,2.5883,-1.3965,-9.253699000000001,4.1246257,8.232836,-8.855453500000001,-1
548,549,1583935752152,2.1118,-1.6127,-9.304299,3.535671,8.020614,-8.967989999999999,-1
549,550,1583935752162,1.3134999,-1.9168999,-9.2984,2.4382262000000003,7.666119,-8.826578999999999,-1
550,551,1583935752172,0.44439998,-2.1121,-8.793,1.7682903000000003,7.576834700000001,-8.35699,-1
551,552,1583935752182,-0.0805,-2.2366,-8.0274,1.344009,7.475655000000001,-7.730408000000001,-1
552,553,1583935752192,-0.52099997,-2.3093998,-6.8876995999999995,0.74043083,7.417936,-6.0250373,-1
553,554,1583935752202,-0.52099997,-2.3093998,-6.8876995999999995,0.76356834,7.5775337,-4.1419687000000005,-1
554,555,1583935752213,-0.33229998,-2.0165,-3.3885,1.2798923,7.745214,-2.3716102,-1
555,556,1583935752223,0.2922,-1.8374,-1.8391,1.8987265,7.975353999999999,-0.92549306,-1
556,557,1583935752233,0.6755,-1.5896,-0.5053,2.1158996,8.144471000000001,0.11443326599999999,-1
557,558,1583935752243,0.71739995,-1.4901999,0.5233,2.0731490000000004,8.298599000000001,1.1663306,-1
558,559,1583935752253,0.44129997,-1.3238,1.2013999,1.7311802,8.480559,1.6924325,-1
559,560,1583935752263,0.1506,-1.0015,1.7991999,1.5037694,8.843913,2.1973984,-1
560,561,1583935752274,-0.0412,-0.66889995,2.3608,1.3794049,9.170195,2.5731442,-1
561,562,1583935752284,0.12539999,-0.3442,2.5962,1.9561394,9.571386,2.5037222000000003,-1
562,563,1583935752294,0.8416,0.0327,2.6224,2.8109076,9.978150999999999,2.2567744,-1
563,564,1583935752304,1.5381,0.4033,2.3430998,3.2365966,10.296868,1.8392448000000001,-1
564,565,1583935752314,1.8783,0.7662,2.1271,3.5687013,10.624634,1.6399993999999998,-1
565,566,1583935752324,2.1792998,1.2185999,2.1762,3.8791335,11.168089,1.7603607,-1
566,567,1583935752335,2.3950999,1.6808,2.553,4.122432,11.629059,2.2144067,-1
567,568,1583935752345,2.4972,2.0928,3.113,4.0491123,11.867780999999999,2.6387935000000002,-1
568,569,1583935752355,2.388,2.2672,3.5974,4.0430019999999995,11.903004,3.187985,-1
569,570,1583935752365,2.3795,2.2136,4.2802997000000005,3.9926953000000003,11.722031,3.9522428999999994,-1
570,571,1583935752375,2.2763999,1.9713999,5.0301,3.9559684,11.453268,4.6275224999999995,-1
571,572,1583935752386,2.2861,1.6783999,5.6418,3.8679,11.106788,5.054370400000001,-1
572,573,1583935752396,2.0089,1.3155,5.9395,3.202877,10.626694,5.2084517,-1
573,574,1583935752406,1.3873,0.9223,5.9902,2.6728866,10.398382000000002,5.090417400000001,-1
574,575,1583935752416,0.7909999999999999,0.7155,5.789,2.3495831000000003,10.425791,4.654194,-1
575,576,1583935752426,0.72459996,0.81369996,5.3826,2.4240046000000004,10.541928,4.0927057,-1
576,577,1583935752436,0.76409996,0.893,4.8525,2.3122911,10.489275,3.6438696000000004,-1
577,578,1583935752446,0.607,0.81509995,4.4449997,2.0910573,10.274526,3.3583467000000002,-1
578,579,1583935752457,0.4102,0.53069997,4.147,1.9632453999999997,9.961699000000001,2.9198246,-1
579,580,1583935752467,0.3195,0.27539998,3.7445998,1.8784716000000001,9.765049000000001,2.5023236,-1
580,581,1583935752477,0.2376,0.0982,3.3467,1.5806615,9.587322,2.1146164,-1
581,582,1583935752487,-0.1096,-0.0892,2.9721,1.2170014,9.462525999999999,2.038768,-1
582,583,1583935752497,-0.41869998,-0.2085,2.9728,1.0792391000000001,9.412574000000001,2.3519392000000003,-1
583,584,1583935752508,-0.5243,-0.23969999,3.2422,1.0137337,9.413312,2.5383327,-1
584,585,1583935752518,-0.6034,-0.21169999,3.4513998,1.0189723,9.495566,2.7470686,-1
585,586,1583935752528,-0.5384,-0.1437,3.6146998,1.2511045,9.488652,2.6678877,-1
586,587,1583935752538,-0.3184,-0.1627,3.4735,1.5588549999999999,9.46718,2.1157272000000003,-1
587,588,1583935752548,-0.059000000000000004,-0.1803,2.9759,1.9914107,9.4774,1.3428790000000002,-1
588,589,1583935752558,0.36859998,-0.16699999999999998,2.2419,2.3362813,9.536622,0.56877613,-1
589,590,1583935752568,0.7112,-0.1037,1.5117999,1.9233675,9.561551,0.04825753,-1
590,591,1583935752579,0.30519998,-0.0703,1.0416,1.4568622,9.528224,-0.5883128000000001,-1
591,592,1583935752589,-0.24329999,-0.1063,0.2839,1.0559579,9.52626,-1.5357367,-1
592,593,1583935752599,-0.6536,-0.1015,-1.0586,0.94133306,9.527687,-2.1750846,-1
593,594,1583935752609,-0.7256,-0.1498,-1.42,0.8780208,9.47264,-2.5415506000000003,-1
594,595,1583935752619,-0.84309995,-0.239,-1.2362,0.7635205,9.378807,-2.3336572999999996,-1
595,596,1583935752630,-0.84309995,-0.239,-1.2362,0.5904196999999999,9.354509,-1.8392256,-1
596,597,1583935752640,-1.1189,-0.332,-0.049599998,0.53095734,9.292605,-1.0359615,-1
597,598,1583935752650,-0.9741,-0.2942,0.3909,0.7037133000000001,9.333259,-0.52798855,-1
598,599,1583935752660,-0.6279,-0.2252,0.56909996,1.0866513999999998,9.399857,-0.28699774,-1
599,600,1583935752670,-0.2925,-0.1549,0.5692,1.5258726999999999,9.47828,-0.23892218,-1
600,601,1583935752681,-0.0523,-0.1328,0.4127,1.7931039,9.491545,-0.37250906,-1
601,602,1583935752691,0.2216,-0.1105,0.1876,2.1310022,9.527247000000001,-0.58245176,-1
602,603,1583935752701,0.5008,-0.1081,-0.0497,2.4013076,9.523512,-0.72562504,d
603,604,1583935752712,0.5811,-0.116299994,-0.0473,2.4108942000000004,9.502108,-0.6689590999999999,-1
604,605,1583935752722,0.2961,-0.1845,0.1643,2.0615802,9.436324,-0.3721547,-1
605,606,1583935752732,-0.051999997,-0.2435,0.42929998,1.6685671000000002,9.342396,-0.09378566599999999,-1
606,607,1583935752742,-0.4186,-0.2828,0.58309996,1.3872963,9.340738,-0.062699355,-1
607,608,1583935752752,-0.4745,-0.2426,0.4211,1.5056943999999999,9.428692999999999,-0.2677388,-1
608,609,1583935752762,-0.1042,-0.1028,0.0806,1.9084182,9.557558,-0.61541516,-1
609,610,1583935752773,0.4104,0.0968,-0.46879998,2.4445662,9.751391,-1.2895361,-1
610,611,1583935752783,0.6827,0.2078,-0.96709996,2.660073,9.856823,-1.7157136000000002,-1
611,612,1583935752793,0.6563,0.28800000000000003,-1.2448,2.4903242999999997,9.916113000000001,-1.9531994,-1
612,613,1583935752803,0.312,0.2882,-1.4319998999999999,2.0531523000000003,9.902035,-1.9963716,-1
613,614,1583935752813,-0.10759999599999999,0.29709998,-1.2642,1.7362558999999997,9.9351425,-1.7580527,-1
614,615,1583935752823,-0.2541,0.3646,-1.0049,1.6460423,10.013508999999999,-1.5082513000000002,-1
615,616,1583935752834,-0.2864,0.4522,-0.79069996,1.7015592000000002,10.125979,-1.1965933000000002,-1
616,617,1583935752844,-0.17559999,0.56,-0.5123,1.8144026999999998,10.220847000000001,-0.90009534,-1
617,618,1583935752854,-0.1454,0.63879997,-0.048899997,1.8195071,10.293257,-0.34764767,-1
618,619,1583935752864,-0.0279,0.7671,0.5154,2.0154965,10.443488,0.48405010000000004,-1
619,620,1583935752874,0.1197,0.95449996,1.1955,2.2610266,10.784529,0.9771023999999999,-1
620,621,1583935752884,0.3488,1.3087,1.4976,2.4167647,11.18095,0.9556696,-1
621,622,1583935752894,0.5141,1.8097999,1.2851,2.5547857000000005,11.672107,0.63470286,-1
622,623,1583935752904,0.5654,2.4771,0.9012,2.528047,12.395356,0.32761297,-1
623,624,1583935752914,0.50159997,3.2905,0.9404,2.6413121,13.431892000000001,0.9011488000000001,-1
624,625,1583935752924,0.899,4.1815,1.9322,3.0427432,14.264173999999999,2.533688,-1
625,626,1583935752934,1.1108,4.9828,3.823,3.1315584,15.099425,4.5345125,-1
626,627,1583935752944,1.3174,5.8219,5.6397,3.4398072,15.763395000000001,5.8211379999999995,-1
627,628,1583935752954,1.8137,6.5815997,6.8648,3.9284732000000004,16.472443,6.818159599999999,-1
628,629,1583935752964,2.1533,7.1731,7.3216,4.0848336000000005,17.079,6.8919015,-1
629,630,1583935752974,2.2435,7.6446996,7.0084,4.1023207,17.558348000000002,6.2801538,-1
630,631,1583935752985,2.3409,8.055099499999999,6.1082997,4.303721400000001,17.939080999999998,5.1069474,-1
631,632,1583935752995,2.6813,8.3751,4.9347997,4.5722547,18.161982000000002,4.0092343999999995,-1
632,633,1583935753006,3.0093,8.4971,3.9297,4.7980089999999995,18.11068,2.9568007,-1
633,634,1583935753016,3.3051998999999994,8.3919,3.1892998,4.772764700000001,17.823454,2.4080593999999995,-1
634,635,1583935753026,3.304,8.010799,2.6682,4.336837999999999,17.387028,1.8995978999999998,-1
635,636,1583935753036,2.7008,7.4034996,1.9042,3.164148,16.508194,0.46224374,-1
636,637,1583935753046,1.8735,6.62,0.5317,2.5280087000000004,15.794922,-0.92119306,-1
637,638,1583935753056,1.5375999,5.8873,-0.76089996,2.5791872000000002,15.114509,-1.7499987000000001,-1
638,639,1583935753066,1.7946999,5.186,-1.5005,2.6479392,14.371492000000002,-1.9714909999999999,-1
639,640,1583935753077,2.021,4.4082,-1.6762999,2.8260680000000002,13.518208999999999,-1.5257194,-1
640,641,1583935753087,2.3302999,3.5345,-1.2423999,2.7332015,12.528264,-1.1713775,-1
641,642,1583935753097,2.3372998,2.4771,-1.0682,2.1669536,11.3476925,-1.1738483999999998,-1
642,643,1583935753108,1.829,1.2858,-1.2405,1.1849575,10.019112,-1.6489537,-1
643,644,1583935753118,0.9978,-0.0486,-1.8039999,-0.108648874,8.603899,-2.2857156,-1
644,645,1583935753128,0.12709999,-1.2124,-2.4164999,-0.7721875,7.6046166,-2.5694861,-1
645,646,1583935753138,-0.3635,-2.1962,-2.7573,-1.010784,6.7950506,-2.5924702,-1
646,647,1583935753148,-0.4438,-3.0014,-2.8309999,-0.9454031999999999,6.1899690000000005,-2.5176659,-1
647,648,1583935753158,-0.2445,-3.5995998,-2.8051999,-0.3865774,5.833597,-2.3938951,-1
648,649,1583935753169,0.6857,-3.9917998,-2.7196999,1.3160352,5.7131305,-2.202474,-1
649,650,1583935753179,2.1859,-4.0509,-2.5939,1.4811872,5.379206,-1.9852720000000001,-1
650,651,1583935753189,2.1271,-4.6173,-1.9438,1.080417,5.133063,-1.4460977,-1
651,652,1583935753199,2.1271,-4.6173,-1.9438,0.5502736999999999,5.0250463,-0.8984673000000001,-1
652,653,1583935753209,1.7301999,-4.7075,-1.4289,0.22252668,4.883367,-0.32182857,-1
653,654,1583935753219,1.4650999,-4.8371,-0.86609995,-0.085013315,4.7964387,0.049588705999999996,-1
654,655,1583935753230,1.2794,-4.9132,-0.49499997,-0.28352135,4.673692,0.108715914,-1
655,656,1583935753240,1.4374,-4.8806,-0.81579995,-0.077754095,4.836431,-0.6075909,-1
656,657,1583935753250,1.4988999,-4.8582,-1.6804,-0.24996424,4.7970324,-1.607601,-1
657,658,1583935753260,1.0167999,-4.9110000000000005,-2.4524,-0.8919646999999999,4.728386,-2.4624843999999997,-1
658,659,1583935753270,1.0167999,-4.9110000000000005,-2.4524,-1.7891198,4.7337008,-2.9110525000000003,-1
659,660,1583935753280,0.271,-4.9116,-2.8237,-2.5732882000000004,4.7855300000000005,-3.3538742,-1
660,661,1583935753290,-0.5992,-4.8324,-3.2472,-3.2318849999999997,4.9373035000000005,-3.6964557,-1
661,662,1583935753300,-1.3972,-4.4167,-3.0841,-3.5143337,5.16504,-3.3442782999999996,-1
662,663,1583935753310,-1.4943999,-4.2033997,-2.3028998,-3.6325212,5.3774055999999995,-2.5919529999999997,-1
663,664,1583935753320,-1.4624,-4.1243,-1.4597,-3.5552747000000005,5.4769855000000005,-1.5615367,-1
664,665,1583935753330,-1.4624,-4.1243,-1.4597,-2.8072877,5.694848,-0.84955853,-1
665,666,1583935753341,-0.89879996,-3.9538,-0.69189996,-1.7032063000000002,6.068114,-0.5805173,-1
666,667,1583935753351,1.8508999,-2.967,-0.45499998,0.13578954,6.745663,-0.735901,-1
667,668,1583935753361,2.931,-2.5161998,-0.5543,1.0381929,7.137929,-0.6956591999999999,-1
668,669,1583935753371,2.496,-2.4426,0.1153,0.35404497,7.160617,0.08118259,-1
669,670,1583935753382,1.304,-2.5986,0.9482,-1.1391516000000002,6.980046000000001,1.0440155999999998,-1
670,671,1583935753392,0.15609999,-2.6239,1.4800999,-1.8178791,6.999688000000001,1.2827079,-1
671,672,1583935753402,-0.3437,-2.5307999,1.1965,-2.322433,7.110262,0.82532924,-1
672,673,1583935753413,-0.3825,-2.3116999,0.5369,-2.4380922000000003,7.416767599999999,-0.110075824,-1
673,674,1583935753423,-0.46159998,-2.0158,-0.32979998,-2.3150399,7.715248,-1.0073173,-1
674,675,1583935753433,-0.0231,-1.7024,-0.8937,-1.8434873999999999,8.052256,-1.4128472,-1
675,676,1583935753443,0.3074,-1.3618,-0.97639996,-1.5624273000000002,8.353102,-1.3854096000000002,-1
676,677,1583935753454,0.5841,-1.0912,-0.80539995,-1.1860492,8.628185,-1.1963059999999999,-1
677,678,1583935753464,0.8409,-0.9188,-0.5236,-1.1526452,8.736794999999999,-0.939887,-1
678,679,1583935753474,0.6821,-0.8627,-0.4385,-1.2568793,8.775295,-1.0381737,-1
679,680,1583935753484,0.48079997,-0.80509996,-0.63379997,-1.4729416000000002,8.832479,-1.3308026000000002,-1
680,681,1583935753494,0.1087,-0.76559997,-0.9522,-2.0423691,8.94469,-1.7503339,-1
681,682,1583935753504,-0.3188,-0.64669997,-1.2597,-2.284279,9.006651,-2.0419669999999996,-1
682,683,1583935753514,-0.51269996,-0.5676,-1.5218999,-2.3352562999999997,9.122589,-2.3417687000000003,-1
683,684,1583935753524,-0.4066,-0.4504,-1.7134,-2.149926,9.197594,-2.4535491,-1
684,685,1583935753534,-0.1962,-0.2954,-1.6607,-1.9419562,9.394484,-2.2092544999999997,-1
685,686,1583935753544,-0.14400000000000002,-0.1414,-1.2271999,-2.0710132,9.548957000000001,-1.6839857,-1
686,687,1583935753554,-0.4048,-0.0369,-0.81119996,-2.3658257000000003,9.658612,-1.2908003000000001,-1
687,688,1583935753565,-0.6552,0.0774,-0.4565,-2.4384273999999997,9.765949,-1.03328,-1
688,689,1583935753575,-0.6709,0.23099999,-0.2172,-2.2942197,9.954095,-0.89849603,-1
689,690,1583935753585,-0.41259998,0.3849,-0.24659999,-1.9187611,10.07391,-1.0694325,-1
690,691,1583935753595,-0.054899998,0.47100000000000003,-0.4261,-1.6878643,10.10288,-1.2315295,-1
691,692,1583935753605,0.0714,0.46989998,-0.5324,-1.6030521,10.128086,-1.1925902,-1
692,693,1583935753616,0.16219999,0.5087,-0.45119998,-1.4706431999999998,10.137558,-1.21658,-1
693,694,1583935753626,0.2251,0.49879998,-0.5079,-1.4875174999999998,10.139444000000001,-1.2609687,-1
694,695,1583935753636,0.2004,0.4691,-0.4903,-1.6068158000000001,10.08206,-1.1799966999999998,-1
695,696,1583935753646,0.0084,0.4191,-0.35200000000000004,-1.770493,10.054182,-0.92165273,d
696,697,1583935753656,-0.0382,0.4174,-0.083,-1.6296086,10.075471,-0.6782678000000001,-1
697,698,1583935753667,0.1669,0.4346,0.1143,-1.3246256,10.064075,-0.534788,-1
698,699,1583935753677,0.3811,0.41239998,0.2138,-1.215517,10.009085,-0.4185735,-1
699,700,1583935753687,0.4297,0.3513,0.32529998,-1.2399379,9.961536,-0.30001265,-1
700,701,1583935753697,0.4116,0.3105,0.4308,-1.1480389,9.958261,-0.34005326,-1
701,702,1583935753707,0.53209996,0.3193,0.3354,-1.0285969000000001,10.034807,-0.52195513,-1
702,703,1583935753718,0.60569996,0.3779,0.17600000000000002,-1.1254088,10.108636,-0.61385417,-1
703,704,1583935753728,0.4673,0.45679998,0.1256,-1.4076948,10.092308000000001,-0.47724104,-1
704,705,1583935753738,0.23449999,0.43809998,0.2695,-1.6897701,10.026027000000001,-0.21374474,-1
705,706,1583935753748,-0.1037,0.3706,0.6173,-1.8335179,9.998282000000001,0.13154702,-1
706,707,1583935753758,-0.1683,0.33249998,0.90779996,-1.6336691,10.018680999999999,0.13974477,-1
707,708,1583935753768,0.009000000000000001,0.373,0.8824,-1.2406178999999997,10.163732000000001,-0.32543907,-1
708,709,1583935753779,0.4087,0.5216,0.46559998,-0.7961965,10.351780999999999,-1.052539,-1
709,710,1583935753789,0.8369,0.7004,-0.2267,-0.6254611999999999,10.526482000000001,-1.6995863000000002,-1
710,711,1583935753799,1.0131,0.88989997,-0.83629996,-0.74259514,10.593643,-2.0596743,-1
711,712,1583935753809,0.90529996,0.9655,-1.1412,-0.87583727,10.6805525,-2.288196,-1
712,713,1583935753820,0.7848,1.0468998999999999,-1.3479999,-0.9194022,10.741825,-2.3564689999999997,-1
713,714,1583935753830,0.7475,1.1097,-1.4068999,-1.0217687,10.862282,-2.3012397,-1
714,715,1583935753840,0.6415,1.3929,-1.2573,-1.0196809,11.080385,-2.2586994,-1
715,716,1583935753850,0.8894,1.6417999,-1.4781,-0.7010893,11.323118,-2.6301455000000002,-1
716,717,1583935753860,1.3313,1.9006,-1.9691,-0.38910565,11.511494,-2.9940927000000004,-1
717,718,1583935753870,1.9122,2.0131,-2.721,0.20093098,11.621197,-3.7660122000000005,-1
718,719,1583935753880,2.6557,2.1366,-3.4420998,0.92514825,11.732536,-4.5106955,-1
719,720,1583935753891,3.0182998,2.056,-3.8727,1.2899863999999999,11.580007,-5.046698999999999,-1
720,721,1583935753901,3.1022,1.7522,-4.1229997,1.2823824,11.263302000000001,-5.2404475,-1
721,722,1583935753911,3.0147998,1.3528,-4.1245,1.082706,10.819867,-5.232499,-1
722,723,1583935753921,2.7437,0.80869997,-4.082,0.80255556,10.363264,-5.196912,-1
723,724,1583935753931,2.5988,0.247,-4.1695,0.536713,9.671722,-5.2998624,-1
724,725,1583935753942,2.4016,-0.3615,-4.2673,0.18403749,8.918478,-5.3636246,-1
725,726,1583935753951,2.2096,-0.90919995,-4.1393,-0.04964617,8.518981,-5.200091400000001,-1
726,727,1583935753961,1.9519,-1.1707,-4.0884,-0.43262267,8.25606,-5.2328343,-1
727,728,1583935753971,1.7637,-1.4502,-4.3975,-0.6416556,7.9986253,-5.517782700000001,-1
728,729,1583935753981,1.6062,-1.8165,-4.8043,-0.9472898999999999,7.501637,-5.9988737,-1
729,730,1583935753992,1.4814,-2.358,-5.0786,-1.1889413999999998,6.925899,-6.2568345,-1
730,731,1583935754002,1.3004999,-2.9772,-5.2360997000000005,-1.4451018999999998,6.2445283,-6.320692500000001,-1
731,732,1583935754012,1.1786,-3.7048997999999997,-4.91,-1.6571418999999998,5.487223,-5.838644,-1
732,733,1583935754022,1.2011,-4.4344,-3.9757998,-1.6822618000000003,4.5305767,-4.572983,-1
733,734,1583935754032,1.3957,-5.3322997,-2.7633997999999997,-1.5906118,3.5728192,-3.1254482000000006,-1
734,735,1583935754042,1.3802999,-6.2408,-1.2082,-1.8772168999999999,2.6634345,-1.4047931,-1
735,736,1583935754053,1.0375,-7.0903997,0.4043,-2.2719922,1.9932303,-0.15685852,-1
736,737,1583935754063,0.45299998,-7.891,1.3489,-3.1582491000000004,1.0478368,0.748801,-1
737,738,1583935754073,-0.3099,-8.438399,1.5153999,-3.9043684,0.67184174,0.8276947,-1
738,739,1583935754083,-0.7678,-8.569099000000001,1.5389999,-4.267799,0.56928366,0.8675821,-1
739,740,1583935754093,-0.885,-8.6875,1.3938999,-4.351299,0.42162849999999996,0.628861,-1
740,741,1583935754104,-0.87829995,-8.8338995,1.1911,-4.313509,0.28616455,0.7054467,-1
741,742,1583935754114,-0.9034,-9.0282,1.685,-4.3325663,0.1563701,1.4640064,-1
742,743,1583935754124,-1.087,-8.8684,2.7307,-4.581353,0.48694232,2.768559,-1
743,744,1583935754134,-1.3701999,-8.4421,4.0826,-4.8569636,1.2428013999999998,4.454345,-1
744,745,1583935754144,-1.7050999,-7.6896996,5.3817997,-5.1413660000000005,2.0736756,5.916925,-1
745,746,1583935754154,-2.1203,-6.8258,6.8568997000000005,-5.3123507000000005,3.1161397,7.6910663,-1
746,747,1583935754165,-2.2607,-5.7797,8.7639,-5.254640599999999,4.197131,10.149422999999999,-1
747,748,1583935754175,-2.2505999,-4.7457,11.322000000000001,-4.8647017,5.202562,12.956969,-1
748,749,1583935754185,-1.8438,-3.8597,14.0138,-4.255186,5.996958,14.997777,-1
749,750,1583935754195,-1.1204,-2.7786,15.828798999999998,-2.903324,7.393208500000001,16.163094,-1
750,751,1583935754206,0.12619999,-1.6587,15.7436,-0.883652,8.834557,15.209482000000001,-1
751,752,1583935754216,2.1887999,0.0184,14.448898999999999,1.1695292,10.521118,13.7667265,-1
752,753,1583935754226,3.9431,1.5991,12.9914,2.9577869999999997,12.201417,12.202355,-1
753,754,1583935754236,5.0453997,3.1369,11.7184,3.5658379,13.865731,11.181755,-1
754,755,1583935754246,5.0568,4.4277997000000004,11.152699,2.9137435000000003,14.961826,10.849555,-1
755,756,1583935754256,4.0877,5.3926,10.8172,2.2346137,15.658366000000001,9.923861,-1
756,757,1583935754266,3.3862,6.0585,9.8708,2.2588142999999996,16.457914000000002,8.689516000000001,-1
757,758,1583935754276,3.3344998,6.8847,8.6567,2.4464240000000004,17.365833,7.345707400000001,-1
758,759,1583935754286,3.3746,7.7534,7.3422,2.6804044,18.103642,5.8067720000000005,-1
759,760,1583935754296,3.4548,8.4688,5.8301997000000005,2.8502781,18.682291,4.365099,-1
760,761,1583935754306,3.4851,8.972099,4.5229,2.8370237,18.950567000000003,3.1085355,-1
761,762,1583935754317,3.3037998999999996,9.1647,3.3028,2.5974407000000004,18.8084,1.7073435000000001,-1
762,763,1583935754327,2.9603,8.9282,1.9351,2.2168105,18.345016,0.22331198,-1
763,764,1583935754337,2.4987,8.4383,0.5456,1.8407102,17.784073,-1.0555843,-1
764,765,1583935754347,2.0877,7.8705997000000005,-0.6534,1.5188625,17.100729,-2.1556053,-1
765,766,1583935754358,1.7317,7.1562996,-1.6661999,1.4871632,16.365345,-3.0827452999999996,-1
766,767,1583935754368,1.7619999999999998,6.460099700000001,-2.5269999999999997,1.9756665,15.821287,-3.7536771,-1
767,768,1583935754378,2.3084,5.93,-3.1787999,2.9539087000000004,15.326578,-4.389941,-1
768,769,1583935754388,3.3044,5.4388,-3.7972998999999996,3.9105644,14.627309,-4.8205624,-1
769,770,1583935754398,3.9968,4.8399997,-4.1221,3.9635625,13.889942000000001,-4.9953199999999995,-1
770,771,1583935754409,3.6808,3.185,-4.7928,3.6107150000000003,12.969342999999999,-5.528997,-1
771,772,1583935754419,3.3976,2.3165998,-5.5825996,3.3222517999999996,12.101311,-6.3715262,-1
772,773,1583935754429,3.0029,1.5194,-6.3184,2.8901174,11.295853999999999,-7.185918300000001,-1
773,774,1583935754439,2.6097999,0.8623,-7.2511997,2.432509,10.637064,-8.223872,-1
774,775,1583935754450,2.6097999,0.8623,-7.2511997,2.249362,10.016564,-9.466931,-1
775,776,1583935754460,2.2933,-0.2774,-9.254399000000001,2.0054505000000002,9.463417,-10.441047,-1
776,777,1583935754470,2.082,-0.72279996,-10.12,1.740077,9.0082035,-11.411685,-1
777,778,1583935754480,1.7314999,-1.14,-10.769,1.3305154,8.568694,-12.145679,-1
778,779,1583935754490,1.7282,-1.3742,-10.8972,1.3224421999999998,8.306884,-12.351236,-1
779,780,1583935754500,1.7282,-1.3742,-10.8972,1.4423916,8.274533,-12.265342,-1
780,781,1583935754511,2.2080998,-1.4728,-10.267799,1.6752898999999997,8.207257,-11.585925,-1
781,782,1583935754521,2.2289999,-1.5217999,-9.528999,1.6385534,8.165655000000001,-10.978181,-1
782,783,1583935754531,2.1659,-1.6502999,-8.9861,1.4996608,8.012235,-10.312994999999999,-1
783,784,1583935754541,1.9735999,-1.8369,-8.4838,1.217193,7.8206406,-9.771791,-1
784,785,1583935754551,1.6537,-2.0121999,-7.8907,0.80820584,7.619901,-9.141705,-1
785,786,1583935754561,1.2166,-2.3228,-7.3515,0.19710983,7.245822,-8.542119,-1
786,787,1583935754572,0.88449997,-2.6021,-6.9259,-0.1284154,7.0226912,-8.19609,-1
787,788,1583935754582,0.5852,-2.8997998,-6.615999700000001,-0.47274947,6.720878599999999,-7.8947270000000005,-1
788,789,1583935754592,0.5891,-3.1086,-6.3943996,-0.49372268,6.498553,-7.583452,-1
789,790,1583935754602,0.687,-3.2293,-6.127000000000001,-0.43380064,6.375242,-7.322551,-1
790,791,1583935754613,0.9661,-3.3409998,-5.8271,-0.10485646,6.3029947,-6.8947644,-1
791,792,1583935754623,1.5243,-3.3755998999999997,-5.2613997,0.45557827,6.2659707000000004,-6.1764946,-1
792,793,1583935754633,2.0212998,-3.4599,-4.4887,0.7046231,6.165405000000001,-5.5097475,-1
793,794,1583935754643,2.1266,-3.5937,-3.5971,0.6448639,5.978503,-4.346367,-1
794,795,1583935754654,1.9767,-3.8256997999999998,-2.6936,0.115659095,5.5975766,-3.4169949999999996,-1
795,796,1583935754664,1.3629999,-4.2345,-2.198,-0.5376994,5.2041807,-3.0342197,-1
796,797,1583935754674,0.7405,-4.7033,-1.7465998999999999,-0.8565591999999999,4.7006702,-2.2568033,-1
797,798,1583935754684,0.95549995,-5.0271,-1.0433,-0.37882975,4.466948,-1.4646864,-1
798,799,1583935754694,1.5856999,-5.2453,-0.3884,0.1891994,4.2131243,-0.86165404,-1
799,800,1583935754705,2.0214999,-5.554199700000001,0.12629999,0.44271663,3.9194136,-0.17136739,-1
800,801,1583935754715,2.141,-5.7918997,0.8153,0.44844353,3.7238553,0.64707613,-1
801,802,1583935754725,2.2566,-6.0214996,1.6628,0.74722075,3.551099,1.7158957,-1
802,803,1583935754735,2.3875,-6.1432,2.7145,0.32698092,3.3032993999999998,3.0625672,-1
803,804,1583935754746,1.8519999999999999,-6.4405,3.846,-0.20613119,2.9716353,4.1467195,-1
804,805,1583935754756,1.2666998999999999,-6.835099700000001,5.2173,-0.8399530000000001,2.57822,5.742051999999999,-1
805,806,1583935754766,0.7219,-7.1418,6.4796,-1.1249684,2.4344148999999997,6.7573276,-1
806,807,1583935754776,0.55149996,-7.225,7.4287996,-0.5991155,2.5466740000000003,7.252985000000001,-1
807,808,1583935754786,1.1565,-7.0664997000000005,7.8943,0.30763578,3.117078,7.8125196,-1
808,809,1583935754797,1.9261999,-6.3823,8.6118,1.1007198,3.9839995000000004,8.862875,-1
809,810,1583935754807,2.57,-5.5539,9.6514,1.6034256000000002,4.912968599999999,9.307181,-1
810,811,1583935754817,2.8444998,-4.5901,10.0498,1.8594137,6.077758,9.733789999999999,-1
811,812,1583935754827,2.9264997999999998,-3.3918998,10.5671,2.4737754,7.4425482999999995,10.504272,-1
812,813,1583935754837,3.5391,-2.0274,11.3539,3.9400227,8.856947,11.257699,-1
813,814,1583935754848,4.8269,-0.6717,12.1326,5.437251,10.250869999999999,12.147634,-1
814,815,1583935754858,5.7591,0.46199998,12.8371,5.9136205,11.207919,12.550203999999999,-1
815,816,1583935754868,5.9754996,1.4156,13.2116995,6.387193700000001,12.147902,12.273913,-1
816,817,1583935754879,6.1808996,2.3574,12.9078,6.852233999999999,12.891445,10.874914,-1
817,818,1583935754889,6.6556997,3.7447,9.9127,7.380682000000001,13.519635999999998,9.27031,-1
818,819,1583935754899,5.9515,4.0301,8.1847,6.9061804,13.778094,7.537895,-1
819,820,1583935754909,4.7472,3.9060998,6.7244,5.942658,13.630813,6.1138525,-1
820,821,1583935754919,3.7784998,3.6178,6.8985,5.2035103,13.320974,6.394194000000001,-1
821,822,1583935754930,3.7784998,3.6178,6.8985,4.578719,13.048762,7.664156,-1
822,823,1583935754940,2.5965,3.3434,9.1553,4.495736,12.976372,9.037192,-1
823,824,1583935754950,2.8395,3.8830998,9.396,4.98876,13.460652,9.49346,-1
824,825,1583935754960,3.6111998999999995,4.7152,8.3941,6.2118907,14.420402,8.4211645,-1
825,826,1583935754970,4.4223,5.657099700000001,6.7843,7.1454277,15.266952999999999,6.872757400000001,-1
826,827,1583935754980,4.6766,6.3093996,4.7478,7.4364095,15.79747,4.761435,-1
827,828,1583935754990,4.6766,6.3093996,4.7478,6.977489500000001,16.023224,2.5799055,-1
828,829,1583935755000,4.3006997,6.5986,2.6259,6.155933,16.06154,1.0274572,-1
829,830,1583935755010,1.4833,6.4811997,-2.1935,4.5682325,15.790345,-1.7011281000000003,-1
830,831,1583935755020,0.4263,6.1633,-4.3184,3.5854607000000005,15.444066000000001,-3.825628,-1
831,832,1583935755030,-0.196,5.870899700000001,-5.4112,3.035101,15.073376999999999,-4.908104,-1
832,833,1583935755040,0.1003,5.7942,-5.1443996,3.625396,15.003859,-4.2975154,-1
833,834,1583935755051,1.2106,6.0032997,-4.1617,4.991823999999999,15.222985000000001,-3.11749,-1
834,835,1583935755061,2.883,6.4254,-3.2521,6.4270043,15.520039,-2.2482033,-1
835,836,1583935755071,4.3209,6.5504,-2.8381998999999998,8.119264999999999,15.56276,-1.574111,-1
836,837,1583935755081,4.6447,6.2195,-2.8158,8.254997,15.085884,-1.4815128,-1
837,838,1583935755091,3.7784998,5.3381,-3.1302,7.201385,14.128471,-1.7517896000000002,-1
838,839,1583935755101,2.4111,4.2913,-3.6536998999999994,5.8346696,13.055342999999999,-2.267625,-1
839,840,1583935755112,1.3902,3.2835998999999996,-4.1974998,4.8867383,12.103188000000001,-2.7321098,-1
840,841,1583935755121,0.7144,2.5182998,-4.2585,4.329741,11.519635000000001,-2.716107,-1
841,842,1583935755131,0.3779,1.9904,-3.7917,3.9659472,10.993763000000001,-2.2386265,-1
842,843,1583935755141,0.2034,1.4656,-3.4789,3.7996172999999995,10.370571,-1.8673816000000003,-1
843,844,1583935755151,0.40579998,0.9923,-3.3820998999999996,4.0052313999999996,9.929578,-1.7745535,-1
844,845,1583935755161,0.7125,0.60649997,-3.4991999,4.349067,9.559711,-1.9571258999999999,-1
845,846,1583935755172,1.2247,0.3649,-3.8823,4.89575,9.242883,-2.486503,-1
846,847,1583935755182,1.6035,0.089499995,-4.2795,5.169828400000001,9.105226,-2.7196597999999996,-1
847,848,1583935755192,1.5781,-0.042799998,-4.0808,4.996622599999999,8.946078,-2.3839831,-1
848,849,1583935755202,1.5781,-0.042799998,-4.0808,4.480078,8.883780999999999,-1.8100835,-1
849,850,1583935755212,0.8357,-0.1513,-2.8772,4.18381,8.944747,-1.2753912,-1
850,851,1583935755223,0.4398,-0.1317,-2.3673,3.6499605,8.944317,-0.93626696,-1
851,852,1583935755233,0.1462,-0.2031,-2.3369,3.462935,8.8976,-1.0156395,-1
852,853,1583935755243,0.0953,-0.30339998,-2.5558,3.3825858,8.818237,-1.4398153999999999,-1
853,854,1583935755253,0.1099,-0.41259998,-2.9459,3.4087877,8.732861,-1.8076415000000001,-1
854,855,1583935755263,0.1215,-0.50049996,-3.1497998,3.2892883,8.623493,-1.9945998,-1
855,856,1583935755274,-0.0349,-0.63549995,-3.1455998,3.0550206,8.526365,-1.9531515,-1
856,857,1583935755284,-0.2803,-0.7389,-2.9383,2.801666,8.46152,-1.7461296000000002,-1
857,858,1583935755294,-0.489,-0.7909,-2.6527,2.5775878,8.429879,-1.507284,d
858,859,1583935755304,-0.67249995,-0.7913,-2.5026,2.4655297000000003,8.476346000000001,-1.3454647,-1
859,860,1583935755314,-0.5670000000000001,-0.7395,-2.3355,2.6504676,8.588422999999999,-1.2336938,-1
860,861,1583935755324,-0.3116,-0.60539997,-2.2396,3.0227084,8.719539,-1.007729,-1
861,862,1583935755334,0.054899998,-0.4777,-1.8898,3.3069862999999997,8.863967,-0.6171677,-1
862,863,1583935755345,0.2708,-0.3575,-1.5489998999999999,3.3681532999999995,8.892677,-0.31539297,-1
863,864,1583935755355,0.2601,-0.354,-1.1733,3.3535583,8.919319999999999,0.2873521,-1
864,865,1583935755365,0.22,-0.3312,-0.6285,3.2606822999999996,8.882095,0.7399137,-1
865,866,1583935755375,0.0435,-0.39799999999999996,-0.2511,2.9952228,8.817289,1.0903673,-1
866,867,1583935755385,-0.1409,-0.447,-0.0401,2.9723246,8.742102000000001,1.1689546,-1
867,868,1583935755396,-0.1393,-0.5166,0.0219,2.9538414,8.703239,1.1622891000000002,-1
868,869,1583935755406,-0.1381,-0.5474,-0.0297,3.0665605,8.715449000000001,1.1405785,-1
869,870,1583935755416,0.028299998,-0.5089,0.0067999995999999995,3.3006464999999996,8.866121000000001,1.2613325,-1
870,871,1583935755426,0.2216,-0.36159998,0.1495,3.3547363,8.890486,1.3487688,-1
871,872,1583935755437,0.2658,-0.2428,0.4678,3.3535774,9.101902,1.8648244999999999,-1
872,873,1583935755447,0.24949999,-0.1139,0.7877,3.5127919999999997,9.326353999999998,2.1290869999999997,-1
873,874,1583935755457,0.43719998,0.1424,1.0447999,3.6844754,9.591066,2.2703352000000003,-1
874,875,1583935755467,0.5955,0.4077,1.1722,3.9144335,9.960023,2.251871,-1
875,876,1583935755477,0.8052,0.79859996,1.1428,3.9177375,10.337675,1.9923589,-1
876,877,1583935755487,0.75479996,1.1669999,0.9094,3.6666239999999997,10.697179,1.7286136000000003,-1
877,878,1583935755498,0.4461,1.5228,0.69409996,3.0686579,11.253007,1.3643216,-1
878,879,1583935755508,-0.053099997,1.994,0.43609998,2.760543,11.72295,1.1292396999999998,-1
879,880,1583935755518,-0.4035,2.5825,0.2004,2.7456992000000002,12.800417,0.8896565999999999,-1
880,881,1583935755528,-0.3538,3.5154998,0.069,3.0361927000000004,13.881266,0.6366182,-1
881,882,1583935755538,-0.0515,4.5973,-0.1286,3.5551214,15.0514555,0.41284657,-1
882,883,1583935755548,0.4772,5.7581,-0.31329998,4.032056,16.293098,0.124555945,-1
883,884,1583935755559,0.97249997,6.995899700000001,-0.56119996,4.194967,17.201841,-0.044580035,-1
884,885,1583935755569,1.1213,9.0376,-0.7492,4.1274986,18.359945,-0.14851712,-1
885,886,1583935755579,1.2406,9.7618,-0.7683,4.1800556,19.114952,-0.19828779,-1
886,887,1583935755589,1.2879,10.2855,-0.9343,4.1485769999999995,19.666824,-0.38819587,-1
887,888,1583935755600,1.744,10.6578,-1.0881,4.5180305999999995,20.064042999999998,-0.57825714,-1
888,889,1583935755610,1.744,10.6578,-1.0881,4.971426,20.258978,-0.77192897,-1
889,890,1583935755620,2.9331,10.5784,-1.2735,5.542251599999999,19.96656,-0.7947313,-1
890,891,1583935755630,3.4545,10.0487995,-0.9982,5.836767,19.560253,-0.56750244,-1
891,892,1583935755640,3.8499,9.2522,-0.5329,6.0374007,18.645525,-0.020159177,-1
892,893,1583935755651,3.748,8.2778,-0.0014,5.6729845999999995,17.67663,0.5581649999999999,-1
893,894,1583935755660,3.4408998,7.1368,0.6089,5.142362,16.546368,1.0742687,-1
894,895,1583935755670,3.0997,5.8903,0.7926,4.559633,15.324529,1.2086697,-1
895,896,1583935755680,2.6985,4.6183,0.9054,3.8773425,14.080214000000002,1.2525889,-1
896,897,1583935755690,2.1919,3.2340999,0.6642,3.2970169,12.98526,1.0025002,-1
897,898,1583935755700,1.5329,1.8168999,0.2031,2.1973886,11.273367,0.40349959999999996,-1
898,899,1583935755710,0.73469996,0.24939999,-0.2289,1.2290683,9.757569,-0.046054862,-1
899,900,1583935755720,0.4658,-1.0861,-0.6987,0.91585875,8.724364999999999,-0.49048576,-1
900,901,1583935755730,0.4658,-1.0861,-0.6987,2.2861464,7.826291,-1.2929742,-1
901,902,1583935755740,2.0138,-1.9850999,-1.4893,3.7683394,7.1816664,-2.0265481,-1
902,903,1583935755750,4.4329,-3.34,-2.1717,4.523442,6.3156457,-1.723988,-1
903,904,1583935755760,4.624399700000001,-4.0116,-1.5725,4.2951117,5.535777599999999,-0.88213885,-1
904,905,1583935755771,4.2355,-4.8252997,-0.51159996,3.8905108,4.9725842,-0.025378538,-1
905,906,1583935755781,3.4699,-5.6629,0.7222,2.7110982000000003,3.9359527,1.6168236,-1
906,907,1583935755791,2.3532,-6.4863,1.7458999,1.6766881999999999,3.2770972,2.5362737,-1
907,908,1583935755801,1.2121998999999999,-7.2089996,2.4956,0.11321701,2.4350563999999997,3.5038855000000004,-1
908,909,1583935755811,1.0397,-7.4319,2.6976,0.31808406,2.295599,3.5646023999999996,-1
909,910,1583935755822,2.6353,-7.167000000000001,1.5414,1.7375009,2.5821369,2.252714,-1
910,911,1583935755832,3.2103999,-7.1282997,-0.0415,1.6547956000000001,2.5345880000000003,0.56303,-1
911,912,1583935755842,2.2661998,-7.1948,-0.8029999999999999,0.87126917,2.4651084,0.26771006,-1
912,913,1583935755852,1.0141,-7.16,-0.39679998,-1.033213,2.4933026000000003,0.95084286,-1
913,914,1583935755862,0.0919,-7.0650997,0.35700000000000004,-1.7826651000000002,2.5702426,1.6351057,-1
914,915,1583935755873,-0.3992,-6.7651,1.2186999,-2.4239569,2.893249,2.5709321,-1
915,916,1583935755883,-0.6968,-6.5165,1.7830000000000001,-2.87173,3.1827657000000005,2.9400895,-1
916,917,1583935755893,-0.96809995,-6.1735,1.7428,-3.0782824,3.4318583,2.628144,-1
917,918,1583935755903,-0.6756,-5.8057,0.69949996,-2.6231735,3.8667986000000005,1.1018404,-1
918,919,1583935755913,0.075399995,-5.3626,-0.70809996,-2.0082755,4.3346160000000005,-0.37212598,-1
919,920,1583935755924,0.3513,-4.928999999999999,-1.7322999,-2.1982124,4.6811620000000005,-1.075734,-1
920,921,1583935755934,-0.1853,-4.6885,-1.6058999,-3.0965168,4.923417,-0.35848862,-1
921,922,1583935755944,-0.8724,-4.455899700000001,-0.6192,-3.7269964,5.1953697,0.68372655,-1
922,923,1583935755954,-1.2876999,-4.1071,0.3322,-3.8785877,5.5851073,1.3885412,-1
923,924,1583935755964,-1.2111,-3.7134,0.90629995,-3.8109273999999997,5.9018125999999995,1.6297905000000001,-1
924,925,1583935755975,-1.0452,-3.2856,1.0218999,-3.4428427000000004,6.382386,1.5986947,-1
925,926,1583935755985,-0.5516,-2.9013999,0.9359999999999999,-2.7443106,6.8160815,1.3269528,-1
926,927,1583935755995,0.24399999,-2.4521,0.62909997,-2.1544939999999997,7.171533999999999,0.9569528,-1
927,928,1583935756005,0.5857,-2.1505,0.31329998,-1.9941689999999999,7.3987727,0.6679918,-1
928,929,1583935756015,0.72459996,-1.9459,0.1021,-1.8992723000000002,7.7066,0.56412184,-1
929,930,1583935756026,0.7495,-1.5731,0.2095,-2.0644436,8.020317,0.8247546,-1
930,931,1583935756035,0.43699998,-1.3651999,0.4797,-2.5314755,8.15512,1.0278978,-1
931,932,1583935756045,-0.0072,-1.2536,0.66069996,-3.0613987000000003,8.168814999999999,0.9798893,-1
932,933,1583935756056,-0.60719997,-1.2594,0.5101,-3.669411,8.179167999999999,0.77238864,-1
933,934,1583935756067,-0.97569996,-1.2366999,0.40969998,-3.6913705,8.314468,0.6460226,-1
934,935,1583935756077,-0.9411,-1.0694,0.299,-3.5745622999999997,8.480636,0.4656339,-1
935,936,1583935756087,-0.80759996,-0.89479995,0.1285,-3.2856302000000004,8.717202,0.32739273,-1
936,937,1583935756097,-0.48529997,-0.6928,0.054399997,-3.0913167,8.843693,0.35493562,-1
937,938,1583935756107,-0.38279998,-0.5506,0.124299996,-3.0392954,8.977594999999999,0.3552708,-1
938,939,1583935756117,-0.2324,-0.389,0.1228,-2.7093363,9.220434,0.34683365,-1
939,940,1583935756127,0.0154,-0.1686,0.1489,-2.5237757999999997,9.41991,0.3682474,-1
940,941,1583935756138,0.1768,0.0033,0.14559999,-2.4087104999999998,9.61115,0.097635545,-1
941,942,1583935756148,0.254,0.1665,-0.1485,-2.3111994,9.637782000000001,-0.27543855,-1
942,943,1583935756158,0.3558,0.1743,-0.509,-2.3578193,9.620783,-0.7257017,-1
943,944,1583935756168,0.2764,0.1639,-0.84129995,-2.6489735,9.488021,-0.7193523000000001,-1
944,945,1583935756178,-0.0034999999,0.0277,-0.82659996,-2.9661381,9.318827,-0.36821866,-1
945,946,1583935756188,-0.3105,-0.1273,-0.4673,-3.2939809999999996,9.173288000000001,0.11359051,-1
946,947,1583935756199,-0.6285,-0.2826,-0.0075,-3.4952184999999996,9.098033000000001,0.27991092,-1
947,948,1583935756209,-0.83309996,-0.35079998,0.16239999,-3.3430047,9.134167,0.27606103,-1
948,949,1583935756219,-0.69009995,-0.3225,0.1486,-3.0576828,9.246369,0.10157161,d
949,950,1583935756229,-0.42049998,-0.20889999,-0.035499997,-2.7893026,9.331650999999999,0.021337125,-1
950,951,1583935756239,0.0714,-0.052199997000000005,-0.0645,-2.5325767999999997,9.416845,0.09167877,-1
951,952,1583935756250,0.0714,-0.052199997000000005,-0.0645,-2.4334283,9.505,0.36298972,-1
952,953,1583935756260,0.0734,0.11699999999999999,0.51559997,-2.5050917,9.599102,0.72369057,-1
953,954,1583935756270,0.0734,0.11699999999999999,0.51559997,-2.4340892000000003,9.649619,0.7481593000000001,-1
954,955,1583935756280,0.268,0.2314,0.2216,-2.271245,9.714991,0.27597484,-1
955,956,1583935756290,0.3945,0.2897,-0.23189999,-2.1445727000000003,9.777786,-0.1913446,-1
956,957,1583935756301,0.4648,0.3292,-0.43879998,-2.1159953999999996,9.8161125,-0.3558071,-1
957,958,1583935756311,0.3321,0.3302,-0.51089996,-2.2869031000000004,9.793146,-0.4164187,-1
958,959,1583935756321,0.0256,0.2438,-0.45949998,-2.5530617,9.712759,-0.38077384,-1
959,960,1583935756331,-0.2805,0.1478,-0.4326,-2.9214146,9.598546,-0.38316804,-1
960,961,1583935756341,-0.5311,0.0607,-0.4886,-3.1579807,9.520064,-0.40207267,-1
961,962,1583935756351,-0.46289998,0.0802,-0.4315,-2.9644048,9.561580000000001,-0.36975095,-1
962,963,1583935756361,0.0109,0.1078,-0.50549996,-2.4738615000000004,9.587332,-0.44622174,-1
963,964,1583935756372,0.4527,0.066199996,-0.5632,-2.1253328,9.541488000000001,-0.482288,-1
964,965,1583935756382,0.6016,-0.0731,-0.5757,-1.9611098000000002,9.333834,-0.46929225,-1
965,966,1583935756392,0.5485,-0.24069999,-0.5241,-2.0754281999999997,9.148292999999999,-0.3536236,-1
966,967,1583935756402,0.3621,-0.4561,-0.32,-2.2413654,8.981503,-0.10990343,-1
967,968,1583935756412,0.1007,-0.7098,0.0469,-2.6162688999999997,8.655499,0.42588058,-1
968,969,1583935756422,-0.23629999,-0.98219997,0.5008,-2.8655338,8.435616,0.7929022,-1
969,970,1583935756433,-0.4154,-1.2444998999999999,0.8287,-2.9971,8.122617,1.1390557,-1
970,971,1583935756443,-0.3394,-1.4772999,1.0231,-2.8538213,7.909561599999999,1.3459723,-1
971,972,1583935756453,-0.14479999,-1.7294999,1.1122,-2.6813908,7.655987,1.4109413999999998,-1
972,973,1583935756463,0.18069999,-2.1671,1.3586999,-2.311573,7.0843663,1.9129288,-1
973,974,1583935756473,0.38459998,-2.7696,2.0723,-2.2313864,6.407774400000001,2.6837947,-1
974,975,1583935756483,0.38819999,-3.4682998999999994,2.7914,-2.4250197,5.5179644,3.5894922999999994,-1
975,976,1583935756494,0.1077,-4.2647,3.5834,-2.7482944,4.6392636,4.5938983,-1
976,977,1583935756504,-0.1213,-5.1314,4.6716,-2.808935,3.9242690000000002,5.9608245,-1
977,978,1583935756514,-0.053,-5.659,5.9497,-2.4587397999999996,3.569774,7.212705000000001,-1
978,979,1583935756524,0.45499998,-5.9179,7.2002997,-1.7402111,3.5288617999999996,8.320109,-1
979,980,1583935756535,1.247,-5.8788,8.1114,-0.91734314,3.616346,8.930678,-1
980,981,1583935756545,1.8589,-5.8346,8.4674,-0.54424995,3.6254535000000003,8.899315,-1
981,982,1583935756556,1.9941,-5.8424,8.1675,-0.61460114,3.5947597,8.208147,-1
982,983,1583935756566,1.7825999,-5.8912997,7.2819996,-0.6703477,3.8457966,6.850749499999999,-1
983,984,1583935756576,1.7018,-5.3634996,5.9526,-0.63043165,4.8507576,5.390727,-1
984,985,1583935756586,1.6510999,-4.5232997,4.9125,-0.71966827,5.5259995,4.5859118,-1
985,986,1583935756596,1.4549999,-3.6734,4.0045,-0.7110109,6.4996160000000005,3.6006494,-1
986,987,1583935756607,1.4067999,-2.6863,3.175,-0.70280355,7.616836999999999,2.3661225,-1
987,988,1583935756617,1.2926999,-1.8456,2.1483998,-0.6607326,8.415571,1.1434516000000001,-1
988,989,1583935756627,1.2422999,-1.0429,1.0248,-0.58907896,9.188458,0.22583069,-1
989,990,1583935756637,1.287,-0.0519,0.059699997000000005,-0.34562695,10.195124,-0.89700204,-1
990,991,1583935756647,1.4096999,0.93149996,-1.0509,-0.2407322,11.4679,-2.1869693,-1
991,992,1583935756657,1.2703999,1.9964,-1.8499,-0.5790233,12.305344999999999,-2.7008509999999997,-1
992,993,1583935756668,0.7547,2.7405999,-2.2226999,-1.0644238000000001,12.905033999999999,-3.1299589,-1
993,994,1583935756678,0.2338,3.3109,-2.6069,-1.1171632,13.462022,-4.0845275,-1
994,995,1583935756688,0.1723,3.8539999,-3.603,-0.57309526,13.957354,-6.16573,-1
995,996,1583935756698,0.5765,4.2425,-5.2872996,0.07493851,14.112239,-7.759894999999999,-1
996,997,1583935756708,1.2804999,4.4073,-7.1389,1.0426652,14.158532999999998,-9.309786,-1
997,998,1583935756718,2.1032,4.416,-8.4772,1.5803455,14.096734,-10.124553,-1
998,999,1583935756729,2.3933,4.3745,-8.9951,1.5728948,13.960322,-9.832642,-1
999,1000,1583935756739,2.2911,4.2321,-8.6726,1.417693,13.766210000000001,-8.852331,-1
1000,1001,1583935756749,2.0514997999999998,4.038,-7.7184,1.5149168,13.440397,-7.7532296,-1
1001,1002,1583935756759,2.0767999,3.7054,-6.6594996,1.5903724,12.963405999999999,-7.133457000000001,-1
1002,1003,1583935756769,2.2092,2.7591999,-5.8381996,1.7658483,12.513295,-6.8565145,-1
1003,1004,1583935756780,2.2970998,2.3332999,-5.8321,1.9252924999999999,12.023394,-6.810192,-1
1004,1005,1583935756790,2.4150999,2.0173,-5.8715,2.0943997,11.717645,-6.924127,-1
1005,1006,1583935756800,2.6999,1.7423999,-6.2890997,2.3422763,11.503172,-7.272474000000001,-1
1006,1007,1583935756810,2.9180999,1.4204,-6.632999999999999,2.5662583999999997,11.119813,-7.7026353,-1
1007,1008,1583935756820,2.9180999,1.4204,-6.632999999999999,2.120937,10.835755,-7.9795869999999995,-1
1008,1009,1583935756830,1.7866,0.8009,-7.3205,1.1916133,10.455622,-8.537321,-1
1009,1010,1583935756841,0.8056,0.43359998,-7.9107,0.25408226,10.13228,-9.127252,-1
1010,1011,1583935756851,0.4389,0.17279999,-8.267999999999999,0.012919112,9.918383,-9.402163999999999,-1
1011,1012,1583935756861,0.74729997,0.0464,-8.2256,0.39407602,9.766810000000001,-9.3233185,-1
1012,1013,1583935756871,1.2681999,-0.0641,-7.8863997,0.9006125,9.648988000000001,-8.875055999999999,-1
1013,1014,1583935756881,1.76,-0.1582,-7.2204,1.4322594,9.59121,-8.124875999999999,-1
1014,1015,1583935756891,2.1281,-0.17600000000000002,-6.3879,1.7501997,9.582859,-7.168891,-1
1015,1016,1583935756902,2.3488,-0.2039,-5.3294,2.0290763,9.5518875,-5.8889318,-1
1016,1017,1583935756912,2.562,-0.1427,-4.2306,2.2061517000000004,9.770584,-4.652202,-1
1017,1018,1583935756922,2.5746999,0.175,-3.3467,2.105346,10.013365,-3.8423777,-1
1018,1019,1583935756932,2.2721,0.33799999999999997,-2.8669999,1.7987349999999998,10.164746000000001,-3.5435524,-1
1019,1020,1583935756942,1.9778999,0.5424,-2.8939,1.5051868,10.406694,-3.6921367999999997,-1
1020,1021,1583935756953,1.8456999,0.7486,-3.2721,1.4028107,10.5919485,-4.1570907,-1
1021,1022,1583935756963,1.8326999,0.87729996,-3.7168,1.3975434,10.715997,-4.501703,-1
1022,1023,1583935756973,1.857,0.9763,-3.7616,1.4400643999999998,10.731224000000001,-4.3067956,-1
1023,1024,1583935756983,2.0042999,0.8976,-3.2619,1.5868003000000002,10.642735,-3.8143466,-1
1024,1025,1583935756993,2.2135,0.80759996,-2.5448,1.854223,10.607549,-2.8466196,-1
1025,1026,1583935757003,2.3769999,0.9321,-1.6758,1.8889773,10.833456,-1.9087342,-1
1026,1027,1583935757013,2.2440999,1.1348,-0.8638,1.7105613999999998,11.043102000000001,-1.1344014,-1
1027,1028,1583935757023,1.9741999,1.5044,-0.1396,1.3805445,11.489600999999999,-0.3099438,-1
1028,1029,1583935757033,1.6675999,1.9533999,0.643,1.1028171999999998,11.902064999999999,0.4492863,-1
1029,1030,1583935757043,1.3859,2.3446999,1.1389999,0.8321478999999999,12.260295,0.80456674,-1
1030,1031,1583935757054,1.1987,2.5507998,1.3886,0.73760563,12.384535000000001,1.083472,-1
1031,1032,1583935757064,1.2623,2.6204998,1.6815,0.7183946,12.492628999999999,1.43677,-1
1032,1033,1583935757074,1.0174999,2.8476999,2.1859,0.37593755,12.766113,1.9002298999999998,-1
1033,1034,1583935757084,0.73499995,3.1436,2.5699,0.27850312,13.206589000000001,2.3713994,-1
1034,1035,1583935757094,1.0346,3.6838,3.0309,1.1772098999999998,13.91647,2.9629779999999997,-1
1035,1036,1583935757104,2.2928,4.4382,3.7192998,2.7402594,14.673776,3.8045397000000003,-1
1036,1037,1583935757115,3.9722,5.1322,4.6867,4.103633,15.119364000000001,4.878588,-1
1037,1038,1583935757125,5.3462,5.5016,6.2036,5.354431,15.354370000000001,6.881289999999999,-1
1038,1039,1583935757135,6.045,5.5281997,7.8101997,5.5002666,15.182264000000002,8.564721,-1
1039,1040,1583935757145,5.8549,5.2627,9.2535,4.902645,14.818998,9.839001,-1
1040,1041,1583935757155,5.1442,4.863,10.1474,4.0388839999999995,14.384881,10.467114,-1
1041,1042,1583935757166,4.3733997,4.4374,10.5153,3.2493722000000003,13.987893,10.802648,-1
1042,1043,1583935757176,3.665,4.0543,10.7556,2.2769337000000003,13.627729,11.107238,-1
1043,1044,1583935757186,2.7702,3.7136,10.917,1.1926476000000001,13.247703,11.214364,-1
1044,1045,1583935757196,1.7723,3.3562999,10.8431,-0.17429788,12.8241005,10.759886999999999,-1
1045,1046,1583935757206,0.8814,3.0289998,10.281199,-1.1798625,12.585925999999999,9.892611500000001,-1
1046,1047,1583935757216,0.010799999,2.8451,9.3587,-2.0337881999999996,12.465755,8.659971,-1
1047,1048,1583935757227,-0.6745,2.7779999,8.0435,-2.5929298,12.592888,7.08564,-1
1048,1049,1583935757237,-0.96489996,2.9373,6.4781,-2.5811124,12.6849785,5.3822803,-1
1049,1050,1583935757248,-0.7829999999999999,3.0677,4.8215,-2.275794,12.844519,3.7986882000000004,-1
1050,1051,1583935757258,-0.27249998,3.2187997999999998,3.31,-2.1697787999999996,12.631703,2.1340096,-1
1051,1052,1583935757268,-0.1245,3.0289,1.953,-2.4192164000000003,12.357787,1.3693492,-1
1052,1053,1583935757278,-0.3162,2.6949,1.0838,-2.8635035,11.680783,1.0209355,-1
1053,1054,1583935757288,-0.6828,2.1382,0.82339996,-3.3820782,10.981629,1.0579212,-1
1054,1055,1583935757299,-1.0217,1.3090998999999999,0.86939996,-3.6865056000000003,9.98115,1.6036267,-1
1055,1056,1583935757309,-1.1227,0.5104,1.2876999,-3.448857,9.340594,2.2199516,-1
1056,1057,1583935757319,-0.7734,-0.0924,1.8129,-2.8363917,8.757349000000001,2.4921916,-1
1057,1058,1583935757330,-0.061899997000000005,-0.64699996,2.0036,-1.878414,8.034405,2.3307076,-1
1058,1059,1583935757340,1.7838,-1.9992,1.2835,-1.0833954,7.175499,1.8264215,-1
1059,1060,1583935757350,2.069,-2.8416997999999998,0.81549996,-1.0748912,6.2416553,1.4721372,-1
1060,1061,1583935757361,1.7566998999999999,-3.8163998,0.73469996,-1.5831037000000001,5.2331405,1.5588839,-1
1061,1062,1583935757371,1.7566998999999999,-3.8163998,0.73469996,-2.2394693,4.2652225,1.8807987000000002,-1
1062,1063,1583935757381,0.96449995,-5.6103997,1.1381999,-2.5602633999999997,3.2157192,2.0740297,-1
1063,1064,1583935757391,0.9116,-6.377000000000001,1.287,-2.6557922,2.7212400000000003,2.1946595,-1
1064,1065,1583935757401,0.6235,-7.0979,1.3112999,-3.1632863999999996,1.7947223,2.2092544999999997,-1
1065,1066,1583935757412,0.2845,-7.9023,0.9776,-3.5397887000000003,0.94315267,1.8039352,-1
1066,1067,1583935757422,0.2832,-8.6939,0.32479998,-3.4361870000000003,-0.021547815,0.9731664000000001,-1
1067,1068,1583935757432,0.7068,-9.4636,-0.40559998,-3.069041,-0.86788857,0.23114581,-1
1068,1069,1583935757442,1.0081999,-10.2494,-1.0823,-2.893479,-1.5948544,-0.39938155,-1
1069,1070,1583935757453,1.11,-10.913199,-1.4557999,-2.8586576,-2.2259849999999997,-0.67696536,-1
1070,1071,1583935757463,1.2077,-11.367,-1.5783,-2.778835,-2.53409,-0.7111354,-1
1071,1072,1583935757473,1.281,-11.6015,-1.4772999,-2.7109642000000003,-2.731851,-0.6073706999999999,-1
1072,1073,1583935757483,1.2333,-11.6753,-1.4035,-2.8086857999999997,-2.8074791,-0.63198304,-1
1073,1074,1583935757493,1.1934,-11.7844,-1.5878999,-2.7684536,-2.95546,-0.92404693,-1
1074,1075,1583935757503,1.0536,-11.9973,-1.9311999,-3.0149033,-3.145502,-1.3470832,-1
1075,1076,1583935757514,0.6775,-12.273999,-2.3953,-3.2943833,-3.431092,-1.8854338,-1
1076,1077,1583935757524,0.6497,-12.488199,-2.9139,-3.1346037,-3.4857278,-2.5162008,-1
1077,1078,1583935757534,0.5954,-12.453799,-3.2956998,-3.3959260000000002,-3.3257472999999997,-2.7046818999999998,-1
1078,1079,1583935757544,0.1231,-12.3264,-3.3497999,-3.7637712999999997,-3.229941,-2.738938,-1
1079,1080,1583935757554,-0.2276,-12.3017,-3.4013998999999995,-3.7493007000000005,-3.0884723999999997,-2.9516485,-1
1080,1081,1583935757564,-0.2341,-12.1152,-3.6567998,-3.5689502,-2.7445022999999997,-3.1774982999999994,-1
1081,1082,1583935757574,-0.134,-11.7963,-3.7461998,-2.9367661,-2.355339,-3.1708615,-1
1082,1083,1583935757585,0.77879995,-11.3632,-3.7233998999999995,-1.4870195,-1.6836601000000002,-3.0597804,-1
1083,1084,1583935757595,1.8693,-10.7648,-3.5231,-0.75899065,-1.2332438000000001,-2.6939175,-1
1084,1085,1583935757605,2.5483,-10.290999000000001,-2.846,0.49962202,-0.23616406,-1.4435505,-1
1085,1086,1583935757616,3.1797,-9.4109,-1.9577999,1.026921,1.5668613,-0.30902442,-1
1086,1087,1583935757626,3.409,-7.5263995999999995,-0.9105,1.1213291,3.1587467,0.5774335999999999,-1
1087,1088,1583935757636,3.2956998,-5.5789,0.20089999,1.3716766000000002,5.2026962999999995,2.1646742999999997,-1
1088,1089,1583935757646,3.4705,-3.5584998,1.9095999,1.6266686000000001,7.382052000000001,4.2127419999999995,-1
1089,1090,1583935757656,3.2264,-1.9463999,3.3421,1.2621177,8.692331,5.021110500000001,-1
1090,1091,1583935757666,2.7001,-0.8229,4.0209,1.5192647,9.958921,5.8362975,-1
1091,1092,1583935757677,2.8188,0.5837,4.9807,1.9832226000000002,11.523369,6.0614963,-1
1092,1093,1583935757687,3.1587,2.1262999,5.022,2.528708,13.152854000000001,4.3284388,-1
1093,1094,1583935757697,3.4833998999999998,3.7686,3.1446,3.5220623,15.031229000000002,2.0756006,-1
1094,1095,1583935757707,4.4270997,5.5248,1.2178999,4.1909738,15.956282,0.019986795,-1
1095,1096,1583935757717,4.6205997000000005,6.2702,-0.6112,4.2061720000000005,16.560282,-1.9576908,-1
1096,1097,1583935757728,4.5196,6.8789,-2.1878,4.2983775,17.054445,-3.0310402,-1
1097,1098,1583935757738,4.3764997,7.3114,-2.8432999,3.9863937000000007,17.281271,-3.4598608,-1
1098,1099,1583935757748,3.8478,7.5273,-2.9332,3.5543647000000003,17.778576,-3.7708964,-1
1099,1100,1583935757758,3.3362,7.9951,-2.9924,3.2749903,18.246967,-4.370644,-1
1100,1101,1583935757768,2.8722,8.4872,-3.4189999999999996,3.4420288,18.639406,-5.363232,-1
1101,1102,1583935757780,3.0405998,9.4424,-4.9356,3.8462753,19.149649,-6.155483,-1
1102,1103,1583935757790,2.8546,9.7841,-4.5229,3.8597019999999995,19.46463,-5.806514,-1
1103,1104,1583935757800,2.2222,9.7032995,-3.8844998,3.3955336000000003,19.330393,-5.106018,-1
1104,1105,1583935757810,2.0981,9.533999,-3.4836998,3.4705582,19.162548,-4.835108999999999,-1
1105,1106,1583935757820,2.1784,9.2464,-3.4234998,3.7477110000000002,18.762516,-4.8154580000000005,-1
1106,1107,1583935757831,2.1871998,8.7796,-3.2916,3.8765093999999998,18.249132,-4.561126,-1
1107,1108,1583935757841,2.1871998,8.7796,-3.2916,3.9010355000000003,17.78528,-3.6494434,-1
1108,1109,1583935757851,1.9628999,7.7479,-1.3986,3.8644042,17.166943,-2.4462707000000004,-1
1109,1110,1583935757861,1.7235999,7.1022,-0.22489999,3.6926155,16.480822,-1.3039013000000002,-1
1110,1111,1583935757871,1.4489,6.3276,0.213,3.5612983999999996,15.714935999999998,-0.9348687,-1
1111,1112,1583935757881,1.4419999,5.6705,0.1328,3.614124,15.186076000000002,-0.9817184000000001,-1
1112,1113,1583935757892,1.3901,5.1596,-0.14029999,3.6011953,14.55667,-1.2139273000000002,-1
1113,1114,1583935757902,1.1389999,4.6366,-0.1091,3.3150212999999997,13.892470000000001,-1.0374843,-1
1114,1115,1583935757913,0.81659997,4.0717,0.1078,2.9540906000000002,13.344130499999999,-0.8238161,-1
1115,1116,1583935757923,0.44959998,3.5042998999999995,0.2258,2.7319088,12.796720500000001,-0.72997296,-1
1116,1117,1583935757933,0.39589998,3.0727,0.145,2.7408054,12.408267,-0.9636565999999999,-1
1117,1118,1583935757943,0.47559997,2.6697,-0.1848,2.9131305,12.031706,-1.2314912,-1
1118,1119,1583935757953,0.69729996,2.3639997999999998,-0.3441,3.034641,11.619511,-1.3404657,-1
1119,1120,1583935757964,0.66889995,1.9985,-0.364,2.8701402999999996,11.333853999999999,-1.2712253,-1
1120,1121,1583935757974,0.3899,1.5830000000000002,-0.3046,2.586954,10.925968,-1.4511735000000001,-1
1121,1122,1583935757984,0.29009998,1.2357,-0.98859996,2.6342444,10.608067,-2.2913468,-1
1122,1123,1583935757994,0.426,1.0647,-1.4289,2.624792,10.438231,-2.4624843999999997,-1
1123,1124,1583935758004,0.2297,0.82409996,-1.4851999,2.1574917,10.176133,-2.2192144,-1
1124,1125,1583935758014,-0.2789,0.5525,-1.0145,1.7180218,9.902859,-1.5292341999999999,-1
1125,1126,1583935758024,-0.55399996,0.2704,-0.41889998,1.8244103999999999,9.727919,-1.1417181,-1
1126,1127,1583935758035,-0.1379,0.17549999,-0.2698,2.3539312000000003,9.632093,-1.1516876,-1
1127,1128,1583935758045,0.26569998,0.061899997000000005,-0.31509998,2.5388882,9.511272,-1.0783006000000002,-1
1128,1129,1583935758055,0.3689,-0.1206,-0.1902,2.3953889999999998,9.221737,-0.85107166,-1
1129,1130,1583935758065,0.0458,-0.4804,0.0371,1.8270249,8.87611,-0.5357649,-1
1130,1131,1583935758075,-0.5096,-0.703,0.3496,1.4368371000000002,8.866611,-0.34041718,-1
1131,1132,1583935758085,-0.6163,-0.67899996,0.3281,1.7691236000000001,8.978008,-0.6784496999999999,-1
1132,1133,1583935758096,-0.24839999,-0.5746,-0.0284,1.9492633000000001,8.980066,-1.0024043,-1
1133,1134,1583935758106,-0.118599996,-0.6459,-0.3525,1.8594232,8.843875,-1.101055,-1
1134,1135,1583935758116,-0.2638,-0.7956,-0.33339998,1.8532078,8.680378999999999,-1.0829931000000002,-1
1135,1136,1583935758126,-0.1458,-0.9156,-0.384,2.1127775,8.652789,-1.2815778,-1
1136,1137,1583935758136,0.19579999,-0.9176,-0.6817,2.3258807999999997,8.714588000000001,-1.5704048000000002,-1
1137,1138,1583935758146,0.32259998,-0.8418,-0.84819996,2.0930302,8.801803999999999,-1.2303708,-1
1138,1139,1583935758156,-0.0382,-0.77709997,-0.41799998,1.5819353,8.794382,-0.70667255,-1
1139,1140,1583935758167,-0.7309,-0.7919,0.23789999,0.70139575,8.748499,-0.101332195,-1
1140,1141,1583935758177,-1.3974,-0.8648,0.57879996,0.47879246,8.744064999999999,0.047395617,-1
1141,1142,1583935758187,-1.5230000000000001,-0.8178,0.6502,0.5635951,8.882392999999999,-0.019603724,-1
1142,1143,1583935758197,-1.4132999,-0.6996,0.5237,0.76828974,8.944815,-0.29120198,-1
1143,1144,1583935758207,-1.1934999,-0.607,0.23429999,1.2171546,9.015011999999999,-0.5738519,-1
1144,1145,1583935758217,-0.6886,-0.5646,-0.070199996,1.9987561999999999,9.181764,-0.9320914,-1
1145,1146,1583935758228,0.0699,-0.3452,-0.41889998,2.49608,9.41426,-1.2400432,-1
1146,1147,1583935758238,0.4727,-0.1346,-0.70379996,2.4766867,9.520878,-1.5977944,d
1147,1148,1583935758248,0.3839,-0.0534,-0.9992,2.2038722,9.523406,-1.6123319999999999,-1
1148,1149,1583935758258,0.0184,-0.0426,-0.97319996,1.7439748,9.487896000000001,-1.4666496999999998,-1
1149,1150,1583935758268,-0.42209998,-0.1015,-0.843,1.4980712,9.434294,-1.3885316,-1
1150,1151,1583935758278,-0.5904,-0.1601,-0.7765,1.5003026000000002,9.389514,-1.2954643,-1
1151,1152,1583935758289,-0.5884,-0.1884,-0.6581,1.6685671000000002,9.40611,-1.0856746000000002,-1
1152,1153,1583935758299,-0.4461,-0.1665,-0.5072,1.8523556,9.458466,-1.0022129000000002,-1
1153,1154,1583935758309,-0.281,-0.11409999400000001,-0.442,2.094534,9.526912,-0.81482345,-1
1154,1155,1583935758319,0.0875,0.0513,-0.0416,2.2752863999999997,9.610269,-0.53904974,-1
1155,1156,1583935758330,0.26659998,0.1541,0.14379999,2.4869437000000003,9.709455499999999,-0.31696355,-1
1156,1157,1583935758340,0.26659998,0.1541,0.14379999,2.765073,9.775861,-0.16995001,-1
1157,1158,1583935758350,0.63449997,0.319,0.3401,2.8941972000000002,9.864915,-0.08168059,-1
1158,1159,1583935758360,0.6609,0.292,0.39229998,2.9325523,9.84331,-0.01685518,-1
1159,1160,1583935758370,0.49839997,0.2929,0.4423,2.7505357000000004,9.823179,0.0971184,-1
1160,1161,1583935758381,0.2244,0.2241,0.5595,2.416439,9.746297,0.21269129,-1
1161,1162,1583935758391,-0.2224,0.2038,0.723,1.9535919999999998,9.756372,0.36959770000000003,-1
1162,1163,1583935758401,-0.69839996,0.2228,0.7353,1.480019,9.783724000000001,0.26750895,-1
1163,1164,1583935758412,-0.8939,0.36069998,0.2713,1.448674,10.018288,-0.33107020000000004,-1
1164,1165,1583935758422,-0.6163,0.6964,-0.0361,1.7417243000000002,10.351359,-0.5454949,-1
1165,1166,1583935758432,-0.20799999,1.2198,-0.2818,2.2687743,10.973975999999999,-0.7792169,-1
1166,1167,1583935758442,0.2952,1.9492999,-0.4116,2.7151012000000003,11.780688,-0.80515087,-1
1167,1168,1583935758452,0.3989,2.7266998,-0.1619,2.6104363999999998,12.532812,-0.41774032,-1
1168,1169,1583935758462,0.0587,3.3941998,0.31379998,2.1957798,13.177465,0.057058617,-1
1169,1170,1583935758473,-0.3735,4.0209,0.6792,1.8494346000000002,13.873498999999999,0.50348145,-1
1170,1171,1583935758483,-0.5379,4.8332,1.1809,1.7863810000000002,14.713633999999999,1.0562165000000001,-1
1171,1172,1583935758493,-0.5038,5.694,1.6903,1.8667494999999998,15.586348999999998,1.6386778000000002,-1
1172,1173,1583935758503,-0.3277,6.593,2.2673,2.0776403,16.52842,2.1939507000000003,-1
1173,1174,1583935758513,-0.005699999599999999,7.5196,2.6060998,2.4460217999999996,17.386357999999998,2.3088722,-1
1174,1175,1583935758524,0.5248,8.2771,2.2863998,3.047139,18.071589000000003,1.7179643,-1
1175,1176,1583935758534,1.1596,8.8062,1.2254,3.6036854,18.473766,0.37550658,-1
1176,1177,1583935758544,1.9976,8.998799,-0.1529,4.6453543,18.66781,-1.1250257,-1
1177,1178,1583935758554,2.8716998,9.0314,-1.1401,5.180794000000001,18.525671,-1.7780203999999997,-1
1178,1179,1583935758564,3.3546998999999995,8.6677,-1.5838,5.3035879999999995,17.938995000000002,-1.8170555,-1
1179,1180,1583935758575,3.3409998,8.0351,-1.2357,4.8459888,17.213601999999998,-1.1840764,-1
1180,1181,1583935758585,2.8392,7.2525997,-0.5822,4.100798,16.463154,-0.53634906,-1
1181,1182,1583935758595,2.2556998999999998,6.4694,-0.036399997999999996,3.4144572999999996,15.735488,-0.10612060000000001,-1
1182,1183,1583935758605,1.8197999,5.7563,0.26139998,2.9195182,15.087139,0.059931654,-1
1183,1184,1583935758615,1.6238999,5.0948997,0.2263,2.6911112999999998,14.45665,-0.17331147,-1
1184,1185,1583935758626,1.7626,4.4564,-0.1432,3.1378214,13.910886999999999,-0.62315327,-1
1185,1186,1583935758636,2.6571,3.9878998,-0.5829,3.935713,13.450807000000001,-0.79614866,-1
1186,1187,1583935758646,3.4989998,3.395,-0.5927,4.1516795,12.5922365,-0.41712740000000004,-1
1187,1188,1583935758656,3.6187,2.6187,-0.2227,3.4737473,11.72048,0.19325997,-1
1188,1189,1583935758666,3.0386,1.6991999,0.3518,2.3975055,10.76503,0.95670384,-1
1189,1190,1583935758677,2.2051,0.79429996,1.0986999,1.7350491999999997,10.069936,1.6357951000000002,-1
1190,1191,1583935758687,1.8543999,0.1301,1.6618998999999999,1.0632267,9.380175999999999,1.7290734,-1
1191,1192,1583935758697,1.3032,-0.5877,1.5941,0.14093228,8.531326,1.2330713,-1
1192,1193,1583935758707,0.6652,-1.4384999,1.0902,-0.51307744,7.6777835,0.7429591,-1
1193,1194,1583935758717,0.2947,-2.2663999,0.5868,-0.8055531,6.8425517000000005,0.0028634653000000005,-1
1194,1195,1583935758728,0.20619999,-3.1122,-0.1259,-0.9139434000000001,5.9884157,-0.7192278,-1
1195,1196,1583935758738,0.3121,-3.8985999,-0.83959997,-0.8279245000000001,5.305436,-1.5053782,-1
1196,1197,1583935758748,0.547,-4.5573997,-1.6086999,-0.38787982,4.784008,-2.2061132999999997,-1
1197,1198,1583935758758,1.2391,-4.981,-2.2611,0.42252870000000003,4.4480343,-2.5873945,-1
1198,1199,1583935758769,1.9818,-5.2376,-2.5481,0.073463686,4.0308589999999995,-2.4406302,-1
1199,1200,1583935758779,1.2799,-5.9035,-1.744,-0.5310914000000001,3.7469544000000004,-1.69792,-1
1200,1201,1583935758789,0.83849996,-6.1077,-0.98639995,-1.0765193000000002,3.5229242,-0.87493706,-1
1201,1202,1583935758800,0.4443,-6.0871,-0.2796,-1.5699834,3.5227517999999995,-0.09938810000000001,-1
1202,1203,1583935758810,0.4443,-6.0871,-0.2796,-2.0013516,3.4778748,0.35966656,-1
1203,1204,1583935758820,0.0945,-6.1074,0.0998,-2.0838556,3.5433133000000003,0.60694927,-1
1204,1205,1583935758830,0.301,-5.9705,0.14459999,-1.7827705000000003,3.6108968,0.42970175,-1
1205,1206,1583935758840,1.1854,-5.7346997,-0.23719999,-0.9273700999999999,3.8699112,0.038594533,-1
1206,1207,1583935758850,1.7830000000000001,-5.5094,-0.59,-0.44950658,4.0717419999999995,-0.27178976,-1
1207,1208,1583935758861,1.9354,-5.263099700000001,-0.6536,-0.39630744,4.319168599999999,-0.24538653,-1
1208,1209,1583935758871,1.7636,-4.9948,-0.3017,-0.74211633,4.581314599999999,0.19191921,-1
1209,1210,1583935758881,1.1493,-4.7339997,0.2236,-1.4752591999999998,4.8173447,0.6705297,-1
1210,1211,1583935758891,0.2935,-4.5211997,0.3974,-2.39583,5.00868,0.71497566,-1
1211,1212,1583935758901,-0.33049998,-4.3584,0.1416,-3.0055466,5.1321244,0.37789120000000004,-1
1212,1213,1583935758911,-0.5039,-4.1491,-0.3229,-3.1375439999999997,5.341234,-0.19800048,-1
1213,1214,1583935758922,-0.4939,-4.0998,-1.2098,-3.1857438,5.3829985,-1.3113233999999998,-1
1214,1215,1583935758932,-0.3394,-3.9162,-1.8612,-2.9770079,5.566653,-1.7360547999999998,-1
1215,1216,1583935758942,-0.040999997,-3.6868,-1.9824,-2.7264786,5.9060073,-1.6432746999999999,-1
1216,1217,1583935758952,-0.0661,-3.3321,-1.4595,-2.7965136000000004,6.177232,-1.0509684,-1
1217,1218,1583935758962,-0.0402,-2.8909,-0.5439,-2.6941664,6.721903299999999,0.09672575,-1
1218,1219,1583935758972,0.115899995,-2.4218,0.24419999,-2.5237662999999997,7.211584599999999,0.8635693999999999,-1
1219,1220,1583935758983,0.22019999,-1.9434999,0.8663,-2.4395382000000003,7.662058999999999,1.3718201,-1
1220,1221,1583935758992,0.2365,-1.5533999,1.1527,-2.433706,8.074761,1.6372125,-1
1221,1222,1583935759002,0.2164,-1.0845,1.2148,-2.4833808,8.426623,1.6397408,-1
1222,1223,1583935759012,0.2008,-0.7226,1.1816,-2.4414917999999997,8.835113,1.5673115,-1
1223,1224,1583935759022,0.1029,-0.52639997,1.0225999,-2.7175722,8.953797,1.4591318000000002,-1
1224,1225,1583935759032,-0.38,-0.42659998,1.0011,-3.2911751000000002,9.050466,1.4039694999999999,-1
1225,1226,1583935759042,-0.8879,-0.2769,0.95919997,-3.6395888,9.2443,1.373678,-1
1226,1227,1583935759053,-0.907,-0.078899994,0.85679996,-3.5775309999999996,9.399875,1.2009315,-1
1227,1228,1583935759063,-0.89089996,0.029399997999999997,0.4772,-3.6300695,9.472496000000001,0.64828277,-1
1228,1229,1583935759073,-0.99689996,0.0874,0.1112,-3.7030735,9.582802000000001,0.34073323,-1
1229,1230,1583935759083,-0.81509995,0.2223,-0.1389,-3.3937426,9.681137,0.046533704,-1
1230,1231,1583935759093,-0.6897,0.2279,-0.3161,-3.3807563999999997,9.679882000000001,-0.1116943,-1
1231,1232,1583935759104,-0.6486,0.2715,-0.35529998,-3.1648376,9.751066,-0.083184145,-1
1232,1233,1583935759114,-0.3299,0.33299999999999996,-0.24839999,-2.7361703,9.814703999999999,0.01934515,-1
1233,1234,1583935759124,0.2093,0.4033,-0.1996,-2.190302,9.903645,0.1246613,-1
1234,1235,1583935759134,0.52309996,0.48369998,-0.0393,-1.8651596999999998,10.026734,0.30748254,-1
1235,1236,1583935759144,0.78169996,0.575,0.1563,-1.7029766,10.069563,0.48391604,-1
1236,1237,1583935759154,0.8407,0.5701,0.2532,-1.7166139,10.025327,0.52673393,-1
1237,1238,1583935759164,0.7897,0.49859998,0.2346,-1.8427691000000002,9.973813,0.46269384,-1
1238,1239,1583935759174,0.6087,0.44849998,0.1312,-1.9614736000000002,9.936847,0.40043503,-1
1239,1240,1583935759185,0.4331,0.45859998,0.098799996,-2.1906562000000003,9.934577,0.37986404,-1
1240,1241,1583935759195,0.22219999,0.38149998,0.086399995,-2.4437330000000004,9.811103999999998,0.3329281,-1
1241,1242,1583935759205,0.0254,0.28599998,0.052699998,-2.5490967999999996,9.749429,0.44763909999999996,-1
1242,1243,1583935759220,-0.1521,0.24929999,0.3593,-2.6991751,9.728321000000001,0.65875024,-1
1243,1244,1583935759230,-0.1521,0.24929999,0.3593,-2.6201856,9.677766,0.50141287,-1
1244,1245,1583935759240,-0.0402,0.1919,0.114,-2.5906222000000003,9.66047,0.44564712,-1
1245,1246,1583935759250,-0.0587,0.1434,0.2628,-2.6132232999999996,9.622314999999999,0.58377343,-1
1246,1247,1583935759260,-0.1259,0.18329999,0.48959997,-2.6701477000000002,9.653938,0.8302708000000001,-1
1247,1248,1583935759271,-0.0557,0.1937,0.6012,-2.601281,9.672948,0.92944825,-1
1248,1249,1583935759281,-0.082899995,0.16499999,0.5701,-2.6377206,9.640627,0.9084175999999999,-1
1249,1250,1583935759291,-0.2661,0.1559,0.5735,-2.8348880000000003,9.610919,0.8894171999999999,-1
1250,1251,1583935759301,-0.2661,0.1559,0.5735,-2.8396668,9.5634575,0.8036186,-1
1251,1252,1583935759311,-0.1822,0.0585,0.2836,-2.700736,9.522689,0.54423076,-1
1252,1253,1583935759321,0.0547,0.078,0.0479,-2.4564892999999994,9.558822,0.27782315,-1
1253,1254,1583935759331,0.30269998,0.10759999599999999,-0.22479999,-2.241059,9.58532,-0.03469677,-1
1254,1255,1583935759342,0.3969,0.0596,-0.5664,-2.1679304,9.532371000000001,-0.42268196,d
1255,1256,1583935759352,0.3568,-0.0069,-0.90199995,-2.2490652,9.4451065,-0.74397427,-1
1256,1257,1583935759362,0.1619,-0.1414,-0.97129995,-2.5052733,9.304347,-0.7416949,-1
1257,1258,1583935759372,-0.29729998,-0.32459998,-0.8161,-3.0620403,9.065855,-0.47531608,-1
1258,1259,1583935759382,-0.5147,-0.4888,-0.41709998,-3.1361458,8.946786999999999,-0.10674309,-1
1259,1260,1583935759392,-0.47379997,-0.56619996,-0.026099999,-3.0084867,8.903011,0.35426524,-1
1260,1261,1583935759403,-0.2038,-0.5571,0.22479999,-2.6937067999999997,8.92455,0.58499926,-1
1261,1262,1583935759413,0.12079999599999999,-0.4804,0.35,-2.3078477000000004,9.036272,0.66426647,-1
1262,1263,1583935759423,0.49339998,-0.3746,0.22489999,-2.0556521,9.112753,0.49551356,-1
1263,1264,1583935759433,0.66359997,-0.27789998,0.015999998999999997,-1.9266715,9.187088000000001,0.33437422,-1
1264,1265,1583935759443,0.42819998,-0.3559,0.024,-2.3445652000000003,9.053013,0.4182862,-1
1265,1266,1583935759453,-0.0558,-0.5009,0.2173,-2.8287587000000003,8.89513,0.72209126,-1
1266,1267,1583935759464,-0.4892,-0.6649,0.5956,-3.1811376,8.759551,1.1209843000000002,-1
1267,1268,1583935759474,-0.6703,-0.7905,0.8973,-3.2943354,8.613811,1.3622530000000002,-1
1268,1269,1583935759484,-0.6698,-0.9274,1.087,-3.2790315000000003,8.472783,1.5194657,-1
1269,1270,1583935759494,-0.64489996,-1.0464,1.1768,-3.2148573,8.349165,1.5465681999999998,-1
1270,1271,1583935759504,-0.5844,-1.1962,1.1087999,-3.0233884,8.197161999999999,1.3635745000000001,-1
1271,1272,1583935759515,-0.3498,-1.337,0.912,-2.8741147999999996,8.097985000000001,1.1910386999999998,-1
1272,1273,1583935759525,-0.2333,-1.4193,0.79969996,-2.7790265,7.984863799999999,1.1027501,-1
1273,1274,1583935759535,-0.2427,-1.5307,0.80829996,-2.857384,7.8199034,1.1462959,-1
1274,1275,1583935759545,-0.3575,-1.7393,0.9659,-3.0689166,7.558293300000001,1.4286008999999997,-1
1275,1276,1583935759555,-0.6174,-2.0553,1.3111,-3.214963,7.222301,1.7109444,-1
1276,1277,1583935759566,-0.6329,-2.3811998,1.5514,-2.9844682000000002,6.9257746,1.7009174999999999,-1
1277,1278,1583935759575,-0.3285,-2.6394,1.4818,-2.632511,6.665036,1.5662773,-1
1278,1279,1583935759585,0.0801,-2.9571998,1.3543,-2.1403685,6.308645200000001,1.2889233,-1
1279,1280,1583935759595,0.5169,-3.3437997999999998,1.1157,-1.8557457,5.9075108,1.3123288999999998,-1
1280,1281,1583935759605,0.7105,-3.7591998999999996,1.5071,-1.748993,5.529744,2.1001363,-1
1281,1282,1583935759616,0.63299996,-4.1636,2.4304,-2.2314727000000003,4.978656299999999,3.0275352000000004,-1
1282,1283,1583935759626,-0.0393,-4.7339,3.4411,-2.7320905,4.5693529999999996,4.103087,-1
1283,1284,1583935759636,-0.1766,-5.040499700000001,4.468499700000001,-2.4702702000000003,4.2959255999999995,4.7177267,-1
1284,1285,1583935759646,0.13599999,-5.1927,4.8757997,-1.7231452,4.5698223,4.718310400000001,-1
1285,1286,1583935759656,0.8883,-4.9158998,4.7183,-0.6457641,4.6972227,3.8864691,-1
1286,1287,1583935759666,1.9361999,-4.7871,3.8990998,0.20735702,5.0079036,2.7129657000000003,-1
1287,1288,1583935759676,2.6792,-4.441,2.7751,0.75143456,5.272549,1.5558002,-1
1288,1289,1583935759687,3.0549,-4.2486997,1.8364999,0.5503791,5.378650700000001,0.9574413,-1
1289,1290,1583935759697,2.7036998,-4.1313,1.4636999,0.1188769,5.454738,0.8240938,-1
1290,1291,1583935759707,2.0825999,-4.0709,1.4913,-0.91599286,5.4021235,1.0083803,-1
1291,1292,1583935759717,1.1053,-4.1584997,1.8062999,-1.839331,5.428938400000001,1.3922378999999998,-1
1292,1293,1583935759727,0.18349999,-4.0045,2.3694,-2.3274226000000002,6.061113400000001,2.0462189,-1
1293,1294,1583935759738,-0.2023,-3.3657,3.0472,-2.0399365,6.770908,2.334768,-1
1294,1295,1583935759748,0.12979999,-2.6245,3.2119,-1.0926371000000001,7.6392945999999995,1.678479,-1
1295,1296,1583935759758,1.0751,-1.7588999,2.4989998,0.38412574,8.769835,0.68893635,-1
1296,1297,1583935759768,2.1629999,-0.8251,1.7608,1.2440368,9.514481,0.31412885,-1
1297,1298,1583935759778,3.0551,0.1109,1.4058,1.4867226999999998,10.538021,0.19729179,-1
1298,1299,1583935759788,3.02,0.92429996,1.4061999,0.4946325,11.114516,-0.12544659,-1
1299,1300,1583935759798,1.9261999,1.4885,1.1783,-0.7883053000000001,11.61476,-1.2478579,-1
1300,1301,1583935759809,0.5771,1.9884,0.1461,-1.5253651000000001,12.178835000000001,-3.2626743,-1
1301,1302,1583935759819,-0.24689999,2.5588,-1.7814,-1.1349281999999998,12.941130000000001,-5.131301000000001,-1
1302,1303,1583935759829,0.04,3.324,-3.5577998,-0.15907076,13.766075,-6.312667,-1
1303,1304,1583935759839,1.5543,4.9136,-4.7532997,0.6489531999999999,14.544459,-6.4348865,-1
1304,1305,1583935759850,1.4945998999999999,5.3378,-4.2049,0.6993463000000001,14.970061999999999,-5.907616,-1
1305,1306,1583935759860,0.8749,5.468999999999999,-3.5482,0.18414284,15.110458,-5.249785,-1
1306,1307,1583935759870,0.2635,5.4758,-3.4552,-0.35700423,15.119221,-5.1783133,-1
1307,1308,1583935759880,0.2635,5.4758,-3.4552,-0.719697,15.117420999999998,-5.8827643,-1
1308,1309,1583935759890,-0.1059,5.6291,-5.2620000000000005,-0.5453704,15.297675,-7.2984176,-1
1309,1310,1583935759901,0.2662,5.7841997,-6.3325996,-0.06454767,15.44873,-8.416031,-1
1310,1311,1583935759911,0.6056,5.9115,-7.2823,0.33930627,15.564456,-9.363138000000001,-1
1311,1312,1583935759921,1.0027,6.0192,-7.8736,0.7497682,15.649555,-9.928257,-1
1312,1313,1583935759931,1.3319,6.0964,-8.288,1.1561217,15.698339,-10.422765,-1
1313,1314,1583935759941,1.869,6.0836,-8.713699,1.6959950000000001,15.674953,-10.856556,-1
1314,1315,1583935759952,2.0945,6.0104,-9.1193,1.8301948000000001,15.561191,-11.282953,-1
1315,1316,1583935759962,2.0607998,5.8153996,-9.4285,1.8105718999999998,15.344898,-11.590666,-1
1316,1317,1583935759972,2.0307999,5.4697,-9.5897,1.7219863999999998,14.888639999999999,-11.583215,-1
1317,1318,1583935759982,1.9215,5.0207996,-9.256599000000001,1.5607227,14.439881,-10.963443,-1
1318,1319,1583935759992,1.8664999,4.5964,-8.4499,1.5689298999999999,14.026736999999999,-10.013174000000001,-1
1319,1320,1583935760003,2.1190999,4.1295,-7.5263995999999995,1.8897338,13.586539000000002,-8.947802000000001,-1
1320,1321,1583935760013,2.5051,3.6618998,-6.5246997,2.2407237999999996,13.082167,-7.8521485,-1
1321,1322,1583935760023,2.8623998,3.0785,-5.4144998,2.4738233,12.527727,-6.5787683,-1
1322,1323,1583935760033,3.1455998,2.4793,-4.3325,2.7754831,11.908078999999999,-5.655947,-1
1323,1324,1583935760043,3.5916,1.8462,-3.8681997999999997,3.0712914000000002,11.241477,-5.336101,-1
