,Seq,Time,ACCx,ACCy,ACCz,ADGx,ADGy,ADGz,Keydown
0,1,1583935534009,-0.3674,0.0041,-0.07369999599999999,1.5059624,8.870747,0.8659923,-1
1,2,1583935534019,-0.5345,-0.2093,0.32299998,-3.062586,9.137758,0.14464809,-1
2,3,1583935534029,0.1558,-0.046,-0.053,-2.957634,9.264536,0.09313445,-1
3,4,1583935534040,0.4037,0.0726,-0.13,-2.6280196,9.410122,0.050795384000000006,-1
4,5,1583935534050,0.48549998,0.087299995,0.1583,-2.5890706000000003,9.418636,0.41065347,-1
5,6,1583935534060,0.48549998,0.087299995,0.1583,-2.7233278999999997,9.379381,0.5880159,-1
6,7,1583935534070,-0.32189998,-0.132,1.2232,-3.2685738,9.224553,1.5085194,-1
7,8,1583935534081,-0.5706,-0.17009999,1.561,-3.4924986000000002,9.196886,2.0326866999999997,-1
8,9,1583935534091,-0.2023,-0.037000000000000005,1.2985,-2.957749,9.364815,1.8220831999999998,-1
9,10,1583935534101,0.7083,0.21329999,0.5,-2.1472062999999997,9.579919,1.2121077,-1
10,11,1583935534111,1.1012,0.2967,-0.36969998,-1.389384,9.780094,0.04468538,-1
11,12,1583935534121,1.0792,0.3208,-0.85819995,-1.278724,9.855606,-0.5042476,-1
12,13,1583935534132,0.7834,0.33969998,-0.78459996,-1.456412,9.909487,-0.45449609999999996,-1
13,14,1583935534142,0.4504,0.3132,-0.44349998,-1.6750889,9.915213,-0.0692882,-1
14,15,1583935534152,0.18859999,0.2862,0.034399997,-1.9112529999999999,9.891242,0.25348848,-1
15,16,1583935534162,-0.3542,0.1787,0.2924,-2.5165452999999998,9.758555,0.42124543,-1
16,17,1583935534172,-0.76129997,0.11669999,0.3662,-2.774171,9.6978,0.44719857,-1
17,18,1583935534182,-0.85859996,0.0971,0.3202,-2.8294291,9.703288,0.30110437,-1
18,19,1583935534193,-0.8222,0.0985,0.1214,-2.6984183999999996,9.768898,0.13167152,-1
19,20,1583935534202,-0.8222,0.0985,0.1214,-2.5155972999999996,9.853615,0.018483236,-1
20,21,1583935534212,-0.1698,0.50159997,-0.0629,-2.0440161,10.208215,0.06747818,-1
21,22,1583935534222,0.0133,0.7364,0.19039999,-1.9406633000000002,10.394724,0.3313288,-1
22,23,1583935534233,-0.0537,0.8937,0.3983,-2.0820648999999998,10.516368,0.51288587,-1
23,24,1583935534243,-0.122899994,0.9547,0.40989998,-2.0837023,10.574758000000001,0.54014146,-1
24,25,1583935534253,-0.057699997,0.98759997,0.424,-2.0673645,10.579614,0.54900956,-1
25,26,1583935534263,-0.1215,0.96339995,0.4121,-2.2801516,10.526797,0.6076005,-1
26,27,1583935534273,-0.44009998,0.82369995,0.5976,-2.6585502999999995,10.356626499999999,0.81769645,-1
27,28,1583935534284,-0.78029996,0.65639997,0.77269995,-2.9781187,10.17234,0.96521765,-1
28,29,1583935534294,-0.92149997,0.5194,0.8393,-3.0297282,10.056098,1.0623169,-1
29,30,1583935534304,-0.75949997,0.4414,0.9141,-2.8401554,10.011191,1.1225646,-1
30,31,1583935534314,-0.3843,0.4219,0.9762,-2.4632982999999995,9.92954,1.2068021,-1
31,32,1583935534324,-0.0784,0.2554,1.0439,-2.2863286,9.712328,1.3389333,-1
32,33,1583935534334,0.072299995,0.0407,1.2425,-2.2062953,9.490960000000001,1.5750781999999999,-1
33,34,1583935534345,0.2445,-0.271,1.3748,-2.0116754,9.040208999999999,1.739627,-1
34,35,1583935534355,0.45679998,-0.6114,1.4894999,-1.8497027,8.639305,1.9868139999999999,-1
35,36,1583935534365,0.6404,-1.0389999,1.7801,-1.7545668,8.195371000000002,2.4790907000000004,-1
36,37,1583935534375,0.82409996,-1.4556999,2.2236,-1.5066903,7.8003955000000005,2.9079878,-1
37,38,1583935534385,1.2116,-1.8614998999999999,2.4744,-1.1164738,7.291053,3.018035,-1
38,39,1583935534396,1.5647,-2.3834999,2.3525999,-0.83620846,6.786269,2.8530936000000002,-1
39,40,1583935534406,1.8712,-2.8810000000000002,1.7612,-0.63923275,6.191855400000001,2.3704417,-1
40,41,1583935534416,1.9827,-3.4984,1.3097999,-0.8509089,5.399183799999999,2.096679,-1
41,42,1583935534426,1.7332,-4.366699700000001,1.1516,-1.3290501000000001,4.499672400000001,2.3391349999999997,-1
42,43,1583935534436,1.1668999,-5.2307,1.6369,-2.074346,3.5350199,3.1923711,-1
43,44,1583935534446,0.5911,-6.1805997,2.5108,-2.5829225,2.4890312999999997,4.042868,-1
44,45,1583935534457,0.35909998,-6.955,3.017,-2.3102994,1.9062538,4.4110002999999995,-1
45,46,1583935534467,0.8465,-7.4399996,3.3114998,-1.4572836,1.5613643,4.6034846,-1
46,47,1583935534477,1.7774999,-7.7643,3.4189,-0.5787359999999999,1.2566781999999999,4.508301,-1
47,48,1583935534487,2.6588,-8.0443,3.1857,-0.10281660000000002,0.94052863,4.179194,-1
48,49,1583935534498,3.0268998,-8.3663,2.8487,-0.24576001,0.56982,3.8674498,-1
49,50,1583935534508,2.7409,-8.7674,2.5049,-1.0327819999999999,0.082360536,3.4277114999999996,-1
50,51,1583935534518,1.9775,-9.1887,2.0369,-1.6396164,-0.05539225,2.7964373,-1
51,52,1583935534528,1.4331,-9.2526,1.3874999,-2.1990838,0.056646813,1.6953534,-1
52,53,1583935534538,1.0043,-9.155,0.4815,-2.8114247000000003,0.1915936,0.37492242,-1
53,54,1583935534549,-0.0576,-8.606299,-1.9777,-3.2238884,0.6184223000000001,-0.8591449000000001,-1
54,55,1583935534559,-0.1891,-8.155499,-2.4822,-3.3045730000000004,1.0898311,-1.3760531,-1
55,56,1583935534569,-0.309,-7.8578,-2.9299998,-3.3485112,1.4161991000000003,-1.814259,-1
56,57,1583935534579,-0.1918,-7.5459,-3.1734998,-3.116245,1.7529962,-2.0252936000000004,-1
57,58,1583935534589,0.33879998,-7.0322,-3.1141999,-2.4451504,2.3046682,-1.9172001,-1
58,59,1583935534600,1.0505999,-6.2268996,-2.6197,-1.5731628,3.1465845,-1.3679318,-1
59,60,1583935534610,1.6261,-5.2949,-2.5704,-0.8248694999999999,4.1232367,-1.2457415,-1
60,61,1583935534620,1.7375,-4.5792,-3.4138,-0.51960886,4.869002,-2.025399,-1
61,62,1583935534630,1.7375,-4.5792,-3.4138,-0.21439599,5.501301,-3.5893967000000004,-1
62,63,1583935534640,2.3724,-3.3153,-6.4901,0.5556846,6.217617,-5.0362706,-1
63,64,1583935534650,3.1471999,-2.4903,-7.5955,1.7169778000000002,7.239223,-6.258433999999999,-1
64,65,1583935534661,3.4891,-1.7005,-8.2174,2.239814,8.0754795,-6.773445599999999,-1
65,66,1583935534671,3.6264,-0.88629997,-8.5012,2.5896547,8.899822,-7.050282000000001,-1
66,67,1583935534681,3.6264,-0.88629997,-8.5012,2.630337,9.362306,-7.5931625,-1
67,68,1583935534691,3.4122999,0.15699999,-10.5273,2.9753127,10.011173,-9.433835,-1
68,69,1583935534701,3.235,0.66359997,-11.9239,2.9270647000000003,10.510305,-10.769942,-1
69,70,1583935534711,2.845,1.0455999,-13.0141,3.0832912999999995,10.832288,-11.610767,-1
70,71,1583935534721,3.5669,1.5349,-13.3769,4.381035,11.302508,-11.710336999999999,-1
71,72,1583935534731,5.1621,2.1682,-12.6424,6.0338383,11.793502,-10.955445,-1
72,73,1583935534741,7.0532,3.1078,-11.2416,9.37352,13.194493,-8.799773,-1
73,74,1583935534751,9.120999000000001,4.6082,-9.9804,11.849144,14.622912,-7.452709700000001,-1
74,75,1583935534762,10.8969,6.2012997,-8.762899,13.428704000000002,15.80628,-6.2670627,-1
75,76,1583935534772,11.762099000000001,7.8152,-7.5214996,14.580401,17.446556,-4.6860943,-1
76,77,1583935534782,11.7167,9.0328,-6.4965,14.496383999999999,18.403635,-3.6165662000000003,-1
77,78,1583935534792,10.7801,9.8621,-5.5628,13.653376000000002,18.89639,-2.7428071,-1
78,79,1583935534802,9.5139,10.2682,-5.046,12.835325,19.143520000000002,-2.549212,-1
79,80,1583935534812,8.9466,10.567599000000001,-5.039,12.783054,19.34198,-2.7738264,-1
80,81,1583935534822,8.6609,10.6587,-5.4886,12.574232,19.221610000000002,-3.6647375,-1
81,82,1583935534833,7.9431,10.441299,-6.2995,12.085232000000001,18.967144,-4.3097644,-1
82,83,1583935534843,6.9487996,10.4151,-6.0105996,11.218415,18.989420000000003,-3.6909587,-1
83,84,1583935534853,6.4476,10.7604,-4.8429,11.194042,19.330881,-2.5080411,-1
84,85,1583935534863,6.3013,11.2788,-3.2145998,11.288383,19.853209,-0.6992505999999999,-1
85,86,1583935534873,6.6807,12.1208,-1.3197,12.207488,20.736889,0.83220536,-1
86,87,1583935534884,7.9128,12.9948,-0.15959999,13.715089,21.407093,1.8154560000000002,-1
87,88,1583935534894,9.2339,13.5174,0.85649997,14.988401000000001,21.689524,2.7265456,-1
88,89,1583935534904,9.9207,13.5011,1.7365999,15.309694,21.418032,3.3817525,-1
89,90,1583935534914,9.5366,12.931999000000001,2.4713,14.648357999999998,20.683279000000002,4.039439700000001,-1
90,91,1583935534924,8.5949,12.0245,3.3535,13.423753,19.803629,4.803573,-1
91,92,1583935534935,7.0994997,11.069699,4.3150997,11.445012,18.7133,5.663178,-1
92,93,1583935534945,5.6113,10.1346,5.0132,10.32216,17.955402,6.081148000000001,-1
93,94,1583935534955,5.0291,9.3284,5.5049996,10.0889845,17.25616,6.261527,-1
94,95,1583935534965,5.1844997,8.5220995,5.7349997,10.3670845,16.484606,6.3992605000000005,-1
95,96,1583935534975,5.7591,7.6110997000000005,6.0442,10.999864,15.655465,6.681125,-1
96,97,1583935534986,6.5572,6.6733,6.4421,11.669225,14.703548000000001,7.436428500000001,-1
97,98,1583935534996,7.3294997,5.6466,7.4733,11.924321,13.755321499999999,8.849075,-1
98,99,1583935535006,7.5259,4.5759,8.8006,11.525313,12.655616,10.328855,-1
99,100,1583935535016,7.2798,3.5967998999999997,9.9073,11.007515,11.951683000000001,11.151397,-1
100,101,1583935535026,6.8455,2.6422,10.6711,10.364317,11.121516,11.6245575,-1
101,102,1583935535037,6.5021,1.6571,10.8342,9.594733999999999,10.021533999999999,11.597877,-1
102,103,1583935535047,6.0878,0.6249,10.599,8.665678999999999,9.052285000000001,11.076334,-1
103,104,1583935535057,5.4607997,-0.4131,10.0098,8.06529,8.170002,10.510153,-1
104,105,1583935535067,5.2625,-1.3468,9.4222,7.820727000000001,7.5956339999999996,9.77022,-1
105,106,1583935535077,5.3722,-1.9787999,8.5309,7.970670699999999,7.0968637,8.267494000000001,-1
106,107,1583935535087,5.8778,-2.5337,6.9163,8.0013075,6.724106,6.630750999999999,-1
107,108,1583935535098,6.1145,-2.9613,5.3694,7.4782224,6.3885635999999995,5.6732426,-1
108,109,1583935535108,5.5551,-3.4074,4.3176,6.0175295,5.895683999999999,4.823885400000001,-1
109,110,1583935535118,4.5873,-3.8994,3.7252998,4.471095,5.326007,4.5557446,-1
110,111,1583935535129,3.6344,-4.3971,3.4657,3.3499190000000003,4.9337697,4.505169400000001,-1
111,112,1583935535139,1.5406,-5.2855,3.4384,1.7748121,4.447565,4.668904,-1
112,113,1583935535149,1.5406,-5.2855,3.4384,0.73588187,4.154984,5.0108724,-1
113,114,1583935535159,0.7707,-5.5818996,3.7038,-0.18599117,3.9676328,4.934038,-1
114,115,1583935535169,0.1117,-5.7444997,3.5546,-0.7538670999999999,3.80657,4.2917309999999995,-1
115,116,1583935535179,-0.1805,-5.974,2.1194,-0.8831730999999999,3.7119322,3.6003718,-1
116,117,1583935535190,-0.0255,-6.0439997000000005,1.5475999,-0.891074,3.6143157,3.063247,-1
117,118,1583935535200,-0.0255,-6.0439997000000005,1.5475999,-1.1187147,3.411546,2.5781817000000005,-1
118,119,1583935535210,0.0047,-6.1956,1.0881,-1.5527163999999998,3.2876220000000003,2.555935,-1
119,120,1583935535220,-1.0522,-6.4652996,1.2932,-2.493609,3.0995336,2.9396966,-1
120,121,1583935535231,-1.8537999,-6.6721,1.9612,-3.2775185,2.9310296,3.6688747000000004,-1
121,122,1583935535241,-1.5746,-6.5534,2.5915,-2.7953360000000003,3.0650284,3.9260886,-1
122,123,1583935535251,0.26839998,-6.0414996,0.555,-0.7317159000000001,3.7853959,1.2777758999999997,-1
123,124,1583935535262,2.0147998,-5.4056,-2.2999,0.83397704,4.3778167,-1.6879122,-1
124,125,1583935535272,2.4052,-5.0586,-3.0563,0.6839181,4.6460056,-1.7003237,-1
125,126,1583935535282,1.6538999,-4.9389,-2.2364,-0.46888047,4.6531887,-0.79566026,-1
126,127,1583935535293,0.431,-4.9902,-1.2692,-1.5181537,4.630568,-0.11729673,-1
127,128,1583935535303,-0.5787,-4.8431997,-0.5417,-2.6331909,4.8549237000000005,0.49079220000000007,-1
128,129,1583935535313,-0.5787,-4.8431997,-0.5417,-3.1035461,5.069875700000001,0.29113492,-1
129,130,1583935535323,-1.4232,-4.3928,-0.81689996,-3.5358527000000004,5.3263803,-0.58466405,-1
130,131,1583935535334,-1.5435,-4.0523,-2.1671,-3.5016252999999997,5.707298000000001,-2.3034425,-1
131,132,1583935535344,-1.0912,-3.5853998999999996,-3.7503,-2.9157069,6.239730000000001,-4.0771239999999995,-1
132,133,1583935535354,-0.5771,-3.1392,-4.7514997,-2.5452566,6.636516599999999,-4.6237783,-1
133,134,1583935535364,-0.0071,-2.6445,-4.861399700000001,-2.0890653,7.008269,-4.558292,-1
134,135,1583935535374,0.5847,-2.2677,-4.2612,-1.5108179,7.4255877,-3.4875187999999993,-1
135,136,1583935535384,0.6757,-2.057,-3.1525,-1.6636733,7.570897,-2.1497439999999997,-1
136,137,1583935535394,0.5063,-1.9427999,-1.7801,-1.8157720000000002,7.630407300000001,-1.1418618,-1
137,138,1583935535404,0.419,-1.8963,-0.80469996,-1.9700928,7.6996474,-0.30944577,-1
138,139,1583935535414,0.3051,-1.7511,-0.3782,-2.0491877,7.906238,-0.3174903,-1
139,140,1583935535424,0.28219998,-1.5856999,-0.6507,-2.1128736,7.9513354000000005,-0.7764109,-1
140,141,1583935535434,0.2527,-1.5471,-1.2488999,-2.132908,8.019762,-1.437565,-1
141,142,1583935535445,0.3541,-1.4877,-1.729,-2.1073093,8.004869,-1.9958448,-1
142,143,1583935535455,0.31219998,-1.5052999,-2.1183,-2.3923342,7.903364999999999,-2.2375347999999997,-1
143,144,1583935535465,-0.019199999,-1.6291,-2.2094998,-2.8189905,7.8672130000000005,-2.1986623,-1
144,145,1583935535475,-0.45929998,-1.5859,-2.0077999,-3.4426322,7.8413076,-1.9234442999999999,-1
145,146,1583935535485,-1.0638,-1.6425999,-1.7493999,-3.9281476000000004,7.8738684999999995,-1.8008802,-1
146,147,1583935535495,-1.2918,-1.5173,-1.6481999,-3.779209,8.09832,-1.8140483,-1
147,148,1583935535506,-0.96199995,-1.2311,-1.6836,-3.355196,8.375568,-1.6928346999999997,-1
148,149,1583935535516,-0.5221,-0.9499,-1.4534,-2.8128613999999996,8.669472,-1.2382715,-1
149,150,1583935535526,-0.0832,-0.76,-1.0735999,-2.3470454,8.83426,-1.024364,-1
150,151,1583935535536,0.33179998,-0.60069996,-0.9119,-2.0351577,8.936186,-0.9514461999999999,-1
151,152,1583935535546,0.63199997,-0.49929997,-0.8573,-1.7386404999999998,9.102439,-0.8668254999999999,-1
152,153,1583935535556,0.9298,-0.3272,-0.76119995,-1.6452379000000001,9.14338,-0.70588726,d
153,154,1583935535566,0.8185,-0.3478,-0.5238,-2.1175373,9.134731,-0.27050647,-1
154,155,1583935535577,0.3389,-0.3547,-0.1531,-2.7665193,8.987345,-0.092933334,-1
155,156,1583935535587,-0.2865,-0.5057,-0.028099999,-3.1787240000000003,8.930344,-0.18970697,-1
156,157,1583935535597,-0.5941,-0.5279,-0.15699999,-3.2973519999999996,8.990046000000001,-0.44390413,-1
157,158,1583935535607,-0.6477,-0.4423,-0.3852,-3.3042762000000003,9.05308,-0.7500555,-1
158,159,1583935535617,-0.61579996,-0.3475,-0.8246,-3.3457437000000003,9.101041,-1.4028393,-1
159,160,1583935535627,-0.67649996,-0.3518,-1.3334,-3.3669467000000006,9.109755499999999,-1.7076596000000002,-1
160,161,1583935535637,-0.66459996,-0.3186,-1.5263,-3.3945565,9.1339655,-1.7237006000000001,-1
161,162,1583935535647,-0.6994,-0.29749998,-1.4861,-3.4278263999999994,9.181610000000001,-1.4359465,-1
162,163,1583935535657,-0.73289996,-0.22999999,-1.1455,-3.3483004999999997,9.287500999999999,-1.0295353999999999,-1
163,164,1583935535667,-0.5203,-0.0771,-0.6782,-2.8299081000000004,9.480694999999999,-0.61134505,-1
164,165,1583935535678,-0.0696,0.07369999599999999,-0.392,-2.3186883999999996,9.759437,-0.37579387,-1
165,166,1583935535688,0.32009998,0.31239998,-0.2338,-2.0863647000000003,9.824415,-0.31911835,-1
166,167,1583935535698,0.54649997,0.35599998,-0.19119999,-2.1733606,9.752025,-0.1986134,-1
167,168,1583935535708,0.40719998,0.2938,-0.037699997,-2.2334647000000003,9.767328,0.040423702,-1
168,169,1583935535719,0.37269998,0.17449999,0.1444,-2.233752,9.636766999999999,0.06106172,-1
169,170,1583935535729,0.48409998,0.0676,-0.089899994,-2.1291924,9.536986,-0.19507957,-1
170,171,1583935535739,0.48409998,0.0676,-0.089899994,-2.2183812,9.545032,-0.16705781,-1
171,172,1583935535749,0.3434,0.1016,-0.055,-2.2827756,9.5660715,-0.16366763,-1
172,173,1583935535759,0.3434,0.1016,-0.055,-2.4776251,9.525255,-0.28486213,-1
173,174,1583935535770,0.050499998,0.028999999999999998,-0.2455,-2.5977185,9.489417999999999,-0.35649663,-1
174,175,1583935535780,0.059000000000000004,0.0314,-0.2444,-2.61873,9.483701,-0.34758064,-1
175,176,1583935535790,0.059000000000000004,0.0314,-0.2444,-2.689062,9.437704,-0.32501766,-1
176,177,1583935535800,-0.059499998,-0.0739,-0.1397,-2.7134829,9.367572000000001,-0.23889345,-1
177,178,1583935535810,0.0,-0.1424,-0.0444,-2.6709235000000002,9.299078999999999,-0.16197254,-1
178,179,1583935535820,0.1563,-0.1523,0.0413,-2.4892802000000005,9.314948,-0.08192958,-1
179,180,1583935535830,0.1952,-0.07400000000000001,-0.0668,-2.5052927000000005,9.382876,-0.1948114,-1
180,181,1583935535842,0.0788,-0.0246,-0.0657,-2.6875873,9.438814,-0.14936946,-1
181,182,1583935535850,-0.094299994,-0.0138,0.044000000000000004,-2.795604,9.423414999999999,-0.05259582,-1
182,183,1583935535860,-0.1786,-0.061699998,0.0777,-2.8527009999999997,9.382742,-0.040270474,-1
183,184,1583935535870,-0.0777,-0.0019999999,-0.0613,-2.7348297,9.476557000000001,-0.22194250000000001,-1
184,185,1583935535881,-0.076,0.086799994,-0.218,-2.7734911,9.541286,-0.364273,-1
185,186,1583935535891,-0.1814,0.13669999,-0.1496,-2.8954232,9.577065,-0.26206929999999995,-1
186,187,1583935535901,-0.51159996,0.0887,0.0449,-3.2836955000000003,9.498977,-0.12981361,-1
187,188,1583935535911,-0.5888,0.030299998999999998,-0.2007,-3.2434347000000003,9.482418,-0.43421245,-1
188,189,1583935535921,-0.43699998,0.028999999999999998,-0.5744,-3.0751796000000002,9.479296000000001,-0.80185646,-1
189,190,1583935535931,-0.3595,0.025999999,-0.7083,-3.0084772,9.461387,-0.8609931999999999,-1
190,191,1583935535942,-0.22809999,0.021599998999999998,-0.5959,-2.830004,9.493181,-0.73753864,-1
191,192,1583935535952,0.085599996,0.064899996,-0.4416,-2.4866946,9.542589,-0.56806743,-1
192,193,1583935535962,0.3198,0.1864,-0.2624,-2.2273834,9.71839,-0.28901845,-1
193,194,1583935535972,0.4387,0.3478,0.0219,-2.1497439999999997,9.823323,-0.035999216,-1
194,195,1583935535982,0.308,0.32439998,0.2377,-2.39718,9.771522500000001,0.29421866,-1
195,196,1583935535992,0.0958,0.303,0.5933,-2.4932737,9.785658,0.62801826,-1
196,197,1583935536003,0.1425,0.2826,0.66029996,-2.3895283,9.752675,0.54201853,-1
197,198,1583935536014,0.21169999,0.273,0.48,-2.3655863,9.708096000000001,0.36225229999999997,-1
198,199,1583935536024,0.1178,0.19569999,0.3048,-2.5208645,9.63307,0.19942743,-1
199,200,1583935536034,-0.042099997,0.1681,0.20089999,-2.6563666,9.641307000000001,0.13418064,-1
200,201,1583935536044,0.0047,0.2094,0.1765,-2.4666407,9.748855,0.06924031,-1
201,202,1583935536054,0.1889,0.29,0.0932,-2.3460400000000003,9.763104,-0.076480374,-1
202,203,1583935536065,0.2857,0.2924,-0.21579999,-2.3433585,9.700635,-0.42891645,-1
203,204,1583935536075,0.2659,0.2166,-0.35189998,-2.3271162999999997,9.683827,-0.37187698,-1
204,205,1583935536085,0.3051,0.1801,-0.2003,-2.3750386000000003,9.577361999999999,-0.12524548,-1
205,206,1583935536095,0.20709999,0.1043,0.0635,-2.4824040000000003,9.574766,0.21353406,-1
206,207,1583935536105,0.1478,0.1166,0.39319998,-2.5230672000000003,9.539017,0.53684705,-1
207,208,1583935536115,0.1361,0.0893,0.6745,-2.523929,9.546171000000001,0.7937831999999999,-1
208,209,1583935536125,0.15269999,0.091199994,0.83239996,-2.4846833,9.516655,0.79645514,-1
209,210,1583935536136,0.1884,0.043899997999999996,0.74219996,-2.5404202999999996,9.469805000000001,0.6161909000000001,-1
210,211,1583935536146,0.1466,0.0166,0.5216,-2.5175033,9.453046,0.3221542,-1
211,212,1583935536156,0.14559999,0.0093,0.2473,-2.50422,9.491602,0.09292376,-1
212,213,1583935536166,0.23429999,0.0613,0.122099996,-2.3953029999999997,9.52989,-0.01562935,-1
213,214,1583935536176,0.31469998,0.0844,0.026099999,-2.496865,9.4862,-0.21445343,-1
214,215,1583935536186,0.19209999,0.0396,-0.1495,-2.766481,9.429181,-0.21484609,-1
215,216,1583935536197,-0.0945,-0.0042,-0.092599995,-3.0104883,9.435692999999999,-0.005602431999999999,-1
216,217,1583935536207,-0.2555,0.0128999995,0.110999994,-3.0263762,9.442961,0.10700166,-1
217,218,1583935536217,-0.24589999,0.0157,0.192,-3.049897,9.389753,0.08100063,-1
218,219,1583935536227,-0.2812,-0.019299998999999998,0.1391,-3.1074152,9.334667,-0.033145327,-1
219,220,1583935536237,-0.28939998,-0.0845,0.0777,-2.9906356,9.336428999999999,-0.11841721,-1
220,221,1583935536247,-0.17279999,-0.0818,-0.0229,-2.9681396,9.305955,-0.2761185,-1
221,222,1583935536257,-0.1563,-0.089499995,-0.1727,-2.9603347999999996,9.340949,-0.3988453,-1
222,223,1583935536268,-0.1218,-0.048699997,-0.2747,-2.8622872999999998,9.360773,-0.47443500000000005,-1
223,224,1583935536278,-0.030199998999999998,-0.027999998999999998,-0.32979998,-2.7706661,9.398486,-0.503922,-1
224,225,1583935536288,0.041899998,0.0122,-0.35819998,-2.827619,9.411033,-0.48196238,-1
225,226,1583935536298,-0.0504,-0.005699999599999999,-0.2823,-3.0534499,9.326891,-0.17172173,-1
226,227,1583935536308,-0.2093,-0.07200000000000001,-0.0335,-3.107128,9.278758,0.06270893,-1
227,228,1583935536319,-0.26,-0.1187,0.1646,-3.0340759999999998,9.276565,0.07965988,-1
228,229,1583935536329,-0.1498,-0.1347,-0.1291,-3.013553,9.254883,-0.24084711,-1
229,230,1583935536339,-0.23349999,-0.103999995,-0.1619,-3.0951953,9.284935,-0.26973078,-1
230,231,1583935536350,-0.21100000000000002,-0.093399994,-0.1469,-3.0728526,9.294905,-0.24327962,d
231,232,1583935536360,-0.1217,-0.083299994,-0.0648,-2.961589,9.321193,-0.15369816,-1
232,233,1583935536370,-0.0137,-0.0931,-0.033299997000000005,-2.8827624,9.298351,-0.12492944,-1
233,234,1583935536380,-0.0233,-0.13239999,0.0953,-2.8991580000000003,9.254154,0.036506787,-1
234,235,1583935536390,-0.0423,-0.12239999,0.23369999,-2.9152565,9.265915,0.19847932,-1
235,236,1583935536401,-0.051599998,-0.0929,0.2272,-2.9224775000000003,9.3028145,0.16989255,-1
236,237,1583935536411,0.017199999,-0.0242,0.1651,-2.8334036,9.372494999999999,0.10481815,-1
237,238,1583935536421,0.067499995,0.015299999,0.13499999,-2.8080156,9.402556,0.093345135,-1
238,239,1583935536431,0.0514,0.0066,0.1265,-2.8579874,9.368013000000001,0.082647845,-1
239,240,1583935536441,-0.2075,-0.1485,0.2171,-3.1650581,9.21601,0.21934718,-1
240,241,1583935536452,-0.5342,-0.15619999,0.44619998,-3.4486272000000007,9.223796,0.42288306,-1
241,242,1583935536462,-0.48119998,-0.1059,0.4721,-3.3351900000000003,9.276842,0.38166448,-1
242,243,1583935536472,-0.1576,-0.047,0.2472,-2.9770367,9.357287,0.10195468,-1
243,244,1583935536482,0.1442,0.050499998,-0.0244,-2.6714884999999997,9.429276,-0.24940878,-1
244,245,1583935536492,0.2905,0.040599998,-0.2969,-2.5844831000000004,9.413062,-0.46703213,-1
245,246,1583935536502,0.3123,0.021699998999999998,-0.3281,-2.5961957,9.419239,-0.4326035,-1
246,247,1583935536513,0.2395,0.0235,-0.1885,-2.738239,9.358887,-0.23987985,-1
247,248,1583935536523,0.041899998,-0.0916,-0.0133,-2.9432304,9.2712965,-0.04669651,-1
248,249,1583935536533,-0.15439999,-0.1082,0.1603,-3.1201618,9.246914,0.11424173,-1
249,250,1583935536543,-0.25329998,-0.1839,0.26569998,-3.2509810000000003,9.128871,0.19286731,-1
250,251,1583935536553,-0.39299998,-0.33859998,0.3631,-3.3080684999999996,9.047400999999999,0.29147009999999995,-1
251,252,1583935536564,-0.23199999999999998,-0.3274,0.32549998,-3.0614657000000003,9.042555,0.09641929,-1
252,253,1583935536574,0.0624,-0.32729998,0.0072,-2.7525465000000002,9.001529,-0.22718102,-1
253,254,1583935536584,0.3066,-0.41579998,-0.20189999,-2.5975747000000005,8.881310000000001,-0.37735492,-1
254,255,1583935536594,0.3757,-0.5725,-0.266,-2.5355554,8.686977,-0.39022613,-1
255,256,1583935536604,0.3983,-0.7578,-0.23529999,-2.5576587,8.489753,-0.28848216,-1
256,257,1583935536614,0.4233,-0.95229995,-0.11009999,-2.4568722000000003,8.26035,-0.12338758,-1
257,258,1583935536625,0.5086,-1.2346,0.070999995,-2.46236,7.903125999999999,0.051829677000000005,-1
258,259,1583935536635,0.46899998,-1.6043999,0.22129999,-2.4947581000000003,7.5012064,0.17613663,-1
259,260,1583935536645,0.4894,-2.0424,0.3035,-2.4380537999999996,7.017462299999999,0.20660044,-1
260,261,1583935536655,0.56009996,-2.5191998,0.3184,-2.3725965,6.4415135,0.21576546,-1
261,262,1583935536666,0.6224,-3.1917,0.3148,-2.4078007,5.7194605,0.32971987,-1
262,263,1583935536676,0.5787,-3.9224,0.5072,-2.347534,4.987610299999999,0.58157074,-1
263,264,1583935536686,0.7995,-4.6335,0.78709996,-2.0547516,4.098835,0.81308043,-1
264,265,1583935536696,0.98899996,-5.3943,0.90059996,-2.1613702999999997,3.2779973,0.9705232,-1
265,266,1583935536706,0.8333,-6.2145,1.092,-2.4497375,2.5199833,1.2675862,-1
266,267,1583935536717,0.5732,-6.9386997,1.4004999,-2.5454673999999997,1.8884889,1.6118436,-1
267,268,1583935536727,0.5263,-7.5590997,1.7102,-2.2706418,1.416563,1.6812947,-1
268,269,1583935536738,0.8346,-8.0085,1.7209999999999999,-1.7563959999999998,1.0823038,1.5045164,-1
269,270,1583935536748,1.341,-8.335899000000001,1.5130000000000001,-1.0561781000000001,0.86788857,1.0585532,-1
270,271,1583935536758,2.0098,-8.54,1.046,-0.38246894,0.6248292,0.4944697,-1
271,272,1583935536768,2.4738,-8.7659,0.5909,-0.18805975,0.5007520999999999,0.41182184,-1
272,273,1583935536778,2.6009998,-8.913899,0.5258,-0.09339302,0.42140824,0.37122577,-1
273,274,1583935536789,2.6281998,-9.0128,0.49679998,0.07009265,0.46862188,0.5080305,-1
274,275,1583935536799,2.6924999,-8.9942,0.6421,0.20017442,0.6042869000000001,0.5363778,-1
275,276,1583935536809,2.7358,-8.8674,0.65959996,-0.17882772,0.6924893,0.4759673,-1
276,277,1583935536819,1.7874,-8.6917,0.64629996,-0.6318394,0.8153406,0.49377057,-1
277,278,1583935536829,1.5794,-8.1353,0.4664,-0.73942524,1.40079,0.30095115,-1
278,279,1583935536840,1.4929999,-7.3269,0.2724,-0.7239874,2.234968,0.110736616,-1
279,280,1583935536850,1.4929999,-7.3269,0.2724,-0.8025843,2.9072218,0.09086475,-1
280,281,1583935536860,0.81729996,-5.8722,0.35169998,-1.1483357,3.7540987,0.20965546,-1
281,282,1583935536870,0.9557,-4.8222,0.092,-0.86196053,4.817766000000001,-0.066893995,-1
282,283,1583935536880,1.6912999,-3.5069999999999997,-0.2545,0.17649096,6.4266315,-0.39903679999999997,-1
283,284,1583935536890,1.8966999,-2.1304,-0.35639998,0.50765693,7.9186788,-0.52357364,-1
284,285,1583935536901,2.0579,-0.4858,-0.4405,0.6889841999999999,9.49957,-0.502361,-1
285,286,1583935536911,1.3848,0.6818,-0.20539999,0.04139096,10.650041,-0.25647646,-1
286,287,1583935536921,0.6598,1.7543,-0.0106,-0.5201164,11.747160000000001,-0.03310702,-1
287,288,1583935536932,0.2663,2.8679,0.1109,-0.6626959,12.636041,0.08417056,-1
288,289,1583935536942,0.6171,4.1102,-0.59099996,0.40452433,14.549966,-1.2209663,-1
289,290,1583935536952,2.1369998,6.0106997,-2.316,2.2208424,16.706913,-3.2199619999999998,-1
290,291,1583935536962,3.2710000000000004,8.0704,-4.4028,3.1945639999999997,18.541866,-4.9575777,-1
291,292,1583935536972,4.1184998,9.7802,-5.184,4.3030029999999995,20.224970000000003,-4.929125,-1
292,293,1583935536983,4.7387,11.1212,-4.0596,4.70068,21.260654000000002,-3.1475997000000002,-1
293,294,1583935536993,4.371299700000001,11.7998,-2.1936998,4.050108,21.690645,-0.9233190999999998,-1
294,295,1583935537003,3.0417,11.7581,-0.1311,2.7845904999999997,21.557966,0.96190405,-1
295,296,1583935537013,1.795,11.5758,1.4496,2.2808982999999996,21.172384,2.4276152,-1
296,297,1583935537023,1.9593999,11.1847,2.1473,3.054647,20.808744,2.8724866000000002,-1
297,298,1583935537034,2.8246,10.7991,2.1273,4.0555286,20.393112,2.9092135,-1
298,299,1583935537044,3.1536999,10.4753,2.0993,4.1941337999999995,19.951601,3.1914232000000005,-1
299,300,1583935537054,2.7389,10.0524,2.3876998,3.3155577000000003,19.346365,3.6724277,-1
300,301,1583935537064,1.3158,9.339399,2.7763999,1.9864211999999999,18.650517,3.9261364999999997,-1
301,302,1583935537074,-0.5475,8.4307995,2.9559,-0.25244462,17.544012,3.9552405,-1
302,303,1583935537084,-2.5002,7.5045,2.7217999,-1.988509,16.552084,3.1570327000000002,-1
303,304,1583935537094,-3.9745,6.5421,1.6723,-2.7342932,15.737604000000001,1.7563577000000001,-1
304,305,1583935537104,-4.2313,5.8229,0.27699998,-2.3173382,15.081757000000001,0.27394456,-1
305,306,1583935537115,-3.5586,5.1956,-0.9827,-1.2571187,14.542793,-0.8917635,-1
306,307,1583935537125,-2.4656,4.7103,-1.9109999,0.015591041000000002,14.113273999999999,-1.7082247,-1
307,308,1583935537135,-1.2102,4.3759,-2.4578,1.2732748,13.814035999999998,-1.9006705000000002,-1
308,309,1583935537145,-0.17539999,4.0334,-2.3890998,2.0333092,13.390473000000002,-1.4265229,-1
309,310,1583935537155,0.2366,3.5725,-1.6597998999999999,2.0867193,12.878077000000001,-0.42119753,-1
310,311,1583935537165,0.0515,3.0595999,-0.6017,1.5788611000000001,12.193822,0.810964,-1
311,312,1583935537175,-0.4174,2.4838998,0.29979998,1.2587947,11.723285,1.2570995,-1
312,313,1583935537185,-0.85139996,1.8555,0.752,0.7894258000000001,11.134656,1.6125236,-1
313,314,1583935537195,-1.1373999,1.3807,1.0335,0.7895694000000001,10.803892,1.6108093,-1
314,315,1583935537205,-1.0662999,1.0192,0.8423,0.7847044,10.424268,1.1700462999999999,-1
315,316,1583935537215,-0.96739995,0.70949996,0.41099998,1.1354166,10.249664,0.6460514,-1
316,317,1583935537226,-0.44689998,0.5664,-0.2611,1.9253691000000002,10.129273,-0.5375941,-1
317,318,1583935537236,0.2453,0.4711,-1.2294999,2.2230449,10.032202999999999,-1.1460565,-1
318,319,1583935537246,0.49929997,0.3074,-1.7574999,2.3374593,9.881196000000001,-1.3480792,-1
319,320,1583935537256,0.6207,0.242,-1.6868,2.1456835,9.766351,-0.7932948000000001,-1
320,321,1583935537266,0.3522,0.0694,-1.1364,1.8080148999999999,9.626501,-0.19818243,-1
321,322,1583935537276,-0.0033999997999999997,-0.0826,-0.33879998,1.4460307,9.511953,0.7982746999999999,-1
322,323,1583935537287,-0.22469999,-0.1943,0.39,1.2840582,9.370686,1.4553682,-1
323,324,1583935537296,-0.3522,-0.3148,1.0016999,1.1717607,9.316069,1.8824555,-1
324,325,1583935537307,-0.4155,-0.40559998,1.3586999,1.1714351,9.143783,1.9295255,-1
325,326,1583935537317,-0.3556,-0.5554,1.2799,1.4786206,9.106471,1.5064030000000002,-1
326,327,1583935537328,0.0733,-0.5682,0.7351,2.1357331000000004,9.157448,0.62198484,-1
327,328,1583935537338,0.72609997,-0.5029,-0.1617,2.5253081,9.281573,-0.12761095,-1
328,329,1583935537348,1.0389,-0.3892,-0.7809,2.3922193,9.354491000000001,-0.29489863,-1
329,330,1583935537358,0.9159,-0.3348,-0.83669996,2.125122,9.3859415,-0.0056120087,-1
330,331,1583935537368,0.66899997,-0.29979998,-0.5499,1.7266598999999998,9.352001,0.43467212,-1
331,332,1583935537378,0.305,-0.3427,-0.1373,1.2914324,9.300497,0.9413905,-1
332,333,1583935537389,-0.18899999999999997,-0.41399997,0.4721,0.89752877,9.202592999999998,1.424751,-1
333,334,1583935537399,-0.52279997,-0.5136,0.8933,0.69670314,9.031283,1.6576973999999998,-1
334,335,1583935537410,-0.6186,-0.7687,1.0153999,0.79557407,8.912692999999999,1.6085875,-1
335,336,1583935537420,-0.11449999,-0.82659996,0.6412,1.4213226,8.881703,1.1445147,-1
336,337,1583935537430,0.5535,-0.78639996,0.0083,1.9260682,8.913325,0.6398935,d
337,338,1583935537441,0.87399995,-0.7079,-0.3188,2.2475042000000003,8.977452,0.29055074,-1
338,339,1583935537451,0.7037,-0.7288,-0.3135,2.0869968,8.968,0.30294309999999997,-1
339,340,1583935537462,0.3062,-0.7898,-0.28059998,1.5604353000000002,8.890006,0.38203797,-1
340,341,1583935537472,-0.175,-0.82199997,0.0053999997,0.9354815999999999,8.850138000000001,0.7081090999999999,-1
341,342,1583935537482,-0.7055,-0.8638,0.28149998,0.46127650000000003,8.848635,0.9746795,-1
342,343,1583935537493,-0.9576,-0.8657,0.4215,0.3223745,8.841596000000001,1.0013604,-1
343,344,1583935537503,-0.96449995,-0.84679997,0.2789,0.3495247,8.876330000000001,0.80800474,-1
344,345,1583935537513,-0.8346,-0.7578,0.0385,0.70859754,9.040027,0.43682688,-1
345,346,1583935537523,-0.21509999,-0.49069998,-0.4298,1.3593701999999999,9.334964,0.013560758999999999,-1
346,347,1583935537533,0.3401,-0.1735,-0.6888,1.8196316000000003,9.644333,-0.13687173,-1
347,348,1583935537543,0.5324,0.08549999400000001,-0.6428,1.9296308999999998,9.869062,0.10334332,-1
348,349,1583935537553,0.4725,0.3055,-0.2218,1.7484376,10.086859,0.62591136,-1
349,350,1583935537563,0.1121,0.5056,0.33409998,1.372797,10.274467,1.2023107,-1
350,351,1583935537573,-0.3242,0.7247,0.77639997,0.8814493,10.505096,1.5788993999999998,-1
351,352,1583935537583,-0.7108,1.0511,1.0114,0.72754043,10.94675,1.6565863999999997,-1
352,353,1583935537594,-0.63879997,1.6222999,0.8346,0.9029396000000001,11.583847,1.4255556,-1
353,354,1583935537604,-0.4016,2.4287999,0.6432,1.2060552,12.679348,1.2834836,-1
354,355,1583935537614,-0.20269999,3.3725,0.5797,1.4426406999999999,13.436978,1.2780056999999998,-1
355,356,1583935537625,0.2067,4.4038997,0.6306,1.9997714,14.664867999999998,1.3810234,-1
356,357,1583935537634,0.62409997,5.3561,0.75439996,2.21773,15.369807000000002,1.537834,-1
357,358,1583935537644,0.733,6.1496,1.1059999999999999,2.1166372000000004,16.089294,2.00885,-1
358,359,1583935537654,0.3058,6.7535996,1.6769999,1.4739854,16.636723,2.602296,-1
359,360,1583935537664,-0.3701,7.1972,2.1304998,0.83997214,17.053295000000002,2.923282,-1
360,361,1583935537674,-0.6238,7.5596,2.1864,0.7261422,17.44445,2.9046645,-1
361,362,1583935537684,-0.4035,7.8427,2.113,1.1153342,17.709823999999998,2.8923872000000004,-1
362,363,1583935537694,0.18949999,8.0484,2.1419,1.6401622,17.818779,3.0365276000000003,-1
363,364,1583935537704,0.81299996,8.0602,2.3592,1.9512839,17.669687,3.5635392999999995,-1
364,365,1583935537714,1.0875,7.8107996,2.9452,1.9563118000000002,17.29897,4.3864074,-1
365,366,1583935537724,1.1896,7.389199700000001,3.6996998999999997,1.8605629000000001,16.804825,5.280699299999999,-1
366,367,1583935537734,1.1669999,6.864,4.4505,1.7076787,16.30595,6.0922856,-1
367,368,1583935537744,1.3220999,6.3912997,4.9687,1.7784513,15.927560999999999,6.375338,-1
368,369,1583935537754,1.5244,5.8615,4.8866,1.7722360000000001,15.233616,6.055118,-1
369,370,1583935537764,1.6456,5.2240996,4.3006997,1.6239966000000001,14.571245999999999,5.5781545999999995,-1
370,371,1583935537774,1.5392,4.3217998,3.6144,1.1032386,13.315045999999999,4.66855,-1
371,372,1583935537785,1.1541,3.1345,2.7309,0.55172944,12.180845,3.8574517,-1
372,373,1583935537795,0.8993,2.1231,1.9550999,0.3257934,11.206358,2.9170377,-1
373,374,1583935537805,1.0433,1.1994,0.833,0.38789898,10.543144,1.7058305,-1
374,375,1583935537815,1.2794,0.6885,-0.1554,0.36052847,10.078871000000001,0.94502974,-1
375,376,1583935537825,1.3633,0.3078,-0.9345,0.16985425,9.825832,0.11775642,-1
376,377,1583935537835,1.1573,-0.118999995,-1.8505,-0.286222,9.322035000000001,-0.6578596,-1
377,378,1583935537845,0.73649997,-0.5728,-2.1808,-1.1546372999999999,8.728762,-0.8403456,-1
378,379,1583935537855,0.0652,-1.1432999,-2.1692998,-2.2004917,7.9191194000000005,-0.63790154,-1
379,380,1583935537865,-0.9984,-2.0283,-1.6299,-3.5348089999999996,6.922067599999999,0.23078189999999998,-1
380,381,1583935537875,-2.0289,-3.0239,-0.5528,-3.338542,6.400343,1.100557,-1
381,382,1583935537885,-0.73829997,-3.0252,-0.4978,-1.5548042,6.5007553,-0.2211955,-1
382,383,1583935537896,1.1137999,-3.1213,-2.0655,0.19390161,6.454021,-1.9941498,-1
383,384,1583935537906,2.3302999,-3.1201,-3.2817,0.65236247,6.2791963,-2.5211902000000004,-1
384,385,1583935537916,2.6494,-3.3806,-3.5611,0.3321045,5.8901769999999996,-1.9384414,-1
385,386,1583935537926,2.2609,-3.7254998999999995,-2.7291,-0.27943206,5.524247,-0.9606111999999999,-1
386,387,1583935537936,1.4463999,-4.2345,-1.4145,-1.390878,4.9473495000000005,0.39129874,-1
387,388,1583935537946,0.27809998,-4.7538,-0.1727,-2.9821124,4.3642654,1.5724733999999998,-1
388,389,1583935537957,-1.0174,-5.2669,0.8515,-3.9546657,3.9350523999999996,2.5479572,-1
389,390,1583935537967,-1.6545999,-5.5999,1.7642,-3.031883,4.0301595,2.3202016,-1
390,391,1583935537977,-0.405,-5.4315,1.203,-1.0803691,4.2787256,0.03686113,-1
391,392,1583935537987,1.5905,-5.1902,-1.1199,0.614084,4.6802235,-2.6933906000000003,-1
392,393,1583935537997,3.0497,-4.8117,-3.6376998,1.3860896,4.7432485,-4.460024400000001,-1
393,394,1583935538008,3.6239,-4.8011,-4.999,1.3059508,4.8402715,-5.035677,-1
394,395,1583935538018,3.2898998,-4.6960998,-5.3329,0.19954234,4.920965,-4.394912000000001,-1
395,396,1583935538028,2.4103,-4.6451,-4.6098,-0.5326141,5.04216,-2.9089456,-1
396,397,1583935538038,1.5681,-4.4634,-2.6999,-1.3345951,5.245926,-0.8769195,-1
397,398,1583935538048,0.7773,-4.2507,-0.76489997,-2.178264,5.4844456,0.93443775,-1
398,399,1583935538059,-0.084699996,-3.9692998,0.91319996,-3.0717034,5.854465,2.3068805,-1
399,400,1583935538069,-0.87649995,-3.6115,2.0618,-3.326772,6.221678,2.4321928,-1
400,401,1583935538079,-1.0158,-3.3169999999999997,2.0128,-2.5373172999999998,6.6412759999999995,1.0950791000000002,-1
401,402,1583935538089,-0.23959999,-2.9003,0.6943,-1.5866661,7.0017567,-0.6022854000000001,-1
402,403,1583935538100,0.6555,-2.5507998,-0.9192,-1.050614,7.331888,-1.4765424999999999,-1
403,404,1583935538110,1.0462999,-2.0986,-1.686,-1.1617911,7.468463400000001,-1.4171184,-1
404,405,1583935538120,0.5305,-2.0806,-0.9404,-1.6782205000000001,7.480884,-0.6785741999999999,-1
405,406,1583935538130,-0.0572,-2.0216,-0.2039,-2.371227,7.5595484,0.19082746,-1
406,407,1583935538141,-0.51809996,-1.8745999,0.1611,-2.811597,7.767460300000001,0.5089307,-1
407,408,1583935538151,-0.62369996,-1.5530000000000002,0.23979999,-2.8140967,8.089452,0.44062890000000005,-1
408,409,1583935538161,-0.5645,-1.3519,-0.0748,-2.7075167,8.303934,0.062153477,-1
409,410,1583935538171,-0.3701,-1.0458,-0.3728,-2.4451025,8.570591,-0.2325536,-1
410,411,1583935538181,0.02,-0.8594,-0.6684,-1.9861052,8.77722,-0.570634,-1
411,412,1583935538191,0.48189998,-0.7134,-0.8965,-1.4782567,8.931952,-0.76801205,-1
412,413,1583935538201,0.48189998,-0.7134,-0.8965,-0.9774376,9.128391,-1.0312879000000001,-1
413,414,1583935538211,1.1795,-0.3909,-1.1231999,-0.7572477,9.238995,-0.9788167,-1
414,415,1583935538222,1.2888,-0.28079998,-0.98289996,-0.62740535,9.363463000000001,-0.8476528,-1
415,416,1583935538232,1.1929,-0.16849999,-0.82989997,-0.7281055000000001,9.480551,-0.6689974,-1
416,417,1583935538242,1.0591999,-0.0637,-0.5828,-0.82800114,9.576577,-0.46662033,-1
417,418,1583935538252,0.74909997,0.0431,-0.32729998,-1.1915463,9.695962,-0.15666698,-1
418,419,1583935538262,0.387,0.0826,-0.17029999,-1.6282678,9.702053,0.030157363,-1
419,420,1583935538273,0.0576,0.0345,0.0046,-1.8940721999999999,9.646268,0.24707204,-1
420,421,1583935538283,-0.1644,-0.0625,0.3635,-2.1097897999999997,9.560038,0.6758831,-1
421,422,1583935538293,-0.34059998,-0.1112,0.6046,-2.3517667999999996,9.51021,0.8178785,-1
422,423,1583935538303,-0.61759996,-0.1311,0.5652,-2.4879205,9.526988000000001,0.6698976,-1
423,424,1583935538313,-0.4078,0.005,0.2104,-2.0756674,9.726242999999998,0.22327366,-1
424,425,1583935538324,0.1236,0.1994,-0.282,-1.5220132,9.914839,-0.2926289,-1
425,426,1583935538334,0.6781,0.4042,-0.66099995,-1.022621,10.132367,-0.5597835,-1
426,427,1583935538344,0.98469996,0.5516,-0.7073,-0.87793463,10.228968,-0.45154646,-1
427,428,1583935538354,0.91899997,0.62259996,-0.37649998,-1.0735025,10.241657,-0.07044699,-1
428,429,1583935538364,0.578,0.49929997,0.0277,-1.6577357,10.045678,0.44013090000000005,-1
429,430,1583935538374,0.0753,0.3771,0.3822,-2.1134098,9.917799,0.624676,-1
430,431,1583935538385,-0.3003,0.22549999,0.4646,-2.4699445,9.775344,0.5807184,-1
431,432,1583935538395,-0.6071,0.1523,0.36589998,-2.6730783,9.753680000000001,0.34404677,-1
432,433,1583935538405,-0.6441,0.1547,0.051,-2.5239577,9.795503,-0.0077093295,-1
433,434,1583935538415,-0.39209998,0.1951,-0.2111,-2.134996,9.835228,-0.17344554,-1
434,435,1583935538425,-0.047799997000000004,0.2541,-0.3373,-1.9284912,9.798769,-0.29161376,-1
435,436,1583935538435,0.0692,0.17539999,-0.3782,-1.9495697,9.78696,-0.1789139,-1
436,437,1583935538446,0.0691,0.195,-0.2553,-1.7744291,9.876187,-0.15717456,-1
437,438,1583935538456,0.26549998,0.2636,-0.2509,-1.6539241000000002,9.8564205,-0.23147142,-1
438,439,1583935538466,0.3464,0.2346,-0.3245,-1.7736532999999999,9.820977000000001,-0.21881089,-1
439,440,1583935538476,0.1959,0.19669999,-0.2715,-2.0171628,9.7533655,-0.050536807999999996,-1
440,441,1583935538486,-0.0298,0.13,-0.092999995,-2.1817498,9.67199,0.112565786,-1
441,442,1583935538496,-0.1766,0.043899997999999996,0.0451,-2.278897,9.55477,0.21329464,-1
442,443,1583935538507,-0.2465,-0.071899995,0.13419999,-2.3520830000000004,9.457394,0.34440112,-1
443,444,1583935538517,-0.2898,-0.1393,0.3022,-2.2745874,9.5223055,0.43817723,d
444,445,1583935538527,-0.2096,-0.089899994,0.3444,-2.0622313,9.552635,0.35570174,-1
445,446,1583935538537,0.044000000000000004,-0.0314,0.23269999,-1.7443483,9.636192,0.10998962,-1
446,447,1583935538547,0.4535,0.056199998,-0.1209,-1.4056262,9.681386,-0.4775858,-1
447,448,1583935538558,0.6404,0.0758,-0.5135,-1.4238796,9.663257000000002,-0.6232873000000001,-1
448,449,1583935538568,0.6082,0.057699997,-0.65489995,-1.5890892,9.555872,-0.52693504,-1
449,450,1583935538578,0.4242,-0.0867,-0.51879996,-1.9592613999999997,9.384485,-0.117392495,-1
450,451,1583935538588,0.1147,-0.2111,-0.1638,-2.3111804,9.399502,0.38023755,-1
451,452,1583935538598,-0.2742,-0.18859999,0.4122,-2.5309107,9.375214999999999,0.7508024999999999,-1
452,453,1583935538609,-0.4321,-0.21599999,0.6671,-2.3903902,9.493948,0.7408139,-1
453,454,1583935538619,-0.29119998,-0.0975,0.6548,-2.2049832,9.563198,0.49180734,-1
454,455,1583935538629,-0.104499996,-0.0289,0.40539998,-2.1574821,9.585608,-0.00434787,-1
455,456,1583935538639,-0.046099997999999996,-0.019299998999999998,-0.29569998,-2.146258,9.571999,-0.25146779999999996,-1
456,457,1583935538649,-0.13419999,0.0198,-0.2871,-2.238435,9.61046,-0.25618914,-1
457,458,1583935538659,-0.1935,0.0687,-0.1559,-2.2953787,9.657415,-0.12896128,-1
458,459,1583935538670,-0.1935,0.0687,-0.1559,-2.3127892000000005,9.655021000000001,0.12577221,-1
459,460,1583935538680,-0.34399998,0.0778,0.38419998,-2.4836776,9.656323,0.5010394,-1
460,461,1583935538690,-0.5627,0.086899996,0.6920000000000001,-2.6574779,9.674682,0.73491454,-1
461,462,1583935538700,-0.7543,0.2329,0.76129997,-2.8387282000000003,9.858891499999999,0.7367725,-1
462,463,1583935538710,-0.6753,0.3387,0.3985,-2.7510622000000002,9.935488000000001,0.4038348,-1
463,464,1583935538721,-0.40469998,0.5221,-0.1344,-2.4061537,10.150305,-0.2793746,-1
464,465,1583935538732,-0.0714,0.6749,-0.5825,-2.0533151999999997,10.302901,-0.7203099000000001,-1
465,466,1583935538742,0.24949999,0.87829995,-0.7599,-1.662457,10.605787,-0.8770823,-1
466,467,1583935538752,0.4922,1.1504999,-0.7615,-1.5150892,10.811238000000001,-0.8362276,-1
467,468,1583935538762,0.47489998,1.4531,-0.63049996,-1.5437813,11.205554,-0.723432,-1
468,469,1583935538773,0.5112,1.9037,-0.53069997,-1.5504371000000001,11.721926,-0.63037413,-1
469,470,1583935538783,0.37449998,2.3453,-0.6447,-1.686016,12.106003,-1.0071641,-1
470,471,1583935538793,0.31759998,2.7872999,-1.2613,-1.6384383000000002,12.633158,-1.7608107,-1
471,472,1583935538803,0.7285,3.3074,-2.2114,-0.98715806,13.093698,-2.899876,-1
472,473,1583935538813,1.6065999,3.7486,-3.4559,0.0011300632,13.507875,-4.2224617,-1
473,474,1583935538823,2.6138,4.1414,-4.657099700000001,1.2509608,13.920253,-5.675120400000001,-1
474,475,1583935538833,3.5709998999999994,4.3399,-5.7556,1.9064933000000002,13.874945,-6.4092684,-1
475,476,1583935538844,4.0456,4.2083,-6.1236997,2.0685327,13.762158,-6.438296,-1
476,477,1583935538854,4.1403,3.9338,-5.7476,1.9708206999999998,13.335818,-5.838117,-1
477,478,1583935538864,3.8653998,3.4385,-5.1040998,1.5286594999999998,12.703032,-5.034068,-1
478,479,1583935538874,3.658,2.9476,-4.5085,1.3897096000000002,12.246083,-4.5393395,-1
479,480,1583935538884,3.7091,2.5002,-4.1583,1.4309378000000001,11.709311999999999,-4.339203400000001,-1
480,481,1583935538895,3.86,1.9785,-4.0489,1.3638235,11.146417,-4.3424597,-1
481,482,1583935538905,3.8377,1.3834,-4.1302,1.1699027,10.522028,-4.391071299999999,-1
482,483,1583935538915,3.7019,0.7844,-4.1405,0.7070365,9.768621000000001,-4.382117299999999,-1
483,484,1583935538925,3.3147,0.054399997,-4.1228,0.04944505,8.976619,-4.289921,-1
484,485,1583935538935,2.7416,-0.6599,-4.0517,-0.7394923000000001,8.225988000000001,-4.226925,-1
485,486,1583935538946,2.1341999,-1.3794,-4.0381,-1.4915493999999998,7.4292940000000005,-4.2844048,-1
486,487,1583935538956,1.5942,-2.1548998,-4.1426,-2.1052694,6.528605000000001,-4.270825,-1
487,488,1583935538966,1.1753,-2.9687,-4.1228,-2.6968287999999996,5.6969743,-4.1695886,-1
488,489,1583935538976,0.7076,-3.7731998,-4.0589,-3.3154519999999996,4.795749,-3.9251404,-1
489,490,1583935538986,0.3051,-4.5601997,-3.7365,-3.763005,4.073494999999999,-2.9483924,-1
490,491,1583935538996,0.1107,-4.9886,-2.8627,-3.9224589999999995,3.7502297999999996,-1.8688084999999999,-1
491,492,1583935539007,0.1327,-5.2653,-1.9233999,-3.5909769999999996,3.5102732000000003,-1.1260792,-1
492,493,1583935539017,0.5966,-5.4498,-1.3827,-3.1441615,3.2222986000000002,-0.5751255999999999,-1
493,494,1583935539027,1.1432999,-5.7170997,-0.94339997,-2.5356512,2.7704169999999997,-0.014279018999999999,-1
494,495,1583935539037,1.7976999,-6.2123,-0.52779996,-2.0943327000000003,1.9706483,0.7370885,-1
495,496,1583935539047,2.2326999,-7.0105996,0.1761,-2.0533729,0.95679003,1.8517714,-1
496,497,1583935539058,2.2175,-8.0603,1.1870999,-2.4721472,-0.3307159,3.1919785,-1
497,498,1583935539068,1.8405,-9.2534,2.4881,-2.8437943,-1.4347876,5.326754,-1
498,499,1583935539078,1.5967,-10.092899000000001,4.1528997,-3.3838977999999997,-1.9579973000000002,6.897638000000001,-1
499,500,1583935539088,1.0986999,-10.5831995,5.6046,-4.08809,-2.254639,7.751017,-1
500,501,1583935539098,0.435,-10.8287,6.2913,-4.32525,-2.4422295,7.976790400000001,-1
501,502,1583935539109,0.20349999,-11.014999000000001,6.4617,-4.141508999999999,-2.3104239,8.186914999999999,-1
502,503,1583935539119,0.4457,-10.8088,6.6966996,-3.4414446000000005,-1.9391501,8.3545,-1
503,504,1583935539129,1.0367,-10.5189,6.7770996,-2.7262008,-1.3783132,8.60634,-1
504,505,1583935539139,1.7009,-9.9753,7.013499700000001,-2.248031,-0.8924435,8.735465,-1
505,506,1583935539149,2.5126,-9.0858,6.999399700000001,-1.7845422,-0.40493613,8.544255,-1
506,507,1583935539159,2.4977,-8.6289,6.9621,-1.7295426,0.10901279999999999,8.4720545,-1
507,508,1583935539170,2.8472,-7.4708,6.6232996,-1.299247,1.3199809,8.077202999999999,-1
508,509,1583935539180,2.8344,-6.3756,6.3513,-1.2419681999999999,2.6880276000000003,7.7130833,-1
509,510,1583935539190,2.8344,-6.3756,6.3513,-1.3519675,3.6367160000000003,7.8285990000000005,-1
510,511,1583935539200,2.5978,-5.2527,6.4891996,-1.5364838,4.9550495,8.246771,-1
511,512,1583935539210,2.2649,-3.3819999999999997,6.9785,-1.3663135,5.8463817,8.126906,-1
512,513,1583935539220,2.7094998,-2.4112,6.2188,-0.694941,6.797358999999999,7.255072599999999,-1
513,514,1583935539231,3.4331,-1.579,5.7872,0.178052,7.784306,6.939067,-1
514,515,1583935539242,4.2414,-0.22569999,5.7423997,1.3794816,9.497653999999999,7.2629833,-1
515,516,1583935539252,5.0885997000000005,1.0134,6.8938,2.4727792999999996,10.786693,8.900483,-1
516,517,1583935539262,5.866699700000001,2.3871999,8.7557,2.9603634,12.097748,10.678149000000001,-1
517,518,1583935539272,5.3431,3.3476,10.2385,2.3740617999999998,12.871678,11.888274000000001,-1
518,519,1583935539282,3.8674,4.2757,11.3511,0.68472254,13.865138,12.87866,-1
519,520,1583935539292,2.5606,4.6363997,11.236099000000001,-0.3079039,14.087291,12.321683,-1
520,521,1583935539302,1.7429,4.7781,10.124599,-0.67285687,14.280320999999999,11.04292,-1
521,522,1583935539313,1.6682,4.9839,8.7727995,-0.40107667,14.574233,9.510353,-1
522,523,1583935539323,2.2721999,5.4024,7.3539996,0.9535627,15.321043,8.392769,-1
523,524,1583935539333,4.0559,6.5369,6.815,2.8447616,16.538206,7.9972277,-1
524,525,1583935539343,4.9975,7.5192,6.4564,3.2990087999999997,17.432737,7.440508400000001,-1
525,526,1583935539353,4.5972,8.2041,5.6491,2.7482083,17.962154,6.527858,-1
526,527,1583935539364,3.4673998,8.394,4.5979,1.2665518999999998,17.914108,4.7946095,-1
527,528,1583935539374,2.0937,8.1062,2.9259,0.27626213,17.597611999999998,2.9395435,-1
528,529,1583935539384,1.2770000000000001,7.7999997,1.12,0.15823758,17.24827,0.9898203999999999,-1
529,530,1583935539394,1.5055,7.4066997,-0.6554,1.0301867,17.064375,-0.28595388,-1
530,531,1583935539404,2.5019999,7.3690996,-1.4175999,2.3876894,17.28763,-0.8816025,-1
531,532,1583935539414,3.8437,7.7177997000000005,-2.0158,3.6725712,17.601673,-1.4413478000000002,-1
532,533,1583935539424,4.6033,7.9623,-2.4201999,3.5612983999999996,17.635038,-2.0046363,-1
533,534,1583935539434,3.9324,7.641,-3.2134,2.6899047,17.081642000000002,-3.0433654999999997,-1
534,535,1583935539445,2.9192,7.0369997,-4.3076,1.3599832,16.245396,-4.3549666,-1
535,536,1583935539455,1.4774,6.1105,-5.5604997,0.17992905,15.396556,-5.5669694000000005,-1
536,537,1583935539465,0.662,5.3324,-6.5922,-0.24943751,14.615901999999998,-6.255676,-1
537,538,1583935539475,0.3718,4.565,-6.9154,-0.19593188,14.061597,-5.992236599999999,-1
538,539,1583935539485,0.6412,4.1812,-6.3213,0.27750713,13.840516000000001,-5.345429,-1
539,540,1583935539495,1.0905,4.0039,-5.7632,0.639271,13.618008999999999,-4.918667,-1
540,541,1583935539506,1.3836,3.7187,-5.5443997000000005,0.96647215,13.301371,-5.130276,-1
541,542,1583935539516,1.7019999,3.3539,-6.0684,1.3758807,12.858003,-6.0890580000000005,-1
542,543,1583935539526,2.1769,2.8899999,-7.1751,1.8217577,12.292281,-7.533278999999999,-1
543,544,1583935539536,2.4299998,2.4164,-8.2434,1.6196103000000002,11.83859,-8.17932,-1
544,545,1583935539546,2.1106,1.9537,-8.6897,0.93402594,11.297711,-8.241322,-1
545,546,1583935539556,1.4619,1.4239998999999999,-8.5831995,0.28913337,10.856095,-7.862060499999999,-1
546,547,1583935539566,0.87899995,0.9643,-8.123099,-0.19735885,10.4248905,-7.514748,-1
547,548,1583935539577,0.514,0.57409996,-7.8247,-0.47919467,10.039702,-7.729077,-1
548,549,1583935539587,0.2854,0.1743,-8.0826,-0.60362613,9.676664,-8.350678,-1
549,550,1583935539597,0.2609,-0.1664,-8.719,-0.6356701,9.384447,-9.023612,-1
550,551,1583935539607,0.23189999,-0.4385,-9.3264,-0.69202006,9.138371000000001,-9.655298,-1
551,552,1583935539617,0.22729999,-0.69089997,-9.901199,-0.67226315,8.892946,-10.147259,-1
552,553,1583935539627,0.33249998,-0.90449995,-10.3035,-0.27333164,8.763266999999999,-10.275683,-1
553,554,1583935539637,0.7815,-1.0401,-10.3538,0.023989901,8.581211999999999,-10.066009,-1
554,555,1583935539648,1.0270000000000001,-1.2253,-10.0644,0.016270993,8.296158,-9.236868,-1
555,556,1583935539658,0.98289996,-1.4695,-9.3762,-0.21224120000000002,8.0646,-8.387903,-1
556,557,1583935539668,0.72779995,-1.7429999,-8.3452,-0.33810917,7.832238,-7.03495,-1
557,558,1583935539678,0.6409999999999999,-1.9382,-7.2987,-0.30286652,7.7314039999999995,-6.0419116,-1
558,559,1583935539689,0.6624,-2.0258,-6.3848,0.0046926355,7.7049046,-5.110136,-1
559,560,1583935539699,0.9302,-2.0548,-5.5262,0.43930727,7.6805034,-4.312226,-1
560,561,1583935539709,1.319,-2.0844,-4.7943997000000005,0.7064236,7.69936,-3.4296269999999995,-1
561,562,1583935539720,1.5596,-2.0651999,-3.9612,0.7954879,7.756475999999999,-2.4809867999999997,-1
562,563,1583935539730,1.5807999,-1.9892,-2.3562999,0.7797244000000001,7.7940745,-1.681352,-1
563,564,1583935539740,1.3844,-1.874,-1.9692999,0.51756895,7.911017,-1.3808893999999998,-1
564,565,1583935539751,0.7624,-1.8084999,-1.7184,-0.17476715,7.9978213,-1.1523963,-1
565,566,1583935539761,0.1112,-1.6159999,-1.4042,-0.7064428,8.214229,-0.8421748,-1
566,567,1583935539771,-0.048699997,-1.3162999,-0.89699996,-0.79765224,8.501484,-0.39985082,-1
567,568,1583935539781,0.12019999,-1.0566,-0.35,-0.46230119999999997,8.806353,0.15449305,-1
568,569,1583935539791,0.8415,-0.6306,0.4094,0.42721176,9.262813000000001,0.83800894,-1
569,570,1583935539801,1.9614999,-0.1068,0.96169996,1.6117766000000002,9.783925,1.3337809999999999,-1
570,571,1583935539811,2.7640998,0.4175,1.5641999,2.4234014,10.375503,2.0274866,-1
571,572,1583935539822,2.9450998,0.7565,2.2,2.5724645,10.640761,2.4601955,-1
572,573,1583935539832,3.2222998,1.175,2.5187,2.9777932000000003,11.102344,2.5960137999999997,-1
573,574,1583935539842,3.4573998,1.5062,2.4898,3.144286,11.473292,2.4935036,-1
574,575,1583935539852,3.3953,1.7894,2.4692,3.0658135,11.638932,2.402725,-1
575,576,1583935539863,3.1327999,1.8966,2.5382,2.7932672999999997,11.720747,2.515377,-1
576,577,1583935539873,2.8046,1.9061999,2.819,2.398952,11.697667,2.8342657000000004,-1
577,578,1583935539883,2.2619998,1.857,3.2609,1.9300903999999999,11.649075,3.2878517999999994,-1
578,579,1583935539893,1.8751999,1.8075999,3.7751,1.6777415,11.617672,3.8168937999999994,-1
579,580,1583935539903,1.8183999,1.8757,4.374,1.8256553,11.742811999999999,4.370989,-1
580,581,1583935539914,2.082,1.9144,4.7276,2.1313472,11.702848,4.633211599999999,-1
581,582,1583935539924,2.3276,1.8745999,4.8904,2.4221947,11.62065,4.874518,-1
582,583,1583935539934,2.5218,1.7665,5.1225,2.5695245,11.514472999999999,5.1003585,-1
583,584,1583935539944,2.5033998,1.6291,5.2922,2.3582406000000002,11.372592,5.217214599999999,-1
584,585,1583935539954,2.1375,1.5114,5.374,1.7652162,11.180719999999999,5.1190809999999995,-1
585,586,1583935539964,1.4619,1.2469,5.1635,1.0350804,10.920960000000001,4.7909894,-1
586,587,1583935539974,0.81479996,1.0218999,4.7682,0.5763514,10.67586,4.163823000000001,-1
587,588,1583935539985,0.56229997,0.807,4.0476,0.5259008000000001,10.535474,3.5057817000000004,-1
588,589,1583935539995,0.5338,0.6217,3.378,0.3481169,10.292999,2.8167305000000002,-1
589,590,1583935540005,0.3085,0.3678,2.9494998,0.00010534488000000001,10.008644,2.4972196,-1
590,591,1583935540015,-0.0749,0.074599996,2.7112,-0.3270671,9.70979,2.150175,-1
591,592,1583935540025,-0.1971,-0.1793,2.3013,-0.32158917,9.557002,1.6864661,-1
592,593,1583935540035,-0.1977,-0.2865,1.8860999,-0.30958945,9.499091,1.3608451000000001,-1
593,594,1583935540045,-0.12459999,-0.33519998,1.4923999,-0.18360654,9.40837,1.0007571,-1
594,595,1583935540055,0.003,-0.39399999999999996,1.3835,0.0035242648,9.438145,1.2061892,-1
595,596,1583935540066,0.1276,-0.37489998,1.6273999,-0.026680983999999998,9.416328,1.5659994,-1
596,597,1583935540076,0.0941,-0.405,1.9824,-0.12112745,9.394914,1.9835098999999998,-1
597,598,1583935540086,-0.008599999,-0.4253,2.366,-0.1377432,9.338191,2.2060845000000002,-1
598,599,1583935540096,0.0251,-0.46499997,2.5307,0.033748667999999996,9.369086,2.2203443,-1
599,600,1583935540106,0.1469,-0.43559998,2.5017,0.16601394,9.427868,2.0058143,-1
600,601,1583935540117,0.29099998,-0.3665,2.2323,0.23175873,9.4473,1.4604151,-1
601,602,1583935540127,0.3117,-0.3752,1.6837,0.20948307,9.43847,0.8283363000000001,-1
602,603,1583935540138,0.308,-0.37359998,1.2141,0.22068794,9.487273,0.40162256,-1
603,604,1583935540148,0.3376,-0.3225,0.7497,0.28329155,9.532859,-0.10038409,-1
604,605,1583935540158,0.41149998,-0.2706,0.4132,0.24130681,9.562585,-0.46356535,-1
605,606,1583935540168,0.3836,-0.2391,0.0854,-0.019814413,9.559923,-0.66831744,-1
606,607,1583935540178,0.1539,-0.2367,-0.083,-0.47488514,9.516875,-0.725242,-1
607,608,1583935540188,-0.2835,-0.2838,-0.1134,-0.8031685000000001,9.504866999999999,-0.7739401,-1
608,609,1583935540199,-0.61,-0.2923,-0.14389999,-0.6810834,9.56069,-0.83735764,-1
609,610,1583935540209,-0.49929997,-0.23279999,-0.18969999,-0.47885948,9.577342999999999,-0.7798585,-1
610,611,1583935540219,-0.1839,-0.2536,0.0738,-0.33725685,9.538872999999999,-0.5639303000000001,-1
611,612,1583935540230,-0.0523,-0.1568,0.3432,-0.117746845,9.668092999999999,-0.22981463,-1
612,613,1583935540240,0.1489,-0.030499997999999997,0.43649998,0.062661044,9.759091,-0.16816874,-1
613,614,1583935540250,0.0622,-0.0508,0.5064,-0.034438197000000004,9.744755,-0.088958964,-1
614,615,1583935540260,-0.242,-0.0901,0.5064,-0.3234758,9.710662,-0.0873309,-1
615,616,1583935540270,-0.4331,-0.12879999,0.1821,-0.5115354999999999,9.668868,-0.42272025,-1
616,617,1583935540280,-0.5843,-0.0888,-0.12789999,-0.6862548,9.721492999999999,-0.7936108000000001,-1
617,618,1583935540290,-0.67859995,-0.0195,-0.34289998,-0.7464833000000001,9.775333999999999,-0.9696899999999999,-1
618,619,1583935540300,-0.65889996,0.0296,-0.41700000000000004,-0.68371695,9.829682,-1.0287789,-1
619,620,1583935540311,-0.4667,0.10789999,-0.2814,-0.47593856,9.918105,-0.8848299000000001,-1
620,621,1583935540321,-0.258,0.19569999,-0.1707,-0.2838374,9.995667999999998,-0.7909006,-1
621,622,1583935540332,-0.0902,0.24409999,-0.13159999,-0.08310753,10.029828,-0.72536653,-1
622,623,1583935540342,-0.078999996,0.2729,-0.16229999,-0.05239471,10.090009,-0.7996920999999999,-1
623,624,1583935540352,-0.058399998,0.2918,-0.27249998,0.028969841,10.128354,-0.8941481,-1
624,625,1583935540362,0.1273,0.34989998,-0.3358,0.2674419,10.168021000000001,-0.9199002000000001,-1
625,626,1583935540372,0.4398,0.41779998,-0.3428,0.6288227,10.225674,-0.90538174,-1
626,627,1583935540383,0.5676,0.4267,-0.3416,0.67524153,10.213961,-0.8601313,-1
627,628,1583935540393,0.46359998,0.3964,-0.23369999,0.48568773,10.140478,-0.7414268,-1
628,629,1583935540403,0.1963,0.23869999,-0.1849,0.27171317,9.9938,-0.64718145,-1
629,630,1583935540413,0.0677,0.13,-0.14549999,0.1850239,9.898893,-0.62392896,-1
630,631,1583935540423,0.0175,0.040999997,-0.1829,0.17468095,9.840112,-0.6314276,d
631,632,1583935540434,-0.0029,-0.0084,-0.1396,0.19773233,9.799755000000001,-0.5638632,-1
632,633,1583935540444,0.0162,-0.0089,-0.1239,0.15504849999999998,9.7537,-0.49522626,-1
633,634,1583935540454,-0.062099997000000004,-0.0288,-0.008599999,0.16413689,9.795014,-0.34213140000000003,-1
634,635,1583935540464,0.016099999,0.01,0.1077,0.28401935,9.837708000000001,-0.28110799999999997,-1
635,636,1583935540474,0.2904,0.0883,0.118999995,0.6390699000000001,9.921984,-0.29649790000000004,-1
636,637,1583935540485,0.44919997,0.1275,0.0747,0.61551094,9.9301815,-0.30859345,-1
637,638,1583935540495,0.289,0.1275,0.1311,0.30396783,9.917741,-0.20167798,-1
638,639,1583935540505,-0.0245,0.0981,0.2392,0.0759345,9.894422,-0.14924496,-1
639,640,1583935540515,-0.2092,0.0884,0.22379999,-0.065505356,9.881675,-0.23620236,-1
640,641,1583935540525,-0.31649998,0.0691,0.0844,-0.15928145,9.883925,-0.3741946,-1
641,642,1583935540536,-0.35700000000000004,0.0793,0.0339,-0.10365935400000001,9.932001,-0.42817906,-1
642,643,1583935540546,-0.2915,0.1287,0.0023,-0.029621063,9.96596,-0.39121255,-1
643,644,1583935540556,-0.2368,0.1683,0.0879,-0.035759795,9.954823,-0.24312639,-1
644,645,1583935540566,-0.25079998,0.1687,0.2511,0.010687716000000002,9.988159,-0.14156435,-1
645,646,1583935540576,-0.2067,0.17889999,0.3259,0.15684894,10.063566999999999,-0.03980121,-1
646,647,1583935540586,-0.0358,0.297,0.41099998,0.30607474,10.216509,-0.06630023,-1
647,648,1583935540596,0.0665,0.4445,0.39859998,0.3388849,10.438021,0.020503942,-1
648,649,1583935540607,0.092099994,0.7097,0.48389998,0.25300965,10.742773,0.10677182,-1
649,650,1583935540617,-0.0285,1.0139999,0.5574,0.18593370000000004,11.181554,0.07694965,-1
650,651,1583935540627,-0.061499998,1.4849,0.5187,0.38351282,11.763297,0.09586384,-1
651,652,1583935540638,0.2067,2.0829,0.5599,0.9580542,12.482219,0.27844566,-1
652,653,1583935540647,0.81509995,2.8372,0.7535,1.5506479,13.111108999999999,0.5547557,-1
653,654,1583935540657,1.6314,3.6497,1.1141,2.5377388,14.154913,1.206352,-1
654,655,1583935540667,2.329,4.5495996,1.6994,2.7299453999999996,15.123960999999998,2.253212,-1
655,656,1583935540678,2.4233,5.4785,2.7375998,2.217864,15.907353,3.4178474000000003,-1
656,657,1583935540688,1.8213999,6.2405996,3.7610997999999998,1.3576176000000002,16.550283,4.29063,-1
657,658,1583935540698,1.0304999,6.8465,4.4511,0.85066944,17.039265,4.635596,-1
658,659,1583935540708,0.7183,7.2969,4.555,1.2682563999999998,17.315231,4.500266000000001,-1
659,660,1583935540718,1.2100999,7.5038996,4.3045,2.2090342,17.302599,4.4503613,-1
660,661,1583935540728,2.2107,7.4879,4.1137,3.1238682,17.059089999999998,4.8209167,-1
661,662,1583935540738,3.1985,7.2597,4.3236,3.3427365,16.510319,5.3827114,-1
662,663,1583935540749,3.4338998999999997,6.0710998,5.0922,3.1660923999999997,15.845220000000001,5.938549500000001,-1
663,664,1583935540759,2.9366,5.3157997,5.3209,2.531447,15.066576999999999,6.3281717,-1
664,665,1583935540769,2.1034,4.4056,4.8094997,1.5227983999999999,14.1363535,5.9351115,-1
665,666,1583935540779,2.1034,4.4056,4.8094997,0.6872795,13.367585,5.224961799999999,-1
666,667,1583935540790,0.68689996,2.9898,3.2099998,-0.47170562,12.550634,4.223458,-1
667,668,1583935540800,-0.037299998,2.2587,2.095,-1.3861566,11.77908,3.1624916,-1
668,669,1583935540811,-0.6554,1.6165999,1.2419,-2.1961246,11.105955,2.3141491000000003,-1
669,670,1583935540821,-1.117,0.88659996,0.4091,-2.7303092,10.40046,1.3742622,-1
670,671,1583935540831,-0.7029,0.4798,-0.76339996,-2.2768955,9.932260000000001,-0.12672988,-1
671,672,1583935540842,0.1339,0.0824,-2.3146,-1.630164,9.514529,-1.738315,-1
672,673,1583935540852,0.6939,-0.35279998,-3.4824,-1.3556257,9.005235,-2.57754,-1
673,674,1583935540862,0.7578,-0.79469997,-3.4622,-1.5408316,8.618283,-2.40578,-1
674,675,1583935540872,0.3473,-1.3119999,-2.8889,-2.3755078,7.8999559999999995,-1.6909001000000001,-1
675,676,1583935540882,-0.6275,-1.9260999,-2.3312,-3.6567410000000002,7.258903500000001,-1.1477899999999999,-1
676,677,1583935540892,-1.9856,-2.5906,-1.6518999,-5.252917,6.5135593,-0.37226006,-1
677,678,1583935540903,-3.5681,-3.2501,-0.89059997,-6.849246000000001,5.8718853,0.25531766,-1
678,679,1583935540913,-4.0046,-3.753,-0.5489,-5.847311,5.875677,0.02474647,-1
679,680,1583935540923,-0.9425,-3.0147,-2.2294,-2.5765727000000003,6.4238443,-2.6471922,-1
680,681,1583935540933,1.7627,-2.8235,-4.8931,-0.033413477000000004,6.796669500000001,-5.1081634000000005,-1
681,682,1583935540943,3.0226,-2.4912999,-5.9136,0.09079771,6.8809357,-5.1615634,-1
682,683,1583935540954,2.4989998,-2.4837,-5.1506,-0.87233216,6.7795844,-4.0319123,-1
683,684,1583935540964,1.1782,-2.763,-3.609,-2.650975,6.4200230000000005,-2.1967664,-1
684,685,1583935540974,-0.17729999,-3.0007,-2.2254,-3.963304,6.242296700000001,-0.96678823,-1
685,686,1583935540984,-1.4638,-3.1727,-1.1229,-5.34721,5.9219045999999995,-0.10346782,-1
686,687,1583935540994,-2.6536999,-3.5872998,-0.3321,-5.452018700000001,5.7018104,0.39951566,-1
687,688,1583935541004,-0.6304,-3.1799,-0.67179996,-1.7593743999999998,6.3521714000000005,-1.8333743000000002,-1
688,689,1583935541014,2.2645,-2.9988,-3.1599998,-0.29483157,6.3705015,-3.1363369999999997,-1
689,690,1583935541024,4.0604997,-2.6503,-4.4102,1.4994694,6.854168400000001,-4.2087193,-1
690,691,1583935541034,4.5118,-2.4515998,-4.5102,1.3831973999999998,6.9150295,-3.8305218,-1
691,692,1583935541044,4.0351,-2.4796999,-3.6595,0.6233448,6.8193474,-2.7016842,-1
692,693,1583935541055,2.7731,-2.5989999999999998,-2.0179,-1.0709647,6.749025,-0.6830753,-1
693,694,1583935541066,1.4700999,-2.6172,-0.4831,-2.073197,6.702989,0.56062627,-1
694,695,1583935541076,0.71199995,-2.6074,0.39069998,-2.6805484,6.780819999999999,1.0512078,-1
695,696,1583935541086,0.3354,-2.5331,0.63379997,-2.5066142000000005,6.8072232999999995,0.90379196,-1
696,697,1583935541096,0.7312,-2.4538999,0.3482,-1.5444133,7.119044000000001,-0.036037527,-1
697,698,1583935541106,1.7157999,-2.1627998,-0.6724,-0.5752691999999999,7.3746967,-1.1498585,-1
698,699,1583935541117,2.6436,-1.8814,-1.6808,-0.09878476,7.6060243000000005,-1.8425585,-1
699,700,1583935541127,2.8983,-1.7227999,-2.1882,-0.59415466,7.577265299999999,-1.9048171999999999,-1
700,701,1583935541137,2.1536,-1.7435,-2.0751,-1.7543178,7.481344,-1.4354101000000001,-1
701,702,1583935541147,1.1789,-1.8468,-1.5788,-2.765638,7.4419070000000005,-0.8197938,-1
702,703,1583935541157,0.2303,-1.8395,-0.91249996,-3.6576123,7.4421077,-0.34736034,-1
703,704,1583935541168,-0.5636,-1.8227999,-0.53209996,-4.175114,7.536764999999999,-0.3702585,-1
704,705,1583935541178,-0.88659996,-1.7211,-0.56049997,-4.368671,7.58598,-0.55299354,-1
705,706,1583935541188,-1.1251,-1.6534,-0.80179995,-4.474408599999999,7.7151136,-1.0557375,-1
706,707,1583935541198,-1.128,-1.4911,-1.2721,-4.2886185999999995,7.873562,-1.5232006,-1
707,708,1583935541208,-1.128,-1.4911,-1.2721,-3.5362837,8.220558,-1.9574993000000003,-1
708,709,1583935541218,-0.2365,-1.0282,-2.0535,-2.6309116,8.553985,-2.4526967999999996,-1
709,710,1583935541228,0.6475,-0.69479996,-2.5532,-1.8023455000000002,8.846738,-2.6289580000000004,-1
710,711,1583935541239,1.4282,-0.4253,-2.7368999,-1.7626974999999998,8.967367,-2.1131895,-1
711,712,1583935541249,1.4322,-0.30949998,-2.2552,-2.3016324,8.907781,-1.1104593999999999,-1
712,713,1583935541259,0.8703,-0.37489998,-1.3115,-2.9111388,8.774606,0.025742456,-1
713,714,1583935541269,-0.122099996,-0.58419997,0.6457,-3.2788690000000003,8.706686999999999,1.0045591999999999,-1
714,715,1583935541279,-0.34649998,-0.6242,1.0426999,-3.4942800000000003,8.674192,1.4498711000000002,-1
715,716,1583935541290,-0.1423,-0.46949998,1.0540999,-3.283504,8.821532000000001,1.4950450000000002,-1
716,717,1583935541300,0.17639999,-0.4538,0.48409998,-2.943489,8.840369,0.95385957,-1
717,718,1583935541310,0.17639999,-0.4538,0.48409998,-2.7179456,8.893664,0.23856784,-1
718,719,1583935541320,0.45099998,-0.4333,-0.87579995,-2.6506305,8.871436,-0.45735955,-1
719,720,1583935541330,0.23269999,-0.4465,-0.9187,-2.9253982999999995,8.860318,-0.39163393,-1
720,721,1583935541340,-0.0836,-0.4885,-0.5804,-3.1855333,8.823628999999999,0.0031028856,-1
721,722,1583935541351,-0.2958,-0.5017,-0.1432,-3.3699633999999996,8.793846,0.50976384,-1
722,723,1583935541361,-0.44399998,-0.5159,0.3779,-3.47595,8.804131,0.9686653000000001,-1
723,724,1583935541371,-0.41979998,-0.4039,0.83199996,-3.3535199999999996,8.956947999999999,1.525001,-1
724,725,1583935541381,-0.0071,-0.31309998,0.90139997,-2.887685,9.0498905,1.5387248,-1
725,726,1583935541391,0.3854,-0.17379999,0.8523,-2.5195717999999996,9.201711999999999,1.5458690000000002,-1
726,727,1583935541401,0.5463,-0.073,0.9382,-2.3126075,9.307717,1.6094398,-1
727,728,1583935541411,0.81979996,0.0385,0.7862,-2.0529609,9.410343,1.4560578000000002,-1
728,729,1583935541421,0.7959999999999999,0.0832,0.6008,-2.1641,9.442943,1.2083632,-1
729,730,1583935541432,0.5237,0.011899999,0.419,-2.4605593999999997,9.342462,1.1055848999999998,-1
730,731,1583935541442,0.2746,-0.0583,0.484,-2.652354,9.306013,1.1874857,-1
731,732,1583935541452,0.0072,-0.1087,0.6094,-2.9397542000000003,9.24429,1.3566504,-1
732,733,1583935541462,-0.1437,-0.081199996,0.78679997,-3.0330033,9.281591,1.488638,-1
733,734,1583935541473,-0.22909999,-0.1334,0.8214,-3.1416235,9.207803,1.3706517,-1
734,735,1583935541485,-0.23979999,-0.138,0.5866,-2.8894184,9.275195,1.0683694,-1
735,736,1583935541495,0.1363,-0.0659,0.375,-2.3548505,9.361482,0.8658773999999999,-1
736,737,1583935541505,0.7344,0.0638,0.1744,-1.7778479999999999,9.513169,0.44782108,-1
737,738,1583935541515,1.1078,0.13509999,-0.2907,-1.7078991000000001,9.604042999999999,0.13257173,-1
738,739,1583935541525,0.9291,0.2382,-0.40629998,-2.3780935000000003,9.604531,0.307042,-1
739,740,1583935541535,0.258,0.1969,-0.1364,-3.0821707000000003,9.542282,0.70173097,-1
740,741,1583935541546,-0.4186,0.1277,0.2848,-3.421726,9.503936999999999,1.0338068,-1
741,742,1583935541556,-0.7434,0.0681,0.6074,-3.6231167,9.406665,1.1299865,-1
742,743,1583935541567,-0.85649997,-0.0026999997999999996,0.63019997,-3.6471066,9.400996000000001,1.0309433000000001,-1
743,744,1583935541577,-0.90569997,-0.026099999,0.5011,-3.6296193999999997,9.319957,0.67964685,d
744,745,1583935541587,-0.84209996,-0.100099996,0.1496,-3.2923052000000004,9.345353999999999,0.23620236,-1
745,746,1583935541597,-0.4806,-0.0581,-0.28039998,-2.8801289,9.510746000000001,-0.13425724,-1
746,747,1583935541607,-0.074099995,0.081,-0.52849996,-2.2402064999999998,9.666379,-0.29708213,-1
747,748,1583935541618,0.4403,0.2305,-0.6864,-2.1149228,9.707828,-0.13503298,-1
748,749,1583935541628,0.5479999999999999,0.2642,-0.5203,-2.4032516,9.625572,0.25342146,-1
749,750,1583935541638,0.24069999,0.18239999,-0.15699999,-2.765772,9.54844,0.65170175,-1
750,751,1583935541649,-0.13149999,0.102,0.2307,-2.9020884,9.564539,1.0307039,-1
751,752,1583935541659,-0.2789,0.1096,0.5888,-2.7550845,9.633032,1.2422841999999998,-1
752,753,1583935541669,-0.1493,0.20089999,0.8487,-2.7433531,9.65595,1.3113139,-1
753,754,1583935541679,-0.23259999,0.1379,0.6558,-2.8079963,9.604417,1.1026256,-1
754,755,1583935541689,-0.23259999,0.1379,0.6558,-2.7014737,9.592925,0.6908038000000001,-1
755,756,1583935541699,-0.1413,0.1231,0.25349998,-2.4269161,9.646775,0.36166809999999994,-1
756,757,1583935541709,0.114599995,0.17639999,-0.0678,-1.9867852,9.840926,0.050642155,-1
757,758,1583935541720,0.7944,0.46019998,-0.40129998,-1.7218812,9.949086,-0.0038307228000000002,-1
758,759,1583935541730,0.8814,0.6434,-0.2498,-1.6115946,10.15581,0.21056524,-1
759,760,1583935541740,0.7989,0.7305,-0.0212,-1.7018465,10.226813,0.37701017,-1
760,761,1583935541750,0.5760000000000001,0.7309,0.1313,-1.9824373,10.213483,0.5526488,-1
761,762,1583935541760,0.2402,0.77169997,0.2208,-2.3378134,10.284677,0.59794706,-1
762,763,1583935541770,0.1699,0.93979996,-0.0828,-2.2824310000000003,10.474231,0.13688129999999998,-1
763,764,1583935541781,0.6261,1.2342,-1.0824,-1.7448558999999997,10.785160000000001,-1.0015999,-1
764,765,1583935541791,1.4929,1.6949999,-2.2721,-0.8412267,11.282216,-2.1795566,-1
765,766,1583935541801,2.5115,2.2258,-3.12,0.11678916,11.849805,-2.99755,-1
766,767,1583935541811,2.8746998,2.8089999999999997,-3.5635,0.30771238,12.362298,-3.3991919000000004,-1
767,768,1583935541822,2.4575999,3.112,-3.7417,-0.28377035,12.606238000000001,-3.585633,-1
768,769,1583935541832,1.6388999,3.1434999,-3.957,-1.3247023,12.636204,-3.858304,-1
769,770,1583935541842,1.0956,3.3816,-4.1861997,-1.6276741000000001,12.95288,-4.1319036,-1
770,771,1583935541852,1.1428,3.6176998999999994,-4.6809,-1.4339448000000001,13.13122,-4.7682347,-1
771,772,1583935541863,1.6524999,3.8221,-5.3596,-0.84381247,13.317718,-5.453091000000001,-1
772,773,1583935541873,2.335,3.9666,-6.0081997000000005,-0.15144762,13.3618965,-6.079568,-1
773,774,1583935541883,3.0614,3.8772998,-6.5213,0.52368855,13.216769000000001,-6.5586185,-1
774,775,1583935541893,3.6832,3.6155998999999994,-6.9995,0.99991435,12.835047,-6.9676538,-1
775,776,1583935541903,3.9422,3.1151,-7.200999700000001,1.0176411,12.228711,-7.013679499999999,-1
776,777,1583935541913,3.9002998,2.4166,-7.0129,0.8154268,11.44867,-6.596178500000001,-1
777,778,1583935541923,3.6534998,1.5496999,-6.3689,0.47339115,10.674845,-5.9899864,-1
778,779,1583935541934,3.2082999,0.5435,-5.5916,-0.45908338,9.104737,-4.883482,-1
779,780,1583935541944,2.656,-0.58379996,-4.932699700000001,-1.0185509,7.943042,-4.241414499999999,-1
780,781,1583935541954,2.2435,-1.6975,-4.4003997,-1.4564983,7.0000234,-3.8007855000000004,-1
781,782,1583935541964,1.8965,-2.819,-3.7884998,-1.9607267,5.65837,-2.6470293999999996,-1
782,783,1583935541974,1.6883,-3.7835,-2.7159,-2.0705728999999997,4.6952305,-1.4213897,-1
783,784,1583935541984,1.8411,-4.5828,-1.6804,-1.9217108,3.8586964999999998,-0.32707670000000005,-1
784,785,1583935541994,2.1097999,-5.4726,-0.6179,-1.7286136000000003,2.961618,0.7597377,-1
785,786,1583935542004,2.4187,-6.2465,0.30949998,-1.5254705,2.2193389999999997,1.6256628999999998,-1
786,787,1583935542015,2.6718,-6.9336996,0.9684,-1.4584711000000001,1.5338693,2.3557606,-1
787,788,1583935542025,2.7639,-7.5333,1.7116,-1.5568728,0.8477294,3.3071876000000002,-1
788,789,1583935542035,2.5789999999999997,-8.2211,2.6069,-2.1403779999999997,0.08587523,4.2207093,-1
789,790,1583935542045,1.9411999,-8.8798,3.4210000000000003,-2.8870720000000003,-0.49567637,5.086769,-1
790,791,1583935542055,1.3173,-9.335,4.165,-3.5183465,-0.98210156,5.769825,-1
791,792,1583935542065,0.7898,-9.678699499999999,4.7808,-3.9263854,-1.0829931000000002,6.329733,-1
792,793,1583935542075,0.55939996,-9.6982,5.1013,-4.212914,-1.2281585,6.2954383,-1
793,794,1583935542086,0.3385,-9.7977,4.9094,-4.2463083,-1.1208886999999998,6.0545053,-1
794,795,1583935542096,0.32889998,-9.5764,4.5512,-4.2876415,-0.9270156999999999,5.8306474999999995,-1
795,796,1583935542106,0.31059998,-9.4368,4.436899700000001,-4.0223830000000005,-0.588332,6.149871,-1
796,797,1583935542116,0.5042,-9.0854,4.8413997,-3.8285584000000004,-0.017056294,7.234884700000001,-1
797,798,1583935542126,0.63409996,-8.500999,5.9087,-3.3371150000000003,0.7321181999999999,8.75211,-1
798,799,1583935542136,1.1032,-7.7798996,7.4751,-2.5733454,1.5908704,10.428205,-1
799,800,1583935542146,1.9666,-6.6826,9.457399,-1.1476462,2.9705052000000003,12.963482,-1
800,801,1583935542157,3.0591,-5.5284,11.476999000000001,0.041544187999999996,4.526803,15.09097,-1
801,802,1583935542167,3.9729997999999997,-3.9612,13.3455,0.782042,6.261221,15.929266,-1
802,803,1583935542177,4.4655,-2.2856998,13.8186,1.249352,8.521233,15.671717000000001,-1
803,804,1583935542188,4.6818,-0.4145,13.5146,0.87391233,9.732631,15.11085,-1
804,805,1583935542198,4.0116,1.0069,12.7652,-0.67617047,11.00558,13.504141,-1
805,806,1583935542208,2.5242999,1.9605999,11.4393,-1.7886028000000003,11.588933,11.949019999999999,-1
806,807,1583935542218,1.1113,2.6482,9.4872,-2.83145,12.224171,9.155121000000001,-1
807,808,1583935542228,0.22929999,3.0983999,7.2265997,-2.6206932000000003,12.835056,7.522964999999999,-1
808,809,1583935542239,0.3376,3.6541,5.6821,-1.9544346000000001,13.525975,7.260981599999999,-1
809,810,1583935542249,1.2882999,5.0631,6.2827,-1.3926975000000001,14.350491,8.028888,-1
810,811,1583935542259,1.2882999,5.0631,6.2827,-0.77257055,15.221003,8.892707000000001,-1
811,812,1583935542269,1.7509999,5.8912997,7.1527,-0.48649222,15.717628,9.375196,-1
812,813,1583935542280,1.9777,6.723799700000001,7.2432,-0.24464911,16.191603,8.679336,-1
813,814,1583935542290,1.7756,6.832000000000001,5.5599,-0.34814566,16.273657,7.188801299999999,-1
814,815,1583935542300,1.4574,6.8124,3.0753999,-0.58115894,16.299639000000003,4.593209,-1
815,816,1583935542310,1.4709999999999999,6.7353,-0.23879999,-0.49740976,16.253757,1.1233115,-1
816,817,1583935542320,1.3641,6.633599799999999,-3.1776998,-0.6348560999999999,16.169373999999998,-2.5000925,-1
817,818,1583935542330,0.70379996,6.3726997,-5.1303,-1.3094176000000002,15.896320999999999,-4.3548803,-1
818,819,1583935542341,-0.055299997000000004,6.0115,-5.9402,-2.0022805,15.536635,-5.0962879999999995,-1
819,820,1583935542351,-0.5015,5.507999999999999,-6.0065,-2.301364,14.989609,-5.1291459999999995,-1
820,821,1583935542361,-0.2997,4.9087,-5.6001,-1.9362099999999998,14.4082,-4.623193700000001,-1
821,822,1583935542371,0.30359998,4.486799700000001,-4.9283,-1.1267688,14.032406,-3.9516873,-1
822,823,1583935542381,1.2436,4.2421,-4.5474997,-0.013464991,13.863979,-3.6979116999999997,-1
823,824,1583935542391,2.4501998,4.2042,-4.6796,1.0893521000000002,13.821582999999999,-3.8833854,-1
824,825,1583935542401,3.1608999,4.0115,-4.8349,1.7364475,13.647964499999999,-3.994218,-1
825,826,1583935542411,3.3769998999999995,3.8218,-4.9385,1.8883835,13.385398,-4.224454,-1
826,827,1583935542421,3.3084998,3.5760998999999996,-5.3655,1.6442706999999999,13.107603,-4.7725824999999995,-1
827,828,1583935542432,2.8283,3.1567,-5.8870000000000005,1.0152277,12.611744999999999,-5.277366000000001,-1
828,829,1583935542442,2.0716,2.6132,-6.308799700000001,0.19853678,12.134408,-5.7405485999999994,-1
829,830,1583935542452,0.6987,1.8379999,-7.0877,-1.6216216,11.218741,-6.8535843,-1
830,831,1583935542462,-0.5397,1.2125,-8.027699,-2.7053041,10.660834,-7.957167599999999,-1
831,832,1583935542472,-1.2100999,0.7635,-9.0827,-3.3519495000000004,10.217447,-9.03838,-1
832,833,1583935542483,-1.5214,0.3807,-9.9727,-3.3361955,9.914522999999999,-9.899305,-1
833,834,1583935542493,-0.8257,0.2874,-10.5042,-2.3363099999999997,9.927059,-10.160695,-1
834,835,1583935542503,0.3285,0.30699998,-10.234099,-1.2276508999999998,9.9336,-9.416481,-1
835,836,1583935542513,1.3159,0.3637,-8.9372,-0.3256114,9.994796000000001,-7.745032000000001,-1
836,837,1583935542523,2.0121999,0.39139998,-7.197499799999999,0.40318355,10.008165,-6.03109,-1
837,838,1583935542533,2.7129,0.382,-5.8742,1.053621,9.963403999999999,-4.868197400000001,-1
838,839,1583935542543,3.2121,0.35549998,-5.1349998,1.4434643,9.891664,-4.2026663,-1
839,840,1583935542554,3.35,0.19469999,-4.8915,1.4183538,9.669703,-4.119023,-1
840,841,1583935542564,3.2677999,-0.14919999,-4.7401,1.1665891000000002,9.207956,-3.7899160000000003,-1
841,842,1583935542574,2.9642,-0.5585,-4.4495,0.65237206,8.727037,-3.4733355,-1
842,843,1583935542585,2.4692,-1.0519999,-4.0601997,-0.11541968,8.167465,-3.0985183999999997,-1
843,844,1583935542595,1.6875,-1.6202999,-3.6861,-0.95788175,7.5465045,-2.8196898,-1
844,845,1583935542605,1.1520000000000001,-2.1757998,-3.3581998,-1.2012476,7.0589685,-2.4701936,-1
845,846,1583935542615,1.2843,-2.5732,-2.9050999,-1.0219411,6.759205000000001,-1.9439194,-1
846,847,1583935542625,1.3749,-2.8621,-2.3581,-1.5963484,6.253521,-1.8087811000000003,-1
847,848,1583935542636,0.69879997,-3.4539999999999997,-2.4329,-2.3047447,5.7087154,-2.0322464,-1
848,849,1583935542646,0.28849998,-3.8507,-2.4468,-2.433122,5.410771400000001,-1.845125,-1
849,850,1583935542656,0.45899999999999996,-4.045,-2.0928,-2.1312034,5.233016,-1.5722148,-1
850,851,1583935542666,0.8258,-4.1555,-1.8140999,-1.7953448,5.296041000000001,-1.1705443000000002,-1
851,852,1583935542676,1.3324,-4.0252,-1.1995,-1.0234063,5.463606400000001,-0.52457917,-1
852,853,1583935542686,2.0815,-3.8590998999999995,-0.6888,-0.43779415,5.5670743,-0.13363476,-1
853,854,1583935542696,2.6371999,-3.7635,-0.21899999999999997,0.06756437,5.6491194,0.49094543,-1
854,855,1583935542707,3.133,-3.668,0.43519998,0.3634973,5.583719,1.0620009,-1
855,856,1583935542717,3.4152,-3.7872999,1.0313,0.5415014,5.4142766,1.6588273999999998,-1
856,857,1583935542727,3.6220999,-3.9641998,1.6486,0.63526785,5.049189599999999,2.0450602,-1
857,858,1583935542737,3.7321,-4.3366,2.0719,0.8943684000000001,4.9463919999999995,2.6445107000000005,-1
858,859,1583935542748,4.0353,-4.3959,2.7477,0.7939843000000001,4.728462,3.401385,-1
859,860,1583935542758,3.8316,-4.6239,3.6692,0.07069599,4.410627,5.3403339999999995,-1
860,861,1583935542768,3.2056,-4.8848,5.3518,-0.6252889,4.191404299999999,6.985494999999999,-1
861,862,1583935542779,2.5209,-5.113,7.0055,-0.8353466,4.190418,8.569672,-1
862,863,1583935542789,2.4569,-5.1275,9.4487,-0.59306294,4.2043905,9.405555,-1
863,864,1583935542799,3.113,-4.9138,9.8055,0.18865351,4.449652700000001,9.724146000000001,-1
864,865,1583935542809,3.113,-4.9138,9.8055,1.472999,5.0838475,9.674012,-1
865,866,1583935542819,5.2311,-3.6279,9.5623,2.5668523,5.8152285,9.359212,-1
866,867,1583935542829,5.2311,-3.6279,9.5623,3.2351122,6.730436,9.31358,-1
867,868,1583935542839,5.6672997,-1.8959999,9.9823,3.3008665999999995,7.614269999999999,9.628139,-1
868,869,1583935542850,5.6105,-1.0352,9.979099,3.3855832,8.509031,9.546094,-1
869,870,1583935542860,5.6081,-0.2013,9.2288,3.5283542000000003,9.374630999999999,8.704130000000001,-1
870,871,1583935542870,4.8062997,0.37039998,8.2081995,2.8873403,9.974186999999999,7.584802000000001,-1
871,872,1583935542880,3.9046998,0.96279997,6.9771,2.1503284,10.591842999999999,6.2544208,-1
872,873,1583935542890,3.373,1.505,5.4356,1.8171607,11.318196,4.3296843,-1
873,874,1583935542900,3.4986,2.3976,4.1667,2.1464974999999997,12.083822999999999,3.32659,-1
874,875,1583935542910,4.0962,3.4742,3.5372999,3.1488254,13.3805895,2.7084742000000004,-1
875,876,1583935542921,4.4217997,4.2566,4.027,3.6180315000000003,14.154243,3.4798572,-1
876,877,1583935542931,3.9717998999999997,4.9542,5.3356,3.2574072,14.824648000000002,4.9926577000000005,-1
877,878,1583935542941,2.7874,5.4235997000000005,6.6417,2.2288007999999997,15.323503500000001,6.338046,-1
878,879,1583935542951,1.5842999,5.9704,7.2001,1.4038833,15.903763,6.818303,-1
879,880,1583935542962,1.0896,6.5453,6.559,1.3020915000000002,16.589453,5.9585360000000005,-1
880,881,1583935542972,1.0819,7.1478996,5.4923,1.6825491999999997,17.190407,4.9788475,-1
881,882,1583935542983,1.6809,7.7676997000000005,4.3957,2.6264486000000002,17.710045,4.147811,-1
882,883,1583935542993,3.0995998,8.4924,3.2777998,4.57757,18.47502,3.0179009999999997,-1
883,884,1583935543003,4.1482,8.9564,2.3782,5.524898,18.795603,2.286252,-1
884,885,1583935543013,4.253,9.077499000000001,1.5537,5.223171,18.741533,1.4839836000000002,-1
885,886,1583935543023,3.1464999,8.8327,0.64699996,3.8405485,18.286327,0.30161193,-1
886,887,1583935543033,1.8902999,8.387899,-0.46339998,3.0000112,17.834004999999998,-0.65487164,-1
887,888,1583935543043,0.9625,7.7928996,-1.7991999,2.3961935000000003,17.245703,-2.0485842,-1
888,889,1583935543053,0.65669996,7.1959,-3.3353998999999996,2.3777487,16.624952,-3.5783644,-1
889,890,1583935543063,0.84929997,6.5687,-4.855,2.7006595,15.924935999999999,-4.959626999999999,-1
890,891,1583935543073,1.2737,5.9021,-5.8971995999999995,3.2528582000000004,15.367845,-5.680493,-1
891,892,1583935543083,1.7543,5.3728,-6.3294997,3.6411211000000003,14.768939000000001,-5.7881837,-1
892,893,1583935543093,1.8434999,4.8528,-6.1298,3.6077747000000002,14.168349,-5.269868,-1
893,894,1583935543103,1.7997999,4.311899700000001,-5.7153997,3.6322050000000004,13.703327999999999,-4.8005949999999995,-1
894,895,1583935543114,1.7997999,4.311899700000001,-5.7153997,3.4962814,13.05087,-4.1377554,-1
895,896,1583935543124,1.4591999,2.96,-4.5952997,2.9493597,12.058799,-3.4161522000000004,-1
896,897,1583935543134,0.9659,2.1550999,-4.1605,2.261333,11.171996,-2.9762228,-1
897,898,1583935543144,0.1353,1.1883,-3.7577998999999997,1.1880316999999998,10.307096000000001,-2.7257700000000002,-1
898,899,1583935543154,-0.9202,0.32529998,-3.7884998,0.33605972,9.462269000000001,-3.1727386,-1
899,900,1583935543164,-1.2899,-0.392,-4.3875,0.45189120000000005,9.076419,-3.9117138,-1
900,901,1583935543175,-0.9431,-0.657,-5.0783,0.80991054,8.891108000000001,-4.337757,-1
901,902,1583935543185,-0.6046,-0.7628,-5.2086,1.0119333000000001,8.956565,-3.981615,-1
902,903,1583935543195,-0.3972,-0.6701,-4.6285,1.2111787,9.082136,-3.1922848,-1
903,904,1583935543205,-0.047599997000000005,-0.5094,-3.7784,1.5851051999999999,9.275155999999999,-2.3569287999999995,-1
904,905,1583935543215,0.3396,-0.3161,-3.0105,1.9239517,9.425042999999999,-1.8294381999999998,-1
905,906,1583935543225,0.6026,-0.27399999999999997,-2.6838,1.7157711,9.287013,-1.6264098999999999,-1
906,907,1583935543236,0.3664,-0.43109998,-2.5333,1.265393,9.048885,-1.6978817,-1
907,908,1583935543246,-0.046,-0.7087,-2.5974,0.81173974,8.870488,-1.8595476999999998,-1
908,909,1583935543256,-0.5416,-0.9583,-2.8307,0.13061807,8.592522,-2.3541517000000005,-1
909,910,1583935543267,-1.0584999,-1.1876,-3.1662,-0.36631286,8.368578,-2.5013566000000003,-1
910,911,1583935543276,-1.4075999,-1.3946999,-3.1873,-0.53025824,8.326488000000001,-2.4491916000000002,-1
911,912,1583935543286,-1.4677,-1.3924999,-3.0972998,-0.49030378,8.383135000000001,-2.3080678,-1
912,913,1583935543296,-1.3694,-1.3381,-2.8680000000000003,-0.32183817,8.547491,-2.0008345000000003,-1
913,914,1583935543306,-1.1514,-1.1728,-2.5983,0.22841641,8.7840395,-1.8568566999999998,-1
914,915,1583935543316,-0.50839996,-0.8678,-2.4701998,1.2699898,9.201347,-1.6987723000000001,-1
915,916,1583935543326,0.5341,-0.49229997,-2.2835999,2.0895922,9.455544,-1.166503,-1
916,917,1583935543337,1.2221,-0.26319999,-1.6521,2.226684,9.573025,-0.15830462,-1
917,918,1583935543347,1.2027999,-0.2016,-0.7169,1.8941679,9.430348,0.690392,-1
918,919,1583935543357,0.8519,-0.3281,0.0903,1.4321921999999998,9.341571,1.1516110000000002,-1
919,920,1583935543367,0.363,-0.43699998,0.4136,0.80855066,9.126247,0.9690675,-1
920,921,1583935543377,-0.2562,-0.6559,0.1777,0.19206287,8.944977,0.48746905,-1
921,922,1583935543387,-0.7958,-0.81689996,-0.33949998,0.18796399,9.067071,-0.2774018,-1
922,923,1583935543398,-0.7141,-0.69299996,-0.9129,0.53461564,9.293103,-0.53344727,d
923,924,1583935543408,-0.3676,-0.4597,-1.1414,1.0828208000000001,9.542722999999999,-0.34830847,-1
924,925,1583935543418,0.18679999,-0.2149,-0.9518,1.7008697,9.829213000000001,0.28067705,-1
925,926,1583935543428,0.7872,0.07,-0.33249998,2.0426755,9.990707,0.76039845,-1
926,927,1583935543438,1.1553999,0.26659998,0.2443,1.8800133,10.104604,1.2451669,-1
927,928,1583935543449,0.9729,0.3543,0.6315,1.2946788999999999,10.107056,1.1972637,-1
928,929,1583935543459,0.3971,0.35209998,0.60859996,0.78446496,10.030681,0.6656647,-1
929,930,1583935543469,-0.38979998,0.1898,-0.4867,0.48591759999999995,9.953367,0.063484654,-1
930,931,1583935543479,-0.2611,0.1987,-0.777,0.6128199000000001,9.965999,-0.25869828,-1
931,932,1583935543489,0.042999998,0.1803,-0.6256,0.9238937,9.946874000000001,-0.10754754,-1
932,933,1583935543499,0.5546,0.19299999,-0.1586,1.4527441,9.957341,0.39600095,-1
933,934,1583935543509,0.5546,0.19299999,-0.1586,2.0389310000000003,9.980105,1.0254174,-1
934,935,1583935543520,1.4492999,0.2791,0.98649997,2.431829,10.03069,1.7627932000000002,-1
935,936,1583935543530,1.4528999,0.2522,1.3399,2.3311193,9.993416999999999,2.0539186000000003,-1
936,937,1583935543540,1.1355,0.20359999,1.3842,1.9777446,9.939538,2.034267,-1
937,938,1583935543550,0.6037,0.0546,1.1811,1.3872867,9.776750999999999,1.8044716,-1
938,939,1583935543561,-0.067999996,-0.0565,0.85389996,0.55134636,9.656696,1.3021393,-1
939,940,1583935543571,-0.6606,-0.1582,0.3664,0.10752839,9.584181,0.91220045,-1
940,941,1583935543582,-0.87659997,-0.1122,-0.0143,-0.0657352,9.691623,0.5111525,-1
941,942,1583935543592,-0.8282,0.092,-0.3629,0.14840218,9.980852,0.14293383,-1
942,943,1583935543602,-0.4565,0.45479998,-0.44919997,0.48518017,10.38529,0.2455589,-1
943,944,1583935543612,-0.2184,0.917,-0.1281,0.7129454000000001,10.868238999999999,0.65161556,-1
944,945,1583935543622,-0.090399995,1.3507,0.33969998,0.75530356,11.275053,1.2195296999999998,-1
945,946,1583935543632,-0.0791,1.7551999,0.88189995,0.7800118,11.690187,1.6967038,-1
946,947,1583935543642,-0.046,2.1399,1.1223,0.84286433,12.064181,1.7858924999999999,-1
947,948,1583935543652,-0.0389,2.5728998,0.9869,0.836716,12.523522999999999,1.581466,-1
948,949,1583935543663,-0.0661,3.103,0.6721,0.7843118,12.95764,1.3308601,-1
949,950,1583935543674,-0.1661,3.701,0.3915,0.66716826,13.844308999999999,0.9527773000000002,-1
950,951,1583935543684,-0.21159999,4.3768997,0.14,0.58527696,14.519635999999998,0.81706446,-1
951,952,1583935543694,-0.2607,5.0136,0.1273,0.55679554,15.176001999999999,1.0488806,-1
952,953,1583935543704,-0.2435,5.7191,0.40019998,0.62661046,15.858206,1.2448412,-1
953,954,1583935543715,-0.069,6.3359,0.49289998,0.7667765999999999,16.438215,1.3242617,-1
954,955,1583935543725,0.0805,6.9026,0.5786,0.6162867,16.909882999999997,1.4495263,-1
955,956,1583935543735,-0.19229999,7.2717,0.6513,0.1541004,17.154042999999998,1.4858893999999998,-1
956,957,1583935543745,-0.6139,7.4631,0.6828,-0.37541083,17.316034,1.5082322,-1
957,958,1583935543755,-1.0023,7.5559997999999995,0.6045,-0.7997304000000001,17.281029999999998,1.2874197,-1
958,959,1583935543765,-1.2261,7.4333,0.3771,-1.0652187,17.071012,1.0195564000000001,-1
959,960,1583935543775,-1.3892,7.1447,0.076,-1.2229104,16.671238,0.7272149,-1
960,961,1583935543785,-1.2307999,6.7202,-0.1862,-0.39157647,16.270144000000002,0.03717716,-1
961,962,1583935543795,-0.11800000000000001,6.4444,-0.9343,0.6834104999999999,16.07328,-0.81563747,-1
962,963,1583935543805,1.2062,6.1801996,-1.9174999,1.5235934,15.748532,-1.4221941,-1
963,964,1583935543815,1.8208,5.791,-2.3095,1.5890604,15.209482000000001,-1.5347216000000001,-1
964,965,1583935543825,1.7134,5.1303997,-2.2693,1.012709,14.440148,-1.1587648000000002,-1
965,966,1583935543835,1.0497,4.3458,-1.7341,-0.026221296,13.619914000000001,-0.29807812,-1
966,967,1583935543845,0.1273,3.5351,-0.9043,-1.244688,12.726321,0.5225105999999999,-1
967,968,1583935543855,-1.0839,2.5892,-0.15339999,-2.6730494,11.693463000000001,1.4248469,-1
968,969,1583935543866,-2.4087,1.5353999,0.6935,-3.9258108,10.576883,2.351355,-1
969,970,1583935543876,-3.2141,0.4199,1.5174999,-3.8693364000000003,9.554406,2.6791117,-1
970,971,1583935543886,-2.1887,-0.4172,1.2659,-0.93716717,9.148599,0.77646834,-1
971,972,1583935543896,0.56729996,-0.5846,-0.8951,1.2865291,8.852101,-1.4079822,-1
972,973,1583935543906,2.6136,-0.95049995,-2.8686,2.8649592,8.441027,-2.8742871,-1
973,974,1583935543916,3.9368,-1.401,-4.1758,2.904473,7.717872,-2.9286067000000005,-1
974,975,1583935543926,3.6604,-2.0993,-3.918,2.1457794,7.212886999999999,-1.8681668999999999,-1
975,976,1583935543937,2.5879998,-2.7315,-2.3746,0.5952464,6.4628505999999994,0.7772345,-1
976,977,1583935543947,1.2581999,-3.32,-0.182,-0.8008029999999999,5.770131,2.9646727999999998,-1
977,978,1583935543957,-0.1147,-4.0359,1.7823,-1.8379425,5.090417400000001,4.501913,-1
978,979,1583935543967,-0.80689996,-4.6194,3.0196,-0.6037794,4.8802449999999995,4.18856,-1
979,980,1583935543977,0.8601,-4.7216997,2.122,1.7860839,4.935752,1.7843218999999997,-1
980,981,1583935543987,3.1430000000000002,-4.7134,-0.41689998,3.8659557999999996,5.010001,-0.4484723,-1
981,982,1583935543998,5.107599700000001,-4.5668,-2.4723,5.1421704,4.943586,-1.6569983,-1
982,983,1583935544009,6.0579996,-4.6777997000000004,-3.3629,4.527646,4.5522394,-0.28737125,-1
983,984,1583935544018,5.5074,-5.0527997000000004,-2.0579998,2.7287388,4.109791,2.3855824,-1
984,985,1583935544028,3.8242,-5.4679,0.53529996,1.0803117,3.7835858,4.489052,-1
985,986,1583935544038,1.9405999,-5.7827,3.0259,-1.0074226,3.7285190000000004,6.3597374,-1
986,987,1583935544048,0.3852,-5.7985,4.4287,-2.5013087000000005,3.5136826,6.482761,-1
987,988,1583935544058,-0.9734,-6.0009,4.58,-3.2528292999999997,3.4650992999999994,5.8671637,-1
988,989,1583935544068,-1.6836,-5.9986997,3.7828998999999994,-2.9575,3.7713752,3.6201383999999996,-1
989,990,1583935544078,-1.2213,-5.7514997,1.9401,-2.0933366,4.320768,0.9836434000000001,-1
990,991,1583935544088,-0.28919998,-5.2051997000000005,-0.55689996,-1.7212011999999999,4.697481,-1.1889413999999998,-1
991,992,1583935544098,0.1419,-4.8431997,-2.5714,-1.3749135000000001,5.170374400000001,-2.48069,-1
992,993,1583935544108,0.5359,-4.3777,-3.7468998,-1.7703206999999999,5.386025,-2.5623512,-1
993,994,1583935544118,0.081,-4.0729,-3.605,-2.2922661,5.9978676,-0.89580494,-1
994,995,1583935544128,-0.28309998,-3.5353,-2.064,-2.610992,6.3608575,0.8005156999999999,-1
995,996,1583935544138,-0.5873,-3.1701,-0.3897,-2.8245354,6.808267,2.0326676,-1
996,997,1583935544148,-0.7905,-2.7240999,0.82989997,-2.7678119999999997,7.1485977,2.53251,-1
997,998,1583935544158,-0.7403,-2.3792,1.3090000000000002,-2.510311,7.2705398,2.3574457000000004,-1
998,999,1583935544168,-0.33679998,-2.2243,1.0063,-1.5455052,7.5518966,1.1296419,-1
999,1000,1583935544178,0.4619,-1.984,-0.0782,-1.2020617,7.590826,0.1654585,-1
1000,1001,1583935544188,0.78859997,-1.9504,-1.0223,-1.0676799,7.826473,-0.19072211,-1
1001,1002,1583935544198,0.9109,-1.7191,-1.3479999,-1.1947641000000002,8.007445,0.19771318,-1
1002,1003,1583935544209,0.76669997,-1.5347998999999999,-0.9964,-1.4747133,8.255111999999999,1.2155842,-1
1003,1004,1583935544219,0.081599995,-1.0998,1.0705999,-1.8729936000000003,8.44502,2.304534,-1
1004,1005,1583935544229,-0.2723,-0.9501,1.5885999,-2.2273834,8.582878,2.8378952,-1
1005,1006,1583935544239,-0.2723,-0.9501,1.5885999,-2.5807578999999996,8.673254,2.751225,-1
1006,1007,1583935544249,-0.7549,-0.7848,0.86039996,-2.702709,8.759483,2.1075487,-1
1007,1008,1583935544259,-0.6027,-0.62259996,0.221,-2.5503993,8.9180765,1.4438089,-1
1008,1009,1583935544269,-0.4028,-0.5201,-0.2749,-2.3395373999999998,9.038686,0.9146904,-1
1009,1010,1583935544280,-0.2209,-0.4269,-1.0856,-2.136662,9.124542,-0.05341943,-1
1010,1011,1583935544290,-0.2209,-0.4269,-1.0856,-2.15889,9.177242999999999,-0.2058343,-1
1011,1012,1583935544300,-0.3577,-0.44939998,-1.0315,-2.3458006,9.101165,0.27596527,-1
1012,1013,1583935544310,-0.5406,-0.3491,-0.27899998,-2.527664,9.26194,1.0566665000000002,-1
1013,1014,1583935544320,-0.8702,-0.1891,0.56439996,-2.9156685,9.344886,1.8574408,-1
1014,1015,1583935544330,-1.3682,-0.3437,1.0590000000000002,-3.3758724,9.181381,2.2949189999999997,-1
1015,1016,1583935544340,-1.3682,-0.3437,1.0590000000000002,-3.1861846000000003,9.299013,2.249113,-1
1016,1017,1583935544350,-0.8168,-0.152,0.6247,-2.6368972999999998,9.427438,1.6463392,-1
1017,1018,1583935544361,-0.2111,0.017199999,-0.0278,-2.122115,9.578358999999999,1.1133995,-1
1018,1019,1583935544371,0.3249,0.22569999,-0.4852,-1.478228,9.792994,0.5513942,-1
1019,1020,1583935544381,0.561,0.22999999,-0.7344,-1.2868451,9.784499,0.35069308,-1
1020,1021,1583935544391,0.5875,0.1681,-0.6508,-1.2594553999999998,9.75323,0.5126369000000001,-1
1021,1022,1583935544401,0.6487,0.2455,-0.34989998,-1.1625191000000001,9.850846,0.8139999,-1
1022,1023,1583935544412,0.6552,0.2653,-0.1511,-1.2238966999999998,9.828763,0.98315495,-1
1023,1024,1583935544422,0.4303,0.1783,-0.072399996,-1.4795687,9.734001,1.0796317,d
1024,1025,1583935544432,0.059499998,0.0526,0.1309,-1.9531131999999998,9.578761,1.4155478000000001,-1
1025,1026,1583935544442,-0.3038,-0.0437,0.49859998,-2.182698,9.522822,1.7301650000000002,-1
1026,1027,1583935544452,-0.22299999,-0.10229999599999999,0.71,-1.8932486000000002,9.457374,1.8482087999999999,-1
1027,1028,1583935544462,0.3108,-0.1138,0.5923,-1.2291161,9.507146,1.7266504,-1
1028,1029,1583935544472,0.871,0.0011,0.4581,-0.83377594,9.628541,1.6379118000000001,-1
1029,1030,1583935544482,0.94449997,0.1462,0.4816,-0.89689666,9.779835,1.6334488,-1
1030,1031,1583935544493,0.945,0.2724,0.35009998,-0.8200811,9.922194500000002,1.4444218999999998,-1
1031,1032,1583935544503,0.9590000000000001,0.4382,0.10439999400000001,-0.763396,10.087586,1.1845936000000001,-1
1032,1033,1583935544514,1.0555999,0.54539996,-0.18699999,-0.62774056,10.108310000000001,0.79714465,-1
1033,1034,1583935544524,1.1672,0.5456,-0.49629998,-0.6297708000000001,10.139435,0.63063276,-1
1034,1035,1583935544534,1.1191,0.5571,-0.5043,-0.811462,10.117245,0.82851833,-1
1035,1036,1583935544544,0.88259995,0.4924,-0.2429,-1.154465,9.986425,1.1208025,-1
1036,1037,1583935544554,0.5158,0.3608,0.053799997999999995,-1.4498425,9.884951,1.3914813,-1
1037,1038,1583935544565,0.1628,0.2104,0.3601,-2.0068965,9.638366,1.7023828,-1
1038,1039,1583935544575,-0.2767,0.0209,0.56189996,-2.359591,9.493086,1.7597956999999997,-1
1039,1040,1583935544585,-0.5132,-0.1501,0.46519998,-2.4475732000000003,9.314527,1.4381588,-1
1040,1041,1583935544595,-0.50119996,-0.3035,0.0902,-2.4644284,9.14971,1.1265103,-1
1041,1042,1583935544605,-0.5058,-0.45859998,-0.1257,-2.3773847000000004,9.034271,1.036268,-1
1042,1043,1583935544615,-0.3304,-0.55579996,-0.17639999,-2.1944103,8.87997,0.9488796,-1
1043,1044,1583935544625,-0.1209,-0.7028,-0.2503,-1.9214139,8.753795,0.9594332,-1
1044,1045,1583935544636,0.0667,-0.83,-0.1819,-1.8479118000000003,8.629038000000001,1.1560451,-1
1045,1046,1583935544646,0.15689999,-0.9759,0.0669,-1.8171321,8.446475999999999,1.4455806999999998,-1
1046,1047,1583935544656,0.1513,-1.2189,0.42909998,-1.8465998,8.175164,1.8567705,-1
1047,1048,1583935544666,0.1302,-1.5098,0.7987,-1.8351172999999998,7.7836647,2.2056725,-1
1048,1049,1583935544676,0.15269999,-2.0056,1.1873,-1.9011015,6.9241850000000005,2.749396,-1
1049,1050,1583935544686,0.111499995,-2.7944999,1.6050999,-1.9001151,6.1066985,3.0516973,-1
1050,1051,1583935544697,0.092999995,-3.8472998,1.9825,-2.121598,4.771376,3.7733767,-1
1051,1052,1583935544706,-0.1222,-4.9586,2.6897,-2.3233333,3.9860775,4.4762379999999995,-1
1052,1053,1583935544716,-0.3541,-5.8648,3.5303,-2.4287548,3.132315,5.397890599999999,-1
1053,1054,1583935544726,-0.3159,-6.4698997,4.2233,-1.9090311999999998,2.8411798,6.170078299999999,-1
1054,1055,1583935544736,0.33049998,-6.6575,5.0441,-0.9115492000000001,2.9566572,7.1252494,-1
1055,1056,1583935544746,1.7157999,-6.5348997,6.3961,0.7298197,3.0365086,9.043752,-1
1056,1057,1583935544756,2.8706,-6.4536,7.9733,1.4240807,3.061102,10.089242,-1
1057,1058,1583935544766,3.395,-6.5016,8.8287,1.4823171999999998,2.8941972000000002,10.221938,-1
1058,1059,1583935544776,3.3509,-6.6796,8.825399,1.4621198,3.0574627,9.500882,-1
1059,1060,1583935544786,3.3121,-6.3802,8.1022,1.3515747,3.5870025,8.895809,-1
1060,1061,1583935544796,3.2143,-5.6029,7.5347,1.3592648999999999,4.543036,8.216938,-1
1061,1062,1583935544806,3.1813,-4.6703,6.792000000000001,1.4760828000000001,5.839841000000001,6.698124000000001,-1
1062,1063,1583935544816,3.2814,-3.5224,5.5867996,1.4595915000000002,6.8195386,5.538545,-1
1063,1064,1583935544826,3.1631,-2.4325,4.2404,1.214952,7.937104,3.5713062000000004,-1
1064,1065,1583935544836,2.9262,-1.4779999,2.7122,1.1709753,8.877239999999999,2.0327919999999997,-1
1065,1066,1583935544846,2.8734999,-0.3441,0.9086,1.0186275,10.191379,-0.28898013,-1
1066,1067,1583935544856,2.6232998,0.7539,-0.77809995,0.6070641999999999,11.351609,-2.196776,-1
1067,1068,1583935544866,2.1474,1.8556999,-2.4668999,-0.014499285,12.288307000000001,-3.6634444999999998,-1
1068,1069,1583935544876,1.4746,2.7639,-3.6406,-0.7456023,12.939414999999999,-4.3991733,-1
1069,1070,1583935544886,0.6629999999999999,3.3200998,-4.1595,-1.5067765,13.105554,-4.7350316,-1
1070,1071,1583935544897,-0.2795,3.4348,-4.432699700000001,-2.429684,13.129496,-5.221428400000001,-1
1071,1072,1583935544907,-1.0452,3.4299998,-4.8694997,-2.71581,13.141926999999999,-5.968735,-1
1072,1073,1583935544917,-1.2688,3.4417,-5.5752997,-2.3143408,13.301620000000002,-6.503399,-1
1073,1074,1583935544927,-0.8073,3.6555,-6.0527,-1.4971517,13.5843935,-6.9375729999999995,-1
1074,1075,1583935544937,-0.1285,3.8957,-6.4213,-1.0730046,13.654228,-6.741459,-1
1075,1076,1583935544947,0.1805,3.8897998,-5.9445,-0.6951229,13.517135999999999,-5.783232,-1
1076,1077,1583935544958,0.37399998,3.7375,-5.2244997,-0.40031052,13.231651000000001,-5.109399,-1
1077,1078,1583935544968,0.56409997,3.4106998,-4.6017,-0.13370179999999998,12.935766000000001,-4.4596987,-1
1078,1079,1583935544978,0.7345,3.0963,-4.0938,-0.091171205,12.580563,-4.101104299999999,-1
1079,1080,1583935544988,0.6419,2.7942998,-3.8755998999999997,0.018425776,12.401955000000001,-4.297448,-1
1080,1081,1583935544998,0.7072,2.5728,-4.2233,0.3352361,12.292713000000001,-5.0859933,-1
1081,1082,1583935545008,0.94729996,2.4706,-5.1228,0.5155291,12.208293,-6.500066,-1
1082,1083,1583935545018,1.0296999,2.4089,-6.3016,0.64748794,12.2063875,-7.694408999999999,-1
1083,1084,1583935545029,1.1206,2.3778,-7.7384,0.5456003,11.9755,-9.0980625,-1
1084,1085,1583935545039,0.97429997,2.171,-8.828,0.17815733,11.671628,-9.680169,-1
1085,1086,1583935545049,0.5778,1.8664,-9.3778,-0.3992092,11.310325,-9.805894,-1
1086,1087,1583935545059,-0.0154,1.5122,-9.496799000000001,-0.6993366999999999,11.10357,-9.783369,-1
1087,1088,1583935545069,-0.36249998,1.2944,-9.4921,-0.66039747,10.856249,-10.2683,-1
1088,1089,1583935545079,-0.3705,1.0466,-10.0061,-0.11589851,10.704591,-10.805099499999999,-1
1089,1090,1583935545089,0.8795,0.72749996,-11.340899,0.7657615,10.541277000000001,-11.497368,-1
1090,1091,1583935545100,0.8795,0.72749996,-11.340899,1.9341798,10.338116000000001,-11.615211,-1
1091,1092,1583935545110,2.5764,0.34329998,-10.8166,2.6156652,10.104326,-10.551217999999999,-1
1092,1093,1583935545120,2.4675999,0.060599997999999995,-9.566899000000001,2.5379782000000004,9.817798,-9.089088,-1
1093,1094,1583935545130,2.4675999,0.060599997999999995,-9.566899000000001,2.4095726,9.563236,-7.3622375,-1
1094,1095,1583935545140,2.3704,-0.33179998,-6.5041,2.6652732000000006,9.46924,-5.7785015,-1
1095,1096,1583935545151,2.3704,-0.33179998,-6.5041,3.0281672000000004,9.426221,-4.8006234,-1
1096,1097,1583935545161,3.0902,-0.55399996,-4.7690997,3.426907,9.181429,-4.0316634,-1
1097,1098,1583935545171,3.2498999,-0.8143,-4.4217,3.545468,8.922939999999999,-3.67464,-1
1098,1099,1583935545181,3.0449,-1.0376999,-4.2869,3.301403,8.7435,-3.5770333,-1
1099,1100,1583935545191,2.6691,-0.97889996,-4.262,2.8562155,8.849142,-3.458616,-1
1100,1101,1583935545201,2.6691,-0.97889996,-4.262,2.7670364,8.974273,-3.1948133,-1
1101,1102,1583935545212,2.4196,-0.38279998,-3.1615,2.5318012000000003,9.506638,-2.0789428,-1
1102,1103,1583935545222,1.6909,-0.1876,-2.1111,1.9164723000000001,9.625764,-1.273361,-1
1103,1104,1583935545232,0.9866,-0.0902,-1.1970999,1.257023,9.688080000000001,-0.48523763,-1
1104,1105,1583935545242,0.77639997,-0.0708,-0.8788,1.2333778,9.7514305,-0.23016897,-1
1105,1106,1583935545252,1.0811,0.096999995,-0.5413,1.7223408,9.903788,0.11364797,-1
1106,1107,1583935545262,2.4312,0.5708,-0.2662,3.8156392999999995,10.84878,0.42655095,-1
1107,1108,1583935545272,4.2766,1.7231,0.2419,5.527972,11.881877000000001,1.1467748,-1
1108,1109,1583935545283,5.4723,2.6208,1.4850999,6.3853264,12.556075,2.3407056,-1
1109,1110,1583935545293,5.9163,3.1643999,3.1025,6.6734447,13.073039999999999,4.244201,-1
1110,1111,1583935545303,5.525,3.3330998,4.7532997,6.0887519999999995,13.091802000000001,5.887323,-1
1111,1112,1583935545313,4.7539,3.3137999,6.2278,5.362284,13.093736999999999,7.204028,-1
1112,1113,1583935545323,4.1208,3.431,7.4842,4.7934019999999995,13.263532999999999,8.269285,-1
1113,1114,1583935545333,3.7724998,3.5484,8.158299000000001,4.56942,13.364051000000002,8.845360000000001,-1
1114,1115,1583935545343,3.7357,3.7739999999999996,8.8678,4.7672386,13.840966,9.6834345,-1
1115,1116,1583935545353,4.022599700000001,4.3135,9.4787,5.14807,14.335560999999998,10.035929,-1
1116,1117,1583935545364,4.658,5.0092,9.734099,5.909886,15.164604999999998,9.952160000000001,-1
1117,1118,1583935545374,5.1981997,5.5954,9.3741,6.1673007,15.598377,9.258339999999999,-1
1118,1119,1583935545384,5.1417,5.9344997,8.6328,5.593056,15.799232,8.496179,-1
1119,1120,1583935545394,4.4725,6.0952,8.0301,4.7004980000000005,15.937223000000001,8.124101,-1
1120,1121,1583935545404,3.6455998,6.1573,7.8458996,3.8814607000000003,15.93415,8.105933,-1
1121,1122,1583935545414,2.9478998,6.1218,7.9441,3.178772,15.87667,8.223882000000001,-1
1122,1123,1583935545425,2.4038,6.0772,8.0142,2.607439,15.85835,8.222436,-1
1123,1124,1583935545435,2.0203,6.0533,7.8691998,2.4028878,15.907718,7.870075999999999,-1
1124,1125,1583935545445,2.0514997999999998,6.1773996,7.2625,2.3026283,16.004482,6.788672999999999,-1
1125,1126,1583935545455,2.0779998,6.165,5.9143996,2.352782,15.963368,5.346252400000001,-1
1126,1127,1583935545465,2.2015,6.1143,4.4905,2.3292994,15.942739999999999,4.025352,-1
1127,1128,1583935545475,2.3861,6.1337,3.2119,2.4899602,15.825673000000002,2.7556016,-1
1128,1129,1583935545485,2.6246998,5.9688,2.2802,2.3289647,15.41115,2.2367015,-1
1129,1130,1583935545496,2.5388,5.4733996,1.8496,1.7558022,14.742564999999999,2.2635932,-1
1130,1131,1583935545506,2.0792,4.7956,1.9116,0.8444254000000001,13.996656,2.4360716,-1
1131,1132,1583935545517,1.3003,4.0537,2.0266,-0.1864317,13.176929000000001,2.7753297999999997,-1
1132,1133,1583935545527,0.49789998,3.2675,2.3837,-1.0647396999999998,12.438827,2.9597982999999997,-1
1133,1134,1583935545537,-0.132,2.5340000000000003,2.4076998,-1.6507638,11.660309,2.7069992999999997,-1
1134,1135,1583935545547,-0.4913,1.7832999,2.0595999,-2.0032861,10.808633,2.3339060000000003,-1
1135,1136,1583935545557,-0.57559997,0.94519997,1.6405,-1.3551182,10.241992,1.7702535,-1
1136,1137,1583935545567,0.48349997,0.50879997,0.9216,-0.11861833,9.625677,0.77677476,-1
1137,1138,1583935545577,1.6825999,-0.18249999,-0.0818,0.40361452,8.862157,0.6314371999999999,-1
1138,1139,1583935545588,2.1957,-0.75259995,-0.1812,1.16544,8.270769,1.3125013,-1
1139,1140,1583935545598,3.0816998,-1.3172,0.4118,1.4364923,7.7805715,2.3704705,-1
1140,1141,1583935545608,3.4556,-1.9339998999999999,1.6322,0.8107725,6.7221044999999995,3.6112892999999997,-1
1141,1142,1583935545619,3.0467,-2.7796,2.5458,0.046323012999999996,5.9516983,4.0307536,-1
1142,1143,1583935545629,2.29,-3.6599998,2.9673,-1.1773343,4.9446487,4.032850700000001,-1
1143,1144,1583935545639,0.7768,-5.2532,2.1589,-2.0241919999999998,4.0931463,3.2861855,-1
1144,1145,1583935545649,0.6182,-5.7067,0.9217,-2.3477254000000003,3.58774,2.0020986,-1
1145,1146,1583935545659,0.6872,-6.2131,-0.21599999,-2.4229896,3.0408754,0.82638264,-1
1146,1147,1583935545670,0.4556,-6.7907996,-0.993,-2.794857,2.4175212000000004,-0.023884555,-1
1147,1148,1583935545680,0.11,-7.3809,-1.6429,-3.254994,1.7927973000000001,-0.7070748,-1
1148,1149,1583935545690,0.0783,-7.8574996,-2.0818,-3.3669752999999996,1.2037472,-1.177296,-1
1149,1150,1583935545700,0.3197,-8.2705,-1.9611,-3.1630085,0.7956314999999999,-0.97488064,-1
1150,1151,1583935545710,0.6498,-8.4531,-1.5942999,-2.9231765,0.5847311,-0.5775294,-1
1151,1152,1583935545720,0.573,-8.835899000000001,-0.9666,-3.0556717,0.23286006,0.01748725,-1
1152,1153,1583935545731,0.573,-8.835899000000001,-0.9666,-3.3999387999999997,-0.17460434,0.7499693000000001,-1
1153,1154,1583935545741,-0.1695,-9.738999,-0.0253,-3.9097505,-0.82169956,0.98774225,-1
1154,1155,1583935545751,-0.29729998,-10.252399,-0.331,-3.8429906000000003,-1.4288309,0.48697105,-1
1155,1156,1583935545761,0.3955,-10.664599,-1.1834999,-3.0582287,-1.6948744999999998,-0.35785654,-1
1156,1157,1583935545772,1.2756,-10.9344,-2.0661,-2.3499184,-2.0056130000000003,-1.0988046,-1
1157,1158,1583935545782,1.0018,-11.1637,-2.095,-2.9883087,-2.2898817000000005,-0.9912091000000001,-1
1158,1159,1583935545792,0.304,-11.5564995,-2.0461,-3.656712,-2.7015693,-1.0608803999999998,-1
1159,1160,1583935545802,-0.47129998,-11.9494,-2.3081,-4.448628,-3.1371226,-1.5484452,-1
1160,1161,1583935545812,-1.1065999,-12.4731,-3.1057,-4.789658,-3.523949,-2.229902,-1
1161,1162,1583935545822,-0.9939,-12.6698,-3.8072,-4.522896,-3.6281830000000004,-2.9793444,-1
1162,1163,1583935545832,-0.84559995,-12.756599000000001,-4.0692,-4.3487606,-3.7301662,-2.8410938,-1
1163,1164,1583935545843,-0.40739998,-12.6345,-3.4477,-3.4867525,-3.2963370000000003,-2.049513,-1
1164,1165,1583935545853,0.5557,-12.067699000000001,-2.7333998999999998,-2.4953232000000005,-2.7365055,-1.3139284,-1
1165,1166,1583935545863,1.3843,-11.4853,-1.9869999999999999,-1.4335139,-1.9306747,-0.52936757,-1
1166,1167,1583935545874,2.6922,-10.405,-1.4634999,0.379797,-0.63230866,-0.33261209999999997,-1
1167,1168,1583935545884,3.9777,-9.5121,-1.5819999999999999,2.1091290000000003,0.45402682,-0.29350040000000005,-1
1168,1169,1583935545894,5.9181,-8.274,-1.3975999,4.0439405,1.8172948,0.21216458,-1
1169,1170,1583935545905,7.0153,-7.1094,-0.76199996,3.6573154999999997,2.3519007999999997,1.0575572,-1
1170,1171,1583935545916,5.7153,-6.877999999999999,0.1822,1.760648,2.8348400000000002,1.7133098999999998,-1
1171,1172,1583935545926,3.6466,-6.3188996,0.6472,-0.1659948,3.1785805,1.9276963,-1
1172,1173,1583935545936,1.9751999,-6.094599700000001,0.8203,-1.5629828000000001,4.0793175999999995,1.3488454,-1
1173,1174,1583935545946,0.9377,-5.0621,0.25759998,-2.2427732999999996,5.270117,0.60654706,-1
1174,1175,1583935545956,0.2376,-3.9480998999999994,-0.3533,-2.182851,6.625522599999999,-0.35050157,-1
1175,1176,1583935545966,0.4838,-2.4975,-1.2203,-0.9441869,8.644533000000001,-1.8100356,-1
1176,1177,1583935545976,1.6395998999999999,-0.47469997,-2.6093,0.80489236,10.712299,-3.1018414,-1
1177,1178,1583935545987,3.4378,1.6341,-3.6223,3.1840200000000003,13.109451000000002,-3.5439165,-1
1178,1179,1583935545997,5.4883,3.8819999999999997,-3.7694,4.4067864000000005,15.105421,-2.9199014,-1
1179,1180,1583935546007,6.1189,5.7736998,-2.7784998,3.730262,16.235416,-1.066703,-1
1180,1181,1583935546017,4.9663997,6.6541,-0.8063,1.9817189999999998,16.622225,0.1474924,-1
1181,1182,1583935546027,2.932,6.9921,0.095199995,-0.58697206,16.930252,-0.5175976999999999,-1
1182,1183,1583935546037,0.1074,7.2455997000000005,-0.6914,-2.3361185,17.383791,-2.2985103,-1
1183,1184,1583935546047,-1.3547,7.7556996,-2.6583,-2.1891048,17.93436,-5.1343083,-1
1184,1185,1583935546058,-1.1586,8.2755995,-5.3388,-0.5856121999999999,18.774496,-6.962865400000001,-1
1185,1186,1583935546068,0.4337,9.1788,-6.8048,1.9946956999999998,19.56605,-6.856477000000001,-1
1186,1187,1583935546078,2.6901,9.870999000000001,-6.2928,4.075601600000001,20.049706,-4.4242644,-1
1187,1188,1583935546088,4.2271,10.269,-3.6220999,5.0403404,20.09827,-0.84690577,-1
1188,1189,1583935546098,4.7195,10.257899,-0.1648,5.560916400000001,19.937494,2.944686,-1
1189,1190,1583935546108,4.8238997,10.1507,2.6777,5.4821568,19.739051999999997,4.8486223,-1
1190,1191,1583935546118,4.502,9.9815,4.4221,4.8735127,19.244257,5.4460044000000005,-1
1191,1192,1583935546129,3.6987,9.507899,4.9061,3.9134758,18.541636999999998,4.822908999999999,-1
1192,1193,1583935546139,2.5874,8.832399,4.2589999999999995,2.5076389999999997,17.598858,3.6087036,-1
1193,1194,1583935546149,0.99649996,7.9038,3.1043,0.97015923,16.577616,1.9684074,-1
1194,1195,1583935546159,-0.5672,6.8973,1.5008999,0.53533393,15.781054500000002,-0.0014077906,-1
1195,1196,1583935546169,-0.71669996,5.5214996,-1.8925999,0.97361654,15.197501999999998,-1.6667857,-1
1196,1197,1583935546179,0.0492,5.1607,-2.9071,1.8178215,14.820875,-2.7758757999999997,-1
1197,1198,1583935546190,0.7078,4.8704,-3.0556997999999997,2.592346,14.428761499999998,-2.9043775000000003,d
1198,1199,1583935546200,0.7078,4.8704,-3.0556997999999997,2.4124072,14.056061999999999,-2.1977816000000003,-1
1199,1200,1583935546210,0.5697,4.5561,-2.5142,2.1088417,13.814831,-1.481781,-1
1200,1201,1583935546220,0.1576,3.8511998999999997,-0.96889997,2.2900633999999997,13.360919,-0.7419821999999999,-1
1201,1202,1583935546230,0.3979,3.5200998999999995,-0.63089997,2.5303264,13.051129,-0.4326130999999999,-1
1202,1203,1583935546240,0.3355,3.089,-0.3275,2.434252,12.563630999999999,-0.028050467000000003,-1
1203,1204,1583935546250,0.040799998,2.5570998,0.1673,2.1608627,12.015646,0.5097064,-1
1204,1205,1583935546261,0.040799998,2.5570998,0.1673,2.0098941000000003,11.539219000000001,0.93837386,-1
1205,1206,1583935546271,-0.0906,1.5462999,0.9156,2.1402345,11.029474,1.2595991000000002,-1
1206,1207,1583935546281,0.0313,1.2343,0.9481,2.2656715,10.747207000000001,1.2330331,-1
1207,1208,1583935546291,-0.053299997,0.90019995,0.7001,2.0643382,10.406666,0.938709,-1
1208,1209,1583935546301,-0.4525,0.6028,0.30719998,1.6637881999999997,10.1155405,0.53904015,-1
1209,1210,1583935546311,-0.75,0.324,-0.21609999,1.3683531999999998,9.830008,-0.016625335,-1
1210,1211,1583935546322,-0.97139996,0.0066,-0.51489997,1.1182166,9.454818,-0.28728506,-1
1211,1212,1583935546332,-1.0524,-0.2403,-0.5683,1.1369107,9.301867,-0.30640996,-1
1212,1213,1583935546342,-0.7213,-0.3278,-0.41869998,1.5299332,9.230107,-0.10846691,-1
1213,1214,1583935546352,-0.3482,-0.4134,-0.0646,1.9066657,9.160244,0.50259084,-1
1214,1215,1583935546362,-0.1241,-0.4199,0.5381,2.0886633000000003,9.117513,1.0873603,-1
1215,1216,1583935546372,-0.015999998999999997,-0.4366,0.968,2.222116,9.152986,1.4376128000000001,-1
1216,1217,1583935546382,0.1252,-0.4154,1.1945,2.3667355,9.169534,1.5186517,-1
1217,1218,1583935546393,0.1839,-0.4157,1.0575,2.2698276,9.121526,1.3659686000000002,-1
1218,1219,1583935546403,-0.0354,-0.44739997,0.9481,2.1065528,9.121899,1.1020415000000001,-1
1219,1220,1583935546413,-0.1732,-0.4802,0.58669996,1.9326379,9.091924,0.71798277,-1
1220,1221,1583935546423,-0.3505,-0.4834,0.2716,1.7186058999999998,9.106116,0.34217933,-1
1221,1222,1583935546433,-0.5214,-0.4269,-0.1295,1.6376818000000002,9.238267,-0.13497551,-1
1222,1223,1583935546444,-0.54219997,-0.25079998,-0.40609998,1.5925463,9.442407000000001,-0.38814798,-1
1223,1224,1583935546454,-0.54179996,-0.043199997000000004,-0.50589997,1.7314675,9.660594999999999,-0.4158441,-1
1224,1225,1583935546464,-0.23619999,0.3137,-0.3445,2.1660247000000004,10.107438,-0.10321882,-1
1225,1226,1583935546474,0.0328,0.6920000000000001,0.0301,2.2983859,10.39095,0.2581237,-1
1226,1227,1583935546484,0.07369999599999999,1.0612999,0.3793,2.3456855,10.865049,0.50568414,-1
1227,1228,1583935546494,0.0937,1.4898,0.47419998,2.3332452999999997,11.330817999999999,0.48526640000000004,-1
1228,1229,1583935546504,0.024799999,1.9871,0.4258,2.3523605,11.865117999999999,0.42425254,-1
1229,1230,1583935546515,0.0722,2.5634,0.3682,2.5335919999999996,12.481376,0.37199190000000004,-1
1230,1231,1583935546525,0.226,3.2087998,0.3845,2.5664787000000002,13.165322,0.56107634,-1
1231,1232,1583935546535,0.1255,3.9522998,0.67649996,2.5501888,13.914026999999999,0.90401226,-1
1232,1233,1583935546545,0.20359999,4.6756997,1.0399,2.774305,14.669829,1.3018903,-1
1233,1234,1583935546556,0.41200000000000003,5.4377,1.4228,2.9868145,15.478561,1.7108581999999999,-1
1234,1235,1583935546566,0.5092,6.1,1.7141998999999999,2.9333183999999997,16.16336,1.8896285,-1
1235,1236,1583935546576,0.4403,6.8283,1.8881999,2.8723813999999996,16.811548000000002,1.9608511999999998,-1
1236,1237,1583935546586,0.3918,7.4263997,1.9444,2.8558613999999998,17.248652,1.9298798,-1
1237,1238,1583935546596,0.37199998,7.8162,1.949,2.6720917,17.458939,2.0366131999999997,-1
1238,1239,1583935546607,0.1644,7.9488997,2.1338,2.3779882999999997,17.377893,2.3552337000000003,-1
1239,1240,1583935546616,-0.2726,7.7665,2.6160997999999998,1.9283186999999997,17.183483,2.9003646,-1
1240,1241,1583935546626,-0.3646,7.6917,2.9987,3.3512695,17.629848000000003,2.3172808,-1
1241,1242,1583935546636,1.4309,8.266,2.1429,6.138321400000001,18.339882,0.107202776,-1
1242,1243,1583935546646,4.3556,8.9487,-0.1541,8.146683,18.849129,-2.2693298,-1
1243,1244,1583935546656,5.9914,9.3418,-2.3662,8.370637,18.851091,-3.5535602999999996,-1
1244,1245,1583935546666,5.8287997,9.1655,-3.4275,6.936443,18.358078,-3.8923016,-1
1245,1246,1583935546677,4.493,8.6461,-3.3592,5.0608830000000005,17.584023000000002,-3.0886447,-1
1246,1247,1583935546687,2.7514,7.7783,-2.4157,3.0695197999999997,16.562101000000002,-1.7083108,-1
1247,1248,1583935546697,0.9181,6.6849,-1.0555,1.1845456,15.384595000000001,-0.02651818,-1
1248,1249,1583935546707,-0.7783,5.4683,0.599,-0.2348616,14.425266,1.5535017,-1
1249,1250,1583935546717,-2.1543999,4.2781,2.5024,-0.3641485,13.450289999999999,3.474657,-1
1250,1251,1583935546727,-1.3196,3.6546998,3.5310998,3.9646160000000004,13.370516,1.4792143999999998,-1
1251,1252,1583935546737,2.6550999,3.6460000000000004,1.5022,6.7317100000000005,13.293996,-0.81681544,-1
1252,1253,1583935546747,5.9715,3.3646998,-1.2380999,8.516013000000001,12.548672,-2.3720121,-1
1253,1254,1583935546757,7.4228997,2.6392,-2.5588,8.056852000000001,11.487437,-2.4121102999999997,-1
1254,1255,1583935546767,6.6823997,1.4789,-2.3339999,6.101585,10.303169,-0.893631,-1
1255,1256,1583935546777,4.7875,0.3078,-0.7576,3.9408559999999997,9.0975065,1.0227455,-1
1256,1257,1583935546787,2.8284,-0.91029996,1.0115,1.6746866999999999,8.092775,2.6896462000000003,-1
1257,1258,1583935546798,0.68869996,-1.9094,2.4833,-0.7086358,6.906343,3.8429043,-1
1258,1259,1583935546808,-1.4297999,-3.0916997999999998,3.5953,-2.00568,6.151777,4.5818315,-1
1259,1260,1583935546818,-2.3153,-3.9482,4.124,-0.68789244,5.610639,2.7853377,-1
1260,1261,1583935546828,-0.69409996,-4.1959,2.3100998,0.57629395,5.34743,-0.700122,-1
1261,1262,1583935546838,0.6545,-4.463,-1.1018,0.9519921,5.0772877,-2.7438700000000003,-1
1262,1263,1583935546848,1.1446999,-4.7676997000000005,-3.4822998,0.42656055,4.499882700000001,-4.232058,-1
1263,1264,1583935546859,0.69549996,-5.3054,-4.5492,-0.8664040999999999,3.8409699999999996,-3.5830089999999997,-1
1264,1265,1583935546869,-1.7123,-6.5895996,-2.4166,-2.2089002,3.2029343,-2.0300244999999997,-1
1265,1266,1583935546879,-2.4313,-7.1025,-0.8635,-3.0006242000000003,2.6845992,-0.40809646,-1
1266,1267,1583935546889,-2.4313,-7.1025,-0.8635,-3.4311879999999997,2.5155592,0.6743316999999999,-1
1267,1268,1583935546899,-2.1478999,-7.0828,0.2519,-2.7582543,2.6963307999999997,0.8572390999999999,-1
1268,1269,1583935546909,-0.162,-6.3466997,-0.8811,-0.75131005,3.4302300999999997,-0.26287377,-1
1269,1270,1583935546919,1.5734999,-5.857199700000001,-2.2681,1.0271317,3.9200647000000006,-1.6357089,-1
1270,1271,1583935546929,2.9268,-5.5923,-3.4638998999999995,2.3914435000000003,4.1893454,-2.8227255,-1
1271,1272,1583935546940,2.8244,-5.9714,-3.5707,2.260634,3.8057272000000006,-2.9090986,-1
1272,1273,1583935546950,1.6805999,-6.620199700000001,-2.3566,0.8410542999999999,3.0530286,-1.2608249,-1
1273,1274,1583935546960,0.7233,-6.8922,-0.39069998,-0.18426733,2.868608,0.88361365,-1
1274,1275,1583935546970,0.0914,-6.7019,1.2915,-0.86636585,3.1709669999999996,2.5942228,-1
1275,1276,1583935546980,-0.12879999,-6.1116,2.04,-0.97831875,3.8410466,2.9818919999999998,-1
1276,1277,1583935546990,0.1275,-5.3887,1.3787,-0.71385515,4.574314,1.95115,-1
1277,1278,1583935547000,0.51309997,-4.562,-0.0112,-0.47564170000000006,5.2904196,0.70231515,-1
1278,1279,1583935547011,0.4387,-4.06,-0.9343,-0.67063504,5.724948400000001,-0.15721285,-1
1279,1280,1583935547021,-0.022499999,-3.8802998,-1.3209,-1.1245565,5.836374,-0.45854709999999993,-1
1280,1281,1583935547031,-0.7653,-4.0224,-1.3661,-2.1041488999999998,5.6651692,-0.48802449999999997,-1
1281,1282,1583935547041,-1.4842,-3.9773,-1.041,-2.7926352000000003,5.7822747,-0.14243585,-1
1282,1283,1583935547051,-1.7480999,-3.6390998,-0.8312,-3.0235894,6.120680999999999,0.06377195599999999,-1
1283,1284,1583935547061,-1.5631,-3.2152,-0.742,-2.591915,6.711656,0.05200206,-1
1284,1285,1583935547071,-0.774,-2.5686,-0.9673,-1.8211734,7.258414999999999,-0.2299104,-1
1285,1286,1583935547081,0.2227,-1.9338,-1.3048999,-0.8732899,7.868247,-0.49027506,-1
1286,1287,1583935547091,0.81189996,-1.5045998999999999,-1.114,-0.35284787,8.262179,-0.16363889999999998,-1
1287,1288,1583935547101,0.97349995,-1.1031,-0.49429998,-0.20943518,8.674585,0.59803325,-1
1288,1289,1583935547111,0.9888,-0.81729996,0.5117,-0.22601263,8.913306,1.6258928999999998,-1
1289,1290,1583935547121,0.6857,-0.7068,1.2494999,-0.6048424,8.986952,2.3056834,-1
1290,1291,1583935547131,0.0832,-0.70409995,1.2903,-1.3872483,8.996758,2.0172968,-1
1291,1292,1583935547141,-0.5589,-0.7025,0.5997,-1.8862,9.002477,1.3655282,-1
1292,1293,1583935547152,-0.5589,-0.7025,0.5997,-2.2023973,9.181696,0.44829988,-1
1293,1294,1583935547162,-1.1152999,-0.5549,-1.0119,-2.484846,9.13818,-0.3475902,-1
1294,1295,1583935547172,-1.129,-0.49609998,-1.2918999,-2.3604722000000002,9.222781,-0.45204443,-1
1295,1296,1583935547182,-0.7022,-0.38799998,-1.0318,-1.9022986000000002,9.336486,0.09497319,-1
1296,1297,1583935547192,-0.5681,-0.29889998,-0.2427,-1.8349353,9.421471,0.8140765,-1
1297,1298,1583935547202,-0.5681,-0.29889998,-0.2427,-1.5198298000000001,9.590367,1.7280103,-1
1298,1299,1583935547213,-0.13769999,-0.0116,1.0206,-1.3554245,9.781941999999999,2.0778317,-1
1299,1300,1583935547223,0.11229999,0.25349998,1.1922,-0.9690388000000001,10.014534,2.0754378,-1
1300,1301,1583935547233,0.5107,0.41939998,0.8691,-0.5495459,10.166843,1.6883240000000002,-1
1301,1302,1583935547243,0.8455,0.57449996,0.5033,-0.31046093,10.263214999999999,1.2430504999999998,-1
1302,1303,1583935547255,0.9931,0.5237,0.0326,-0.23801237,10.215111,0.8913804,-1
1303,1304,1583935547265,0.89669997,0.50299996,-0.0973,-0.5693411999999999,10.068413,0.69409823,-1
1304,1305,1583935547276,0.6541,0.3364,-0.22489999,-0.7949324000000001,9.9074745,0.57231957,-1
1305,1306,1583935547286,0.3698,0.1319,-0.2658,-1.1817205,9.774788000000001,0.7060022,-1
1306,1307,1583935547296,-0.0872,-0.0026999997999999996,-0.0082,-1.8123341,9.547435,0.9927318000000002,-1
1307,1308,1583935547306,-0.0872,-0.0026999997999999996,-0.0082,-2.2321715,9.365485000000001,0.80156916,-1
1308,1309,1583935547316,-0.885,-0.3593,-0.19849999,-2.2538152,9.255227,0.12385684,d
1309,1310,1583935547327,-0.7899,-0.43739998,-0.7597,-1.762075,9.397769,-0.049732357000000005,-1
1310,1311,1583935547337,-0.2382,-0.2031,-0.77889997,-1.1083238000000002,9.777316,0.13724522,-1
1311,1312,1583935547347,0.625,0.24599999,-0.5251,-0.31690612,10.1196,0.5801341999999999,-1
1312,1313,1583935547357,1.1042,0.4703,-0.1625,-0.13976392,10.226967,0.9769013000000001,-1
1313,1314,1583935547367,1.2188,0.54899997,0.22559999,-0.12573389999999998,10.2329235,1.4802966,-1
1314,1315,1583935547377,1.1791999,0.5311,0.7055,-0.44790727,10.100313,1.7634444,-1
1315,1316,1583935547388,0.8197,0.3867,0.91099995,-0.87651724,10.031542,1.6605608,-1
1316,1317,1583935547398,0.4213,0.31129998,0.7169,-1.1926379999999999,9.861478,1.1027215,-1
1317,1318,1583935547408,0.1648,0.1671,0.1114,-1.4721467,9.790763,0.47084373,-1
1318,1319,1583935547418,-0.0722,0.120699994,-0.49019998,-1.67031,9.755059,-0.12072523,-1
1319,1320,1583935547429,-0.2245,0.0742,-1.0069,-1.8024987000000001,9.751919000000001,-0.38540903,-1
1320,1321,1583935547439,-0.3022,0.16749999,-0.8358,-1.7984476999999999,9.842199,-0.022955606,-1
1321,1322,1583935547449,-0.29549998,0.1506,-0.4723,-1.7989936000000002,9.811544,0.37749857,-1
1322,1323,1583935547460,-0.36069998,0.055299997000000004,-0.085099995,-1.8596721999999999,9.715154,0.79146564,-1
1323,1324,1583935547470,-0.2522,0.028299998,0.055499997,-1.7612994,9.683703,0.96718085,-1
1324,1325,1583935547480,-0.0874,0.020499998999999998,-0.076799996,-1.539012,9.681902000000001,0.8053520000000001,-1
1325,1326,1583935547490,0.1056,0.042,-0.3066,-1.3681713,9.69669,0.6453331,-1
1326,1327,1583935547500,0.1056,0.042,-0.3066,-1.1562748999999999,9.698959,0.7464929,-1
1327,1328,1583935547510,0.44829997,0.0278,0.1388,-1.0459118,9.676798,1.1478281000000001,-1
1328,1329,1583935547521,0.4951,-0.0563,0.60139996,-1.0082175,9.5934515,1.6464637999999998,-1
