,Seq,Time,ACCx,ACCy,ACCz,ADGx,ADGy,ADGz,Keydown
0,1,1583936458707,-0.058599997,0.5275,-0.3766,2.8608412999999997,9.53326,0.49307147,-1
1,2,1583936458718,-0.15959999,0.2438,-0.5198,0.58508545,10.289427,-0.28960264,-1
2,3,1583936458728,0.0246,0.4784,-0.014599998999999999,0.09375694,10.123298,-0.33401987,-1
3,4,1583936458738,-0.3497,0.3281,-0.011899999,-0.23528299,9.957685000000001,-0.31871614,-1
4,5,1583936458748,-0.6807,0.1099,0.0403,-0.82539624,9.788818,-0.21656033,-1
5,6,1583936458758,-1.0619,-0.0099,0.15179999,-1.3107201000000002,9.658899,-0.12957421,-1
6,7,1583936458768,-1.4089,-0.14909999,0.25509998,-1.6681553,9.588998,-0.15203181,-1
7,8,1583936458779,-1.5914999,-0.2181,0.23689999,-1.8641063000000002,9.566091,-0.17765935,-1
8,9,1583936458789,-1.5666,-0.24409999,0.19319999,-1.7562044999999997,9.584324,-0.21687637,-1
9,10,1583936458799,-0.6134,-0.1564,0.081599995,-1.3231030000000001,9.624883,-0.23377943,-1
10,11,1583936458809,0.035299998,0.0378,-0.0321,-0.6492405,9.832286999999999,-0.35274252,-1
11,12,1583936458819,0.035299998,0.0378,-0.0321,-0.13714944,9.962551,-0.55220824,-1
12,13,1583936458829,0.58739996,0.267,-0.29099998,0.031421505,10.059018,-0.6292631999999999,-1
13,14,1583936458840,0.58739996,0.267,-0.29099998,0.016510413999999998,10.160293,-0.3442383,-1
14,15,1583936458850,0.19909999,0.2545,0.2717,-0.44304225,10.019217,-0.014499285,-1
15,16,1583936458860,0.19909999,0.2545,0.2717,-0.90998816,9.881521000000001,0.11374374,-1
16,17,1583936458870,-0.9787,-0.1258,0.44759998,-1.6588657,9.649341999999999,0.14966634,-1
17,18,1583936458880,-0.9787,-0.1258,0.44759998,-1.8459008000000001,9.673992,0.14869907,-1
18,19,1583936458891,-1.0832,-0.1369,0.27789998,-1.8105527,9.633807000000001,-0.058485555999999994,-1
19,20,1583936458901,-0.968,-0.0625,0.0312,-1.7178493000000001,9.743233,-0.31416714,-1
20,21,1583936458911,-0.60209996,0.0213,-0.2739,-1.4193018999999998,9.805394999999999,-0.61533856,-1
21,22,1583936458921,-0.36949998,0.0946,-0.4551,-1.2506831,9.875441,-0.7727430000000001,-1
22,23,1583936458931,-0.29369998,0.1278,-0.4021,-1.2280434,9.883714999999999,-0.6801065,-1
23,24,1583936458941,-0.2625,0.1213,-0.1205,-1.2430408000000002,9.901738,-0.40501273,-1
24,25,1583936458951,-0.19659999,0.1828,0.1441,-1.1942375,9.942477,-0.16384001,-1
25,26,1583936458961,-0.2297,0.1461,0.2571,-1.2868928999999998,9.889662,-0.051666874,-1
26,27,1583936458972,-0.3486,0.089999996,0.3572,-1.4487028,9.847227,0.10056604400000001,-1
27,28,1583936458982,-0.4639,0.034199997999999995,0.5423,-1.5642374,9.764128999999999,0.28700733,-1
28,29,1583936458992,-0.43969998,-0.0309,0.6756,-1.5209883,9.674682,0.45938984,-1
29,30,1583936459002,-0.3261,-0.12539999,0.8056,-1.4167067,9.601544,0.59907717,-1
30,31,1583936459012,-0.1924,-0.1707,0.92179996,-1.3539018999999999,9.565123,0.76890266,-1
31,32,1583936459022,-0.078,-0.1767,1.0818,-1.2948705,9.545529,0.9136561,-1
32,33,1583936459033,-0.0213,-0.2511,1.1087999,-1.3396995,9.423913,0.879783,-1
33,34,1583936459043,-0.1654,-0.44239998,0.894,-1.5948735,9.215896,0.63669485,-1
34,35,1583936459053,-0.3768,-0.6809,0.5002,-1.859155,8.890323,0.28129956,-1
35,36,1583936459063,-0.6925,-1.1353999,0.23879999,-2.2379177,8.372514,0.12785037,-1
36,37,1583936459073,-1.015,-1.5906,0.22829999,-2.5201273,7.9364433000000005,0.33166397,-1
37,38,1583936459083,-1.1256,-2.0363,0.7589,-2.688947,7.5123534,1.1714445,-1
38,39,1583936459094,-1.2779,-2.3741,1.6053,-2.8433826,7.137096400000001,2.1507401,-1
39,40,1583936459104,-1.3353,-2.6626,2.3659,-2.816223,7.026014999999999,2.860161,-1
40,41,1583936459115,-1.0142,-2.6962,3.0305,-2.4726741000000003,6.854686,3.40761,-1
41,42,1583936459125,-0.86329997,-2.9067,3.0812,-2.4194174,6.7165117,3.2551086,-1
42,43,1583936459135,-0.7527,-3.0096998,2.8464,-2.3210732999999997,6.547921,2.9470419999999997,-1
43,44,1583936459145,-0.7018,-3.2308998,2.4129999,-2.3783426,6.3076677000000005,2.5211806,-1
44,45,1583936459156,-0.7685,-3.4427998,2.0231,-2.4650795,6.1814747,2.1919205,-1
45,46,1583936459166,-0.79719996,-3.5275,1.7687998999999999,-2.5363119999999997,6.0306973,2.118792,-1
46,47,1583936459176,-0.83769995,-3.6912,1.8025999,-2.5925086,5.888232,2.1793077000000003,-1
47,48,1583936459186,-0.98939997,-3.8751,1.7804999,-2.7336132999999996,5.7468886,1.9417838,-1
48,49,1583936459196,-0.9323,-3.9427,1.4685,-2.541359,5.5872720000000005,1.5113925,-1
49,50,1583936459206,-0.7032,-4.1505,1.0206,-2.1042732999999996,5.4442330000000005,1.0609282,-1
50,51,1583936459217,-0.3266,-4.24,0.70379996,-1.6841868000000002,5.3055797,0.76842386,-1
51,52,1583936459227,0.0941,-4.3733997,0.452,-1.2833974,5.1633544,0.6895300999999999,-1
52,53,1583936459237,0.4017,-4.5565,0.4473,-1.1238478,5.038750599999999,0.7764300999999999,-1
53,54,1583936459247,0.5739,-4.6424,0.64269996,-0.781975,5.1801424,1.2367008999999998,-1
54,55,1583936459257,0.84059995,-4.4818,1.0552,-0.5111333,5.1854005,1.4926028,-1
55,56,1583936459267,1.0701,-4.5281997,1.2541,-0.15270218,5.1992197,1.4128566999999999,-1
56,57,1583936459278,1.3958,-4.4965,1.128,0.24492684,5.191032,0.9388144,-1
57,58,1583936459288,1.7498,-4.5434,0.5652,0.60712165,4.9702573,0.08237012,-1
58,59,1583936459298,2.0165,-4.8059,-0.2179,0.814833,4.75409,-0.5861772,-1
59,60,1583936459308,2.1578,-4.9992,-0.7956,1.1515822,4.689274,-1.0762032,-1
60,61,1583936459318,2.4266,-5.0449,-1.1241,1.1450413000000002,4.807375,-1.3253629999999998,-1
61,62,1583936459329,2.3302999,-4.9138,-1.4231,1.0339503,4.941747,-2.2169635,-1
62,63,1583936459339,2.1987,-4.8026,-2.1574,1.1722777,5.172730400000001,-2.9561975,-1
63,64,1583936459349,2.3186,-4.5257998,-3.0209,1.402801,5.2352667,-3.7306449999999995,-1
64,65,1583936459359,2.7832,-4.3389,-3.8156998,1.8619898999999998,5.4311795,-3.924901,-1
65,66,1583936459370,2.7832,-4.3389,-3.8156998,2.3251145,5.569363,-3.9087257000000006,-1
66,67,1583936459380,3.2856,-4.1435,-3.7991998,3.280564,6.004399299999999,-3.6936882000000004,-1
67,68,1583936459390,3.9524,-3.7907,-3.6648,3.5343970999999996,6.520714,-3.2660932999999996,-1
68,69,1583936459400,3.8723998,-2.9420998,-3.1632,3.4088356,6.9932623,-3.0978289,-1
69,70,1583936459410,3.5874998999999996,-2.4852998,-3.5728998,3.3182199999999997,7.509135700000001,-3.6537051,-1
70,71,1583936459420,3.4891,-1.8599,-4.5819,3.3871345999999996,8.122789,-4.6556783,-1
71,72,1583936459430,3.4578998,-1.2712,-5.4533,3.5379023999999997,8.674614,-5.3103776,-1
72,73,1583936459441,3.8460998999999996,-0.4243,-5.9494,4.195685,9.57583,-5.647376,-1
73,74,1583936459451,4.4494,0.6423,-5.8476,4.831997,10.441362,-5.47235,-1
74,75,1583936459461,5.1177998,1.6645,-5.3441997,5.8483160000000005,11.675248,-4.7555456,-1
75,76,1583936459471,5.817199700000001,2.7203,-4.7472,6.7583337,12.685658,-4.082027399999999,-1
76,77,1583936459481,6.1299,3.6911,-4.2913,6.990034599999999,13.788714,-3.732273,-1
77,78,1583936459492,5.6053,4.5462,-4.7218,6.622151400000001,14.430610999999999,-4.1587377,-1
78,79,1583936459503,5.2651,5.4723997,-5.1056,6.578663000000001,15.3881855,-4.4377675000000005,-1
79,80,1583936459513,5.3873,6.392299700000001,-5.3581,7.056593400000001,16.384739,-4.716395400000001,-1
80,81,1583936459523,5.9061,7.218,-5.5731,7.874405,17.198662,-4.802308999999999,-1
81,82,1583936459533,6.3582,7.9879999999999995,-5.4322,8.254230499999998,17.767265,-4.574381,-1
82,83,1583936459543,6.1478996,8.3267,-5.2345,7.9957720000000005,18.018772,-4.374704400000001,-1
83,84,1583936459553,5.5344,8.5453,-5.0875,7.3081474,18.051256,-4.3274617,-1
84,85,1583936459564,4.6651998,8.4952,-5.1126,6.3623996,17.970657,-4.593707,-1
85,86,1583936459574,3.5965,8.4121,-5.468999999999999,5.735214,17.827312,-4.965469000000001,-1
86,87,1583936459584,3.0384998,8.3175,-5.7953,5.5078325,17.770521,-5.298119,-1
87,88,1583936459594,2.8530998,8.246799000000001,-5.8926,5.483095,17.559772,-5.177155,-1
88,89,1583936459604,2.8037,8.0882,-5.4072,5.6626797,17.401,-4.4215254999999996,-1
89,90,1583936459615,2.9514,7.9171996,-4.5302997000000005,5.9014773,17.20459,-3.4583287000000005,-1
90,91,1583936459625,3.0604,7.7436,-3.4252,5.9718860000000005,16.975628,-2.2479544,-1
91,92,1583936459635,3.0045998,7.5477,-2.181,5.9073863,16.834570000000003,-1.1076629999999998,-1
92,93,1583936459645,2.8946998,7.4164,-1.1616,5.811417,16.668144,-0.28934404,-1
93,94,1583936459655,2.7017,7.2507,-0.44889998,5.578145,16.449554,0.23142354,-1
94,95,1583936459666,2.4657,7.0207,0.02,5.492058999999999,16.218560999999998,0.67256,-1
95,96,1583936459676,2.4796,6.7955,0.47129998,5.585251,15.965063,1.0367469,-1
96,97,1583936459686,2.5474,6.5457997,0.9314,5.4944534,15.676084,1.7359016,-1
97,98,1583936459696,2.4347,6.2813,1.6019999999999999,5.413998599999999,15.409571,2.296614,-1
98,99,1583936459707,2.4561,6.0153,2.2282,5.348168,15.143517499999998,2.9424932,-1
99,100,1583936459717,2.391,5.7002997,2.9485,5.297296,14.939866,3.4836402,-1
100,101,1583936459727,2.3499,5.4898996,3.6258998,4.9806676,14.775317000000001,4.104217,-1
101,102,1583936459737,2.2187997999999998,5.3341,4.1252,4.929364,14.767876999999999,4.5046615999999995,-1
102,103,1583936459748,2.2797,5.2929,4.562999700000001,4.9342966,14.665759,4.8912773000000005,-1
103,104,1583936459759,2.4048,5.1608,4.9627,4.9332433,14.482601999999998,5.433803599999999,-1
104,105,1583936459769,2.5546,4.9582,5.4388,4.945137,14.237072,5.898671,-1
105,106,1583936459779,2.7191,4.6759,5.9167,4.8814707,13.872589000000001,6.2369814,-1
106,107,1583936459789,2.8291,4.2756,6.2792,4.5672846,13.44396,6.3707695,-1
107,108,1583936459800,2.6871,3.8072998999999994,6.4371,4.227758000000001,13.078211999999999,6.502719,-1
108,109,1583936459810,2.3971,3.0837,6.7848997,3.8416882000000006,12.736473,6.7136,-1
109,110,1583936459820,2.4194999,2.7319999,6.8132,3.6723032,12.379315,6.673234,-1
110,111,1583936459830,2.1604,2.1780999,6.5787,3.0974746,11.80124,6.390325499999999,-1
111,112,1583936459840,1.5407,1.5103999,6.1984,2.241423,11.143409,6.067012999999999,-1
112,113,1583936459850,0.84999996,0.78819996,5.9772997000000005,1.530594,10.581673,5.893088,-1
113,114,1583936459861,0.3181,0.1197,5.7611,0.75214326,9.797025999999999,5.6412373,-1
114,115,1583936459871,0.4294,-0.40719998,5.4228997,0.69279575,9.295009,5.3595357,-1
115,116,1583936459881,0.3202,-0.862,5.3052998,0.42327570000000003,8.8510475,5.3097935,-1
116,117,1583936459891,0.56009996,-1.3041999,5.252000000000001,0.7124186,8.455171,5.226935,-1
117,118,1583936459901,1.7756,-1.4204999,4.7736998,1.7971835999999999,8.376267,4.6933537,-1
118,119,1583936459912,2.103,-1.7309999999999999,3.9153,1.690335,7.967721000000001,3.851083,-1
119,120,1583936459921,1.1882,-2.4019999999999997,3.1794999,0.77109575,7.4106,3.3484921,-1
120,121,1583936459931,-0.0131,-3.1,2.8869998,-0.84332407,6.5668454,3.1099339,-1
121,122,1583936459942,-1.0809,-3.7273998,2.8553,-1.9658982,5.947293,3.222835,-1
122,123,1583936459951,-1.7398,-4.1774,2.9127,-2.6170444,5.530031,3.3806417,-1
123,124,1583936459961,-2.0945,-4.5003,2.9859,-3.0094924,5.199726999999999,3.5528421000000003,-1
124,125,1583936459971,-2.2061,-4.854,3.0902998,-2.9523094,4.862202,3.7788641000000003,-1
125,126,1583936459981,-2.2061,-4.854,3.0902998,-1.3035853000000002,5.1441913,3.5329222999999996,-1
126,127,1583936459992,2.0704,-4.0977,1.7602999,1.649059,5.735291,2.3647244,-1
127,128,1583936460002,3.6546998,-3.6608998999999995,0.6931,3.1426482000000004,6.1629046999999995,1.2405988000000001,-1
128,129,1583936460012,3.9914,-3.5832,-0.0963,2.8383548,6.0862045,0.85337013,-1
129,130,1583936460022,2.8565,-3.7942,0.1319,1.6465020000000001,5.8587739999999995,1.354582,-1
130,131,1583936460032,1.4294,-4.0887,0.94519997,0.15922399,5.558187,2.3057790000000002,-1
131,132,1583936460043,0.3674,-4.2545,1.8327999,-0.9890447,5.4936585,3.4399028,-1
132,133,1583936460053,-0.0628,-4.051,2.4088,-1.347926,5.6270823,3.7094996,-1
133,134,1583936460063,-0.1436,-4.0007,2.1815,-1.4042951000000001,5.685961,3.3043911,-1
134,135,1583936460073,-0.0717,-3.8488998,1.6685,-1.3194348999999999,5.851907700000001,2.6389465,-1
135,136,1583936460083,0.331,-3.6531,0.70449996,-0.84038395,6.157868,1.3738695,-1
136,137,1583936460094,0.8523,-3.3230998999999994,-0.61179996,-0.40240782,6.405744,0.07122271,-1
137,138,1583936460104,1.2156,-3.0714998,-1.5408,-0.34857659999999996,6.7541009999999995,-0.8797638000000001,-1
138,139,1583936460114,0.9658,-2.9059,-1.9969,-0.8235383,6.7321024000000005,-0.9973095,-1
139,140,1583936460124,0.2417,-2.8451,-1.7304,-1.7697748,6.832755000000001,-0.49002606,-1
140,141,1583936460134,-0.4337,-2.8026,-1.1587,-2.3132298,6.8519559999999995,-0.07296569,-1
141,142,1583936460144,-0.87219995,-2.7610997999999998,-0.79139996,-2.7868316,6.873906,0.17769764,-1
142,143,1583936460154,-1.1560999,-2.7512999,-0.61079997,-2.6178967999999996,7.014914999999999,-0.14078863,-1
143,144,1583936460165,-0.6113,-2.5091999,-1.1717,-1.8970889,7.311461,-1.0232339,-1
144,145,1583936460175,0.058799997,-2.23,-1.9576999,-1.2277274,7.624958,-1.8613578000000002,-1
145,146,1583936460185,0.6192,-1.9011999,-2.6085,-1.074106,7.850338499999999,-2.3131150000000003,-1
146,147,1583936460195,0.49899998,-1.7957,-2.7991,-1.4847785,7.8674617,-2.324243,-1
147,148,1583936460205,0.026099999,-1.8153,-2.5976999,-1.9264033999999999,7.8952155,-2.0143664,-1
148,149,1583936460215,-0.2935,-1.7063999,-2.1468,-2.1045415000000003,7.997093,-1.5658558999999999,-1
149,150,1583936460226,-0.4154,-1.6166999,-1.653,-2.2717144,8.159794,-1.2248832,-1
150,151,1583936460235,-0.50159997,-1.4293,-1.3866,-2.1627975,8.361098,-1.1288468999999999,-1
151,152,1583936460245,-0.2983,-1.2034,-1.3837999,-1.993441,8.541133,-1.4117362,-1
152,153,1583936460255,-0.24579999,-1.1055,-1.7514,-1.9965823,8.647962,-1.9114157999999999,-1
153,154,1583936460265,-0.20539999,-0.9098,-2.1683,-1.9249573,8.836912,-2.268688,-1
154,155,1583936460275,-0.15779999,-0.7829,-2.3851,-1.9068859,8.934558,-2.2976387000000003,-1
155,156,1583936460286,-0.1311,-0.6659,-2.2782,-1.8101889,9.051356,-2.1680837000000004,-1
156,157,1583936460296,0.031799997999999996,-0.5686,-2.1327999,-1.7603223000000001,9.114237,-2.0057473000000003,-1
157,158,1583936460306,-0.0503,-0.5202,-1.8501999,-1.8154848999999997,9.1968565,-1.5955726000000001,-1
158,159,1583936460316,-0.1029,-0.4718,-1.4093,-1.9102186,9.235595,-1.0900992,-1
159,160,1583936460326,-0.15609999,-0.37449998,-0.9141,-1.753839,9.313195,-0.67598844,-1
160,161,1583936460336,0.0536,-0.3461,-0.67429996,-1.358087,9.349722,-0.6670149999999999,-1
161,162,1583936460347,0.4784,-0.3179,-0.6967,-1.017325,9.269467,-0.6446531999999999,-1
162,163,1583936460357,0.6214,-0.4755,-0.5704,-1.5841283000000002,9.049786,-0.23553199,-1
163,164,1583936460367,0.0448,-0.6615,-0.15969999,-1.8706952000000001,8.947985000000001,0.16750793,-1
164,165,1583936460377,-0.120299995,-0.71029997,0.1551,-1.635441,9.028506,0.21454921,d
165,166,1583936460387,0.1604,-0.58349997,0.1822,-1.3055485,9.260599000000001,0.231481,-1
166,167,1583936460397,0.47829998,-0.35889998,0.195,-1.0856172,9.428194,0.10288364,-1
167,168,1583936460408,0.63989997,-0.24219999,0.071499996,-1.2516121,9.331803,-0.06301539,-1
168,169,1583936460418,0.3762,-0.37919998,-0.032899998,-1.74046,9.252699,0.03476381,-1
169,170,1583936460428,-0.0681,-0.40739998,0.11699999999999999,-1.8177834,9.313081,0.21092917,-1
170,171,1583936460438,-0.0711,-0.30789998,0.2898,-1.7107048999999999,9.497885,0.17199945,-1
171,172,1583936460448,0.0517,-0.1204,0.2332,-1.7766414000000001,9.644169999999999,-0.16278656,-1
172,173,1583936460459,-0.030499997999999997,-0.011000000000000001,-0.0042999996999999995,-2.0927238,9.654935,-0.5020545,-1
173,174,1583936460469,-0.3369,0.0007,-0.3083,-2.2277186,9.654139500000001,-0.83639044,-1
174,175,1583936460479,-0.45299998,-0.0053,-0.78459996,-2.2216945,9.651028,-1.0524911,-1
175,176,1583936460489,-0.45299998,-0.0053,-0.78459996,-2.1931078,9.737362,-1.0638299,-1
176,177,1583936460499,-0.3665,0.1135,-0.5379999999999999,-2.1351970000000002,9.762051,-0.8568848,-1
177,178,1583936460510,-0.2549,0.1815,-0.1987,-2.0110528000000003,9.842516,-0.5291855999999999,-1
178,179,1583936460520,-0.0095,0.25869998,0.088199995,-1.7602267,9.912397,-0.25054842,-1
179,180,1583936460530,0.1855,0.2866,0.1893,-1.5248958000000001,9.950905,-0.17441282,-1
180,181,1583936460540,0.2445,0.305,0.028099999,-1.4699057,9.973296000000001,-0.38126227,-1
181,182,1583936460550,0.2958,0.3436,-0.1017,-1.4084706,10.023355,-0.5452938,-1
182,183,1583936460560,0.2958,0.3436,-0.1017,-1.3312144,9.998511,-0.7427866999999999,-1
183,184,1583936460571,0.4048,0.3042,-0.5487,-1.3121661,9.967981,-1.0069915999999999,-1
184,185,1583936460581,0.38459998,0.285,-0.56549996,-1.3444303999999998,9.935813000000001,-0.96917284,-1
185,186,1583936460591,0.2589,0.2661,-0.4105,-1.4598597,9.910654,-0.8221689,-1
186,187,1583936460601,0.14459999,0.1982,-0.2394,-1.6157413999999999,9.836856,-0.6568636,-1
187,188,1583936460612,-0.1549,0.0716,-0.080699995,-1.9158785,9.717682,-0.4894227,-1
188,189,1583936460622,-0.25,0.032899998,0.0863,-1.9698533999999999,9.685474000000001,-0.34395102,-1
189,190,1583936460632,-0.10349999,0.0721,0.1357,-1.7197071,9.784978,-0.3368929,-1
190,191,1583936460642,0.1095,0.1599,0.01,-1.5779991000000002,9.830765,-0.49337792,-1
191,192,1583936460652,0.22549999,0.1598,-0.2022,-1.4649258,9.801651,-0.68371695,-1
192,193,1583936460662,0.2272,0.101399995,-0.2188,-1.5511937,9.721992,-0.6177519,-1
193,194,1583936460673,0.115499996,-0.024799999,-0.049399998,-1.6652822,9.587839,-0.41027042,-1
194,195,1583936460683,-0.1107,-0.1113,0.1796,-1.9673633999999998,9.487158,-0.22232558,-1
195,196,1583936460693,-0.366,-0.2662,0.36249998,-2.1702385,9.345460000000001,-0.06877105,-1
196,197,1583936460703,-0.5326,-0.23429999,0.4944,-2.2293274,9.469633,0.0046351743,-1
197,198,1583936460713,-0.3258,-0.15519999,0.40539998,-1.9763081000000002,9.506782000000001,-0.20389022,-1
198,199,1583936460724,-0.123799995,-0.0863,0.12,-1.7912172,9.620084,-0.52237654,-1
199,200,1583936460734,0.1143,0.0801,-0.2127,-1.509659,9.785092,-0.8447893,-1
200,201,1583936460744,0.4107,0.1779,-0.4678,-1.1852831,9.875728,-1.1444379999999998,-1
201,202,1583936460754,0.5918,0.2269,-0.6083,-1.1792114,9.935113000000001,-1.1252556,-1
202,203,1583936460764,0.4836,0.31579998,-0.43989998,-1.3473992,9.948157,-0.8980938,-1
203,204,1583936460775,0.35,0.2875,-0.23629999,-1.5036927,9.91505,-0.72608477,-1
204,205,1583936460785,0.1112,0.2595,-0.015,-1.786448,9.935151,-0.47823699999999997,-1
205,206,1583936460795,-0.0771,0.26119998,0.1276,-1.8238741000000003,9.864657000000001,-0.50009125,-1
206,207,1583936460805,-0.080299996,0.2138,0.056399997,-1.8600648999999998,9.888444999999999,-0.60241944,-1
207,208,1583936460816,-0.124299996,0.2447,-0.0327,-1.870111,9.903769,-0.70944023,-1
208,209,1583936460826,-0.0618,0.2852,-0.1314,-1.7190081000000001,9.955732000000001,-0.83050066,-1
209,210,1583936460836,0.195,0.345,-0.3482,-1.4842327,9.998416,-1.1118481000000002,-1
210,211,1583936460846,0.30539998,0.3655,-0.4985,-1.4472088,9.970452,-1.1009209999999998,-1
211,212,1583936460856,0.32009998,0.3175,-0.44759998,-1.4736023999999999,9.907877000000001,-1.0022224,-1
212,213,1583936460866,0.31759998,0.2597,-0.34309998,-1.481963,9.809896,-0.88243574,-1
213,214,1583936460877,0.2679,0.153,-0.2235,-1.6914938999999998,9.721838,-0.6571413,-1
214,215,1583936460887,0.0532,0.0758,0.0198,-1.9500103,9.62176,-0.3747979,-1
215,216,1583936460897,-0.16139999,-0.021,0.2609,-1.9478939,9.541477,-0.23161507,-1
216,217,1583936460907,-0.1041,-0.1085,0.3655,-1.8608790000000002,9.486718,-0.21308395,-1
217,218,1583936460917,-0.0398,-0.1375,0.35549998,-1.9070487,9.45452,-0.22759283,-1
218,219,1583936460927,-0.0849,-0.17629999,0.35869998,-1.7688936999999998,9.492291,-0.17081192,-1
219,220,1583936460938,0.084,-0.12709999,0.40449998,-1.5386672,9.569156,-0.19242677,-1
220,221,1583936460948,0.3401,-0.0385,0.3764,-1.3548499,9.67313,-0.26172456,-1
221,222,1583936460958,0.4804,0.0506,0.3135,-1.2925336,9.674519,-0.38610813,-1
222,223,1583936460968,0.56589997,0.0427,0.1463,-1.5137676000000002,9.498334,-0.69218284,-1
223,224,1583936460978,0.33319998,-0.13069999,-0.0973,-2.1271906000000005,9.416960000000001,-0.5853919,-1
224,225,1583936460988,-0.2575,-0.2052,0.0202,-2.2940955,9.394167999999999,-0.42088149999999996,-1
225,226,1583936460998,-0.4082,-0.22119999,0.2048,-2.1265395000000002,9.469814,-0.35795229999999995,-1
226,227,1583936461009,-0.2305,-0.14989999,0.26209998,-2.0106697000000002,9.553267,-0.46198517,-1
227,228,1583936461019,-0.0791,-0.057499997000000004,-0.0893,-1.9878386000000001,9.556791,-0.7303752,-1
228,229,1583936461029,-0.1019,-0.0652,-0.2837,-2.0192409,9.539811,-0.9477111999999999,-1
229,230,1583936461039,-0.1019,-0.0652,-0.2837,-2.1938071,9.521635,-0.9223709999999999,-1
230,231,1583936461049,-0.22459999,-0.0317,-0.12969999,-2.1643007,9.574758000000001,-0.80163616,-1
231,232,1583936461060,-0.0717,0.009000000000000001,-0.1328,-2.0094821,9.614961,-0.80594575,-1
232,233,1583936461070,0.090799995,0.0596,-0.21499999,-1.8574121,9.659148,-0.9096913000000001,d
233,234,1583936461080,0.2445,0.0907,-0.40629998,-1.6938881999999997,9.690147999999999,-1.1384908,-1
234,235,1583936461090,0.2445,0.0907,-0.40629998,-1.6544892,9.691633,-1.2280148000000002,-1
235,236,1583936461100,0.13849999,0.0265,-0.4748,-1.8323208999999998,9.618944,-1.1680353,-1
236,237,1583936461110,-0.2288,-0.0591,-0.138,-2.2187068,9.531221,-0.81560874,-1
237,238,1583936461121,-0.5286,-0.105799995,0.1969,-2.5754235,9.482657000000001,-0.46793234,-1
238,239,1583936461131,-0.6278,-0.16319999,0.1812,-2.6292259999999996,9.427246,-0.52652323,-1
239,240,1583936461141,-0.5184,-0.1239,0.0307,-2.5004372999999998,9.482341,-0.6669767,-1
240,241,1583936461151,-0.22899999,-0.0466,-0.1577,-2.1488247000000005,9.554406,-0.87424755,-1
241,242,1583936461162,0.2137,0.010199999,-0.40579998,-1.6232784,9.626635,-1.1216931,-1
242,243,1583936461172,0.5492,0.047399998,-0.4901,-1.4186795,9.634957,-1.1421778,-1
243,244,1583936461182,0.5071,0.0069,-0.3631,-1.5948639,9.5624895,-0.8691144000000001,-1
244,245,1583936461192,0.20709999,-0.0813,-0.0047999997999999995,-1.9431436999999998,9.4964285,-0.46881342,-1
245,246,1583936461202,-0.0963,-0.1392,0.32979998,-2.1675475,9.429936,-0.18445888,-1
246,247,1583936461213,-0.2065,-0.1873,0.46739998,-2.2346044,9.413485000000001,-0.1519935,-1
247,248,1583936461223,-0.2668,-0.1761,0.43159997,-2.2773647,9.427906,-0.18478449,-1
248,249,1583936461233,-0.1815,-0.0963,0.36200000000000004,-2.142619,9.532608999999999,-0.27595568,-1
249,250,1583936461243,-0.0392,-0.036199998,0.2579,-2.0476553,9.572794,-0.40920737,-1
250,251,1583936461253,0.023899998999999998,0.023899998999999998,0.0492,-2.0117423999999997,9.624423,-0.64928836,-1
251,252,1583936461264,0.0284,0.044999998,-0.1382,-2.0267779999999997,9.627947,-0.81305176,-1
252,253,1583936461274,0.023599999,0.066199996,-0.19899999999999998,-2.0182450000000003,9.674682,-0.8238544,-1
253,254,1583936461284,0.028999999999999998,0.087299995,-0.1935,-2.0501263,9.645721,-0.76282144,-1
254,255,1583936461294,-0.0727,0.0594,-0.043899997999999996,-2.1871127999999995,9.63738,-0.63422406,-1
255,256,1583936461305,-0.1546,0.070599996,0.0444,-2.222614,9.626261999999999,-0.6059629,-1
256,257,1583936461315,-0.1008,0.042099997,0.0143,-2.1001458,9.635455,-0.6562028,-1
257,258,1583936461326,0.0296,0.0721,-0.0457,-1.9822745,9.632859,-0.6374131,-1
258,259,1583936461336,0.1013,0.0726,0.0504,-1.9432490000000002,9.66319,-0.47380295,-1
259,260,1583936461346,0.15439999,0.092999995,0.1856,-1.9093375,9.658153,-0.4226149,-1
260,261,1583936461356,0.1989,0.0744,0.1944,-1.8524610000000001,9.63829,-0.47474146,-1
261,262,1583936461366,0.26479998,0.017199999,0.1162,-1.8263353,9.538863000000001,-0.5798278,-1
262,263,1583936461377,0.2453,-0.068799995,0.019199999,-1.9857796000000003,9.427964,-0.67154485,-1
263,264,1583936461387,0.0726,-0.1638,-0.048499997999999996,-2.159771,9.340776,-0.7095169,-1
264,265,1583936461397,-0.0288,-0.24849999,-0.078,-2.181702,9.26355,-0.7314669,-1
265,266,1583936461408,-0.0213,-0.2839,-0.1284,-2.1925814,9.177837,-0.7081569999999999,-1
266,267,1583936461418,-0.0229,-0.3782,-0.0831,-2.3494492,9.057074,-0.6177998,-1
267,268,1583936461428,-0.23889999,-0.5312,0.0174,-2.593045,8.859791,-0.53772813,-1
268,269,1583936461438,-0.3868,-0.6845,0.0657,-2.5967127999999997,8.711685000000001,-0.51466715,-1
269,270,1583936461449,-0.37109998,-0.8778,0.081999995,-2.5622747,8.552271000000001,-0.39572322,-1
270,271,1583936461459,-0.2911,-1.1201999,0.43789998,-2.5370972000000003,8.4211445,-0.121251956,-1
271,272,1583936461469,-0.2911,-1.1201999,0.43789998,-2.383696,8.324753999999999,0.08278192,-1
272,273,1583936461479,-0.1375,-1.2178999,0.5926,-2.3917882,8.138591,0.21899284,-1
273,274,1583936461489,-0.1414,-1.4039999,0.7083,-2.4892993,7.936395599999999,0.3177776,-1
274,275,1583936461500,-0.2057,-1.8046,0.81049997,-2.4455430000000002,7.701198599999999,0.36253962,-1
275,276,1583936461510,-0.15779999,-1.9892999,0.8196,-2.4248952999999998,7.5556984,0.36465606,-1
276,277,1583936461520,-0.15779999,-1.9892999,0.8196,-2.6865242,7.3656273,0.26163837,-1
277,278,1583936461530,-0.56659997,-2.3961,0.57879996,-2.8880587,7.099871,0.11611878,-1
278,279,1583936461540,-0.58669996,-2.5800998,0.48259997,-2.9029217000000003,6.900175,0.0316705,-1
279,280,1583936461551,-0.64959997,-2.8530998,0.47529998,-2.978186,6.6376276,0.035616145,-1
280,281,1583936461561,-0.55039996,-3.0783,0.536,-2.7920032000000004,6.390852,0.0931536,-1
281,282,1583936461571,-0.1628,-3.3932,0.5277,-2.4763037999999997,6.143330000000001,0.084189706,-1
282,283,1583936461581,0.152,-3.7777,0.5099,-2.0936813,5.6778398,0.08053137,-1
283,284,1583936461591,0.3378,-4.2802,0.5313,-1.8854338,5.1530309999999995,0.08345229,-1
284,285,1583936461602,0.5906,-4.7732997,0.5434,-1.6753953000000001,4.651771,0.112651974,-1
285,286,1583936461611,0.636,-5.3451,0.6146,-1.6279998,4.1946507,0.15625517,-1
286,287,1583936461621,0.636,-5.3451,0.6146,-1.4890785,3.7298214,0.10611102,-1
287,288,1583936461631,0.8716,-6.0109,0.5532,-1.3484528,3.5276932999999997,0.09351752,-1
288,289,1583936461641,0.86289996,-6.0957,0.4895,-1.3007795,3.4294832000000004,-0.029937098,-1
289,290,1583936461651,1.0342,-6.0835,0.0853,-1.0792391000000001,3.5059636,-0.51799035,-1
290,291,1583936461662,1.0827,-6.19,-0.3962,-1.0686662,3.2642736,-1.0371969,-1
291,292,1583936461672,0.91239995,-6.3953,-0.59819996,-1.1964879,3.1025023,-1.1029223999999997,-1
292,293,1583936461682,0.74539995,-6.671,-0.644,-1.3152596,2.82806,-1.1923986999999998,-1
293,294,1583936461692,0.6687,-6.8331,-0.7557,-1.2425906999999998,2.8258857999999996,-1.1657752000000001,-1
294,295,1583936461703,0.6687,-6.8331,-0.7557,-1.0842478000000002,3.2088912,-0.7459661999999999,-1
295,296,1583936461712,0.84529996,-5.9361,0.25149998,-0.9444646999999999,3.9559010999999997,0.14551958,-1
296,297,1583936461722,0.72779995,-5.1148,0.9794,-0.83231074,4.9074335,0.9099403,-1
297,298,1583936461732,1.0820999,-4.3325,1.4785999,-0.39421007,5.5835276,1.4964527,-1
298,299,1583936461742,1.0523,-3.9306997999999997,1.8068,-0.40749314,5.8289714,1.6757593000000002,-1
299,300,1583936461752,1.0473,-3.7417,1.4837999,-0.27151206,6.0070906,1.3058551999999999,-1
300,301,1583936461762,1.0497,-3.6676998,1.1328,-0.27517040000000004,6.048002200000001,1.0926466000000001,-1
301,302,1583936461772,0.7772,-3.7089,1.1840998999999999,-0.36102647,6.129108400000001,1.1736377,-1
302,303,1583936461782,0.5967,-2.9936,1.3017,-0.5330642,7.0241857,1.3652792,-1
303,304,1583936461792,0.3771,-2.4342,1.4791,-0.6152524,7.552538,1.4111903000000001,-1
304,305,1583936461802,0.299,-1.7469,1.1751,-0.5744648,8.029712,1.1176133999999998,-1
305,306,1583936461813,0.1525,-1.0004,0.3696,-0.5873168000000001,9.014054,0.007824250999999999,-1
306,307,1583936461824,0.1433,-0.3709,-0.1002,-0.4608647,9.780104,-0.33195126,-1
307,308,1583936461834,0.1016,0.1514,-0.1806,-0.11471099400000001,10.238008500000001,-0.30170774,-1
308,309,1583936461845,0.46789998,0.6162,-0.1457,0.4620043,10.649495,-0.56382495,-1
309,310,1583936461855,0.8993,1.0338,-0.5032,1.193998,11.364739,-0.7065385000000001,-1
310,311,1583936461865,1.5237,1.9639,-0.3342,1.8561193,12.312498,-0.36728013,-1
311,312,1583936461875,1.8635999,2.7891,-0.0632,2.1564193,12.996828,-0.31415758,-1
312,313,1583936461885,2.0581,3.5196998,-0.0609,3.0857525000000003,13.920626,-0.5045445,-1
313,314,1583936461896,2.9696,4.4799,-0.48189998,4.0105176,14.833677999999999,-1.4107115,-1
314,315,1583936461906,3.3123998999999995,5.1499,-1.2454,4.1058455,15.278329999999999,-1.9259724999999999,-1
315,316,1583936461916,3.2022998,5.5976,-1.7551,4.178495,15.577326999999999,-2.4141407000000004,-1
316,317,1583936461926,3.0693,5.8322997,-2.1613998,4.1419406,15.697497,-2.4467976,-1
317,318,1583936461936,2.8641999,6.0200996,-2.0932,4.288197,16.005363,-1.8454602,-1
318,319,1583936461946,2.8595998,6.3668,-1.4132,4.254908,16.206715,-0.95839894,-1
319,320,1583936461956,2.5878,6.5285997,-0.5998,4.101871,16.295473,-0.22995828,-1
320,321,1583936461966,2.27,6.7205997,0.2714,3.9152381000000003,16.492285,0.6749542,-1
321,322,1583936461976,2.0151,6.942199700000001,0.8864,3.9677762999999997,16.74386,0.8444924000000001,-1
322,323,1583936461986,1.9399998999999999,7.2125998,0.6742,3.9195763999999995,16.863367,0.1500973,-1
323,324,1583936461996,1.76,7.276,0.0116,3.8216726999999997,16.742079,-0.66526246,-1
324,325,1583936462007,1.5519999,7.1419997,-0.78529996,3.7030830000000003,16.533886,-1.2543701,-1
325,326,1583936462017,1.2944,6.85,-1.4441998999999999,3.2517857999999995,16.061014,-1.8500763,-1
326,327,1583936462027,0.72029996,6.4395,-1.7909,2.8174772,15.496537,-1.8996841,-1
327,328,1583936462037,0.2783,5.9010997000000005,-1.7671,2.6298772999999995,14.953292999999999,-1.6334107,-1
328,329,1583936462047,0.031799997999999996,5.3535,-1.4682,2.684082,14.419089000000001,-1.2069745,-1
329,330,1583936462058,0.0971,4.8855,-1.0251,3.1244235000000002,14.159922,-0.80391544,-1
330,331,1583936462068,0.6809,4.6344,-0.6099,3.9331178999999996,13.794039999999999,-0.31247205,-1
331,332,1583936462078,1.2305,4.324,-0.2611,4.4522095,13.516101999999998,0.0014460979,-1
332,333,1583936462089,1.6558,4.0694,-0.036000000000000004,4.7227926,13.163511999999999,0.24717738,-1
333,334,1583936462099,1.7563,3.6919999999999997,0.1441,4.2724433,12.529605,0.33349314,-1
334,335,1583936462109,1.3185999,3.1706998,0.1863,3.6482847,12.008407,0.23161507,-1
335,336,1583936462119,-0.0796,2.0837998,-0.13069999,2.891104,11.448718,-0.028443117,-1
336,337,1583936462129,-0.5122,1.5511999,-0.4603,2.439136,10.917062,-0.36949238,-1
337,338,1583936462140,-0.5122,1.5511999,-0.4603,2.090636,10.568284,-0.5883703,-1
338,339,1583936462150,-1.036,0.83989996,-0.64669997,1.9017432,10.200486,-0.5965872,-1
339,340,1583936462160,-0.79829997,0.6234,-0.49269998,2.135628,9.997717,-0.45819274,-1
340,341,1583936462170,-0.3479,0.49609998,-0.45299998,2.6887078,9.855711999999999,-0.42073786,-1
341,342,1583936462180,0.0345,0.4177,-0.41619998,3.0225456000000004,9.768056,-0.34689108,-1
342,343,1583936462191,0.16589999,0.3674,-0.39819998,3.103939,9.735714999999999,-0.36692578,-1
343,344,1583936462202,0.16589999,0.3674,-0.39819998,3.0857813,9.694303999999999,-0.40194815,-1
344,345,1583936462212,0.1839,0.23439999,-0.47619998,3.0749211,9.565755000000001,-0.42052716,-1
345,346,1583936462223,0.0865,0.103599995,-0.4087,2.9563122,9.457048,-0.27677929999999995,-1
346,347,1583936462233,0.0859,0.0224,-0.25759998,3.0031621,9.371001,-0.15837166,-1
347,348,1583936462244,0.0539,-0.0777,-0.11199999599999999,2.8531318,9.226764999999999,0.08803,-1
348,349,1583936462254,-0.1261,-0.20699999,0.1152,2.6675619999999998,9.140545,0.34050336,-1
349,350,1583936462264,-0.1805,-0.2571,0.3469,2.7062522999999996,9.092201,0.5664776999999999,-1
350,351,1583936462274,-0.12969999,-0.3358,0.4597,2.892301,9.063471,0.6369821999999999,-1
351,352,1583936462284,0.15529999,-0.3062,0.4779,3.1757839,9.099910000000001,0.64311135,-1
352,353,1583936462294,0.3928,-0.27719998,0.4438,3.281876,9.166757,0.62634236,-1
353,354,1583936462305,0.39899999999999997,-0.22989999,0.47529998,3.1981843,9.152669,0.6757395,-1
354,355,1583936462315,0.1943,-0.2136,0.4838,2.9159843999999997,9.172943,0.6815621999999999,-1
355,356,1583936462325,-0.0262,-0.18879999,0.5082,2.6364088,9.223873,0.6993463000000001,-1
356,357,1583936462335,-0.3435,-0.1742,0.44869998,2.2854952999999996,9.182491,0.48618576,-1
357,358,1583936462345,-0.63229996,-0.228,0.2654,2.0537843999999996,9.156058999999999,0.46121899999999993,-1
358,359,1583936462355,-0.7884,-0.251,0.2996,2.0339415,9.172426,0.37722087,-1
359,360,1583936462366,-0.6572,-0.2131,0.13759999,2.312866,9.228527,0.15209885,-1
360,361,1583936462376,-0.3363,-0.1241,-0.027099999,2.885128,9.389963,-0.06845502,-1
361,362,1583936462387,0.20600000000000002,0.0052,-0.20600000000000002,3.600343,9.591096,-0.2699606,-1
362,363,1583936462397,0.92499995,0.24249999,-0.3883,3.981069,9.774463,-0.32852277,-1
363,364,1583936462407,1.1401,0.37989998,-0.4052,3.5784983999999995,9.736672,-0.15851529999999997,-1
364,365,1583936462417,0.6501,0.3181,-0.1982,2.8633409,9.591718,0.08079952,-1
365,366,1583936462427,-0.0558,0.12879999,-0.0011,2.2743385,9.439639,0.27228779999999997,-1
366,367,1583936462437,-0.5936,-0.0049,0.1881,1.9263363999999998,9.321202,0.2921788,-1
367,368,1583936462448,-0.8616,-0.1078,0.1732,1.8583986000000001,9.287567999999998,0.15143804,d
368,369,1583936462458,-0.8343,-0.1493,0.0101,2.1925619999999997,9.287405,-0.05938578,-1
369,370,1583936462468,-0.46409997,-0.1191,-0.1882,2.7360265,9.355189,-0.26794946,-1
370,371,1583936462478,-0.022799998999999998,-0.067099996,-0.3557,3.1828708999999997,9.454128,-0.35259888,-1
371,372,1583936462488,0.4845,0.0543,-0.46289998,3.4868674,9.556332000000001,-0.18513882,-1
372,373,1583936462499,0.7108,0.1358,-0.3215,3.351461,9.551965,0.20352629,-1
373,374,1583936462509,0.5606,0.1372,0.022499999,3.0665894000000002,9.471816,0.70845383,-1
374,375,1583936462519,0.28869998,0.0585,0.4948,2.854664,9.403716000000001,1.0589841999999998,-1
375,376,1583936462529,0.046099997999999996,-0.022699999,0.9213,2.8113675,9.392195,1.1603259,-1
376,377,1583936462539,0.046099997999999996,-0.022699999,0.9213,2.6470964,9.343755,1.0429813000000001,-1
377,378,1583936462550,-0.1134,-0.07369999599999999,0.7915,2.5396638,9.347423,0.84179175,-1
378,379,1583936462560,-0.20899999,-0.0678,0.5949,2.582338,9.325607000000002,0.65236247,-1
379,380,1583936462570,-0.16659999,-0.0982,0.4243,2.6813815,9.356722999999999,0.50619173,-1
380,381,1583936462580,-0.102699995,-0.011899999,0.1792,2.6360066000000004,9.419172999999999,0.38634753,-1
381,382,1583936462590,0.0359,0.046299997999999995,0.1182,2.8355777,9.500193,0.29195854,-1
382,383,1583936462601,0.32029998,0.1638,0.0255,3.0749786,9.599026,0.23515849,-1
383,384,1583936462611,0.3511,0.21239999,0.1179,3.0786273,9.635311,0.3296624,-1
384,385,1583936462621,0.30629998,0.2209,0.1805,3.0095787,9.64462,0.36492422,-1
385,386,1583936462632,0.1173,0.1501,0.1845,2.733125,9.572152,0.37540126,-1
386,387,1583936462642,-0.1281,0.1375,0.2087,2.5503228,9.574566,0.38563886,-1
387,388,1583936462652,-0.2069,0.22289999,0.1758,2.506097,9.668725,0.34646013,-1
388,389,1583936462662,-0.2383,0.30879998,0.15359999,2.3863103,9.797639,0.33422098,-1
389,390,1583936462672,-0.3988,0.4639,0.247,2.2804484,10.023727000000001,0.43723866,-1
390,391,1583936462682,-0.3175,0.7474,0.3081,2.4601572,10.342195,0.45165178,-1
391,392,1583936462692,-0.0725,1.1985999,0.2601,2.7442148,10.843177,0.39985082,-1
392,393,1583936462702,-0.0725,1.1985999,0.2601,3.064492,11.256369,0.32246065,-1
393,394,1583936462712,0.47129998,2.1905,0.23079999,3.1518897999999997,11.839356,0.46162125,-1
394,395,1583936462722,0.4615,2.6712,0.3787,3.153451,12.190011,0.57327724,-1
395,396,1583936462732,0.5624,3.1021,0.4806,3.3626084,12.772739999999999,0.73373663,-1
396,397,1583936462742,0.87299997,3.6402,0.6012,3.7182720000000002,13.261109,0.85771793,-1
397,398,1583936462753,1.2637,4.06,0.7259,4.0521864999999995,13.63406,1.0465246,-1
398,399,1583936462763,1.5184,4.3594,0.9687,4.219809,13.883947000000001,1.3359741000000003,-1
399,400,1583936462773,1.4725,4.4786997,1.163,3.9631510000000003,13.947403,1.5196477,-1
400,401,1583936462784,1.1283,4.4761,1.3147,3.5689216,13.965599,1.7096324,-1
401,402,1583936462794,0.8558,4.5092998,1.3011999,3.2620904,14.009670999999999,1.4719744,-1
402,403,1583936462804,0.7299,4.5302997000000005,0.89669997,3.1690419999999997,14.095229999999999,1.1120971000000002,-1
403,404,1583936462814,0.81619996,4.6384,0.58489996,3.163545,14.174000000000001,0.8040974,-1
404,405,1583936462824,0.76159996,4.6770997,0.3479,2.9022512000000003,14.255507000000001,0.6709702,-1
405,406,1583936462834,0.6062,4.7447,0.3387,2.6895409,14.354426,0.7446063,-1
406,407,1583936462845,0.40789998,4.8317,0.4989,2.3604338,14.472010999999998,0.9982863000000001,-1
407,408,1583936462855,0.23449999,4.9188,0.73289996,2.1661202999999998,14.641510999999998,1.3094751,-1
408,409,1583936462865,0.2607,5.0751,1.0137,2.1287901000000002,14.791023000000001,1.5760072,-1
409,410,1583936462875,0.3477,5.2029,1.1966,2.2230833,14.957104999999999,1.6727234,-1
410,411,1583936462886,0.6907,5.3905,1.1951,2.6997497000000004,15.160746,1.5224632,-1
411,412,1583936462896,1.3679,5.5302,0.93079996,3.3144562000000004,15.206323000000001,1.1852353,-1
412,413,1583936462906,1.9215,5.4743,0.64879996,3.916033,15.14233,1.0399646,-1
413,414,1583936462916,2.7275999,5.4286,0.48459998,4.428804,14.931525,0.7328939,-1
414,415,1583936462926,3.2405999,5.0986,0.1537,4.384827,14.450003,0.58196336,-1
415,416,1583936462937,3.2695,4.6021,0.0559,3.9768744,13.830632999999999,0.7232309,-1
416,417,1583936462947,2.9408998,3.9399998,0.19919999,3.1159577,13.14954,1.0456531999999998,-1
417,418,1583936462957,2.1829998,3.2505999,0.55399996,2.0504997,12.399455999999999,1.5091515,-1
418,419,1583936462967,1.2636,2.4564,0.98459995,0.87193954,11.51883,1.9094142,-1
419,420,1583936462977,0.27249998,1.5478,1.3291998999999999,-0.35073137,10.589917999999999,2.2277567000000005,-1
420,421,1583936462988,-0.77989995,0.59319997,1.5839,-1.1109096,9.653038,2.2412217,-1
421,422,1583936462998,-1.1287,-0.26139998,1.5090000000000001,-0.5045731999999999,9.172272999999999,1.5843103,-1
422,423,1583936463008,-0.2402,-0.7328,0.715,0.6123793000000001,8.548459,0.4404565,-1
423,424,1583936463018,0.74719995,-1.2430999,-0.21669999,1.8905574,8.135305,-0.36440706,-1
424,425,1583936463028,2.1204,-1.6542,-0.98639995,2.8581502,7.714950999999999,-1.1529231000000002,-1
425,426,1583936463039,3.1845999,-2.0732,-1.7702,2.4432542,7.0242143,-1.0609857,-1
426,427,1583936463049,2.885,-2.7638,-1.6911,0.97497636,6.3191123,-0.2911158,-1
427,428,1583936463059,0.4998,-4.1946,-0.45009997,-0.22223938,5.569430400000001,0.26423368,-1
428,429,1583936463069,-0.3366,-4.6727,-0.009099999000000001,-1.193768,5.082114,0.7197449,-1
429,430,1583936463079,-0.3366,-4.6727,-0.009099999000000001,-1.7526131999999999,4.688335400000001,0.8767758,-1
430,431,1583936463089,-0.7743,-5.0534,0.1346,-1.8966004,4.3796654,0.76857704,-1
431,432,1583936463100,-0.81769997,-5.3473997,0.049,-1.3847871,4.271792,0.28352135,-1
432,433,1583936463110,1.0155,-5.3329997,-1.158,-0.0074124485,4.3954864,-0.6757012,-1
433,434,1583936463120,1.9756999,-5.2773,-1.7626,0.68840003,4.4329605,-1.1481825,-1
434,435,1583936463130,2.2486,-5.2093997000000005,-1.6197,0.8207802,4.4830947,-0.8769003000000001,-1
435,436,1583936463140,1.7414999,-5.2756,-0.70879996,0.07608773,4.386637,0.029592333,-1
436,437,1583936463150,0.72609997,-5.3588,-0.0112,-0.8606389000000001,4.317042400000001,0.559592,-1
437,438,1583936463161,-0.090799995,-5.3136,0.2861,-1.9133502,4.352946,0.85095674,-1
438,439,1583936463171,-0.54179996,-5.1710997,0.3049,-2.4297605,4.488678500000001,0.7776655,-1
439,440,1583936463181,-0.99289995,-5.0887,0.2104,-2.9137150000000003,4.5818124000000005,0.5621298000000001,-1
440,441,1583936463191,-0.9655,-4.8705997000000005,-0.19699999999999998,-2.9337014999999997,4.79528,0.04759673,-1
441,442,1583936463201,-0.9655,-4.8705997000000005,-0.19699999999999998,-3.1069362000000003,5.044324400000001,-0.4662564,-1
442,443,1583936463211,-1.1061,-4.2627,-1.0031999,-3.1628456000000003,5.338045,-0.81471807,-1
443,444,1583936463222,-1.1226,-3.8841,-1.3569,-3.1945164,5.7833858,-1.3088143,-1
444,445,1583936463232,-0.9989,-3.5477998,-1.5458,-3.0757830000000004,6.1763315,-1.523124,-1
445,446,1583936463242,-0.8713,-3.1557,-1.5428,-2.9107363,6.590567,-1.5377288,-1
446,447,1583936463252,-0.70809996,-2.7958,-1.5144999,-2.7385645,6.926540400000001,-1.4750484,-1
447,448,1583936463262,-0.59389997,-2.4085,-1.2437,-2.6272054,7.3181744,-1.0953473,-1
448,449,1583936463272,-0.505,-2.1303,-0.7583,-2.5248103,7.580636,-0.5832563000000001,-1
449,450,1583936463283,-0.3897,-1.8526,-0.2796,-2.2648191000000004,7.877718400000001,-0.22828235,-1
450,451,1583936463293,-0.0704,-1.6633999,-0.2047,-1.9125936000000001,7.9917397,-0.28434497,-1
451,452,1583936463303,0.23979999,-1.5328,-0.31469998,-1.6546615000000002,8.137087,-0.34306994,-1
452,453,1583936463313,0.24859999,-1.3722,-0.23719999,-1.7050738,8.383019,-0.16053599999999998,-1
453,454,1583936463324,0.21169999,-1.1127,-0.0208,-1.6249255,8.578989,-0.02165316,-1
454,455,1583936463334,0.3243,-0.9802,0.022599999,-1.5518258,8.756803,-0.03373909,-1
455,456,1583936463344,0.2242,-0.87649995,0.0104,-1.7559074000000001,8.717633,-0.0017334020000000002,-1
456,457,1583936463354,-0.029199999,-0.97789997,0.049,-1.9560341,8.729326,0.08101978,-1
457,458,1583936463364,-0.1744,-0.87329996,0.1771,-1.9363633000000002,8.818199,0.16076586,-1
458,459,1583936463374,0.0605,-0.7593,0.1797,-1.5178665,9.018191,0.09822931,-1
459,460,1583936463385,0.3622,-0.5572,0.1557,-1.2742038,9.245832,0.04803726,-1
460,461,1583936463395,0.60649997,-0.33519998,0.045599997,-0.94155335,9.423712,-0.40946594,-1
461,462,1583936463405,0.815,-0.2498,-0.4948,-1.0618669,9.3526325,-0.7116621,-1
462,463,1583936463415,0.4508,-0.3301,-0.48999998,-1.5058188,9.437091,-0.37832218,-1
463,464,1583936463425,0.1485,-0.17449999,-0.0892,-1.5284008999999998,9.51224,0.02474647,-1
464,465,1583936463436,0.1885,-0.127,0.22019999,-1.4371339,9.639897999999999,0.36135209999999995,-1
465,466,1583936463446,0.2553,-0.0112,0.5408,-1.4626082,9.644036,0.37250906,-1
466,467,1583936463456,0.19919999,-0.0712,0.4104,-1.5302396,9.527562,0.033279404,-1
467,468,1583936463466,0.1318,-0.14109999,0.1673,-1.5559726,9.566569,-0.0022888568,-1
468,469,1583936463476,0.1227,-0.0541,0.18069999,-1.447927,9.729125999999999,0.023970747,-1
469,470,1583936463486,0.22999999,0.0717,0.20459999,-1.2401007,9.86099,0.029525295,-1
470,471,1583936463496,0.4644,0.2075,0.2101,-0.9376843,9.9943075,-0.20140025,-1
471,472,1583936463507,0.77919996,0.3241,-0.1646,-0.9713564,9.977739999999999,-0.8037814,-1
472,473,1583936463517,0.5804,0.28489998,-0.6162,-1.3684683000000002,9.909925999999999,-1.0193648000000002,-1
473,474,1583936463527,0.2026,0.22729999,-0.7657,-1.5790621999999999,9.906805,-1.1205438,-1
474,475,1583936463537,0.0347,0.1997,-0.8408,-1.7428447,9.860501,-1.0331076,-1
475,476,1583936463547,-0.1317,0.1722,-0.7066,-2.0950606,9.688644,-0.7761236,-1
476,477,1583936463558,-0.524,-0.031999997999999995,-0.4138,-2.5998156000000003,9.516799,-0.48965254,-1
477,478,1583936463568,-0.9783,-0.17819999,-0.1574,-2.518097,9.547837,-0.22880907,-1
478,479,1583936463578,-0.8433,-0.1299,0.0469,-2.049159,9.653805,-0.2706214,-1
479,480,1583936463588,-0.3947,-0.014599998999999999,-0.0134,-1.7329327,9.722068,-0.41864052,-1
480,481,1583936463598,-0.0007,0.0703,-0.1893,-1.3298354,9.766801,-0.544566,-1
481,482,1583936463608,0.33319998,0.0865,-0.3155,-1.1487858,9.815461,-0.5535778,-1
482,483,1583936463619,0.4736,0.1326,-0.3053,-1.1324382,9.831158,-0.4630769,-1
483,484,1583936463629,0.45209998,0.14019999,-0.2374,-1.1951855,9.811602,-0.3397085,-1
484,485,1583936463639,0.3674,0.119399995,-0.0911,-1.3293757,9.784384,-0.062086437,-1
485,486,1583936463649,0.1442,-0.0079,0.2778,-1.4391642,9.678033000000001,0.09623733,-1
486,487,1583936463659,-0.17289999,-0.18339999,0.3775,-1.7691618000000002,9.500719,0.19369091,-1
487,488,1583936463670,-0.17289999,-0.18339999,0.3775,-2.0243453999999996,9.46947,0.08894938,-1
488,489,1583936463680,-0.12879999,-0.1428,-0.19699999999999998,-1.727723,9.543555,-0.42588058,-1
489,490,1583936463690,0.2287,-0.0256,-0.6515,-1.3110264999999999,9.685723,-0.94773996,-1
490,491,1583936463700,0.2287,-0.0256,-0.6515,-1.1401093,9.75597,-1.0356838,-1
491,492,1583936463710,0.4423,0.119799994,-0.6556,-1.1479716999999998,9.813987,-0.84137034,-1
492,493,1583936463721,0.3125,0.1193,-0.2015,-1.3226336,9.783905,-0.349812,-1
493,494,1583936463731,0.0382,0.0602,0.3073,-1.5614983,9.740675999999999,0.17769764,d
494,495,1583936463741,-0.0788,0.0013,0.54429996,-1.6633093,9.665287,0.32363862,-1
495,496,1583936463751,-0.0206,-0.0184,0.376,-1.5690736,9.672374000000001,0.12205639999999998,-1
496,497,1583936463762,0.13409999,-0.0186,0.095699996,-1.4184879,9.669519000000001,-0.21935676,-1
497,498,1583936463772,0.2694,-0.009000000000000001,-0.25,-1.2826024999999999,9.686883,-0.5455141,-1
498,499,1583936463782,0.35709998,0.049799997,-0.4201,-1.1987767,9.751315,-0.65113664,-1
499,500,1583936463792,0.33949998,0.0796,-0.3089,-1.2629796999999998,9.7570715,-0.5115354999999999,-1
500,501,1583936463802,0.23600000000000002,0.050899997,-0.0643,-1.435209,9.714234,-0.21967278,-1
501,502,1583936463813,0.0077,-0.0067,0.14989999,-1.6182218000000002,9.663257000000002,-0.06707596,-1
502,503,1583936463823,-0.19029999,-0.074099995,0.2773,-1.8617983,9.596324000000001,0.08560708,-1
503,504,1583936463833,-0.3205,-0.07279999599999999,0.2908,-1.9608990000000002,9.570256,-0.020341137,-1
504,505,1583936463843,-0.3444,-0.12079999599999999,0.1219,-1.9498282999999998,9.563839999999999,-0.18995596,-1
505,506,1583936463853,-0.32189998,-0.110199995,-0.0841,-1.9305023000000001,9.552702,-0.41335413,-1
506,507,1583936463863,-0.3897,-0.1687,-0.17289999,-2.0084958,9.521702000000001,-0.4559039000000001,-1
507,508,1583936463873,-0.42069998,-0.14909999,-0.15609999,-1.8914577000000001,9.585522000000001,-0.47350606,-1
508,509,1583936463884,-0.1619,-0.0519,-0.2006,-1.6362741000000003,9.664502,-0.5082603,-1
509,510,1583936463894,0.0446,0.024999999,-0.1979,-1.4964813999999997,9.7349,-0.49343538,-1
510,511,1583936463904,0.14379999,0.043199997000000004,-0.14829999,-1.4041226999999998,9.742697,-0.39954436,-1
511,512,1583936463914,0.1566,0.042099997,-0.0993,-1.4456955,9.686241,-0.38938340000000005,-1
512,513,1583936463924,0.113299996,-0.0074,-0.118499994,-1.4623114,9.656188,-0.463211,-1
513,514,1583936463934,0.092,-0.0567,-0.2443,-1.5587498,9.600452,-0.58219326,-1
514,515,1583936463945,-0.0646,-0.0762,-0.29119998,-1.7228292,9.615286,-0.564342,-1
515,516,1583936463955,-0.1722,-0.0565,-0.26,-1.7562523,9.634899,-0.5691497,-1
516,517,1583936463965,-0.16409999,-0.0372,-0.2786,-1.7148997,9.684317,-0.5988856,-1
517,518,1583936463975,-0.1195,0.0111,-0.318,-1.6513671000000003,9.699246,-0.62725216,-1
518,519,1583936463985,-0.076699995,0.01,-0.3003,-1.5825002000000001,9.734844,-0.5395669,-1
519,520,1583936463996,0.0041,0.0872,-0.20619999,-1.4337628999999998,9.857216000000001,-0.47502878,-1
520,521,1583936464006,0.14379999,0.1741,-0.182,-1.3877271,9.908586,-0.5208442,-1
521,522,1583936464016,0.1576,0.22209999,-0.2461,-1.3987788,9.939116499999999,-0.56889105,-1
522,523,1583936464026,0.1148,0.2802,-0.3394,-1.3910694,9.9757185,-0.7343016,-1
523,524,1583936464036,0.1328,0.3092,-0.52099997,-1.4185454,10.065242999999999,-0.78667724,-1
524,525,1583936464046,0.0837,0.43649998,-0.4784,-1.5499774,10.172215,-0.64033407,-1
525,526,1583936464057,-0.0326,0.4953,-0.3401,-1.6765063000000002,10.255803,-0.40690893,-1
526,527,1583936464067,-0.1677,0.56409997,-0.1248,-1.8403941000000001,10.301234,-0.25865996,-1
527,528,1583936464077,-0.32279998,0.6132,-0.0072,-1.9407014999999999,10.394167999999999,-0.28344476,-1
528,529,1583936464087,-0.4012,0.7209,-0.0831,-1.8599404,10.504225,-0.42782468,-1
529,530,1583936464098,-0.2768,0.8379,-0.2446,-1.5978518999999998,10.609598,-0.6861686,-1
530,531,1583936464108,-0.0084,0.94479996,-0.5216,-1.2499648,10.745972,-0.86753416,-1
531,532,1583936464118,0.3369,1.0809,-0.6605,-0.8808555,10.907073,-0.92095363,-1
532,533,1583936464128,0.70239997,1.217,-0.7015,-0.63097745,10.986761999999999,-1.0389687,-1
533,534,1583936464139,0.88449997,1.2947999,-0.82,-0.5265137,11.074792,-1.0971669,-1
534,535,1583936464149,0.99179995,1.3731999,-0.87759995,-0.47565126,11.195986999999999,-1.1035928999999998,-1
535,536,1583936464159,1.0725,1.5207,-0.8928,-0.28595388,11.338842999999999,-1.2521867,-1
536,537,1583936464169,1.4925,1.7481999,-1.5891998999999999,-0.03389232,11.436258,-1.8473661,-1
537,538,1583936464179,1.4925,1.7481999,-1.5891998999999999,0.4358022,11.482792,-2.5572374,-1
538,539,1583936464189,1.9381,1.7888,-2.2793,0.7630608,11.512979,-3.3350654000000004,-1
539,540,1583936464200,2.2770998,1.8199999,-3.0239999999999996,1.1405306,11.484248,-4.0461434999999994,-1
540,541,1583936464210,2.878,1.7765,-4.1914997000000005,1.3423237,11.468016,-4.5638947,-1
541,542,1583936464220,3.0461,1.5452,-4.4855,1.4844912000000001,11.231899,-4.868542,-1
542,543,1583936464230,2.9090998,1.3151,-4.4667997,1.3266463,10.9888115,-4.860354,-1
543,544,1583936464240,2.9090998,1.3151,-4.4667997,1.0268636,10.6477995,-4.6661553,-1
544,545,1583936464250,2.4041997999999998,0.5736,-4.0489,0.6786890999999999,10.166691,-4.3876524,-1
545,546,1583936464261,2.2570999,0.2285,-3.8808,0.54081184,9.888829,-4.2470264,-1
546,547,1583936464271,2.2398999,-0.15519999,-3.7579,0.47539269999999995,9.4928665,-4.1065345,-1
547,548,1583936464281,2.1078,-0.6167,-3.533,0.24127808,8.941174499999999,-3.776815,-1
548,549,1583936464291,1.8907,-1.0773,-3.2352998,-0.046141054,8.448189999999999,-3.4481676,-1
549,550,1583936464301,1.6567999,-1.5665,-2.9522998,-0.36397609999999997,7.9381957,-3.1068022,-1
550,551,1583936464312,1.4059,-2.1232,-2.5953999,-0.7994144,7.2459172999999995,-2.584378,-1
551,552,1583936464322,0.98099995,-2.7082999,-2.1166,-1.3327083999999998,6.621538,-2.0397162,-1
552,553,1583936464332,0.4592,-3.4002,-1.633,-1.8331827,6.0402837,-1.5903628,-1
553,554,1583936464343,-0.0539,-4.0622997000000005,-0.9277,-2.3659307999999997,5.377789,-0.7651294,-1
554,555,1583936464353,-0.4543,-4.6854,-0.048499997999999996,-2.870686,4.6203876,0.37998852,-1
555,556,1583936464363,-0.60749996,-5.240999700000001,0.8328,-2.9859526,4.1308217,1.3003197,-1
556,557,1583936464373,-0.67219996,-5.6219,1.5552,-3.0681121,3.781431,1.9137142,-1
557,558,1583936464383,-0.74509996,-5.9751997,2.0054,-3.2261772,3.402831,2.4200685,-1
558,559,1583936464393,-0.7859,-6.2225,2.4299,-3.1922276000000003,3.2195213,2.759011,-1
559,560,1583936464403,-0.66639996,-6.4226,2.6225998,-3.1055764999999997,3.0000305,2.9645482999999997,-1
560,561,1583936464413,-0.5014,-6.5944,2.9148,-2.9107652,2.864576,3.3741007000000005,-1
561,562,1583936464423,-0.4071,-6.6983,3.5674998999999996,-2.948852,2.7195928,4.1586422999999995,-1
562,563,1583936464433,-0.59819996,-6.8908,4.4628997,-3.219799,2.5321653,5.0397468,-1
563,564,1583936464443,-0.83169997,-6.9961,5.2314997000000005,-3.403894,2.5096407000000003,5.651962999999999,-1
564,565,1583936464454,-0.81839997,-6.8585997,5.6619,-3.221839,2.7871861,5.8901577000000005,-1
565,566,1583936464464,-0.6874,-6.6159,5.7552,-3.2370565,2.9583619,5.810248400000001,-1
566,567,1583936464474,-0.7804,-6.375099700000001,5.5877,-3.3038452000000005,3.2732662999999995,5.5087805,-1
567,568,1583936464484,-0.7741,-5.9497,5.3506,-3.1179593,3.8650458,5.2691593,-1
568,569,1583936464494,-0.7741,-5.9497,5.3506,-2.7920415000000003,4.2841945,5.3016343,-1
569,570,1583936464504,-0.1038,-4.9273,5.5601,-2.2606146000000003,4.969223,5.4514629999999995,-1
570,571,1583936464515,0.29979998,-4.307699700000001,5.7233,-1.7883921000000003,5.4877114,5.481285,-1
571,572,1583936464525,0.7371,-3.8774,5.7476,-1.2560078000000001,6.0253057,5.342968,-1
572,573,1583936464535,1.1467,-3.2524998,5.647599700000001,-0.80301523,6.700365,5.1572733,-1
573,574,1583936464545,1.6465,-2.5898,5.5283,-0.22339818,7.371411999999999,5.1559615,-1
574,575,1583936464555,2.0119998,-1.9481,5.7093997000000005,-0.082111545,8.080478999999999,5.5117683,-1
575,576,1583936464565,1.9124999,-1.219,6.2581997000000005,-0.27517995,8.813842,6.3909383,-1
576,577,1583936464575,1.535,-0.5593,7.3325996,-0.7964935000000001,9.409892999999999,7.550508,-1
577,578,1583936464586,0.9673,-0.1548,8.1164,-1.210221,9.662892,7.678971300000001,-1
578,579,1583936464596,0.31489998,0.1515,8.0133,-1.6886400000000001,10.263588,7.0758524000000005,-1
579,580,1583936464606,0.044299997,0.7321,7.4406,-1.1489198999999999,10.764550999999999,6.4067016,-1
580,581,1583936464616,0.79999995,1.3222,6.4863,-0.24500345,11.399053,5.291386599999999,-1
581,582,1583936464626,1.4104999,2.0307,5.4105,0.43307278,12.3765955,4.2367215,-1
582,583,1583936464636,1.7552999,2.8288999,4.7139,0.51268476,13.137510999999998,3.8744025,-1
583,584,1583936464646,1.6507,3.54,4.4842997,0.4181138,13.742239000000001,4.155003,-1
584,585,1583936464656,1.3992,4.1042,4.8325,0.25955063,14.2300625,4.438754599999999,-1
585,586,1583936464666,1.1837,4.5608,5.0436,0.41760623,14.530544,4.40875,-1
586,587,1583936464676,1.3550999,4.9199,4.8603997,0.94861144,14.836801000000001,4.1856103,-1
587,588,1583936464686,1.9059,5.2021,4.585,1.8109263,15.239601,3.9718752,-1
588,589,1583936464696,2.7135,5.6335998,4.3398,2.9580266,15.820215,3.6134152000000004,-1
589,590,1583936464707,3.4203,6.0945,3.9357,3.4350185,16.102307999999997,3.2625499,-1
590,591,1583936464717,3.7868998,6.3859,3.4764998,3.4232967000000003,16.220936,2.738689,-1
591,592,1583936464727,3.5463998,6.4028997,3.0168998,3.0508642000000004,16.103286999999998,2.2332346000000003,-1
592,593,1583936464738,3.0189998,6.2451,2.4771,2.0624037,15.813960999999999,1.3034417999999999,-1
593,594,1583936464748,1.8884,5.9023,1.4081,0.6191789000000001,15.296133,-0.60895085,-1
594,595,1583936464758,0.6832,5.4916,-0.16849999,-0.019000385,15.048257000000001,-2.1133618,-1
595,596,1583936464768,0.051599998,5.2474,-1.6432999,-0.028826188,15.026585,-3.2835422,-1
596,597,1583936464778,-0.0128,5.2276,-2.8109999,0.25697446,14.894051000000001,-3.8041184,-1
597,598,1583936464789,0.18239999,5.0889,-3.3783998,1.2301983,14.784741,-3.91089,-1
598,599,1583936464799,2.2213,4.7331,-3.7217998999999997,2.4865603,14.5434065,-3.9744512999999997,-1
599,600,1583936464809,2.2213,4.7331,-3.7217998999999997,3.6037907999999996,14.327995000000001,-3.9097698,-1
600,601,1583936464819,3.2582998,4.5179996,-3.7591,4.082219,13.962620000000001,-3.629495,-1
601,602,1583936464829,3.6683998,4.1471,-3.5795,3.8601712999999997,13.4697695,-3.208661,-1
602,603,1583936464840,3.3988,3.6685998,-3.2621,3.4992980000000005,12.952583,-2.6319556,-1
603,604,1583936464850,2.8285,2.5532,-2.3604998999999998,3.316707,12.354186,-2.187534,-1
604,605,1583936464860,2.9880998,2.1311998,-1.9848,3.462954,11.935497999999999,-1.7960151000000002,-1
605,606,1583936464870,2.9880998,2.1311998,-1.9848,3.0078356,11.400116,-2.178369,-1
606,607,1583936464880,2.215,1.0679,-3.7029998,2.5539813,10.801297,-3.957903,-1
607,608,1583936464891,2.0163999,0.6835,-5.601,2.4040277000000003,10.432408,-6.050205,-1
608,609,1583936464901,2.1780999,0.52599996,-7.6123,2.555619,10.326958,-8.121065,-1
609,610,1583936464911,2.3659,0.40919998,-9.1711,2.6789967999999997,10.184828999999999,-9.638519,-1
610,611,1583936464921,2.2979998999999998,0.18509999,-9.8596,2.4979088,9.955828,-10.207459,-1
611,612,1583936464931,1.9379,-0.0488,-9.660299,2.1348903,9.683358,-9.949574,-1
612,613,1583936464942,1.7177,-0.391,-9.007299,1.8739033,9.348046,-9.286878999999999,-1
613,614,1583936464952,1.5299,-0.7136,-8.2913,1.6572567999999999,9.040496000000001,-8.638883,-1
614,615,1583936464962,1.2968,-1.0553,-7.8062,1.2990171999999998,8.586910000000001,-8.2538185,-1
615,616,1583936464972,0.9202,-1.4746,-7.7422,0.8490222,8.174073,-8.3582535,-1
616,617,1583936464982,0.5061,-1.8534,-7.8543,0.32114866,7.796028,-8.631202,-1
617,618,1583936464993,0.0021,-2.2214,-8.2539,-0.20445524,7.4448943,-9.164764,-1
618,619,1583936465004,-0.2926,-2.4708997999999998,-8.6924,-0.36664805,7.241589,-9.617144999999999,-1
619,620,1583936465014,-0.23449999,-2.6224,-8.9314995,-0.3452918,7.072539,-9.814982,-1
620,621,1583936465024,-0.2935,-2.804,-8.9095,-0.45115378,6.909704700000001,-9.736844999999999,-1
621,622,1583936465034,-0.4098,-2.9284,-8.7192,-0.6166696999999999,6.691899,-9.613352,-1
622,623,1583936465044,-0.5549,-3.2407,-8.5866995,-0.7081187,6.3329987999999995,-9.163501,-1
623,624,1583936465054,-0.5748,-3.4963998999999997,-7.9353,-0.56003255,6.139691,-8.394789,-1
624,625,1583936465065,-0.317,-3.6950998,-7.1962,-0.075321585,6.0464225,-7.7042537,-1
625,626,1583936465075,0.2357,-3.7285998,-6.6105,0.85010445,6.0923047,-7.109419,-1
626,627,1583936465085,1.3005999,-3.6446998,-6.0547,1.9574897,6.210205,-6.481161599999999,-1
627,628,1583936465095,2.2182999,-3.4524,-5.4632,2.8767388,6.5928655,-5.8334150000000005,-1
628,629,1583936465106,2.9485997999999998,-3.0728,-4.8591,3.2959251000000003,6.8980494000000006,-5.0473313,-1
629,630,1583936465116,3.0282998,-2.741,-3.9634,3.1778908,7.1956005,-3.9104687999999994,-1
630,631,1583936465126,2.7068,-2.4963,-2.8481998,2.7356724999999997,7.512928,-2.8504407000000005,-1
631,632,1583936465137,2.3269,-2.2305,-2.1311998,2.5278077000000003,7.8338375,-2.4656925,-1
632,633,1583936465147,2.0907,-1.9138998999999999,-1.8262999,2.1155071,8.037842999999999,-2.682272,-1
633,634,1583936465157,1.5837,-1.7033,-2.0721,1.7255585999999998,8.322723,-3.0527318,-1
634,635,1583936465167,1.2123,-1.3827,-2.3858,1.6914843000000002,8.60161,-3.5439837,-1
635,636,1583936465177,1.2034999,-1.1291,-2.8102999,2.0330603,8.8804865,-3.919088,-1
636,637,1583936465187,1.5390999,-0.79639995,-3.0426998,2.7190467999999997,9.295017999999999,-3.4854884,-1
637,638,1583936465197,2.1863,-0.3468,-2.3374,3.2528486,9.839633000000001,-1.991679,-1
638,639,1583936465207,2.4714,0.2006,-0.71459997,3.1196735,10.281305,0.031440657000000004,-1
639,640,1583936465218,2.155,0.6267,1.3068,2.8544343,10.731971000000001,2.2537482000000004,-1
640,641,1583936465228,1.8422999,1.1034,3.4598,3.2185732999999996,11.369585,4.2294529999999995,-1
641,642,1583936465238,2.0962,1.6514,4.9546,3.8611769999999996,11.76505,4.7722664,-1
642,643,1583936465249,2.8104,2.1245,5.532,5.2336197,12.10674,4.8832808,-1
643,644,1583936465259,3.8716,2.4143,5.576699700000001,6.4126873,12.368158,4.924681,-1
644,645,1583936465269,5.3229,2.9364,5.6665998,6.878503299999999,12.602819,4.9509796999999995,-1
645,646,1583936465279,5.1370000000000005,2.9782999,5.7118998,6.761359700000001,12.629577000000001,4.973389,-1
646,647,1583936465290,5.1370000000000005,2.9782999,5.7118998,6.162522,12.423053,4.9621553,-1
647,648,1583936465300,4.4818997000000005,2.7811,5.7117996,5.540422400000001,12.185041,4.914912999999999,-1
648,649,1583936465310,3.3451,2.319,5.6717997,5.0794425,11.952382,4.9484315,-1
649,650,1583936465320,2.7635,1.9868,5.6622996,4.5273012999999995,11.618160000000001,4.9720197,-1
650,651,1583936465330,2.2324,1.6238999,5.6552997000000005,3.9263089,11.17892,5.0373526,-1
651,652,1583936465340,1.7896999,1.2705,5.6766996,3.480815,10.851824,5.137564,-1
652,653,1583936465350,1.2789,0.9956,5.7798,3.101497,10.621205,5.2798467,-1
653,654,1583936465361,0.74829996,0.7506,5.8802,2.5131552000000004,10.334984,5.48412,-1
654,655,1583936465371,0.5006,0.5851,5.8938,2.3471892000000003,10.200602,5.517457,-1
655,656,1583936465381,0.4563,0.48959997,5.6089997,2.3617842000000002,10.111221,5.272061,-1
656,657,1583936465391,0.627,0.5027,5.1544,2.5897121,10.128048,4.8642325,-1
657,658,1583936465401,0.82949996,0.5062,4.58,2.833921,10.134599,4.293704,-1
658,659,1583936465412,1.1263,0.55799997,3.8772,3.0438156000000003,10.147996000000001,3.5330086000000005,-1
659,660,1583936465422,0.9809,0.5004,3.3088,2.8938909,10.13274,3.1449947,-1
660,661,1583936465432,0.63809997,0.4314,2.9015,2.4540854,10.007408999999999,2.7553813,-1
661,662,1583936465442,0.2916,0.2829,2.6155,2.1338751,9.850589,2.531102,-1
662,663,1583936465452,0.0751,0.1634,2.4215,1.9645861,9.73628,2.3863392000000005,-1
663,664,1583936465463,-0.024,0.044000000000000004,2.2207,1.9150741000000002,9.633558,2.1899952999999996,-1
664,665,1583936465473,-0.0462,-0.0063,2.0414999,1.8538782999999999,9.615583,2.08195,-1
665,666,1583936465483,-0.1287,-0.0563,1.9045,1.7505541,9.573225,1.8557648999999998,-1
666,667,1583936465493,-0.2023,-0.0669,1.5172,1.715139,9.546113,1.4511161,-1
667,668,1583936465504,-0.2279,-0.1068,1.125,1.6787183999999997,9.548728,1.0997622,-1
668,669,1583936465514,-0.25419998,-0.0976,0.83419997,1.6651291000000001,9.533894,0.8404222,-1
669,670,1583936465524,-0.22199999,-0.117699996,0.7022,1.7057058999999997,9.469814,0.82134527,-1
670,671,1583936465534,-0.2298,-0.1769,0.7179,1.6440217000000001,9.431881,0.93254155,-1
671,672,1583936465544,-0.2574,-0.1674,0.8619,1.6832961,9.491334,1.0296695,-1
672,673,1583936465554,-0.20719999,-0.1284,0.89159995,1.773797,9.533089,0.9913049,-1
673,674,1583936465565,-0.0796,-0.0598,0.81729996,1.8145175999999998,9.590185,0.71877766,-1
674,675,1583936465575,-0.107999995,-0.07,0.3917,1.7439365000000002,9.56498,0.20662919,-1
675,676,1583936465585,-0.1859,-0.0409,-0.0691,1.7158861,9.629336,-0.247254,-1
676,677,1583936465595,-0.1382,0.018000000000000002,-0.49289998,1.8497888999999998,9.636527000000001,-0.67571074,-1
677,678,1583936465605,0.024899999,0.0186,-0.83199996,2.0674508,9.649858,-0.844636,-1
678,679,1583936465615,0.26549998,0.029299999,-0.87409997,2.2806973,9.643969,-0.8225328000000002,-1
679,680,1583936465626,0.39909998,-0.0287,-0.7482,2.2495344,9.555403,-0.42406099999999997,d
680,681,1583936465636,0.1627,-0.11669999,-0.23879999,1.6671785,9.421097999999999,0.33088824,-1
681,682,1583936465646,-0.3366,-0.22459999,0.36249998,1.4713038999999999,9.371777999999999,0.7260081,-1
682,683,1583936465656,-0.42639998,-0.2438,0.6513,1.7151773999999997,9.427992999999999,0.7097276,-1
683,684,1583936465667,-0.1374,-0.1839,0.5669,1.9716538000000001,9.47626,0.45830768,-1
684,685,1583936465677,0.062699996,-0.15339999,0.2986,2.0200741,9.499292,0.1136767,-1
685,686,1583936465687,0.0989,-0.1235,-0.0278,2.0293061999999997,9.545482000000002,-0.21764252,-1
686,687,1583936465697,0.0984,-0.074499995,-0.3089,2.0163393,9.565064999999999,-0.4491331,-1
687,688,1583936465708,0.071899995,-0.0654,-0.4798,1.8674389,9.550088,-0.56163186,-1
688,689,1583936465718,-0.1019,-0.0757,-0.5535,1.6400665,9.588510000000001,-0.61054057,-1
689,690,1583936465728,-0.3129,-0.047199998,-0.5919,1.4687469,9.598297,-0.6806810999999999,-1
690,691,1583936465738,-0.4578,-0.0378,-0.6466,1.5185943000000002,9.643517999999998,-0.73711723,-1
691,692,1583936465749,-0.22119999,0.1698,-0.5827,1.7062422,9.793702,-0.64026695,-1
692,693,1583936465759,-0.1906,0.22049999,-0.32479998,1.7496827000000001,9.849860000000001,-0.37174293,-1
693,694,1583936465769,-0.2092,0.2615,0.0681,1.7412455000000002,9.8839445,0.049741935,-1
694,695,1583936465779,-0.2092,0.2615,0.0681,1.7288721999999999,9.922874,0.32909740000000004,-1
695,696,1583936465789,-0.22739999,0.3024,0.3457,1.7627167000000001,9.923065,0.50508076,-1
696,697,1583936465800,-0.0692,0.4238,0.6658,1.8970792,10.040017,0.6583001,-1
697,698,1583936465810,0.0673,0.5142,0.73569995,2.0964587,10.158799,0.72307765,-1
698,699,1583936465820,0.28239998,0.67329997,0.7089,2.3231610000000003,10.318750999999999,0.6811408,-1
699,700,1583936465830,0.44039997,0.8222,0.732,2.4346827999999996,10.437675,0.7173507,-1
700,701,1583936465840,0.44039997,0.8222,0.732,2.3057408,10.604857,0.9550662,-1
701,702,1583936465850,0.0312,1.1080999,1.1593,2.0327346,10.726005,1.1368245000000001,-1
702,703,1583936465861,-0.21589999,1.3634,1.4312999,1.7985818,11.028267999999999,1.4826523999999999,-1
703,704,1583936465871,-0.0656,1.7571,1.8508999,2.0262703999999996,11.450356,1.9582751,-1
704,705,1583936465881,0.39249998,2.1617,2.4433,2.5324812000000003,11.842343,2.612984,-1
705,706,1583936465891,1.0026,2.5677,3.3379998,3.1855428,12.248486999999999,3.6167002,-1
706,707,1583936465901,1.6310999,2.9327,4.3113,3.7572687000000005,12.612042,4.5791693,-1
707,708,1583936465911,1.8953999,3.2766,4.9066,3.978761,13.005007,5.174981,-1
708,709,1583936465921,1.9577999,3.6762998,5.1011,3.9969473,13.38759,5.2811875,-1
709,710,1583936465932,1.9554,4.0043,5.0526,3.9649513,13.611591,5.238953599999999,-1
710,711,1583936465942,1.8475,4.1828,4.7948,3.7048068,13.8273,4.93308,-1
711,712,1583936465952,1.5049,4.2515,4.6907,3.2202013,13.848101000000002,4.9746146,-1
712,713,1583936465962,0.9935,4.2507,4.9021,2.6094022,13.951118,5.3030610000000005,-1
713,714,1583936465973,0.5349,4.3967,5.2264,2.2634015,14.083547,5.552584599999999,-1
714,715,1583936465983,0.5182,4.6019,5.1712,2.3450534,14.381001999999999,5.262771599999999,-1
715,716,1583936465993,0.9413,4.9055,4.3989997,2.9060726000000003,14.674531,4.2456474,-1
716,717,1583936466003,1.7751,5.1507998,3.2394998,3.7206373,14.923242000000002,3.1485380000000003,-1
717,718,1583936466013,2.5333,5.3472,2.2812,4.2141204000000005,15.042348,2.5036645,-1
718,719,1583936466023,2.9387,5.3073,1.8648,4.414592,14.949453,2.201746,-1
719,720,1583936466033,2.7224998,5.0796,1.8073,3.8462370000000004,14.658634,2.2317407000000005,-1
720,721,1583936466043,2.0226,4.7132998,1.8096,2.9426174,14.272373000000002,2.1854560000000003,-1
721,722,1583936466053,1.2162,4.3072,1.6132,2.1052408,13.853435500000002,1.9215384999999998,-1
722,723,1583936466063,0.76669997,3.8233,1.1722,1.7836133,13.482515,1.5196763999999998,-1
723,724,1583936466073,0.8243,3.3211,0.6694,1.8510339,12.910206,0.9505650999999999,-1
724,725,1583936466083,1.1716,2.8404,0.13699999999999998,2.2224226000000002,12.257852999999999,0.26537332,-1
725,726,1583936466094,1.7215999,2.2633997999999997,-0.37309998,2.7069514,11.900561,-0.073147655,-1
726,727,1583936466104,2.5549998,1.9237,-0.7862,3.4723203000000002,11.591106,-0.44396162,-1
727,728,1583936466114,3.2075999,1.6539999,-1.0622,3.740538,11.267534,-0.5767439999999999,-1
728,729,1583936466124,3.2164998,1.3070998999999999,-1.0889,3.3201542,10.898885,-0.49774498,-1
729,730,1583936466134,2.5542998,0.7948,-1.0054,2.4521892000000003,10.376595,-0.3813293,-1
730,731,1583936466144,1.9322,0.2545,-0.87259996,1.7806731,9.823955999999999,-0.23196942,-1
731,732,1583936466154,1.5494,-0.2647,-0.8508,1.1842296,9.160531,-0.31890765,-1
732,733,1583936466164,1.1656,-0.8807,-0.997,0.6455342,8.672086,-0.47257712,-1
733,734,1583936466174,0.53249997,-1.466,-1.1359999,-0.31126538,7.9908779999999995,-0.7320128,-1
734,735,1583936466184,-0.0997,-1.9912,-1.3896998999999999,-0.94922435,7.5970892999999995,-1.0553641000000002,-1
735,736,1583936466194,-0.56909996,-2.4174,-1.9099,-1.2096559999999998,7.289099,-1.603531,-1
736,737,1583936466204,-0.0734,-2.5182998,-2.2602,-0.45512816,7.200964,-2.1543312,-1
737,738,1583936466214,0.6193,-2.6116998,-2.6827,-0.0013215994,7.06617,-2.4634417999999996,-1
738,739,1583936466225,1.1244,-2.7133,-2.8490999,0.38783193,7.016255999999999,-2.595602,-1
739,740,1583936466234,1.5530000000000002,-2.7949,-2.9469,0.7443573,6.921905000000001,-2.648782,-1
740,741,1583936466244,1.8874999,-2.8762,-2.8681997999999997,0.7947122,6.796899300000001,-2.4739382,-1
741,742,1583936466254,1.7671,-3.0553,-2.5328,0.39003462,6.6257715,-2.0787895,-1
742,743,1583936466264,1.2238,-3.2437,-1.9950999,-0.15259683,6.416049,-1.6015294,-1
743,744,1583936466275,0.5209,-3.5988998,-1.4248999,-1.1799297,5.90979,-0.9397912,-1
744,745,1583936466284,0.0365,-3.9352998999999995,-1.0898,-1.1683513,5.735023,-0.89517283,-1
745,746,1583936466294,0.40289998,-3.9692998,-1.2013,-0.71390307,5.786431299999999,-1.1840572,-1
746,747,1583936466304,1.2677,-3.8383,-1.7298,0.3216658,5.938233,-1.9541761999999998,-1
747,748,1583936466314,1.9521998999999999,-3.7271998,-2.2517,0.5384559,6.0529056,-2.4369237,-1
748,749,1583936466325,1.8952999,-3.6248,-2.5897,0.22114763,6.078859,-2.5921925999999997,-1
749,750,1583936466335,1.5595,-3.5702,-2.5326998,-0.27660692,6.133360400000001,-2.366266,-1
750,751,1583936466346,1.0701,-3.5442,-2.1596,-0.7320607,6.163288,-2.0534685,-1
751,752,1583936466356,0.4053,-3.5470998,-1.7619999999999998,-1.7371753,6.08744,-1.6243988,-1
752,753,1583936466366,-0.4475,-3.5892,-1.3355,-2.4852965,6.1046877,-1.2187827,-1
753,754,1583936466376,-0.99399996,-3.5539,-0.9934,-2.7749085,6.1588926,-1.1636969,-1
754,755,1583936466386,-0.9156,-3.4515998,-1.0747,-2.1040533,6.4224076,-1.5998535,-1
755,756,1583936466397,-0.2417,-3.1648,-1.4422,-1.3801136,6.7950990000000004,-2.2052033,-1
756,757,1583936466407,0.4156,-2.81,-2.0126,-1.0546362,7.044890400000001,-2.6056194,-1
757,758,1583936466417,0.6719,-2.5823998,-2.2535,-1.1456063,7.197985000000001,-2.5680207999999998,-1
758,759,1583936466427,0.4619,-2.4227998,-2.1206,-1.5501595,7.3913603000000005,-2.3570821,-1
759,760,1583936466437,0.1285,-2.2430000000000003,-1.8783,-1.6618727,7.548161500000001,-2.1042829,-1
760,761,1583936466447,0.0801,-2.0632,-1.5737,-1.5292341999999999,7.748508500000001,-1.7919258999999998,-1
761,762,1583936466457,0.2077,-1.8836,-1.2534,-1.665014,7.8414125,-1.6943095000000001,-1
762,763,1583936466467,0.0805,-1.7824,-1.1696,-1.6739779,7.916734,-1.8190665000000001,-1
763,764,1583936466477,0.1179,-1.7012,-1.2925999,-1.5399121999999998,8.059122,-1.885319,-1
764,765,1583936466487,0.30859998,-1.4834,-1.3398,-1.3450912,8.369862,-1.9365740000000002,-1
765,766,1583936466497,0.4377,-1.2271999,-1.3533,-1.2896415,8.572382000000001,-1.8439758000000002,-1
766,767,1583936466507,0.4382,-1.0403,-1.1989,-1.3789835,8.676414999999999,-1.6399324,-1
767,768,1583936466517,0.3701,-0.9422,-1.0027,-1.4670518999999997,8.76931,-1.3963079999999999,-1
768,769,1583936466528,0.2925,-0.84419996,-0.7619,-1.4873258999999999,8.883427000000001,-1.1285117,-1
769,770,1583936466538,0.2742,-0.7561,-0.54289997,-1.5082992,8.9534235,-0.9132348,-1
770,771,1583936466548,0.2568,-0.6678,-0.2846,-1.4972092,9.029511,-0.7343111999999999,-1
771,772,1583936466559,0.2599,-0.5891,-0.14209999,-1.4603385,9.140613,-0.6496331,-1
772,773,1583936466569,0.2872,-0.35209998,-0.021599998999999998,-1.4892606000000002,9.287041,-0.5980045,-1
773,774,1583936466580,0.2872,-0.35209998,-0.021599998999999998,-1.6041821000000003,9.384083,-0.8268136,-1
774,775,1583936466590,0.1751,-0.25259998,-0.23869999,-1.6902584999999999,9.458121,-1.1007295,-1
775,776,1583936466600,-0.1219,-0.1793,-0.7542,-1.9181769,9.460727,-1.3690811,-1
776,777,1583936466610,-0.38709998,-0.16749999,-0.7391,-2.2681327000000002,9.466797999999999,-1.298433,-1
777,778,1583936466620,-0.6064,-0.16659999,-0.4299,-2.42049,9.464749000000001,-1.0366701999999999,-1
778,779,1583936466631,-0.5671,-0.1379,-0.0893,-2.3684785,9.504971000000001,-0.6472293,-1
779,780,1583936466641,-0.5437,-0.0713,0.062099997000000004,-2.3741380000000003,9.549982,-0.49623182,-1
780,781,1583936466651,-0.5926,-0.0347,0.225,-2.3543909,9.625687,-0.31235713,d
781,782,1583936466661,-0.3597,0.1193,0.2744,-2.0902529,9.781817,-0.2894973,-1
782,783,1583936466671,-0.0576,0.2543,0.23249999,-1.7925102,9.919934,-0.3368929,-1
783,784,1583936466681,0.1205,0.3118,0.0598,-1.6270325,9.95533,-0.57520217,-1
784,785,1583936466692,0.1673,0.22369999,-0.097899996,-1.6163161,9.862962,-0.6701658,-1
785,786,1583936466702,0.1673,0.22369999,-0.097899996,-1.6610205000000002,9.871868,-0.64705694,-1
786,787,1583936466712,0.0962,0.2757,-0.031799997999999996,-1.6765733,9.973536,-0.6320118,-1
787,788,1583936466722,0.0642,0.37629998,-0.1594,-1.7737395,9.975173,-0.98710066,-1
788,789,1583936466732,-0.11409999400000001,0.32029998,-0.68659997,-1.9742970000000002,9.960023,-1.5033671999999998,-1
789,790,1583936466742,-0.3041,0.3129,-1.1183,-2.1447163,9.9365015,-1.9311343,-1
790,791,1583936466753,-0.3321,0.3434,-1.3909,-2.045223,10.040994,-2.1412017000000003,-1
791,792,1583936466763,-0.023599999,0.519,-1.6644,-1.6322421999999999,10.22983,-2.459027,-1
792,793,1583936466773,0.42639998,0.7222,-1.9792999,-1.2117821000000002,10.424661,-2.6721494,-1
793,794,1583936466783,0.7179,0.89479995,-2.0331,-0.9945035,10.558161,-2.6374142000000003,-1
794,795,1583936466793,0.7172,0.91999996,-1.9520998999999999,-1.1456543,10.57516,-2.416602,-1
795,796,1583936466803,0.4059,0.9748,-1.5764999,-1.5198106000000002,10.641001,-1.913398,-1
796,797,1583936466813,0.183,0.99039996,-1.3144,-1.4738802,10.724136,-1.687874,-1
797,798,1583936466824,0.3683,1.1527,-1.1984,-1.1543405,10.901921000000002,-1.6499688999999997,-1
798,799,1583936466834,1.0012,1.4032999,-1.3589,-0.111330375,11.248591000000001,-2.028339,-1
799,800,1583936466844,1.9683,1.7332,-1.8577,0.7369256999999999,11.531145,-2.6375961,-1
800,801,1583936466854,2.6599998,1.9085,-2.6046,1.1793933,11.599648,-3.4931019999999995,-1
801,802,1583936466864,2.9062,1.8810999,-3.4650998,1.1490539,11.39754,-4.261439299999999,-1
802,803,1583936466874,2.7382,1.6510999,-4.0828,0.85368615,11.198601,-4.6413709999999995,-1
803,804,1583936466884,2.3789,1.3749,-4.5319,0.4698956,10.845331,-5.121686,-1
804,805,1583936466894,2.1366,0.98289996,-4.9438,0.21495143,10.361521,-5.5640388,-1
805,806,1583936466904,2.0456998,0.55259997,-5.2739997,0.13191094,9.909611,-5.7813745,-1
806,807,1583936466914,2.0351,0.0931,-5.389199700000001,0.052586245999999996,9.440472,-5.7231574,-1
807,808,1583936466924,2.0052,-0.33699998,-5.3020000000000005,0.019948488,9.080938,-5.628701,-1
808,809,1583936466934,2.0916,-0.7675,-5.2381,-0.019278113,8.6070595,-5.486859,-1
809,810,1583936466945,2.0496,-1.1589,-5.0992,-0.20492451,8.138083,-5.1511917,-1
810,811,1583936466955,1.9109999,-1.6184,-4.7283998,-0.37824556,7.6234636,-4.704558400000001,-1
811,812,1583936466965,1.7652999,-2.1649,-4.3290997,-0.5892225999999999,7.0896144,-4.0934815,-1
812,813,1583936466975,1.7018,-2.6606998,-3.7702,-0.56778014,6.572706,-3.5375383,-1
813,814,1583936466985,1.8677,-3.1346998,-3.3414998,-0.37755603,6.0668690000000005,-2.9952805000000002,-1
814,815,1583936466996,2.0684,-3.6847,-2.7163,-0.64296764,5.346712,-1.8077468,-1
815,816,1583936467006,1.7587999,-4.2799,-1.7652999,-1.2131133,4.7606114999999996,-1.0120099,-1
816,817,1583936467016,1.1532,-4.9403,-0.8563,-1.9308758000000001,4.147112,-0.035740644,-1
817,818,1583936467026,0.6375,-5.3834,-0.2498,-2.5414066,3.6664326000000003,0.21927057,-1
818,819,1583936467036,0.118499994,-5.7971997,-0.1788,-3.2090826,3.4078587999999996,-0.011645397,-1
819,820,1583936467046,-0.3892,-6.0558996,-0.45049998,-3.3996706,3.133512,-0.036880285,-1
820,821,1583936467057,-0.46789998,-6.2391,-0.3979,-3.4301057,3.08649,0.18095377,-1
821,822,1583936467067,-0.2764,-6.3473,0.21499999,-2.9381353999999997,2.9554505,1.5982158000000002,-1
822,823,1583936467077,0.1951,-6.41,1.3187,-2.625539,2.7500758,2.5967991,-1
823,824,1583936467087,0.53859997,-6.6419997,2.5449,-2.627579,2.6031678,4.1049447,-1
824,825,1583936467097,0.4129,-6.6998997000000005,3.6938,-2.9274766,2.5869446,5.320108,-1
825,826,1583936467107,0.1105,-6.6926,4.8696,-3.195656,2.6982079,6.246501,-1
826,827,1583936467117,-0.2235,-6.5133,5.8106,-3.6013677000000004,2.8165482999999996,7.105904,-1
827,828,1583936467127,-0.5804,-6.4565997,6.5358996,-3.653638,3.0132368,8.318386,-1
828,829,1583936467137,-0.5489,-6.2183,7.853399799999999,-3.5883148,3.3368947999999996,9.958127000000001,-1
829,830,1583936467148,-0.5998,-5.8966,9.441199000000001,-3.5937734,3.8587637000000004,11.155706,-1
830,831,1583936467158,-0.59459996,-5.3248997000000005,10.5145,-3.2546492000000002,4.681967,11.618486,-1
831,832,1583936467168,-0.26929998,-4.4744997,10.806,-2.8001337000000004,5.462496,11.199433,-1
832,833,1583936467178,0.0954,-3.7754,10.2965,-2.566115,6.2151656,10.421069000000001,-1
833,834,1583936467188,0.2382,-3.0194,9.5751,-2.2246252999999996,7.040083,9.951748,-1
834,835,1583936467198,0.5017,-2.2347999,9.2659,-1.6320698,7.923955,9.941894,-1
835,836,1583936467208,0.8946,-1.5445,9.3475,-1.2426194,8.554674,10.324602,-1
836,837,1583936467218,1.2903999,-0.7933,9.870399,-0.88671654,9.220022,11.049844,-1
837,838,1583936467228,1.5222,-0.1652,10.6321,-0.52165824,9.9374695,11.686663000000001,-1
838,839,1583936467238,1.7593,0.532,11.235499,-0.29358658,10.793722,11.935048,-1
839,840,1583936467248,1.8568,1.4158,11.410999,0.13284945,12.057315,11.443949,-1
840,841,1583936467258,2.0906,2.4568,10.982999999999999,0.7365714,13.208063000000001,10.194989,-1
841,842,1583936467269,2.5811,3.5772998,9.8178,1.183023,14.269212,8.784422,-1
842,843,1583936467279,2.9204,4.6120996,8.5088,1.2544851000000001,15.086966,7.380242,-1
843,844,1583936467289,2.8755,5.4151998,7.2128997,1.0328299,15.885354999999999,5.8152094000000005,-1
844,845,1583936467299,2.3444,6.9716,4.4439,0.9098445,16.674963,4.3696003,-1
845,846,1583936467310,2.8343,7.8300996,3.4987,1.5053208,17.549145000000003,3.3399495999999997,-1
846,847,1583936467320,2.8343,7.8300996,3.4987,2.5258732000000004,18.13852,2.589741,-1
847,848,1583936467330,4.3303,8.7671995,2.4801,3.219119,18.512926,2.1724985,-1
848,849,1583936467340,4.3648,8.6730995,1.2134,3.3672437999999993,18.376284,0.39816532,-1
849,850,1583936467350,4.2785,8.3095,-0.9241,3.2818377,17.94821,-1.9075946,-1
850,851,1583936467361,3.9891998999999996,7.5971,-2.8587,3.0028174,17.180754,-3.8474822,-1
851,852,1583936467371,3.7535,6.8568997000000005,-4.0331,2.8404331000000003,16.604076,-4.774067,-1
852,853,1583936467381,3.5526,6.351,-4.2391,2.647872,15.995316500000001,-5.0740604000000005,-1
853,854,1583936467391,3.48,5.8722997,-4.3491,2.579532,15.525738,-5.2519307,-1
854,855,1583936467402,3.3990998,5.3824997,-4.7918,2.5098032999999997,14.881094000000001,-5.979586,-1
855,856,1583936467412,3.2540998,4.7356,-5.7304,2.3311574,14.313773000000001,-6.854973299999999,-1
856,857,1583936467422,2.8409,3.8734998999999997,-6.9746,1.8701013,13.4301405,-8.107255,-1
857,858,1583936467432,2.3344998,2.8739,-7.9715996,1.2857916,12.232061999999999,-9.037508,-1
858,859,1583936467442,2.0456,2.1180000000000003,-8.1029,1.1378298999999998,11.632162,-8.713496000000001,-1
859,860,1583936467452,2.0011,1.6741999,-7.3616996,1.0935947,11.227849,-7.888521000000001,-1
860,861,1583936467463,1.9181999,1.2103,-6.6768,1.0417842,10.758747999999999,-7.322733,-1
861,862,1583936467473,2.0461,0.8168,-6.5175,1.2698079,10.44617,-7.521758,-1
862,863,1583936467483,2.2608,0.5737,-7.3567,1.3029151,10.253916,-8.651477,-1
863,864,1583936467493,2.0777,0.3741,-8.8089,0.95325625,9.975077,-10.308072,-1
864,865,1583936467503,1.4672999,0.0211,-10.2975,-0.03814442,9.490203999999999,-11.873986,-1
865,866,1583936467514,0.7484,-0.4179,-11.3017,-0.53656936,9.091703,-12.523744,-1
866,867,1583936467524,0.2855,-0.8768,-11.706799499999999,-1.0309145,8.650116,-12.735151,-1
867,868,1583936467534,-0.0739,-1.2882,-11.5791,-1.3498988,8.221746000000001,-12.388767,-1
868,869,1583936467544,-0.1178,-1.555,-11.116,-1.2779098999999998,7.9965953999999995,-11.794153,-1
869,870,1583936467554,0.035299998,-1.7458999,-10.4321995,-1.0332896,7.833981,-11.149032,-1
870,871,1583936467564,0.3773,-1.9190999,-9.9155,-0.7328555999999999,7.651036,-10.705491,-1
871,872,1583936467574,0.7241,-2.0935,-9.4143,-0.3285132,7.492472,-10.124322,-1
872,873,1583936467585,1.2056999,-2.2293,-8.8186,0.1884907,7.32302,-9.546257,-1
873,874,1583936467595,1.6683999,-2.3945,-8.3216,0.5308903,7.191741,-9.041310000000001,-1
874,875,1583936467605,1.9778999,-2.5296,-7.8738,0.76618284,7.023295,-8.692044000000001,-1
875,876,1583936467615,2.2144,-2.7129998,-7.5443997000000005,0.8264401,6.796228999999999,-8.215321000000001,-1
876,877,1583936467625,2.1344,-2.9937,-6.9437,0.43926898,6.4700809999999995,-7.508599799999999,-1
877,878,1583936467636,1.7169999999999999,-3.3325,-6.2788,0.095145576,6.096902,-6.857089500000001,-1
878,879,1583936467646,1.5338,-3.6227998999999995,-5.6382,0.028826188,5.9349675,-6.259075,-1
879,880,1583936467656,1.5587,-3.7673,-5.1597,0.22023782,5.8434610000000005,-5.7848034,-1
880,881,1583936467666,1.8777,-3.806,-4.8347,0.7219093000000001,5.854388,-5.426065400000001,-1
881,882,1583936467676,2.3839998,-3.827,-4.5373,1.0739431000000002,5.7043004,-5.0829477,-1
882,883,1583936467687,2.7085,-3.9768999,-4.2111,1.0809245,5.4467897,-4.4933805,-1
883,884,1583936467697,2.6576,-4.275,-3.6323998,0.9896002,5.187392,-3.5674273999999997,-1
884,885,1583936467707,2.5921,-4.5467,-2.7466,1.1233882,4.954044000000001,-2.355023,-1
885,886,1583936467717,2.8035,-4.7468,-1.5670998999999999,1.5417604,4.847396400000001,-1.205969,-1
886,887,1583936467727,3.1966999,-4.8529,-0.55079997,1.8719400000000002,4.7336144,-0.060228538,-1
887,888,1583936467738,3.4833,-4.9593997000000005,0.47259998,2.1881473,4.5945787000000005,1.0069821,-1
888,889,1583936467748,3.8054,-5.1338,1.402,2.5074186000000003,4.5057054,1.9036297999999998,-1
889,890,1583936467758,3.9812,-5.2086997,2.1949,2.3172712000000004,4.427578,2.7281735,-1
890,891,1583936467768,3.6913998,-5.2819,2.8855,1.6281816999999998,4.318153400000001,3.1536999,-1
891,892,1583936467779,2.9347,-5.4224997,3.2013,1.0171335,4.1504254000000005,3.9023476,-1
892,893,1583936467788,2.4408998,-5.5631,3.8441,0.82068443,4.0044556,4.923589700000001,-1
893,894,1583936467798,2.1845,-5.7537,5.1492,0.54292834,3.6626785,6.990197,-1
894,895,1583936467808,1.8003999,-6.1513,7.3861,0.11087069,3.339768,10.010836999999999,-1
895,896,1583936467818,1.4028,-6.3936,9.842899000000001,-0.12754391,3.3844721,11.372219,-1
896,897,1583936467828,1.1338,-6.3343,11.281899000000001,0.82851833,3.8257332,11.359204,-1
897,898,1583936467839,1.9499999,-5.9247,11.2119,2.0613694,4.5224366,10.615363,-1
898,899,1583936467849,3.0707,-5.242000000000001,10.5432,2.2821243,5.4510226,10.096328999999999,-1
899,900,1583936467859,3.175,-4.3224,10.1406,2.1337411,6.2587595,10.113434,-1
900,901,1583936467869,3.3481,-2.6992,10.443399000000001,2.7162123,7.087287,10.111345,-1
901,902,1583936467879,3.1643999,-2.0735,10.693,2.6137403999999997,7.834910400000001,10.217658,-1
902,903,1583936467890,3.1643999,-2.0735,10.693,2.7137127,8.365456,9.71025,-1
903,904,1583936467900,3.0493,-1.4244,10.3392,3.560312,9.138542999999999,8.592742,-1
904,905,1583936467910,4.8445,0.2572,8.4424,5.079002,10.217131,7.3918295,-1
905,906,1583936467920,5.4729,1.3471999,8.0378,5.772028,11.335329,7.0488553,-1
906,907,1583936467930,5.3497,2.3394,8.2738,5.642128,12.218061,7.297469,-1
907,908,1583936467940,4.4992,2.8799,8.7980995,4.8877726,12.735285000000001,7.8570037,-1
908,909,1583936467951,3.5669999999999997,3.4101998999999994,9.491199499999999,4.291999,13.141380999999999,8.423625,-1
909,910,1583936467961,3.1957,3.8142,9.6405,4.132143,13.622356,8.590558999999999,-1
910,911,1583936467971,3.3707,4.3086,9.5541,4.518864,14.136161999999999,8.471777000000001,-1
911,912,1583936467982,3.7666998,4.8834,9.05,5.1384163,14.682088,7.9449190000000005,-1
912,913,1583936467992,4.1847997,5.4339,8.4696,5.755594,15.177620000000001,7.511702499999999,-1
913,914,1583936468002,4.451699700000001,5.8401,8.4009,5.979404,15.551269,7.6799383,-1
914,915,1583936468012,3.6892998,5.9837,8.9386,5.0826125,15.633332999999999,8.667097,-1
915,916,1583936468022,2.8453999,6.058399700000001,9.8769,4.5831914000000005,15.695773,9.631892,-1
916,917,1583936468033,2.5616999,6.1352,10.2055,4.769671400000001,15.86036,9.859936,-1
917,918,1583936468043,3.1002998,6.5481,10.1009,5.517189,16.343655,9.732678,-1
918,919,1583936468053,3.7761,7.0607,9.465799,6.426746,16.81307,8.838291,-1
919,920,1583936468063,4.9254,7.6024,8.055099499999999,7.8285800000000005,17.301584,7.2521996,-1
920,921,1583936468073,6.219599700000001,7.9255996,6.0752,9.028439,17.445733999999998,5.1411940000000005,-1
921,922,1583936468083,6.7948,7.8703,3.8195,9.217494,17.324492000000003,3.260491,-1
922,923,1583936468093,6.1281,7.3364997,1.2468,8.137566,16.546011,-0.03349009,-1
923,924,1583936468103,4.9902,6.687999700000001,-1.6209999,7.120088000000001,16.032091,-2.9149501,-1
924,925,1583936468114,4.2307,6.2816,-4.2633,6.31464,15.508642000000002,-6.1130195,-1
925,926,1583936468124,3.6627998,5.8055,-6.6731997000000005,5.8427615,15.09729,-7.856975,-1
926,927,1583936468134,3.0846,5.27,-8.3109,5.031712000000001,14.538273,-9.070960000000001,-1
927,928,1583936468144,2.2872,4.7827,-8.8067,3.9579697,13.887615,-9.280577000000001,-1
928,929,1583936468155,1.2406,4.0498,-8.9226,3.0339706000000004,13.137607999999998,-9.172617,-1
929,930,1583936468165,0.4822,3.3667998,-8.8991995,2.5857759999999996,12.6441145,-9.227492999999999,-1
930,931,1583936468175,0.0885,2.6469,-9.2051,2.4855259999999997,11.833045,-9.488595,-1
931,932,1583936468185,0.4032,2.0962,-9.365,3.2392783,11.479661,-9.329611,-1
932,933,1583936468195,1.3392998999999999,1.9011999,-9.283299000000001,4.1111317000000005,11.337924000000001,-8.91505,-1
933,934,1583936468205,1.9726,1.7376,-8.7078,4.2952933,11.143285,-7.9416437,-1
934,935,1583936468216,1.8806,1.4453,-7.718999999999999,3.8978273999999997,10.746815,-6.5647383,-1
935,936,1583936468225,1.4304,1.074,-6.5653,3.50989,10.376891,-5.487405,-1
936,937,1583936468235,1.1264,0.69229996,-5.7306,3.2934449,10.056049,-4.678807,-1
937,938,1583936468245,1.0619,0.4276,-5.167000000000001,3.4055986000000003,9.845839,-4.2153177,-1
938,939,1583936468255,1.2933999,0.24039999,-4.9031,3.5190072,9.5911045,-3.9562364000000003,-1
939,940,1583936468266,1.3413999,-0.105399996,-4.7451,3.2930615,9.113489999999999,-3.7388716,-1
940,941,1583936468276,1.1485,-0.5124,-4.6363,3.0806383999999998,8.748901,-3.6277614000000002,-1
941,942,1583936468286,0.97819996,-0.8426,-4.5319,2.8771408,8.551466,-3.2672043,-1
942,943,1583936468297,0.83919996,-1.0267998999999999,-4.1926,2.7103702999999997,8.449319000000001,-2.9870923,-1
943,944,1583936468307,0.69189996,-1.1432999,-3.8834,2.4596496,8.513800999999999,-2.5326056,-1
944,945,1583936468317,0.5068,-1.0159,-3.4740998999999997,2.271111,8.711647,-2.4503791,-1
945,946,1583936468328,0.40039998,-0.831,-3.4515998,2.2027900000000002,8.942248,-2.6856142999999997,-1
946,947,1583936468338,0.3906,-0.6568,-3.6397,2.1442661,8.995053,-2.9335005,-1
947,948,1583936468348,0.35999998,-0.6204,-3.906,1.9778308,8.928342,-3.0897843999999997,-1
948,949,1583936468358,0.20969999,-0.73039997,-3.9552998999999995,1.8673336999999999,8.828465,-2.922621,-1
949,950,1583936468368,0.1841,-0.8093,-3.7682998,1.6738918,8.771149000000001,-2.470998,-1
950,951,1583936468379,0.027199998,-0.8761,-3.3033997999999998,1.3030874,8.642799,-1.9036394,-1
951,952,1583936468389,-0.3005,-1.0090000000000001,-2.7394,1.0917655000000002,8.59188,-1.1601629999999998,-1
952,953,1583936468399,-0.44669998,-1.0618,-1.4836999,1.1102104,8.5843525,-0.60323346,-1
953,954,1583936468409,-0.44669998,-1.0618,-1.4836999,1.1256291999999999,8.606619,-0.12038046,-1
954,955,1583936468419,0.0026999997999999996,-0.9041,-0.7934,1.531906,8.752272999999999,0.16338032,-1
955,956,1583936468430,0.0026999997999999996,-0.9041,-0.7934,1.8487163,8.814674,0.36128503,-1
956,957,1583936468440,0.64419997,-0.7668,-0.40829998,2.1889898999999997,8.876128999999999,0.6421345,-1
957,958,1583936468450,0.6803,-0.8271,-0.27109998,2.1687446,8.823754,0.73195535,-1
958,959,1583936468460,0.2994,-0.9378,-0.0106,1.6533208,8.717614,1.0813843,-1
959,960,1583936468470,-0.17719999,-0.96099997,0.2943,1.2056051,8.701526,1.3290021,-1
960,961,1583936468481,-0.17719999,-0.96099997,0.2943,1.1457883,8.715708,1.2903693999999999,-1
961,962,1583936468491,-0.0793,-0.8896,0.0319,1.3436451,8.776223,0.9938331,d
962,963,1583936468501,-0.035299998,-0.87289995,-0.1554,1.3476673000000001,8.797360000000001,0.7850109000000001,-1
963,964,1583936468511,-0.13069999,-0.9048,-0.3249,1.2232167999999999,8.768514999999999,0.6457928000000001,-1
964,965,1583936468521,-0.26749998,-0.9262,-0.371,1.057452,8.744275,0.61410314,-1
965,966,1583936468531,-0.30969998,-0.9368,-0.27399999999999997,1.06021,8.764972,0.748686,-1
966,967,1583936468542,-0.1706,-0.7797,-0.09219999599999999,1.2929264,8.988925,0.93191904,-1
967,968,1583936468552,-0.1706,-0.7797,-0.09219999599999999,1.3153169,9.115377,1.1144530000000001,-1
968,969,1583936468562,-0.028299998,-0.61109996,0.0327,1.2077598999999999,9.196895,1.3452636999999998,-1
969,970,1583936468573,-0.096999995,-0.4317,0.4005,1.4269443000000002,9.325991,1.3842889999999999,-1
970,971,1583936468583,0.3471,-0.2245,0.2122,1.8653513,9.468311,1.1581903,-1
971,972,1583936468594,0.6609,-0.1644,0.0558,2.041009,9.570561999999999,1.0733302,-1
972,973,1583936468604,0.5974,-0.12459999,0.1162,1.8791898,9.4979515,1.1831858,-1
973,974,1583936468614,0.24569999,-0.2233,0.2377,1.4501871000000002,9.39751,1.2779003,-1
974,975,1583936468625,-0.28849998,-0.3328,0.2857,0.8060607,9.283669,1.2586414,-1
975,976,1583936468635,-0.67609996,-0.3742,0.2023,0.6289376,9.349186,0.98568326,-1
976,977,1583936468645,-0.74579996,-0.2483,-0.113199994,0.7737773,9.554569,0.69460577,-1
977,978,1583936468655,-0.46019998,-0.0132,-0.3333,1.2799785,9.814216,0.53289187,-1
978,979,1583936468665,0.1328,0.282,-0.4702,1.8424819,10.179705,0.48208690000000004,-1
979,980,1583936468675,0.5574,0.6272,-0.37739998,2.0106792,10.479343,0.7146022,-1
980,981,1583936468686,0.4748,0.90379995,-0.101799995,1.6370401,10.731779,0.9812109,-1
981,982,1583936468696,-0.0063,1.1897,0.0852,1.1518216000000001,11.120225,0.9906153,-1
982,983,1583936468706,-0.4543,1.6528,-0.0301,0.92100155,11.780602,0.72542393,-1
983,984,1583936468716,-0.5243,2.2529,-0.2376,1.0741252000000001,12.3442545,0.7251079,-1
984,985,1583936468727,-0.29549998,2.9744,-0.127,1.4989715000000001,13.243526000000001,1.1631223,-1
985,986,1583936468737,0.026999999,3.7573,0.2602,1.677914,14.011415,1.6028223,-1
986,987,1583936468747,0.1252,4.5217,0.6472,1.7193338,14.735756,1.8591168000000002,-1
987,988,1583936468757,0.1086,5.2269998,0.79929996,1.4240233,15.279546,1.8464180000000001,-1
988,989,1583936468767,-0.3065,5.7553997,0.7169,0.77166075,15.708376999999999,1.8271781000000002,-1
989,990,1583936468778,-1.0244,6.1966,0.6659999999999999,0.03268564,16.131145,2.1128254,-1
990,991,1583936468788,-1.6894,6.6510997000000005,0.9601,-0.022658726,16.742653,2.706281,-1
991,992,1583936468798,-1.6228,7.3176,1.5459,0.8474517,17.430891,3.5216214999999997,-1
992,993,1583936468808,-0.6791,7.9810996,2.2495,2.1338467999999997,17.871902,4.263058,-1
993,994,1583936468818,0.60139996,8.4137,2.8353,3.5593736000000002,17.922754,5.0501566,-1
994,995,1583936468829,1.6797,8.4355,3.3732998,3.8298705,17.69162,5.4424515,-1
995,996,1583936468839,1.8993,8.130199000000001,3.7196,3.8721616,17.015543,5.52984,-1
996,997,1583936468849,1.9190999,7.5729999999999995,3.6683998,4.2478213,16.49087,5.0076647,-1
997,998,1583936468859,2.274,7.0568,3.0904999,4.973571,16.017515,4.1593795,-1
998,999,1583936468869,3.3416997999999998,5.9314,1.3932999,5.3214483,15.355001999999999,3.3160269999999996,-1
999,1000,1583936468879,4.0436997,5.3641,0.7808,5.985906,14.805148999999998,2.6904795,-1
1000,1001,1583936468890,4.0436997,5.3641,0.7808,5.8225164000000005,13.766525,2.015621,-1
1001,1002,1583936468900,3.2440999,3.3191998,-0.1881,5.07114,12.781724,1.714507,-1
1002,1003,1583936468910,3.2440999,3.3191998,-0.1881,4.5047574,11.696987,1.4740813,-1
1003,1004,1583936468920,2.2142,1.1342,-0.5528,3.7837292999999996,10.414231,1.3813681999999998,-1
1004,1005,1583936468931,2.177,0.1778,-0.5909,3.7452018,9.506159,1.3135931,-1
1005,1006,1583936468940,2.1719999999999997,-0.7302,-0.8078,3.462849,8.5590315,1.1092144,-1
1006,1007,1583936468950,1.2041998999999999,-1.8348999,-0.71889997,2.5356033,7.6959987000000005,1.224998,-1
1007,1008,1583936468960,1.2041998999999999,-1.8348999,-0.71889997,1.0774290000000002,6.667018400000001,1.6185378000000001,-1
1008,1009,1583936468970,-1.1696,-3.6399998999999994,-0.092599995,-0.44543642,5.6663,1.9227546000000002,-1
1009,1010,1583936468980,-2.2209,-4.4681,0.0336,-1.3791463,4.9158230000000005,1.8395131,-1
1010,1011,1583936468990,-1.9467,-4.9927,-0.5987,-0.56488794,4.579839700000001,0.8935544,-1
1011,1012,1583936469001,0.2298,-4.8711,-2.1041,1.6408421999999998,4.809903,-0.6666798,-1
1012,1013,1583936469011,2.5901,-4.6028,-3.8581998,3.399891,5.01998,-2.1127775,-1
1013,1014,1583936469021,3.5818,-4.6657,-4.6496997,4.3369913,4.8986897,-2.906494,-1
1014,1015,1583936469031,3.2055,-5.0775,-3.8256997999999998,3.5450273,4.499902,-1.8053813000000003,-1
1015,1016,1583936469041,1.6797,-5.3472,-1.7831,1.8407963999999999,4.273621,0.41724232,-1
1016,1017,1583936469051,0.3195,-5.544699700000001,0.6423,0.38800433,4.106735700000001,2.8689622999999997,-1
1017,1018,1583936469061,-0.5645,-5.5848,2.3923,-0.63825583,4.020669,4.320797,-1
1018,1019,1583936469072,-0.87049997,-5.6377997,2.2881,-0.89282656,4.041709399999999,3.8494549,-1
1019,1020,1583936469082,-0.8537,-5.6064997000000005,0.9123,-0.9268434000000001,4.08084,1.9268631999999999,-1
1020,1021,1583936469092,-0.708,-5.518399700000001,-0.55979997,-0.9416491,4.1902456,0.8532934999999999,-1
1021,1022,1583936469102,-0.8235,-5.4385,-1.4524,-1.2519183999999999,4.3089023,-0.16323668,-1
1022,1023,1583936469113,-0.87689996,-5.1882997,-1.9180000000000001,-1.3652600000000001,4.624678,-0.38436514,-1
1023,1024,1583936469123,-0.98999995,-4.9337,-1.5038999,-1.6775501,4.875725,0.3292123,-1
1024,1025,1583936469133,-1.3995,-4.6363997,-0.5627,-2.1623566000000003,5.1389527,1.2938553,-1
1025,1026,1583936469143,-1.6085999,-4.367,0.2385,-2.2843366,5.396214499999999,1.8223802,-1
1026,1027,1583936469153,-1.3773999,-3.9317,0.46969998,-1.8619035,5.957607,1.8316984,-1
1027,1028,1583936469164,-0.67579997,-3.4101,-0.020299999,-1.0676032,6.4555335,1.1820462,-1
1028,1029,1583936469174,0.120299995,-2.9485997999999998,-0.70489997,-0.37361038,6.939076400000001,0.6220901999999999,-1
1029,1030,1583936469185,0.6177,-2.4376,-0.9632,-0.038939297000000005,7.399386,0.5518826,-1
1030,1031,1583936469195,0.7549,-2.1408,-0.8677,-0.012756307,7.692340400000001,0.9698336,-1
1031,1032,1583936469205,0.7345,-1.9002999,-0.2537,-0.19879535,7.8748645999999995,1.6944244,-1
1032,1033,1583936469215,0.46829998,-1.7293999,0.37669998,-0.5761215000000001,8.03224,2.1577982999999996,-1
1033,1034,1583936469225,0.1436,-1.5579,0.64599997,-0.8075068,8.212819999999999,2.1308396000000003,-1
1034,1035,1583936469236,0.0268,-1.3097,0.4174,-0.72285736,8.520696000000001,1.5443655,-1
1035,1036,1583936469246,0.1646,-1.083,-0.26909998,-0.8745731,8.900263,1.2052219,-1
1036,1037,1583936469256,0.2829,-0.8964,-0.9198,-1.1407318000000002,8.657519,0.48736369999999996,-1
1037,1038,1583936469266,-0.32369998,-0.9058,-0.9334,-1.7178781000000003,8.830630000000001,1.0101136999999998,-1
1038,1039,1583936469276,-0.8803,-0.8639,-0.4204,-2.162309,8.770057000000001,1.1629213,-1
1039,1040,1583936469287,-1.1381999,-0.84059995,-0.3186,-1.8848686999999997,8.949814,1.2847382,-1
1040,1041,1583936469297,-0.73899996,-0.65059996,-0.2816,-1.3902555,9.179494,1.1764245,-1
1041,1042,1583936469307,-0.2491,-0.4019,-0.3662,-1.0463141,9.381449,1.2366818000000002,-1
1042,1043,1583936469317,0.0809,-0.2216,-0.29709998,-0.95381165,9.421088000000001,1.4978604,-1
1043,1044,1583936469327,0.0695,-0.2272,-0.0232,-1.180035,9.391505,1.9145186,-1
1044,1045,1583936469338,-0.1744,-0.23279999,0.3901,-1.4334661,9.342635000000001,2.2569087000000003,-1
1045,1046,1583936469348,-0.4073,-0.29819998,0.6925,-1.5486176,9.28096,2.4822509999999998,-1
1046,1047,1583936469358,-0.46379998,-0.3356,0.8761,-1.4305068,9.324669,2.6677442000000005,-1
1047,1048,1583936469368,-0.2953,-0.2765,1.0784999,-1.2777184,9.389274,2.714651,-1
1048,1049,1583936469378,-0.146,-0.2191,1.0754,-1.0553257,9.572431,2.4133744,-1
1049,1050,1583936469389,0.0634,-0.055299997000000004,0.8477,-0.78046185,9.740445,2.0140982,-1
1050,1051,1583936469399,0.4206,0.14639999,0.3635,-0.72963774,9.797552,1.242696,-1
1051,1052,1583936469409,0.162,0.070099995,-0.599,-1.0091273,9.703757000000001,0.8644216999999998,-1
1052,1053,1583936469419,-0.1626,-0.1183,-0.28489998,-1.3595808999999999,9.520467,1.1466311000000002,-1
1053,1054,1583936469429,-0.41079998,-0.2269,0.6163,-1.6126958999999998,9.422744999999999,2.027343,-1
1054,1055,1583936469440,-0.41079998,-0.2269,0.6163,-1.703599,9.51383,2.5676759999999996,d
1055,1056,1583936469450,-0.1245,0.1347,0.5155,-1.3556545,9.7759,1.9013601999999998,-1
1056,1057,1583936469460,-0.1245,0.1347,0.5155,-0.37296876,10.084234,0.47900313,-1
1057,1058,1583936469470,1.2375,0.5218,-1.6452,0.0349745,10.166404,-0.30867007,-1
1058,1059,1583936469480,1.031,0.4632,-2.0102,-0.19641073,10.110178,-0.67155445,-1
1059,1060,1583936469490,1.031,0.4632,-2.0102,-0.654613,9.853183999999999,-0.05373546,-1
1060,1061,1583936469501,-0.1463,-0.1231,-0.1511,-1.5019018999999998,9.458649000000001,1.5020263,-1
1061,1062,1583936469511,-0.6721,-0.3199,0.6565,-1.9486983,9.2857,2.2678356,-1
1062,1063,1583936469521,-0.7546,-0.3209,1.0411,-1.9436991000000001,9.323146000000001,2.641427,-1
1063,1064,1583936469531,-0.5793,-0.2251,1.0287,-1.6711049,9.402959,2.6583683,-1
1064,1065,1583936469542,-0.154,-0.0821,1.046,-1.2227953999999999,9.562279,2.7255974,-1
1065,1066,1583936469552,0.3381,0.14639999,1.0194,-0.6745807,9.801537,2.7356724999999997,-1
1066,1067,1583936469562,0.7935,0.4017,0.972,-0.25707979999999997,10.022061,2.7020001000000002,-1
1067,1068,1583936469572,1.0805,0.53679997,0.9346,0.10034578,10.159614,2.6567689999999997,-1
1068,1069,1583936469582,1.3196,0.5717,0.96489996,0.22593603,10.159871,2.6788819999999998,-1
1069,1070,1583936469593,1.1715,0.4773,0.8092,0.07706457,10.028478,2.324205,-1
1070,1071,1583936469603,1.0871,0.3524,0.43629998,-0.11836933,9.915434,1.819804,-1
1071,1072,1583936469613,0.82879996,0.16839999,-0.0804,-0.48507482,9.716743,1.2505393999999999,-1
1072,1073,1583936469623,0.37489998,-0.0244,-0.4827,-0.92050356,9.573063000000001,0.9014648000000001,-1
1073,1074,1583936469633,-0.0234,-0.2351,-0.7682,-1.4321348999999999,9.278058999999999,0.5136041,-1
1074,1075,1583936469643,-0.4197,-0.5318,-0.89409995,-2.087993,8.901872000000001,0.3084881,-1
1075,1076,1583936469654,-0.98469996,-0.89519995,-1.0705999,-2.5806142999999997,8.579469,0.05643612,-1
1076,1077,1583936469664,-1.459,-1.2767,-1.2233,-3.0753713,8.16145,-0.005832275400000001,-1
1077,1078,1583936469674,-1.6818999,-1.6180999,-1.1419,-3.191059,7.835935000000001,0.19929335,-1
1078,1079,1583936469684,-1.6861999,-1.8708999,-0.84679997,-2.9537744999999997,7.650106399999999,0.5937045999999999,-1
1079,1080,1583936469694,-1.3349999,-2.0453,-0.3849,-2.4616222000000003,7.4866399999999995,1.0990248,-1
1080,1081,1583936469704,-0.7974,-2.2094,0.0101,-1.994054,7.3637505,1.4249139,-1
1081,1082,1583936469715,-0.24229999,-2.3356,0.40699998,-1.4116117,7.18272,2.0473106,-1
1082,1083,1583936469725,0.058599997,-2.5779,0.9988,-1.4259386,6.8016396,2.7935164,-1
1083,1084,1583936469735,-0.1831,-2.9857,1.7860999,-1.7613664,6.375874,3.6250129,-1
1084,1085,1583936469745,-0.55579996,-3.4715,2.5883,-2.1539865000000002,5.7945423,4.500266000000001,-1
1085,1086,1583936469755,-0.8968,-3.9584,3.2347,-2.4059619999999997,5.303837000000001,4.917010299999999,-1
1086,1087,1583936469765,-1.1019,-4.5457997,3.5428,-2.3840792,4.7720556,5.0489783,-1
1087,1088,1583936469776,-0.9503,-4.9986997,3.5702,-2.0281569999999998,4.422981,4.948269,-1
1088,1089,1583936469786,-0.5527,-5.3167995999999995,3.4496,-1.564582,4.1848826,4.940253299999999,-1
1089,1090,1583936469796,-0.2223,-5.4596995999999995,3.5661,-1.1906173,4.0882525,5.4276266,-1
1090,1091,1583936469806,0.120699994,-5.5831,4.1291,-0.8768046,3.8948011,6.2201457,-1
1091,1092,1583936469816,0.3707,-5.7946,4.9526997,-0.6873465999999999,3.6973178,7.0523605,-1
1092,1093,1583936469826,0.5186,-5.986799700000001,5.7474,-0.44480437,3.438246,7.5232615,-1
1093,1094,1583936469837,0.67039996,-6.2588,6.1075,-0.3981366,3.3031747000000005,7.4180894,-1
1094,1095,1583936469847,0.6272,-6.4151998,5.8199997,-0.15986563,3.1696742,6.6341220000000005,-1
1095,1096,1583936469857,0.9029,-6.4751997,5.0372,0.5487989000000001,3.5201564,5.652834400000001,-1
1096,1097,1583936469867,1.5501,-6.0259,4.1728997,1.3814256,4.2812157,5.575425,-1
1097,1098,1583936469877,2.2579,-5.2118998,4.2439,1.9622781000000002,5.3599854,5.9688215,-1
1098,1099,1583936469887,2.6632,-4.1194997,4.7454,2.495639,6.2651567,6.8531632,-1
1099,1100,1583936469898,3.2454,-2.9940999,5.9493,3.2809086000000005,7.463425599999999,8.016927,-1
1100,1101,1583936469908,3.7103,-2.1027,6.6383996,3.4595351,7.9778438,7.818926299999999,-1
1101,1102,1583936469918,3.6922,-1.6744,6.1580997,3.3039026,8.416595,5.8083525,-1
1102,1103,1583936469928,3.4733998999999995,-1.2998999,4.3946,3.057089,8.988973,3.2386847000000003,-1
1103,1104,1583936469938,3.1622999,-0.733,1.9102999,2.6261232000000003,9.613975,1.0924456,-1
1104,1105,1583936469949,2.5356,0.0495,-0.6532,1.8689137999999998,10.657866,-1.1107850000000001,-1
1105,1106,1583936469959,1.0701,1.6992999,-2.1337,1.2229774,11.447358,-0.9728120000000001,-1
1106,1107,1583936469969,1.0701,1.6992999,-2.1337,0.6859771,11.905942999999999,-0.17055334,-1
1107,1108,1583936469979,-0.16129999,2.888,-0.062099997000000004,0.21293072,12.610117,1.2473503000000001,-1
1108,1109,1583936469989,-0.16129999,2.888,-0.062099997000000004,0.46718538,13.219786,1.7427009999999998,-1
1109,1110,1583936470000,-0.04,3.5126998,0.3468,1.3003867,13.820597,1.0876955,-1
1110,1111,1583936470010,1.4559,4.7160997,-1.6924,2.217548,14.396469,-0.25644773,-1
1111,1112,1583936470020,2.0197,5.0069,-3.4308998999999996,2.9048371,14.680660000000001,-2.0200932000000003,-1
1112,1113,1583936470031,2.2805,5.1854997,-5.0776,3.359429,14.884628,-4.087562999999999,-1
1113,1114,1583936470041,2.5528998,5.2149997,-6.6369,3.7113097,14.8797245,-5.627868,-1
1114,1115,1583936470051,2.7289,5.2446,-7.5578,3.9300916,14.926410999999998,-6.454423,-1
1115,1116,1583936470061,2.5936,5.1384,-7.6691,3.7944937000000007,14.75557,-6.4762487,-1
1116,1117,1583936470071,2.0783,4.7788,-7.3002,3.2802765,14.356782,-6.171409,-1
1117,1118,1583936470082,1.5205,4.3522,-7.2324996,2.8366213,13.837739000000001,-6.2859287,-1
1118,1119,1583936470092,1.4294,3.9582,-7.5344996,2.9349369999999997,13.567204,-6.576183,-1
1119,1120,1583936470103,1.7687998999999999,3.681,-7.889199700000001,3.4033866,13.263820999999998,-6.9222884,-1
1120,1121,1583936470113,2.3451998,3.2705998,-8.095,4.067518700000001,12.815338,-7.075019,-1
1121,1122,1583936470123,3.0388,2.98,-7.9522,5.0521199999999995,12.581693,-6.65228,-1
1122,1123,1583936470133,3.8158,2.995,-7.2679,5.7249099999999995,12.560509,-5.89507,-1
1123,1124,1583936470143,3.9294998999999997,2.8434,-6.5901,5.55744,12.3355875,-5.1759095,-1
1124,1125,1583936470154,3.4729,2.602,-5.9821,4.805316,11.914391,-4.3528886,-1
1125,1126,1583936470164,2.5716999,2.1724,-5.1440997,3.9039660000000005,11.559771000000001,-3.4542487,-1
1126,1127,1583936470174,1.1743,1.7119,-4.281399700000001,2.4690635,11.055629,-2.789877,-1
1127,1128,1583936470184,0.20279999,1.3489,-4.0744,1.9742298999999999,10.856843,-2.7111080000000003,-1
1128,1129,1583936470195,0.3412,1.3199999,-4.3185997,2.6385827,10.890744999999999,-3.2024267,-1
1129,1130,1583936470205,1.1618,1.3812,-4.9185,3.5614133000000003,10.981005999999999,-3.8432394999999997,-1
1130,1131,1583936470215,2.0065,1.4372,-5.6459,4.405676000000001,10.881388000000001,-4.5774264,-1
1131,1132,1583936470225,2.8581,1.3256999,-6.3644,5.2679524,10.748107000000001,-5.2341657,-1
1132,1133,1583936470235,3.6360997999999998,1.1719998999999999,-6.9914,5.790367,10.534094999999999,-5.650086,-1
1133,1134,1583936470246,3.9413,0.9173,-7.159,5.848450700000001,10.176075,-5.617755000000001,-1
1134,1135,1583936470256,3.8435998,0.49409997,-7.1103997,5.5537339999999995,9.588261,-5.38999,-1
1135,1136,1583936470266,3.5461,-0.0376,-6.7711997,5.2075996,9.167102,-4.8340178,-1
1136,1137,1583936470276,3.1708,-0.5399,-6.0512,5.044669,8.649149000000001,-4.1364527,-1
1137,1138,1583936470286,3.1727,-0.9147,-5.5692997,5.210453,8.628052,-4.1076365,-1
1138,1139,1583936470297,3.3629,-0.8879,-5.5835,5.5162983,8.669768,-4.3017197,-1
1139,1140,1583936470307,3.6745,-0.8231,-5.7679996,5.786757,8.8442,-4.4958224,-1
1140,1141,1583936470317,3.8648998999999997,-0.65169996,-5.9082,5.8283486,8.984902,-4.879029,-1
1141,1142,1583936470327,3.8690998999999997,-0.52059996,-6.2239,5.747195,9.069599,-5.0769625,-1
1142,1143,1583936470337,3.7572,-0.46829998,-6.2808,5.5998363,9.046616,-4.805575,-1
1143,1144,1583936470348,3.5488,-0.4842,-5.8489,5.1481466,9.073297,-3.9858766000000005,-1
1144,1145,1583936470358,3.037,-0.49899998,-4.8352,4.571162999999999,8.970653,-2.621555,-1
1145,1146,1583936470368,2.4652,-0.6003,-3.3604998999999998,4.113823,8.849008,-1.0935371999999999,-1
1146,1147,1583936470378,2.0339,-0.7288,-1.7741,4.0533547,8.720736500000001,0.40883390000000003,-1
1147,1148,1583936470388,2.0434,-0.8448,-0.30629998,4.3527927,8.845034,1.3542371000000002,-1
1148,1149,1583936470398,2.3256,-0.6246,0.5936,4.7232523,9.282119,2.0604593999999996,-1
1149,1150,1583936470408,2.6289,-0.1767,1.3177999,4.6308455,9.779767999999999,2.8698816000000003,-1
1150,1151,1583936470419,2.431,0.2521,2.043,4.519946,10.164986,3.7968303999999997,-1
1151,1152,1583936470429,2.2666,0.6411,3.0270998,4.5198407,10.369622999999999,4.9082856,-1
1152,1153,1583936470439,2.2224998,0.8434,4.2016,4.508387,10.3052,6.234874700000001,-1
1153,1154,1583936470449,2.1701999,0.79109997,5.5775,4.5353650000000005,10.112121,7.3108960000000005,-1
1154,1155,1583936470459,2.1945999,0.5543,6.97,4.880954,10.027194,9.032394,-1
1155,1156,1583936470470,2.4592,0.5358,8.434,5.520263,10.401207000000001,10.24795,-1
1156,1157,1583936470481,3.843,1.1712999,10.0191,6.4930654,10.689210000000001,10.601478,-1
1157,1158,1583936470490,4.2433,1.466,10.0113,6.874634299999999,10.980585000000001,10.603067,-1
1158,1159,1583936470500,4.2433,1.466,10.0898,6.981261999999999,11.2771015,10.599283999999999,-1
1159,1160,1583936470510,4.0989,1.9648,9.9531,6.4589243,11.464501,10.338441,-1
1160,1161,1583936470520,3.2445998,2.0906,9.7858,5.486572,11.625392,10.114899000000001,-1
1161,1162,1583936470530,2.2224998,2.2905,9.7148,4.539923,11.835486999999999,9.963431,-1
1162,1163,1583936470541,1.2688,2.7147,9.5175,3.5182697999999997,12.321606,9.623073,-1
1163,1164,1583936470551,0.43519998,3.2770998,8.9903,2.7092402,12.954863000000001,8.93903,-1
1164,1165,1583936470561,0.18429999,4.0773997,8.224999,2.5536938,13.803022,8.118238999999999,-1
1165,1166,1583936470571,0.5887,5.1264997,7.5985,3.0277553,14.907468,7.385882400000001,-1
1166,1167,1583936470581,1.3636,6.3946,6.8486,3.8227453000000002,16.178072,6.6117125,-1
1167,1168,1583936470591,2.4661,7.5168,6.2138995999999995,4.963352700000001,17.243721,6.0368934,-1
1168,1169,1583936470602,3.6129,8.2551,5.9241,5.9982986,17.93688,5.89304,-1
1169,1170,1583936470612,4.3464,8.764,6.0105,6.674048,18.447782999999998,5.9990559999999995,-1
1170,1171,1583936470622,4.7826,8.9536,5.830899700000001,7.01934,18.60016,5.709022,-1
1171,1172,1583936470632,5.1965,9.0109,5.3083,7.2780759999999995,18.620338,5.1238019999999995,-1
1172,1173,1583936470642,5.4701,8.9366,4.6415,7.333488000000001,18.473248,4.4451323,-1
1173,1174,1583936470652,5.6018996,8.6046,3.9656,7.327071000000001,18.099628,3.8483727,-1
1174,1175,1583936470663,5.7279,8.0652,3.4826,7.156566000000001,17.496912,3.4073036,-1
1175,1176,1583936470673,5.5339,7.3395,3.1027,6.671146,16.746971,3.045166,-1
1176,1177,1583936470683,5.1847,6.5074997,2.7106,6.034547,15.926708999999999,2.6062896,-1
1177,1178,1583936470693,4.7165,5.5905,2.2108998,5.2930245000000005,14.981410999999998,2.0164158,-1
1178,1179,1583936470703,4.2358,4.5842,1.5080999,4.433257,13.99727,1.1597416,-1
1179,1180,1583936470714,3.5198998,3.6257,0.5696,3.5085876000000003,13.019985,0.19767487,-1
1180,1181,1583936470724,2.7747998,2.6092,-0.2549,2.2774509999999997,11.775508,-0.73004955,-1
1181,1182,1583936470734,1.9882,1.551,-0.8782,1.1727375,10.735322,-1.232037,-1
1182,1183,1583936470744,1.2123,0.5092,-1.2379999,0.3128264,9.651591999999999,-1.5754039,-1
1183,1184,1583936470754,0.5791,-0.5761,-1.642,-0.65206563,8.552452,-2.048345,-1
1184,1185,1583936470764,-0.1401,-1.6377,-2.0827,-1.1729003,7.9274892999999995,-2.2488356,-1
1185,1186,1583936470774,-0.43879998,-2.5397,-2.2976,-1.6359771,6.723857000000001,-2.3869712000000005,-1
1186,1187,1583936470785,-0.3877,-3.3032,-2.2863,-1.5060582,6.111631,-2.225372,-1
1187,1188,1583936470795,0.0638,-3.7621998999999997,-2.2252,-1.2471493,5.7580075,-2.189823,-1
1188,1189,1583936470805,0.47939998,-4.2892,-2.2379,-0.87953395,5.072432,-1.9640019,-1
1189,1190,1583936470815,0.96489996,-4.7558,-2.0167,-0.5584523,4.764308,-1.6686723,-1
1190,1191,1583936470825,1.4089,-5.2102,-1.8102,-0.4375643,4.0799594,-1.3308122,-1
1191,1192,1583936470836,1.4376,-5.7388997,-1.5713999,-0.5995081,3.5539434,-0.95679003,-1
1192,1193,1583936470846,1.449,-6.3016996,-1.3341,-0.75484395,2.8318903,-0.69314057,-1
1193,1194,1583936470856,1.3751999,-7.0158997,-1.1042,-1.1151618,2.1286082000000004,-0.22354183,-1
1194,1195,1583936470866,1.1948999,-7.5677,-0.6256,-1.3099252000000001,1.5750208,0.5174349,-1
1195,1196,1583936470876,1.3152,-7.9286,-0.0739,-1.4685267,1.0993503,0.89910895,-1
1196,1197,1583936470887,1.2925,-8.3347,0.2096,-1.8834131,0.6166314,0.95434797,-1
1197,1198,1583936470897,0.96959996,-8.8054,0.22559999,-2.5715737,0.11377247,0.79934734,-1
1198,1199,1583936470908,0.4603,-9.2536,0.0402,-3.2066119,-0.35592199999999996,0.69293946,-1
1199,1200,1583936470918,0.0438,-9.621799000000001,-0.0365,-3.7438421,-0.77118194,0.5253549,-1
1200,1201,1583936470928,-0.295,-9.9611,-0.21409999,-4.1948233,-1.0858375,0.35843116,-1
1201,1202,1583936470938,-0.6096,-10.2051,-0.3091,-4.8480287,-1.4319434,0.30987674,-1
1202,1203,1583936470949,-1.0303999,-10.434000000000001,-0.33299999999999996,-5.4638653,-1.7122277,0.14506948,-1
1203,1204,1583936470958,-1.5224999,-10.6606,-0.47219998,-5.891996,-1.978348,-0.14020446,-1
1204,1205,1583936470968,-1.9926,-10.9662,-0.7959,-6.3282585,-2.51938,-0.57570016,-1
1205,1206,1583936470978,-2.3065999,-11.5397,-1.1687,-6.408081,-3.04915,-0.8186638,-1
1206,1207,1583936470988,-2.2215,-11.99,-1.3697,-5.9416237,-3.3866367,-0.8647186,-1
1207,1208,1583936470998,-1.7481999,-12.367,-1.3227999,-5.2950454,-3.9843442000000002,-0.44046608,-1
1208,1209,1583936471009,-0.2685,-13.089299,-0.478,-4.27864,-4.158221,0.029458257999999998,-1
1209,1210,1583936471019,-0.2685,-13.089299,-0.478,-3.301518,-4.0563139999999995,0.72207206,-1
1210,1211,1583936471029,0.629,-13.0278,0.2163,-2.8228214,-4.094535,1.3267995000000001,-1
1211,1212,1583936471039,1.1082,-13.1251,0.98929995,-2.2346904,-4.3185267,2.1479532999999997,-1
1212,1213,1583936471049,1.4064,-13.733298999999999,2.1268,-2.2687457,-4.6629663,2.6107428,-1
1213,1214,1583936471060,1.4064,-13.733298999999999,2.1268,-2.4605308,-5.0053277000000005,2.5943475,-1
1214,1215,1583936471070,0.44399998,-14.4544,2.0259,-3.146747,-5.36915,2.3237069,-1
1215,1216,1583936471080,0.4759,-14.6508,1.5797,-2.8144033,-5.447441,1.5880836,-1
1216,1217,1583936471090,1.2560999,-14.3874,0.097799994,-1.7543656000000003,-5.0392294,-0.19785683,-1
1217,1218,1583936471100,2.6374,-13.6748,-2.0219998,-0.4821156,-4.3814273,-2.0517159,-1
1218,1219,1583936471110,2.6374,-13.6748,-2.0219998,1.3372861,-3.1392963,-3.9006622,-1
1219,1220,1583936471120,5.9125,-10.5858,-4.1405997,3.6746593,-0.70194167,-4.321735400000001,-1
1220,1221,1583936471131,7.0506,-8.248899,-3.4097,4.850643,1.7666718999999997,-3.3810629999999997,-1
1221,1222,1583936471141,6.8104,-6.0813,-1.4678,4.68302,3.9215107000000002,-1.2599151000000002,-1
1222,1223,1583936471151,5.7113,-4.1863,0.6184,3.7141347000000002,5.862299,0.6973351999999999,-1
1223,1224,1583936471162,4.0022,-2.3091,1.5594,2.0857997,8.123938,1.4735832,-1
1224,1225,1583936471172,2.7704,-0.54039997,1.35,1.4885998,9.596611,0.84898394,-1
1225,1226,1583936471182,2.9719,1.6465,-0.743,2.3808131,11.928497,-1.5064030000000002,-1
1226,1227,1583936471193,4.676,4.2908998,-2.9313998,5.054140599999999,15.036342999999999,-3.9909043,-1
1227,1228,1583936471203,6.7226,6.5213,-4.3972,7.3787384000000005,17.125553,-5.0453873,-1
1228,1229,1583936471214,8.3503,8.4419,-4.3438,9.056776,19.1519,-3.6948469,-1
1229,1230,1583936471224,8.7134,9.753799,-2.4264,9.126342999999999,20.024107,-1.4456285,-1
1230,1231,1583936471234,8.3846,10.5555,-0.34600000000000003,9.253178,20.971712,0.4221265,-1
1231,1232,1583936471245,8.2505,11.6405,1.3184999,9.337953,21.839142000000002,1.7273494999999999,-1
1232,1233,1583936471255,8.037,12.281799000000001,1.953,9.369172,22.124367000000003,1.472616,-1
1233,1234,1583936471265,7.7812996,12.505999999999998,1.207,9.42919,22.381735,0.2971683,-1
1234,1235,1583936471275,7.5407996,12.8587,-0.22829999,8.749965,22.395870000000002,-1.2765403999999998,-1
1235,1236,1583936471286,6.1194997,12.619499000000001,-1.4793999,6.776155999999999,21.777639999999998,-2.2598486,-1
1236,1237,1583936471296,4.348,12.0415,-2.0985,5.3827305,20.784706,-2.639665,-1
1237,1238,1583936471306,2.8841999,10.9794,-2.3371,4.2000421999999995,19.487442,-2.556136,-1
1238,1239,1583936471316,1.6624999,9.6809,-2.1411998,3.3450443999999995,18.252876,-2.105892,-1
1239,1240,1583936471326,0.73649997,8.5711,-1.6639999,2.65064,17.875301,-1.5731342,-1
1240,1241,1583936471337,-0.22919999,8.3103,-1.0268999,2.500868,17.683516,-0.8598823,-1
1241,1242,1583936471347,-0.0241,8.2644,-0.56839997,4.260175,17.663185000000002,-0.4305924,-1
1242,1243,1583936471357,1.8499999,8.2863,-0.2593,6.665534,17.642078,-0.020896593,-1
1243,1244,1583936471367,3.8902997999999998,8.2507,0.0034999999,7.422322299999999,17.108255,0.036094986,-1
1244,1245,1583936471377,4.1587,7.6945996,-0.0423,6.999142,16.545887,0.17337851,-1
1245,1246,1583936471388,3.2665,6.9932,0.13159999,5.1954655999999995,15.550579,0.14797124,-1
1246,1247,1583936471398,1.5407,6.1273,-0.0246,3.5068736000000005,14.65826,-0.10428185,-1
1247,1248,1583936471408,-0.0655,5.25,-0.21949999,2.3358982000000004,13.87076,-0.44746673,-1
1248,1249,1583936471418,-1.0534999,4.4574,-0.5902,1.9347928,13.104835000000001,-0.97085834,-1
1249,1250,1583936471428,-1.3027999,3.8339999,-0.9655,2.038136,12.649745,-1.0194128,-1
1250,1251,1583936471438,-1.2034,3.3825,-0.9903,2.31639,12.346534,-1.017823,-1
1251,1252,1583936471449,-0.7945,3.0240998,-0.99189997,3.2482900000000003,11.988592,-1.0926274,-1
1252,1253,1583936471460,0.7412,2.5588,-1.2124,4.037208000000001,11.802553,-1.2371607,-1
1253,1254,1583936471470,1.0849999,2.2384999,-1.2112,4.389721,11.418924,-1.1852353,-1
1254,1255,1583936471480,0.99509996,1.8727,-0.71529996,4.2456574,11.052028,-0.58925134,-1
1255,1256,1583936471490,0.99509996,1.8727,-0.71529996,3.8623452000000005,10.762022,-0.11460564,-1
1256,1257,1583936471501,0.1419,1.2047,0.35459998,3.384386,10.468839,0.34979287,-1
1257,1258,1583936471511,-0.1408,0.867,0.3126,3.0592055,10.146225,0.28943026,d
1258,1259,1583936471521,-0.177,0.5683,0.052199997000000005,3.0289428,9.818832,-0.09534669,-1
1259,1260,1583936471532,-0.0179,0.42700000000000005,-0.1267,3.0972447,9.73128,-0.2109962,-1
1260,1261,1583936471542,-0.075899996,0.20809999,-0.11409999400000001,2.9583235,9.479171000000001,-0.18434395,-1
1261,1262,1583936471552,-0.2529,-0.0299,0.2032,2.7227243999999997,9.234886,0.25093150000000003,-1
1262,1263,1583936471562,-0.2529,-0.0299,0.2032,2.670952,9.106107000000002,0.3776901,-1
1263,1264,1583936471572,-0.2501,-0.31739998,0.31689999,2.7520583,9.068355,0.17334022,-1
1264,1265,1583936471582,0.0158,-0.24839999,0.1426,2.9888735,9.132749,-0.044101197,-1
1265,1266,1583936471593,0.035499997,-0.29659998,-0.048299998,2.8499236,9.038944,-0.24771369,-1
1266,1267,1583936471603,-0.1997,-0.48189998,-0.1121,2.5578501,8.796975999999999,-0.32092836,-1
1267,1268,1583936471613,-0.5244,-0.73539996,-0.13849999,2.2245486,8.562834,-0.33467108,-1
1268,1269,1583936471623,-0.6741,-0.9295,-0.17359999,2.0750449,8.4270735,-0.41703162,-1
1269,1270,1583936471634,-0.8749,-1.1032,-0.27339998,1.7989456999999998,8.244635,-0.5561826,-1
1270,1271,1583936471644,-1.2250999,-1.3055999,-0.38239998,1.3516513,7.9530687,-0.62745327,-1
1271,1272,1583936471654,-1.5015999,-1.5457,-0.3479,1.2331766000000002,7.834861999999999,-0.6474496,-1
1272,1273,1583936471665,-1.4144,-1.5871998999999999,-0.44669998,1.6110966,7.963727499999999,-0.8405754999999999,-1
1273,1274,1583936471675,-0.9949,-1.3807,-0.6246,1.8660313000000002,8.079502,-0.8900110000000001,-1
1274,1275,1583936471685,-0.8190000000000001,-1.2408,-0.5506,2.0548856,8.333833,-0.7021524,-1
1275,1276,1583936471696,-0.61079997,-0.96169996,-0.4089,2.4166496,8.6299095,-0.46868894,-1
1276,1277,1583936471706,-0.2622,-0.6486,-0.17019999,2.6739017999999994,8.925967,-0.20573854,-1
1277,1278,1583936471716,-0.1223,-0.3497,0.0438,2.7309222,9.313521000000001,-0.034409467,-1
1278,1279,1583936471726,-0.1116,0.1095,0.0914,2.667648,9.897419000000001,-0.22014207,-1
1279,1280,1583936471736,-0.248,0.6279,-0.1866,2.526017,10.540415,-0.59006536,-1
1280,1281,1583936471746,-0.39699998,1.3041999,-0.5704,2.6350296,11.306512,-0.83478147,-1
1281,1282,1583936471756,-0.259,2.1006,-0.77639997,2.9233778,11.980959,-0.7417811,-1
1282,1283,1583936471766,0.095199995,2.9786,-0.5976,3.5870025,13.013606,-0.26247156,-1
1283,1284,1583936471777,0.64919996,3.8495,-0.21339999,4.164973000000001,13.917446,0.4046105,-1
1284,1285,1583936471787,1.1534,4.8002,0.3999,4.5006876,14.805598999999999,1.1550299,-1
1285,1286,1583936471798,1.3499,5.6717,1.0439,4.486035,15.743964000000002,1.9009291000000001,-1
1286,1287,1583936471808,1.2929,6.4618998,1.5619999,4.342096,16.386644,2.0911725,-1
1287,1288,1583936471818,1.1211,7.1208,1.6716,4.233427,16.794262,1.9211074000000001,-1
1288,1289,1583936471828,1.0196999,7.638,1.3898,4.5225800000000005,17.269482,1.5761892,-1
1289,1290,1583936471838,1.3773,8.092899000000001,0.97889996,5.003191999999999,17.523726999999997,1.0941693000000001,-1
1290,1291,1583936471849,2.6474,8.2775,0.2225,5.8737426,17.528907999999998,0.7930170999999999,-1
1291,1292,1583936471859,2.6474,8.2775,0.2225,6.54229,17.489395000000002,0.76891226,-1
1292,1293,1583936471869,3.5056998999999998,8.0821,0.3603,6.663446400000001,17.354898000000002,1.0289321,-1
1293,1294,1583936471879,3.5813,7.8394,0.7251,6.673186,17.129135,1.4605204999999999,-1
1294,1295,1583936471890,3.5813,7.8394,0.7251,6.540576000000001,16.892464,1.9137621,-1
1295,1296,1583936471900,3.359,7.0948,1.5812,6.180584,16.348635,2.573269,-1
1296,1297,1583936471910,3.0086,6.4860997000000005,1.8978,5.789639,15.84994,2.8441584,-1
1297,1298,1583936471920,2.6615,5.7079997,1.9607999,5.2284865,14.949951,2.99665,-1
1298,1299,1583936471930,2.2947,4.8694,2.056,4.692185,14.143038,3.1277757,-1
1299,1300,1583936471941,2.2947,4.8694,2.056,4.6177444,13.522691,3.124299,-1
1300,1301,1583936471951,2.9113998,3.4178,1.65,5.278017500000001,12.816257,2.6037326000000003,-1
1301,1302,1583936471961,3.7972998999999996,2.8153,1.0656999,5.9368157,12.214623,2.1027987,-1
1302,1303,1583936471971,4.3631997,2.0561,0.6383,6.238332,11.478195,1.7141813999999997,-1
1303,1304,1583936471981,4.1809998,1.2188,0.6033,5.707116,10.660356,1.8035425999999999,-1
1304,1305,1583936471992,3.3981,0.2549,0.8756,4.5561370000000005,9.661610000000001,2.0311067,-1
1305,1306,1583936472002,1.8163999,-1.0307,0.8897,2.6284504,8.379275,2.0574334,-1
1306,1307,1583936472012,-0.1593,-2.3425,1.0799999,-0.038977604,6.8814144,2.331282,-1
1307,1308,1583936472022,-2.0849,-3.4831998,1.3253,-2.1518892999999997,5.843078,2.5286984,-1
1308,1309,1583936472032,-3.5286,-4.3742,1.4635999,-3.2419597999999996,5.1639669999999995,2.5432742000000004,-1
1309,1310,1583936472042,-3.5965,-4.9179,1.0518,-2.8839598,4.725599,1.6772340000000001,-1
1310,1311,1583936472053,-2.227,-5.2622,-0.48700000000000004,-0.9273988000000001,4.490727400000001,-0.2068303,-1
1311,1312,1583936472063,0.37489998,-5.1028,-2.1829,1.5461083999999998,4.7322063,-2.0098844,-1
1312,1313,1583936472073,2.1325998,-5.0277,-3.5688,2.649031,4.7704754000000005,-2.809385,-1
1313,1314,1583936472083,2.4627,-4.9873,-3.5226998,2.5892239,4.7581215,-2.3810048,-1
1314,1315,1583936472094,2.1114,-5.0804,-2.7127,1.9096824000000001,4.59386,-0.8538106,-1
1315,1316,1583936472104,1.4340998999999999,-5.2697,-1.1424,1.159081,4.3964343,0.66471654,-1
1316,1317,1583936472114,0.5074,-5.5283,0.6694,0.063963495,4.068074,2.3782468,-1
1317,1318,1583936472124,-0.626,-5.9473996,1.8354,-1.1196818000000002,3.6810565000000004,3.2001092,-1
1318,1319,1583936472134,-0.9949,-6.0771,1.8935,-0.7993952,3.6602172999999993,1.9719506999999998,-1
1319,1320,1583936472144,-0.17549999,-6.0632997,0.0323,0.10384132,3.8622400000000003,-0.2079891,-1
1320,1321,1583936472155,0.7567,-5.745899700000001,-1.8238,0.7016448000000001,4.1224419999999995,-1.503099,-1
1321,1322,1583936472165,1.2494999,-5.5141,-2.929,0.6971437,4.4012895,-2.2119071,-1
1322,1323,1583936472175,0.8947,-5.3078,-2.9069998,-0.16628209,4.466115,-1.6143528,-1
1323,1324,1583936472186,-0.0154,-5.2743998,-1.9046999,-1.2416426,4.608647,-0.1281281,-1
1324,1325,1583936472196,-0.8831,-5.013099700000001,-0.28959998,-1.9252638,4.92176,1.3819236000000001,-1
1325,1326,1583936472206,-1.3733,-4.7328,0.9666,-2.4088159,5.2316084,1.9359132,-1
1326,1327,1583936472216,-1.6141,-4.4755,1.0581,-2.3051565,5.399107,1.2568793,-1
1327,1328,1583936472226,-1.3848,-4.2988,0.2866,-1.426743,5.7820835,0.21446301,-1
