,Seq,Time,ACCx,ACCy,ACCz,ADGx,ADGy,ADGz,Keydown
0,1,1583936829351,-1.7449,-0.6597,0.7073,-0.68503857,9.619941,2.889447,-1
1,2,1583936829362,-1.7864,0.4418,1.1085,-1.8536388,9.620716999999999,-0.015437813,-1
2,3,1583936829372,0.003,-0.0145,0.0,-2.1439886,9.527592,0.07365522,-1
3,4,1583936829382,-0.049599998,-0.078999996,0.1255,-2.1287133999999996,9.481565,0.27445212,-1
4,5,1583936829392,0.037299998,-0.087,0.35099998,-1.8873012999999998,9.558535000000001,0.5724344,-1
5,6,1583936829402,0.2564,-0.0512,0.5387,-1.6913886000000002,9.638424,0.6261890999999999,-1
6,7,1583936829412,0.3858,0.048899997,0.5033,-1.4945852,9.617508,0.5068238,-1
7,8,1583936829423,0.5517,0.029199999,0.3179,-1.3549458,9.741344999999999,0.36438790000000004,-1
8,9,1583936829432,0.6015,0.15349999,0.1353,-1.1810213,9.797428,0.19582655,-1
9,10,1583936829442,0.70019996,0.1584,-0.032899998,-1.0694706,9.86368,0.11858003,-1
10,11,1583936829452,0.70489997,0.2297,-0.18699999,-1.0534678999999998,9.928745,0.028021736000000002,-1
11,12,1583936829462,0.5911,0.247,-0.19399999,-1.3366445,9.859188,0.11699027599999999,-1
12,13,1583936829472,0.1374,0.1299,-0.0589,-1.6996055,9.81503,0.2603072,-1
13,14,1583936829482,-0.1069,0.105399996,0.11229999,-1.8360271000000001,9.72972,0.55194014,-1
14,15,1583936829493,-0.23689999,0.0546,0.3931,-1.8059653999999998,9.723312,0.92625916,-1
15,16,1583936829503,-0.1837,0.0446,0.73249996,-1.7576697000000001,9.696297,0.99519306,-1
16,17,1583936829515,-0.1566,-0.0037,0.61439997,-1.9228599999999998,9.590875,0.94101703,-1
17,18,1583936829525,-0.3845,-0.109,0.5724,-2.1125863,9.530522,0.7026503000000001,-1
18,19,1583936829535,-0.4852,-0.1442,0.341,-1.90317,9.503964999999999,0.39803126,-1
19,20,1583936829546,-0.2629,-0.17009999,0.0158,-1.6024678999999997,9.576539,0.2077784,-1
20,21,1583936829556,0.035099998,-0.1007,-0.18159999,-1.4365593,9.685186999999999,-0.14857459,-1
21,22,1583936829566,0.36229998,0.0773,-0.4021,-1.2533263000000001,9.751756,-0.10425312,-1
22,23,1583936829576,0.4525,0.1795,-0.42249998,-1.1211089,9.871169,-0.15706922,-1
23,24,1583936829586,0.36139998,0.1358,-0.203,-1.2493231000000002,9.820594,0.11666465599999999,-1
24,25,1583936829597,0.0657,0.0451,0.0184,-1.4803540000000002,9.734824,0.24777114,-1
25,26,1583936829607,-0.3726,-0.0822,0.3958,-1.9652183,9.618198,0.6488957,-1
26,27,1583936829617,-0.48009998,-0.0709,0.5595,-2.054024,9.610038000000001,0.7472015999999999,-1
27,28,1583936829628,-0.47759998,-0.1278,0.4867,-2.0628347,9.558228,0.66997427,-1
28,29,1583936829638,-0.5049,-0.116299994,0.3195,-2.0569162,9.567757,0.46876553,-1
29,30,1583936829648,-0.2444,-0.1156,0.1565,-1.7457943999999999,9.585656,0.22499749,-1
30,31,1583936829658,-0.0308,-0.086899996,-0.030399999,-1.5188719,9.652674000000001,0.051092267000000004,-1
31,32,1583936829668,0.1853,0.0093,-0.1735,-1.3370563,9.682065,-0.08636365,-1
32,33,1583936829678,0.1862,-0.0806,-0.1407,-1.4550138000000001,9.575725,0.02207454,-1
33,34,1583936829688,-0.0678,-0.2179,0.0525,-1.7664421000000001,9.405842,0.22922087,-1
34,35,1583936829698,-0.3717,-0.40269998,0.2296,-2.0155635,9.193869,0.35905364,-1
35,36,1583936829708,-0.3717,-0.40269998,0.2296,-2.2126924999999997,8.999,0.43997768,-1
36,37,1583936829718,-0.6795,-0.7614,0.5014,-2.2454932,8.901947999999999,0.6351051,-1
37,38,1583936829728,-0.6216,-0.858,0.60319996,-2.2713602,8.757492,0.68978864,-1
38,39,1583936829739,-0.6157,-1.0333999,0.6308,-2.1966419999999998,8.612623,0.72584534,-1
39,40,1583936829749,-0.4845,-1.1602,0.6439,-2.1382425,8.492271,0.8324543,-1
40,41,1583936829759,-0.47039998,-1.2867,0.99469995,-2.11476,8.310753,1.2282925,-1
41,42,1583936829769,-0.493,-1.5597999,1.2156999,-2.1671836,8.014552,1.4656537,-1
42,43,1583936829779,-0.5909,-1.7831999,1.4568,-2.245972,7.7881656,1.7527758999999998,-1
43,44,1583936829790,-0.5696,-2.0555,1.6025,-2.2950435000000002,7.4595666,2.0011218,-1
44,45,1583936829800,-0.5785,-2.2691,1.8300999,-2.1626441,7.321229499999999,2.176023,-1
45,46,1583936829810,-0.4046,-2.4243999,2.0121,-2.0635624,7.1728271999999995,2.3093991000000003,-1
46,47,1583936829820,-0.4297,-2.6195,2.0990999,-2.123427,6.968084299999999,2.3457142999999996,-1
47,48,1583936829830,-0.3592,-2.8151999,2.0128999,-1.8663377,6.778416,2.1625867000000003,-1
48,49,1583936829840,-0.12539999,-2.9722,1.9004999,-1.6816586,6.564671499999999,2.2334552000000003,-1
49,50,1583936829851,0.058799997,-3.1685998,2.055,-1.6526408,6.381658,2.4130392000000005,-1
50,51,1583936829861,-0.068799995,-3.4139,2.2031999,-1.8396951000000001,6.1410029999999995,2.465702,-1
51,52,1583936829871,-0.3084,-3.7289,2.2036998,-2.09915,5.777984,2.4435415000000003,-1
52,53,1583936829881,-0.4913,-4.0148997,2.1799,-2.1927726,5.5210485,2.2629417999999997,-1
53,54,1583936829891,-0.46629998,-4.2043,1.9742998999999999,-1.8261055,5.413318599999999,1.9885665000000001,-1
54,55,1583936829902,0.046299997999999995,-4.2878,1.6836,-1.2951481000000002,5.4228572999999995,1.6615471999999998,-1
55,56,1583936829912,0.48799998,-4.2358,1.4139,-0.8521539,5.500506,1.3733908000000001,-1
56,57,1583936829922,1.1263,-4.1457,0.9877,0.052107405,5.582732,0.71059906,-1
57,58,1583936829932,1.7686,-4.1249,0.415,0.57160133,5.5236535,0.093220636,-1
58,59,1583936829943,2.0767999,-4.2507997,-0.1397,0.66047406,5.246874,-0.59853125,-1
59,60,1583936829952,1.9948,-4.5525,-0.6714,0.41557595,4.864539,-1.032897,-1
60,61,1583936829962,1.6384,-4.8931,-1.0191,0.045164224,4.759453,-1.032964,-1
61,62,1583936829972,1.1794,-5.0183,-0.8249,-0.20840089,4.713551,-0.4544195,-1
62,63,1583936829982,1.0138,-4.9877,-0.0605,0.24120146,4.941977,0.52475154,-1
63,64,1583936829992,1.5188,-4.7620997,0.615,1.0918709,5.1512876,0.6998539,-1
64,65,1583936830002,2.5279,-4.508,0.5487,2.0756674,5.3837075,0.22378124,-1
65,66,1583936830012,3.2444,-4.3223,-0.2017,2.7556016,5.592759,-0.98727304,-1
66,67,1583936830023,3.6065,-4.1258,-1.2149999,2.8624692000000005,5.8962197,-1.7827513,-1
67,68,1583936830033,3.5196998,-3.8592,-1.9490999,2.6794276000000004,6.1872300000000005,-2.271925,-1
68,69,1583936830043,3.1904,-3.5031,-2.3501,2.521506,6.6630635,-2.3304012000000003,-1
69,70,1583936830053,2.9199,-2.9399,-2.3522,2.0892856,7.1989527,-2.0934517,-1
70,71,1583936830064,2.4521,-2.6109998,-2.1413999,1.6585976000000002,7.3034353,-2.1666950000000003,-1
71,72,1583936830074,1.8036,-2.487,-2.3139,1.3087856000000002,7.333392,-2.8310285,-1
72,73,1583936830084,1.4365,-2.4503,-3.0763,1.5745707,7.498390700000001,-3.8629391,-1
73,74,1583936830094,1.7142998999999999,-2.2551,-4.1601,2.7705702999999997,8.106288000000001,-4.9218082,-1
74,75,1583936830104,2.5946999,-1.704,-5.0264,3.9407697,9.031972999999999,-5.127518,-1
75,76,1583936830114,3.5725,-0.7762,-5.3002996,5.1436934,9.817692999999998,-5.344203,-1
76,77,1583936830125,4.5783,0.0195,-5.5971,6.121667400000001,10.493172999999999,-5.5149574,-1
77,78,1583936830135,5.3589997,0.7127,-5.8592997,6.478681,10.926821,-4.945118,-1
78,79,1583936830145,5.5221995999999995,1.1653,-5.3968,5.7925987,11.130183,-4.1941440000000005,-1
79,80,1583936830155,3.3474998,1.4612,-4.4954,4.636735400000001,11.173575999999999,-3.8266141000000005,-1
80,81,1583936830165,3.3474998,1.4612,-4.4954,4.34267,11.45299,-3.7205703000000003,-1
81,82,1583936830175,2.8937,1.7653999,-4.4828997,4.881662,11.905312,-3.781517,-1
82,83,1583936830185,4.1724997,3.0665,-4.9056997,5.9824779999999995,12.663929,-3.9719519999999995,-1
83,84,1583936830196,4.8244,3.6125,-4.973,6.821186,13.169775,-3.9613313999999997,-1
84,85,1583936830206,4.8244,3.6125,-4.973,7.4260187,13.590773,-3.9538612,-1
85,86,1583936830216,4.9128,4.4108,-4.9014997000000005,7.2799916,13.863002999999999,-3.7460446000000003,-1
86,87,1583936830226,4.9128,4.4108,-4.9014997000000005,6.750423,14.081823000000002,-3.5249352,-1
87,88,1583936830236,3.4636,4.9094996,-4.6310997,6.081894999999999,14.3218565,-3.301403,-1
88,89,1583936830246,3.1444,5.2805,-4.4669,6.074195,14.636215,-3.0892575,-1
89,90,1583936830256,3.7315,5.7244997,-4.3643,6.770371400000001,14.952488,-2.9644432000000003,-1
90,91,1583936830266,4.5195,6.132999999999999,-3.8679,7.72266,15.296861999999999,-2.4215433999999996,-1
91,92,1583936830276,5.0652,6.5032997,-3.3497,8.527313000000001,15.622855,-1.78889,-1
92,93,1583936830286,5.1903,6.665,-3.0637,8.776856,15.746014,-1.4574368,-1
93,94,1583936830296,5.1727,6.861000000000001,-2.7538,8.826789999999999,15.847029999999998,-1.1517738000000002,-1
94,95,1583936830307,4.8487,7.0204997,-2.5075,8.573856,15.979016,-0.9857982,-1
95,96,1583936830317,4.2581997000000005,7.1716,-2.2753,8.125892,16.044226000000002,-0.7828082,-1
96,97,1583936830327,4.2581997000000005,7.1716,-2.2753,7.864397,15.951896,-0.5624170999999999,-1
97,98,1583936830337,3.8542,7.041599799999999,-1.6744,8.0040655,15.811845000000002,-0.22811954,-1
98,99,1583936830347,3.9705,6.7914,-1.1982,8.137432,15.525747,0.24011928,-1
99,100,1583936830358,3.9329,6.4979,-0.7388,8.150609,15.272776,0.55464077,-1
100,101,1583936830368,3.8576998999999996,6.3582,-0.3613,8.125719,15.075904999999999,0.9852619,-1
101,102,1583936830378,3.8219,6.3048,0.0964,8.112455,15.073645,1.6132132,-1
102,103,1583936830388,3.9329998,6.3771,0.9461,8.520418,15.141314499999998,2.6773974999999997,-1
103,104,1583936830399,4.5936,6.496299700000001,2.109,9.176496499999999,15.209598000000002,3.839524,-1
104,105,1583936830409,5.0253,6.4143996,3.2124,9.334322,15.006521,4.9895926,-1
105,106,1583936830419,4.7156997,6.0985,4.2465997,8.809887,14.661823000000002,5.9345365,-1
106,107,1583936830429,4.1454997,5.7146,4.8868,8.152094,14.272832000000001,6.619891,-1
107,108,1583936830440,3.5660000000000003,5.3317,5.5754,7.530425,13.92801,7.4417634,-1
108,109,1583936830450,3.0521,4.9602,6.2839,6.921512599999999,13.614054000000001,8.062953,-1
109,110,1583936830460,2.5428,4.5608,6.6452,6.412246700000001,13.181057999999998,8.523817,-1
110,111,1583936830470,2.3111,4.0954,7.2584,5.9426193,12.692257000000001,9.296963,-1
111,112,1583936830480,1.9345,3.6627998,7.7991,5.527197,12.347684,9.638366,-1
112,113,1583936830490,1.814,3.2342,7.9946,5.4200225,12.019199,9.658487,-1
113,114,1583936830501,1.8598,2.7712998,7.7685,5.344787,11.5653925,9.212726,-1
114,115,1583936830511,1.9454,2.3629,7.4716997,5.2170706,11.226383,8.906267,-1
115,116,1583936830521,1.8873999,1.9210999,7.1306996,4.7559569999999995,10.793722,8.468665,-1
116,117,1583936830531,1.4613999,1.3787999,6.8192,4.019194000000001,10.305688,8.128228,-1
117,118,1583936830541,0.8919,0.8163,6.4747996,3.3030120000000003,9.842966,7.5914965,-1
118,119,1583936830552,0.47779998,0.3048,5.9301,2.7936025,9.413111,6.851803299999999,-1
119,120,1583936830561,0.20369999,-0.19219999,5.2202997,2.291433,8.927921000000001,6.037162,-1
120,121,1583936830571,-0.1489,-0.7514,4.4934998,1.7760667,8.458159,5.366048,-1
121,122,1583936830582,-0.3287,-1.2436,3.9552,1.4958972,7.956765700000001,4.8614073,-1
122,123,1583936830592,-0.3487,-1.7365999,3.6387,1.3824408000000001,7.6306367,4.6709629999999995,-1
123,124,1583936830602,-0.2093,-2.1134,3.4246,1.4534718999999998,7.150044,4.2831693,-1
124,125,1583936830612,0.030499997999999997,-2.5609,2.9814,1.3176633,6.762241,3.6561854,-1
125,126,1583936830622,0.020299999,-2.9722998,2.3114,1.0648451,6.388142,3.3242152000000003,-1
126,127,1583936830633,-0.053799997999999995,-3.3478,2.0544,1.0081984,6.159591000000001,3.4807193,-1
127,128,1583936830643,0.0905,-3.57,2.2236,0.9330779,5.923255,4.1532316,-1
128,129,1583936830653,0.12019999,-3.8163,2.8542,0.58588034,5.6913524,4.867393,-1
129,130,1583936830663,-0.0596,-4.0095,3.3927998999999995,0.27798596,5.3588366999999995,5.2659984,-1
130,131,1583936830674,-0.2723,-4.3669,3.6820998,-0.12698846,5.114197,5.394883,-1
131,132,1583936830684,-0.49069998,-4.6256,3.6622999,-0.36621709999999996,4.9238669999999995,5.17025,-1
132,133,1583936830694,-0.5514,-4.7479,3.3687,-0.5241099,4.8585343,4.5879129999999995,-1
133,134,1583936830705,-0.55399996,-4.7931,2.8206,-0.5904196999999999,4.847473,4.0417,-1
134,135,1583936830715,-0.2276,-4.6128,1.5231999,-0.40761763,5.0441427,3.313508,-1
135,136,1583936830725,0.19839999,-4.455899700000001,1.2013999,-0.07807971,5.192774299999999,2.978253,-1
136,137,1583936830736,0.3541,-4.2414,1.0667,0.017563865,5.412485,2.813206,-1
137,138,1583936830745,0.3541,-4.2414,1.0667,-0.02846227,5.51535,2.7601316000000002,-1
138,139,1583936830755,0.4098,-4.1362,1.0128,-0.250558,5.6075172,2.5807578999999996,-1
139,140,1583936830765,0.1998,-3.8035997999999998,0.95019996,-0.40711963,5.864434200000001,2.556136,-1
140,141,1583936830775,0.020399999,-3.6448998,0.75659996,-0.66393125,6.030994000000001,2.2743957000000004,-1
141,142,1583936830786,-0.24069999,-3.5068998,0.39159998,-1.065123,6.208213,1.6729054,-1
142,143,1583936830796,-0.41939998,-3.4285,-0.29389998,-1.2517174,6.2682977,1.0233583,-1
143,144,1583936830806,-0.546,-3.2617998,-0.88339996,-1.431522,6.441466,0.30929255,-1
144,145,1583936830816,-0.5726,-3.1532,-1.3622,-1.5254416000000002,6.604099300000001,-0.40402633,-1
145,146,1583936830826,-0.4504,-2.9356,-1.7347,-1.4280263000000002,6.8045993000000005,-0.91586834,-1
146,147,1583936830836,-0.5215,-2.8441,-2.2898998,-1.5346162,6.8765491999999995,-1.4636426000000002,-1
147,148,1583936830847,-0.64879996,-2.7019,-2.7498999,-1.7008599999999998,7.0971417,-2.0800824,-1
148,149,1583936830857,-0.5017,-2.48,-2.8955998,-1.5689683,7.257649000000001,-2.2435777000000003,-1
149,150,1583936830867,-0.2269,-2.2668998,-2.7293,-1.2834741000000003,7.553304,-2.0389788,-1
150,151,1583936830877,-0.1942,-1.9452,-2.1124,-1.3035183000000001,7.8255539999999995,-1.4383597,-1
151,152,1583936830887,-0.313,-1.8094,-1.6072999,-1.39717,7.9513929999999995,-1.0268731,-1
152,153,1583936830897,-0.1815,-1.6248,-1.4705,-1.174624,8.151003,-0.9806267,-1
153,154,1583936830908,0.22989999,-1.4308,-1.5589,-0.740766,8.398793,-1.0888447,-1
154,155,1583936830917,0.4161,-1.1877999,-1.5962,-0.5877478,8.587111,-1.1535169,-1
155,156,1583936830927,0.6257,-1.0620999,-1.7480999,-0.41585368,8.696565,-1.3496306,-1
156,157,1583936830937,0.6257,-1.0620999,-1.7480999,-0.48309243,8.742599499999999,-1.449919,-1
157,158,1583936830947,0.297,-1.0346,-1.9188,-0.8176007,8.717394,-1.528286,-1
158,159,1583936830957,-0.0175,-1.015,-1.9317,-1.1251886,8.736748,-1.564199,-1
159,160,1583936830969,-0.2534,-1.0639,-1.7126,-1.4514513,8.685684,-1.1822663999999998,-1
160,161,1583936830979,-0.5603,-1.0638,-1.2333,-1.7746493000000003,8.702157000000001,-0.8394071,-1
161,162,1583936830989,-0.7346,-1.0346999,-1.2074,-1.7428639,8.731147,-1.0263752,-1
162,163,1583936830999,-0.55439997,-0.9475,-1.546,-1.5027351,8.85055,-1.380602,-1
163,164,1583936831010,-0.26459998,-0.82189995,-1.7622,-1.1736472,9.002477,-1.537518,-1
164,165,1583936831020,0.1171,-0.6083,-1.8391998999999999,-0.8069417,9.233641,-1.5530516,-1
165,166,1583936831030,0.3888,-0.4143,-1.7974,-0.5245025999999999,9.421586,-1.3783514,-1
166,167,1583936831040,0.46559998,-0.318,-1.5768,-0.6433506999999999,9.421854,-0.9884127,-1
167,168,1583936831050,0.1635,-0.3583,-1.0670998999999999,-1.0483921999999999,9.374918,-0.31663796,-1
168,169,1583936831060,-0.1655,-0.3787,-0.4211,-1.172728,9.388163,0.18403749,-1
169,170,1583936831070,-0.1635,-0.3602,-0.0734,-0.9559664000000001,9.461876,0.36573824,-1
170,171,1583936831080,0.1586,-0.2346,-0.0491,-0.667513,9.579460000000001,0.2692902,-1
171,172,1583936831090,0.39159998,-0.12889999,-0.24929999,-0.31763393,9.733187,-0.02369302,-1
172,173,1583936831100,0.71389997,0.0352,-0.4886,-0.0010917560000000001,9.860481,-0.38969943,-1
173,174,1583936831110,0.91169995,0.12109999,-0.8868,0.1282143,9.921992999999999,-0.7844171,-1
174,175,1583936831121,0.89919996,0.18779999,-1.1452,-0.09812396,9.934127,-0.8562144,-1
175,176,1583936831130,0.579,0.1375,-1.0733,-0.44083956,9.892631,-0.7085305000000001,-1
176,177,1583936831140,0.1742,0.0682,-0.81049997,-0.7837563,9.840427,-0.49559978,-1
177,178,1583936831150,-0.0451,0.0381,-0.7096,-0.9434591,9.7918825,-0.48963338,-1
178,179,1583936831160,-0.11229999,0.0372,-0.7513,-0.87663215,9.859878,-0.58255714,-1
179,180,1583936831170,0.0403,0.124299996,-0.85969996,-0.59106135,9.979215,-0.6332663000000001,-1
180,181,1583936831181,0.2866,0.23099999,-0.8311,-0.43387723,10.053434,-0.44874045,-1
181,182,1583936831191,0.375,0.3084,-0.5771,-0.31639853,10.115607,-0.10828496,d
182,183,1583936831201,0.5322,0.3567,-0.29009998,-0.11328405,10.159815,0.19009961,-1
183,184,1583936831212,0.6738,0.3954,-0.0857,-0.019306842,10.174965,0.39243838,-1
184,185,1583936831222,0.7035,0.3854,0.056599997,-0.041841067,10.1477375,0.53571695,-1
185,186,1583936831232,0.67249995,0.35599998,0.1819,-0.059730545,10.164765,0.6626767,-1
186,187,1583936831242,0.6649,0.41489998,0.2927,-0.08019618,10.184628,0.7408905,-1
187,188,1583936831252,0.5923,0.3955,0.34989998,-0.19626707,10.163185,0.790326,-1
188,189,1583936831263,0.43559998,0.3468,0.39229998,-0.44748586,10.074447,0.78914803,-1
189,190,1583936831273,0.22289999,0.2588,0.3621,-0.6320118,9.945284,0.6956305,-1
190,191,1583936831283,0.0605,0.14119999,0.25869998,-0.67092234,9.949383000000001,0.61931294,-1
191,192,1583936831293,0.053999998,0.1705,0.20899999,-0.56998277,10.039061,0.59915376,-1
192,193,1583936831303,0.1635,0.278,0.20199999,-0.51228255,10.136149000000001,0.59376204,-1
193,194,1583936831313,0.2233,0.3755,0.19749999,-0.5260636,10.190163,0.58537275,-1
194,195,1583936831324,0.1857,0.4044,0.21509999,-0.64676005,10.121325500000001,0.4920755,-1
195,196,1583936831333,0.021599998999999998,0.3353,0.116799995,-0.7584831,10.076553,0.37279636,-1
196,197,1583936831343,-0.0244,0.29549998,0.0324,-0.59327364,10.095889,0.22343647,-1
197,198,1583936831353,0.18069999,0.3048,-0.1188,-0.3923618,10.10062,0.10200257,-1
198,199,1583936831363,0.3552,0.3335,-0.19909999,-0.3351691,10.122321000000001,0.036937742999999995,-1
199,200,1583936831373,0.38299999999999995,0.33299999999999996,-0.2619,-0.35558683,10.122369,-0.028787881,-1
200,201,1583936831384,0.33399999999999996,0.3326,-0.24919999,-0.35763627,10.0570545,0.10976936,-1
201,202,1583936831395,0.3658,0.26389998,-0.1218,-0.44828075,9.994873,0.21536323,-1
202,203,1583936831405,0.28219998,0.2052,-0.024799999,-0.64026695,9.8972,0.22554338,-1
203,204,1583936831415,0.0931,0.107499994,-0.0063,-0.7237863,9.804772999999999,0.12265016,-1
204,205,1583936831425,0.012,0.0195,-0.104899995,-0.64077455,9.752312,-0.013972561000000001,-1
205,206,1583936831435,0.1056,-0.029199999,-0.204,-0.62669665,9.759694999999999,-0.024104822,-1
206,207,1583936831446,0.103999995,0.0103,-0.0178,-0.65069616,9.795742,0.18395129999999998,-1
207,208,1583936831456,0.103999995,0.0103,-0.0178,-0.6631268,9.769885,0.21299776,-1
208,209,1583936831466,0.089099996,-0.0089,0.0144,-0.5637579,9.758134,0.15700217,-1
209,210,1583936831476,0.19899999999999998,-0.0376,-0.093399994,-0.5729420000000001,9.742141,0.10032663,-1
210,211,1583936831486,0.1295,-0.0664,0.0117999995,-0.6830179,9.706094,0.21663694,-1
211,212,1583936831496,-0.124,-0.1637,0.0692,-0.9677650999999999,9.605202,0.23988943,-1
212,213,1583936831506,-0.124,-0.1637,0.0692,-1.0563505,9.545786999999999,0.17275602,-1
213,214,1583936831516,-0.2601,-0.24149999,0.010199999,-0.9283181999999999,9.552731,0.044340614,-1
214,215,1583936831526,-0.0122,-0.1329,-0.1938,-0.8151778000000001,9.6505,-0.07573339,-1
215,216,1583936831536,-0.0558,-0.103199996,-0.1348,-0.87182456,9.677363,-0.02456451,-1
216,217,1583936831546,-0.1568,-0.1125,-0.0277,-0.98277193,9.668898,0.109252214,-1
217,218,1583936831557,-0.1795,-0.1415,-0.086899996,-1.0215579,9.627908,-0.008973468,-1
218,219,1583936831567,-0.1437,-0.1803,-0.2529,-0.9652559000000001,9.599197,-0.21363941,-1
219,220,1583936831577,-0.14739999,-0.1995,-0.4003,-1.0206865,9.580542,-0.32653078,-1
220,221,1583936831587,-0.37559998,-0.23809999,-0.1979,-1.3481367,9.507566,0.029400798,-1
221,222,1583936831598,-0.6041,-0.2866,0.12879999,-1.4960504,9.484276,0.24915978,-1
222,223,1583936831608,-0.66969997,-0.306,0.2889,-1.5132983999999998,9.477294,0.37160882,-1
223,224,1583936831618,-0.4957,-0.2572,0.1559,-1.2443815,9.555105000000001,0.14330734,-1
224,225,1583936831628,-0.2386,-0.1892,-0.0457,-0.96697015,9.637580999999999,-0.026412832,-1
225,226,1583936831638,0.0446,-0.1117,-0.14119999,-0.6357564,9.716016,-0.136345,-1
226,227,1583936831649,0.0446,-0.1117,-0.14119999,-0.37995982,9.833236,-0.12951674,-1
227,228,1583936831659,0.65749997,0.1607,-0.1301,-0.08870038400000001,9.996243,-0.07344454,-1
228,229,1583936831669,0.6895,0.18949999,-0.1016,-0.19693746,9.973967,-0.0035434184,-1
229,230,1583936831680,0.3942,0.14039999,0.0244,-0.5577532,9.896471,0.18137513,-1
230,231,1583936831690,0.0252,0.0328,0.23969999,-0.90810156,9.772931,0.37181953,-1
231,232,1583936831700,-0.2251,-0.035299998,0.3399,-1.030359,9.740551,0.33464235,-1
232,233,1583936831710,-0.1837,-0.0254,0.1802,-0.88781786,9.802810000000001,0.06906793,-1
233,234,1583936831720,-0.0084,0.0332,-0.0778,-0.74652165,9.839172999999999,-0.17403929999999998,-1
234,235,1583936831731,0.10669999599999999,0.042799998,-0.24669999,-0.6669384,9.850579,-0.21446301,-1
235,236,1583936831740,0.1346,0.0819,-0.2121,-0.64206743,9.875977,-0.13442965,-1
236,237,1583936831750,0.19389999,0.0819,-0.0822,-0.64766985,9.877088,-0.00026815060000000003,-1
237,238,1583936831760,0.1281,0.0919,0.0063,-0.7667574,9.868822999999999,0.10738473400000001,-1
238,239,1583936831770,-0.023599999,0.0335,0.113699995,-0.9943215,9.758221,0.23868276,-1
239,240,1583936831780,-0.243,-0.044299997,0.2408,-1.1136677,9.751871000000001,0.3044467,-1
240,241,1583936831790,-0.2681,-0.014599998999999999,0.25169998,-1.0425886,9.757186,0.24779029,-1
241,242,1583936831800,-0.100499995,-0.0145,0.1574,-0.850612,9.784317,0.10974063,-1
242,243,1583936831810,-0.022499999,0.005,0.026099999,-0.89480895,9.766705499999999,0.019938912,-1
243,244,1583936831820,-0.091,-0.0145,-0.0154,-0.96011317,9.753748,-0.013244724,-1
244,245,1583936831831,-0.1293,-0.0243,-0.0078,-0.968196,9.75869,0.0046160207,d
245,246,1583936831840,-0.0787,0.015,-0.0004,-0.9082452,9.795224000000001,0.005391742,-1
246,247,1583936831850,-0.14469999,-0.014099998999999998,0.0064,-1.0573658000000001,9.72724,-0.01367568,-1
247,248,1583936831860,-0.2394,-0.08249999599999999,0.0123,-1.0584958,9.704964,0.028060043,-1
248,249,1583936831870,-0.1681,-0.0626,0.0184,-0.925608,9.727134,-0.02195004,-1
249,250,1583936831881,-0.049599998,-0.033099998,-0.005,-0.8808939,9.73086,-0.09065405,-1
250,251,1583936831892,-0.0791,-0.0625,-0.088599995,-0.89584327,9.719042,-0.18724573,-1
251,252,1583936831902,-0.0514,-0.033299997000000005,-0.13509999,-0.8586469000000001,9.75325,-0.12803233,-1
252,253,1583936831912,-0.015,-0.0139,-0.0761,-0.89642745,9.758115,-0.079171464,-1
253,254,1583936831922,-0.0766,-0.0337,-0.0284,-0.93741614,9.736739,0.006071695,-1
254,255,1583936831932,-0.0982,-0.0437,0.0481,-0.90301627,9.6813,0.069958575,-1
255,256,1583936831942,-0.060599997999999995,-0.102699995,0.0959,-0.86754376,9.65707,0.09824846,-1
256,257,1583936831952,-0.003,-0.1616,0.1157,-0.84595764,9.681911999999999,0.15515386,-1
257,258,1583936831962,-0.0233,-0.06359999599999999,0.2259,-0.8502289000000001,9.748289,0.23307075,-1
258,259,1583936831972,-0.0042,-0.0244,0.22109999,-0.7991749,9.86254,0.037253775,-1
259,260,1583936831982,0.044000000000000004,0.0931,0.0429,-0.7104459,9.89581,-0.2117049,-1
260,261,1583936831992,0.1121,0.122499995,-0.192,-0.7462248,9.904488,-0.34464052,-1
261,262,1583936832002,0.0639,0.1325,-0.28039998,-0.8743719999999999,9.916257,-0.35461003,-1
262,263,1583936832012,-0.061499998,0.122899994,-0.2728,-0.938891,9.907063,-0.32982522,-1
263,264,1583936832022,-0.0696,0.16229999,-0.22829999,-0.861089,9.948175,-0.25829604,-1
264,265,1583936832032,-0.0198,0.1722,-0.1468,-0.8054861,9.983294,-0.18515798,-1
265,266,1583936832042,0.0199,0.22129999,-0.096099995,-0.8687888,9.997161,-0.1530661,-1
266,267,1583936832053,-0.0379,0.2214,-0.0359,-0.91516924,10.006566000000001,-0.009002198000000001,-1
267,268,1583936832062,-0.0757,0.2215,0.093499996,-0.9264315999999999,10.003827000000001,0.090567864,-1
268,269,1583936832072,-0.0748,0.2314,0.1458,-0.81312835,10.039625,0.021404164,-1
269,270,1583936832082,0.1109,0.2805,0.0534,-0.5698488,10.098550999999999,-0.14528973,-1
270,271,1583936832092,0.3545,0.3491,-0.085999995,-0.32948047,10.194098,-0.2801695,-1
271,272,1583936832102,0.5305,0.4276,-0.18609999,-0.25952187,10.204125999999999,-0.33230564,-1
272,273,1583936832113,0.56259996,0.4279,-0.2188,-0.36640862,10.201061,-0.32833123,-1
273,274,1583936832123,0.40299999999999997,0.3795,-0.175,-0.613021,10.100218,-0.18755218,-1
274,275,1583936832133,0.1981,0.3118,-0.0252,-0.75448954,10.02413,-0.04163038,-1
275,276,1583936832143,0.0928,0.2443,0.1136,-0.8188649,9.98385,-0.054357957,-1
276,277,1583936832153,0.0563,0.1964,0.0761,-0.8686738000000002,9.916209,-0.09605537,-1
277,278,1583936832164,0.0093,0.118999995,0.0382,-0.8774749,9.865653,-0.112786055,-1
278,279,1583936832173,0.03,0.0906,0.0094,-0.78654313,9.862675,-0.16951905,-1
279,280,1583936832183,0.1475,0.0914,-0.059000000000000004,-0.7036366999999999,9.831301,-0.24236025,-1
280,281,1583936832193,0.21609999,0.0335,-0.1086,-0.7515783,9.701419999999999,-0.19067423,-1
281,282,1583936832204,0.1683,-0.0929,-0.0422,-0.85115784,9.581307,-0.14428416,-1
282,283,1583936832214,0.1068,-0.1894,-0.0179,-0.875052,9.489428,-0.08683291,-1
283,284,1583936832224,0.0845,-0.2868,0.038,-0.9749476999999999,9.330089,0.039619252,-1
284,285,1583936832235,-0.0007,-0.43269998,0.1408,-1.1380788999999998,9.170050999999999,0.14110467,-1
285,286,1583936832245,-0.25959998,-0.695,0.2819,-1.2581338,9.072224,0.1868435,-1
286,287,1583936832256,-0.2685,-0.8312,0.3121,-1.274424,8.931761,0.21260512,-1
287,288,1583936832266,-0.26909998,-0.9675,0.22839999,-1.2902354,8.79466,0.13286862,-1
288,289,1583936832276,-0.271,-1.0842999,0.1192,-1.2855715,8.6489,-0.04205176,-1
289,290,1583936832286,-0.2733,-1.2304,-0.0367,-1.3180368,8.496045,-0.20028934,-1
290,291,1583936832297,-0.35439998,-1.4060999,-0.124,-1.4114777,8.312227,-0.28331068,-1
291,292,1583936832307,-0.49519998,-1.6112,-0.1445,-1.5690353000000001,8.105704,-0.30175559999999996,-1
292,293,1583936832317,-0.677,-1.8362,-0.1091,-1.7307013999999998,7.924136999999999,-0.2736285,-1
293,294,1583936832327,-0.85249996,-2.0224,0.011000000000000001,-1.8973186000000002,7.733358,-0.15435898,-1
294,295,1583936832337,-0.7492,-2.1797,0.060799997,-1.7641243999999998,7.54548,-0.10118854,-1
295,296,1583936832347,-0.7492,-2.1797,0.060799997,-1.6690744999999998,7.424323599999999,-0.056934115,-1
296,297,1583936832358,-0.61289996,-2.4957,0.1399,-1.6288711999999999,7.1894426,-0.038125265,-1
297,298,1583936832368,-0.5487,-2.7031,0.1127,-1.4905438,6.9504056,-0.10803596,-1
298,299,1583936832378,-0.36789998,-2.9988,-0.058799997,-1.2510086,6.664768,-0.30727184,-1
299,300,1583936832388,-0.0683,-3.2746,-0.19899999999999998,-0.8713841,6.3654447,-0.42106348,-1
300,301,1583936832398,0.4215,-3.5795,-0.2311,-0.36361220000000005,6.050722,-0.38493976,-1
301,302,1583936832408,0.6552,-4.0013,0.0095999995,-0.48072696,5.5136456,0.01958457,-1
302,303,1583936832418,0.1169,-4.6082,0.47419998,-1.0955867,4.942446,0.46132436,-1
303,304,1583936832428,-0.3849,-5.067199700000001,0.8613,-1.5972006,4.647135700000001,0.80096585,-1
304,305,1583936832439,-0.9669,-5.1633997,1.1445999,-2.1781778,4.584331,1.0249481,-1
305,306,1583936832449,-1.2924,-5.1819,1.2760999,-2.2438076000000002,4.6320524,1.0538318000000002,-1
306,307,1583936832459,-0.9554,-5.0449,1.1665,-1.7322145,4.7739134000000005,0.85868526,-1
307,308,1583936832469,-0.4165,-4.9778,0.97099996,-1.220995,4.771107700000001,0.6118621999999999,-1
308,309,1583936832479,-0.0232,-5.0389,0.7449,-0.71806896,4.605112999999999,0.39028359999999995,-1
309,310,1583936832489,0.4152,-5.1984,0.66359997,-0.39581900000000003,4.508712999999999,0.42370665,-1
310,311,1583936832499,0.5783,-5.4168,0.8542,-0.37656003,4.2816753,0.62619865,-1
311,312,1583936832509,0.24219999,-5.4291,1.1606,-0.68963546,4.40966,0.95739335,-1
312,313,1583936832519,0.0398,-5.1768,1.6137999,-0.84646523,4.7208586,1.4023126000000001,-1
313,314,1583936832529,-0.1025,-4.7387,1.9325,-0.79713506,5.3863406,1.8091544999999998,-1
314,315,1583936832539,0.008599999,-4.2029,2.2556998999999998,-0.69062185,5.7886915,1.8814689999999998,-1
315,316,1583936832549,0.022499999,-3.8632,2.1359,-0.6009829000000001,6.0316453,1.6437153000000002,-1
316,317,1583936832559,0.059000000000000004,-3.6111998999999995,1.8199999,-0.53987336,6.2831035,1.2860118999999999,-1
317,318,1583936832569,-0.0861,-3.3681997999999997,1.4347,-0.7068354,6.434149,0.7300015999999999,-1
318,319,1583936832579,-0.2872,-3.3302998999999995,0.733,-0.5922106,6.5370707999999995,-0.16327497,-1
319,320,1583936832590,-0.0212,-3.0467,0.0299,-0.022304382,7.05282,-0.810083,-1
320,321,1583936832600,0.50229996,-2.5277998,-0.3337,0.63633096,7.500507400000001,-1.1142998,-1
321,322,1583936832610,1.1958,-1.8815,-0.6107,1.3898342,8.216594,-1.2625678999999999,-1
322,323,1583936832620,1.6625999,-1.2056,-0.5108,1.8558128,8.940659,-0.90519977,-1
323,324,1583936832630,1.5862,-0.6565,-0.1304,1.5951321000000003,9.319852000000001,-0.5355063,-1
324,325,1583936832640,1.079,-0.39049998,0.1459,1.2977722,9.576797000000001,-0.26498067,-1
325,326,1583936832651,0.81579995,-0.1028,0.2871,1.4522749,9.879214,-0.21119733,-1
326,327,1583936832661,0.9392,0.21679999,0.248,1.7900870999999998,10.227273,-0.24381591,-1
327,328,1583936832671,1.1739,0.6083,0.107,2.2844992000000004,10.697934,-0.24935132,-1
328,329,1583936832681,1.4907,1.2091,0.1077,2.700238,11.340241,-0.27557259999999995,-1
329,330,1583936832691,1.8138,1.8623999,-0.1708,3.3409076,12.06622,-0.5557612,-1
330,331,1583936832701,2.2839,2.5976,-0.4035,3.7720647000000005,12.636913,-0.5815229000000001,-1
331,332,1583936832712,2.2888,3.1046,-0.5139,3.7492433,13.000505,-0.5260826999999999,-1
332,333,1583936832722,2.1318998,3.4761,-0.4112,3.684054,13.444802,-0.29480284,-1
333,334,1583936832732,1.8979,3.8332,-0.326,3.4867334000000003,13.625268,-0.3605572,-1
334,335,1583936832742,1.5048,4.0438,-0.504,3.3153756000000003,13.717923999999998,-0.7860164000000001,-1
335,336,1583936832752,1.3281,4.1386,-0.9597,3.5901055,13.970972,-0.8269764000000001,-1
336,337,1583936832763,1.5382999,4.4526,-0.9727,4.1105184999999995,14.228893,-0.7197832,-1
337,338,1583936832773,1.9778999,4.7219996,-0.96849996,4.9338940000000004,14.424701,-0.56327903,-1
338,339,1583936832783,2.6423,4.9656997,-0.8531,5.4487147,14.567243,-0.203239,-1
339,340,1583936832793,2.9413,5.0836,-0.6193,5.465541,14.41908,0.06552451,-1
340,341,1583936832804,2.7858,4.955,-0.5003,5.3860345,14.207806,0.05739380400000001,-1
341,342,1583936832814,2.6188998,4.812999700000001,-0.6428,5.1490279999999995,14.043344,-0.0972812,-1
342,343,1583936832824,2.1857,4.5976,-0.90459996,4.5001416,13.638282,-0.32619563,-1
343,344,1583936832834,1.4448999,4.2202997,-1.1127,3.86156,13.338011999999999,-0.12327266,-1
344,345,1583936832844,0.8113,3.9878998,-0.94509995,3.5608387,13.071833999999999,0.29809725,-1
345,346,1583936832855,0.5424,3.7759,-0.64699996,3.5205586,12.903885,0.9886234,-1
346,347,1583936832865,0.44939998,3.6351,-0.0393,3.7210970000000003,12.784883500000001,1.5217834,-1
347,348,1583936832875,0.5683,3.3692,1.0062,3.7533326000000002,12.574836,2.2143302000000005,-1
348,349,1583936832885,0.5683,3.3692,1.0062,3.3467684,12.330857,2.7593653,-1
349,350,1583936832895,-0.0046,3.1137,1.4180000000000001,3.2644365,12.279382,2.739982,-1
350,351,1583936832906,-0.0046,3.1137,1.4180000000000001,3.7377703,12.338567,2.6091723,-1
351,352,1583936832916,0.7575,3.089,0.93869996,4.1199136,12.218328999999999,2.2768955,-1
352,353,1583936832926,0.99399996,2.9036,0.4517,4.3920097,12.024199000000001,1.7622856,-1
353,354,1583936832936,0.88699996,2.5760999,0.0149,4.2520065,11.5940075,1.1592149999999999,-1
354,355,1583936832946,0.6026,2.2345,-0.384,3.9694045,11.211146000000001,0.73087317,-1
355,356,1583936832956,0.4416,1.9394,-0.7003,3.9049525000000003,11.055839,0.4890109,-1
356,357,1583936832967,0.6163,1.8204999,-0.9209999999999999,4.092926,10.896194,0.19557755,-1
357,358,1583936832977,0.3927,1.6132,-0.9253,3.8291233,10.680716,0.22237346,-1
358,359,1583936832987,0.21229999,1.4059,-0.8619,3.6695163,10.489763,0.21194431,-1
359,360,1583936832997,-0.0339,1.1297,-0.81509995,3.3361763999999994,10.144607,0.2999839,-1
360,361,1583936833008,-0.22049999,0.8436,-0.76049995,3.2629712000000004,9.87497,0.20150559,-1
361,362,1583936833018,-0.2127,0.6762,-0.95309997,3.3109608,9.759504,0.05384081,-1
362,363,1583936833028,-0.0316,0.648,-1.0245,3.5821373,9.763104,0.0123540815,-1
363,364,1583936833038,0.1362,0.64169997,-0.86969995,3.6102552000000006,9.7417,0.26114038,-1
364,365,1583936833048,-0.048899997,0.6174,-0.28779998,3.3938672999999997,9.702703,1.0477697,-1
365,366,1583936833058,-0.2439,0.58489996,0.3204,3.2729695,9.683579,1.403845,-1
366,367,1583936833068,-0.4102,0.5336,0.8278,3.142246,9.602779,2.0556808,-1
367,368,1583936833079,-0.2454,0.541,0.92209995,3.4708360000000003,9.66568,2.0168276,-1
368,369,1583936833088,0.1043,0.5864,0.7563,3.7015412000000003,9.664827,1.8579197,-1
369,370,1583936833098,0.3775,0.5607,0.45729998,4.023207,9.648145,1.5064796,-1
370,371,1583936833108,0.7216,0.5722,0.0506,4.341971400000001,9.648316000000001,1.1105456,-1
371,372,1583936833118,0.9420000000000001,0.5916,-0.2645,4.620732299999999,9.6564,0.72785646,-1
372,373,1583936833128,1.0981,0.5801,-0.5122,4.6048827,9.607194,0.5096298,-1
373,374,1583936833138,0.83769995,0.42999998,-0.6101,4.309821599999999,9.478644000000001,0.47814125,-1
374,375,1583936833148,0.3354,0.25059998,-0.5323,3.751781,9.281429,0.6005520000000001,-1
375,376,1583936833159,-0.030399999,0.1219,-0.3775,3.4321650000000004,9.165875999999999,0.7997783,-1
376,377,1583936833169,-0.18419999,0.0451,-0.2541,3.3989525,9.095937,0.91683555,d
377,378,1583936833179,-0.0677,0.0005999999700000001,-0.1301,3.6008315000000004,9.081935000000001,1.1141753,-1
378,379,1583936833189,0.1924,0.027099999,0.0947,3.8039172,9.10083,1.4736408,-1
379,380,1583936833199,0.25599998,0.024799999,0.5728,3.9352437999999994,9.123584,2.0396012999999997,-1
380,381,1583936833210,0.4285,0.1025,0.8717,4.0179877,9.157793,2.2300456000000004,-1
381,382,1583936833220,0.38939998,0.0559,1.0207,3.8349843,9.085708,2.3415293999999998,-1
382,383,1583936833230,0.1489,0.0074,1.0144,3.6162019999999995,9.036733,2.2779775,-1
383,384,1583936833240,-0.108399995,-0.014599998999999999,0.83519995,3.3835626000000003,9.054105,2.0603542,-1
384,385,1583936833250,-0.2482,-0.0284,0.5782,3.2726536,9.049594,1.7611651000000001,-1
385,386,1583936833260,-0.3209,-0.0030999999,0.26729998,3.195407,9.074465,1.4086238000000002,-1
386,387,1583936833271,-0.3372,0.0037,0.024,3.2429748,9.0956,1.1899182,-1
387,388,1583936833282,-0.21959999,0.0517,-0.1643,3.4368958,9.1574,1.0511886000000001,-1
388,389,1583936833292,-0.036399997999999996,0.1112,-0.22919999,3.5865047,9.216595,1.0647494,-1
389,390,1583936833302,0.0959,0.1718,-0.19849999,3.7855394,9.303658,1.0785303999999998,-1
390,391,1583936833312,0.2473,0.2523,-0.19849999,3.9073083,9.378021,1.0736176000000002,-1
391,392,1583936833322,0.4197,0.34239998,-0.2193,3.9851391000000005,9.447481,1.0326575,-1
392,393,1583936833332,0.34019998,0.392,-0.22039999,3.7415817000000002,9.448085,1.0853012,-1
393,394,1583936833342,0.106599994,0.39139998,-0.19129999,3.5933712,9.489714999999999,1.0752168,-1
394,395,1583936833352,0.030199998999999998,0.4298,-0.20089999,3.5522578,9.530379,1.1493796,-1
395,396,1583936833363,0.0016,0.47849998,-0.113199994,3.5224263999999996,9.577611,1.265393,-1
396,397,1583936833372,-0.0579,0.5087,0.0112,3.4691792,9.622546,1.4269729,-1
397,398,1583936833382,-0.0699,0.57919997,0.1513,3.5250788,9.678972,1.4920186000000002,-1
398,399,1583936833392,-0.005,0.6702,0.2498,3.5564620000000002,9.7819605,1.6616621999999999,-1
399,400,1583936833403,0.0004,0.7515,0.3597,3.6438407999999995,9.91233,1.6590861000000001,-1
400,401,1583936833413,0.11229999,0.8915,0.32709998,3.815869,10.108425,1.530843,-1
401,402,1583936833424,0.275,1.1085,0.1823,4.010288,10.393556,1.3015934,-1
402,403,1583936833435,0.4272,1.3449999,-0.0084,3.9264907999999994,10.600788,1.2315677,-1
403,404,1583936833445,0.3454,1.5516,-0.063,3.7505553,10.781646,1.3396611999999999,-1
404,405,1583936833455,0.15689999,1.729,0.0349,3.5318305,10.907005999999999,1.5948352,-1
405,406,1583936833465,-0.2324,2.0767,0.65029997,3.3705955000000003,11.1237,1.95409,-1
406,407,1583936833475,-0.0626,2.4133,0.7841,3.5384483,11.461618,2.1011515,-1
407,408,1583936833486,0.2038,2.779,0.85609996,3.8148348,11.814159,2.1679497000000003,-1
408,409,1583936833496,0.3351,3.1037998,0.90379995,3.9539955,12.141935,2.2096663,-1
409,410,1583936833506,0.5209,3.4556,0.8254,4.143511,12.574519,2.0960567,-1
410,411,1583936833516,0.3606,3.7654998,0.7366,3.9019358,12.867589,1.9962758000000003,-1
411,412,1583936833526,0.049399998,4.1025,0.6677,3.5909195,13.226585,1.9300331000000002,-1
412,413,1583936833537,-0.015099999499999999,4.4386997,0.718,3.5864375,13.566754000000001,1.9993403000000003,-1
413,414,1583936833547,0.23279999,4.775,0.82,3.9429053999999994,13.994645000000002,2.0771616,-1
414,415,1583936833558,0.6175,5.1503997,0.7881,4.2802677000000005,14.2823515,1.9987754,-1
415,416,1583936833568,1.1215998999999999,5.5246,0.7804,4.755651,14.662906,1.9965153000000002,-1
416,417,1583936833578,1.5230000000000001,5.7885,0.88439995,5.1518334999999995,14.930606,2.0911725,-1
417,418,1583936833588,2.0597,6.0488,1.0620999,5.697788200000001,15.242417000000001,2.284442,-1
418,419,1583936833598,2.4012,6.1966996,1.1774,6.039900299999999,15.408287,2.1692902999999997,-1
419,420,1583936833608,2.8938,6.4075,0.7899,6.4361315,15.610128,1.6651386000000001,-1
420,421,1583936833619,3.1475,6.406399700000001,0.4096,6.4768042999999995,15.579281,1.3476003,-1
421,422,1583936833629,3.1248,6.2718,0.23009999,6.314506,15.384364000000001,1.1683705,-1
422,423,1583936833639,3.0597,5.9564,0.23629999,6.1437325,15.049626000000002,1.1763766000000002,-1
423,424,1583936833649,2.8422,5.4621997,0.45949998,5.623663400000001,14.546403,1.4852957,-1
424,425,1583936833659,2.2937,4.8592,0.9453,4.9665413,13.97055,2.0102675,-1
425,426,1583936833669,1.8604,4.1882,1.5412999,4.541015,13.443126999999999,2.453645,-1
426,427,1583936833679,1.4190999,3.4401998999999996,2.0609999,3.7630146,12.562596000000001,2.9458450000000003,-1
427,428,1583936833689,0.89659995,2.6748998,2.2663,3.247505,11.805014,2.938356,-1
428,429,1583936833699,1.0328,1.9228,1.9546,3.8799187999999996,11.225214999999999,2.3564117,-1
429,430,1583936833709,2.5146,1.5019,1.1863999,5.2187753,10.892698,1.3706614,-1
430,431,1583936833720,3.6076998999999996,1.095,0.2101,5.8935094,10.334908,0.3409822,-1
431,432,1583936833730,3.7098,0.44529998,-0.2768,5.390411,9.714291000000001,0.19916886,-1
432,433,1583936833740,2.9303,-0.44099998,-0.1733,4.0655746,8.697148,0.39339605,-1
433,434,1583936833750,1.8797,-1.2873,0.0981,3.0447254,8.039394,0.62365127,-1
434,435,1583936833760,0.73319995,-2.1598,0.44799998,1.4818958999999998,7.019914,0.8940906999999999,-1
435,436,1583936833770,-0.39319998,-3.0275998,0.54069996,0.25034732,6.208461799999999,0.7883244,-1
436,437,1583936833781,-1.3537999,-3.8406,0.4333,-0.3861752,5.470157,0.6015862,-1
437,438,1583936833791,-1.2852,-4.490999700000001,0.1165,0.78408194,5.200579599999999,0.0641646,-1
438,439,1583936833801,0.57559997,-4.4792,-0.4879,2.4178276000000003,5.3349705,-0.36440706,-1
439,440,1583936833811,2.2364,-4.405999700000001,-0.8951,3.5580997,5.2817620000000005,-0.49247772,-1
440,441,1583936833821,2.6824,-4.5580997000000005,-0.70239997,3.4223769999999996,5.0750947,0.19048268,-1
441,442,1583936833831,2.3253,-4.8285,0.06399999599999999,2.579762,4.7499814,1.123934,-1
442,443,1583936833841,1.4001,-5.1489997,0.9526,1.4035097,4.486753,1.9250339,-1
443,444,1583936833851,0.3888,-5.3429,1.6369999999999998,0.3927257,4.3445377,2.4575232999999996,-1
444,445,1583936833861,-0.4344,-5.5274997,1.9472,-0.41796058,4.1854190000000004,2.2821147,-1
445,446,1583936833871,-1.0390999,-5.6823,1.5878999,-1.2608249,3.9813466,1.4039981000000001,-1
446,447,1583936833881,-1.7062998999999999,-5.9340997,0.46339998,-1.3179983999999998,3.8888924,-0.124019645,-1
447,448,1583936833891,-1.0789,-5.7427998,-0.90809995,-0.29336634,4.3614025000000005,-1.3093218999999998,-1
448,449,1583936833901,0.0918,-5.2847,-1.7311,0.4584992,4.6963987000000005,-1.7670166,-1
449,450,1583936833912,0.40899998,-4.9914,-1.6976999,-0.05864836599999999,4.878387,-1.3878038000000001,-1
450,451,1583936833922,-0.32529998,-4.9028,-1.0777999,-0.988451,4.9119253,-0.76221806,-1
451,452,1583936833932,-1.1272,-4.8915,-0.5119,-1.7052749,4.9701138,-0.41626546,-1
452,453,1583936833942,-1.6538999,-4.7521,-0.1757,-2.076606,5.2123876,-0.29909328,-1
453,454,1583936833952,-1.7864,-4.4456997000000005,-0.192,-1.9820542,5.6188845999999995,-0.61432344,-1
454,455,1583936833962,-1.4591999,-4.0315,-0.5308,-1.3573496,6.1805935,-1.0899267,-1
455,456,1583936833972,-0.8854,-3.5295,-0.86219996,-0.9919082,6.5027,-1.3567367000000001,-1
456,457,1583936833982,-0.5187,-3.1453998,-1.1015999,-0.77174693,6.879087400000001,-1.6488676,-1
457,458,1583936833992,-0.39119998,-2.8106,-1.3887,-0.70562875,7.189385400000001,-1.8757613000000002,-1
458,459,1583936834002,-0.214,-2.4663,-1.4891,-0.52345866,7.5406246,-1.7320038,-1
459,460,1583936834012,-0.18079999,-2.2202,-1.2261,-0.6678099000000001,7.6636,-1.3620614,-1
460,461,1583936834022,-0.4463,-2.0723999,-0.67719996,-1.1247288999999998,7.827976700000001,-0.65309036,-1
461,462,1583936834032,-0.78779995,-1.954,-0.132,-1.2104318,7.9452257,-0.45410344,-1
462,463,1583936834042,-0.7609999999999999,-1.7572999,0.0018,-0.9649303,8.244702,-0.5706435999999999,-1
463,464,1583936834052,-0.40919998,-1.4432,-0.2841,-0.38698920000000003,8.634784,-1.008409,-1
464,465,1583936834062,0.11199999599999999,-1.0705,-0.5715,-0.031411927,8.978524,-1.0745177,-1
465,466,1583936834072,0.4353,-0.7374,-0.57989997,0.24434265,9.224639,-0.91191316,-1
466,467,1583936834083,0.6638,-0.4829,-0.3391,0.3118783,9.394914,-0.5349316999999999,-1
467,468,1583936834093,0.5554,-0.37539998,0.1134,-0.19195752,9.365188999999999,-0.008762779,-1
468,469,1583936834103,0.0822,-0.44419998,0.4877,-0.58868635,9.329180000000001,0.23970747,-1
469,470,1583936834113,-0.251,-0.45369998,0.6908,-0.66595197,9.396485,0.29071355,-1
470,471,1583936834123,-0.2729,-0.3845,0.7062,-0.6474304,9.5169325,-0.08300218,-1
471,472,1583936834133,-0.2391,-0.266,0.2512,-0.63368773,9.636422999999999,-0.58039284,d
472,473,1583936834144,-0.2762,-0.10789999,-0.2853,-0.8233084999999999,9.766753,-1.0633607,-1
473,474,1583936834154,-0.4412,0.0011,-0.6052,-0.8479591999999999,9.894038,-1.3064392,-1
474,475,1583936834164,-0.4209,0.11009999,-0.7906,-0.7690176,9.950685499999999,-1.4111521,-1
475,476,1583936834174,-0.37109998,0.16,-0.8639,-0.7972979,9.853864999999999,-1.5152903,-1
476,477,1583936834184,-0.4473,0.0232,-0.95369995,-1.2330426,9.660508,-1.2762532,-1
477,478,1583936834195,-0.8954,-0.1531,-0.6203,-1.4102997,9.599877000000001,-0.6985418999999999,-1
478,479,1583936834205,-1.0045998999999999,-0.1927,-0.1461,-1.0931255,9.642819,-0.60716957,-1
479,480,1583936834215,-0.7037,-0.1546,-0.0692,-0.7118057,9.738281,-0.718318,-1
480,481,1583936834225,-0.33069998,-0.0572,-0.19129999,-0.44312840000000003,9.781291,-0.8618167999999999,-1
481,482,1583936834235,-0.0743,-0.0092,-0.3256,-0.07692091,9.829663,-1.008658,-1
482,483,1583936834246,0.4804,0.0084999995,-0.5049,0.16396451,9.799602,-1.0211270000000001,-1
483,484,1583936834257,0.45139998,-0.080299996,-0.3849,0.14659218,9.711112,-0.8929606,-1
484,485,1583936834267,0.36949998,-0.1593,-0.0976,0.031000124,9.609579,-0.53573614,-1
485,486,1583936834277,0.1644,-0.23779999,0.1539,-0.21729775,9.553296000000001,-0.3307063,-1
486,487,1583936834287,-0.0782,-0.28669998,0.107,-0.44568542,9.518925,-0.42679995,-1
487,488,1583936834298,-0.14649999,-0.2471,-0.1607,-0.45489833,9.560775999999999,-0.7514633000000001,-1
488,489,1583936834308,0.094299994,-0.1488,-0.5654,-0.103697665,9.692397999999999,-1.1937969,-1
489,490,1583936834318,0.3121,-0.0704,-0.7191,0.053764194,9.743328,-1.1892383,-1
490,491,1583936834328,0.32439998,-0.0611,-0.5471,0.012756307,9.739459,-0.92973554,-1
491,492,1583936834338,0.2118,-0.0815,-0.2356,-0.17908628,9.675525,-0.58988345,-1
492,493,1583936834349,-0.1138,-0.1313,0.121599995,-0.5645432,9.640875999999999,-0.23440191,-1
493,494,1583936834359,-0.4682,-0.16139999,0.34289998,-0.8721119,9.616752,-0.16170438,-1
494,495,1583936834370,-0.6002,-0.1227,0.22639999,-0.85475874,9.719377,-0.33896148,-1
495,496,1583936834380,-0.41459998,-0.035,-0.0128,-0.5621776999999999,9.820727999999999,-0.5322981,-1
496,497,1583936834390,-0.1655,0.0625,-0.0734,-0.3190226,9.906604,-0.5185074000000001,-1
497,498,1583936834400,0.0914,0.1796,-0.0656,-0.071749434,10.05378,-0.62509733,-1
498,499,1583936834410,0.1732,0.26749998,-0.2821,-0.13496594,10.081561,-0.8879710999999999,-1
499,500,1583936834421,0.0525,0.3163,-0.5747,-0.15994224,10.179476,-1.2458277,-1
500,501,1583936834430,0.092,0.41439998,-0.93289995,-0.0035146879999999998,10.305506,-1.5293393999999998,-1
501,502,1583936834440,0.34939998,0.62049997,-1.1913999,0.24763706,10.513648,-1.6759028000000002,-1
502,503,1583936834450,0.34939998,0.62049997,-1.1913999,0.31417674,10.64826,-1.6270037,-1
503,504,1583936834460,0.61329997,0.9249,-1.1579,0.62041426,10.798644,-1.7128215,-1
504,505,1583936834471,0.9224,1.0526999,-1.298,0.9900310999999999,10.947563,-1.9594817,-1
505,506,1583936834481,1.2968998999999999,1.2002,-1.6011,1.3630574,11.078124,-2.31956,-1
506,507,1583936834491,1.6703,1.3377999,-1.9239,1.749989,11.2334795,-2.5880362999999997,-1
507,508,1583936834501,2.0935,1.4755,-2.1796,2.2308884,11.331891,-2.8416874,-1
508,509,1583936834511,2.4712,1.5738,-2.3391,2.3673868,11.376106,-2.911627,-1
509,510,1583936834521,2.4642,1.5741,-2.3734999,2.187812,11.323587,-2.9168081000000003,-1
510,511,1583936834531,2.2884,1.4961,-2.3983,2.144017,11.284495,-2.9930587,-1
511,512,1583936834541,2.3825998,1.4869,-2.4891,2.3662565,11.260381,-3.118017,-1
512,513,1583936834551,2.6483,1.4487,-2.6736,2.5792255,11.208675,-3.3082887999999997,-1
513,514,1583936834562,2.8336,1.3816998999999999,-2.8323,2.6428156000000005,11.123844,-3.587711,-1
514,515,1583936834572,2.9115,1.286,-3.1325,2.612543,10.961508,-3.9774873,-1
515,516,1583936834582,2.8344,1.0831,-3.5089,2.2455122000000003,10.671311,-4.32956,-1
516,517,1583936834592,2.5344,0.82189995,-3.7322998,1.7681179,10.318338,-4.466019599999999,-1
517,518,1583936834602,2.0877,0.4434,-3.827,1.1951663000000001,9.887488000000001,-4.38815,-1
518,519,1583936834613,1.6178,0.035499997,-3.6890998,0.8355476999999999,9.604177,-4.2395277,-1
519,520,1583936834623,1.3054999,-0.34309998,-3.5173,0.51906294,9.171842,-3.923886,-1
520,521,1583936834633,1.1665,-0.6439,-3.2431997999999997,0.45018652,8.957561,-3.6816692000000004,-1
521,522,1583936834643,1.1798999,-0.8667,-3.1195998,0.52037495,8.698394,-3.6787677000000003,-1
522,523,1583936834653,1.3804,-1.1183,-3.1825,0.70231515,8.367763499999999,-3.6326935,-1
523,524,1583936834664,1.6708,-1.4785999,-3.2214,0.6805183000000001,7.808822599999999,-3.2751148,-1
524,525,1583936834674,1.5669,-2.0825999,-2.7524998,-0.04218583,6.894104,-2.3411462000000003,-1
525,526,1583936834684,1.0196,-2.8616,-2.0391,-0.7577265000000001,6.1388865,-1.5704527,-1
526,527,1583936834694,0.2034,-3.7661998,-1.1439999,-1.5336299,5.421785,-0.6533968000000001,-1
527,528,1583936834705,-0.41579998,-4.4632,-0.42069998,-2.1014867,4.624841,-0.20133321,-1
528,529,1583936834715,-0.7682,-5.1080000000000005,-0.14729999,-2.5734506,3.9375614999999997,0.0034476504999999998,-1
529,530,1583936834725,-1.1791999,-5.7764997000000005,0.0064999997,-2.9451935000000002,3.4319732000000003,0.29165208,-1
530,531,1583936834735,-1.5792999,-6.6622,0.8134,-3.0827357999999996,3.0398796000000003,0.9070193999999999,-1
531,532,1583936834746,-1.5792999,-6.6622,0.8134,-3.0074906,2.812986,1.5537508,-1
532,533,1583936834756,-1.2293,-7.1754,2.1318,-2.7605815,2.5231726,2.2967386000000003,-1
533,534,1583936834766,-0.98209995,-7.4017,2.6429,-2.4563265,2.2540642999999996,2.9093478,-1
534,535,1583936834776,-0.6999,-7.4733,2.8397,-2.1573672000000004,2.2369504,3.061073,-1
535,536,1583936834787,-0.479,-7.4488997,2.7526999,-1.8746599,2.2574832000000002,2.9357797999999997,-1
536,537,1583936834797,-0.19039999,-7.279,2.5549,-1.5761604,2.4892228,2.7668352,-1
537,538,1583936834807,-0.16579999,-7.0122,2.7115998,-1.5745132,2.779496,3.0235798,-1
538,539,1583936834817,-0.3931,-6.696799799999999,3.2573,-1.7064433,3.1056051,3.6064434000000003,-1
539,540,1583936834828,-0.3441,-6.3329,3.8771,-1.5514331000000001,3.5370690000000002,4.368728599999999,-1
540,541,1583936834838,-0.31309998,-5.94,4.7876,-1.4673393,3.9242114999999997,5.2847695,-1
541,542,1583936834848,-0.3575,-5.5471997,5.4613,-1.4114393,4.414362000000001,5.901123,-1
542,543,1583936834858,-0.3694,-5.0269,5.8999996,-1.3449668,4.9327354,6.389234,-1
543,544,1583936834868,-0.34919998,-4.4965,6.4275,-1.1126717,5.549826599999999,6.954140700000001,-1
544,545,1583936834880,-0.1121,-3.7698,7.1326,-0.75600266,6.3068919999999995,7.696727,-1
545,546,1583936834890,0.1855,-2.964,7.6924996,-0.083117105,7.3500648,8.237223,-1
546,547,1583936834900,0.77,-2.0888,8.1577,0.7163547,8.24065,8.806229,-1
547,548,1583936834910,1.429,-1.232,8.7274,1.2421502,8.882114999999999,9.238525,-1
548,549,1583936834921,1.8758999,-0.48189998,9.2556,1.7908821,9.61589,9.7971115,-1
549,550,1583936834931,1.9612,-0.1034,9.6368,1.6137878,9.780477000000001,9.825880999999999,-1
550,551,1583936834942,1.5417999,0.0308,9.5067,1.0971861,9.985401,8.867922,-1
551,552,1583936834952,0.9657,0.1765,8.5503,0.18975486,10.0514145,7.0045724,-1
552,553,1583936834962,-0.0808,0.2658,6.6907,-0.6585108000000001,10.375244,5.233878,-1
553,554,1583936834972,-0.84029996,0.66179997,5.1801,-0.010448296999999999,11.03706,4.126674700000001,-1
554,555,1583936834983,-0.0339,1.4034,4.3568,1.614209,12.009967,4.0550976,-1
555,556,1583936834993,1.4892,2.4023,4.4722,3.3302099999999997,12.738389,4.4648223,-1
556,557,1583936835004,2.9749,3.0505998,4.964299700000001,4.7595005,13.197663,5.170365,-1
557,558,1583936835014,4.1681,3.5047,5.7776,5.637416,13.475209,6.5376167,-1
558,559,1583936835024,4.6793,3.7243,6.9846997,5.2364926,13.547169,7.404097599999999,-1
559,560,1583936835034,4.1684,3.7965998999999995,7.8946,4.2085567,13.664102,7.420368700000001,-1
560,561,1583936835044,3.0498,3.9278,7.9672,3.3394422999999995,13.722434,6.009274,-1
561,562,1583936835054,2.0943,4.0017,6.644,3.5817928,13.892519,3.7878091,-1
562,563,1583936835065,2.2594,4.1967998,4.5129,4.414812,14.066797,1.2848436,-1
563,564,1583936835074,2.9828,4.3859997,2.1146,5.173314599999999,14.064354999999999,-0.59687454,-1
564,565,1583936835084,3.8184,4.4308,-0.023899998999999998,6.0397186,14.204205499999999,-2.0849667000000003,-1
565,566,1583936835094,4.5579,4.593,-1.2602999,6.764855000000001,14.414579000000002,-2.7345805,-1
566,567,1583936835105,5.1106997000000005,4.8698997,-1.7098999,6.7022038,14.528916,-2.5894152999999998,-1
567,568,1583936835115,3.9522998,4.7908998,-1.3211,5.827449,14.373954000000001,-2.4162955000000004,-1
568,569,1583936835126,3.0623,4.5642,-1.7763,4.9856763,14.133385,-2.8760779999999997,-1
569,570,1583936835136,2.8028998,4.4937997,-2.6859999,4.776892,14.049828,-3.974758,-1
570,571,1583936835146,2.7904,4.432699700000001,-3.6276,4.7671046,13.949251,-4.8691554,-1
571,572,1583936835156,2.6950998,4.2819,-4.3082,4.743785400000001,13.812916,-5.4848669999999995,-1
572,573,1583936835167,2.7151,4.1878,-4.8486,4.7812395,13.697161,-6.00438,-1
573,574,1583936835177,2.7345998,4.0323,-5.3852,4.8312883,13.535226999999999,-6.508417,-1
574,575,1583936835187,2.6583997999999998,3.6977,-5.9623,4.7221704,13.171145000000001,-7.0509434,-1
575,576,1583936835197,2.3123999,3.2914999,-6.526799700000001,4.2870097000000005,12.753817,-7.5948677,-1
576,577,1583936835207,2.3123999,3.2914999,-6.526799700000001,3.6094123999999996,12.307576,-8.260523,-1
577,578,1583936835218,1.1522,2.4336998,-7.7391996,3.0454533,11.893752000000001,-8.80936,-1
578,579,1583936835228,0.82589996,2.0614,-8.2027,2.785893,11.481797,-9.086445,-1
579,580,1583936835238,0.83519995,1.7768999,-8.0054,2.9176126,11.273952,-8.560315,-1
580,581,1583936835248,1.1208,1.5517,-7.3894,3.3261304,11.106271000000001,-7.791374,-1
581,582,1583936835258,1.6868,1.4749,-6.6632,3.7732236000000006,11.068691000000001,-7.1170135,-1
582,583,1583936835269,2.1873999,1.3989999,-6.004699700000001,4.302716,10.965569,-6.391752200000001,-1
583,584,1583936835279,2.5319998,1.2544,-5.9161997,4.6040114999999995,10.781617,-6.497011,-1
584,585,1583936835289,2.8037999,1.0303999,-6.2797,4.6518865,10.566857,-6.9427156000000005,-1
585,586,1583936835299,2.536,0.7163,-6.8016996,4.086337,10.133372,-7.504022,-1
586,587,1583936835309,1.7376,0.1752,-7.2742996,3.14827,9.611130000000001,-7.9904757,-1
587,588,1583936835319,1.0181,-0.35599998,-7.7788997,2.4820402,9.117752000000001,-8.661197999999999,-1
588,589,1583936835330,0.5142,-0.7683,-8.3987,1.928654,8.719434,-9.259039,-1
589,590,1583936835340,0.0826,-1.1791999,-8.705,1.4440674999999998,8.361558,-9.449378,-1
590,591,1583936835350,-0.21100000000000002,-1.5399,-8.6459,1.1128154,7.994546000000001,-9.209085,-1
591,592,1583936835360,-0.32619998,-1.7457,-8.2149,1.0197097,7.8229774999999995,-8.614011999999999,-1
592,593,1583936835370,-0.3764,-1.926,-7.566,1.0231861,7.688317999999999,-7.9720216,-1
593,594,1583936835380,-0.1215,-2.03,-6.9845996,1.4906875,7.644686,-7.4325886,-1
594,595,1583936835391,0.3543,-2.0744,-6.4519997,1.829419,7.577648599999999,-6.891067999999999,-1
595,596,1583936835401,0.67469996,-2.1773,-5.9158998,1.9331455000000002,7.448601200000001,-6.2774243,-1
596,597,1583936835411,0.70409995,-2.3293998,-5.2599,1.8388523,7.253665,-5.683222,-1
597,598,1583936835421,0.54899997,-2.56,-4.6909,1.5014517,7.046174000000001,-5.017557,-1
598,599,1583936835431,0.2446,-2.7607,-3.9654,1.2929933999999998,6.9100684999999995,-4.324436,-1
599,600,1583936835441,0.2366,-2.8134,-3.3011,1.3888477,6.9326982,-3.8238466,-1
600,601,1583936835451,0.3645,-2.7375998,-2.6985997999999998,1.4881208000000001,7.106527000000001,-3.0617912,-1
601,602,1583936835462,0.4623,-2.553,-2.0798,1.5811212,7.359613400000001,-2.3471127,-1
602,603,1583936835472,0.541,-2.3184,-1.4906,1.6306524,7.5988607,-1.96925,-1
603,604,1583936835482,0.49409997,-2.0335,-1.1528,1.5185655,7.906602,-1.8270249,-1
604,605,1583936835492,0.45009997,-1.7671,-1.0936999,1.6988009999999998,8.129081,-1.7798015999999999,-1
605,606,1583936835502,0.7507,-1.4211,-1.0218999,2.084047,8.664032,-1.5499582,-1
606,607,1583936835512,0.9266,-0.986,-0.70699996,1.9615311999999998,9.056977,-0.7876349,-1
607,608,1583936835522,0.7274,-0.5902,0.122499995,1.6803466,9.340164,-0.10198341,-1
608,609,1583936835533,0.3312,-0.24319999,0.89379996,1.3377362,9.858787,0.57997143,-1
609,610,1583936835543,0.0808,0.2519,1.3416,1.3930997999999999,10.30337,0.53434753,-1
610,611,1583936835553,0.1687,0.6899,1.2141,1.8197081999999998,10.650893,0.27365726,-1
611,612,1583936835563,0.6117,1.0023999,0.9856,2.51192,10.877749,0.15099752,-1
612,613,1583936835573,1.3009,1.2276,0.98679996,3.2449956,11.023047,0.40656418,-1
613,614,1583936835583,2.1102,1.4333,1.3729999,4.045875,11.253342,0.93055916,-1
614,615,1583936835593,2.6708,1.6085999,1.8138,4.737818700000001,11.320724499999999,1.5885049,-1
615,616,1583936835604,3.2721999,1.6745,2.4569,5.1983866999999995,11.349817999999999,2.5752322999999997,-1
616,617,1583936835614,3.5584,1.6992999,3.2319999,5.1979456,11.295469,3.2564877999999995,-1
617,618,1583936835624,3.4851,1.6142,4.0098,4.722821,11.090114999999999,4.0661974,-1
618,619,1583936835635,3.0137,1.439,4.5999,4.361498,10.845485,4.491733,-1
619,620,1583936835645,2.3155,0.9677,5.0747,4.054178,10.618696,4.6725626,-1
620,621,1583936835655,2.3155,0.9677,5.0747,3.7259428999999997,10.390308000000001,4.605094,-1
621,622,1583936835665,1.3765,0.35709998,4.8715,3.1236384,10.012245,4.569516,-1
622,623,1583936835675,1.3765,0.35709998,4.8715,2.8299847000000002,9.806439,4.680540000000001,-1
623,624,1583936835686,0.6920000000000001,-0.0775,5.1403,2.339815,9.543403999999999,4.994400499999999,-1
624,625,1583936835696,0.17539999,-0.24569999,5.2969,1.8413327000000002,9.378518,5.1684012,-1
625,626,1583936835706,0.17539999,-0.24569999,5.2969,1.6615186000000002,9.30495,5.0248550000000005,-1
626,627,1583936835716,0.0704,-0.2667,4.638999999999999,1.8769487,9.40475,4.4117765,-1
627,628,1583936835726,0.255,-0.22729999,3.8576,1.9989095000000001,9.44255,3.800393,-1
628,629,1583936835737,0.3418,-0.1487,3.2092,2.0991595000000003,9.520869,3.0214827,-1
629,630,1583936835748,0.37989998,-0.17799999,2.5037,2.11748,9.467822,2.3358787999999997,-1
630,631,1583936835758,0.3102,-0.2366,2.1092,2.0558913,9.416557000000001,2.0809252000000003,-1
631,632,1583936835768,0.24949999,-0.2854,2.1601999,1.978779,9.353954,2.1708705000000004,-1
632,633,1583936835778,0.1193,-0.34379998,2.3044999,1.8577185,9.310342,2.3666685000000003,-1
633,634,1583936835789,0.1353,-0.2647,2.4466,1.9046928,9.406886,2.5053022,-1
634,635,1583936835799,0.2004,-0.2051,2.4933,2.0044831999999997,9.482044,2.5097267999999997,-1
635,636,1583936835809,0.2086,-0.1753,2.3332,1.8895422,9.505181,2.3025613,-1
636,637,1583936835819,0.0050999997,-0.1463,2.0597,1.6851061999999999,9.505317,1.9485544999999997,-1
637,638,1583936835829,-0.185,-0.1867,1.5473,1.5004462,9.478147,1.359332,-1
638,639,1583936835840,-0.2359,-0.1882,0.99979997,1.5332085,9.478778,0.7509939999999999,-1
639,640,1583936835850,-0.1873,-0.1997,0.3414,1.4546691,9.425502999999999,-0.022380996,-1
640,641,1583936835860,-0.3821,-0.2701,-0.0846,1.1037749,9.352777,-0.21906945,-1
641,642,1583936835870,-0.79219997,-0.3407,-0.1021,0.7647271999999999,9.291887,-0.17159723,-1
642,643,1583936835880,-1.0691,-0.36159998,-0.0082,0.6703286,9.315446000000001,-0.07195055,-1
643,644,1583936835890,-0.8839,-0.2634,0.0033,0.98060757,9.498842,-0.10702081,-1
644,645,1583936835900,-0.6293,-0.1048,0.0137,1.2188497999999999,9.646037,-0.014020445,-1
645,646,1583936835910,-0.3997,0.0448,0.1328,1.4461169,9.732565,0.21249019,-1
646,647,1583936835920,-0.1422,0.1557,0.41349998,1.6577259999999998,9.828974,0.5734209,-1
647,648,1583936835930,-0.059699997000000005,0.23699999,0.74439996,1.6900095000000002,9.913786,0.9652559000000001,-1
648,649,1583936835940,-0.12979999,0.2588,1.0045998999999999,1.5543061000000002,9.927711,1.1954536,-1
649,650,1583936835951,-0.332,0.26,1.1586,1.3074161,9.862003999999999,1.2442474,-1
650,651,1583936835961,-0.5306,0.21139999,1.138,1.2129504999999998,9.848003,1.1281383,-1
651,652,1583936835971,-0.59139997,0.20189999,0.97959995,1.2277753,9.905875,0.9310763000000001,-1
652,653,1583936835981,-0.4579,0.31039998,0.6793,1.4978126,10.043082,0.57713664,-1
653,654,1583936835991,-0.1902,0.4587,0.478,1.7984095000000002,10.200936,0.48474923,-1
654,655,1583936836001,0.0946,0.5977,0.4113,2.0717506,10.315522999999999,0.40502232,-1
655,656,1583936836012,0.3005,0.6878,0.3897,2.2295191,10.4317665,0.43101376,d
656,657,1583936836022,0.46809998,0.81689996,0.44309998,2.3406866,10.497856,0.52823746,-1
657,658,1583936836032,0.4919,0.85719997,0.55399996,2.2224991000000003,10.505403,0.6901430000000001,-1
658,659,1583936836042,0.2947,0.8574,0.7048,2.0512083,10.510009,0.7287088,-1
659,660,1583936836053,0.2085,0.8767,0.7116,2.0047321,10.56046,0.6582235,-1
660,661,1583936836063,0.1531,0.9741,0.6234,1.9397535,10.770843,0.52444506,-1
661,662,1583936836073,0.1365,1.1599,0.5058,2.0570886,11.056117,0.31081527,-1
662,663,1583936836083,0.2747,1.4930999,0.295,2.2641392000000002,11.437025,0.28321490000000005,-1
663,664,1583936836094,0.47919998,1.8659999,0.33699998,2.2855911,11.81822,0.7074196,-1
664,665,1583936836104,0.45769998,2.1801999,0.69479996,2.1534312,12.002756,1.2544563,-1
665,666,1583936836114,0.2796,2.3865,1.3586999,1.9150167000000002,12.262134,2.170775,-1
666,667,1583936836124,0.0828,2.6224,2.0599,1.6118915,12.522623,2.7590015,-1
667,668,1583936836134,-0.2105,2.8779,2.6025999,1.4993927,12.787307,3.0211856,-1
668,669,1583936836144,-0.3252,3.1431,2.8095,1.7058016,13.02575,2.8961987000000002,-1
669,670,1583936836156,0.41709998,3.6141998999999996,2.4445,2.2402162999999997,13.261807999999998,2.7288918,-1
670,671,1583936836166,1.1178,3.7124998999999996,2.4473,3.0447352000000003,13.362048999999999,2.8132923,-1
671,672,1583936836176,1.5182999,3.7419998999999997,2.8337998,3.387211,13.403106,3.3135464,-1
672,673,1583936836186,1.7881999,3.7609,3.3497,3.5726660000000003,13.398067000000001,3.7686745999999998,-1
673,674,1583936836197,1.8513998999999999,3.6804,3.7380998,3.624735,13.335464000000002,4.265931,-1
674,675,1583936836207,1.8513998999999999,3.6804,3.7380998,3.541149,13.3343725,4.3198967,-1
675,676,1583936836217,1.7119,3.5528998,3.6450998999999995,3.4052154999999997,13.214048000000002,4.189939,-1
676,677,1583936836227,1.456,3.2977,3.2449,3.0014193,12.908195,3.6954982000000003,-1
677,678,1583936836237,1.1014,2.9617,2.8186998,2.459755,12.484785,3.1278903,-1
678,679,1583936836248,0.66359997,2.6345,2.2917,2.0719995,12.258016,2.4503217,-1
679,680,1583936836258,0.5693,2.4253,1.4986,2.0364122,12.041159,1.5369722,-1
680,681,1583936836268,0.8454,2.2368,0.59709996,2.2678356,11.946558999999999,0.8181944999999999,-1
681,682,1583936836278,1.3738999,2.1185,0.0958,2.8261347000000003,11.781848,0.39274484,-1
682,683,1583936836288,1.8240999,1.9131999,0.14019999,3.0375237,11.649908,0.46842077,-1
683,684,1583936836299,1.8463999,1.6206,0.51019996,2.813455,11.181506,1.0508342,-1
684,685,1583936836309,1.4620999,1.162,1.0561,2.3696852,10.751086,1.6799442999999998,-1
685,686,1583936836319,1.1974,0.80219996,1.6664,2.1559977999999997,10.506867999999999,2.1966896,-1
686,687,1583936836329,1.2555,0.49179998,2.1506,2.2530683999999996,10.149156,2.7118356,-1
687,688,1583936836339,1.6074,0.1812,2.3021998,2.5522668,9.849362,2.7119792,-1
688,689,1583936836350,1.9918,-0.12019999,2.1148,2.825407,9.512623,2.3759577000000003,-1
689,690,1583936836360,2.2259998,-0.5105,1.7048,2.956772,9.038677,1.714191,-1
690,691,1583936836370,2.3618999,-0.90099996,1.1969,2.8736262000000004,8.712251,1.3129897,-1
691,692,1583936836380,2.2533,-1.3598,0.80259997,2.5122454,8.291072,0.88031924,-1
692,693,1583936836390,1.7529999,-1.7878,0.5177,1.806157,7.805317999999999,0.49397168,-1
693,694,1583936836400,0.9841,-2.2531,0.35999998,0.8725716,7.463866,0.36302802,-1
694,695,1583936836411,0.39929998,-2.5293999,0.2031,0.22476766,7.1262360000000005,-0.13087665,-1
695,696,1583936836421,0.0713,-2.7439999999999998,-0.1646,-0.21270089,6.946393,-0.7926244,-1
696,697,1583936836431,-0.27719998,-2.9259999,-0.8049,-0.6657795999999999,6.8307147,-1.6674465,-1
697,698,1583936836441,-0.49249998,-2.9778,-1.5684999,-0.6402479,6.8470335,-2.6882957999999997,-1
698,699,1583936836451,-0.18519999,-2.9001,-2.5423,-0.32365778,6.9270477,-3.5125332,-1
699,700,1583936836462,0.2547,-2.8116,-3.2542,0.063676186,7.0281696,-4.2636614,-1
700,701,1583936836472,0.5009,-2.7134,-3.5439999999999996,0.1412579,7.0748854,-4.361345,-1
701,702,1583936836482,0.56839997,-2.6747,-3.3939,-0.042444407999999996,7.1009917,-3.9716551,-1
702,703,1583936836492,0.391,-2.6566,-2.9096,-0.40762719999999997,7.041347,-3.5942235,-1
703,704,1583936836503,0.0568,-2.7175999,-2.506,-0.89134216,7.001211,-3.2925253,-1
704,705,1583936836513,-0.36749998,-2.7396,-2.1871,-1.1672596000000002,6.947849000000001,-3.1206408,-1
705,706,1583936836523,-0.5627,-2.7717,-2.0564,-1.1997632,7.077298,-3.2360987999999997,-1
706,707,1583936836533,-0.52059996,-2.6076999,-2.0918999,-0.98316455,7.233439,-3.2820099999999996,-1
707,708,1583936836543,-0.1814,-2.4145,-2.1083998999999998,-0.6414928000000001,7.382741,-3.4947877,-1
708,709,1583936836554,0.1063,-2.2998,-2.3023999,-0.5947963000000001,7.43957,-3.6522303,-1
709,710,1583936836564,0.1312,-2.2733998,-2.4105,-0.83808553,7.396292699999999,-3.7791994,-1
710,711,1583936836574,-0.1249,-2.306,-2.4751,-1.1235414,7.4061947,-3.6845230000000004,-1
711,712,1583936836584,-0.39929998,-2.3000998,-2.2918,-1.3850361,7.362553,-3.3704326,-1
712,713,1583936836594,-0.6067,-2.3244998,-1.9388,-1.5112584,7.4559274,-3.1342494,-1
713,714,1583936836604,-0.65169996,-2.2222,-1.7854999,-1.3381671999999998,7.517305,-3.3694558,-1
714,715,1583936836616,-0.4675,-2.1696,-1.9776,-1.1970433,7.598334299999999,-3.3662093,-1
715,716,1583936836625,-0.3187,-2.0792,-1.9692999,-1.223303,7.588269,-3.1377737999999997,-1
716,717,1583936836635,-0.34059998,-2.0883,-1.744,-1.3530209,7.646170599999999,-2.7638279999999997,-1
717,718,1583936836645,-0.46289998,-1.9731,-1.0192,-1.356028,7.701956,-2.3861093999999996,-1
718,719,1583936836655,-0.3294,-1.8772999,-0.7685,-1.2081333,7.812615400000001,-2.1344595,-1
719,720,1583936836665,-0.19919999,-1.7816,-0.7317,-1.072861,7.907991,-2.083214,-1
720,721,1583936836676,-0.1478,-1.6559999,-0.6523,-1.0186083000000001,8.026283,-1.9917747,-1
721,722,1583936836686,-0.1928,-1.6178,-0.5674,-1.0568101,8.067358,-1.8995501000000001,-1
722,723,1583936836696,-0.1374,-1.5587,-0.7109,-1.0006518,8.124427,-2.0438342,-1
723,724,1583936836706,-0.1374,-1.5587,-0.7109,-0.52769166,8.388622,-2.4816475,-1
724,725,1583936836716,0.2601,-1.3224,-1.0929999,-0.43087970000000003,8.483193,-2.5261605,-1
725,726,1583936836726,0.19129999,-1.1455,-0.84489995,-0.7688165,8.547214,-2.0892475,-1
726,727,1583936836736,-0.1287,-1.1269,-0.5309,-1.0576721000000002,8.598038,-1.7843316000000002,-1
727,728,1583936836748,-0.30359998,-1.0993,-0.2907,-1.1936245,8.595118,-1.5780853000000001,-1
728,729,1583936836758,-0.5722,-1.0727,0.0245,-1.4817332,8.670621,-1.2049633,-1
729,730,1583936836768,-0.5751,-0.8901,0.25939998,-1.2677201999999999,8.902187,-1.1091666,-1
730,731,1583936836778,-0.14739999,-0.6495,-0.0836,-0.7343974,9.160025,-1.5091995,-1
731,732,1583936836788,0.3814,-0.37039998,-0.35999998,-0.24694754,9.451035000000001,-1.6132993999999998,-1
732,733,1583936836799,0.6552,-0.16049999,-0.3384,-0.08964849,9.583501,-1.518939,-1
733,734,1583936836809,0.6008,-0.0488,-0.0773,-0.19179471,9.707166,-1.1028843000000002,-1
734,735,1583936836819,0.4441,0.014099998999999998,0.2792,-0.30817205,9.749917,-0.75450873,-1
735,736,1583936836829,0.38979998,0.0484,0.4421,-0.29331845,9.796192,-0.67653435,-1
736,737,1583936836839,0.45569998,0.093399994,0.44399998,-0.17213354,9.868784,-0.6166314,-1
737,738,1583936836849,0.6114,0.20809999,0.45279998,0.084544055,10.014064999999999,-0.63729817,d
738,739,1583936836860,0.8175,0.33339998,0.38,0.24201548,10.111652000000001,-0.7352785,-1
739,740,1583936836870,0.9176,0.38079998,0.23249999,0.27371472,10.121756,-0.89557505,-1
740,741,1583936836880,0.88269997,0.35979998,0.085599996,0.22406854,10.098915,-0.96962297,-1
741,742,1583936836890,0.8402,0.32899999999999996,-0.0041,0.17989074,10.067675999999999,-1.0618572,-1
742,743,1583936836900,0.77959996,0.3274,-0.0184,0.036698323,10.102611999999999,-0.9393698,-1
743,744,1583936836910,0.6325,0.36479998,0.1505,-0.12669158,10.104394000000001,-0.6794648,-1
744,745,1583936836921,0.44799998,0.373,0.41709998,-0.27157909999999996,10.1237,-0.44460323,-1
745,746,1583936836931,0.34289998,0.3913,0.5492,-0.35525164,10.171975999999999,-0.43678859999999997,-1
746,747,1583936836941,0.31649998,0.4298,0.4709,-0.31910875,10.200803,-0.5453416999999999,-1
747,748,1583936836952,0.3107,0.4689,0.3398,-0.4009043,10.224812,-0.67301005,-1
748,749,1583936836962,0.24769999,0.4694,0.21339999,-0.5204229,10.189665,-0.84388906,-1
749,750,1583936836972,0.0881,0.4114,0.0508,-0.7658764,10.119046,-0.92931414,-1
750,751,1583936836982,-0.12,0.35369998,0.0174,-0.9007274,10.059094,-0.99556655,-1
751,752,1583936836992,-0.2111,0.3157,-0.034199997999999995,-0.91408706,10.021525,-1.0670286,-1
752,753,1583936837002,-0.21509999,0.2678,-0.1144,-0.9025278,10.00808,-1.1156694,-1
753,754,1583936837013,-0.19049999,0.2592,-0.1457,-0.8489073,9.936474,-1.1733025,-1
754,755,1583936837023,-0.11800000000000001,0.1718,-0.22729999,-0.78947365,9.940467,-1.3032597,-1
755,756,1583936837033,-0.07719999599999999,0.192,-0.32099998,-0.7246961,9.953989,-1.3735535,-1
756,757,1583936837043,0.0004,0.21159999,-0.3892,-0.65647095,9.961738,-1.3583934,-1
757,758,1583936837053,0.0469,0.2012,-0.3642,-0.7447020999999999,9.895102,-1.2814726,-1
758,759,1583936837063,-0.1033,0.121599995,-0.25579998,-0.964145,9.841883000000001,-1.0193458,-1
759,760,1583936837074,-0.2744,0.0905,-0.0047999997999999995,-0.8991376,9.822299000000001,-0.81603974,-1
760,761,1583936837084,-0.1642,0.068799995,0.1366,-0.641263,9.866083999999999,-0.8578233000000001,-1
761,762,1583936837094,0.0802,0.1354,0.0638,-0.43505517,9.873621,-0.9800424999999999,-1
762,763,1583936837104,0.2561,0.123799995,-0.094399996,-0.35819173,9.899689,-1.0897161,-1
763,764,1583936837114,0.2979,0.1618,-0.1611,-0.39249584,9.954794,-1.058036,-1
764,765,1583936837125,0.2661,0.2005,-0.1461,-0.3879277,9.987086999999999,-1.0792678999999998,-1
765,766,1583936837134,0.2674,0.22989999,-0.1664,-0.46238738,9.96643,-1.1672882,-1
766,767,1583936837144,0.2026,0.21069999,-0.2529,-0.58289236,9.968067,-1.2315966,-1
767,768,1583936837154,0.0504,0.2016,-0.33789998,-0.71419996,9.9198675,-1.3853809,-1
768,769,1583936837164,-0.0642,0.1629,-0.5108,-0.6298474000000001,9.978909,-1.6976613999999999,-1
769,770,1583936837174,0.0424,0.22199999,-0.7715,-0.3596857,10.098054,-1.8508807,-1
770,771,1583936837185,0.3012,0.34939998,-0.9248,-0.04552814,10.193266,-1.944561,-1
771,772,1583936837195,0.616,0.4472,-1.0196999,0.16296852,10.303111999999999,-1.9891888999999998,-1
772,773,1583936837205,0.8713,0.5843,-1.0841,0.6765727,10.555614,-2.2282450000000003,-1
773,774,1583936837215,1.7387999,1.0365,-1.5727999,1.1274104,10.787842,-2.5300486,-1
774,775,1583936837226,2.1629999,1.2840999,-1.9217999,1.5423543,11.029714,-2.901916,-1
775,776,1583936837236,2.1629999,1.2840999,-1.9217999,1.8027574,11.202354,-3.2907919999999997,-1
776,777,1583936837246,2.487,1.4803,-2.6945999,1.8116349999999999,11.212419500000001,-3.836239,-1
777,778,1583936837256,2.3202,1.4189999,-3.0456,1.6226462,11.149509,-4.145004699999999,-1
778,779,1583936837266,2.1055,1.29,-3.2505999,1.3148956,10.961038,-4.420099,-1
779,780,1583936837276,1.8793,1.0439,-3.3913,1.0144329,10.711084,-4.593439,-1
780,781,1583936837287,1.6084,0.79789996,-3.4796998999999995,0.67902434,10.442177000000001,-4.6950293,-1
781,782,1583936837297,1.3869999999999998,0.522,-3.6055,0.43003693,10.1635685,-4.8597693,-1
782,783,1583936837307,1.3397,0.2157,-3.7508998,0.35154542,9.836194,-5.011762999999999,-1
783,784,1583936837317,1.3579999,-0.1114,-3.8188,0.30867007,9.499426,-5.0348053,-1
784,785,1583936837327,1.3847,-0.4594,-3.6906998,0.28364587,9.220407000000002,-4.9137545,-1
785,786,1583936837337,1.4214,-0.80799997,-3.4833,0.25116134,8.718179,-4.5566254,-1
786,787,1583936837348,1.4298999,-1.1668,-3.1645,0.19875705,8.347344999999999,-4.21707,-1
787,788,1583936837358,1.4304999,-1.5449,-2.9085999,0.11698069400000001,8.004342999999999,-3.9434129999999996,-1
788,789,1583936837368,1.3946999,-1.8439,-2.7519999,0.053256622999999996,7.7075005,-3.8675647000000004,-1
789,790,1583936837378,1.411,-2.1125,-2.84,-0.06642473,7.40923,-3.9575484,-1
790,791,1583936837389,1.2639999,-2.4782,-2.9687997999999998,-0.36971262,7.0087194,-4.0381756,-1
791,792,1583936837399,0.98179996,-2.9122999,-3.0444,-0.7448745,6.4883156,-4.0640903,-1
792,793,1583936837409,0.6787,-3.3860997999999998,-3.0516,-1.0857705,6.0390863,-3.9956641000000004,-1
793,794,1583936837419,0.4191,-3.9989,-2.9166,-1.4029254999999998,5.3860917,-3.5918962999999997,-1
794,795,1583936837429,0.121599995,-4.565,-2.2215,-1.7429116999999998,4.8545504,-2.6514919999999997,-1
795,796,1583936837440,-0.0696,-5.0944,-1.2694,-1.8955756000000001,4.388964,-1.5208544,-1
796,797,1583936837450,-0.097899996,-5.42,-0.1138,-1.9639349,4.1360793,-0.23138522,-1
797,798,1583936837460,-0.1979,-5.5508,0.9589,-2.0592241000000002,4.0585165000000005,0.87881565,-1
798,799,1583936837470,-0.2101,-5.5544996,1.8206999,-2.0668375,4.0196347,1.7792462,-1
799,800,1583936837480,-0.249,-5.6658998,2.3214,-2.197925,3.8691065000000004,2.332939,-1
800,801,1583936837490,-0.5169,-5.8746,2.8179,-2.6189406,3.60992,2.8265849999999997,-1
801,802,1583936837500,-0.9158,-6.1124997,3.0275,-2.8657348,3.4026682,2.8789222000000003,-1
802,803,1583936837510,-1.1853,-6.3806996,3.0583,-3.1172313999999997,3.2103083,3.0261655,-1
803,804,1583936837520,-1.5647,-6.4252,3.2191,-3.5896362999999996,3.2606632999999996,3.4060872000000004,-1
804,805,1583936837530,-1.9980999,-6.344599700000001,3.6319999999999997,-3.9629977,3.4836786,3.8734542999999997,-1
805,806,1583936837540,-2.3521,-6.1102,4.0287,-3.9792495000000003,3.7686458,4.127507700000001,-1
806,807,1583936837550,-2.1794999,-5.7025,4.1154,-3.3375843,4.3277497,4.076157,-1
807,808,1583936837561,-1.4818,-5.1116,4.0376997,-2.4038169999999996,4.962443,4.055797,-1
808,809,1583936837571,-0.6356,-4.5415998,3.977,-1.6064136,5.416996,4.0354557,-1
809,810,1583936837581,-0.192,-4.0888,3.9856,-1.2598481000000001,5.9484706,4.1330624,-1
810,811,1583936837591,-0.0664,-3.6539998,4.0976,-1.0948589,6.3028793,4.4187199999999995,-1
811,812,1583936837601,-0.19659999,-3.2461998,4.4484,-1.4461361000000001,6.818542999999999,5.1267996,-1
812,813,1583936837611,-0.80539995,-2.7962,5.2448,-1.8662611,7.249153999999999,6.066676999999999,-1
813,814,1583936837622,-1.2580999,-2.3727,6.0906997,-1.9041948,7.7719045,7.048395599999999,-1
814,815,1583936837632,-1.2461,-1.7114999,7.013499700000001,-1.5625806,8.542444,7.978859,-1
815,816,1583936837642,-0.8886,-0.9694,7.6759996,-0.803111,9.235681,8.317744,-1
816,817,1583936837652,-0.38709998,-0.3324,7.6589,-0.21544942,9.847505,7.980535000000001,-1
817,818,1583936837662,-0.0554,0.1299,7.2214,0.13170025,10.295584,7.591908,-1
818,819,1583936837672,0.11409999400000001,0.5949,6.8198,0.49739063,10.719224,7.495374000000001,-1
819,820,1583936837683,0.29709998,1.0331,6.7434997999999995,0.7044507,11.22306,7.797254,-1
820,821,1583936837693,0.34649998,1.5330000000000001,7.0263995999999995,0.8357296000000001,11.598375,8.174953,-1
821,822,1583936837703,0.32009998,1.8887,7.3532,0.9105148999999999,11.81484,8.690512,-1
822,823,1583936837713,0.2564,2.1327999,7.7907,1.3219633,12.094051,8.950521,-1
823,824,1583936837723,0.6303,2.4219999999999997,7.9136,2.0337881999999996,12.362221,8.7852545,-1
824,825,1583936837734,1.2069,2.6973,7.6162,2.7561667,12.547437,8.466788000000001,-1
825,826,1583936837744,1.7529,2.9062,7.2365,3.3426216,12.771065,8.182634,-1
826,827,1583936837754,2.1931998999999998,3.156,6.9311,3.9347079,13.019028,7.906975699999999,-1
827,828,1583936837764,2.5223,3.3874998,6.6488,4.1629806,13.186860000000001,7.818409,-1
828,829,1583936837774,2.6852999,3.6095998,6.5148997,4.469113,13.471244,7.8369694,-1
829,830,1583936837784,2.8713,3.949,6.461,4.64726,13.823545000000001,7.487502,-1
830,831,1583936837795,2.886,4.2667,6.101,4.7899165,14.167420000000002,6.6098740000000005,-1
831,832,1583936837806,2.9273,4.8501997,3.8172,4.8723730000000005,14.420459,4.890866,-1
832,833,1583936837816,3.0486999,4.9782,2.1513999,5.1016035,14.5003,3.2142637,-1
833,834,1583936837826,3.3177998,4.946000000000001,0.78099996,5.424466000000001,14.416944500000001,1.905344,-1
834,835,1583936837836,3.5981998,4.7352,-0.29569998,5.692549700000001,14.177973999999999,0.8544139999999999,-1
835,836,1583936837847,3.4408998,4.3764,-0.8168,5.494607,13.777616,0.4266276,-1
836,837,1583936837857,3.1194,3.9494,-0.9877,5.17025,13.322287,0.29822177,-1
837,838,1583936837867,2.9222,3.642,-0.9185,5.07226,13.079457000000001,0.49053362,-1
838,839,1583936837877,2.9529998,3.5133997999999997,-0.7111,5.1237544999999995,12.978307000000001,0.6687963,-1
839,840,1583936837887,3.0942,3.4245,-0.8621,5.298119,12.859209,0.5333131999999999,-1
840,841,1583936837898,3.4343,3.3042,-1.2872,5.732677,12.734376,-0.0023463177,-1
841,842,1583936837908,3.7689998,3.1894,-1.8176,6.008987,12.624108,-0.48388729999999996,-1
842,843,1583936837918,4.1116,3.0686,-2.5465999,6.3172164,12.447905,-1.3923718999999999,-1
843,844,1583936837928,4.1714,2.7845,-3.2991998,6.242881,12.123232000000002,-2.1175373,-1
844,845,1583936837938,3.9403,2.3964,-3.8346998999999995,5.8768554,11.741807000000001,-2.6777232000000004,-1
845,846,1583936837948,3.5635998,2.0137,-4.3917,5.4252515,11.340175,-3.3885326,-1
846,847,1583936837959,3.165,1.5888,-5.138999999999999,4.99373,11.016612,-4.2950253,-1
847,848,1583936837970,2.8089999999999997,1.2123,-6.0037,4.602967700000001,10.663669,-5.2206144,-1
848,849,1583936837980,2.4928,0.93479997,-6.7483997,4.222538500000001,10.409778999999999,-6.1195607,-1
849,850,1583936837990,2.3007998,0.7773,-7.2808,4.068352,10.332868,-6.6177363,-1
850,851,1583936838000,2.2223,0.68149996,-7.6057,3.9134567000000002,10.241342,-6.922825,-1
851,852,1583936838010,2.1304,0.54899997,-7.7549,3.8603148000000003,10.103694,-7.003164999999999,-1
852,853,1583936838020,2.144,0.41849998,-7.7281,3.8994074,9.929262,-7.033934599999999,-1
853,854,1583936838030,2.2347999,0.19139999,-7.6797,3.9361443999999994,9.756391,-7.018161999999999,-1
854,855,1583936838040,2.4246,-0.0055,-7.5976996,4.0910106,9.504301,-6.931999,-1
855,856,1583936838051,2.4994,-0.28059998,-7.4321,4.0074916,9.227914,-6.800643400000001,-1
856,857,1583936838061,2.4415,-0.5754,-7.2609,3.8329446000000003,8.903461,-6.668244400000001,-1
857,858,1583936838071,2.2604,-0.89959997,-7.062999700000001,3.6042120000000004,8.633262,-6.506473000000001,-1
858,859,1583936838081,2.0823,-1.1647999,-6.8567995999999996,3.2904184,8.35994,-6.309162000000001,-1
859,860,1583936838092,1.7791,-1.4396,-6.593999999999999,2.8849077000000003,8.167110000000001,-6.077413,-1
860,861,1583936838102,1.4569999999999999,-1.6157999,-6.3055997,2.52006,7.9789743,-5.7040706,-1
861,862,1583936838112,1.2305,-1.791,-5.9525,2.3631346,7.917654,-5.4261230000000005,-1
862,863,1583936838122,1.0881,-1.867,-5.5555,2.0750832999999997,7.829231,-4.978225,-1
863,864,1583936838132,0.8231,-1.9616,-5.1256,1.7667389,7.697559399999999,-4.617668,-1
864,865,1583936838142,0.6691,-2.0647,-4.8304,1.8471457999999998,7.6862783,-4.377578,-1
865,866,1583936838153,0.8297,-2.0684,-4.5919,1.9987754,7.6847076,-4.084604,-1
866,867,1583936838163,1.0109999,-2.0807,-4.2822,2.2006927000000003,7.653812400000001,-3.599596,-1
867,868,1583936838173,1.2153,-2.092,-3.7533998,2.3254402,7.654310700000001,-2.9848703999999997,-1
868,869,1583936838183,1.3563,-2.1125998,-3.1597,2.4208347999999997,7.6044445000000005,-2.4170232000000005,-1
869,870,1583936838194,1.4554,-2.1622,-2.6262999,2.2912223,7.534811500000001,-1.9193548999999999,-1
870,871,1583936838204,1.23,-2.2509,-2.1415,1.8646616999999999,7.365263499999999,-1.3982808999999998,-1
871,872,1583936838214,0.802,-2.4477,-1.6504999,1.5084045,7.1066227,-1.0758967,-1
872,873,1583936838224,0.5108,-2.7027,-1.3817999,1.3995928999999998,6.9183235,-0.9637715,-1
873,874,1583936838234,0.48709998,-2.9277,-1.3392998999999999,1.5634328000000002,6.691037,-1.0571837,-1
874,875,1583936838245,0.5895,-3.073,-1.425,1.8602851999999999,6.603389999999999,-0.9364968000000001,-1
875,876,1583936838255,0.8567,-3.158,-1.3112,2.28765,6.580377,-0.6451224,-1
876,877,1583936838265,1.3477,-3.1629,-0.94079995,2.7361607999999995,6.6709833,0.22534227,-1
877,878,1583936838275,1.5146998999999999,-2.9529,0.5237,2.6619215,6.7893333,1.0058233,-1
878,879,1583936838285,1.5146998999999999,-2.9529,0.5237,2.5338986,6.914378,1.678029,-1
879,880,1583936838295,1.0763999,-2.7998,1.7501999,2.2505783999999998,6.931433999999999,2.4063258,-1
880,881,1583936838305,0.75049996,-2.8414,2.2767,2.0211756000000003,6.8615046,2.9661572,-1
881,882,1583936838316,0.4156,-2.9424999,3.1501,1.7142292000000001,6.730235,3.8802445,-1
882,883,1583936838326,0.2385,-3.0344,4.1467,1.6733267,6.678386,4.8520794,-1
883,884,1583936838336,0.247,-3.0974998,4.8375998,1.7008505,6.6071634,5.353339,-1
884,885,1583936838346,-0.0077,-3.0535,5.4193,1.4653089,6.6542144,5.9457607,-1
885,886,1583936838356,-0.1244,-2.8820999,5.6924,1.4218494,6.8064284,6.0744915,-1
886,887,1583936838366,-0.0449,-2.6220999,5.9747,1.5686809,7.1125607,6.3159137,-1
887,888,1583936838377,-0.101799995,-2.4692,6.2476,1.5516151000000002,7.2252693,6.5422616,-1
888,889,1583936838387,-0.101799995,-2.4692,6.2476,1.7092302,7.4818993,6.92564,-1
889,890,1583936838397,0.078,-1.8763,7.567,1.8783374,7.917347,7.955242599999999,-1
890,891,1583936838408,0.1257,-1.5634999,8.342899000000001,1.9117221999999998,8.128639999999999,8.56902,-1
891,892,1583936838418,0.033999998,-1.3772,9.1085,1.8510339,8.308761,9.2750025,-1
892,893,1583936838428,-0.12979999,-1.2586,9.5799,1.7483802,8.376172,9.665555,-1
893,894,1583936838438,-0.1713,-1.1679,9.780399000000001,1.7906713,8.452116,9.836252,-1
894,895,1583936838448,-0.0041,-0.9673,9.8005,2.0682743,8.722488,9.905453999999999,-1
895,896,1583936838458,0.0892,-0.657,9.8175,2.2603946,9.015922,9.962886,-1
896,897,1583936838468,0.1502,-0.41369998,9.7841,2.3869712000000005,9.261663,9.921016999999999,-1
897,898,1583936838478,0.2285,-0.11,9.5879,2.5668812,9.579718,9.744353,-1
898,899,1583936838488,0.3252,0.24409999,9.251699,2.6970107999999997,9.819416,9.484983999999999,-1
899,900,1583936838498,0.3241,0.48169997,8.778999,2.7189322,10.010023,9.051815,-1
900,901,1583936838508,0.17719999,0.7003,8.2682,2.629906,10.275511999999999,8.525302,-1
901,902,1583936838519,0.0691,0.9790000000000001,7.8458996,2.7396274,10.5703335,8.259775,-1
902,903,1583936838529,0.3414,1.2983999,7.5635996,3.2093412999999997,10.850072,7.952484599999999,-1
903,904,1583936838539,0.8279,1.6680000000000001,7.1017,3.7553532,11.215456,7.446675999999999,-1
904,905,1583936838549,1.1198,2.0475,6.3336,3.9506242,11.54192,6.6508145,-1
905,906,1583936838560,1.0928,2.3769,5.5539,4.067088,11.885928,5.836269000000001,-1
906,907,1583936838570,1.1782,2.6562997999999998,4.8673997,4.2521977,12.139857000000001,5.281121,-1
907,908,1583936838580,1.4246,3.0328999,4.1844997,4.590451,12.529174000000001,4.4607997,-1
908,909,1583936838590,1.5587,3.3393998,3.4166,4.720954,12.727405000000001,3.635107,-1
909,910,1583936838600,1.6114998999999999,3.5063998999999995,2.5449998,4.7452693,12.798014,2.9897547,-1
910,911,1583936838610,1.5432999,3.5633998,1.7070999,4.6767664,12.732499,1.721814,-1
911,912,1583936838620,1.4308,3.452,0.4024,4.725752,12.676915,0.6886777,-1
912,913,1583936838630,1.5942,3.4877,-0.7874,5.0165997,12.709946,-0.46882299999999993,-1
913,914,1583936838640,1.9049,3.4754,-1.8405999,5.351251599999999,12.672576,-1.2830527,-1
914,915,1583936838651,2.1394,3.4641,-2.2914999,5.6706953,12.566763,-1.5185751,-1
915,916,1583936838661,2.3786,3.3548,-2.4143999,5.9127398,12.44326,-1.4336288000000001,-1
916,917,1583936838671,2.5661,3.2052,-2.312,6.0880527,12.275513,-1.2350442,-1
917,918,1583936838681,2.7912998,2.9943,-2.0342,6.301539,11.973709,-0.8317264999999999,-1
918,919,1583936838691,2.8195999,2.7305,-1.8361,6.260521400000001,11.703183000000001,-0.7649953,-1
919,920,1583936838702,2.8172998,2.4717,-1.9763998999999999,6.2980433,11.495453,-0.9837296,-1
920,921,1583936838711,2.8813,2.189,-2.3974,6.319007,11.149606,-1.5593723,-1
921,922,1583936838721,2.8504,1.9214,-2.9297,6.2297606,10.880527,-2.178216,-1
922,923,1583936838732,2.7489998,1.6286,-3.5983,6.074262,10.561475,-2.8640304,-1
923,924,1583936838742,2.5168998,1.2921,-4.2497,5.472561,10.141781,-3.7046633,-1
924,925,1583936838752,1.9770999,0.9134,-4.8735,4.906705400000001,9.774175,-4.319456,-1
925,926,1583936838762,1.4502,0.5441,-5.4618,4.449978,9.54597,-4.684954599999999,-1
926,927,1583936838772,0.9418,0.23619999,-5.7528,3.9909809000000003,9.253819,-4.709491000000001,-1
927,928,1583936838783,0.5555,-0.066599995,-5.5905,3.6401442999999998,8.978266,-4.1126447,-1
928,929,1583936838792,0.3473,-0.265,-5.0171,3.5620263,8.832019,-3.503646,-1
929,930,1583936838802,0.2967,-0.39839998,-4.2619,3.6914952000000003,8.800913000000001,-2.4315607999999997,-1
930,931,1583936838812,0.47399998,-0.3798,-3.4129998999999995,3.98331,8.814991000000001,-1.7077553,-1
931,932,1583936838823,0.7736,-0.34919998,-2.8566,4.3166975999999995,8.849879,-1.3173856000000002,-1
932,933,1583936838833,1.1204,-0.3096,-2.5407999,4.574831,8.881119,-0.9966103999999999,-1
933,934,1583936838843,1.3012999,-0.2828,-2.2733,4.536322599999999,8.820938,-0.85186654,-1
934,935,1583936838853,1.2307,-0.348,-2.2033,4.404029,8.756295,-0.83859307,-1
935,936,1583936838863,0.9977,-0.4459,-2.1907,4.0139173999999995,8.664156,-0.8584458,-1
936,937,1583936838874,0.6888,-0.48709998,-2.2189,3.818129,8.734776,-0.8716714,-1
937,938,1583936838883,0.5359,-0.40129998,-2.2316,3.7906915999999997,8.849486,-0.8934395,-1
938,939,1583936838893,0.5464,-0.26569998,-2.2214,3.9233785000000005,9.011851,-0.9220358000000001,-1
939,940,1583936838903,0.6714,-0.1488,-2.2494,3.9020317,9.020767,-0.914834,-1
940,941,1583936838913,0.58959997,-0.13939999,-2.2187997999999998,3.6428160000000003,8.971342,-0.84099686,-1
941,942,1583936838923,0.3121,-0.2087,-2.1482,3.452324,8.869177,-0.9146329,-1
942,943,1583936838934,0.1721,-0.2981,-2.2024999,3.4810733999999997,8.860729,-0.8641249,-1
943,944,1583936838944,0.18789999,-0.289,-2.109,3.5126576000000003,8.912675,-0.71476495,-1
944,945,1583936838954,0.2227,-0.24039999,-1.9377999,3.5156362,8.965739,-0.53954774,-1
945,946,1583936838964,0.23789999,-0.18169999,-1.7680999,3.602718,9.074359,-0.43897212,-1
946,947,1583936838974,0.3116,-0.0932,-1.6690999,3.67735,9.179053,-0.35012805,-1
947,948,1583936838984,0.38459998,0.0252,-1.5630000000000002,3.7828481,9.245132,-0.23656629,-1
948,949,1583936838995,0.48619998,0.095699996,-1.4519,3.7871099000000004,9.297471,-0.08350018,-1
949,950,1583936839004,0.4502,0.1475,-1.2487999,3.7386131000000002,9.299061,0.25011745,-1
950,951,1583936839014,0.3849,0.15089999,-0.9328,3.603628,9.256414999999999,0.68858194,-1
951,952,1583936839024,0.28059998,0.1055,-0.5803,3.5204535000000003,9.278001,0.91139597,-1
952,953,1583936839034,0.16659999,0.1191,-0.32709998,3.3812737,9.228402,1.074805,-1
953,954,1583936839045,0.0037,0.0835,-0.1708,3.282853,9.291696,1.31389,-1
954,955,1583936839055,-0.0718,0.1556,0.0186,3.3192637,9.387359,1.2888083000000001,-1
955,956,1583936839065,-0.0412,0.25689998,-0.0112,3.4413583,9.483309,1.2107383,-1
956,957,1583936839075,0.25149998,0.4782,-0.1424,3.6275985,9.613754,1.1358666000000002,-1
957,958,1583936839085,0.25149998,0.4782,-0.1424,3.9117522000000005,9.79578,1.0385089,-1
958,959,1583936839095,0.6834,0.80509996,-0.26209998,4.0752854,9.936904,0.9936033000000001,-1
959,960,1583936839105,0.6834,0.80509996,-0.26209998,4.0267024,10.060722,1.1568208,-1
960,961,1583936839115,0.6296,0.93289995,-0.084,3.8260110000000003,10.113116999999999,1.360328,-1
961,962,1583936839125,0.28689998,1.0873,0.3251,3.6893594,10.22237,1.5451603,-1
962,963,1583936839135,0.32819998,1.2814,0.3735,3.7268622000000002,10.4145,1.5885912,-1
963,964,1583936839145,0.3703,1.4849,0.31509998,3.7704272000000003,10.6186285,1.520615,-1
964,965,1583936839156,0.4536,1.7176,0.3224,3.8432877,10.853338,1.5150126,d
965,966,1583936839166,0.4536,1.7176,0.3224,3.8775437000000004,11.057381,1.4919803,-1
966,967,1583936839176,0.511,2.0937,0.4368,3.8812307999999995,11.243085,1.6425755000000002,-1
967,968,1583936839186,0.6911,2.2371,0.634,4.046651,11.384352999999999,1.8403462,-1
968,969,1583936839196,0.9133,2.399,0.7719,4.2895474,11.585255,2.00161,-1
969,970,1583936839206,0.9133,2.399,0.7719,4.412284,11.735228,2.0215970000000003,-1
970,971,1583936839216,1.0800999,2.5365999,0.80289996,4.345687,11.803549,2.000911,-1
971,972,1583936839226,0.7309,2.6339,0.79429996,3.9902341,11.812033999999999,2.0080266,-1
972,973,1583936839236,0.26479998,2.6452,0.75619996,3.4783633000000003,11.843474,1.9476831000000001,-1
973,974,1583936839246,-0.1369,2.6538,0.4716,2.9792487999999997,11.887978,1.5650226,-1
974,975,1583936839256,-0.25239998,2.8383,0.2007,2.8470888,12.13185,1.2823153,-1
975,976,1583936839267,-0.2014,3.1116998,-0.0131,2.8620095,12.378597000000001,1.0866228,-1
976,977,1583936839277,0.0453,3.4059,-0.20269999,3.1205738,12.757207000000001,0.8234617000000001,-1
977,978,1583936839287,0.39139998,3.7498,-0.37849998,3.3993258,13.117716,0.64018077,-1
978,979,1583936839297,0.6145,4.1028,-0.46949998,3.5376532,13.498682,0.5629821999999999,-1
979,980,1583936839308,0.7363,4.4344997,-0.5097,3.5827312000000004,13.83635,0.512838,-1
980,981,1583936839318,0.71819997,4.7053,-0.42839998,3.4439824,14.13551,0.60145223,-1
981,982,1583936839328,0.5403,4.9549,-0.3148,3.208958,14.395645000000002,0.6419621,-1
982,983,1583936839338,0.7973,5.1941,-0.3849,3.6579763999999995,14.724570000000002,0.46139140000000006,-1
983,984,1583936839348,1.4966999,5.4831,-0.67219996,4.1360220000000005,14.975185,0.1491875,-1
984,985,1583936839359,2.0144,5.6551,-1.0871998999999999,4.5181074,15.135253,-0.32511345,-1
985,986,1583936839369,2.1492999,5.6112,-1.2922,4.471957,15.04773,-0.40576932,-1
986,987,1583936839379,2.1675,5.4301,-1.1895,4.3780470000000005,14.842259,-0.14160267,-1
987,988,1583936839389,2.1657,5.1219,-0.8556,4.22295,14.510557,0.2859826,-1
988,989,1583936839400,2.1657,5.1219,-0.8556,4.00051,14.015857999999998,0.92557925,-1
989,990,1583936839410,1.9935,4.1222997,0.37649998,3.6983905,13.489707999999998,1.7623048,-1
990,991,1583936839420,1.7306,3.5567,1.1141,3.3058083,12.826907,2.504948,-1
991,992,1583936839430,1.5561999,2.9584,1.7026,3.0993037,12.340060000000001,3.0197012,-1
992,993,1583936839440,1.7250999,2.3511,2.0779,3.426342,11.655375999999999,3.3204894,-1
993,994,1583936839450,2.3837,1.8027999,2.1750998,4.116667,11.211357000000001,3.4030225,-1
994,995,1583936839461,3.1636,1.3622,2.2586,4.5040393,10.684269,3.2552907,-1
995,996,1583936839472,3.5133,0.76409996,1.9634999,4.442824400000001,10.089108,2.8351657,-1
996,997,1583936839482,3.4448998,0.0975,1.581,3.8020593999999996,9.290115,2.4360619999999997,-1
997,998,1583936839492,3.0063,-0.5577,1.3312,3.2003677,8.721406,2.2079136000000004,-1
998,999,1583936839502,2.5354,-1.161,1.1319,2.2956849999999998,8.1771755,2.0899944,-1
999,1000,1583936839512,1.8022,-1.6918,1.1072999,1.2773067,7.5740857,2.1727092,-1
1000,1001,1583936839523,0.9288,-2.3164,1.2349,0.08897811,7.011860400000001,2.391501,-1
1001,1002,1583936839532,-0.080699995,-2.9076,1.5242,-1.1459991000000003,6.41942,2.6428924,-1
1002,1003,1583936839542,-1.1649,-3.4661998999999994,1.7329999,-2.2544377,5.8134093,2.5218606,-1
1003,1004,1583936839552,-1.989,-4.0529,1.5737,-2.1860308999999996,5.405484700000001,1.9138578000000002,-1
1004,1005,1583936839562,-1.5794,-4.3947,0.83379996,-1.5186805,5.2909174000000005,0.8063670999999999,-1
1005,1006,1583936839572,-0.83739996,-4.5118,-0.1564,-0.8909781999999999,5.157388,0.2631132,-1
1006,1007,1583936839583,-0.1152,-4.589699700000001,-0.584,-0.13403699,5.190304,0.09355582,-1
1007,1008,1583936839593,0.606,-4.5885997000000005,-0.64959997,-0.04243483,5.083838500000001,0.37663665,-1
1008,1009,1583936839603,0.5804,-4.723799700000001,-0.26569998,-0.52874506,4.8069344,1.0800148,-1
1009,1010,1583936839613,0.1249,-5.0249,0.4644,-0.8747072,4.5376925,1.4345769,-1
1010,1011,1583936839623,-0.2644,-5.3754,0.7673,-1.4390493999999998,4.0448985,1.5914546,-1
1011,1012,1583936839634,-0.7215,-5.7957997,0.8953,-1.5283147,3.5537902999999997,1.4290512,-1
1012,1013,1583936839644,-0.69479996,-6.1987,0.75,-0.29647878,3.6957663999999997,0.6441361,-1
1013,1014,1583936839654,0.9375,-5.9763,-0.2689,1.8982955000000001,4.3251542999999995,-0.78005004,-1
1014,1015,1583936839664,2.6926,-5.441,-1.3676,2.1496675,4.7773423,-0.7664893,-1
1015,1016,1583936839674,2.9262,-4.9921,-1.3363,1.4837346000000002,5.1271544,0.035443763999999996,-1
1016,1017,1583936839684,2.2683,-4.6384,-0.5506,0.27874255,5.3295603,0.9973287000000001,-1
1017,1018,1583936839694,1.1003,-4.4396,0.41399997,-0.6633088,5.447881,1.6064806,-1
1018,1019,1583936839704,0.0037999998,-4.2695,1.1135,-1.5138059,5.7327247,1.9405961999999999,-1
1019,1020,1583936839714,-0.69,-3.9527997999999998,1.4197999,-1.8645947,6.1348834000000005,1.8006598999999999,-1
1020,1021,1583936839724,-0.93479997,-3.5502,1.1496998999999999,-2.0047896,6.685923599999999,0.70584893,-1
1021,1022,1583936839734,-1.0228,-3.0704,0.2777,-1.9476542000000001,7.1961184000000005,-0.37474045,-1
1022,1023,1583936839744,-0.9407,-2.5616,-0.70059997,-1.966061,7.4827710000000005,-0.9841223,-1
1023,1024,1583936839755,-0.94269997,-2.1896,-1.3593998999999999,-2.0227652,7.954619999999999,-1.5794454,-1
1024,1025,1583936839765,-0.9884,-1.8073,-1.7411,-2.1838377,8.114122,-1.7076691000000002,-1
1025,1026,1583936839775,-1.2724999,-1.4149,-1.8031,-2.3213605999999998,8.350535,-1.7067881,-1
1026,1027,1583936839785,-1.2793,-1.1704,-1.469,-2.3239367000000004,8.591774000000001,-1.3758328000000002,-1
1027,1028,1583936839795,-1.2149999,-0.9658,-0.9435,-2.242007,8.798911,-0.84250045,-1
1028,1029,1583936839806,-1.2149999,-0.9658,-0.9435,-2.0742404,9.075738000000001,-0.21627302,-1
1029,1030,1583936839816,-0.94369996,-0.6164,0.0841,-1.9334807,9.154517,0.26144683,-1
1030,1031,1583936839826,-0.7705,-0.5789,0.20529999,-1.6623038,9.201483,0.41371804,-1
1031,1032,1583936839836,-0.4296,-0.5512,0.2051,-1.333331,9.238218,0.46526999999999996,-1
1032,1033,1583936839846,-0.1435,-0.4251,0.3301,-1.0652473,9.343612,0.565769,-1
1033,1034,1583936839856,0.2173,-0.2497,0.1994,-0.6950272,9.54755,0.41779777,-1
1034,1035,1583936839866,0.0879,-0.2401,0.1643,-0.8593269,9.51724,0.38497806,-1
1035,1036,1583936839876,-0.061899997000000005,-0.377,0.1153,-0.9852715,9.387004,0.34055123,-1
1036,1037,1583936839886,-0.1388,-0.48409998,0.1008,-1.0637918,9.281286,0.3071282,-1
1037,1038,1583936839896,-0.4782,-0.3949,0.47219998,-1.5465968,9.370484,0.7582532,-1
1038,1039,1583936839906,-1.0139999,-0.3744,0.7687,-1.9805506000000002,9.400402,0.9355486999999999,-1
1039,1040,1583936839916,-0.83199996,-0.2958,0.6083,-1.6939743999999999,9.501456,0.66577,-1
1040,1041,1583936839927,-0.2384,-0.18869999,0.1061,-1.1919868,9.583521000000001,0.22831108,-1
1041,1042,1583936839937,0.3195,-0.1214,-0.1758,-0.54520756,9.654263499999999,-0.12751518,-1
1042,1043,1583936839947,0.53319997,-0.13239999,-0.1346,-0.41369890000000004,9.656983,-0.021883002999999998,-1
1043,1044,1583936839957,0.3951,-0.035299998,0.259,-0.52722234,9.751909,0.43252692,-1
1044,1045,1583936839969,0.49229997,0.042,0.6001,-0.32830253,9.861689,0.7510036,-1
1045,1046,1583936839980,0.70669997,0.1783,0.65999997,-0.14958014,10.006959,0.68181115,-1
1046,1047,1583936839990,0.737,0.2461,0.4806,-0.23461261,10.024887,0.478735,-1
1047,1048,1583936840000,0.6049,0.2358,0.3642,-0.33218113,10.005685,0.41394790000000004,d
1048,1049,1583936840010,0.3888,0.1768,0.2504,-0.58068013,9.970317999999999,0.23403801,-1
1049,1050,1583936840020,0.2531,0.19649999,0.0589,-0.6541916999999999,10.004401,-0.033298556,-1
1050,1051,1583936840031,0.25439999,0.226,-0.1441,-0.56918794,9.943493,-0.25630410000000003,-1
1051,1052,1583936840041,0.30429998,0.1575,-0.2737,-0.6925851,9.927921000000001,-0.1992742,-1
1052,1053,1583936840051,0.13859999,0.1478,-0.1261,-0.8534084000000001,9.922798,0.013991713999999999,-1
1053,1054,1583936840061,0.0014,0.1576,0.10300000000000001,-0.88725287,9.970203,0.31082484,-1
1054,1055,1583936840071,0.0289,0.2359,0.3769,-0.816078,10.06893,0.49548483,-1
1055,1056,1583936840082,0.084699996,0.3141,0.4551,-0.8240268,10.119553,0.5000817,-1
1056,1057,1583936840092,0.0046,0.3728,0.48799998,-0.95541096,10.1384,0.57768255,-1
1057,1058,1583936840102,-0.1505,0.3435,0.478,-1.1229763000000001,10.107619999999999,0.37808275,-1
1058,1059,1583936840112,-0.2342,0.3243,0.28,-1.14258,10.064132,0.087350056,-1
1059,1060,1583936840122,-0.2672,0.2856,0.011000000000000001,-1.2586796,10.031628999999999,-0.09009860000000001,-1
1060,1061,1583936840132,-0.3673,0.25689998,-0.116799995,-1.3640916,10.010914,-0.24524288,-1
1061,1062,1583936840142,-0.4382,0.23799999,-0.23399999999999999,-1.2337704,10.086742999999998,-0.29451552,-1
1062,1063,1583936840152,-0.1882,0.366,-0.26319999,-0.8522879000000001,10.2170925,-0.36292267,-1
1063,1064,1583936840162,0.2171,0.50369996,-0.4109,-0.5026387,10.277522,-0.6920105,-1
1064,1065,1583936840172,0.4378,0.49449998,-0.6489,-0.6296845999999999,10.1990795,-0.7985237,-1
1065,1066,1583936840182,0.24049999,0.3875,-0.7055,-0.8599302,10.036589,-0.766834,-1
1066,1067,1583936840192,0.0938,0.2512,-0.65929997,-0.71007234,9.962369,-0.8301655000000001,-1
1067,1068,1583936840203,0.2883,0.17359999,-0.7545,-0.5050329000000001,9.872452000000001,-1.0002974,-1
1068,1069,1583936840213,0.4949,0.0765,-0.92429996,-0.43056366,9.665747,-1.1006145,-1
1069,1070,1583936840223,0.5298,-0.1484,-1.0085,-0.6210463,9.350660000000001,-1.0073748,-1
1070,1071,1583936840233,0.28759998,-0.4807,-0.8605,-0.9860184000000001,8.992832,-0.7371843000000001,-1
1071,1072,1583936840243,-0.0491,-0.84209996,-0.63299996,-1.1973307,8.58646,-0.40142146,-1
1072,1073,1583936840253,-0.2181,-1.2425,-0.3041,-1.4218396999999998,8.217618,0.09027098,-1
1073,1074,1583936840264,-0.436,-1.6329,0.1475,-1.6665655,7.7430205,0.75957483,-1
1074,1075,1583936840274,-0.615,-2.0133997999999997,0.6856,-1.7592307,7.426067,1.1797669,-1
1075,1076,1583936840284,-0.7263,-2.4231,1.1567,-2.0720476999999997,6.901994999999999,1.7290637,-1
1076,1077,1583936840295,-0.9862,-2.8525999,1.5749999,-2.3339060000000003,6.45697,2.1857145,-1
1077,1078,1583936840305,-1.2393,-3.2921998999999995,2.0119998,-2.5555902,5.819864,2.6208465,-1
1078,1079,1583936840315,-1.4474,-3.9383998,2.4283,-2.7440808,5.1853620000000005,3.3009817999999997,-1
1079,1080,1583936840325,-1.6402999,-4.5655,3.096,-3.0497725,4.6756845,3.7476152999999996,-1
1080,1081,1583936840335,-2.1443,-5.7339997,4.0962,-3.2298548,4.01454,4.299086,-1
1081,1082,1583936840345,-2.0405,-6.0211,4.5274,-3.108823,3.7369660000000002,4.718196,-1
1082,1083,1583936840356,-2.166,-6.2215,5.2393,-3.1894119,3.5407848,5.4155693,-1
1083,1084,1583936840366,-2.1409,-6.2665997,6.0291,-3.1215985,3.4958407999999994,6.179549,-1
1084,1085,1583936840376,-1.5281,-6.127000000000001,6.2276998,-2.2223172000000004,3.7018285000000004,6.285699,-1
1085,1086,1583936840386,-0.4745,-5.7727,5.7785,-1.2866822,4.0045033,5.8234935,-1
1086,1087,1583936840396,0.5736,-5.4084,4.9231997000000005,0.07153875,4.457008,4.6898675,-1
1087,1088,1583936840407,0.5736,-5.4084,4.9231997000000005,0.78867877,4.923082,3.9700843999999997,-1
1088,1089,1583936840417,1.7617999,-4.3412,3.8739,1.3145316,5.4591055,3.6717668,-1
1089,1090,1583936840427,1.8213999,-3.8339,3.5562,1.4557608,6.098999,3.1943152,-1
1090,1091,1583936840437,1.5397999,-3.2949998,3.1319999999999997,1.3356006,6.631747200000001,2.6366386000000004,-1
1091,1092,1583936840447,1.5919,-2.6262,2.5154,1.5173781000000002,7.2997293,1.9033137999999998,-1
1092,1093,1583936840457,1.4682,-1.9552,1.8434999,1.4767723,7.844985,1.2930509,-1
1093,1094,1583936840467,1.328,-1.1739,1.31,1.4824992000000001,8.930746000000001,0.38383842,-1
1094,1095,1583936840478,1.2398,-0.4788,0.66029996,1.4550234,9.50047,-0.4870285,-1
1095,1096,1583936840488,1.1747,0.08109999400000001,-0.3611,1.5489431999999999,10.104776,-1.6973454,-1
1096,1097,1583936840498,1.1995,0.74079996,-1.3662,1.6959758000000003,10.640858,-2.4883319999999998,-1
1097,1098,1583936840508,1.2538999,1.3622,-2.1166,1.8246115,11.256905,-3.4379492,-1
1098,1099,1583936840518,1.2875,1.8757999,-2.9812,2.0194516,11.816602,-4.4151087,-1
1099,1100,1583936840528,1.4248999,2.3983998,-3.7029,2.2660449000000003,12.286783999999999,-5.035158999999999,-1
1100,1101,1583936840539,1.558,2.8406,-4.0427,2.537892,12.673352000000001,-5.236895,-1
1101,1102,1583936840549,1.7271999,3.0844998,-4.0821,2.8189618999999997,12.87005,-5.129261,-1
1102,1103,1583936840559,1.8177999,3.2677,-3.8467,2.904272,12.972062,-4.777696,-1
1103,1104,1583936840569,1.6274998999999999,3.2633,-3.4187,2.8744786,12.980538000000001,-4.3231044,-1
1104,1105,1583936840579,1.4709999999999999,3.2981,-2.9259999,2.8865645,12.995019000000001,-3.5699174,-1
1105,1106,1583936840590,1.5932,3.4908,-2.2993999,3.1326597,13.220111,-2.9607656,-1
1106,1107,1583936840600,1.7982,3.6169998999999997,-2.065,3.4724543,13.350634,-2.7860652999999997,-1
1107,1108,1583936840611,2.0101,3.6861,-2.1641998,3.8668177000000004,13.360412,-3.113573,-1
1108,1109,1583936840620,2.3788,3.7075,-2.6403,4.2325754,13.33102,-3.5242076,-1
1109,1110,1583936840630,2.6815999,3.6506998999999998,-3.218,4.6378846,13.24549,-4.2440963,-1
1110,1111,1583936840640,2.9206,3.5930998,-3.8235,4.7698917000000005,13.205804,-4.706244,-1
1111,1112,1583936840650,2.9083,3.5535997999999998,-4.3882,4.692405,13.145670999999998,-5.419697,-1
1112,1113,1583936840660,2.7401,3.5026998999999996,-4.8911,4.6200047,13.058714,-5.728003,-1
1113,1114,1583936840671,2.6576998,3.4013998999999995,-5.1503997,4.6156855000000006,12.944596,-6.067922599999999,-1
1114,1115,1583936840681,2.717,3.3088998999999997,-5.3827,4.735721,12.835067,-6.2437143,-1
1115,1116,1583936840691,2.8186998,3.1666,-5.559,4.7535534,12.6984625,-6.4854136,-1
1116,1117,1583936840701,2.8058999,2.9645,-5.9168997,4.811091,12.374633,-6.9351497,-1
1117,1118,1583936840711,2.872,2.6831,-6.2443,4.8130445,12.078077,-7.1517963,-1
1118,1119,1583936840722,2.846,2.3602,-6.3596997,4.9140315,11.765893,-7.062386999999999,-1
1119,1120,1583936840732,3.0077,2.0553,-6.1769,5.1140532,11.394082000000001,-6.670897,-1
1120,1121,1583936840742,3.1548998,1.7386999,-5.8592997,5.135687,11.108243,-6.3925089999999996,-1
1121,1122,1583936840752,3.1424,1.3319,-5.5806,5.1491137,10.656276,-6.1524763,-1
1122,1123,1583936840762,3.222,0.8619,-5.4646,5.2556652999999995,10.04969,-5.9502807,-1
1123,1124,1583936840772,3.343,0.3473,-5.3104,5.2772703000000005,9.565525,-5.7022129999999995,-1
1124,1125,1583936840782,3.352,-0.1716,-5.104,5.2087392999999995,9.103617,-5.3766300000000005,-1
1125,1126,1583936840792,3.3077,-0.7014,-4.6891,5.0529532,8.658133,-4.7759730000000005,-1
1126,1127,1583936840802,3.0707,-1.1728,-4.0666,4.610494999999999,8.131044000000001,-3.79231,-1
1127,1128,1583936840813,2.7272,-1.5752,-3.3219,4.31461,7.84238,-3.032611,-1
1128,1129,1583936840822,2.5096998,-1.8589,-2.6454,4.191117299999999,7.7342770000000005,-2.5834968,-1
1129,1130,1583936840832,2.3384,-2.0137,-2.0209,3.9379447,7.5828586,-1.8652842,-1
1130,1131,1583936840842,2.1948,-2.0888999,-1.6478,3.8828397000000003,7.5813165,-1.7730693,-1
1131,1132,1583936840852,2.1878998,-2.0948,-1.7468,3.6169589,7.656225999999999,-2.0108995,-1
1132,1133,1583936840863,1.9181999,-2.0026999,-2.0054,3.293052,7.827335000000001,-2.2126255,-1
1133,1134,1583936840873,1.6314,-1.7931,-2.2212,2.8131871,8.07049,-2.3473232000000004,-1
1134,1135,1583936840883,1.1493,-1.5735999,-2.3102,2.3688135,8.307955999999999,-2.2668493,-1
1135,1136,1583936840893,0.76449996,-1.3539,-2.1883,1.9921482,8.539055000000001,-2.0787418,-1
1136,1137,1583936840904,0.46429998,-1.1137999,-1.9937999,1.7599968000000001,8.753737,-1.9691447,-1
1137,1138,1583936840914,0.247,-0.9414,-1.9247999,1.5600331,8.794439,-1.9719124,-1
1138,1139,1583936840927,0.0817,-0.9249,-1.8587999,1.2651728000000002,8.852666000000001,-1.329711,-1
1139,1140,1583936840937,-0.1609,-0.8581,-1.2645998999999999,1.0464289,9.021773,-0.831535,-1
1140,1141,1583936840947,-0.5362,-0.24839999,-0.129,0.90749824,9.524604,-0.014623783999999999,-1
1141,1142,1583936840957,-0.4626,0.0887,0.4777,1.1058913000000001,9.936598,0.8196405999999999,-1
1142,1143,1583936840967,-0.1638,0.39819998,1.1682,1.5697632,10.197067,1.5318198,-1
1143,1144,1583936840978,0.4894,0.6114,1.7684,2.1935582,10.351561,2.0293636000000004,-1
1144,1145,1583936840988,1.1877999,0.7865,2.2575998,2.8667214,10.468321000000001,2.5524776,-1
1145,1146,1583936840998,1.3593,0.7166,2.7301,2.959377,10.366856,3.0900047,-1
1146,1147,1583936841008,1.0275999,0.56799996,3.3393,2.4463763,10.207957,3.9626144999999995,-1
1147,1148,1583936841018,0.3489,0.5173,4.0199,1.8030733,10.169573,4.7193255,-1
1148,1149,1583936841028,-0.2092,0.5451,4.7216997,1.4113053,10.232579,5.506702,-1
1149,1150,1583936841039,-0.35689998,0.74009997,5.5394998,1.4252778,10.443211,6.2275295,-1
1150,1151,1583936841049,-0.0569,1.0141,6.1426997000000005,1.9854923,10.756267999999999,6.863601700000001,-1
1151,1152,1583936841059,0.56549996,1.2881,6.3441,2.6009648,10.987288000000001,7.0172234,-1
1152,1153,1583936841069,0.91789997,1.4631,6.4526,2.8328674,11.170981,7.201519500000001,-1
1153,1154,1583936841079,0.99609995,1.6754999,6.5817,2.8376462000000005,11.365753999999999,7.3123803,-1
1154,1155,1583936841090,0.9187,1.8860999,6.6109,2.753495,11.579968,7.427158400000001,-1
1155,1156,1583936841099,0.8308,2.1543999,6.8794,2.7097096,11.907523,7.854935,-1
1156,1157,1583936841109,0.8757,2.5893,7.3648,2.8092415,12.367526,8.500719,-1
1157,1158,1583936841119,1.0914999,3.054,7.9683,3.0706306,12.794557000000001,9.071688,-1
1158,1159,1583936841129,1.3418,3.4204,8.323,3.3285148,13.180857000000001,9.361932000000001,-1
1159,1160,1583936841139,1.7472999,3.8637998,8.2603,3.7427788,13.654333,9.212457,-1
1160,1161,1583936841150,2.1741,4.2845,7.8866,4.083177,14.010179,8.756189,-1
1161,1162,1583936841160,2.3923,4.6317997,7.2855,4.1609116,14.354273999999998,8.143341,-1
1162,1163,1583936841170,2.4636,4.8656,6.5877,4.1122713,14.524693,7.3884296,-1
1163,1164,1583936841180,2.4373999,4.9470997,5.7843,3.8896391,14.612511999999999,6.5499325,-1
1164,1165,1583936841190,2.2138,4.995,4.9315,3.4895873,14.622051,5.620915,-1
1165,1166,1583936841200,1.7988,4.8938,3.9539999999999997,2.8042421,14.47497,4.3559339999999995,-1
1166,1167,1583936841211,1.4548999,4.687,2.8975,2.4796650000000002,14.283607,3.4696962999999994,-1
1167,1168,1583936841221,1.2602999,4.5287,2.0344,2.3521116,14.211254,2.7287388,-1
1168,1169,1583936841231,1.4767,4.4749,1.6646999,2.4803355,14.135183999999999,2.5116804,-1
1169,1170,1583936841241,1.6583999,4.317199700000001,1.5124999,2.5875287,13.978825,2.5109142999999996,-1
1170,1171,1583936841251,1.9756,4.1914997000000005,1.6056,2.9111483,13.904479,2.5881990000000004,-1
1171,1172,1583936841261,2.451,4.0868,1.5522,3.1903408,13.711295999999999,2.5069783,-1
1172,1173,1583936841271,2.8170998,3.8253998999999994,1.4489,3.3205183,13.337973999999999,2.3318757999999997,-1
1173,1174,1583936841281,2.9410000000000003,3.3678,1.2619,3.0518506000000003,12.820175,2.1712537,-1
1174,1175,1583936841291,2.707,2.8027,1.2386999,2.5816482999999995,12.183316,2.2599542,-1
1175,1176,1583936841301,2.3683,2.0914,1.3503,1.9370146000000001,11.419883,2.2124627,-1
1176,1177,1583936841311,1.8332,1.3330000000000002,1.2937,1.1768553999999998,10.654974000000001,2.0817966,-1
1177,1178,1583936841321,1.2247,0.5869,1.2839,0.306295,9.8711405,1.9771892,-1
1178,1179,1583936841331,0.4118,-0.22469999,1.1733999,-1.0006325999999999,9.044509,1.5945,-1
1179,1180,1583936841342,-0.7162,-1.0623,0.8447,-2.3256125,8.04265,0.9666541999999999,-1
1180,1181,1583936841352,-1.5093,-1.828,0.3935,-2.637098,7.591372,0.34229422,-1
1181,1182,1583936841362,-1.5139999,-2.2475,-0.0574,-2.5095065,7.2173977,-0.23014024,-1
1182,1183,1583936841373,-1.1918,-2.6155999,-0.51629996,-2.1802080000000004,6.876137700000001,-0.8905472,-1
1183,1184,1583936841383,-0.7165,-2.8637,-1.0093,-1.9096727,6.7574716,-1.3564398000000002,-1
1184,1185,1583936841393,-0.369,-2.9823,-1.3176999,-1.9336243999999998,6.4840727,-1.7117968000000001,-1
1185,1186,1583936841403,-0.3791,-3.2654998,-1.5330000000000001,-2.5154824000000002,6.069866,-1.7937262999999999,-1
1186,1187,1583936841413,-0.9119,-3.6648998,-1.4798,-3.156975,5.562353,-1.8481512999999998,-1
1187,1188,1583936841424,-1.3835,-4.1521,-1.4698,-3.3967497000000004,5.2325277,-1.9122394,-1
1188,1189,1583936841434,-1.4562,-4.4347997,-1.4426999,-3.1741464,4.8912873,-1.9296403999999998,-1
1189,1190,1583936841444,-0.99539995,-4.7592,-1.4869,-2.0517352,4.817277400000001,-2.2845569,-1
1190,1191,1583936841454,0.32369998,-4.7335,-1.79,-0.7536851,4.979173,-2.4833617,-1
1191,1192,1583936841464,1.4181,-4.5856,-1.8966999,-1.132036,4.661166000000001,-2.2283313,-1
1192,1193,1583936841475,1.0788,-4.8894,-1.6402999,-2.4318004,4.0550785000000005,-1.79817,-1
1193,1194,1583936841485,-0.1286,-5.4677,-1.2202,-3.3719075,3.5996919000000003,-1.1472726999999998,-1
1194,1195,1583936841495,-0.97669995,-5.9066997,-0.5906,-3.8614545,3.2383300999999998,-0.7356233,-1
1195,1196,1583936841505,-1.5231999,-6.5207996,-0.2504,-4.084651999999999,2.9492637999999998,-0.78435004,-1
1196,1197,1583936841515,-1.5231999,-6.5207996,-0.2504,-4.139747,2.662879,-0.97739935,-1
1197,1198,1583936841525,-1.6216999,-7.0934,-0.63989997,-4.312455,2.3341072,-1.1753902,-1
1198,1199,1583936841536,-1.6653999,-7.4238,-0.91359997,-4.396855400000001,1.9856647,-1.4470747,-1
1199,1200,1583936841546,-1.3816,-7.6608996,-1.1944,-4.149832,1.7497688999999998,-1.7319081000000003,-1
1200,1201,1583936841556,-1.3476,-7.9519,-1.1248,-4.132124,1.447563,-1.6347897,-1
1201,1202,1583936841567,-1.4542999,-8.257299,-0.7165,-4.2331977,1.1448018999999998,-1.1968039,-1
1202,1203,1583936841578,-1.3787,-8.5082,-0.25059998,-4.09397,0.85109085,-0.5858036999999999,-1
1203,1204,1583936841588,-1.1596999,-8.7239,0.1419,-3.8633509,0.6654444,-0.148814,-1
1204,1205,1583936841598,-1.0399,-8.9325,0.54499996,-3.6818225,0.4760439,0.39708313,-1
1205,1206,1583936841608,-0.8907,-9.0159,0.87549996,-3.4590468,0.4075506,0.72672635,-1
1206,1207,1583936841618,-0.78059995,-9.1404,1.0977,-3.3666977999999994,0.23847206,0.90407926,-1
1207,1208,1583936841629,-0.68909997,-9.3548,1.1352999,-3.0447924,0.08251377,0.877676,-1
1208,1209,1583936841639,-0.2349,-9.472799,0.98899996,-2.3743203,0.08521442,0.7223115,-1
1209,1210,1583936841649,0.436,-9.297999,0.93219995,-1.7580718999999998,0.26982653,0.744568,-1
1210,1211,1583936841659,0.81839997,-9.1329,1.1201,-1.3851702,0.5010777,1.0573658000000001,-1
1211,1212,1583936841669,0.9338,-8.957499499999999,1.5819999999999999,-1.2580668,0.6626863000000001,1.5191785,-1
1212,1213,1583936841679,0.8207,-8.9284,1.9488,-1.379903,0.65246785,1.7068839,-1
1213,1214,1583936841690,0.4262,-8.9677,1.8621,-1.647747,0.65951633,1.2547628,-1
1214,1215,1583936841700,0.1537,-8.811999,1.2023,-1.7809892,0.95710605,0.6002742,-1
1215,1216,1583936841710,-0.0716,-8.4763,0.97249997,-1.7152827000000002,1.3257173999999998,0.5336196999999999,-1
1216,1217,1583936841720,-0.029199999,-8.2512,1.1028,-1.4128089,1.6033393999999999,0.6001593000000001,-1
1217,1218,1583936841730,0.16139999,-7.8959,1.1826999,-0.74454886,2.186385,0.41901404,-1
1218,1219,1583936841740,0.89479995,-7.2169,0.8390000000000001,0.5900941,3.2068223999999996,-0.28015992,-1
1219,1220,1583936841751,1.9791,-6.0737996,0.1683,1.9095482,4.3293777,-1.0191063,-1
1220,1221,1583936841761,2.8871,-4.9447,-0.5642,2.7379324,5.524198999999999,-1.9008237000000001,-1
1221,1222,1583936841771,3.2561998,-3.8188,-1.5544,3.3504746,6.5748515,-3.104475,-1
1222,1223,1583936841781,3.5733,-2.8135,-2.7391,4.0683136,7.5707816999999995,-3.9226120000000004,-1
1223,1224,1583936841791,4.058799700000001,-1.7621,-3.2289999,4.6952977,8.772862,-3.5679160000000003,-1
1224,1225,1583936841802,4.2664,-0.54719996,-2.4679,4.9592633,9.763066,-2.3645232000000003,-1
1225,1226,1583936841812,3.9246998,0.3798,-1.2109,4.409621700000001,10.669387,-0.7313903,-1
1226,1227,1583936841822,2.9631998999999998,1.2452999,0.4344,4.0860405,11.602656,1.2767224,-1
1227,1228,1583936841832,2.7477,2.0414,1.7439,4.770619,12.209241,1.9434692999999998,-1
1228,1229,1583936841842,3.5867998999999995,3.0353,2.1634,6.4596615,13.477085999999998,1.9641168999999998,-1
1229,1230,1583936841852,4.777,4.0797,1.8342999,7.7387586,14.328052,1.6786994,-1
1230,1231,1583936841863,6.0316,5.2116,1.3300999,9.337616,15.723623000000002,1.0442837,-1
1231,1232,1583936841873,6.9093,6.4674,0.6019,9.667595,16.692985999999998,0.5644474,-1
1232,1233,1583936841883,6.836,7.4298,0.064399995,9.046807000000001,17.205807,0.46450385,-1
1233,1234,1583936841893,5.8462996,7.9090996,-0.1836,7.5954614000000005,17.290627,0.029726408,-1
1234,1235,1583936841903,4.1716,7.9624996,-0.7576,6.671241800000001,17.084967000000002,-0.025455152999999998,-1
1235,1236,1583936841914,3.3458,7.8269997,-0.78679997,6.792896000000001,16.874113,0.30962774,-1
1236,1237,1583936841924,3.4717998999999997,7.6726,-0.5689,7.202755000000001,16.613595999999998,0.29618192,-1
1237,1238,1583936841934,3.6650998999999995,7.4519997,-0.7283,7.4970694,16.349323000000002,0.21411824,-1
1238,1239,1583936841944,3.8897998,7.3041,-0.7732,7.995609,16.320373999999997,0.8652931999999999,-1
1239,1240,1583936841954,4.1685,7.3673997,-0.13229999,7.803795,16.123743,1.6950566000000002,-1
1240,1241,1583936841964,3.7932,7.246299700000001,0.40449998,7.6353965,15.942768,2.022133,-1
1241,1242,1583936841974,3.5419,7.1228,0.6728,7.971762700000001,15.780029999999998,2.3076658,-1
1242,1243,1583936841985,3.7554,7.0424,0.774,7.960098299999999,15.48471,2.4212081000000003,-1
1243,1244,1583936841995,3.6606998,6.8048,0.8074,7.6855984,14.992854000000001,2.4059334,-1
1244,1245,1583936842005,3.3191998,6.3589997,0.7391,6.862424000000001,14.232466,2.2292602,-1
1245,1246,1583936842015,2.447,5.6370997,0.5093,6.117607,13.525181,2.0119338,-1
1246,1247,1583936842026,1.6676999,4.946399700000001,0.2651,5.5128026,12.816229,1.9035819,-1
1247,1248,1583936842036,1.0321,4.2625,0.10969999400000001,5.23022,12.129734,2.186184,-1
1248,1249,1583936842046,0.7308,3.5983,0.3551,5.422206,11.642764,2.626851,-1
1249,1250,1583936842056,1.6624999,2.891,0.9758,6.440508,11.34415,2.8916116,-1
1250,1251,1583936842066,2.6557,2.7646,0.8502,7.2418759999999995,11.22803,2.7833745,-1
1251,1252,1583936842076,3.0324,2.6088998,0.7897,7.589332000000001,11.011460000000001,2.7671897,-1
1252,1253,1583936842087,2.4930000000000003,2.214,0.9287,6.936136200000001,10.574624,2.883165,-1
1253,1254,1583936842097,1.6723,1.7576,0.92539996,6.102734,10.170751,2.7758567000000003,-1
1254,1255,1583936842107,0.8979,1.4211999,0.7048,5.3182116,9.848078999999998,2.4727125,-1
1255,1256,1583936842117,0.1454,1.0823,0.2764,4.553273,9.525408,1.9657353,-1
1256,1257,1583936842128,-0.3823,0.79459995,-0.1378,4.0992084,9.288085,1.5095251,-1
1257,1258,1583936842138,-0.41439998,0.6105,-0.4287,4.1234665,9.129513000000001,1.2218665000000002,-1
1258,1259,1583936842148,-0.353,0.452,-0.4037,4.183341,9.012713,1.3016508999999998,-1
1259,1260,1583936842158,0.0092,0.3768,-0.16899999999999998,4.693918,8.935994,1.6072658000000002,-1
1260,1261,1583936842168,0.39999998,0.29369998,0.1169,4.9326973,8.83062,1.8648725,-1
1261,1262,1583936842178,0.46019998,0.25759998,0.3863,4.941508,8.83946,2.0679295,-1
1262,1263,1583936842188,0.5828,0.2272,0.5202,5.072126,8.815585,2.1045130000000003,-1
1263,1264,1583936842198,0.6304,0.1925,0.4233,4.9887885999999995,8.797283,1.9748429,-1
1264,1265,1583936842208,0.6304,0.1925,0.4233,4.624496499999999,8.672277000000001,1.8289403000000002,-1
1265,1266,1583936842218,-0.0262,-0.0733,0.2235,4.235237000000001,8.542368,1.6874334,-1
1266,1267,1583936842228,-0.25329998,-0.1428,0.153,4.08628,8.520073,1.6148028,-1
1267,1268,1583936842238,-0.2668,-0.21869999,0.19749999,4.1073966,8.484552,1.7371273999999997,-1
1268,1269,1583936842248,0.0497,-0.20279999,0.4181,4.5715365,8.579344,1.9271983,-1
1269,1270,1583936842258,0.53139997,-0.067499995,0.6041,4.9451566,8.675457000000002,2.0728136999999998,-1
1270,1271,1583936842268,0.6537,0.0168,0.723,4.806896,8.737333,2.1531724999999997,-1
1271,1272,1583936842278,0.24329999,-0.06,0.70269996,4.332356,8.673714,2.0706205,-1
1272,1273,1583936842288,-0.3868,-0.1803,0.5065,3.6160586,8.535847,1.7720923,-1
1273,1274,1583936842299,-0.7614,-0.2823,0.27989998,3.3241289,8.495576,1.5250393999999998,-1
1274,1275,1583936842309,-0.8558,-0.324,0.13759999,3.2502246,8.504971000000001,1.3697419,-1
1275,1276,1583936842319,-0.9163,-0.3137,0.024,3.1504822,8.4988985,1.1351773,-1
1276,1277,1583936842329,-0.9823,-0.4172,-0.3224,3.1080856,8.423156,0.73705024,-1
1277,1278,1583936842339,-0.7697,-0.36859998,-0.6354,3.5539722,8.588327,0.40349959999999996,-1
1278,1279,1583936842349,-0.13159999,-0.1972,-0.82919997,4.112712,8.714913000000001,0.37406048,-1
1279,1280,1583936842360,0.113199994,-0.1215,-0.7626,4.228419000000001,8.765948,0.5168028,-1
1280,1281,1583936842370,0.20439999,-0.1149,-0.51699996,4.1760817,8.765603,0.8524219999999999,-1
1281,1282,1583936842380,0.0638,-0.09999999400000001,-0.262,3.8747089999999997,8.718792,1.1745858,d
1282,1283,1583936842390,-0.32889998,-0.185,0.0762,3.4247042999999997,8.655613,1.4482526000000002,-1
1283,1284,1583936842400,-0.68219995,-0.28079998,0.2348,3.1054902,8.541228,1.5004078,-1
1284,1285,1583936842411,-0.9411,-0.38529998,0.2113,2.9679961,8.523731,1.4457147,-1
1285,1286,1583936842421,-0.9317,-0.389,0.1295,3.2031739,8.5655155,1.3029437,-1
1286,1287,1583936842431,-0.5573,-0.29099998,-0.012499999,3.8004315,8.707855,1.159148,-1
1287,1288,1583936842441,0.1256,-0.0923,-0.14739999,4.3252115,8.858183,1.1163971000000001,-1
1288,1289,1583936842451,0.39699998,-0.0211,-0.12619999,4.265845,8.847275,1.2288289,-1
1289,1290,1583936842461,0.2997,-0.049799997,-0.0356,4.2506657,8.938015,1.2801797,-1
1290,1291,1583936842472,0.33269998,0.076699995,-0.020399999,4.3428617,9.063317,1.2596756000000002,-1
1291,1292,1583936842482,0.41700000000000004,0.2016,-0.059699997000000005,4.287977,9.154566,1.2979159,-1
1292,1293,1583936842492,0.22,0.27539998,0.07200000000000001,3.9833674,9.208885,1.4670518999999997,-1
1293,1294,1583936842502,0.22,0.27539998,0.07200000000000001,3.667237,9.349865,1.633535,-1
1294,1295,1583936842512,-0.2571,0.4682,0.3585,3.6441376000000005,9.511607000000001,1.4447666000000001,-1
1295,1296,1583936842522,-0.2529,0.7,0.0568,3.7374157999999995,9.889000999999999,1.1612548999999999,-1
1296,1297,1583936842532,-0.13319999,1.0313,-0.1104,3.9125662000000005,10.225923,1.0718458,-1
1297,1298,1583936842543,0.0622,1.5016999,-0.1461,4.0552220000000005,10.7488165,1.2469959,-1
1298,1299,1583936842553,0.1793,2.0216,0.100099996,4.1138325,11.321145,1.5082513000000002,-1
1299,1300,1583936842563,0.1907,2.4914,0.3272,4.011169000000001,11.808404,1.8257703999999997,-1
1300,1301,1583936842573,0.1072,2.9298,0.6178,3.9597510000000002,12.230022,2.0154867,-1
1301,1302,1583936842583,0.065299995,3.4053,0.7987,4.0175567,12.752322,1.9271696,-1
1302,1303,1583936842593,0.1723,3.9176998,0.6871,4.232958,13.158732999999998,1.6872323,-1
1303,1304,1583936842604,0.5462,4.4083,0.38,4.990952500000001,13.779292000000002,1.3492858,-1
1304,1305,1583936842614,1.2673,4.9357,0.1979,5.7789135,14.345282000000001,1.2207556,-1
1305,1306,1583936842624,1.9375,5.3617,0.1549,6.019751,14.59809,1.2606525,-1
1306,1307,1583936842634,2.2187997999999998,5.6063,0.226,5.9649525,14.687757000000001,1.4194263999999999,-1
1307,1308,1583936842644,2.2117999,5.6689,0.4285,5.912155,14.686569,1.580087,-1
1308,1309,1583936842654,2.2278,5.6386,0.61869997,5.886508999999999,14.657934,1.7827226000000003,-1
1309,1310,1583936842664,2.2745,5.5748,0.86179996,6.0133443,14.563382999999998,1.9314599,-1
1310,1311,1583936842675,2.7101998,5.319,1.0623,6.132862599999999,14.487687,1.8808657,-1
1311,1312,1583936842685,2.7470999,5.2254996,0.99359995,6.0666294,14.433148000000001,1.7488877,-1
1312,1313,1583936842695,2.4234,5.0603,0.86609995,5.6244016,14.325629000000001,1.5416265,-1
1313,1314,1583936842705,2.4234,5.0603,0.86609995,5.05529,14.098935999999998,1.467866,-1
1314,1315,1583936842715,1.7077,4.4523,0.9011,4.652547,13.800188,1.4016231000000001,-1
1315,1316,1583936842725,1.8105999,4.1596,0.8824,4.613167,13.564186,1.2946311000000001,-1
1316,1317,1583936842736,2.3281999,3.928,0.638,4.983272599999999,13.375734,0.9643174000000001,-1
1317,1318,1583936842745,2.6072,3.5607998,0.3417,5.1140056,13.052719,0.5840703,-1
1318,1319,1583936842755,2.4062,3.0867,0.0368,4.749426000000001,12.620650999999999,0.19826864,-1
1319,1320,1583936842766,2.1457999,2.6141999,-0.122499995,4.317895,12.182943,-0.055373095,-1
1320,1321,1583936842776,2.1457999,2.6141999,-0.122499995,3.9425702000000005,11.757925,-0.13497551,-1
1321,1322,1583936842786,1.8149998999999999,1.6579,0.0609,3.55787,11.164288,0.13005304,-1
1322,1323,1583936842796,1.6129,1.1062,0.2963,3.1422079,10.674194,0.28049508,-1
1323,1324,1583936842807,1.2348,0.5383,0.3962,2.6908432999999996,10.251608000000001,0.33633748,-1
1324,1325,1583936842817,0.8452,-0.1239,0.48119998,1.9634465,9.484937,0.43892420000000004,-1
1325,1326,1583936842827,0.2359,-0.7823,0.60389996,1.1818354,8.828609,0.5331216999999999,-1
1326,1327,1583936842838,-0.3821,-1.5054,0.80609995,0.31116003,7.995906,0.7764109,-1
1327,1328,1583936842848,-0.7697,-2.1557,0.9727,-0.07507259,7.403753,0.9023841999999999,-1
1328,1329,1583936842858,-0.49949998,-2.6748998,0.96849996,0.30003178,7.0663137,0.7706265,-1
1329,1330,1583936842868,0.5857,-2.8674998,0.5466,1.3041695,6.869472,0.23703554,-1
1330,1331,1583936842878,1.1739,-3.1957,-0.1822,1.3890584,6.4071517,-0.7156939,-1
1331,1332,1583936842888,0.4829,-3.7487,-0.8038,0.3089382,5.800356,-1.1362115,-1
1332,1333,1583936842899,-0.5269,-4.4182997,-0.8684,-0.77528083,5.146145,-0.9718351999999999,-1
1333,1334,1583936842909,-1.3938999,-4.8808,-0.40039998,-1.5854691,4.778032,-0.41660067,-1
1334,1335,1583936842919,-1.8934,-5.3027,0.0081,-2.1631994,4.368365,-0.1628057,-1
