,Seq,Time,ACCx,ACCy,ACCz,ADGx,ADGy,ADGz,Keydown
0,1,1583937500743,-0.3633,-0.3762,0.64959997,2.0029795,8.5762415,1.9559095000000002,-1
1,2,1583937500754,-1.2894,-0.24589999,0.6756,-3.1339526,9.392903,-0.42421424,-1
2,3,1583937500764,-0.032899998,0.100499995,-0.0039999996999999995,-2.8391113,9.505527,-0.26047,-1
3,4,1583937500774,0.1846,0.1699,0.12019999,-2.839255,9.659253999999999,-0.2714067,-1
4,5,1583937500784,0.16239999,0.3195,0.1069,-2.6701764999999997,9.739516,-0.34088644,-1
5,6,1583937500794,0.3078,0.38779998,0.0347,-2.1120691000000003,9.893396000000001,-0.18488984,-1
6,7,1583937500804,0.81619996,0.5286,0.18349999,-1.5659994,10.053358,0.0073645646,-1
7,8,1583937500814,1.2858,0.6635,0.3459,-1.4588254999999999,10.126209,0.16584156,-1
8,9,1583937500825,1.3172,0.7184,0.4851,-1.6752995,10.146723,0.24473529,-1
9,10,1583937500835,1.0393,0.7166,0.5459,-1.8863436000000002,10.150784,0.09995313,-1
10,11,1583937500845,0.759,0.6979,0.3861,-1.865562,10.135221000000001,0.050824113,-1
11,12,1583937500855,0.71459997,0.6702,0.3276,-1.6878259999999998,10.197642,-0.03921702,-1
12,13,1583937500865,0.8226,0.71059996,0.25669998,-1.6313802,10.201933,-0.21993136,-1
13,14,1583937500876,0.73569995,0.65709996,-0.1753,-1.6286988000000002,10.175137,-0.49799395,-1
14,15,1583937500886,0.79749995,0.6421,-0.4398,-1.512628,10.174035,-0.7903068,-1
15,16,1583937500896,0.80109996,0.5789,-0.49409997,-1.4454945,10.131304,-0.88233995,-1
16,17,1583937500906,0.6799,0.5266,-0.4612,-1.5259969999999998,10.063289,-0.8936693000000001,-1
17,18,1583937500916,0.4842,0.44619998,-0.4901,-1.6429968999999998,10.021765,-0.94545114,-1
18,19,1583937500927,0.4276,0.40559998,-0.4364,-1.6343013000000002,9.9861965,-0.9068853000000001,-1
19,20,1583937500937,0.4211,0.3849,-0.3216,-1.5768499,10.00308,-0.7722641,-1
20,21,1583937500947,0.4069,0.41349998,-0.049599998,-1.5427756000000001,10.016497,-0.4966915,-1
21,22,1583937500957,0.3172,0.3347,0.2332,-1.5901139,9.985756,-0.19388245,-1
22,23,1583937500967,0.3786,0.4526,0.57699996,-1.448741,10.085181,0.15751931,-1
23,24,1583937500977,0.415,0.5323,0.6917,-1.4004738,10.162811,0.23682486,-1
24,25,1583937500987,0.4089,0.5153,0.74729997,-1.3929465,10.152431,0.31227094,-1
25,26,1583937500997,0.17629999,0.46089998,0.687,-1.6072277,10.0982065,0.22624248,-1
26,27,1583937501007,0.0206,0.4375,0.56079996,-1.7608970000000002,10.075347,0.07019799,-1
27,28,1583937501018,-0.0894,0.4253,0.42729998,-1.8266131,10.0666895,0.00752737,-1
28,29,1583937501028,-0.1453,0.3454,0.4411,-1.8960354,10.00261,0.04884171,-1
29,30,1583937501038,-0.2847,0.3349,0.57159996,-2.0349088,9.9981,0.18706377,-1
30,31,1583937501048,-0.4193,0.23699999,0.6719,-2.1855900000000004,9.880305,0.28168259999999995,-1
31,32,1583937501058,-0.68619996,0.041899998,0.69339997,-2.5427475,9.633712,0.33543724,-1
32,33,1583937501068,-0.9878,-0.1033,0.7931,-2.7603326,9.515094,0.41739553,-1
33,34,1583937501079,-1.0618,-0.2579,0.7847,-2.827332,9.32305,0.35326925,-1
34,35,1583937501089,-0.9887,-0.3734,0.6389,-2.6650243,9.26083,0.21225077,-1
35,36,1583937501099,-0.82799995,-0.48889998,0.50119996,-2.652038,9.060339,0.12159672,-1
36,37,1583937501110,-1.0260999,-0.77059996,0.4764,-3.0902631,8.598134,0.4076368,-1
37,38,1583937501120,-1.4492999,-1.2271999,0.9898,-3.3851042000000002,8.225844,0.99935895,-1
38,39,1583937501130,-1.6838,-1.6916,1.7414,-3.6846094,7.738146,1.7758751,-1
39,40,1583937501140,-2.0182,-2.1232998,2.4615,-4.005241000000001,7.3847046,2.5538757000000003,-1
40,41,1583937501150,-1.9311999,-2.3622,3.0167,-3.6431801,7.1653,3.1059692,-1
41,42,1583937501160,-1.2188,-2.4724,3.0558999,-2.9419758,7.0711985,2.9091084,-1
42,43,1583937501171,-0.2638,-2.5815,2.7378,-1.9594721999999998,6.903307000000001,2.4365885,-1
43,44,1583937501181,0.28939998,-2.7907999,2.2574,-1.6079171,6.6511307,2.0638976,-1
44,45,1583937501191,0.4709,-3.0586,1.9779999,-1.6446441000000003,6.3402486,1.8195646,-1
45,46,1583937501201,0.3423,-3.3843,1.8359,-1.6580997,6.041796700000001,1.6852115,-1
46,47,1583937501212,0.40129998,-3.6309,1.7979,-1.6825778000000002,5.8782252999999995,1.6292733999999998,-1
47,48,1583937501222,0.2582,-3.8384998,1.8017,-1.9641073,5.581487,1.4260631000000001,-1
48,49,1583937501232,-0.078,-4.1622,1.5716,-2.2756314,5.314534,1.2822195,-1
49,50,1583937501242,-0.28759998,-4.3498,1.5260999,-2.2761867000000002,5.1273556,1.1150947,-1
50,51,1583937501252,-0.2698,-4.5684,1.3778,-2.2288007999999997,4.9089084000000005,1.0218836,-1
51,52,1583937501262,-0.24679999,-4.7306,1.4879999,-1.9738756000000002,4.911168599999999,1.2320944999999999,-1
52,53,1583937501273,0.1778,-4.7281,1.6868999,-1.2690705,4.827036,1.2568218,-1
53,54,1583937501283,0.69159997,-4.7763,1.7136999,-0.72893864,4.898316400000001,1.1881561,-1
54,55,1583937501293,1.1611,-4.7269998,1.6693,-0.38752547,4.8928769999999995,0.9869378000000001,-1
55,56,1583937501303,1.3738999,-4.7657,1.4383999,-0.23863487,4.732226,0.45399812,-1
56,57,1583937501314,1.4503,-4.9901,0.88449997,-0.16765158,4.408415,-0.28034186,-1
57,58,1583937501324,1.4311,-5.3314,0.19139999,-0.17624198,3.8207629,-1.3026084999999998,-1
58,59,1583937501334,1.3764,-5.8584,-0.6561,-0.06583097,3.6460532999999997,-1.7764401,-1
59,60,1583937501344,1.4014,-6.0329,-1.1175,-0.42262447,3.8194315000000003,-1.3389142,-1
60,61,1583937501354,0.95629996,-5.8262,-0.4966,-0.64322627,3.9355311,-0.30447543,-1
61,62,1583937501364,0.6932,-5.7585998,0.45319998,-0.6126666000000001,4.2991147000000005,0.26511475,-1
62,63,1583937501375,0.7140000000000001,-5.4179,0.7949,-0.045604754000000004,4.5993667,0.05152322,-1
63,64,1583937501385,1.2031,-5.1268,0.5318,0.8200811,5.181129,-0.3780349,-1
64,65,1583937501395,2.3569999,-4.1015,-0.6259,1.3209577,5.648736,-1.0674309,-1
65,66,1583937501406,2.3532999,-3.6309,-1.5968,1.3986351000000001,6.1227493,-2.025514,-1
66,67,1583937501416,2.3941998,-3.1594,-2.8035997999999998,1.5363114,6.609700999999999,-3.2298355,-1
67,68,1583937501426,2.3941998,-3.1594,-2.8035997999999998,2.0738957,7.147372200000001,-4.6283083,-1
68,69,1583937501436,3.3887,-2.333,-5.3025,2.7502673,7.451282000000001,-5.741640599999999,-1
69,70,1583937501446,3.5804,-2.1251,-6.3845,3.072594,7.690520299999999,-6.97203,-1
70,71,1583937501456,3.0789999999999997,-2.1227999,-7.0678997,2.5127146000000002,7.653936999999999,-7.555181,-1
71,72,1583937501467,2.1352,-2.2279,-7.5311,1.8628613,7.587484,-7.884479499999999,-1
72,73,1583937501477,2.4120998,-2.1062,-7.6015,2.6046902999999997,7.748614,-7.7281766,-1
73,74,1583937501487,3.7368998999999996,-1.6272999,-7.2339997,4.2157393,8.345966,-7.0623493,-1
74,75,1583937501497,5.2264,-0.7574,-6.3992,5.883808,9.2461,-5.9980116,-1
75,76,1583937501507,6.4343996,0.182,-5.7349,7.194384599999999,10.135575,-5.175306299999999,-1
76,77,1583937501517,6.8136997,1.0149,-5.3403,7.598650500000001,10.930277,-4.5553517,-1
77,78,1583937501528,6.4873,1.6414,-5.2629,7.431075,11.464041,-4.3144089999999995,-1
78,79,1583937501538,6.2662997,2.1385999,-5.3785,7.495201600000001,11.984301,-4.173831,-1
79,80,1583937501548,6.2532997,2.5942,-5.2939,7.7091284,12.306264,-3.8437376000000003,-1
80,81,1583937501558,6.398,3.1252,-4.7844996,8.102525,12.964708,-2.9171336,-1
81,82,1583937501568,6.6808996,3.9657998,-4.3473,8.638366,13.644737,-2.5596217999999995,-1
82,83,1583937501578,7.3468,5.0055,-4.268399700000001,9.448105,14.634749,-2.411057,-1
83,84,1583937501588,7.7819996,5.9666,-4.6110997000000005,10.147048,15.535773,-2.6867826,-1
84,85,1583937501599,8.03,6.6117,-4.9659,10.459328999999999,16.085981,-3.0064855,-1
85,86,1583937501609,7.8973,7.0076,-5.4131,10.209336,16.265612,-3.3301237,-1
86,87,1583937501619,6.8657,7.0368,-5.568,9.046836,16.128895,-3.1783984,-1
87,88,1583937501629,5.3753,6.8684997999999995,-5.0126,7.631039,15.940335999999999,-2.368536,-1
88,89,1583937501640,3.8983,6.8985,-4.1643,6.619096300000001,15.997001999999998,-1.4902756000000001,-1
89,90,1583937501650,3.4027998,7.2075,-3.2993998999999996,6.64957,16.436243,-0.47052768,-1
90,91,1583937501660,3.7932,7.9044,-2.3518999,7.4816504,17.082514,0.45633483,-1
91,92,1583937501670,4.6716,8.6352,-1.3305,8.703747,17.77008,1.6670634999999998,-1
92,93,1583937501680,5.9413,9.4169,0.093399994,10.279552,18.541214,3.4039513999999995,-1
93,94,1583937501690,6.6398997,10.0476,1.4317,10.341074,18.965027,4.600601999999999,-1
94,95,1583937501701,6.2243,10.4114,2.5951998,9.840005999999999,19.115498000000002,5.74867,-1
95,96,1583937501711,5.546,10.5131,3.7250997999999997,9.293285000000001,19.132514999999998,6.859215299999999,-1
96,97,1583937501721,4.9709,10.5625,4.8508997,8.981254,19.006916,8.055214999999999,-1
97,98,1583937501731,4.8114,10.3818,5.835,9.1612215,18.627462,8.802857000000001,-1
98,99,1583937501741,5.0122,9.962299,6.6625,9.275155999999999,18.198204,9.403678,-1
99,100,1583937501751,5.0148,9.293099,7.4476,9.076007,17.369492,9.935601,-1
100,101,1583937501761,4.8301,8.403299,7.9056997,9.007475999999999,16.575537,10.202153,-1
101,102,1583937501771,4.876,7.5891,8.2446995,8.942047,15.864277,10.378491,-1
102,103,1583937501782,4.8778996,6.8827,8.526,8.789228999999999,15.192091,10.683359,-1
103,104,1583937501792,4.74,6.081,8.9309,8.421471,14.395128,11.003014,-1
104,105,1583937501802,4.375,5.1568,9.3617,7.585310000000001,13.493932000000001,11.485455499999999,-1
105,106,1583937501812,3.4380998999999997,4.1802,9.956799499999999,6.123515599999999,12.423302,12.080309,-1
106,107,1583937501822,2.4325,3.2217,10.3927,5.0003,11.565297,12.153887,-1
107,108,1583937501833,1.5468998999999999,2.3316998,10.388,4.308193,10.805588,11.686549000000001,-1
108,109,1583937501843,1.2063999,1.4626,9.8523,4.1786866,10.268051,11.187961,-1
109,110,1583937501853,1.2595999,0.7927,9.3158,4.2100887,9.706774000000001,10.621608,-1
110,111,1583937501863,1.6082,0.30249998,8.964,4.4965215,9.371738,10.402251,-1
111,112,1583937501874,2.0483,-0.0668,8.8253,4.179434,8.890083,10.073997,-1
112,113,1583937501883,1.7619999999999998,-0.6695,8.5069,3.2755072,8.474919,9.524163,-1
113,114,1583937501893,1.0746,-1.0933,7.9796,2.4846067,8.234857,8.849879,-1
114,115,1583937501903,0.3236,-1.4638,7.0874,1.4842805000000001,7.808765400000001,7.475952,-1
115,116,1583937501913,-0.1938,-1.8483,6.0175,0.80881876,7.550095599999999,6.3865523,-1
116,117,1583937501923,-0.70879996,-2.1669,4.9898,-0.120572,7.343294599999999,5.0951486,-1
117,118,1583937501933,-1.3999,-2.3895,3.7501998,-0.8355667999999999,7.112024000000001,3.782197,-1
118,119,1583937501943,-1.8004999,-2.6824,2.5551,-0.81111723,6.927077000000001,3.0274296,-1
119,120,1583937501953,-1.3176999,-2.8985,1.8578999,0.07590577,6.6277056,2.5618246,-1
120,121,1583937501963,-0.27519998,-3.1759999,1.584,1.1901864,6.4016547,2.5685569999999998,-1
121,122,1583937501974,0.89269996,-3.4182,1.7020998999999999,1.5788516000000001,6.039786,3.1024926,-1
122,123,1583937501984,1.3048999,-3.8025,2.3028,1.2996206,5.5503626,3.9942946000000004,-1
123,124,1583937501994,1.0253,-4.3101,3.1406999,0.48373409999999994,5.1166295999999996,4.7103815,-1
124,125,1583937502004,0.3259,-4.7166,3.7496998,-0.10400412,4.7476926,5.212157700000001,-1
125,126,1583937502014,0.0123,-5.0827,4.1352,-0.5585481,4.349824,5.1195884000000005,-1
126,127,1583937502025,-0.24479999,-5.3907,3.9668,-0.65984195,4.1326413,4.586457299999999,-1
127,128,1583937502035,-0.2306,-5.6914,3.2615,-0.47632164,3.7650259,3.2864537000000005,-1
128,129,1583937502045,0.0747,-5.9751,2.1845999,-0.104923494,3.540421,1.7332679,-1
129,130,1583937502055,0.7873,-6.3306,-0.47709998,0.067152575,3.4147347999999997,0.4838107,-1
130,131,1583937502066,0.48619998,-6.2425,-0.9755,-0.34212187,3.5003803,-0.122477785,-1
131,132,1583937502076,0.1892,-6.0748,-1.2421,-0.7243801,3.6612324999999997,-0.46179359999999997,-1
132,133,1583937502086,-0.0276,-5.7787,-1.581,-1.0194607,3.9598851,-0.87804955,-1
133,134,1583937502096,-0.22459999,-5.452999999999999,-1.8635999,-1.2857821000000003,4.2846345999999995,-1.2183996000000001,-1
134,135,1583937502106,-0.22459999,-5.452999999999999,-1.8635999,-1.7406805,4.626737,-1.3605865,-1
135,136,1583937502116,-1.2911,-4.8705,-2.1783,-2.6161442000000004,4.8905687,-1.8318994999999998,-1
136,137,1583937502126,-1.8991,-4.5852,-2.8014,-3.1065342,5.1451874,-2.3902178,-1
137,138,1583937502136,-1.7924999,-4.0762997,-3.4714,-3.0190883,5.6536292999999995,-3.148155,-1
138,139,1583937502146,-0.5857,-3.4915,-4.52,-1.8014548,6.248627,-4.275096400000001,-1
139,140,1583937502156,1.1772,-2.7024,-5.4393,0.008485051,7.047332300000001,-5.255311,-1
140,141,1583937502167,2.8081,-2.011,-5.8086,1.8724668000000002,7.832669,-5.6211834000000005,-1
141,142,1583937502177,3.0335,-1.5818,-5.1433,1.7795813999999999,8.221172,-4.702499400000001,-1
142,143,1583937502187,2.0714,-1.4625,-3.4004998,0.9521835999999999,8.290211,-3.2141488,-1
143,144,1583937502197,0.8089,-1.7225,-1.6413,-0.63111156,8.0001,-1.0948973,-1
144,145,1583937502207,-0.41959998,-1.8629999,-0.2769,-1.8162031000000003,7.850194999999999,0.19679381,-1
145,146,1583937502217,-0.41959998,-1.8629999,-0.2769,-2.164253,7.8595705,0.7406894,-1
146,147,1583937502227,-0.7475,-1.7329999,0.3249,-1.9994456999999999,8.054708,0.5648401,-1
147,148,1583937502238,-0.34919998,-1.4745,-0.0477,-1.6239487,8.289071,0.046916775,-1
148,149,1583937502248,-0.1038,-1.2854999,-0.6688,-1.5034726,8.478069,-0.6299431999999999,-1
149,150,1583937502258,-0.3342,-0.9887,-1.1912,-1.7910063999999999,8.7816925,-1.1914984,-1
150,151,1583937502268,-0.47379997,-0.7513,-1.4214,-1.8687031000000003,9.039538,-1.3815405,-1
151,152,1583937502278,-0.38799998,-0.564,-1.2778,-1.7622665000000002,9.227713,-1.165057,-1
152,153,1583937502288,-0.2324,-0.368,-0.9561,-1.6254523,9.376047999999999,-0.92050356,-1
153,154,1583937502299,-0.053299997,-0.2514,-0.7157,-1.381033,9.490099,-0.6078974,-1
154,155,1583937502309,0.2112,-0.115499996,-0.4121,-1.0213568000000002,9.725592,-0.37500859999999997,-1
155,156,1583937502319,0.65239996,0.098699994,-0.3615,-0.6490489,9.864024,-0.44549390000000005,-1
156,157,1583937502329,0.8038,0.2254,-0.4516,-0.5845683,10.002514999999999,-0.50638324,-1
157,158,1583937502340,0.8544,0.34329998,-0.54499996,-0.5258337,10.069878,-0.6365416,-1
158,159,1583937502350,0.8724,0.3348,-0.6051,-0.56854624,10.050438,-0.66043574,-1
159,160,1583937502360,0.69049996,0.27809998,-0.5373,-1.1057668999999999,9.904133,-0.57240576,-1
160,161,1583937502370,0.024,0.124299996,-0.5204,-1.6959376,9.761055,-0.67801875,-1
161,162,1583937502380,-0.466,-0.0393,-0.6834,-1.8767477,9.634076,-0.85888636,-1
162,163,1583937502390,-0.2575,-0.0668,-0.73469996,-1.4605589,9.668543,-0.8027854,-1
163,164,1583937502401,0.16929999,-0.0072,-0.5575,-1.1581807,9.7452345,-0.48787129999999995,d
164,165,1583937502411,0.38869998,0.0717,-0.2382,-1.0990056000000001,9.732171000000001,-0.12106999,-1
165,166,1583937502422,0.2777,-0.0449,0.17799999,-1.3934636999999999,9.593336,0.42436746,-1
166,167,1583937502432,-0.0156,-0.1218,0.6968,-1.5937146999999998,9.600615,0.7936204000000001,-1
167,168,1583937502442,-0.0832,-0.0906,0.84309995,-1.5420383,9.612729,0.56619036,-1
168,169,1583937502452,-0.0444,-0.1183,0.5117,-1.7083395000000001,9.4928665,-0.17181749999999998,-1
169,170,1583937502462,-0.2618,-0.2342,-0.1344,-2.0119243000000004,9.414392999999999,-0.6920105,-1
170,171,1583937502472,-0.5008,-0.2915,-0.5622,-1.9257905,9.402672,-1.0799477,-1
171,172,1583937502483,-0.34299999999999997,-0.2907,-0.9137,-1.6129258,9.458696,-1.3302472,-1
172,173,1583937502493,-0.0517,-0.2513,-1.0846,-1.479157,9.425685000000001,-1.2421309999999999,-1
173,174,1583937502503,0.0339,-0.2807,-0.9108,-1.5098697,9.357067,-0.90141696,-1
174,175,1583937502513,-0.006,-0.34919998,-0.5387,-1.5065466,9.319823,-0.45888227,-1
175,176,1583937502523,0.022499999,-0.359,-0.0927,-1.4526005,9.386823,-0.19339405,-1
176,177,1583937502533,0.118099995,-0.3102,0.107499994,-1.2185912,9.39594,-0.17845422,-1
177,178,1583937502543,0.32889998,-0.2814,0.114599995,-1.0647111,9.508132000000002,-0.28262115,-1
178,179,1583937502554,0.47039998,-0.2034,-0.0207,-1.0570017,9.489399,-0.5471517,-1
179,180,1583937502564,0.4464,-0.20359999,-0.2793,-0.9596631,9.607644,-0.92259127,-1
180,181,1583937502574,0.54179996,-0.0857,-0.57519996,-0.92597187,9.640914,-1.0518973,-1
181,182,1583937502584,0.581,-0.0557,-0.6863,-1.0979809999999999,9.696804,-0.9150735000000001,-1
182,183,1583937502595,0.40919998,0.0042,-0.53709996,-1.2707177,9.678455,-0.7614711,-1
183,184,1583937502605,0.2513,-0.0137,-0.3834,-1.5679339,9.610316000000001,-0.6342336,-1
184,185,1583937502615,-0.25419998,-0.117699996,-0.0288,-1.7980455000000002,9.573742,-0.4120420999999999,-1
185,186,1583937502625,-0.25419998,-0.117699996,-0.0288,-1.7814106,9.556284,-0.20458932,-1
186,187,1583937502636,-0.2411,-0.1256,0.1549,-1.711021,9.530072,-0.19015707,-1
187,188,1583937502646,-0.105,-0.124,0.0918,-1.6981306,9.561513,-0.35003229999999996,-1
188,189,1583937502656,-0.1506,-0.1329,-0.155,-1.7202244,9.550508500000001,-0.58669436,-1
189,190,1583937502666,-0.1179,-0.16139999,-0.2826,-1.6602161,9.520591,-0.7172261999999999,-1
190,191,1583937502676,-0.0365,-0.22919999,-0.3619,-1.5962238000000002,9.438077,-0.76313746,-1
191,192,1583937502686,0.015299999,-0.2775,-0.29639998,-1.524302,9.400354,-0.70181715,-1
192,193,1583937502697,0.1458,-0.2965,-0.1461,-1.4220313999999998,9.376928999999999,-0.52954,-1
193,194,1583937502707,0.1302,-0.34489998,0.011399999,-1.4926316000000002,9.302306,-0.37638766,-1
194,195,1583937502717,-0.049399998,-0.4026,0.2166,-1.6797432,9.294311,-0.16100527,-1
195,196,1583937502727,-0.1136,-0.34299999999999997,0.4037,-1.6919631000000002,9.337722,-0.007441179,-1
196,197,1583937502737,-0.0806,-0.2834,0.4181,-1.6935817,9.418703,-0.04630386,-1
197,198,1583937502747,-0.1766,-0.2434,0.281,-1.8044236,9.464250999999999,-0.21639752,-1
198,199,1583937502758,-0.1857,-0.14459999,0.1092,-1.761395,9.545250999999999,-0.36908057,-1
199,200,1583937502768,-0.16699999999999998,-0.11449999,0.0382,-1.7585987,9.570621000000001,-0.47974056,-1
200,201,1583937502778,-0.1982,-0.1041,-0.0018,-1.7960343,9.588855,-0.51066405,-1
201,202,1583937502788,-0.1423,-0.064399995,-0.0022,-1.6827694,9.614282000000001,-0.50061804,-1
202,203,1583937502798,0.010199999,-0.0346,0.037000000000000005,-1.4963856000000002,9.647953,-0.5289845000000001,-1
203,204,1583937502809,0.2795,0.06359999599999999,-0.1775,-1.184833,9.768861,-0.85066944,-1
204,205,1583937502819,0.5191,0.18159999,-0.46109998,-1.0381163,9.896691,-1.0758967,-1
205,206,1583937502829,0.604,0.2996,-0.6214,-0.9749285,10.00015,-1.2153637,-1
206,207,1583937502839,0.49609998,0.3787,-0.54249996,-1.1785219,10.088744,-1.0504129,-1
207,208,1583937502849,0.2553,0.3895,-0.26369998,-1.5145431999999999,9.990257000000001,-0.7652443,-1
208,209,1583937502860,-0.2665,0.2437,-0.0958,-2.047483,9.904678,-0.68844795,-1
209,210,1583937502870,-0.62189996,0.18609999,-0.0958,-2.1623664000000002,9.822251,-0.7074004,-1
210,211,1583937502880,-0.4139,0.16679999,-0.1258,-1.8581879000000001,9.855089999999999,-0.73491454,-1
211,212,1583937502890,-0.0438,0.2153,-0.127,-1.4489516000000002,9.91075,-0.7113556,-1
212,213,1583937502900,0.2174,0.26369998,-0.0896,-1.2815588,9.928227,-0.6666128000000001,-1
213,214,1583937502910,0.2554,0.21429999,-0.0423,-1.4442303,9.884404,-0.5713906,-1
214,215,1583937502921,0.0023,0.24399999,0.1129,-1.6227516000000002,9.922577,-0.4890109,d
215,216,1583937502931,0.0143,0.2443,0.102699995,-1.5013081,9.933485000000001,-0.5538651,-1
216,217,1583937502941,0.1431,0.25439999,0.0058999998,-1.3649535,9.914245,-0.5940015000000001,-1
217,218,1583937502951,0.2626,0.23519999,-0.0111,-1.3965665,9.846921,-0.6083092,-1
218,219,1583937502961,0.12889999,0.1183,-0.0077,-1.5734788999999998,9.741375,-0.57789326,-1
219,220,1583937502972,0.0056,0.070199996,0.015899998999999998,-1.5116319999999999,9.739229,-0.6427282,-1
220,221,1583937502982,0.1748,0.0906,-0.0968,-1.2860502,9.791269,-0.7586649999999999,-1
221,222,1583937502992,0.3827,0.1598,-0.14109999,-1.1901386,9.8682575,-0.75352234,-1
222,223,1583937503002,0.4071,0.20989999,-0.1568,-1.2564387,9.876149,-0.8195544,-1
223,224,1583937503012,0.2595,0.1626,-0.2129,-1.6737384999999998,9.7142725,-0.8678981,-1
224,225,1583937503022,-0.11889999,0.037499998,-0.2512,-2.017383,9.649151,-0.8420982,-1
225,226,1583937503033,-0.3892,-0.0189,-0.21249999,-1.9327337,9.672048,-0.8729164,-1
226,227,1583937503043,-0.2216,0.0416,-0.26299998,-1.7547008000000002,9.696928999999999,-0.8825985000000001,-1
227,228,1583937503053,-0.0963,0.032899998,-0.2557,-1.95409,9.662127,-0.88285714,-1
228,229,1583937503063,-0.32369998,-0.024699999,-0.25939998,-2.1011130000000002,9.604973,-0.8276754999999999,-1
229,230,1583937503073,-0.4042,-0.0433,-0.19569999,-1.9250052,9.628359,-0.65673906,-1
230,231,1583937503083,-0.183,-0.0132,-0.0050999997,-1.7702726999999998,9.641488,-0.5346061,-1
231,232,1583937503094,-0.0411,0.0264,0.0777,-1.7520097,9.636623,-0.5742541,-1
232,233,1583937503104,-0.0648,-0.0218,0.014699998999999998,-1.810773,9.534085000000001,-0.58883953,-1
233,234,1583937503114,-0.107099995,-0.13849999,-0.007999999,-1.8123243999999998,9.523675,-0.59864616,-1
234,235,1583937503124,-0.081,-0.1375,-0.0106999995,-1.6693428,9.507719999999999,-0.6443084,-1
235,236,1583937503135,0.051799998,-0.14649999,-0.062099997000000004,-1.6583006,9.484869,-0.6043635,-1
236,237,1583937503145,0.0554,-0.2915,0.1091,-1.6826929,9.348467,-0.47218445,-1
237,238,1583937503155,-0.0042,-0.4077,0.1372,-1.7496634999999998,9.23659,-0.4474188,-1
238,239,1583937503165,-0.0042,-0.4077,0.1372,-1.7890433000000001,9.145219,-0.5555793000000001,-1
239,240,1583937503176,-0.031999997999999995,-0.6392,-0.0092,-1.8100547999999999,8.9723,-0.5912338,-1
240,241,1583937503186,-0.0691,-0.79389995,0.02,-1.8472798,8.841805,-0.55919933,-1
241,242,1583937503196,-0.1944,-0.9683,0.117199995,-1.9804167000000001,8.675256,-0.46509764,-1
242,243,1583937503206,-0.2127,-1.1231999,0.2733,-2.0093386000000004,8.509892,-0.30095115,-1
243,244,1583937503217,-0.2127,-1.1231999,0.2733,-1.9121052,8.365446,-0.2759844,-1
244,245,1583937503226,-0.1158,-1.4627999,0.22699999999999998,-1.9258096999999998,8.166613,-0.34998440000000003,-1
245,246,1583937503236,-0.2047,-1.6961,0.0848,-2.0246421999999997,7.932105,-0.50300264,-1
246,247,1583937503246,-0.27429998,-1.9393,-0.0665,-2.1067252,7.633721,-0.6781623999999999,-1
247,248,1583937503256,-0.2764,-2.2122,-0.17,-2.1166275000000003,7.420828299999999,-0.75763077,-1
248,249,1583937503267,-0.2764,-2.2122,-0.17,-1.9902136000000001,7.1880255,-0.7759225000000001,-1
249,250,1583937503276,0.0184,-2.72,-0.2078,-1.8357397,6.903403,-0.80172235,-1
250,251,1583937503286,0.0626,-3.0821998,-0.2122,-1.8305491999999999,6.437635,-0.8018181999999999,-1
251,252,1583937503296,0.0626,-3.0821998,-0.2122,-1.9182727,6.066466999999999,-0.7804906,-1
252,253,1583937503306,-0.043899997999999996,-4.0129,-0.104899995,-1.8932964,5.519076,-0.65549415,-1
253,254,1583937503317,-0.043899997999999996,-4.0129,-0.104899995,-1.8474903999999999,5.2675505,-0.5750776999999999,-1
254,255,1583937503327,0.24479999,-4.7690997,0.2031,-1.6186334999999998,4.8537264,-0.32869515,-1
255,256,1583937503337,0.2933,-5.0548,0.4466,-1.5731916000000001,4.568903,-0.07107906,-1
256,257,1583937503347,0.32099998,-5.3995,0.8165,-1.5161139,4.158843,0.42867702,-1
257,258,1583937503357,0.4646,-5.6562,1.237,-1.3046579,3.9000301,0.9551716,-1
258,259,1583937503368,0.7628,-5.8149,1.5646,-1.0187232,3.7860562999999994,1.1838752000000001,-1
259,260,1583937503378,0.97169995,-5.895,1.7838,-0.94202256,3.7154179,1.3718583999999998,-1
260,261,1583937503388,0.7114,-5.9839997,1.7005999,-1.1654973999999998,3.6476142,1.2143966,-1
261,262,1583937503399,0.48959997,-5.9157996,1.324,-1.4389535,3.7395995,0.6418759,-1
262,263,1583937503409,0.3906,-5.9069,0.69909996,-1.2578082,3.767382,-0.08052179,-1
263,264,1583937503420,0.9896,-5.7718997000000005,-0.0218,-0.45225513,4.002722299999999,-0.86166364,-1
264,265,1583937503430,1.4642998999999999,-5.5695996,-0.5215,-0.28352135,4.0656705,-1.2276031,-1
265,266,1583937503440,1.3781999,-5.6035,-0.8936,-0.48047796,4.0684569999999995,-1.5749443,-1
266,267,1583937503450,1.2204,-5.5209,-1.1032,-0.5664873,4.2109985,-1.6704727,-1
267,268,1583937503460,0.93789995,-5.3424,-1.0379,-1.0098742,4.463481400000001,-1.2241266000000002,-1
268,269,1583937503470,0.4218,-5.0288997,-0.4263,-1.4619761999999998,4.9428387,-0.38691255,-1
269,270,1583937503481,0.099599995,-4.5216,0.361,-1.376867,5.497240000000001,0.39210322,-1
270,271,1583937503491,0.2908,-3.9380998999999997,0.8713,-0.9133496999999999,6.1514225,0.6047849000000001,-1
271,272,1583937503501,0.70339996,-3.326,0.81149995,-0.39636487,6.8816156,0.59762144,-1
272,273,1583937503511,1.0885999,-2.5467,0.6978,-0.1825052,7.592751,0.4419888,-1
273,274,1583937503522,1.0027,-1.8736999,0.484,-0.36049017,8.285077000000001,0.47352520000000003,-1
274,275,1583937503532,0.6926,-1.1795,0.6202,-0.6740444,8.957801,0.87883484,-1
275,276,1583937503542,0.166,-0.5822,1.0146998999999999,-1.3127408,9.371288,1.0318339,-1
276,277,1583937503552,-0.62009996,-0.30769998,0.82409996,-1.624916,9.722776,0.69371516,-1
277,278,1583937503562,-0.6555,0.17279999,0.41709998,-1.1965646,10.232445,0.27142587,-1
278,279,1583937503572,-0.2208,0.6537,-0.0753,-0.42769063,10.896769,0.019306842,-1
279,280,1583937503583,0.5197,1.4693999,-0.2227,0.8781644000000001,12.087539,0.5129529,-1
280,281,1583937503593,1.5222,2.5033998,0.33299999999999996,2.4975642999999996,13.282829999999999,1.2983372,-1
281,282,1583937503603,2.9903998,3.707,1.0418999,3.4431589,14.267469,1.6254523,-1
282,283,1583937503613,3.5042998999999995,4.6193,1.1629,3.2175486,14.772799,1.5100613,-1
283,284,1583937503623,2.7982,5.0831,0.9068,2.2946126000000002,14.969449,1.2734184,-1
284,285,1583937503633,1.9368999,5.1960998,0.7073,2.100414,15.220351,1.4550903999999998,-1
285,286,1583937503644,1.7929,5.5078998,0.98109996,2.4643040000000003,15.60169,2.2207754,-1
286,287,1583937503654,1.9425999,5.861399700000001,1.6817,2.2457612,15.827081,3.053287,-1
287,288,1583937503664,1.5979999,6.0597,2.3072999,2.1338467999999997,15.938123999999998,3.3686323,-1
288,289,1583937503674,1.3679999,6.2191,2.5455,2.0868533,16.177296,2.8682442000000004,-1
289,290,1583937503684,1.194,6.495199700000001,1.8878,2.0606221999999996,16.40392,1.7641148999999998,-1
290,291,1583937503695,1.0471,6.6913,0.70669997,1.959386,16.514341,0.5014895,-1
291,292,1583937503705,0.94299996,6.7689,-1.3093,2.1305330000000002,16.483475,-0.5591323,-1
292,293,1583937503715,0.94299996,6.7689,-1.3093,2.29716,16.292715,-0.69958574,-1
293,294,1583937503725,1.0066,6.5955997,-1.4561,2.144563,15.92441,-0.20772094,-1
294,295,1583937503735,0.1241,5.8127,-0.1572,1.5407358,15.492947000000001,0.6574765,-1
295,296,1583937503746,0.1241,5.8127,-0.1572,0.9511972,15.12151,1.0971476999999998,-1
296,297,1583937503756,-0.9683,5.0396,-0.13939999,0.5114111,14.607628,0.5992783,-1
297,298,1583937503766,-1.1008999,4.657099700000001,-0.68119997,0.4831116,14.303353,0.1953094,-1
298,299,1583937503776,-0.7065,4.2852,-1.0857999,0.9347441999999999,13.930251,-0.2192993,-1
299,300,1583937503786,0.039,3.9339999999999997,-1.2106999,1.9395618000000001,13.513363,-0.30954152,-1
300,301,1583937503796,0.039,3.9339999999999997,-1.2106999,2.6845322,13.166711,-0.0976547,-1
301,302,1583937503807,1.15,3.2128,-0.7436,2.9678621,12.717338999999999,0.30191840000000003,-1
302,303,1583937503817,1.0174999,2.7029,-0.3944,2.823444,12.201197,0.64399236,-1
303,304,1583937503827,0.81839997,2.1808999,-0.2005,2.632214,11.694411,0.8789976,-1
304,305,1583937503837,0.4813,1.8233999,-0.1863,2.256037,11.315485,0.80476785,-1
305,306,1583937503847,-0.0246,1.4636999,-0.4402,1.7701099999999999,10.983094,0.6163824,-1
306,307,1583937503857,-0.36089998,1.1622,-0.3008,1.4849893,10.709628,0.8941193999999999,-1
307,308,1583937503868,-0.2773,1.0771998999999999,0.2771,1.7487058999999998,10.602359,1.531523,-1
308,309,1583937503878,-0.0005999999700000001,0.97349995,0.58709997,1.9629964,10.512202,1.8714325,-1
309,310,1583937503888,0.2461,0.88979995,1.082,2.2761006,10.416807,2.3724337,-1
310,311,1583937503898,0.4939,0.7659999999999999,1.2887,2.4690254,10.271269,2.4631069,-1
311,312,1583937503908,0.67579997,0.67939997,1.1743,2.6706457,10.1923275,2.2609594,-1
312,313,1583937503920,0.8127,0.6099,0.92719996,2.7375302,10.163358,2.0395439,-1
313,314,1583937503930,0.67149997,0.518,0.5553,2.2714078,9.968603,1.5366465,-1
314,315,1583937503940,0.1156,0.3554,0.3471,1.6345981,9.836664,1.3604045,-1
315,316,1583937503950,-0.4371,0.20179999,0.21939999,1.2833303999999999,9.721100999999999,1.2725757,-1
316,317,1583937503960,-0.649,0.1174,0.1705,1.2388940000000002,9.645357,1.1303601,-1
317,318,1583937503971,-0.5132,0.0637,0.031999997999999995,1.4962516000000001,9.630628999999999,0.94522125,-1
318,319,1583937503981,-0.28399998,0.0211,-0.1691,1.661959,9.557855,0.69650203,-1
319,320,1583937503991,-0.17379999,-0.089099996,-0.4044,1.6723307,9.45294,0.49507302,-1
320,321,1583937504001,-0.1621,-0.16929999,-0.52779996,1.7266695,9.351599,0.37437654,-1
321,322,1583937504011,-0.1117,-0.26839998,-0.6484,1.8259906000000004,9.319411,0.2981547,-1
322,323,1583937504022,0.1042,-0.2584,-0.6501,2.1625099999999997,9.375933999999999,0.44477564,-1
323,324,1583937504032,0.3976,-0.20809999,-0.4357,2.1684763,9.364221,0.847375,-1
324,325,1583937504042,0.26229998,-0.2261,-0.063,1.8636179,9.3308935,1.2064958000000001,-1
325,326,1583937504052,-0.1633,-0.313,0.32529998,1.3084505,9.236936,1.5203084999999998,-1
326,327,1583937504062,-0.5578,-0.3612,0.4906,1.3533846999999999,9.230261,1.5443271,-1
327,328,1583937504073,-0.4447,-0.37039998,0.48569998,1.447362,9.182874,1.4955812,-1
328,329,1583937504083,-0.38279998,-0.4193,0.4104,1.3584893,9.139903,1.3984053,-1
329,330,1583937504093,-0.45859998,-0.4396,0.2941,1.4336096,9.188869,1.1914314,d
330,331,1583937504103,-0.3694,-0.39159998,0.096,1.4682298999999999,9.273164999999999,1.0364883,-1
331,332,1583937504114,-0.3403,-0.30449998,-0.049799997,1.5985798,9.328508,0.85556316,-1
332,333,1583937504124,-0.1749,-0.22699999999999998,-0.21519999,1.9694895000000001,9.521434,0.64969057,-1
333,334,1583937504134,0.1461,-0.0705,-0.38299999999999995,2.1130075,9.613945,0.6664883,-1
334,335,1583937504144,0.2809,0.0178,-0.3599,2.0313939999999997,9.626453,0.8273690999999999,-1
335,336,1583937504154,0.21069999,0.038,-0.20629999,2.0238378,9.68966,0.9635513000000001,-1
336,337,1583937504165,0.1997,0.0981,-0.078499995,2.1179588,9.732737,1.0874177,-1
337,338,1583937504175,0.2857,0.14899999,0.035099998,2.2110833999999997,9.787392,1.1967944,-1
338,339,1583937504185,0.3107,0.2025,0.2577,2.1542835,9.781033,1.3444303999999998,-1
339,340,1583937504195,0.16309999,0.1845,0.5184,1.9956725,9.766053999999999,1.6171205,-1
340,341,1583937504205,-0.091,0.1854,0.6468,1.7464456999999998,9.768084,1.7574877,-1
341,342,1583937504216,-0.091,0.1854,0.6468,1.4687853000000002,9.732737,1.7668346999999998,-1
342,343,1583937504226,-0.3635,0.1557,0.6558,1.5065945,9.823016,1.5420383,-1
343,344,1583937504236,-0.2564,0.38869998,0.1286,1.5772521000000002,9.971199,1.213324,-1
344,345,1583937504246,-0.18969999,0.4942,-0.29729998,1.6502656999999998,10.083304,0.7660488,-1
345,346,1583937504256,-0.2112,0.57019997,-0.6249,1.6503807000000001,10.176296,0.33756329999999996,-1
346,347,1583937504267,-0.2034,0.62729996,-0.8203,1.632472,10.239896,0.17126204,-1
347,348,1583937504277,-0.2153,0.6853,-0.81839997,1.6596607,10.299233000000001,0.23763889,-1
348,349,1583937504287,-0.1495,0.7739,-0.6597,1.7131854,10.376288,0.38839698,-1
349,350,1583937504297,-0.07400000000000001,0.8829,-0.4294,1.7836802999999999,10.493317,0.64261335,-1
350,351,1583937504307,-0.115499996,0.90379995,-0.19219999,1.6851541,10.490739999999999,0.85842663,-1
351,352,1583937504318,-0.2534,0.9439,-0.053,1.5878153999999998,10.551927000000001,0.99734783,-1
352,353,1583937504328,-0.2144,1.033,0.0186,1.6761327000000001,10.673063,1.0443604,-1
353,354,1583937504338,-0.057499997000000004,1.1609,-0.0347,1.8661557,10.809026,0.9519633,-1
354,355,1583937504348,0.0514,1.308,-0.1148,1.8574313000000002,10.970711,0.9014457,-1
355,356,1583937504358,0.0514,1.308,-0.1148,1.7364761999999998,11.049777,0.9469450999999999,-1
356,357,1583937504368,-0.2722,1.591,0.0861,1.4738036,11.255047,1.2401389999999999,-1
357,358,1583937504379,-0.4603,1.7863,0.3548,1.324798,11.461024,1.5156254999999998,-1
358,359,1583937504389,-0.4809,2.0695,0.67329997,1.3926975000000001,11.798884,1.8496741,-1
359,360,1583937504399,-0.3543,2.4013999,0.9273,1.4584328000000002,12.136448,2.0463912,-1
360,361,1583937504409,-0.353,2.7517998,1.0691998999999999,1.4308994,12.402395,2.136346,-1
361,362,1583937504419,-0.3385,3.0616999,1.1198,1.4533473999999997,12.800849000000001,2.1909914,-1
362,363,1583937504429,-0.2817,3.4194,1.1968,1.5105306,13.143948000000002,2.2157283,-1
363,364,1583937504439,-0.2105,3.7463,1.24,1.5367518999999998,13.503785999999998,2.2387414,-1
364,365,1583937504450,-0.15359999,4.1211,1.2871,1.5603013000000001,13.990507999999998,2.2337232000000005,-1
365,366,1583937504460,-0.1601,4.5144,1.298,1.4634128,14.421885500000002,2.2417965,-1
366,367,1583937504470,-0.23079999,4.9855,1.3585,1.4205948,14.877454,2.290322,-1
367,368,1583937504480,-0.12109999,5.4172997,1.4855,1.6745238000000002,15.3571,2.5463772000000002,-1
368,369,1583937504490,0.2661,5.8687,1.8441999,1.9543773000000002,15.677109,2.8575562999999997,-1
369,370,1583937504500,0.6204,6.2114997,2.2131,2.2911458,16.025867,3.1682662999999995,-1
370,371,1583937504510,0.8864,6.4251,2.4334,2.3179896,16.136047,3.2675107000000003,-1
371,372,1583937504521,0.8508,6.4402,2.5397,2.0996669999999997,16.113935,3.2629232000000004,-1
372,373,1583937504531,0.7398,6.3749,2.5147998,2.0335774,15.987387,3.038711,-1
373,374,1583937504541,0.8451,6.1909,2.2786999,2.0518212,15.803417000000001,2.7501907,-1
374,375,1583937504551,0.90099996,5.85,2.0421999,1.895116,15.35186,2.3331112999999997,-1
375,376,1583937504562,0.94579995,5.4414,1.7613,2.0854263,14.991245999999999,1.9791142,-1
376,377,1583937504572,1.2707,5.0442,1.5015999,2.0830417000000003,14.495942999999999,1.6092961000000001,-1
377,378,1583937504582,1.2287999,4.4529,1.2299,1.4439143,13.670901,1.2398133,-1
378,379,1583937504592,0.63299996,3.6971,1.0313,0.517885,12.792421000000001,0.97090626,-1
379,380,1583937504602,-0.0805,2.8260999,0.8357,0.07562804,11.9684515,0.63223207,-1
380,381,1583937504612,-0.32279998,1.9774,0.5553,0.34453517,11.325369,0.33436462,-1
381,382,1583937504622,0.6164,1.3076,0.2687,1.9578726999999998,10.892746,0.06040092,-1
382,383,1583937504632,2.4543,0.8846,0.0898,3.2234862,10.175510000000001,-0.28778306,-1
383,384,1583937504642,3.1474,0.2075,-0.1244,2.6836702999999997,9.397356,-0.24245602,-1
384,385,1583937504653,2.4828,-0.6059,-0.0013,1.4951596999999999,8.432398,-0.03310702,-1
385,386,1583937504663,1.4469999,-1.5554,0.21169999,0.38990054,7.5679183000000005,0.09346006,-1
386,387,1583937504673,0.4113,-2.4445,0.2978,-1.0497329,6.5864199999999995,0.036966473,-1
387,388,1583937504683,-0.94729996,-3.4010000000000002,0.2511,-2.6680984,5.6493773,-0.08505162,-1
388,389,1583937504693,-2.4828,-4.3276997,0.1892,-3.8358654999999997,4.8405776,-0.09006987,-1
389,390,1583937504704,-3.2368999,-5.0492,0.249,-2.6472113,4.533861,0.0026240451000000002,-1
390,391,1583937504714,-1.5444,-5.2924,0.34019998,0.58079505,4.7130055,-0.22343647,-1
391,392,1583937504724,1.8125999,-4.9886,0.092099994,3.7838635000000003,4.9859056,-0.3116772,-1
392,393,1583937504734,4.2981,-4.8128,0.0889,4.2988367,5.012395400000001,0.13803051,-1
393,394,1583937504744,4.7978,-4.7834,0.53279996,3.7319379999999995,5.057416,0.98060757,-1
394,395,1583937504755,4.2483997,-4.7327,1.3923,2.5949986000000003,4.962596,1.6408613,-1
395,396,1583937504765,1.8090998999999999,-4.8679,2.3344998,1.176367,4.92019,1.8136363999999998,-1
396,397,1583937504775,1.3304,-4.8563,1.7893,0.62413967,4.908889299999999,1.1510171999999999,-1
397,398,1583937504786,1.0203999,-4.8403997,0.8613,0.24684219,4.92176,0.08921753,-1
398,399,1583937504796,0.93539995,-4.683399700000001,-0.40649998,0.094321966,5.047801,-1.3561811000000001,-1
399,400,1583937504806,0.93539995,-4.683399700000001,-0.40649998,-0.26974990000000004,5.224109599999999,-2.8966873,-1
400,401,1583937504816,0.9122,-4.1499,-2.3381998999999998,-0.09135315599999999,5.5412935999999995,-3.5597756,-1
401,402,1583937504826,1.0007,-3.7096,-2.3606,-0.15284584,6.033618,-3.6322050000000004,-1
402,403,1583937504837,0.4116,-3.3999998999999996,-1.9922999,-0.86016005,6.3385725,-3.2903035000000003,-1
403,404,1583937504847,-0.2774,-3.0637999,-1.4411,-1.4467299,6.5872345,-2.8647099999999996,-1
404,405,1583937504857,-0.6006,-2.7103999,-1.0119,-1.8544241999999997,6.990858599999999,-2.4057226000000003,-1
405,406,1583937504867,-0.4712,-2.4078,-0.85359997,-1.6832675,7.2542686000000005,-2.3195217,-1
406,407,1583937504877,-0.3087,-2.2435,-0.8354,-1.6064421999999998,7.408886,-2.3087862,-1
407,408,1583937504888,-0.35439998,-2.158,-0.6817,-1.7254629000000001,7.4421268,-2.1439117999999997,-1
408,409,1583937504898,-0.5578,-2.2001998,-0.529,-1.9499241000000003,7.397728999999999,-2.0427425,-1
409,410,1583937504908,-0.47039998,-2.1838,-0.52309996,-1.75653,7.4569516,-2.1464307000000002,-1
410,411,1583937504918,-0.1633,-2.08,-0.7236,-1.4407157,7.5870433,-2.346988,-1
411,412,1583937504928,0.15869999,-1.8498,-0.85819995,-1.1754286,7.8173943,-2.4718504,-1
412,413,1583937504938,0.4184,-1.6406,-0.9594,-0.9704656999999999,8.010989,-2.5221958,-1
413,414,1583937504949,0.58889997,-1.462,-0.82229996,-0.8078706999999999,8.147439,-2.2645795,-1
414,415,1583937504959,0.7517,-1.3722999,-0.5634,-0.7575063,8.264238,-2.0694425,-1
415,416,1583937504970,0.6149,-1.2626,-0.4141,-1.0253122,8.3516655,-1.8887953000000002,-1
416,417,1583937504980,0.2767,-1.1912,-0.2739,-1.5262461,8.384006,-1.815322,-1
417,418,1583937504990,-0.1875,-1.2075,-0.299,-1.9505944,8.405161,-1.9019442,-1
418,419,1583937505000,-0.4491,-1.1163,-0.4116,-2.0396012999999997,8.548085,-2.0393236,-1
419,420,1583937505010,-0.426,-0.9386,-0.5256,-1.8585421000000002,8.755203,-2.1043307999999996,-1
420,421,1583937505020,-0.12799999,-0.7237,-0.6425,-1.6084726,8.888369,-2.1953009999999997,-1
421,422,1583937505030,0.3491,-0.54969996,-0.74329996,-0.7549397,9.147699000000001,-2.2959628,d
422,423,1583937505040,1.0591,-0.3964,-0.78999996,-0.41536528,9.208511,-2.1978006000000003,-1
423,424,1583937505050,1.1662999,-0.3117,-0.6161,-0.5434838000000001,9.289808,-1.896294,-1
424,425,1583937505060,0.89989996,-0.2848,-0.3179,-1.0011881999999999,9.2410345,-1.5873462,-1
425,426,1583937505070,0.3285,-0.37399998,-0.049,-1.6325009,9.192461,-1.2969007,-1
426,427,1583937505081,-0.2085,-0.45209998,0.20289999,-2.1610925,9.06687,-1.0819589,-1
427,428,1583937505092,-0.73569995,-0.5293,0.32279998,-2.5943856,8.963336,-1.1290576,-1
428,429,1583937505102,-0.92429996,-0.6162,0.2234,-2.5498056,8.964274000000001,-1.2091389,-1
429,430,1583937505112,-0.7981,-0.6157,0.049999997000000004,-2.311755,8.91662,-1.5324233,-1
430,431,1583937505122,-0.6028,-0.6361,-0.21,-2.1264246,8.985391,-1.6419053,-1
431,432,1583937505132,-0.1222,-0.5212,-0.433,-1.4098496,9.165492,-1.9132256999999997,-1
432,433,1583937505142,0.33249998,-0.3784,-0.6016,-1.0091465,9.339178,-1.9315939999999998,-1
433,434,1583937505153,0.6493,-0.20719999,-0.5704,-1.090128,9.441477,-1.6311888,-1
434,435,1583937505163,0.4707,-0.15339999,-0.2498,-1.3815405,9.448143,-1.1514098999999998,-1
435,436,1583937505173,0.20089999,-0.1572,0.2091,-1.523986,9.434543,-0.83670646,-1
436,437,1583937505183,0.0444,-0.1686,0.4613,-1.7105805,9.491765,-0.80005604,-1
437,438,1583937505194,-0.107,-0.1184,0.4332,-1.8052568,9.421825,-1.2304665000000001,-1
438,439,1583937505204,-0.1767,-0.1836,0.046099997999999996,-1.8551806,9.399175999999999,-1.7648715,-1
439,440,1583937505214,-0.21599999,-0.18869999,-0.4599,-1.8410262,9.452146,-2.2813487,-1
440,441,1583937505224,-0.1944,-0.1425,-0.9438,-1.7795718,9.548459,-2.6605039,-1
441,442,1583937505235,-0.0925,0.0069999998,-1.3912,-1.638266,9.720736500000001,-3.0002508,-1
442,443,1583937505245,0.0295,0.16679999,-1.6705999,-1.6276071,9.81138,-3.144784,-1
443,444,1583937505255,0.0343,0.23699999,-1.7730999,-1.7849731,9.890389,-3.0490253,-1
444,445,1583937505265,-0.1179,0.3057,-1.6805999,-1.6917429,9.971753999999999,-2.9806185000000003,-1
445,446,1583937505275,0.2932,0.4966,-1.7075,-1.3699048,10.081199,-3.0386729999999997,-1
446,447,1583937505286,0.82699996,0.6588,-1.8021,-0.8403648000000001,10.249203999999999,-3.110882,-1
447,448,1583937505296,1.3905,0.9384,-1.8801,-0.26774836,10.531269,-3.153901,-1
448,449,1583937505306,1.6451,1.1108999,-2.0183,0.010141838,10.715882,-3.262454,-1
449,450,1583937505316,1.6527,1.1279,-2.0588,-0.0029592332,10.729097,-3.2702593999999996,-1
450,451,1583937505326,1.5806999,1.1367999,-2.0692,-0.104798995,10.741807000000001,-3.2534041,-1
451,452,1583937505336,1.6631,1.1277,-2.0482,-0.047587153,10.727135,-3.2042847,-1
452,453,1583937505346,1.6736,1.032,-2.024,-0.06442318,10.635063,-3.1530583,-1
453,454,1583937505357,1.6703,0.889,-2.0644,-0.10510545,10.481643,-3.17656,-1
454,455,1583937505367,1.7687,0.6592,-2.355,-0.017822437,10.216068,-3.5105605000000004,-1
455,456,1583937505377,1.7915,0.5579,-2.5346,-0.09491573,10.091014999999999,-3.6089047999999995,-1
456,457,1583937505387,1.6409,0.3398,-2.4596,-0.29198727,9.880506500000001,-3.5067108,-1
457,458,1583937505397,1.4914,0.1709,-2.3274999,-0.5120432,9.692848,-3.3504553,-1
458,459,1583937505408,1.3895998999999999,0.050899997,-2.2653,-0.61414146,9.531499,-3.2715330000000002,-1
459,460,1583937505418,1.3895998999999999,0.050899997,-2.2653,-0.5559719,9.424813,-3.2421130000000002,-1
460,461,1583937505428,1.5436,-0.3266,-2.1893,-0.51399684,9.088611,-3.170718,-1
461,462,1583937505438,1.5873,-0.6518,-2.1042,-0.56417924,8.716857000000001,-3.0594547000000003,-1
462,463,1583937505448,1.5159,-1.074,-2.0755,-0.72237855,8.304575999999999,-3.0997633999999996,-1
463,464,1583937505459,1.4274,-1.4559,-2.142,-0.789646,7.972759,-3.1275744,-1
464,465,1583937505469,1.3407999,-1.8369,-2.2073998,-0.9567421,7.590673,-3.1500703999999997,-1
465,466,1583937505479,1.2957,-2.1878,-2.1369,-1.1051444,7.158835400000001,-3.1012766,-1
466,467,1583937505489,1.1151999,-2.5284,-2.1671,-1.4159979999999999,6.7676419999999995,-3.093644,-1
467,468,1583937505499,0.83779997,-2.9571998,-2.0458,-1.6162968999999998,6.399988,-2.957414,-1
468,469,1583937505509,0.696,-3.4650998,-1.9122,-2.00659,5.6377416,-2.6576117999999997,-1
469,470,1583937505520,0.3547,-4.0920997,-1.6212,-2.330439,5.0891247,-2.3193686000000002,-1
470,471,1583937505530,0.10569999,-4.6625,-1.1061,-2.5490685,4.551865599999999,-1.6544508000000002,-1
471,472,1583937505540,-0.0156,-5.1085997,-0.3868,-2.6482744,4.2475629999999995,-0.66394085,-1
472,473,1583937505550,0.028199999,-5.1656,0.384,-2.5728857999999994,4.2918553,-0.16131173,-1
473,474,1583937505560,0.33519998,-4.9702997,0.95919997,-2.0704288,4.522858,0.54824346,-1
474,475,1583937505571,0.7328,-4.8547,1.2088,-1.8313631999999997,4.622360700000001,0.6013851,-1
475,476,1583937505580,0.8052,-4.8465,1.1558,-1.9465913000000001,4.5080233,0.6839085,-1
476,477,1583937505590,0.48909998,-5.0032,1.4652,-2.48363,4.363576,1.3286479,-1
477,478,1583937505600,0.0008,-5.1482997,2.1064,-2.9685132999999997,4.1882253,2.2207369999999997,-1
478,479,1583937505610,-0.505,-5.311899700000001,3.0712,-3.5859587,4.058401600000001,3.0671637,-1
479,480,1583937505620,-1.1304,-5.3771996,3.7654,-4.102254,4.0325637,3.5467129,-1
480,481,1583937505631,-1.3887,-5.3943,4.0924997,-3.8948970000000003,4.023465600000001,3.5974317000000005,-1
481,482,1583937505641,-0.9999,-5.3348,4.0834,-3.4866567,4.2582693,3.4850093999999996,-1
482,483,1583937505651,-0.6598,-5.0615,3.9592998,-3.2688610000000002,4.4902196,3.3260155,-1
483,484,1583937505661,-0.57049996,-4.8187,3.8994,-3.0172112,4.824977,3.4190445,-1
484,485,1583937505671,-0.27109998,-4.4302998,4.2963,-3.0309443,5.2809669999999995,4.1601553,-1
485,486,1583937505681,-0.55689996,-3.9266,5.1626,-3.2661316000000005,5.7464385,4.8262410000000004,-1
486,487,1583937505692,-0.5972,-3.2789998,5.9111,-3.030523,6.5381627,5.5821867,-1
487,488,1583937505702,-0.4763,-2.7436,6.3875,-3.0788476,6.962903999999999,5.6883836,-1
488,489,1583937505712,-0.6259,-2.3594,6.3680997,-2.920859,7.5059085,5.5141625,-1
489,490,1583937505722,-0.4289,-1.7387999,6.1369996,-2.4928237999999996,8.191417,5.385747,-1
490,491,1583937505732,0.044000000000000004,-1.0344,6.1896,-1.6575153999999999,9.038533000000001,5.918179,-1
491,492,1583937505742,0.8642,-0.1226,7.1661,-0.6264380999999999,10.163607,8.007925,-1
492,493,1583937505753,1.5031999,0.75949997,9.0911,-0.2829659,10.934261,9.978361999999999,-1
493,494,1583937505763,1.5991,1.4295,10.9142,-0.50307924,11.578244,10.908251,-1
494,495,1583937505773,1.1929,2.0909998,11.4630995,-0.791207,12.076698,9.679681,-1
495,496,1583937505783,0.8337,2.5,9.8501,-0.9088294,12.431633999999999,7.2451514999999995,-1
496,497,1583937505793,0.6921,2.8495998,7.4038997,-0.49684474,12.802945,4.6665964,-1
497,498,1583937505803,1.0939,3.2184,5.0861998,0.7213634,13.29844,3.4554940000000003,-1
498,499,1583937505814,2.3135,3.7419,4.370199700000001,2.1724412,13.912132000000001,4.4964447,-1
499,500,1583937505824,3.4894,4.3032,5.7067,2.5116419999999997,14.187838000000001,6.2160273,-1
500,501,1583937505834,3.4246,4.5034,7.3745,1.8249370999999999,14.200039000000002,7.3213444,-1
501,502,1583937505844,2.4888,4.4135,8.2308,0.6004754,13.880776999999998,6.8674326,-1
502,503,1583937505854,1.1859,4.0633,7.4526997,0.15005898,13.590551000000001,5.1253633,-1
503,504,1583937505865,0.9022,3.8342998,5.6225,0.8858738000000002,13.573514999999999,3.081539,-1
504,505,1583937505875,2.4917998,3.8815,1.9815999,2.0291433,13.63609,0.9565219000000001,-1
505,506,1583937505885,2.4917998,3.8815,1.9815999,2.6001604,13.616342000000001,-0.018981231,-1
506,507,1583937505895,3.1011999,3.8990998,1.1273,2.8547025,13.653079,0.04540364,-1
507,508,1583937505906,2.8195999,3.7012,1.6380999,2.580394,13.389429999999999,0.6061831999999999,-1
508,509,1583937505916,2.1783,3.3469,1.6358999,2.122728,13.103073,0.55310845,-1
509,510,1583937505926,1.6328,3.0433998,1.0145,1.6063178,12.753989,-0.2694722,-1
510,511,1583937505936,1.4707999,2.8202,-0.0659,1.5610578000000002,12.536242,-1.4507617,-1
511,512,1583937505946,1.5604999,2.8632998,-1.3643,1.8182620999999999,12.635208,-2.804903,-1
512,513,1583937505956,1.9016,2.9264997999999998,-2.6845,2.1456642,12.670643,-3.8675262999999998,-1
513,514,1583937505966,1.861,2.9301999,-3.7222998,2.1811848,12.646355999999999,-5.0898905,-1
514,515,1583937505977,1.7257999,2.8341,-4.5622997000000005,2.0862691000000004,12.52968,-5.902320400000001,-1
515,516,1583937505987,1.4965998999999999,2.6183,-5.1096997,1.9715964,12.359176,-6.272387,-1
516,517,1583937505997,1.4965998999999999,2.6183,-5.1096997,1.9706578000000001,12.186812,-6.432329,-1
517,518,1583937506007,1.3887999,2.151,-5.3617,1.987628,11.865692,-6.322799,-1
518,519,1583937506017,1.3611,2.0577,-5.0146,2.0818827,11.805358,-5.8592625,-1
519,520,1583937506027,1.7152,2.1018999,-4.700599700000001,2.6031294,11.882155000000001,-5.479715000000001,-1
520,521,1583937506038,2.394,2.1966999,-4.6328998,3.492422,11.963232000000001,-5.3624277000000005,-1
521,522,1583937506048,3.0112997999999997,2.1657,-4.8479,3.8818343,11.930652,-5.4740167,-1
522,523,1583937506058,3.4150998999999995,2.0477,-5.1710997,4.4006,11.763661,-5.7722573,-1
523,524,1583937506068,3.7652997999999998,1.7831,-5.6186,4.7157540000000004,11.481116,-6.1852574,-1
524,525,1583937506078,3.5233998,1.5085,-6.0441,4.372291000000001,11.154307000000001,-6.673626400000001,-1
525,526,1583937506088,3.1971,1.2334,-6.492999999999999,4.0011897,10.8842325,-7.050799400000001,-1
526,527,1583937506099,2.8597,0.9971,-6.7581,3.7246019999999995,10.675400999999999,-7.230728599999999,-1
527,528,1583937506109,2.6348,0.7898,-6.9809,3.4904397000000005,10.494093,-7.592061500000001,-1
528,529,1583937506119,2.4506,0.6217,-7.4079,3.3843574999999997,10.367563,-7.9313965,-1
529,530,1583937506129,2.4717,0.5812,-7.58,3.4548619,10.323071,-8.053367,-1
530,531,1583937506139,2.6090999,0.4428,-7.7225,3.5268888,10.143984,-8.144394,-1
531,532,1583937506150,2.6090999,0.2945,-7.7374997,3.5302599999999997,9.991052,-8.134061,-1
532,533,1583937506160,2.5804,0.107,-7.7825,3.458884,9.835533999999999,-8.221822999999999,-1
533,534,1583937506170,2.5435998,-0.0021,-7.9157,3.4323660000000005,9.690071000000001,-8.335107,-1
534,535,1583937506180,2.5189,-0.17029999,-7.95,3.2998517,9.481882,-8.31537,-1
535,536,1583937506190,2.3307,-0.40739998,-7.7978997,2.994974,9.22733,-8.0771265,-1
536,537,1583937506200,1.9772999,-0.69369996,-7.6575,2.5280182,8.921782499999999,-7.9611516,-1
537,538,1583937506211,1.5647999,-0.9801,-7.5513997,2.2335412999999997,8.630061999999999,-7.8360686,-1
538,539,1583937506221,1.3682,-1.2472999,-7.4392,2.1997736,8.407096000000001,-7.6486697,-1
539,540,1583937506231,1.4598,-1.454,-7.2194996,2.330114,8.197583999999999,-7.275059700000001,-1
540,541,1583937506241,1.6132,-1.6215998999999999,-6.7572,2.6208081,8.108577,-6.707528,-1
541,542,1583937506251,1.9243,-1.7298,-6.2490997,2.7781167,8.00079,-5.8894777000000005,-1
542,543,1583937506262,1.974,-1.7981,-5.5562,2.895854,7.893511,-5.225594,-1
543,544,1583937506272,2.1455998,-1.9243,-4.8311996,3.183953,7.8396125,-4.4718328000000005,-1
544,545,1583937506282,2.4201,-1.9516,-4.1159,3.382921,7.7852063,-3.5058102999999994,-1
545,546,1583937506292,2.4475,-1.9977,-3.3752,3.199257,7.751314,-2.7849736000000003,-1
546,547,1583937506302,2.1801999,-2.0040998,-2.7338,2.8606496,7.802809,-2.1388745,-1
547,548,1583937506312,1.8432,-1.9415,-2.1603,2.769373,7.894966,-1.690335,-1
548,549,1583937506323,1.8068999,-1.7902,-1.6595999,2.9672585,8.199805,-1.0723341999999998,-1
549,550,1583937506333,1.9343,-1.5210999,-1.1307,2.9842193,8.401149,-0.58677095,-1
550,551,1583937506343,1.8656,-1.311,-0.6709,2.8185978,8.559367,-0.31693485,-1
551,552,1583937506353,1.6211,-1.16,-0.4391,2.4291283999999997,8.694199000000001,-0.21869595,-1
552,553,1583937506364,1.1992999,-1.0284,-0.30359998,2.0851580000000003,8.852091999999999,-0.2723165,-1
553,554,1583937506374,0.86069995,-0.8859999999999999,-0.3296,1.8754452000000001,9.184675,-0.18406622,-1
554,555,1583937506384,0.603,-0.5462,-0.19829999,1.5980626,9.618264,0.19169894,-1
555,556,1583937506394,0.2699,-0.107,0.2042,1.3593799,10.004526,0.45073240000000003,-1
556,557,1583937506404,-0.049599998,0.3924,0.5733,1.7566544999999998,10.595684,1.0951653000000001,-1
557,558,1583937506414,0.2873,0.89379996,1.1685,3.1181796000000004,11.136716,1.730031,-1
558,559,1583937506425,1.5625,1.4370999,1.8072,4.893193,11.594372,2.2453494,-1
559,560,1583937506435,4.6351,2.1952999,3.1035,6.378431299999999,11.850723,3.0670585999999997,-1
560,561,1583937506445,4.6351,2.1952999,3.1035,6.842207000000001,11.752303,3.8944662000000005,-1
561,562,1583937506456,4.1944,1.8192999,5.4983,5.8845263,11.3935375,5.8924847,-1
562,563,1583937506466,3.0705,1.5138999,6.7173,4.9926379999999995,11.147317,6.921292299999999,-1
563,564,1583937506476,3.0705,1.5138999,6.7173,4.0858297,10.911478,7.780782,-1
564,565,1583937506486,1.7286999,1.2127,7.789499799999999,3.681765,10.82816,8.166008999999999,-1
565,566,1583937506496,1.6077,1.1299,7.5561,3.5214207,10.727211,7.910767999999999,-1
566,567,1583937506506,1.3046,0.9971,6.9715,3.2790797,10.565277,7.3475657000000005,-1
567,568,1583937506517,1.2702,0.78499997,6.3257,3.2399487000000002,10.321652,6.761924700000001,-1
568,569,1583937506527,1.0149,0.4933,5.7332997,3.0023098,10.089166,6.325462,-1
569,570,1583937506537,0.4931,0.2393,5.2219996,2.277039,9.772423,5.773129,-1
570,571,1583937506547,0.1836,0.1311,5.0372,2.1446302000000004,9.745406,5.6684546,-1
571,572,1583937506558,0.2771,0.21859999,4.7,2.3228353999999998,9.883974,5.201384,-1
572,573,1583937506568,0.5861,0.3454,4.1405997,2.683316,9.971553,4.6804633,-1
573,574,1583937506578,0.94439995,0.3545,3.6883,2.9858759999999998,9.910798,4.3626375,-1
574,575,1583937506588,1.0799999,0.2066,3.5656,2.8597686,9.702292,4.419179,-1
575,576,1583937506598,0.7019,-0.0594,3.7421,2.348214,9.434888,4.677868,-1
576,577,1583937506609,0.0844,-0.38509998,3.9261,1.6180493999999999,9.089884,4.906236,-1
577,578,1583937506619,-0.5688,-0.6821,4.0449,1.0231956,8.849534,4.9999839999999995,-1
578,579,1583937506629,-0.9975,-0.8325,4.0067997,0.68879265,8.714310000000001,4.883673,-1
579,580,1583937506639,-1.1159999,-0.9051,3.7386,0.6430634,8.734929,4.5092587,-1
580,581,1583937506649,-1.0919,-0.89019996,3.2135,0.64757407,8.735983000000001,3.9118763999999997,-1
581,582,1583937506660,-1.0034,-0.89589995,2.5585,0.77748346,8.747752,3.1863666,-1
582,583,1583937506670,-0.8508,-0.8724,1.8477,0.8628703000000001,8.772144,2.4377855999999998,-1
583,584,1583937506680,-0.8003,-0.8387,1.1423,0.9723428,8.835925999999999,1.6163161,-1
584,585,1583937506690,-0.5877,-0.74509996,0.5629,1.2444007,8.963336,1.0799956,-1
585,586,1583937506700,-0.32,-0.63049996,0.1138,1.4816566,9.061976,0.65984195,-1
586,587,1583937506710,-0.14199999,-0.5836,-0.2562,1.5069106,9.0816765,0.33688334,-1
587,588,1583937506721,-0.1783,-0.5656,-0.44739997,1.4637096,9.089874,0.3766271,-1
588,589,1583937506731,-0.23439999,-0.5564,-0.2694,1.3437313,9.101165,0.6030131999999999,-1
589,590,1583937506741,-0.3775,-0.5566,-0.0786,1.1567346,9.090448,0.823184,-1
590,591,1583937506751,-0.5703,-0.5467,0.15799999,1.0251302,9.138122000000001,1.0286256,-1
591,592,1583937506761,-0.6475,-0.4973,0.2879,1.0636481000000002,9.192441,1.0172292,-1
592,593,1583937506772,-0.5221,-0.4182,0.1761,1.2461532,9.30449,0.85524714,-1
593,594,1583937506782,-0.37019998,-0.3094,0.0184,1.3812628,9.375675,0.6717268,-1
594,595,1583937506792,-0.28759998,-0.2791,-0.1175,1.4202883,9.31762,0.5658648000000001,-1
595,596,1583937506802,-0.2435,-0.3078,-0.2041,1.3692153,9.328921000000001,0.5941354999999999,-1
596,597,1583937506812,-0.3358,-0.3269,-0.1733,1.305903,9.321356,0.70070624,-1
597,598,1583937506822,-0.3992,-0.3163,-0.0254,1.2961538000000001,9.350057000000001,0.85453844,-1
598,599,1583937506833,-0.3836,-0.2764,0.092099994,1.3515556,9.443306,0.9233094999999999,-1
599,600,1583937506843,-0.3409,-0.17719999,0.1705,1.3723372,9.474843,0.96680737,d
600,601,1583937506853,-0.32889998,-0.14649999,0.1999,1.4777683000000001,9.529497000000001,0.87940943,-1
601,602,1583937506863,-0.1911,-0.096,0.0947,1.6416848999999998,9.577611,0.80904865,-1
602,603,1583937506874,-0.0547,-0.045599997,0.033099998,1.7651203999999998,9.661963,0.71238035,-1
603,604,1583937506884,0.0327,0.024,-0.0637,1.6941945999999999,9.645539,0.64607054,-1
604,605,1583937506894,-0.0548,0.0148,-0.0903,1.645621,9.649714,0.6206345,-1
605,606,1583937506904,-0.1121,0.0155,-0.107999995,1.6520279999999998,9.688224,0.72154534,-1
606,607,1583937506915,-0.1116,0.0557,0.008599999,1.747681,9.811946,0.87521476,-1
607,608,1583937506925,-0.024699999,0.1849,0.1595,1.9334327,9.901116,0.9829825999999999,-1
608,609,1583937506935,0.2076,0.305,0.3256,2.1905892000000002,10.125989,1.3770011999999998,-1
609,610,1583937506945,0.40899998,0.6432,0.99909997,2.21524,10.2669115,1.7189218999999998,-1
610,611,1583937506955,0.34289998,0.8795,1.1618,2.1622226,10.498717,1.8711164,-1
611,612,1583937506966,0.2994,1.1047,1.2064999,2.1184952,10.730611999999999,1.8996841,-1
612,613,1583937506976,0.2994,1.1047,1.2064999,2.0091088,10.976092,1.7929986,-1
613,614,1583937506986,-0.022799998999999998,1.5812,0.9091,1.7943488,11.204988499999999,1.5509541999999998,-1
614,615,1583937506996,-0.0782,1.8434,0.8706,1.7521343,11.529671,1.4786973,-1
615,616,1583937507006,0.033,2.2335,0.9736,1.8422041,11.867512,1.5566238000000001,-1
616,617,1583937507017,0.1451,2.6534,1.2257,1.9467733,12.369576,1.8421754000000001,-1
617,618,1583937507027,0.1726,3.0535,1.5194,1.9756857,12.7745695,2.1458367999999997,-1
618,619,1583937507037,0.225,3.4431,1.8375,2.0289422999999998,13.151589000000001,2.4331985,-1
619,620,1583937507047,0.4109,3.7238998,2.0442998,2.2297103,13.405116,2.6302605,-1
620,621,1583937507057,0.7211,3.8959,2.169,2.4602435000000002,13.542092000000002,2.7210581,-1
621,622,1583937507068,1.0979999,3.9882998,2.144,2.8490808,13.657598499999999,2.6979492,-1
622,623,1583937507078,1.3472998999999999,4.04,2.1469,3.0304272,13.699229,2.713598,-1
623,624,1583937507088,1.4513999,4.0311,2.1401,3.0629787,13.690342000000001,2.7112036,-1
624,625,1583937507098,1.5194,3.9713998,2.1157,3.0441700000000003,13.617788000000001,2.6810560000000003,-1
625,626,1583937507109,1.5217999,3.8511,2.0069999999999997,2.896668,13.507423999999999,2.529388,-1
626,627,1583937507119,1.2915,3.6804997999999998,1.8533,2.4508486,13.319517999999999,2.3365204,-1
627,628,1583937507129,0.87549996,3.5191998,1.5933,1.9258096999999998,13.171681,2.0447154,-1
628,629,1583937507139,0.4554,3.3388998999999995,1.3296,1.4916260000000001,13.034791,1.8837291,-1
629,630,1583937507149,-0.0021,3.1898,1.3091999,0.78898525,12.857543,1.9261448,-1
630,631,1583937507160,-0.4809,3.0038998,1.42,0.14143029,12.72498,2.2138321,-1
631,632,1583937507170,-0.82589996,2.9478,1.7247,-0.22969013,12.710519999999999,2.6165752,-1
632,633,1583937507180,-0.99079996,2.9527,2.0930998,-0.25536555,12.7621765,3.0980396,-1
633,634,1583937507190,-0.848,3.0277998,2.5514997999999998,-0.059989117,12.883314,3.546033,-1
634,635,1583937507201,-0.3378,3.1722999,2.9081,0.68113124,13.025961,3.8070296999999997,-1
635,636,1583937507211,0.59029996,3.3076,3.0465,1.5886870000000002,13.130903,3.8708782,-1
636,637,1583937507221,1.5352,3.3346,3.0274,2.1625867000000003,13.051435000000001,3.8736365,-1
637,638,1583937507231,1.9945998999999999,3.2059,3.03,2.2487682999999996,12.82887,3.783643,-1
638,639,1583937507241,1.9855,2.8896,2.8739,2.0042534,12.407127000000001,3.5710763999999995,-1
639,640,1583937507252,1.8319999,2.4456,2.6266,1.671986,11.908109,3.1829188,-1
640,641,1583937507261,1.6384,1.8939999,2.2001,1.5127428,11.374421,2.717984,-1
641,642,1583937507271,1.7917,1.3824999,1.7873,1.620616,10.882833999999999,2.1884919999999997,-1
642,643,1583937507281,1.9647,0.86259997,1.3054999,1.5006665000000001,10.298333,1.7310748,-1
643,644,1583937507291,1.8346,0.2368,0.9949,1.0176314,9.581805000000001,1.4528208,-1
644,645,1583937507302,1.3518,-0.475,0.8337,0.24389254,8.828589,1.2151243999999999,-1
645,646,1583937507312,0.8362,-1.0771998999999999,0.6569,-0.3681995,8.229819,0.7350199000000001,-1
646,647,1583937507322,0.46949998,-1.6488,0.2022,-0.07739017,7.904725,-0.056215855999999995,-1
647,648,1583937507332,1.0813999,-1.8860999,-0.5517,0.63535404,7.6873125999999985,-0.9726396,-1
648,649,1583937507342,1.8004999,-2.1325,-1.3567,0.8038867,7.3939075,-1.5825386000000001,-1
649,650,1583937507353,1.9966999,-2.3969,-1.819,0.56557745,7.1267914999999995,-1.8150827,-1
650,651,1583937507362,1.7594,-2.6797,-1.9523,0.12196063,6.857989999999999,-1.8424339,-1
651,652,1583937507372,1.2139,-3.0009,-1.8824999,-0.6483306999999999,6.553208000000001,-1.7180886999999998,-1
652,653,1583937507382,0.5239,-3.2533998,-1.6542,-1.4528495000000001,6.2248383,-1.4908694,-1
653,654,1583937507392,0.0088,-3.5461998,-1.4869999999999999,-1.6857479,6.0117636,-1.4300567,-1
654,655,1583937507402,-0.10789999,-3.7228,-1.4241999,-1.4153850000000001,5.920325,-1.697556,-1
655,656,1583937507412,0.34939998,-3.7738998,-1.7184999,-0.9967636000000001,5.8359723,-2.0815094,-1
656,657,1583937507422,0.7374,-3.8655998999999994,-2.0274,-0.6535883000000001,5.8736377,-2.4155867000000004,-1
657,658,1583937507432,1.1589,-3.7422,-2.3439,-0.30719522,6.052331,-2.8307412,-1
658,659,1583937507442,1.4511,-3.5992,-2.6499,-0.35958034,6.0966334,-2.862115,-1
659,660,1583937507452,1.3636999,-3.5435998,-2.6046,-0.5661616999999999,6.1227684,-2.8506994,-1
660,661,1583937507462,1.2507,-3.5066998,-2.5698,-0.5449107,6.2099459999999995,-2.9103055,-1
661,662,1583937507472,1.2973,-3.4197998,-2.5628998,-0.6625043,6.278698400000001,-2.8791807,-1
662,663,1583937507483,1.1721,-3.3511998999999997,-2.4759,-1.0392271,6.366182299999999,-2.7501043999999997,-1
663,664,1583937507493,0.8063,-3.2124999,-2.2793,-1.4544678999999998,6.519622,-2.6790447,-1
664,665,1583937507503,0.4527,-3.063,-2.2284,-1.6764392,6.5749474,-2.799703,-1
665,666,1583937507513,0.324,-2.9522998,-2.3242,-1.787147,6.7927046,-2.924297,-1
666,667,1583937507523,0.2701,-2.7538,-2.3353999,-1.9291233,6.9640336,-2.9432209,-1
667,668,1583937507533,0.15349999,-2.5855,-2.3141,-2.0764241,7.061994599999999,-2.818234,-1
668,669,1583937507543,0.0711,-2.4579,-2.1157,-2.139813,7.251500599999999,-2.5461953,-1
669,670,1583937507553,0.031799997999999996,-2.2536,-1.7896999,-2.1863945,7.388133,-2.2955799999999997,-1
670,671,1583937507563,0.0074,-2.09,-1.4222,-2.3044,7.59209,-1.7916291000000002,-1
671,672,1583937507573,-0.090399995,-1.8984,-1.0495,-2.2811186,7.735291999999999,-1.8795728999999999,-1
672,673,1583937507583,-0.0173,-1.7667999,-1.2156999,-2.0703237,7.9469395,-2.1929162,-1
673,674,1583937507594,0.2357,-1.5288,-1.5381,-1.6241211000000002,8.205532,-2.4540472,-1
674,675,1583937507604,0.6216,-1.3312,-1.7256999,-1.4632307,8.395661,-2.3514795,-1
675,676,1583937507614,0.80149996,-1.1047,-1.5667,-1.4347589,8.533998500000001,-1.9933357,-1
676,677,1583937507624,0.8279,-0.9859,-1.2685,-1.7058686,8.536814,-1.5152136,-1
677,678,1583937507634,0.5639,-0.9842,-0.79969996,-1.9087055,8.538892,-1.099111,-1
678,679,1583937507644,0.3715,-0.982,-0.3915,-1.9072784999999999,8.632992999999999,-0.8584361999999999,-1
679,680,1583937507655,0.385,-0.89129996,-0.1573,-1.8023168,8.767365,-0.78497255,-1
680,681,1583937507665,0.5049,-0.75159997,-0.0954,-1.7641914,8.9554825,-0.6821272,-1
681,682,1583937507675,0.5613,-0.5517,-0.0030999999,-1.7937741000000003,9.049269,-0.5635759,-1
682,683,1583937507685,0.5277,-0.43269998,0.16309999,-1.8395993000000002,9.230069,-0.35513672,-1
683,684,1583937507695,0.4958,-0.2836,0.32279998,-1.8186740000000001,9.287224,-0.33296642,-1
684,685,1583937507705,0.5354,-0.2215,0.36249998,-1.8402121,9.261097999999999,-0.6579554,-1
685,686,1583937507716,0.51919997,-0.2365,0.057299998,-1.957777,9.227167,-1.202349,-1
686,687,1583937507726,0.4517,-0.26839998,-0.3848,-2.1167617,9.186389,-1.4441537,-1
687,688,1583937507736,0.0883,-0.32439998,-0.7209,-2.3290987000000003,9.155609,-1.4947289,d
688,689,1583937507746,-0.242,-0.35700000000000004,-0.4845,-2.684063,9.120299000000001,-1.2767031999999998,-1
689,690,1583937507756,-0.6326,-0.40989998,-0.19489999,-3.0956836,9.068622999999999,-0.9935841000000001,-1
690,691,1583937507767,-0.96779996,-0.43449998,-0.0267,-3.5148318,9.001949,-0.7935821,-1
691,692,1583937507777,-1.1219,-0.5097,0.1392,-3.6244192,8.962033,-0.6147544,-1
692,693,1583937507787,-1.1258,-0.4887,0.3827,-3.6201095999999997,8.976638000000001,-0.3536523,-1
693,694,1583937507798,-1.0985,-0.41079998,0.62729996,-3.5170727,9.105723,-0.13057975,-1
694,695,1583937507808,-0.7769,-0.2862,0.6502,-2.9971382999999996,9.272418,-0.19977218,-1
695,696,1583937507818,-0.023699999,-0.0361,0.4428,-2.1355896,9.556245,-0.45436203,-1
696,697,1583937507828,0.6958,0.21319999,0.24949999,-1.6646310000000002,9.705203,-0.60571384,-1
697,698,1583937507838,0.94909996,0.29729998,0.1171,-1.4605589,9.772528999999999,-0.7321948,-1
698,699,1583937507848,0.87759995,0.217,0.15269999,-1.6464446,9.653661,-0.64148325,-1
699,700,1583937507858,0.5011,0.1489,0.3461,-2.0525968,9.598163000000001,-0.45346179999999997,-1
700,701,1583937507868,0.18869999,0.0726,0.4637,-2.2570232999999997,9.548900999999999,-0.4229597,-1
701,702,1583937507879,0.102699995,0.0557,0.4578,-2.3236206000000004,9.521951,-0.5418556999999999,-1
702,703,1583937507890,0.0743,0.0391,0.1717,-2.3615928,9.481641999999999,-0.9367361999999999,-1
703,704,1583937507900,0.0142,0.0023999998999999998,-0.1911,-2.4087775000000002,9.495279,-1.2400432,-1
704,705,1583937507910,-0.0202,0.0235,-0.37019998,-2.3704991,9.575408,-1.4881976000000001,-1
705,706,1583937507920,0.1078,0.19029999,-0.5537,-2.1146069,9.797744,-1.621248,-1
706,707,1583937507931,0.37039998,0.38529998,-0.6045,-1.9187707999999999,9.971026,-1.6696587999999999,-1
707,708,1583937507941,0.4678,0.5215,-0.6591,-1.9173533999999999,10.026323,-1.8493292000000001,-1
708,709,1583937507951,0.4024,0.5604,-0.92179996,-2.0256767,10.025097,-2.0617526,-1
709,710,1583937507961,0.3111,0.5804,-1.0388,-2.0475214,10.08093,-2.1828225,-1
710,711,1583937507971,0.3583,0.63989997,-1.1762999,-1.8592794999999998,10.144117999999999,-2.4103003,-1
711,712,1583937507981,0.6107,0.7091,-1.4797,-1.5883517,10.174218,-2.8451736,-1
712,713,1583937507992,0.83239996,0.69949996,-1.9204999,-1.4147626,10.169812,-3.2295291,-1
713,714,1583937508002,1.033,0.74799997,-2.2273,-1.0354155999999999,10.287847,-3.4475834,-1
714,715,1583937508012,1.4080000000000001,0.8249,-2.3623,-0.6415215999999999,10.353859,-3.4664881000000003,-1
715,716,1583937508023,1.9102,0.9306,-2.3841,-0.07965988,10.443968,-3.5748879999999996,-1
716,717,1583937508033,2.425,0.97789997,-2.5356,0.3015545,10.448459,-3.7703412000000003,-1
717,718,1583937508043,2.7014,0.9582,-2.7463,0.48984408,10.358734,-3.9764242,-1
718,719,1583937508053,2.8211,0.86259997,-2.9069,0.48780423,10.204566,-4.083426,-1
719,720,1583937508063,2.7854,0.7015,-3.0163999,0.28555164,9.98477,-4.1989126,-1
720,721,1583937508073,2.6429,0.514,-3.1134999,-0.06767929,9.864225,-4.2892413000000005,-1
721,722,1583937508084,2.3430998,0.3881,-3.1984,-0.49298528,9.700999000000001,-4.3384656999999995,-1
722,723,1583937508094,1.8844999,0.2157,-3.2533,-1.1652483999999999,9.436191,-4.4429680000000005,-1
723,724,1583937508104,1.3827,0.0156,-3.3379,-1.5732874,9.221249,-4.564632,-1
724,725,1583937508114,0.9424,-0.2226,-3.5019,-2.0501168,8.942296,-4.785588,-1
725,726,1583937508124,0.62,-0.4411,-3.6783997999999998,-2.1843642999999995,8.718399,-4.9450417,-1
726,727,1583937508134,0.5412,-0.6505,-3.8402,-2.2402928,8.469565,-5.004235700000001,-1
727,728,1583937508145,0.5487,-0.88049996,-3.9118,-2.2297678,8.190593,-4.952521,-1
728,729,1583937508154,0.6127,-1.1513,-3.8859,-2.1620696,7.9678645,-4.843269,-1
729,730,1583937508164,0.76199996,-1.4337,-3.7737,-2.0524628000000003,7.724518300000001,-4.541092,-1
730,731,1583937508174,0.90819997,-1.6100999,-3.449,-1.9738276999999997,7.6157928,-3.8749964,-1
731,732,1583937508184,1.0034,-1.7096,-2.7946,-2.1612362999999997,7.4818229999999994,-2.9839702,-1
732,733,1583937508194,0.8727,-1.8192999,-2.131,-2.2804291,7.3173985,-2.44674,-1
733,734,1583937508204,0.75119996,-2.0073,-1.5619,-2.4492203999999997,7.039086999999999,-1.8629761999999999,-1
734,735,1583937508215,0.6677,-2.2440999,-1.1716,-2.4480903,6.753784,-1.3138038,-1
735,736,1583937508225,0.72679996,-2.5161998,-0.7373,-2.5583866000000004,6.472379,-0.6579362,-1
736,737,1583937508235,0.6435,-2.7951,-0.1296,-2.5409758,6.1346245,0.038738184,-1
737,738,1583937508245,0.70199996,-3.1192,0.46539998,-2.5316672000000002,5.748718,0.82023436,-1
738,739,1583937508255,0.7102,-3.8075,1.8134999,-2.5953147,5.439176,1.54019,-1
739,740,1583937508265,0.7102,-3.8075,1.8134999,-2.7568657,5.218047599999999,2.1121647,-1
740,741,1583937508276,0.23869999,-4.4109,2.9212,-3.1190990000000003,4.810162,2.7591066000000004,-1
741,742,1583937508286,0.0861,-4.661299700000001,3.1959,-3.288302,4.5653977,3.075132,-1
742,743,1583937508296,0.0861,-4.661299700000001,3.1959,-3.3974104,4.293972,3.1458662,-1
743,744,1583937508306,0.0009999999,-5.1313,3.2879,-3.379521,4.09804,3.201603,-1
744,745,1583937508316,0.0579,-5.3317,3.2285,-3.310118,3.8921869,3.1442667999999996,-1
745,746,1583937508327,0.1443,-5.4079999999999995,3.1476,-3.148203,3.8511309999999996,3.071694,-1
746,747,1583937508337,0.3085,-5.3115,3.3061,-2.9864123,3.9588125,3.236587,-1
747,748,1583937508347,0.5412,-5.1203,3.33,-2.6414654,4.2101655,3.163411,-1
748,749,1583937508357,1.0689,-4.7553997,3.0133,-2.0160327000000002,4.6134059999999995,2.815016,-1
749,750,1583937508367,1.4757999,-4.2931,2.7547,-1.6089801000000001,5.164475,2.5936098,-1
750,751,1583937508378,1.4947,-3.9174,2.8025,-1.7429116999999998,5.5343504,2.723414,-1
751,752,1583937508388,0.99079996,-3.6374998,3.1037998,-2.2741756,5.7682257,3.1781783,-1
752,753,1583937508398,0.5211,-3.4541,3.7163,-2.60515,5.9360304,3.7256076,-1
753,754,1583937508408,0.0393,-2.9477,4.289,-3.0876775000000003,6.6727743,4.358587,-1
754,755,1583937508418,-0.3322,-2.316,4.6893,-3.341731,7.1918564,4.660888,-1
755,756,1583937508429,-0.62509996,-1.579,4.742,-3.5693907999999994,8.125614,4.690183599999999,-1
756,757,1583937508439,-0.8789,-0.8641,4.8953,-3.7917452000000003,8.770439,5.1276426,-1
757,758,1583937508449,-1.1887,-0.3858,5.3887,-4.038367,9.24974,5.7246795,-1
758,759,1583937508459,-1.5446,0.0523,6.0471997,-4.3552446,9.677584,6.517898000000001,-1
759,760,1583937508469,-1.8994,0.4504,6.8452997,-4.47121,10.139864999999999,7.367255,-1
760,761,1583937508479,-1.8644999,1.0331,7.5046,-4.178332,10.841826,7.990792,-1
761,762,1583937508490,-1.5004,1.7806,7.8542,-3.5974220999999997,11.6037,8.306262,-1
762,763,1583937508500,-0.92149997,2.4097,8.0652,-2.6106853,12.347856,8.611034,-1
763,764,1583937508510,-0.19139999,3.0096998,8.1991,-1.9470319,12.813471,8.734805,-1
764,765,1583937508520,0.52889997,3.5328,8.4072,-1.0721139,13.358726500000001,8.968,-1
765,766,1583937508530,1.1956999,4.0185,8.4794,-0.40710050000000003,13.802659,8.951862,-1
766,767,1583937508541,1.5789,4.3887997,8.3236,-0.009892841999999999,14.193957999999999,8.699274,-1
767,768,1583937508551,1.8190998999999999,4.7026,7.9624,0.41436926,14.537870000000002,7.993990400000001,-1
768,769,1583937508561,2.0158,4.9795,7.2205997,0.6988196,14.898198,6.902943,-1
769,770,1583937508571,2.2388,5.4065,6.0174,0.9631203000000002,15.401335000000001,5.266918,-1
770,771,1583937508581,2.5079,5.8371,4.355,1.2532113,15.661382999999999,3.7693162000000004,-1
771,772,1583937508591,2.6382,5.968,2.6232998,1.1061306999999998,15.696435000000001,1.6344258,-1
772,773,1583937508601,2.1499999,5.8778996,1.0637,0.18243816,15.421617999999999,0.041544187999999996,-1
773,774,1583937508612,1.0497999,5.5656,-0.2764,-1.0730811000000002,15.147549,-1.2182943000000002,-1
774,775,1583937508622,-0.1926,5.2837996,-1.3795998999999999,-1.9620196,14.858569000000001,-2.172288,-1
775,776,1583937508632,-0.7288,5.1176,-1.9540999,-2.0475883,14.737097,-2.2416812999999998,-1
776,777,1583937508642,-0.6644,4.9279,-1.712,-1.8976346000000002,14.521839000000002,-1.6777511999999999,-1
777,778,1583937508652,-0.5553,4.696000000000001,-1.0574,-1.4855924999999999,14.200269,-0.75518864,-1
778,779,1583937508662,-0.1016,4.433399700000001,-0.38419998,-0.6999018,14.080971,-0.32421324,-1
779,780,1583937508673,1.0555,4.2788997,-0.0843,1.0726597,13.959632999999998,-0.41933963,-1
780,781,1583937508683,2.4543,4.1653,-0.3585,2.082084,13.699489000000002,-0.84529686,-1
781,782,1583937508693,3.2637,3.8581998,-0.8084,2.1622898999999998,13.177964000000001,-1.1860013,-1
782,783,1583937508703,3.1469998,3.2893999,-1.1508,1.5902001000000001,12.499255999999999,-1.5628773999999999,-1
783,784,1583937508713,2.5844998,2.6158,-1.5328,0.9497607,11.867139,-1.9539368000000001,-1
784,785,1583937508724,2.0158,2.0042,-1.9117,0.64800507,11.371414,-2.4491248,-1
785,786,1583937508734,1.8564999,1.568,-2.388,0.74833167,10.978497500000001,-3.1264539,-1
786,787,1583937508744,2.0376,1.1823,-3.0502,0.83998173,10.673475,-3.8078724999999998,-1
787,788,1583937508754,2.1176,0.87549996,-3.6539,0.62599754,10.285414,-4.508253,-1
788,789,1583937508765,1.9111999,0.5006,-4.27,0.43688434,10.003712,-5.2088633,-1
789,790,1583937508775,1.9174,0.0755,-5.7008,0.5208442,9.774127,-6.2170525,-1
790,791,1583937508785,2.0806,-0.0726,-6.5464,0.6591236999999999,9.618131,-7.1519594,-1
791,792,1583937508795,2.0806,-0.0726,-6.5464,0.60745686,9.42377,-7.790627000000001,-1
792,793,1583937508805,1.7716,-0.54249996,-7.725,0.2875532,9.127606,-8.501311999999999,-1
793,794,1583937508815,1.6845,-0.7955,-8.0918,0.1771422,8.867308999999999,-8.9497175,-1
794,795,1583937508826,1.6682999,-0.98889995,-8.375199,0.13028288,8.594227,-9.442721,-1
795,796,1583937508836,1.6682999,-0.98889995,-8.375199,0.06529467,8.446245,-9.648796,-1
796,797,1583937508846,1.3802999,-1.4046999,-8.5715,-0.36460820000000005,8.149412,-9.549944,-1
797,798,1583937508856,1.0971999,-1.5598999,-8.158,-0.57731867,8.044806,-9.269036999999999,-1
798,799,1583937508866,0.97889996,-1.7559999,-7.6615,-0.7246099,7.806735499999999,-8.703660000000001,-1
799,800,1583937508876,1.0824,-1.8658999,-7.08,-0.6534734000000001,7.705307,-8.101958999999999,-1
800,801,1583937508887,1.2117,-1.9482,-6.4796,-0.5476880000000001,7.6283,-7.520025,-1
801,802,1583937508897,1.4266,-2.0121999,-5.8768,-0.32540074,7.5658975,-6.9121274999999995,-1
802,803,1583937508907,1.6507,-2.0179,-5.2887,-0.1852729,7.5481419999999995,-6.285756,-1
803,804,1583937508917,1.5242,-2.1311998,-4.6057,-0.38930675,7.4217095,-5.613359,-1
804,805,1583937508927,1.1747,-2.2932,-4.0909,-0.8128123,7.235364,-5.1261773,-1
805,806,1583937508938,0.66819996,-2.5335,-3.8019,-1.3939138999999998,6.999181,-4.824939,-1
806,807,1583937508948,0.2347,-2.7063,-3.4654998999999997,-1.7987255000000002,6.781739,-4.3685274000000005,-1
807,808,1583937508958,0.2025,-2.8227,-3.0337,-1.7007164000000001,6.71926,-3.9406357000000005,-1
808,809,1583937508968,0.5107,-2.8634,-2.6732,-1.319205,6.676978599999999,-3.5336790000000002,-1
809,810,1583937508978,0.9055,-2.9164,-2.2649,-0.99887055,6.656742599999999,-3.1858299999999997,-1
810,811,1583937508988,1.1945,-2.8434,-1.8269,-0.66904527,6.7684274,-2.6458132,-1
811,812,1583937508998,1.3224,-2.7707999,-1.4738,-0.6034059,6.857195,-2.3219256,-1
812,813,1583937509009,1.3608999,-2.5997,-1.1733999,-0.51637185,7.054803,-2.052032,-1
813,814,1583937509019,1.4094,-2.4375,-1.051,-0.5096489000000001,7.1949687,-1.9890261000000002,-1
814,815,1583937509029,1.2353,-2.3229,-0.97889996,-0.7827316,7.276534,-1.8697278000000002,-1
815,816,1583937509039,0.9271,-2.2756,-0.8221,-1.0067713,7.3286036999999995,-1.7642776999999998,-1
816,817,1583937509049,0.76559997,-2.2477,-0.7894,-1.1516589,7.3249454,-1.7691236000000001,-1
817,818,1583937509059,0.5707,-2.3088999,-0.78819996,-1.3262249,7.245582000000001,-1.7327412,-1
818,819,1583937509070,0.4754,-2.461,-0.65999997,-1.2404263,6.9935303,-1.545735,-1
819,820,1583937509080,0.6221,-2.6759999,-0.4123,-0.90528595,6.845032000000001,-0.8663179,-1
820,821,1583937509090,0.9993,-2.8074,0.5283,-0.420259,6.791795,0.36309507,-1
821,822,1583937509100,1.4023,-2.8348,1.6906999,-0.102031305,6.7965927,1.5508777,-1
822,823,1583937509111,1.4722998999999999,-2.8739,2.7294998,-0.18787779,6.750758,2.3142927,-1
823,824,1583937509121,1.1164,-3.0010998,3.5166,-0.46029007,6.645403999999999,3.3434355000000004,-1
824,825,1583937509131,0.9334,-3.0291997999999998,4.2955,-0.38023755,6.708744500000001,4.2295775,-1
825,826,1583937509141,1.089,-2.9775,5.0815997,0.03841257,6.751496,5.008153,-1
826,827,1583937509152,1.3876,-2.9831998,5.7509,0.46536579999999994,6.701485000000001,5.8627872000000005,-1
827,828,1583937509162,1.6254,-3.0363998,6.4305,0.66822165,6.785311,6.684257000000001,-1
828,829,1583937509172,1.6962999,-2.9507,7.179199700000001,0.7239204,6.970047999999999,7.294663000000001,-1
829,830,1583937509182,1.6412,-2.7454,7.7068,0.70097435,7.2233257,7.5635414,-1
830,831,1583937509192,1.4892,-2.5091,7.8504,0.53511363,7.3968286999999995,7.3814387,-1
831,832,1583937509203,1.2498,-2.3398,7.6503,0.41055772,7.690884599999999,7.0161123,-1
832,833,1583937509213,1.0292,-2.0809,7.3001,0.17247829,7.8497639999999995,6.62829,-1
833,834,1583937509223,0.63159996,-1.9202,6.9256,0.077246524,8.03225,6.3053026,-1
834,835,1583937509233,0.5223,-1.736,6.6728,0.28382779999999996,8.260455,6.283276,-1
835,836,1583937509243,0.6684,-1.4742998999999999,6.7135997000000005,0.36911887,8.585032,6.246597,-1
836,837,1583937509253,0.5804,-1.1432999,6.706,0.36970305,8.908107000000001,6.269897,-1
837,838,1583937509264,0.5042,-0.8311,6.726,0.5455524,9.234302,6.0277476,-1
838,839,1583937509274,0.56659997,-0.48839998,6.4304,0.98178554,9.712645,5.817182,-1
839,840,1583937509284,0.90449995,0.0026,6.2383,1.4264175,10.174189,5.7375126,-1
840,841,1583937509294,1.0892998999999999,0.37759998,6.1575,1.703599,10.545396,5.863284999999999,-1
841,842,1583937509304,1.2134,0.7545,6.2397,2.1984037999999995,11.045506,6.126532,-1
842,843,1583937509314,1.5617,1.2513,6.450599700000001,2.5939164,11.497368,6.3966080000000005,-1
843,844,1583937509325,2.0725,2.1933,6.9305,3.0005286,11.962867999999999,6.716981,-1
844,845,1583937509335,1.9767,2.5296,6.8244,2.9996473999999997,12.367307,6.631077,-1
845,846,1583937509345,1.7328999,2.8082,6.4716,2.9272373,12.549495,6.3420486,-1
846,847,1583937509356,1.7504,3.1271,5.7942,3.097666,12.916345,5.5480933,-1
847,848,1583937509366,1.8118999,3.5351998999999994,5.0941997,3.2301900000000003,13.3280325,4.901075,-1
848,849,1583937509376,1.6336,3.8555998999999996,4.5622997000000005,3.1655273,13.559657000000001,4.511203,-1
849,850,1583937509386,1.607,4.1373997000000005,4.1644998,3.2418256000000003,13.813069,4.1383295,-1
850,851,1583937509396,1.6338999,4.3608,3.6859998999999997,3.3752690000000003,14.026268,3.6946267999999995,-1
851,852,1583937509406,1.7451999,4.5547,3.2194998,3.6006494,14.214241000000001,3.1384346,-1
852,853,1583937509417,1.8341,4.6306,2.7086,3.7828769999999996,14.268034,2.6743426,-1
853,854,1583937509427,1.7835,4.6665998,2.2525,3.7916398,14.276451999999999,2.3150303,-1
854,855,1583937509437,1.8574,4.6821,1.6156,4.0013814,14.283135999999999,1.5411572,-1
855,856,1583937509447,2.3191,4.7657,0.93179995,4.5683956,14.374107,0.8864101000000001,-1
856,857,1583937509457,2.7389,4.7991,0.24749999,4.998911,14.345865,0.18156669,-1
857,858,1583937509467,2.8372,4.683,-0.449,5.0812044,14.209415,-0.47794970000000003,-1
858,859,1583937509477,2.6053,4.4758997,-1.013,4.8147492,13.955419000000001,-1.0401849,-1
859,860,1583937509487,2.2961,4.1387997,-1.5534999,4.562381299999999,13.551345000000001,-1.5778267,-1
860,861,1583937509498,2.2292,3.8592,-1.8486999,4.581908,13.346151,-1.7354994,-1
861,862,1583937509508,2.3144999,3.6866,-1.9978,4.662104599999999,13.217870000000001,-1.8129278000000002,-1
862,863,1583937509518,2.3274999,3.405,-2.1266,4.6589155,12.830200999999999,-1.9272557000000001,-1
863,864,1583937509528,2.2308,3.1511998,-2.3269,4.496042299999999,12.520238,-2.1664939999999997,-1
864,865,1583937509538,2.0351999,2.7579,-2.8034,4.312933999999999,12.166797,-2.727331,-1
865,866,1583937509549,1.9456999,2.4406,-3.5079,4.2344904,11.838264,-3.4467597000000003,-1
866,867,1583937509559,1.8828,2.1015,-4.1949997,4.1596,11.500701,-4.0667815,-1
867,868,1583937509569,1.9137,1.7706,-4.7846,4.178543,11.205217999999999,-4.5938125,-1
868,869,1583937509579,1.8607999,1.4583,-5.187599700000001,4.0076733,10.857599,-4.909454,-1
869,870,1583937509589,1.6453999,1.0670998999999999,-5.3441997,3.7532752,10.517978,-4.939602,-1
870,871,1583937509599,1.4607999,0.75479996,-5.2481,3.5437152000000003,10.201416,-4.7389107,-1
871,872,1583937509610,1.3927,0.48259997,-4.937599700000001,3.4602919,9.907782000000001,-4.194699,-1
872,873,1583937509620,1.3614,0.2314,-4.4782,3.2981949999999998,9.669511,-3.6886315,-1
873,874,1583937509630,1.1324999,-0.0189,-4.0043,2.9804173,9.425685000000001,-3.1829092999999995,-1
874,875,1583937509640,0.93179995,-0.249,-3.5605,2.9252548,9.239321,-2.7363044999999997,-1
875,876,1583937509651,1.0128,-0.3904,-3.1394,3.067911,9.158071000000001,-2.2601838,-1
876,877,1583937509661,1.1609,-0.47329998,-2.7933998,3.0621647999999997,9.055963,-2.1280527,-1
877,878,1583937509671,1.1144,-0.6163,-2.8133,2.9506717,8.937880499999999,-2.3095236,-1
878,879,1583937509681,1.0318999,-0.7511,-3.0709,2.7483616,8.784824,-2.6023536,-1
879,880,1583937509691,0.77559996,-0.9167,-3.3543,2.404219,8.618811,-2.8950496,-1
880,881,1583937509701,0.5114,-1.0433999,-3.5349,2.1591005,8.522247,-2.9176509999999998,-1
881,882,1583937509711,0.2959,-1.1794,-3.3962998,1.8083118000000002,8.403725,-2.5793214,-1
882,883,1583937509722,-0.12,-1.3058,-2.9052,1.2633436000000002,8.30472,-1.9224002,-1
883,884,1583937509732,-0.5742,-1.3591,-2.2231998,1.0004795,8.304269999999999,-1.3664379999999998,-1
884,885,1583937509742,-0.6184,-1.3526,-1.7965,1.3359549,8.410323,-0.98282933,-1
885,886,1583937509753,-0.044999998,-1.1874,-1.4592999,2.1157944,8.638231,-0.7475368,-1
886,887,1583937509763,0.5812,-0.99189997,-1.3242999,2.3580205000000003,8.804015,-0.564457,-1
887,888,1583937509774,0.74719995,-0.78709996,-1.0659999999999998,2.2324783999999998,8.931080999999999,-0.32253727,-1
888,889,1583937509784,0.5444,-0.72069997,-0.9273,1.8768243999999998,8.989997,-0.2086116,-1
889,890,1583937509794,0.27609998,-0.67509997,-0.8075,1.7630136000000003,9.000034,-0.27313054,-1
890,891,1583937509804,0.15529999,-0.6792,-0.8928,1.7155029999999998,9.033667999999999,-0.44563755,-1
891,892,1583937509814,0.1645,-0.62549996,-1.0043,1.6441748999999999,9.109066,-0.5304018,-1
892,893,1583937509825,0.0885,-0.57,-1.0491999,1.3229209,9.108654,-0.51124823,-1
893,894,1583937509835,-0.4145,-0.5761,-0.8756,1.1097698999999999,9.112397999999999,-0.38424063,-1
894,895,1583937509845,-0.3394,-0.5183,-0.6774,1.1765107,9.174380000000001,-0.20027019,-1
895,896,1583937509855,-0.112799995,-0.44959998,-0.3985,1.3986926000000002,9.241100999999999,0.11126334,d
896,897,1583937509865,0.0614,-0.3213,-0.0932,1.5778556000000001,9.36177,0.42243296,-1
897,898,1583937509875,0.1567,-0.20279999,0.12419999400000001,1.6792740000000002,9.48578,0.6496331,-1
898,899,1583937509885,0.2234,-0.1434,0.2377,1.7519619999999998,9.542848,0.7567593,-1
899,900,1583937509896,0.213,-0.094399996,0.2391,1.7358154,9.586834,0.7604272,-1
900,901,1583937509906,0.1063,-0.0654,0.2258,1.6274825000000002,9.620075,0.73880273,-1
901,902,1583937509916,0.039499998,-0.0368,0.16669999,1.5392417999999999,9.657558,0.6834775,-1
902,903,1583937509926,-0.0863,-0.0278,0.19669999,1.4347111000000001,9.655528,0.6898557,-1
903,904,1583937509936,-0.0863,-0.0278,0.19669999,1.4194263999999999,9.696306,0.7298005,-1
904,905,1583937509946,0.059000000000000004,0.0792,0.30539998,1.5857852,9.77768,0.77624804,-1
905,906,1583937509957,0.09559999400000001,0.088999994,0.2653,1.6204436000000002,9.766725,0.7327981,-1
906,907,1583937509967,0.1228,0.059499998,0.2642,1.6530334999999998,9.729289,0.72632414,-1
907,908,1583937509977,0.1608,0.0103,0.1857,1.6952194,9.706659,0.6009829000000001,-1
908,909,1583937509987,0.1608,0.0103,0.1857,1.6638168999999998,9.729030999999999,0.54064906,-1
909,910,1583937509997,-0.0427,0.0185,0.036199998,1.4328723,9.698346,0.44130883,-1
910,911,1583937510008,-0.255,-0.0316,-0.0163,1.2731024,9.6611595,0.38575378,-1
911,912,1583937510018,-0.3899,-0.0425,-0.1083,1.0923114,9.632391,0.27395412,-1
912,913,1583937510028,-0.63479996,-0.092099994,-0.074599996,0.82590383,9.615421000000001,0.30858386,-1
913,914,1583937510038,-0.8249,-0.042799998,-0.0646,0.7597185000000001,9.691239999999999,0.2902634,-1
914,915,1583937510048,-0.5611,0.115499996,-0.109799996,1.1368818,9.858806,0.20910001,-1
915,916,1583937510058,-0.18509999,0.29459998,-0.24759999,1.4519971999999999,10.039567,0.08567411,-1
916,917,1583937510069,0.21859999,0.5722,-0.3883,1.9054781000000003,10.390663,-0.13197798,-1
917,918,1583937510079,0.41799998,0.87909997,-0.5416,2.0078638,10.685293,-0.18710208,-1
918,919,1583937510089,0.3759,1.1659,-0.5514,1.8576707,10.976141,-0.12902832,-1
919,920,1583937510099,0.0338,1.5209,-0.3197,1.4967303,11.353909,0.23573309,-1
920,921,1583937510109,-0.3542,1.954,0.036000000000000004,1.1409711999999999,11.820748,0.5209304,-1
921,922,1583937510120,-0.5556,2.495,0.058799997,1.1072129,12.427516,0.42658928,-1
922,923,1583937510130,-0.3769,3.1538,-0.19829999,1.3355719,13.105411,0.10362105,-1
923,924,1583937510140,-0.15079999,3.852,-0.53889996,1.6526983,13.99565,-0.30136293,-1
924,925,1583937510150,0.1339,4.6089,-0.8982,1.8917737000000001,14.557081,-0.65106964,-1
925,926,1583937510160,0.4201,5.2971997,-1.3596,2.2144356,15.213045000000001,-1.0089165999999998,-1
926,927,1583937510171,0.7977,5.9168997,-1.537,2.6014724,15.942807,-1.0379247999999999,-1
927,928,1583937510181,1.0052999,6.4870996,-1.4431,2.6524882,16.38518,-0.6670725000000001,-1
928,929,1583937510191,0.99759996,6.8308,-0.99789995,2.5768888,16.601921,-0.018646045,-1
929,930,1583937510201,0.8637,6.9477,-0.3333,2.4220414,16.601835,0.689396,-1
930,931,1583937510211,0.87829995,6.9256997,0.2452,2.5913593999999995,16.538303,1.0729855,-1
931,932,1583937510221,1.1365,6.7822,0.40899998,2.7688081,16.32135,1.1513621,-1
932,933,1583937510232,1.327,6.5325,0.41889998,2.8768535,16.024698,0.9715478999999999,-1
933,934,1583937510242,1.3467,6.1786,0.1017,2.3182576,15.5538645,0.7078409000000001,-1
934,935,1583937510252,0.71279997,5.6747,-0.0579,1.6980828000000001,15.067151,0.54065865,-1
935,936,1583937510262,0.3015,5.1405,-0.17459999,1.5741589,14.518966,0.35939840000000006,-1
936,937,1583937510272,0.4797,4.714699700000001,-0.2767,1.9841803,14.055141,0.14327861,-1
937,938,1583937510282,1.0399,4.2117,-0.4998,2.7556877,13.766478,-0.23623109,-1
938,939,1583937510292,1.9459,3.9552,-0.8009999999999999,3.5215354,13.435407999999999,-0.36275986,-1
939,940,1583937510302,2.7605,3.6016998,-0.83159995,3.9010546,13.167420000000002,-0.07873092599999999,-1
940,941,1583937510312,3.2256,3.2489998,-0.3287,3.9007193999999994,12.7302,0.65216136,-1
941,942,1583937510322,3.0902,2.7303,0.4477,3.2357254,12.060293,1.565693,-1
942,943,1583937510332,2.5799,2.1341,1.1445999,2.5580418,11.533406,1.9711174999999999,-1
943,944,1583937510342,1.8568,1.4412,1.5346,1.4507903999999998,10.6484995,2.0817103,-1
944,945,1583937510353,1.2069,0.7797,1.5435,0.89401406,9.995821000000001,1.8950585,-1
945,946,1583937510363,0.8373,0.061499998,1.3087,1.0041186,9.364422,1.4388386,-1
946,947,1583937510373,1.2228999,-0.54649997,0.8447,1.1813662,8.810106,0.9497511000000001,-1
947,948,1583937510383,1.4333,-1.123,0.4181,0.8349731,8.101931,0.74800605,-1
948,949,1583937510393,1.1601,-1.8246,0.3071,0.34827015,7.607739,0.835155,-1
949,950,1583937510403,0.805,-2.2986,0.41369998,-0.22677878,6.9999080000000005,0.91677815,-1
950,951,1583937510414,0.3663,-2.8885,0.5257,-0.6962913000000001,6.5148335,1.0527209,-1
951,952,1583937510424,0.0857,-3.3597,0.6279,-0.8493094999999999,6.0649055999999995,0.9761544,-1
952,953,1583937510434,0.1178,-3.7522,0.5374,-0.48151228,5.838289700000001,0.8738739999999999,-1
953,954,1583937510444,0.7064,-3.9389999999999996,0.44309998,0.3187353,5.6855206,0.7932852,-1
954,955,1583937510454,1.4344,-4.0572,0.41349998,0.70680666,5.552872,0.8788060999999999,-1
955,956,1583937510465,1.9086,-4.1844,0.5148,0.85129195,5.370204,0.83307683,-1
956,957,1583937510475,2.1438,-4.3589,0.49089998,0.47507665,5.198798,0.61972475,-1
957,958,1583937510485,1.8774998999999999,-4.5115,0.3123,-0.001982399,5.078724,0.68400425,-1
958,959,1583937510495,0.7901,-4.7223997,0.3594,-1.0066948,4.935714,0.6065183000000001,-1
959,960,1583937510506,0.1856,-4.7427998,0.49719998,-1.7126203999999998,4.9112453,0.7571135999999999,-1
960,961,1583937510516,0.1856,-4.7427998,0.49719998,-2.2883875,4.9104314,0.765953,-1
961,962,1583937510526,-0.8797,-4.6171,0.2438,-2.9155726000000004,5.008239,0.32249898,-1
962,963,1583937510536,-0.9752,-4.4830000000000005,-0.0219,-3.0107182999999997,5.1596575,0.05143703,-1
963,964,1583937510547,-0.792,-4.273,-0.2254,-2.869805,5.351605999999999,-0.16268120000000003,-1
964,965,1583937510557,-0.5146,-4.0361,-0.1441,-2.6189885,5.5883827,-0.0098641105,-1
965,966,1583937510567,-0.2577,-3.6834998,0.2703,-2.4597263,5.8876485999999995,0.35675523,-1
966,967,1583937510577,-0.0761,-3.4204998,0.81549996,-2.2801994999999997,6.1977167,1.0155246,-1
967,968,1583937510588,0.18869999,-3.0605,1.1337,-2.019078,6.5470595000000005,1.2712061000000001,-1
968,969,1583937510598,0.4998,-2.8186998,1.1812,-1.7548541000000002,6.7783679999999995,1.2458947,-1
969,970,1583937510608,0.5855,-2.6162,1.0296,-1.7632720000000002,6.936663,1.1042058000000001,-1
970,971,1583937510618,0.447,-2.4917,0.9325,-1.9540421000000001,7.071437400000001,1.0108607,-1
971,972,1583937510629,0.16229999,-2.4356,1.0052999,-2.2949572,7.0934834,1.1016584999999999,-1
972,973,1583937510638,-0.22119999,-2.5168998,1.109,-2.625175,7.008977400000001,1.1643673,-1
973,974,1583937510648,-0.48169997,-2.5500998,1.1754999,-2.948354,6.992314,1.2173367,-1
974,975,1583937510659,-0.3682,-2.5069999999999997,1.1654,-2.7391389999999998,7.011333500000001,1.1370639,-1
975,976,1583937510669,0.0699,-2.4366,0.912,-2.2263873,7.1205473,0.7666425,-1
976,977,1583937510679,0.4335,-2.3383,0.5208,-1.9043192999999998,7.1889734,0.32999763,-1
977,978,1583937510689,0.7452,-2.3388,0.106599994,-1.6283062,7.1984167,-0.08916007,-1
978,979,1583937510700,0.7452,-2.3388,0.106599994,-1.7224462,7.374792599999999,-0.17611748,-1
979,980,1583937510710,0.46379998,-2.0069999999999997,0.063,-2.269866,7.654799499999999,0.25154442,-1
980,981,1583937510720,-0.0387,-1.6939,0.5221,-2.660102,8.054333999999999,0.8382961999999999,-1
981,982,1583937510730,-0.2579,-1.3319999999999999,1.0864999,-2.7313435,8.277924,1.2380705,-1
982,983,1583937510740,-0.3721,-1.0198,1.5119,-2.8340452000000003,8.609521,1.6073617,-1
983,984,1583937510750,-0.4177,-0.7861,1.6728,-2.8162613,8.805855000000001,1.6368678,-1
984,985,1583937510761,-0.3251,-0.53249997,1.5064,-2.6556678,9.139999000000001,1.2149423000000001,-1
985,986,1583937510771,-0.1717,-0.2489,0.96519995,-2.5658564999999998,9.4283085,0.41854477,-1
986,987,1583937510781,-0.1329,-0.0427,0.18339999,-2.5753086,9.588299000000001,-0.25823858,-1
987,988,1583937510791,-0.2087,0.14479999,-0.2481,-2.7038292999999998,9.710239999999999,-0.63826543,-1
988,989,1583937510802,-0.29189998,0.23519999,-0.5913,-2.6570182,9.789354,-0.9885466999999999,d
989,990,1583937510811,-0.1682,0.29659998,-0.8598,-2.5834107000000004,9.823276,-1.1853788,-1
990,991,1583937510821,-0.1706,0.3387,-0.8811,-2.744598,9.823361,-1.0857226,-1
991,992,1583937510831,-0.4554,0.29299998,-0.7159,-3.0657465,9.756861,-0.9504885000000001,-1
992,993,1583937510841,-0.8193,0.2174,-0.48049998,-3.3838498999999995,9.743089,-0.66422814,-1
993,994,1583937510852,-0.875,0.2677,-0.2807,-3.063065,9.795762,-0.6740253,-1
994,995,1583937510862,-0.5268,0.3159,-0.3487,-2.7203972000000003,9.839613,-0.8497213,-1
995,996,1583937510872,-0.0963,0.36249998,-0.5951,-2.2929654,9.887947,-1.1125376,-1
996,997,1583937510882,0.303,0.3987,-0.8049,-1.84886,9.940841,-1.2543415,-1
997,998,1583937510892,0.6368,0.43559998,-0.88159996,-1.671172,9.962551,-1.1658038,-1
998,999,1583937510902,0.7517,0.4544,-0.6987,-1.7840633000000001,9.92342,-0.8845618000000001,-1
999,1000,1583937510913,0.5218,0.3868,-0.4024,-2.1952052,9.7819805,-0.5406203,-1
1000,1001,1583937510923,0.1704,0.2521,-0.1565,-2.5102439999999997,9.633683,-0.44563755,-1
1001,1002,1583937510933,-0.109799996,0.0985,-0.105399996,-2.6315725,9.515372,-0.5698295999999999,-1
1002,1003,1583937510943,-0.15689999,-0.0064,-0.268,-2.5820507999999998,9.43598,-0.7147170999999999,-1
1003,1004,1583937510953,-0.0907,-0.0734,-0.39119998,-2.4331028,9.399857,-0.72316384,-1
1004,1005,1583937510963,0.0594,-0.102199994,-0.38889998,-2.3288686000000003,9.418847,-0.6542683000000001,-1
1005,1006,1583937510974,0.1971,-0.0731,-0.29119998,-2.2063525,9.407633,-0.38178897,-1
1006,1007,1583937510984,0.28489998,-0.10300000000000001,-0.028999999999999998,-2.2228534,9.295029,-0.099943556,-1
1007,1008,1583937510994,0.2463,-0.2013,0.1942,-2.2773838,9.206693,0.13793476,-1
1008,1009,1583937511004,0.18959999,-0.299,0.4504,-2.2965758,9.137853999999999,0.2941995,-1
1009,1010,1583937511014,0.1829,-0.3865,0.5657,-2.3362236000000003,9.082759,0.26990312,-1
1010,1011,1583937511024,0.1469,-0.41489998,0.523,-2.1924278999999998,9.059229,0.07550355,-1
1011,1012,1583937511035,0.2963,-0.44329998,0.3523,-1.8274463,9.06712,-0.21925142,-1
1012,1013,1583937511045,0.6597,-0.4326,0.1108,-1.6301258,9.014227,-0.52594864,-1
1013,1014,1583937511055,0.8473,-0.48029998,-0.16489999,-1.677962,8.886137,-0.64787096,-1
1014,1015,1583937511065,0.6458,-0.79789996,-0.2452,-1.8529779999999998,8.694476,-0.6577734000000001,-1
1015,1016,1583937511075,0.4623,-0.9995,-0.12239999,-2.086882,8.442731,-0.54701763,-1
1016,1017,1583937511085,0.2714,-1.2200999,-0.0034999999,-2.2787247,8.191627,-0.44652820000000004,-1
1017,1018,1583937511096,0.2714,-1.2200999,-0.0034999999,-2.462197,7.9503584,-0.36946362,-1
1018,1019,1583937511106,0.0824,-1.5188,0.1006,-2.6186054,7.634084700000001,-0.10045113,-1
1019,1020,1583937511116,-0.0865,-1.8960999,0.45299998,-2.6998072,7.243925,0.22881866,-1
1020,1021,1583937511126,-0.1643,-2.6727998,1.0738,-2.7763355,6.6092515,0.7701475999999999,-1
1021,1022,1583937511136,-0.1424,-3.2196,1.6919999,-2.712324,6.150733,1.4532709,-1
1022,1023,1583937511147,0.1222,-3.6792998,2.7494,-2.390189,5.712144,2.6197355,-1
1023,1024,1583937511157,0.6507,-3.8844998,4.3954997,-1.9294871999999998,5.560639,4.4018264,-1
1024,1025,1583937511167,0.55509996,-4.0396,5.9028,-2.1628356,5.383324,5.768628,-1
1025,1026,1583937511177,0.1389,-4.2521,6.4407,-2.571095,5.157829,6.1696568,-1
1026,1027,1583937511187,-0.1645,-4.4556,5.954799700000001,-2.9652187999999997,4.90864,5.2955623,-1
1027,1028,1583937511198,-0.2942,-4.6035,4.9708,-2.7545674,4.834937,4.362724299999999,-1
1028,1029,1583937511208,0.3523,-4.6092,4.2827997,-1.9940732,4.872861400000001,3.8452508,-1
1029,1030,1583937511218,0.3523,-4.6092,4.2827997,-1.2461628999999999,5.253156,4.011035,-1
1030,1031,1583937511228,1.6149,-3.9329,4.6095,-0.8529966,5.7424545,4.66695,-1
1031,1032,1583937511238,1.6398,-3.4225,5.345,-1.1738006,6.1657395,5.303022400000001,-1
1032,1033,1583937511249,0.53749996,-3.2129,5.6319,-2.5654256,6.3504190000000005,5.283304,-1
1033,1034,1583937511259,-0.9126,-3.0405998,5.2242,-3.7952309,6.5134834999999995,4.6168733,-1
1034,1035,1583937511269,-1.6559,-2.8402998,4.2605,-4.2194166,6.805662,3.4849617,-1
1035,1036,1583937511279,-1.6729,-2.379,3.1583997999999998,-3.9830801,7.262897,2.5452855,-1
1036,1037,1583937511289,-0.8799,-1.7066,2.0863,-2.7367543999999997,8.145064,1.1669914,-1
1037,1038,1583937511299,0.23529999,-0.8221,1.1043999,-1.5631933999999998,9.114592,0.2615426,-1
1038,1039,1583937511310,1.1817,0.09999999400000001,0.60859996,-0.70139575,10.00262,-0.14339353,-1
1039,1040,1583937511320,1.5965999,0.85649997,0.2943,-0.37581304,10.692475,-0.5962903,-1
1040,1041,1583937511330,1.6529,1.4683,-0.2462,-0.30731973,11.39074,-1.5325668,-1
1041,1042,1583937511340,1.5080999,1.9847,-1.1280999,-0.28505364,11.899057,-2.5348277,-1
1042,1043,1583937511350,1.4861,2.3957,-1.9791,-0.38770747,12.229659,-3.4313792999999997,-1
1043,1044,1583937511360,1.1558,2.7108998,-2.8616998,-0.62640935,12.408123,-4.2714953,-1
1044,1045,1583937511371,0.8495,2.9489,-3.9066,-0.79258615,12.779233,-5.602796,-1
1045,1046,1583937511381,0.7592,3.2361,-4.9605,-0.56159353,13.051234,-6.7656217000000005,-1
1046,1047,1583937511391,1.0505999,3.4836,-6.1344,-0.13702495,13.223493,-7.974042,-1
1047,1048,1583937511401,1.3123,3.6021,-7.1798,-0.0039169140000000005,13.22669,-8.648488,-1
1048,1049,1583937511412,1.2439,3.5126,-7.5474997,-0.19374838,13.022781,-8.453341499999999,-1
1049,1050,1583937511422,0.96349996,3.2926,-7.224,-0.39844304,12.827567,-7.906563799999999,-1
1050,1051,1583937511432,0.6556,3.0307999,-6.531399700000001,-0.5617468000000001,12.632162,-6.853258599999999,-1
1051,1052,1583937511442,0.50339997,2.9343,-5.7268996,-0.39149028,12.65531,-6.168153299999999,-1
1052,1053,1583937511452,0.7493,2.9552999,-5.0555,0.23117454,12.838225999999999,-5.4176574,-1
1053,1054,1583937511462,1.2580999,3.1151998,-4.6126,0.8967243,12.881332,-5.0395074,-1
1054,1055,1583937511473,1.7619,3.1211,-4.3677,1.0117705,12.785936999999999,-4.7471657,-1
1055,1056,1583937511483,1.7393999,2.9541,-4.185,0.9230988000000001,12.491717999999999,-4.4524875,-1
1056,1057,1583937511493,1.5850999,2.6529999,-3.9626,0.8019235,12.206052,-4.2570440000000005,-1
1057,1058,1583937511504,1.4239998999999999,2.3641999,-3.8549,0.5741104,11.938495,-4.2542089999999995,-1
1058,1059,1583937511513,1.145,2.0869999999999997,-3.9011,0.37980658,11.705979,-4.4203763,-1
1059,1060,1583937511523,0.97929996,1.8797,-4.1228,0.42862916,11.552598,-4.8152184,-1
1060,1061,1583937511533,1.0697,1.7319,-4.5427,0.6388496,11.526950999999999,-5.2976019999999995,-1
1061,1062,1583937511543,1.2673,1.7317,-4.9995,0.8180892,11.45162,-5.6878476,-1
1062,1063,1583937511553,1.3764,1.6337,-5.3143997,0.6804609,11.26765,-5.881337,-1
1063,1064,1583937511564,1.2312,1.4277999,-5.4361997,0.8324543,11.036178,-5.889037,-1
1064,1065,1583937511574,1.4080000000000001,1.2019,-5.4104,1.1107277,10.849957,-5.724287,-1
1065,1066,1583937511584,1.6708,1.0145998999999999,-5.2009,1.4321252,10.679509,-5.3638067000000005,-1
1066,1067,1583937511594,1.9808999,0.8364,-4.8282,1.8109263,10.402883000000001,-4.9184849999999996,-1
1067,1068,1583937511604,2.2712998,0.6087,-4.4776,2.1745958,10.124437,-4.512735,-1
1068,1069,1583937511614,2.6111999,0.33179998,-4.107,2.4700117,9.835639,-4.186453299999999,-1
1069,1070,1583937511624,2.8741999,0.0352,-3.8197,2.456451,9.626807000000001,-4.0570416,-1
1070,1071,1583937511634,2.8274999,-0.24129999,-3.7099998,2.1192036,9.359662,-3.8904724,-1
1071,1072,1583937511644,2.4329,-0.47829998,-3.5010998,1.7294085,9.229868,-3.212214,-1
1072,1073,1583937511654,2.0995,-0.57769996,-2.9582,1.5044110000000002,9.14246,-2.6104078,-1
1073,1074,1583937511665,1.8723999,-0.6673,-2.3868,1.3523121,9.10672,-1.9694128,-1
1074,1075,1583937511675,1.7157999,-0.73859996,-1.3528999,1.3946223999999998,9.074397,-1.5035204,-1
1075,1076,1583937511685,1.8913,-0.62229997,-0.9224,1.5947969,9.186227,-1.0357987,-1
1076,1077,1583937511695,1.9353,-0.447,-0.5703,1.6831523999999998,9.363005000000001,-0.66282994,-1
1077,1078,1583937511706,1.9353,-0.447,-0.5703,1.7324540000000002,9.562710000000001,-0.30378590000000005,-1
1078,1079,1583937511716,1.9346,-0.2522,-0.217,1.642135,9.779126,0.29894003,-1
1079,1080,1583937511726,1.6198,0.070599996,0.7722,1.458289,9.885046,0.6746094,-1
1080,1081,1583937511736,1.2243998999999999,0.119899996,1.1205,1.091392,9.940562,0.9830305,-1
1081,1082,1583937511746,0.80429995,0.1795,1.3255,0.68880224,9.997822,1.1209652,-1
1082,1083,1583937511756,0.5816,0.3673,1.4226999,0.48809153,10.17099,1.1549629,-1
1083,1084,1583937511767,0.4261,0.6342,1.5055,0.34171006,10.440242,1.1630553,-1
1084,1085,1583937511777,0.1805,0.9115,1.5877999,0.0748619,10.79989,1.1755148000000002,-1
1085,1086,1583937511787,0.0488,1.2182,1.6609,0.016663643,11.083784,1.1874665,-1
1086,1087,1583937511797,0.1758,1.5049,1.8434999,0.23454557,11.354741,1.3875932,-1
1087,1088,1583937511807,0.5703,1.81,2.2858999,0.69211584,11.667174000000001,1.8492143,-1
1088,1089,1583937511817,0.9697,2.0158,2.9071,1.1537658000000002,11.869255,2.7100928,-1
1089,1090,1583937511827,1.1622,2.1125,3.7773,1.3421319999999999,11.957647999999999,3.474657,-1
1090,1091,1583937511837,1.3665999,2.2477,4.8525,1.5324422,12.082301,4.646015599999999,-1
1091,1092,1583937511847,1.2433,2.3435,5.9256997,1.3752773999999999,12.15835,5.754951999999999,-1
1092,1093,1583937511857,0.95269996,2.3514,6.8499,1.1330608,12.167983999999999,6.688509,-1
1093,1094,1583937511867,0.91569996,2.448,7.4486,1.1543883,12.279658999999999,7.2622743000000005,-1
1094,1095,1583937511878,0.89669997,2.5158,7.562,1.0973966999999998,12.362308,7.3094883,-1
1095,1096,1583937511888,0.73929995,2.6329,7.4655,0.91157794,12.478474,7.193465,-1
1096,1097,1583937511898,0.54109997,2.7403,7.1078997,0.6376142,12.588569999999999,6.664039999999999,-1
1097,1098,1583937511908,0.252,2.8968,6.4786,0.43185654,12.753864,6.201356,-1
1098,1099,1583937511919,0.16409999,3.1319999999999997,5.9379,0.33978509999999995,13.002411,5.643057,-1
1099,1100,1583937511929,0.1889,3.4261,5.2907,0.3662937,13.346457999999998,4.786919,-1
1100,1101,1583937511939,0.2683,3.701,4.5371,0.45740744,13.615442000000002,4.002262600000001,-1
1101,1102,1583937511949,0.345,3.8878998999999994,3.7716,0.34502363,13.732479999999999,3.1761672,-1
1102,1103,1583937511959,0.0761,3.8985999,3.0468,0.03478296,13.711028,2.4423156,-1
1103,1104,1583937511970,-0.08,3.9192,2.3851,-0.18368316,13.717703,1.7809221999999998,-1
1104,1105,1583937511980,-0.22479999,3.9006998999999998,1.8318,-0.30166940000000003,13.7313595,1.313957,-1
1105,1106,1583937511990,-0.1434,3.9213,1.5425999,-0.15198392,13.718919,1.0982299,-1
1106,1107,1583937512000,0.1547,3.9320998,1.4412999,0.11910674,13.697208999999999,1.0068959000000002,-1
1107,1108,1583937512010,0.41759998,3.8548,1.3942,0.42648396,13.581263,0.96441317,-1
1108,1109,1583937512020,0.79469997,3.6797998,1.3065,0.66256183,13.332485,0.83459955,-1
1109,1110,1583937512031,1.1021,3.4369998,1.1899998999999999,0.76390356,13.240604999999999,0.7941088000000001,-1
1110,1111,1583937512041,1.204,3.0579,1.0446,0.7084826,12.692238,0.60580003,-1
1111,1112,1583937512051,1.1215,2.6899,1.0178,0.46628517,12.20905,0.68814147,-1
1112,1113,1583937512061,0.99979997,2.2746,1.1708,0.23008278,11.825575,0.84229934,-1
1113,1114,1583937512071,0.84709996,1.9102999,1.3003,-0.037770927,11.47584,0.94962656,-1
1114,1115,1583937512082,0.74909997,1.5482,1.3801,-0.29728323,11.017369,0.79987407,-1
1115,1116,1583937512092,0.6443,1.1982,1.2056999,-0.48400223,10.73243,0.50179595,-1
1116,1117,1583937512102,0.53029996,0.8308,0.8149,-0.71329975,10.389255,-0.048688482000000005,-1
1117,1118,1583937512112,0.4244,0.5338,0.3125,-0.8009083,9.989308,-0.6687963,-1
1118,1119,1583937512122,0.5895,0.19899999999999998,-0.1494,-0.6337835,9.729433,-1.0650654,-1
1119,1120,1583937512132,0.8879,-0.076,-0.5356,-0.48456725,9.411521,-1.3633351,-1
1120,1121,1583937512143,1.0774,-0.311,-0.6729999999999999,-0.6569881,9.044441,-1.3412988000000001,-1
1121,1122,1583937512153,0.9253,-0.6821,-0.6027,-1.2196255,8.636192,-1.4151264,-1
1122,1123,1583937512164,0.46109998,-1.0618,-0.66719997,-1.8374061999999998,8.152764,-1.6330755,-1
1123,1124,1583937512174,0.0729,-1.4411,-0.85609996,-2.1323144,7.849821,-1.8757229,-1
1124,1125,1583937512184,-0.1751,-1.8012999,-1.1399,-2.2504444,7.450162,-2.171177,-1
1125,1126,1583937512194,-0.1396,-2.1143,-1.3727,-2.0591092,7.266909599999999,-2.3756707,-1
1126,1127,1583937512204,0.1978,-2.3023,-1.6444,-1.7786334,7.136818400000001,-2.5462623,-1
1127,1128,1583937512214,0.506,-2.4143999,-1.7709999,-1.8756081000000002,6.863611,-2.3531077000000002,-1
1128,1129,1583937512225,0.4849,-2.6396,-1.6293,-2.2803240000000002,6.541303599999999,-1.8910267,-1
1129,1130,1583937512235,-0.0831,-3.3432,-0.96959996,-2.5512040000000002,6.146998,-1.6122075,-1
1130,1131,1583937512245,-0.0831,-3.3432,-0.96959996,-2.4892418,5.820342500000001,-1.542201,-1
1131,1132,1583937512255,0.0504,-3.6531,-0.9529,-2.3878713,5.5825987,-1.491875,-1
1132,1133,1583937512265,0.2004,-3.8748998999999995,-0.9471,-2.3551762000000003,5.2984447,-1.3087951999999998,-1
1133,1134,1583937512276,0.2402,-4.4063,-0.5656,-2.5204146,4.954982299999999,-0.9262017,-1
1134,1135,1583937512286,0.1029,-4.8131,-0.19569999,-2.6697648,4.603187999999999,-0.5802012,-1
1135,1136,1583937512296,0.0537,-5.2876997,0.0138,-2.776431,4.1132097000000005,-0.31797874,-1
1136,1137,1583937512306,0.033999998,-5.8104,0.1248,-2.847922,3.5626964999999995,-0.17538963,-1
1137,1138,1583937512316,0.1122,-6.3715997,0.18609999,-2.832896,2.9965252999999996,-0.086785026,-1
1138,1139,1583937512326,0.2685,-6.7949996,0.3725,-2.7387846000000002,2.5485703999999996,0.1396873,-1
1139,1140,1583937512336,0.2685,-6.7949996,0.3725,-2.736534,2.1623759999999996,0.48015237,-1
1140,1141,1583937512346,0.3267,-7.1686997,0.70159996,-3.131884,1.7816691000000002,0.99345005,-1
1141,1142,1583937512356,-0.3366,-7.8378,1.5842999,-3.5113554,1.4498041000000002,1.3769821000000002,-1
1142,1143,1583937512366,-0.5097,-8.1662,1.5744,-3.7532367999999994,1.0524433000000002,1.3225761999999999,-1
1143,1144,1583937512376,-0.37489998,-8.323,1.4762,-3.612544,0.94457,1.2337992,-1
1144,1145,1583937512386,0.3198,-8.2899,1.3356999,-2.9396869999999997,0.9733386999999999,1.0685129999999998,-1
1145,1146,1583937512396,1.3038,-8.105,1.4038999,-1.6968378,1.2170206000000001,1.1325723,-1
1146,1147,1583937512407,2.3783998,-7.7851996,1.6405,-0.7022673,1.529531,1.398415,-1
1147,1148,1583937512417,2.995,-7.5326996,2.0477,-0.11607089999999998,1.7776085,1.7209043999999998,-1
1148,1149,1583937512427,3.3762999,-7.3841,2.0923998,0.21541111,1.9031988000000002,1.655284,-1
1149,1150,1583937512437,3.2798998,-7.4459,2.0637,0.06772718,1.8171032999999999,1.5983403,-1
1150,1151,1583937512447,2.6062999,-7.6004,1.9928,-0.8282693000000001,1.6353067,1.4087962,-1
1151,1152,1583937512457,1.8851,-7.6447997,1.8691,-1.4884369,1.5588073,1.148623,-1
1152,1153,1583937512468,1.7235,-7.7395997,1.3939999,-1.5589031,1.4598118,0.5293293,-1
1153,1154,1583937512477,1.7442,-7.7690997,0.9421,-1.5447197,1.4568526000000002,0.0035817258000000003,-1
1154,1155,1583937512487,1.7493999,-7.509299799999999,0.63159996,-1.5406208000000001,1.7961683999999998,-0.4135265,-1
1155,1156,1583937512497,1.4645,-7.0494,0.4258,-1.8975102,2.2560277,-0.6656168,-1
1156,1157,1583937512507,0.77989995,-6.5281,0.4667,-2.6359205,2.968398,-0.5332175,-1
1157,1158,1583937512518,0.2889,-5.8492,0.8221,-2.8612626,3.5219187999999995,-0.30723354,-1
1158,1159,1583937512528,0.26319999,-5.0815997,0.93729997,-2.6428057999999996,4.506596,-0.32903036,-1
1159,1160,1583937512538,0.5269,-4.3314,0.77879995,-2.393838,4.969769,-0.46570095,-1
1160,1161,1583937512548,0.81979996,-3.7335,0.2898,-1.8870618000000001,5.779219599999999,-1.2000026000000001,-1
1161,1162,1583937512558,0.74579996,-3.3342,-0.1467,-1.9096057,6.230498000000001,-1.4784003000000001,-1
1162,1163,1583937512568,0.5147,-2.7205,-0.22039999,-1.9283667000000002,6.904111400000001,-1.48927,-1
1163,1164,1583937512579,0.6949,-1.7149999,-0.1352,-1.2474078000000002,8.184435,-1.3832165,-1
1164,1165,1583937512589,1.5517,-0.60109997,-0.1625,0.076049425,9.472428,-1.4182197,-1
1165,1166,1583937512599,3.1199,0.81909996,-0.0844,1.9847453999999998,10.8624935,-1.2581912,-1
1166,1167,1583937512609,4.5875998,1.8228999,0.1495,3.1214642999999995,11.625467,-0.8926829,-1
1167,1168,1583937512620,4.6273,2.2654,0.7187,2.9456439999999997,11.932586,-0.3549739,-1
1168,1169,1583937512630,3.4010000000000002,2.4707,1.3849,1.3358496000000002,12.161491,0.08322245,-1
1169,1170,1583937512640,1.2349,2.6244,0.561,-1.3338002,12.623658,-1.5168896,-1
1170,1171,1583937512650,-0.5017,3.3300998,-0.60209996,-1.8885272000000002,13.44077,-2.5475168,-1
1171,1172,1583937512660,-0.6026,4.0731,-1.6832,-1.2621561000000001,14.173607999999998,-3.6522492999999994,-1
1172,1173,1583937512671,0.0703,4.8136997,-2.5936,-0.2451471,15.101341,-3.8825426,-1
1173,1174,1583937512681,1.0084,5.7099,-2.3291,0.87551165,15.792078,-3.2138329,-1
1174,1175,1583937512691,1.8115,6.3023996,-1.6816,1.3499563,16.249704,-2.7159631,-1
1175,1176,1583937512701,1.7286999,6.6412,-1.4295,1.0412575000000002,16.571745,-2.9830701,-1
1176,1177,1583937512711,1.25,6.9526,-2.2340999,0.8587044,16.889418,-4.141107,-1
1177,1178,1583937512721,0.9188,7.2921996,-3.4859,0.44159612,17.14481,-5.1895375,-1
1178,1179,1583937512732,0.21509999,7.4006996,-4.3329997,-0.1676037,17.127878,-5.360780200000001,-1
1179,1180,1583937512742,-0.419,7.3093996,-4.1801,-0.61394036,16.912832,-4.1776423,-1
1180,1181,1583937512752,-0.90919995,7.0618,-3.1207,-0.8239789000000001,16.60151,-2.8635516,-1
1181,1182,1583937512762,-1.3334999,6.6003,-1.7792,-0.8479975000000001,15.947432500000001,-0.9891501,-1
1182,1183,1583937512773,-1.3253,6.0211997,-0.36519998,-0.35347995,15.4110365,0.4270777,-1
1183,1184,1583937512783,-0.91569996,5.5262,0.7224,0.2045606,14.995671,1.4006367,-1
1184,1185,1583937512793,-0.5336,5.1555,1.4422,0.83678305,14.697142999999999,2.0770466,-1
1185,1186,1583937512803,-0.0676,4.9097,1.7985,2.0133321,14.685344,2.5381505,-1
1186,1187,1583937512813,1.1826999,4.9912,2.1994998,3.3842711000000003,14.863223999999999,3.1052793999999997,-1
1187,1188,1583937512824,2.2872999,5.1352997,2.6299999,4.056381,14.746185,3.2731898,-1
1188,1189,1583937512834,2.6943998,5.0348997,2.6776,3.9816818,14.508019,3.3121769999999997,-1
1189,1190,1583937512844,2.4434,4.7229,2.6813998,3.0825157,13.811651000000001,2.895988,-1
1190,1191,1583937512854,1.5931,4.129699700000001,2.3114998,1.9731095,13.144924,1.8333935000000001,-1
1191,1192,1583937512864,0.4689,3.4529,1.3269,1.0726215000000001,12.571561,-0.0060429648,-1
1192,1193,1583937512874,-0.4482,2.8816,-0.3904,0.8062618,12.174764999999999,-1.6488770000000001,-1
1193,1194,1583937512885,-0.48619998,2.2539,-2.8525999,1.0742114,11.943121000000001,-2.6771867,-1
1194,1195,1583937512895,-0.1251,2.0718,-3.0081,1.4741004999999998,11.759542999999999,-2.8916306,-1
1195,1196,1583937512905,0.3369,1.8721,-2.3033,1.9642317999999999,11.555058500000001,-2.176559,-1
1196,1197,1583937512915,0.3369,1.8721,-2.3033,2.4299424,11.346074,-1.1250546000000001,-1
1197,1198,1583937512925,1.1827999,1.5248,-0.15779999,2.8995986,11.189158,0.11213484,-1
1198,1199,1583937512935,1.1827999,1.5248,-0.15779999,3.1057394,11.053023,0.9883839,-1
1199,1200,1583937512945,1.209,1.2139,1.5559,2.96157,10.866427999999999,1.9679571,-1
1200,1201,1583937512955,0.6782,0.9515,1.7038,2.4310243,10.597339999999999,2.1646457000000003,-1
1201,1202,1583937512965,0.6782,0.9515,1.7038,1.8438321,10.352499,1.8921664,-1
1202,1203,1583937512976,-0.2209,0.4384,0.75339997,1.5093718999999999,10.084828,1.2314912,-1
1203,1204,1583937512986,-0.30629998,0.2784,0.1813,1.4124545,9.935630999999999,0.646875,-1
1204,1205,1583937512996,-0.4725,0.13849999,-0.0174,1.2522249,9.764569,0.45863327,-1
1205,1206,1583937513006,-0.4464,0.0095,0.1291,1.2397655,9.637744,0.61720604,-1
1206,1207,1583937513016,-0.4464,0.0095,0.1291,1.2607197,9.575792,0.8160109999999999,-1
1207,1208,1583937513026,-0.1581,-0.0795,0.6113,1.613893,9.580494,1.0583904,-1
1208,1209,1583937513037,-0.098299995,-0.0603,0.6174,1.5751643999999998,9.59575,1.0443604,-1
1209,1210,1583937513047,-0.2617,-0.032199997,0.58669996,1.3933008999999998,9.644534,0.9669511000000001,-1
1210,1211,1583937513057,-0.3566,0.0541,0.2963,1.3626455,9.752139,0.5846449,-1
1211,1212,1583937513067,-0.0233,0.2977,-0.100899994,1.7935252,10.008328,0.14994407,-1
1212,1213,1583937513077,0.5118,0.4637,-0.4084,2.2763495,10.134848,-0.19561586,-1
1213,1214,1583937513087,0.6843,0.4732,-0.5478,2.3815892000000005,10.138917,-0.31310412,d
1214,1215,1583937513098,0.6247,0.42369998,-0.5327,2.266562,10.066431,-0.2856953,-1
1215,1216,1583937513108,0.2942,0.2953,-0.34039998,1.9260107,9.943377499999999,-0.12169248,-1
1216,1217,1583937513118,-0.0334,0.196,-0.3283,1.5433886,9.825574000000001,-0.17129077,-1
1217,1218,1583937513128,-0.27199998,0.14559999,-0.385,1.3465373999999999,9.80417,-0.29760885,-1
1218,1219,1583937513138,-0.3841,0.1052,-0.6081,1.2833782,9.77313,-0.61838394,-1
1219,1220,1583937513148,-0.3412,0.124,-0.97969997,1.346317,9.787027,-0.8936693000000001,-1
1220,1221,1583937513158,-0.15339999,0.1531,-1.1508,1.6001406999999999,9.8707,-0.99564314,-1
1221,1222,1583937513169,0.0622,0.2218,-1.1046,1.8152453999999998,9.916305,-0.9191149,-1
1222,1223,1583937513179,0.2582,0.22199999,-0.9899,1.9793247999999999,9.876225,-0.74175245,-1
1223,1224,1583937513189,0.29889998,0.1633,-0.69839996,1.8931143,9.786137,-0.40231207,-1
1224,1225,1583937513199,-0.0002,0.0356,-0.42339998,1.5878056999999999,9.676903999999999,-0.14621869,-1
1225,1226,1583937513209,-0.4244,-0.0726,-0.1907,1.0340174000000002,9.553057,0.20877439,-1
1226,1227,1583937513220,-0.7098,-0.1317,0.0005999999700000001,0.9064448,9.518550999999999,0.34836593,-1
1227,1228,1583937513230,-0.6975,-0.15089999,0.040599998,1.0315466,9.526289,0.35817257,-1
1228,1229,1583937513240,-0.4434,-0.061899997000000005,0.035499997,1.3724043,9.669741,0.39099228,-1
1229,1230,1583937513250,-0.085,0.106199995,0.014099998999999998,1.6203191000000001,9.880832,0.40281007,-1
1230,1231,1583937513260,-0.0213,0.32349998,0.045599997,1.6727712,10.128584,0.48320737,-1
1231,1232,1583937513270,0.1612,0.7266,0.0925,1.9283092,10.554608,0.41125682,-1
1232,1233,1583937513281,0.27699998,1.0802,-0.196,1.8920418999999997,10.879712,0.07457459,-1
1233,1234,1583937513291,0.103199996,1.4326,-0.50659996,1.582481,11.294072,-0.32976776,-1
1234,1235,1583937513301,-0.2034,1.7548,-0.83349997,1.1506438,11.680487,-0.6081368,-1
1235,1236,1583937513311,-0.7036,2.1746,-1.0641,0.7071323,12.1052475,-0.6959561,-1
1236,1237,1583937513322,-1.037,2.6437,-1.0449,0.5723866,12.632307,-0.5531851,-1
1237,1238,1583937513332,-0.96129996,3.1919999999999997,-0.8178,1.0431058000000002,13.337179,-0.18067604,-1
1238,1239,1583937513342,-0.4775,3.7707,-0.49109998,1.4384364,13.753176000000002,0.18686266,-1
1239,1240,1583937513352,0.0069,4.280999700000001,-0.0334,1.9376273999999998,14.306256,0.77958083,-1
1240,1241,1583937513362,0.3705,4.7216,0.3937,2.0037265,14.716469,1.2091964,-1
1241,1242,1583937513372,0.41279998,5.1208,0.8181,1.9555265,15.108217000000002,1.5699834,-1
1242,1243,1583937513383,0.3814,5.4776998,1.1488,1.7997884999999998,15.362003,1.8483907,-1
1243,1244,1583937513393,0.2762,5.7337,1.4570999,1.7138653999999998,15.550991,2.1749215,-1
1244,1245,1583937513403,0.2717,5.8796,1.8117,1.6645256000000002,15.640582,2.3479742999999997,-1
1245,1246,1583937513413,0.2874,5.916,1.9472,1.6330658000000002,15.569082,2.251833,-1
1246,1247,1583937513424,0.3611,5.8044996,1.8726,1.5865418,15.359082,1.952711,-1
1247,1248,1583937513434,0.42319998,5.5849,1.6258,1.705773,15.218972,1.5475546,-1
1248,1249,1583937513444,0.63909996,5.4147997000000005,1.2931,1.78708,14.965225,0.9315073,-1
1249,1250,1583937513454,0.80289996,5.1969,0.87119997,1.7502955000000002,14.742067,0.5264945,-1
1250,1251,1583937513464,0.8746,4.9609,0.5622,1.7574685,14.454984,0.14847879999999997,-1
1251,1252,1583937513474,1.0011,4.6681,0.29729998,2.148231,14.180952,-0.116386935,-1
1252,1253,1583937513484,1.5148,4.3873997000000005,0.16219999,2.6126678,14.002795,-0.57838166,-1
1253,1254,1583937513494,2.2015998,4.1482997,-0.28919998,2.9042814,13.665864000000001,-0.9330108,-1
1254,1255,1583937513504,2.5468,3.7835998999999996,-0.47709998,2.6415610000000003,13.071173,-1.074489,-1
1255,1256,1583937513515,2.4266999,3.2735999,-0.5124,2.1894113999999996,12.617989999999999,-0.9945992,-1
1256,1257,1583937513525,2.0156999,2.7168,-0.3159,1.5108753000000001,11.874857,-0.7459758000000001,-1
1257,1258,1583937513535,1.6416998999999999,2.0744,-0.051799998,0.8054861,11.270014999999999,-0.5750489000000001,-1
1258,1259,1583937513546,1.1237999,1.4841,0.1652,0.35479197,10.725612,-0.48466304,-1
1259,1260,1583937513556,0.35349998,0.15519999,0.408,-0.32228827,9.918948,-0.43048704,-1
1260,1261,1583937513566,-0.023799999,-0.4274,0.562,-0.9819195,9.194633999999999,-0.3018035,-1
1261,1262,1583937513577,-0.2471,-0.9303,0.66359997,-1.284901,8.709157000000001,-0.21403205,-1
1262,1263,1583937513587,-0.2997,-1.3348,0.6638,-1.3907341999999998,8.3074875,-0.28505364,-1
1263,1264,1583937513597,0.6119,-1.4455,0.4852,-0.38607937,8.266394,-0.5517773,-1
1264,1265,1583937513607,1.8149998999999999,-1.4193,0.1866,0.64787096,8.249797000000001,-0.8435826,-1
1265,1266,1583937513618,2.4196,-1.5296999,0.0795,0.9948099,8.056622500000001,-0.91640466,-1
1266,1267,1583937513628,2.2268,-1.8836998999999999,0.1426,0.5344145,7.6478850000000005,-0.84747076,-1
1267,1268,1583937513638,1.5706999,-2.3336,0.41689998,-0.4094851,7.089728999999999,-0.46678314,-1
1268,1269,1583937513648,0.9259999999999999,-2.7819,0.7184,-1.2401966,6.6297936,-0.25689784,-1
1269,1270,1583937513658,0.1095,-3.2196999,0.9033,-2.1441321,6.173382,-0.08225519,-1
1270,1271,1583937513669,-0.5812,-3.6288,1.0411999,-2.8165004000000002,5.775628599999999,0.06459556,-1
1271,1272,1583937513678,-0.937,-3.9815,1.1733,-3.0902060000000002,5.4807587,0.14036727,-1
1272,1273,1583937513688,-0.81549996,-4.2008,1.0842999,-2.7088954,5.2831220000000005,-0.16755582,-1
1273,1274,1583937513698,0.0455,-4.1798,0.5189,-1.8611088,5.3276443,-0.8968584000000001,-1
1274,1275,1583937513708,0.7611,-4.1823997,-0.1839,-1.1697206,5.3318105000000005,-1.5589988000000001,-1
1275,1276,1583937513718,1.5306,-4.1275997,-0.6441,-0.48276684,5.39993,-1.8559756,-1
1276,1277,1583937513729,1.8849,-4.0457997,-0.65779996,-0.39274484,5.441178,-1.7650821,-1
1277,1278,1583937513739,1.4872999,-4.06,-0.1501,-1.0462183,5.425117,-1.0055934000000002,-1
1278,1279,1583937513749,0.89379996,-4.1018,0.5674,-1.6531387999999998,5.337557,-0.3317406,-1
1279,1280,1583937513759,0.37359998,-4.1519,1.0511,-2.0916991,5.311297,0.027150247000000002,-1
1280,1281,1583937513769,0.23429999,-4.1425,1.1309,-2.1830907,5.309334,-0.16125427,-1
1281,1282,1583937513780,0.14729999,-4.1530000000000005,0.74,-2.2820475,5.315300499999999,-0.60095423,-1
1282,1283,1583937513790,0.3452,-3.9886,0.2665,-1.9325038,5.5655804,-1.1414403999999998,-1
1283,1284,1583937513800,0.779,-3.7087998,-0.2856,-1.4063733,5.8896976,-1.7272919999999998,-1
1284,1285,1583937513811,1.1593,-3.4211998,-0.63839996,-1.2258791999999998,6.1955333,-1.9020209,-1
1285,1286,1583937513821,1.1876999,-3.0956,-0.6311,-1.522358,6.453849,-1.5342332,-1
1286,1287,1583937513831,0.72099996,-2.9078,-0.059899997,-2.094141,6.6327243000000005,-0.7117483,-1
1287,1288,1583937513841,0.16839999,-2.7108998,0.7356,-2.6384583,6.8279952999999995,-0.10590033,-1
1288,1289,1583937513851,-0.2893,-2.5346,1.1262,-2.8754747000000003,7.016438000000001,0.12144349,-1
1289,1290,1583937513862,-0.34329998,-2.3207,1.2271,-2.5505240000000002,7.3026979999999995,0.042789172,-1
1290,1291,1583937513872,0.2598,-2.0005,0.9432,-1.7587423,7.685167,-0.3824402,-1
1291,1292,1583937513882,1.0146998999999999,-1.5926,0.569,-1.1885871000000001,8.053224,-0.56572115,-1
1292,1293,1583937513892,1.3715,-1.2713,0.47419998,-1.0971955,8.3150425,-0.63408995,-1
1293,1294,1583937513902,1.3168,-1.035,0.4136,-1.4739088,8.474056,-0.5836298000000001,-1
1294,1295,1583937513912,0.8224,-0.94229996,0.515,-2.1310022,8.504032,-0.517636,-1
1295,1296,1583937513923,0.30629998,-0.9155,0.573,-2.6514349999999998,8.443717999999999,-0.47113103,-1
1296,1297,1583937513933,-0.20699999,-0.9755,0.6074,-3.1997452,8.418712,-0.48566859999999995,-1
1297,1298,1583937513943,-0.73249996,-0.9863,0.6376,-3.594348,8.490414,-0.44373178,-1
1298,1299,1583937513953,-1.1373,-0.8512,0.6044,-3.8371775,8.677381500000001,-0.7074291,-1
1299,1300,1583937513963,-1.2189,-0.6788,0.37129998,-3.588171,8.867061,-1.2309453000000001,-1
1300,1301,1583937513974,-0.8892,-0.479,-0.1696,-2.969586,9.139999000000001,-1.9360951000000002,-1
1301,1302,1583937513984,-0.2135,-0.2021,-0.83419997,-2.2146559,9.358504,-2.429521,-1
1302,1303,1583937513994,0.5107,0.0158,-1.2354,-1.7906523,9.506915,-2.6533117,-1
1303,1304,1583937514004,0.79029995,0.1173,-1.3481,-2.084306,9.499426,-2.583564,-1
1304,1305,1583937514014,0.5021,0.1126,-1.2443,-2.6543843999999996,9.363742,-2.4512028999999997,-1
1305,1306,1583937514024,-0.0616,-0.0084,-1.1007999,-3.0621169,9.31831,-2.2649722000000003,-1
1306,1307,1583937514034,-0.5427,-0.090399995,-0.8585,-3.3924974999999997,9.204834,-2.0166361,-1
1307,1308,1583937514044,-0.8096,-0.16399999,-0.624,-3.5264580000000003,9.162256,-1.7805678,-1
1308,1309,1583937514054,-0.88699996,-0.2013,-0.4254,-3.2936172,9.143658,-1.5412337999999999,-1
1309,1310,1583937514065,-0.6411,-0.2225,-0.2025,-2.7837958,9.213204,-1.3972274,-1
1310,1311,1583937514075,-0.1505,-0.1489,-0.0714,-2.2458665,9.364842999999999,-1.3050315000000001,d
1311,1312,1583937514085,0.51949996,0.030199998999999998,0.018199998999999998,-1.4869525,9.5560255,-1.3208427,-1
1312,1313,1583937514095,1.3377999,0.1551,0.0176,-1.2624817,9.539591999999999,-1.2536136,-1
1313,1314,1583937514105,0.9287,-0.0233,0.14379999,-1.6737384999999998,9.356779,-1.0958165000000002,-1
1314,1315,1583937514115,0.0896,-0.2672,0.48659998,-2.521219,9.119581,-0.7370885,-1
1315,1316,1583937514126,0.0896,-0.2672,0.48659998,-3.190609,8.889183000000001,-0.34976414,-1
1316,1317,1583937514136,-0.76989996,-0.5751,1.0394,-3.4183455,8.809426,-0.15904203,-1
1317,1318,1583937514146,-0.705,-0.5049,0.9698,-3.3048506,8.892428,-0.25161144,-1
1318,1319,1583937514156,-0.705,-0.5049,0.9698,-2.819546,8.975575,-0.46355575,-1
1319,1320,1583937514167,0.3612,-0.1528,0.529,-2.0243165000000003,9.319823,-0.84186834,-1
1320,1321,1583937514177,1.1256,0.0523,-0.0037999998,-1.4144466,9.464260000000001,-1.3444687,-1
1321,1322,1583937514187,1.0838,0.083,-0.26319999,-1.6568929000000001,9.451074,-1.5379011999999999,-1
1322,1323,1583937514197,0.38729998,-0.0011,-0.33089998,-2.375527,9.350746000000001,-1.5984552,-1
1323,1324,1583937514208,-0.2047,-0.084,-0.27539998,-2.9102382999999996,9.309125,-1.5076576000000002,-1
1324,1325,1583937514218,-0.2047,-0.084,-0.27539998,-3.081261,9.320445,-1.3492858,-1
1325,1326,1583937514228,-0.5075,-0.084699996,0.0224,-3.2609792,9.246435,-1.2077981000000002,-1
1326,1327,1583937514238,-0.6653,-0.1704,0.0712,-3.3326905,9.160666,-1.2515737,-1
1327,1328,1583937514248,-0.47709998,-0.2581,-0.0951,-3.0172496,9.0499,-1.4837921,-1
1328,1329,1583937514259,-0.12019999,-0.3874,-0.36049998,-2.675664,8.924472999999999,-1.6434758000000003,-1
1329,1330,1583937514269,0.2512,-0.4696,-0.43379998,-2.213535,8.847581,-1.6986765,-1
