,Seq,Time,ACCx,ACCy,ACCz,ADGx,ADGy,ADGz,Keydown
0,1,1583549069830,0.35529998,0.3082,-0.6293,8.005224,4.549950599999999,3.231521,-1
1,2,1583549069840,-0.021699998999999998,0.1687,0.0008,-1.2521483,9.915585499999999,0.076451644,-1
2,3,1583549069851,0.072299995,0.1584,0.1046,-1.1713296999999998,9.899708,0.19576909,-1
3,4,1583549069861,0.1147,0.2067,0.2513,-1.1085538000000001,9.956182499999999,0.32873347,-1
4,5,1583549069871,0.15349999,0.2643,0.1792,-1.0973104999999999,10.020164999999999,0.23992774,-1
5,6,1583549069881,0.045199998,0.3612,0.0484,-1.2224602,10.105131,0.12459426,-1
6,7,1583549069892,-0.0892,0.4389,-0.0222,-1.3157573999999999,10.231659,0.05990293,-1
7,8,1583549069902,-0.1134,0.56589997,-0.0914,-1.3113424999999999,10.312077,0.04603571,-1
8,9,1583549069912,0.14559999,0.6536,-0.0817,-0.9625553,10.488806,0.034189202,-1
9,10,1583549069922,0.5,0.8390000000000001,-0.0821,-0.56490713,10.597111,0.12227667,-1
10,11,1583549069932,0.74259996,0.88439995,0.0698,-0.4309946,10.640647,0.35496435,-1
11,12,1583549069942,0.5902,0.8524,0.34829998,-0.7447020999999999,10.573167999999999,0.6448639,-1
12,13,1583549069953,0.089099996,0.7734,0.6545,-1.1726226,10.498441,0.964643,-1
13,14,1583549069962,-0.55219996,0.6184,1.0658,-1.7958619999999998,10.334571,1.430411,-1
14,15,1583549069972,-0.87759995,0.5046,1.4675,-2.0388924999999998,10.244962,1.8490418999999998,-1
15,16,1583549069982,-0.67039996,0.4798,1.5525,-1.7616918999999998,10.247174000000001,1.8863150000000002,-1
16,17,1583549069992,-0.4649,0.5729,1.3083999,-1.5832184999999999,10.358322,1.6142952,-1
17,18,1583549070002,-0.2504,0.6462,0.8742,-1.4159501,10.35882,1.3053092,-1
18,19,1583549070012,0.0218,0.5825,0.63729995,-1.1829846000000002,10.316117,1.2760617,-1
19,20,1583549070023,0.0981,0.5586,0.9033,-1.1597513000000002,10.170359,1.7457178,-1
20,21,1583549070033,-0.026899998999999997,0.24249999,1.4984,-1.4608173,9.839001,2.4879968,-1
21,22,1583549070043,-0.37939999,-0.0607,2.1454,-1.8095856,9.505986,3.1575594,-1
22,23,1583549070053,-0.61579996,-0.40969998,2.6107,-2.0204284,9.125069,3.68301,-1
23,24,1583549070063,-0.7477,-0.7844,2.9628,-2.226483,8.70776,4.09736,-1
24,25,1583549070074,-0.9195,-1.272,3.1130998,-2.4973824000000002,8.115922,4.352841000000001,-1
25,26,1583549070083,-1.2156,-1.9387,3.3197,-2.9188,7.3800693,4.8122883000000005,-1
26,27,1583549070093,-1.6386,-2.6425998,3.6666,-3.4376235,6.629726400000001,5.344337,-1
27,28,1583549070103,-1.995,-3.4201,3.8815,-3.8311057,5.7974442999999996,5.7122874,-1
28,29,1583549070113,-2.0503,-4.1464,3.5511,-4.125267,4.8007,5.895137999999999,-1
29,30,1583549070123,-2.1996,-5.0782,3.5207998999999996,-4.3810735,3.78575,5.942025,-1
30,31,1583549070134,-2.4621,-6.1253,3.5400998999999995,-4.7668653,2.6814485,6.107694599999999,-1
31,32,1583549070144,-2.9506,-7.2555,3.9324,-5.326514700000001,1.5538177,6.651485000000001,-1
32,33,1583549070154,-3.3808,-8.3785,4.6110997000000005,-5.644024,0.46368983,7.427234599999999,-1
33,34,1583549070164,-3.3476,-9.2809,5.3131,-5.199028500000001,-0.53198206,8.131397999999999,-1
34,35,1583549070174,-2.6911,-10.0254,5.712999999999999,-4.2943169999999995,-1.1582668999999999,8.206806,-1
35,36,1583549070184,-1.6392,-10.5657,5.4855,-3.2520442000000003,-1.5247233999999998,7.658199000000001,-1
36,37,1583549070194,-0.2509,-10.962,4.4308,-1.3553097,-1.8373104,5.9811273,-1
37,38,1583549070204,1.2985,-11.1730995,2.8508,-0.06692273,-1.9347831000000002,4.5605617,-1
38,39,1583549070215,2.6994,-11.322599,1.1001999,1.6483023999999997,-2.1338274,2.5081849999999997,-1
39,40,1583549070225,3.8111,-11.6697,-0.2549,2.3727975,-2.617667,1.4963761999999998,-1
40,41,1583549070235,3.9933,-12.2687,-0.95159996,2.1608915,-3.3440485,1.1020223,-1
41,42,1583549070246,3.4519,-13.187698999999999,-1.1,1.7542986,-4.246805999999999,0.9730036,-1
42,43,1583549070256,3.049,-13.977799,-1.1761999,1.8144505000000002,-4.6881824,0.71891177,-1
43,44,1583549070266,3.1845999,-14.1998,-1.5759,2.5782104,-4.537405000000001,-0.052787355999999994,-1
44,45,1583549070276,3.9013998999999995,-13.9219,-2.4919999,3.8227260000000003,-4.0368633,-2.0541675,-1
45,46,1583549070286,4.6909,-13.5229,-4.5172,4.8250637,-3.6781832999999997,-4.368489299999999,-1
46,47,1583549070296,5.7429,-13.0952,-7.4206,6.4576983,-3.152043,-7.5283275,-1
47,48,1583549070307,6.7948,-12.6903,-9.7937,8.295976,-2.427893,-8.787257,-1
48,49,1583549070317,8.411,-11.7715,-10.7954,10.171516,-1.1223347,-8.463035000000001,-1
49,50,1583549070327,9.7478,-10.4331,-10.349899,11.409032,0.08301176,-7.454768700000001,-1
50,51,1583549070338,10.611199000000001,-9.0973,-9.4712,12.382408999999999,1.8498751,-6.267101,-1
51,52,1583549070348,11.0956,-7.1987996,-8.439899,12.554878,3.4784877,-5.10304,-1
52,53,1583549070358,10.789499000000001,-5.5162,-7.6095,13.007947,5.0643587,-5.1732283,-1
53,54,1583549070368,11.187699,-3.7675,-8.2214,15.151426999999998,7.088100999999999,-7.1910229999999995,-1
54,55,1583549070378,12.6867,-1.9216,-10.1965,17.383188,8.797742999999999,-9.526797,-1
55,56,1583549070389,14.557799,-0.0448,-12.7097,19.053745000000003,10.930133999999999,-11.796203,-1
56,57,1583549070399,15.8678,2.2849998,-15.169398999999999,20.276072,12.347980499999998,-12.613842,-1
57,58,1583549070409,17.0528,4.2537,-16.204199,22.775170000000003,14.54444,-12.44055,-1
58,59,1583549070420,18.9168,6.3389997000000005,-16.1987,24.534899,16.172220000000003,-11.754524,-1
59,60,1583549070430,20.3449,8.2085,-15.687999999999999,23.630589,17.444891000000002,-11.200736000000001,-1
60,61,1583549070440,19.162899,9.724299,-15.287398999999999,22.200523,18.673088,-11.379746,-1
61,62,1583549070450,17.6308,12.8231,-15.235,22.818428,20.371975,-10.489649,-1
62,63,1583549070461,18.5956,14.6811,-13.115998999999999,24.088188,21.879507,-7.996097,-1
63,64,1583549070471,19.7662,16.2939,-10.210899000000001,25.617105,23.19289,-4.851869000000001,-1
64,65,1583549070481,19.7662,16.2939,-10.210899000000001,27.908347999999997,24.255064,-1.529531,-1
65,66,1583549070492,23.2526,19.1852,-3.9380998999999997,29.780047999999997,25.132969,1.7643734,-1
66,67,1583549070502,25.3797,18.6043,-1.5489998999999999,32.28362,24.603344,4.5421643,-1
67,68,1583549070512,26.4884,19.0234,1.7303,32.686657000000004,24.860757999999997,7.281016999999999,-1
68,69,1583549070522,24.809,18.7044,5.218499700000001,30.116241,24.315051999999998,11.534402,-1
69,70,1583549070532,22.100399,18.3922,9.4543,28.211261999999998,23.934114,14.888047,-1
70,71,1583549070543,20.282099,17.2741,13.1182995,26.322753999999996,22.704723,18.466504999999998,-1
71,72,1583549070553,19.0816,16.3176,14.8473,25.198359,21.674583,19.368574,-1
72,73,1583549070563,17.8403,14.6847,15.2486,23.716934,19.981998,19.296356,-1
73,74,1583549070573,16.0565,12.5187,15.316899,21.750853,17.9932,19.341894,-1
74,75,1583549070583,14.3498,10.3481,16.0192,20.093071,16.034313,20.148039999999998,-1
75,76,1583549070593,13.050699,7.9305997,17.5003,18.461105,13.259539000000002,22.084239999999998,-1
76,77,1583549070603,11.9108,5.308799700000001,19.4011,17.264597,11.406024,23.405457000000002,-1
77,78,1583549070613,10.4854,2.7133,20.862799,15.572003,9.094729,24.198818,-1
78,79,1583549070623,9.074699,0.21939999,20.8144,13.890977,7.028821000000001,23.341177,-1
79,80,1583549070633,7.7644,-1.9327999,19.464699,12.289954,5.210463,21.397326,-1
80,81,1583549070643,6.6319,-4.0558,17.4146,10.938677,3.4010498999999994,19.012107999999998,-1
81,82,1583549070654,5.5169,-6.067,15.4583,9.20989,1.7061752000000001,16.917572,-1
82,83,1583549070664,3.8170998,-8.004499000000001,13.7491,7.434581,0.39571366,15.343001999999998,-1
83,84,1583549070674,2.2777,-9.604199000000001,12.0849,5.209304299999999,-1.3004633999999997,12.877127999999999,-1
84,85,1583549070684,1.5294,-10.8018,10.7423,4.2162657,-2.2616970000000003,11.506993,-1
85,86,1583549070694,0.9242,-11.786799,9.5681,3.2503585999999998,-2.9443796000000004,10.131706,-1
86,87,1583549070705,0.34,-12.5952,8.1666,2.3398726,-3.5924324999999997,8.447175,-1
87,88,1583549070715,-0.022599999,-13.280999999999999,6.530999700000001,2.1717324000000002,-4.0680456,6.640270699999999,-1
88,89,1583549070725,0.4409,-13.8483,4.848099700000001,2.3990667,-4.747414599999999,5.2327385,-1
89,90,1583549070735,0.76409996,-14.743799,3.7659998,1.9756665,-5.7093476999999995,4.2304106,-1
90,91,1583549070745,0.299,-15.707298999999999,2.7861,0.83329713,-6.450152,2.9535446,-1
91,92,1583549070755,-0.8499,-16.4074,1.6006999,-0.9374832000000001,-6.8709855,1.6602736,-1
92,93,1583549070765,-2.4098,-16.6282,0.39389998,-2.8763652000000004,-6.7669429999999995,0.06327397,-1
93,94,1583549070776,-4.0927,-16.3983,-1.3034999,-4.4640083,-6.347383,-2.0274386000000004,-1
94,95,1583549070786,-5.1442,-15.953099,-3.1805,-5.1579533,-5.8433269999999995,-4.0065722,-1
95,96,1583549070796,-5.1938,-15.5195,-4.5561,-4.8471093000000005,-5.295227,-5.1544669999999995,-1
96,97,1583549070806,-4.5606,-14.747299,-5.8483996,-4.2725487,-4.1459336,-6.692435700000001,-1
97,98,1583549070816,-4.0329,-13.7078,-7.0241,-3.9176513999999996,-2.8941397999999996,-7.4122566999999995,-1
98,99,1583549070828,-3.6028,-12.4219,-7.4203,-3.3654337,-1.6337840000000001,-6.9841065,-1
99,100,1583549070838,-2.8992999,-11.1848,-6.8234997,-2.7103797999999997,-0.42115924,-6.379925,-1
100,101,1583549070848,-2.2893999,-9.9868,-6.1668,-2.3786967,0.7108576999999999,-5.9366913,-1
101,102,1583549070858,-1.8959999,-8.8572,-5.7503,-1.6909288,2.2016313,-6.0725765,-1
102,103,1583549070869,-1.2901,-7.6098,-5.858,-1.1902151,3.593486,-6.8227085999999995,-1
103,104,1583549070879,-0.79639995,-6.2054996,-6.5306,-0.6147640000000001,4.958574,-7.7455487000000005,-1
104,105,1583549070889,-0.22839999,-4.8501997,-7.3795,-0.13309847,6.27979,-8.422533,-1
105,106,1583549070899,0.23959999,-3.5244,-7.9877,0.071691975,7.417830499999999,-8.566933,-1
106,107,1583549070909,0.38729998,-2.3851,-8.076,0.18068561,8.261413000000001,-8.375817,-1
107,108,1583549070919,0.46289998,-1.5403,-7.8341,0.4095809,9.03385,-8.001028999999999,-1
108,109,1583549070930,0.6645,-0.76479995,-7.43,0.6393476,9.73922,-7.557412599999999,-1
109,110,1583549070940,0.8573,-0.058599997,-6.9716997,0.78947365,10.194358,-6.859723,-1
110,111,1583549070950,0.986,0.4017,-6.2745,0.81021696,10.419527,-5.708083599999999,-1
111,112,1583549070960,0.9827,0.616,-5.144,0.732913,10.458706,-4.009081,-1
112,113,1583549070970,0.85109997,0.70019996,-2.5314999,0.72852683,10.511014999999999,-2.830023,-1
113,114,1583549070981,0.877,0.7967,-1.7637999,0.7557824000000001,10.621167,-2.1711292,-1
114,115,1583549070991,0.71849996,0.894,-1.6987,0.54882765,10.711898,-2.2281972999999997,-1
115,116,1583549071001,0.3956,0.9134,-2.0442,0.23315693,10.726167,-2.5671206,d
116,117,1583549071011,0.3956,0.9134,-2.0442,0.12860693,10.761918,-2.6391284,-1
117,118,1583549071021,0.2296,0.9131,-2.0365,0.14723383,10.692208,-2.425202,-1
118,119,1583549071032,0.2286,0.7754,-1.5735999,0.15412913,10.550481,-1.8947903999999998,-1
119,120,1583549071042,0.3055,0.68659997,-0.9564,0.31240502,10.4895525,-1.2014486999999998,-1
120,121,1583549071052,0.3524,0.6763,-0.47419998,0.30068302,10.488825,-0.81998533,-1
121,122,1583549071062,0.4292,0.7252,-0.21149999,0.45648807,10.554780000000001,-0.6257484999999999,-1
122,123,1583549071072,0.8192,0.84309995,-0.2061,0.97448796,10.759686,-0.66534865,-1
123,124,1583549071083,1.2296,1.0789,-0.2538,1.3352654,10.889002,-0.7316201999999999,-1
124,125,1583549071093,1.3892,1.0109,-0.2383,1.3027426000000002,10.778332,-0.65377027,-1
125,126,1583549071103,1.0643,0.92359996,-0.1113,0.8679077,10.735973,-0.6028696,-1
126,127,1583549071113,0.6152,0.92469996,-0.15789999,0.45786712,10.716236,-0.723116,-1
127,128,1583549071124,0.3319,0.83769995,-0.27179998,0.30837318,10.648652,-0.8133103,-1
128,129,1583549071134,0.38779998,0.8487,-0.2391,0.47251967,10.681137,-0.637145,-1
129,130,1583549071144,0.5376,0.8695,0.0861,0.6710181,10.644860000000001,-0.25745332,-1
130,131,1583549071154,0.7453,0.7923,0.45029998,0.8685014999999999,10.497157000000001,-0.043354206,-1
131,132,1583549071164,0.8767,0.6662,0.6105,0.9331927999999999,10.450288,0.021499932000000003,-1
132,133,1583549071175,0.93479997,0.6286,0.68509996,0.98712933,10.449503,0.017276559,-1
133,134,1583549071185,0.9705,0.6599,0.58629996,0.8214601999999999,10.365677,-0.24340414,-1
134,135,1583549071195,0.6612,0.49539998,0.4208,0.4555304,10.222695,-0.27550557,-1
135,136,1583549071205,0.1629,0.3014,0.4692,-0.18058027,9.920135499999999,-0.29112533,-1
136,137,1583549071216,-0.2839,0.0387,0.4271,-0.56459105,9.735351,-0.44471818,-1
137,138,1583549071226,-0.6066,-0.096499994,0.1962,-0.7864091,9.663860000000001,-0.8042315,-1
138,139,1583549071236,-0.62189996,-0.0946,-0.14559999,-0.42866746,9.743423,-1.1346697000000001,-1
139,140,1583549071246,-0.2135,-0.0246,-0.3356,0.10840946,9.814492999999999,-1.0381163,-1
140,141,1583549071256,0.2888,0.064399995,-0.1389,0.43344629999999995,9.904438,-0.5903144,-1
141,142,1583549071266,0.5678,0.1239,0.3489,0.5425644000000001,9.856373,-0.17651013,-1
142,143,1583549071277,0.6376,0.046499997,0.7413,0.34489912,9.773677000000001,-0.092176765,-1
143,144,1583549071287,0.2737,0.0089,0.70849997,-0.14756902,9.739977,-0.37426159999999997,-1
144,145,1583549071297,-0.16309999,-0.0769,0.3583,-0.58655065,9.598450999999999,-0.9033610000000001,-1
145,146,1583549071307,-0.4427,-0.1723,-0.0775,-0.60734195,9.641518,-1.2459617,-1
146,147,1583549071317,-0.3439,-0.1109,-0.36879998,-0.17842549,9.696411,-1.4672339,-1
147,148,1583549071328,0.1419,-0.0796,-0.54829997,0.18720742,9.648796,-1.4742248,-1
148,149,1583549071338,0.45749998,-0.117699996,-0.49089998,0.38386714,9.585072,-1.2348527,-1
149,150,1583549071348,0.62549996,-0.18609999,-0.2749,0.45667005,9.514461500000001,-1.1085631999999999,d
150,151,1583549071358,0.6964,-0.2548,-0.1511,0.36700237,9.4455185,-0.96070695,-1
151,152,1583549071368,0.5937,-0.3529,0.030399999,0.084697284,9.313014,-0.7245142,-1
152,153,1583549071378,0.3574,-0.4509,0.2217,-0.11428961,9.180346,-0.62910044,-1
153,154,1583549071389,0.1139,-0.6763,0.36389998,-0.36118928,8.809839,-0.46687892,-1
154,155,1583549071398,-0.0221,-0.9604,0.47709998,-0.35481113,8.626864,-0.50308883,-1
155,156,1583549071408,0.0061999997,-1.1758,0.3859,-0.26209804,8.379131,-0.7685388000000001,-1
156,157,1583549071418,0.1197,-1.4498,0.1109,-0.13088621,8.022328,-0.95423305,-1
157,158,1583549071428,0.2606,-1.7434,-0.0155,0.26182032,7.774787,-1.2065148,-1
158,159,1583549071439,0.6453,-1.9978,-0.26899999999999996,0.49081135,7.278373200000001,-1.4532995000000002,-1
159,160,1583549071449,0.8847,-2.4777,-0.5136,0.12340673,6.693125,-1.2925146,-1
160,161,1583549071459,0.5309,-3.0753999,-0.3498,-0.5107311,6.0752487,-0.7657326999999999,-1
161,162,1583549071469,-0.0543,-3.6829998,0.1635,-0.7505056,5.249077,0.03203442,-1
162,163,1583549071479,-0.2778,-4.5064,0.9314,-0.47384125,4.0764923,0.72415024,-1
163,164,1583549071489,0.0234,-5.6823997,1.6272999,-0.17652929,2.8542714,0.5568721,-1
164,165,1583549071499,0.3311,-6.8963,1.4754,-0.10990343,1.5330073999999998,-0.5997091999999999,-1
165,166,1583549071510,0.41189998,-8.2163,0.3717,-0.41514498,0.17031394,-1.8232994999999999,-1
166,167,1583549071520,-0.746,-11.042399000000001,-1.4613999,-1.5366657,-1.6560979999999998,-2.5876532,-1
167,168,1583549071531,-2.004,-12.7099,-1.7481999,-2.7732995,-3.3017573,-2.7721217,-1
168,169,1583549071541,-2.004,-12.7099,-1.7481999,-3.750182,-4.911350700000001,-2.1644254000000003,-1
169,170,1583549071551,-3.8665998,-15.9246,0.012499999,-4.449652700000001,-6.491849,-0.49748638,-1
170,171,1583549071561,-4.4702,-17.3615,1.8774998999999999,-4.9003366999999995,-7.83785,1.5760169,-1
171,172,1583549071571,-5.0153,-18.3757,3.9719,-5.3598704,-8.748318,3.8093185,-1
172,173,1583549071581,-5.2448997,-18.9839,5.4744,-5.301778,-9.25789,5.1947470000000004,-1
173,174,1583549071591,-5.2448997,-18.9839,5.4744,-4.7085137,-9.269296,5.300686,-1
174,175,1583549071602,-3.5814998,-18.603899,4.3164,-3.2221932,-8.757214,3.6112225,-1
175,176,1583549071612,-3.7626,-18.5371,2.5224,-3.4201745999999997,-8.771752000000001,1.9308566999999999,-1
176,177,1583549071622,-4.922,-18.6204,1.5066998999999999,-4.7702556,-8.928849000000001,0.9384121999999999,-1
177,178,1583549071632,-6.4087,-18.8018,0.85499996,-5.4517503,-9.050562,0.36937743,-1
178,179,1583549071642,-6.2613997,-18.515299,0.21859999,-4.396654,-8.595308000000001,-0.12577221,-1
179,180,1583549071652,-5.3202,-17.9086,0.0267,-2.7610605,-8.001661,0.27235479999999995,-1
180,181,1583549071663,-3.5786,-16.7665,0.9381,-0.05420473,-6.2921343,1.6319358,-1
181,182,1583549071673,-0.3315,-13.9321995,1.9146999,4.6174383,-3.3768013,2.1357331000000004,-1
182,183,1583549071683,4.8978,-10.567599000000001,1.3255999,10.812713,0.20402429,1.1637161,-1
183,184,1583549071693,10.3881,-6.0360000000000005,-0.7083,16.49466,4.7466870000000005,-1.4425448,-1
184,185,1583549071703,14.9709,-1.4137,-3.9336,21.691813,8.810528999999999,-4.359142299999999,-1
185,186,1583549071714,19.4004,2.3118,-6.1138,25.222379999999998,11.11829,-5.303607,-1
186,187,1583549071724,21.066599,3.8544,-4.3026,26.586815,11.619789,-1.2050976,-1
187,188,1583549071734,19.486399,3.5956,1.5162,23.996681,11.531289,7.1270785000000005,-1
188,189,1583549071745,17.189999,4.924299700000001,8.1556,24.483326,13.482401000000001,12.835037,-1
189,190,1583549071755,19.1799,7.5744996,12.4134,29.326347,16.172592,14.783066,-1
190,191,1583549071765,24.6393,11.2802,12.2206,34.769127000000005,19.740470000000002,12.068002,-1
191,192,1583549071775,28.220299,14.5934,8.1535,35.317394,21.127892000000003,7.866772,-1
192,193,1583549071785,26.2718,15.5314,4.4817,31.02668,20.835743,5.8511896,-1
193,194,1583549071795,20.9994,14.9541,3.2896,25.699362,19.329674,5.589245,-1
194,195,1583549071805,15.752899,13.4389,3.2756998999999998,21.17024,17.467644,5.8038516,-1
195,196,1583549071816,11.5844,11.7253,3.3532,17.91631,15.773001,5.639695,-1
196,197,1583549071826,8.9443,10.3431,2.9568,15.960984,14.159912,5.0630182999999995,-1
197,198,1583549071836,7.4932,9.147699000000001,2.45,14.960256,13.186679000000002,4.7613773,-1
198,199,1583549071846,6.1506996,8.1126995,1.989,13.365123,11.979724000000001,4.338609,-1
199,200,1583549071856,4.848099700000001,7.2848997,1.6452999,12.582057,11.034789,4.5752809999999995,-1
200,201,1583549071867,4.1315,6.4581,1.9677,11.949929,10.179494,5.3290906,-1
201,202,1583549071877,3.4584,5.7065,2.6174,11.584968,9.711072999999999,5.591706299999999,-1
202,203,1583549071887,2.858,5.092,2.7303,10.592053,8.96325,5.3260164,-1
203,204,1583549071897,1.9879999,4.7008,2.3334,9.638711,8.602731,4.7001147,-1
204,205,1583549071907,1.0847,4.3995,1.6322,9.237031,8.468981,3.802136,-1
205,206,1583549071918,0.8135,4.3238997,0.6872,9.085382000000001,8.364383,2.9286356,-1
206,207,1583549071929,0.60469997,4.1851,-0.1441,8.720151,7.988867,2.336128,-1
207,208,1583549071939,0.301,3.8846,-0.6245,8.386343,7.592310400000001,2.165412,-1
208,209,1583549071949,-0.030499997999999997,3.4919998999999997,-0.8096,8.076083,7.0867414,2.0431736000000003,-1
209,210,1583549071959,-0.33179998,2.9882998,-0.9435,7.9937897,6.6199102,2.1607957000000004,-1
210,211,1583549071970,-0.4184,2.5309,-0.84489995,8.31672,6.2524095,2.2794333,-1
211,212,1583549071980,-0.074999996,1.7638999,-0.7151,8.277378,5.7679477,2.2714174,-1
212,213,1583549071990,-0.44419998,1.3823999,-0.7421,7.7623562999999995,5.3262753,2.2611222,-1
213,214,1583549072000,-1.1049,0.8024,-0.69519997,7.1352477,4.735951,2.3240707,-1
214,215,1583549072011,-1.4914,0.31579998,-0.6537,6.874510000000001,4.32003,2.3994497999999997,-1
215,216,1583549072021,-1.4914,0.31579998,-0.6537,7.004678,4.14511,2.570415,-1
216,217,1583549072031,-0.74219996,-0.0515,0.1449,7.80505,4.027373000000001,3.3525720000000003,-1
217,218,1583549072041,0.0314,0.0074,0.8732,8.577380999999999,4.074021299999999,4.1093984,-1
218,219,1583549072051,0.63879997,0.0391,1.5495,9.127722,4.060844,4.8192697,-1
219,220,1583549072062,1.0108,0.0056,2.0384998,9.448209,3.988654,5.265242,-1
220,221,1583549072072,1.0108,0.0056,2.0384998,9.399359,3.9387205,5.2660275,-1
221,222,1583549072082,0.6295,-0.1654,1.8593998999999999,8.954228,3.8306459999999998,4.983272599999999,-1
222,223,1583549072092,0.3188,-0.1026,1.3876,8.606302000000001,3.9368148,4.316947,d
223,224,1583549072102,0.11800000000000001,-0.0117999995,0.6773,8.41287,4.0509605,3.5235467000000003,-1
224,225,1583549072112,-0.0327,0.14039999,-0.0782,8.365397999999999,4.2207574999999995,2.967393,-1
225,226,1583549072123,0.1591,0.3376,-0.36879998,8.628779,4.413385400000001,2.7825603,-1
226,227,1583549072133,0.37939999,0.5009,-0.39819998,8.853642,4.57124,2.8485925,-1
227,228,1583549072143,0.6676,0.6767,-0.4195,9.124848,4.7211456,2.7676206000000003,-1
228,229,1583549072153,0.9475,0.8340000000000001,-0.6024,9.407115,4.8895826,2.6325972,-1
229,230,1583549072163,1.1611,0.9514,-0.6137,9.616349000000001,4.959225,2.8203409,-1
230,231,1583549072174,1.3759999,1.0458,-0.24149999,9.723417999999999,5.056496599999999,3.2896523,-1
231,232,1583549072184,1.3562,1.1337,0.1468,9.618944,5.132861599999999,3.6191711000000004,-1
232,233,1583549072194,1.2774,1.1752,0.3087,9.610555999999999,5.240965,3.7293138999999997,-1
233,234,1583549072204,1.3642,1.3392998999999999,0.3812,9.798145,5.403263,3.8095388,-1
234,235,1583549072214,1.7145,1.5188,0.4915,10.154748,5.6306167,3.9061017,-1
235,236,1583549072225,1.9669,1.7032,0.57769996,10.539333000000001,5.907778700000001,3.9444184,-1
236,237,1583549072235,2.3494,1.9805,0.5168,10.619874000000001,6.2371254,3.6753485,-1
237,238,1583549072245,2.2863998,2.3306,0.1353,10.427975,6.6555165999999994,3.3095431000000004,-1
238,239,1583549072255,2.0922,2.7366,-0.1002,10.35228,7.216114,3.3540754,-1
239,240,1583549072265,2.2549999,3.3695998,0.0946,10.720717,8.027385,3.9310398,-1
240,241,1583549072275,2.6736,4.143399700000001,0.9116,11.171039,8.785083,4.9853983,-1
241,242,1583549072285,3.2292,4.8696,1.9928,11.86237,9.575925999999999,6.311154,-1
242,243,1583549072296,4.1282997,5.7026997,3.4970999,13.253276999999999,10.703318,8.427245,-1
243,244,1583549072306,5.3736997,6.6489997,5.3142,14.311475,11.792105000000001,10.293402,-1
244,245,1583549072316,6.4111,7.6608,7.0811,15.056080999999999,12.692707,11.428386999999999,-1
245,246,1583549072326,7.1744,8.4612,7.9445996,15.648176999999999,13.355144500000002,11.270062,-1
246,247,1583549072337,7.8813,9.167399000000001,7.2486997,16.076815,14.067898999999999,9.818361999999999,-1
247,248,1583549072347,8.2394,9.6487,5.673899700000001,16.071308,14.595551500000001,8.329552,-1
248,249,1583549072357,8.231,9.8031,4.6949,15.816968,14.62909,7.850204,-1
249,250,1583549072367,8.024099,9.5792,4.4129,15.279804,14.322861999999999,8.100503999999999,-1
250,251,1583549072377,7.6484,9.0217,4.7762,15.002278,13.889175,8.397432,-1
251,252,1583549072387,7.5346,8.3111,5.1094,14.927666,13.556555,8.192259,-1
252,253,1583549072397,7.632899799999999,7.7616997,4.8416,14.852766,13.2964,7.410686500000001,-1
253,254,1583549072407,7.7082996,7.1857996,4.1096997,14.616851,12.96194,6.636296300000001,-1
254,255,1583549072418,7.4982996,6.4673,3.2784998,14.025185999999998,12.330541,5.4225507,-1
255,256,1583549072428,7.2205997,5.6013,2.4514,13.225723,11.464317999999999,4.710506,-1
256,257,1583549072439,6.758599799999999,4.5543,2.0855,12.011298,10.509425,4.9541874,-1
257,258,1583549072449,5.7999,3.3005998,2.531,10.8030405,9.500919999999999,5.445315,-1
258,259,1583549072459,4.8725,1.9930999,3.2363,9.24906,8.626864,5.624325,-1
259,260,1583549072469,3.6115,0.8225,3.6529,8.017750999999999,7.714424,5.216908,-1
260,261,1583549072479,2.4348,-0.58919996,3.3121998,6.6117125,6.4214025,4.004877,-1
261,262,1583549072489,1.6096,-1.9017998999999999,2.5444,5.894007,5.670724,3.2824793,-1
262,263,1583549072499,1.2177,-2.8744,2.0746999,5.2599554,5.220116,2.7551419999999998,-1
263,264,1583549072509,0.9106,-3.5242,1.8112999,4.9926379999999995,4.669383,2.2455602000000003,-1
264,265,1583549072519,0.9503,-4.2543,1.5392,4.775082,4.121111,1.896045,-1
265,266,1583549072529,1.0417,-4.9501,1.4003999,4.495985500000001,3.5733843000000003,1.8142015999999999,-1
266,267,1583549072539,0.9403,-5.8016,1.5212,3.51215,2.2741277,2.116072,-1
267,268,1583549072550,0.3728,-7.0281997,1.9741,2.744981,0.9893033000000001,2.8718738999999998,-1
268,269,1583549072560,-0.1037,-8.4057,2.8825998,1.4273081,-0.28843427,3.5981214,-1
269,270,1583549072570,-1.1403999,-9.7486,3.7668998,-0.005621585500000001,-1.2030097,3.8801773,-1
270,271,1583549072580,-2.3019,-10.7234,4.2016,-0.54384774,-1.4243777,3.4933224000000003,-1
271,272,1583549072590,-2.2623,-10.7731,3.3934998999999997,-0.28106013,-1.0759542,2.5903537,-1
272,273,1583549072601,-2.2623,-10.7731,3.3934998999999997,0.42104432,-0.64947987,1.7182993999999998,-1
273,274,1583549072610,-0.78059995,-10.0931,1.5122,0.7688451999999999,-0.47437754,0.46759716,-1
274,275,1583549072620,-0.78059995,-10.0931,1.5122,0.5467781999999999,-0.5264083,0.029860482999999997,-1
275,276,1583549072630,-1.4899,-10.4254,0.9798,-0.3539013,-0.80064976,-0.09957963,-1
276,277,1583549072640,-2.3286998,-10.3916,0.91179997,-1.3025223,-0.6624469,-0.26101586,-1
277,278,1583549072650,-3.1037998,-9.9623995,0.6106,-2.05547,-0.19901563,-0.64469147,-1
278,279,1583549072661,-2.8678,-9.264299000000001,0.26049998,-1.475537,0.6113834,-1.0610911,-1
279,280,1583549072671,-0.77739996,-8.1992,-0.183,0.8492233,1.6776075000000001,-1.6130311000000002,-1
280,281,1583549072681,1.5623,-7.3178997,-1.0356,3.0280619,2.4723580000000003,-2.5690072,-1
281,282,1583549072691,2.74,-6.7023997,-1.541,3.890329,3.0595502999999997,-2.8977408,-1
282,283,1583549072701,2.3177,-6.227999700000001,-0.9123,3.1616869999999997,3.4787845999999996,-2.1599627,-1
283,284,1583549072711,1.1013,-5.9722,0.0726,1.9622494,3.7055922,-1.2167332,-1
284,285,1583549072722,0.0915,-5.8237,0.9001,0.87869114,3.8701887000000004,-0.5126465,-1
285,286,1583549072732,-0.8102,-5.5147,1.1783,0.024372973,4.18811,-0.44172063,-1
286,287,1583549072742,-1.2228,-5.2402,0.69979995,-0.3476381,4.493926,-1.401355,-1
287,288,1583549072752,-1.2228,-5.2402,0.69979995,-0.26534456,4.651714,-2.1192229,-1
288,289,1583549072762,-0.6619,-4.3861,-1.8525,0.6458024,5.531123,-4.2211885,-1
289,290,1583549072772,0.5969,-3.4965,-2.9457,2.1271237999999997,6.500564,-5.168488,-1
290,291,1583549072782,1.9353,-2.5205,-3.4961,3.0996099999999998,7.243686,-5.5147276,-1
291,292,1583549072793,2.5637,-1.7152,-3.4378,3.5828655,7.950464,-5.3568153,-1
292,293,1583549072803,2.2059999,-1.3959999,-2.6736999,2.7873201,8.127185,-4.2181809999999995,-1
293,294,1583549072813,0.91999996,-1.5816,-1.4650999,1.3488069999999999,7.828896,-3.0501650000000002,-1
294,295,1583549072823,-0.3015,-1.8477999,-0.42,0.37994063,7.764157000000001,-1.9703034,d
295,296,1583549072833,-0.6875,-1.7099999,0.21779999,0.36648524,7.9398046,-1.8016366999999998,-1
296,297,1583549072844,-0.3816,-1.4411,-0.065799996,1.0710316999999998,8.41356,-2.6476424,-1
297,298,1583549072854,0.31399998,-0.88449997,-1.0267,1.7213831999999998,8.928111999999999,-3.7097197,-1
298,299,1583549072864,0.7894,-0.45399999999999996,-2.0140998,2.0012461999999998,9.276746000000001,-4.4098516,-1
299,300,1583549072874,1.0136,0.0245,-2.6513,2.1325252,9.65526,-4.830915,-1
300,301,1583549072884,0.89599997,0.15799999,-2.6343,1.6703196,9.6075,-4.4844737,-1
301,302,1583549072894,0.1866,-0.0041,-2.1646,0.9939097,9.42873,-4.1167626,-1
302,303,1583549072904,-0.5394,-0.14649999,-1.7857,0.4780263,9.319717,-3.940971,-1
303,304,1583549072914,-0.65389997,-0.228,-1.916,0.516889,9.266154,-4.3213906,-1
304,305,1583549072924,-0.36089998,-0.1112,-2.6087,1.3222793,9.587562,-5.607862,-1
305,306,1583549072934,0.6062,0.23169999,-3.9138,2.1739542000000003,9.897936999999999,-6.983828999999999,-1
306,307,1583549072944,1.229,0.4843,-5.0471,2.4793298,9.975067999999998,-7.539638,-1
307,308,1583549072955,1.3901,0.51809996,-5.1935997,2.7779154999999998,10.148446,-7.570044500000001,-1
308,309,1583549072965,1.3901,0.51809996,-5.1935997,2.9044635,10.241725,-7.654023599999999,-1
309,310,1583549072975,2.8892999,1.2687,-5.9663997,4.6963897,10.750129,-8.887516999999999,-1
310,311,1583549072985,4.1376,1.3234999,-6.9631,6.283295,10.795158,-10.56972,-1
311,312,1583549072996,5.874399700000001,1.3137,-9.1304,8.037182000000001,10.481116,-14.417853,-1
312,313,1583549073006,7.1228,0.96089995,-12.545099,8.286284,9.790082,-17.692213,-1
313,314,1583549073016,7.2387,0.2488,-15.414399,8.118326,8.882728,-18.469685000000002,-1
314,315,1583549073027,7.0504,-0.7209,-15.569598999999998,7.4712024,7.7557673,-16.806261,-1
315,316,1583549073037,6.415,-1.8611,-13.669498999999998,7.004237,6.605478,-14.499486,-1
316,317,1583549073048,6.1261,-3.0583,-11.4428,6.92565,5.27366,-12.693512,-1
317,318,1583549073057,6.1433,-4.482199700000001,-9.9058,6.488957,3.676814,-12.28486,-1
318,319,1583549073067,5.6639,-6.098099700000001,-9.786099,5.6000285000000005,2.093193,-12.601258,-1
319,320,1583549073077,4.901,-7.6997,-10.1521,5.1059513,0.526121,-12.714398,-1
320,321,1583549073087,4.5891,-9.2717,-10.1595,4.5403547,-0.7333248,-11.933717,-1
321,322,1583549073098,4.0519,-10.4073,-9.1922,4.0475993,-1.6864086,-9.837535,-1
322,323,1583549073108,3.7243998,-11.4137,-6.911299700000001,3.4096591,-2.80293,-6.195322,-1
323,324,1583549073118,3.22,-12.3491,-3.975,2.9580745999999998,-3.113142,-3.5383523,-1
324,325,1583549073128,2.8007998,-12.6999,-1.4912,2.3856304,-3.363068,-0.6250686,-1
325,326,1583549073138,2.2647998,-12.982699,1.2372999,1.8777436,-3.9753132000000004,3.4910812000000004,-1
326,327,1583549073148,1.7657,-13.6356,5.1447,0.95781475,-4.3849325,7.379696000000001,-1
327,328,1583549073158,0.8415,-14.0674,8.845099000000001,0.65089726,-4.0939126,10.254184,-1
328,329,1583549073169,0.50479996,-13.796598999999999,11.5541,0.89760536,-3.4391942,11.967992,-1
329,330,1583549073179,0.6976,-13.1682,13.1152,0.33576286,-2.713885,14.071662,-1
330,331,1583549073189,0.0679,-12.459399000000001,15.0538,-0.95796794,-2.250291,18.973703,-1
331,332,1583549073199,-1.3219,-12.0041,19.7494,-2.843124,-1.9648255000000001,26.484440000000003,-1
332,333,1583549073209,-3.3351,-11.7403,27.016699,-3.5939744,-1.448741,34.262913,-1
333,334,1583549073220,-4.2506,-11.221399,34.5501,-3.3723959999999997,-0.73014534,38.221313,-1
334,335,1583549073230,-4.0527,-10.2491,38.9026,-2.0572994,0.7287663000000001,39.547302,-1
335,336,1583549073240,-1.0770998999999999,-7.1169,36.010498,0.60052323,3.0445627999999996,35.060883000000004,-1
336,337,1583549073250,0.36089998,-4.6247,31.1642,2.3554060000000003,5.590863,30.345453000000003,-1
337,338,1583549073261,2.1778,-2.0928,27.9944,4.4906697,7.987909299999999,27.726158,-1
338,339,1583549073271,3.4517998999999997,0.1248,27.7641,5.748727,10.046932,28.050045,-1
339,340,1583549073281,3.5598,1.4469,29.1567,6.073879,11.066201,29.510355,-1
340,341,1583549073291,4.033,2.0191998,29.3888,7.033571,11.565458999999999,29.250871999999998,-1
341,342,1583549073301,5.5697,2.6073,26.2502,9.592369,12.261271,24.195265,-1
342,343,1583549073312,8.3334,3.7217998999999997,19.9222,12.22942,13.264070000000002,18.623479999999997,-1
343,344,1583549073322,10.936299,4.9596,13.0988,14.909739000000002,14.468171,11.132923,-1
344,345,1583549073332,10.932799000000001,5.8339996,9.2149,14.047077999999999,15.007307,9.022463,-1
345,346,1583549073342,9.2838,5.7117996,9.457499499999999,12.916019,14.347339999999999,10.378222000000001,-1
346,347,1583549073352,8.7546,4.8608,11.360499,13.074065,13.437122,12.074324,-1
347,348,1583549073362,9.8136,4.2560997,11.290999000000001,15.268360000000001,13.065311,10.5369005,-1
348,349,1583549073372,13.332398999999999,4.4702,7.3644,19.50875,13.343739000000001,5.485767,-1
349,350,1583549073383,17.1743,4.6675997,1.1427,22.864119,13.225359,-0.8914665999999999,-1
350,351,1583549073393,19.1589,4.2999997,-4.5382,24.273603,12.619846,-5.595288,-1
351,352,1583549073403,19.7209,3.6739,-7.4367,24.779575,11.879693,-7.544685,-1
352,353,1583549073413,19.7852,3.0521998,-8.9307995,24.627764000000003,11.445587,-8.777019000000001,-1
353,354,1583549073423,19.221698999999997,2.9938,-11.6037,24.207008,11.383595,-12.695771,-1
354,355,1583549073433,19.268,2.6669998,-16.0427,24.31354,10.705442999999999,-17.393376999999997,-1
355,356,1583549073444,18.7449,1.7184999,-20.6628,23.042505,9.637314,-21.641209,-1
356,357,1583549073454,16.360899,0.41259998,-23.7369,20.413052,8.115893,-23.788960999999997,-1
357,358,1583549073464,14.1889,-1.2351999,-24.6096,18.936815,6.753889599999999,-24.244127,-1
358,359,1583549073474,14.2323,-1.8612,-25.3885,20.770725,6.6020494,-26.514711,-1
359,360,1583549073484,16.7565,-1.8245,-28.396399,22.928686,6.3748302,-29.788109999999996,-1
360,361,1583549073494,18.0803,-2.2838,-31.101599,22.70973,5.7725544,-31.103409999999997,-1
361,362,1583549073505,15.9815,-3.4287,-31.499199,18.890864999999998,4.1868744,-30.693617,-1
362,363,1583549073515,12.1509,-5.0927997000000005,-30.698399,14.4364805,2.1338372000000003,-30.083567,-1
363,364,1583549073525,8.068399000000001,-7.0758996,-30.08,11.483329,0.802613,-29.436815000000003,-1
364,365,1583549073535,6.4718,-8.018599499999999,-29.1381,11.785199,0.30050105,-27.762531,-1
365,366,1583549073545,7.5539,-8.4537,-27.060598,12.9073715,-0.0042904094,-25.187595,-1
366,367,1583549073555,8.5709,-8.683,-24.223299,13.421579000000001,-0.34954387,-22.168814,-1
367,368,1583549073565,8.6257,-9.323,-21.1474,12.94585,-1.3179983999999998,-18.74183,-1
368,369,1583549073576,7.929199700000001,-10.288799000000001,-17.6892,11.986350999999999,-2.0864797,-15.506144,-1
369,370,1583549073586,6.9565,-10.979799,-14.83,11.111777,-2.911857,-12.88363,-1
370,371,1583549073597,6.4330997000000005,-11.7139,-12.82,11.009871,-3.613377,-10.6564865,-1
371,372,1583549073607,6.4282,-12.3289995,-10.4408,11.004833,-3.7646330000000003,-7.3427386,-1
372,373,1583549073617,6.3293,-12.3709,-6.8882,11.256339,-3.6084833,-3.2459438,-1
373,374,1583549073627,6.7425,-12.1229,-2.8927999,12.377602,-3.1598387000000003,-0.67550004,-1
374,375,1583549073637,8.4223995,-11.2904,-0.23629999,14.783907999999998,-1.7005441000000003,1.4844146999999999,-1
375,376,1583549073648,10.2796,-9.9071,1.383,16.758501000000003,-0.122793816,3.4381885999999997,-1
376,377,1583549073659,12.031099000000001,-8.2235,3.4768,17.063839,1.7965418999999998,6.672985000000001,-1
377,378,1583549073668,11.9541,-6.5803,6.2258,15.532546,2.613434,9.677833,-1
378,379,1583549073678,9.814099,-5.5436,10.1031,12.724474,3.5568546999999997,14.109710999999999,-1
379,380,1583549073688,6.8826,-4.4943,14.5081,10.5747,4.6561093,17.838997,-1
380,381,1583549073698,5.022,-3.3773,17.9931,10.580782000000001,5.800126000000001,20.642797,-1
381,382,1583549073708,5.1417,-2.3697,20.2181,11.577689,6.486658599999999,22.272043,-1
382,383,1583549073719,6.0327997,-1.6049999,21.8204,12.957946000000002,7.2844257,24.547579000000002,-1
383,384,1583549073728,7.318,-0.73149997,24.015,15.055047,8.506752,26.944805,-1
384,385,1583549073738,9.312699,0.5772,26.2983,15.174114999999999,9.409241999999999,28.648998,-1
385,386,1583549073748,9.3418,1.537,27.8848,11.225904,9.045322,27.62947,-1
386,387,1583549073758,5.3637,1.2062,26.820999999999998,7.2773485,8.625504,24.95417,-1
387,388,1583549073768,0.5294,0.69479996,23.390099,3.7105336,8.2918005,20.662228,-1
388,389,1583549073779,-2.5967,0.45549998,18.8785,2.3413475,8.866218,14.217851999999999,-1
389,390,1583549073789,-3.5058,1.0071,13.5223,3.348588,9.859811,9.746592999999999,-1
390,391,1583549073799,-2.5193,2.0042,9.094999000000001,4.7423487,10.58103,6.496743,-1
391,392,1583549073809,-1.1408,2.7458,5.8718,5.510581,10.669932000000001,4.5205400000000004,-1
392,393,1583549073820,-0.4107,2.4122,3.0613,5.4339375,10.079139,3.7113001000000003,-1
393,394,1583549073830,-0.8254,1.5950999,3.1857998,5.0322385,9.18479,3.9987383000000003,-1
394,395,1583549073840,-0.8254,1.5950999,3.1857998,4.7893324,8.489916000000001,4.4951425,-1
395,396,1583549073850,-1.1262,0.696,3.7256,4.389874,7.7580276,5.1077129999999995,-1
396,397,1583549073861,-1.4648,0.0311,4.2208,4.315386,7.551704400000001,5.1013446,-1
397,398,1583549073871,-1.7292999,-0.08800000000000001,3.5544998999999997,4.1963844,7.7529325,4.2586527,-1
398,399,1583549073881,-1.2662,0.24409999,2.4724,4.8747573,8.093886,3.14736,-1
399,400,1583549073892,-0.38779998,0.5604,1.3896998999999999,5.790348000000001,8.409125999999999,2.0119243000000004,-1
400,401,1583549073902,0.3911,0.77989995,0.54179996,6.587579300000001,8.537619,1.3815885,d
401,402,1583549073912,0.89809996,0.7528,0.3854,6.992974799999999,8.449558999999999,1.4472758,-1
402,403,1583549073922,1.1257,0.6929,0.6385,7.069522,8.300765,1.8320334999999999,-1
403,404,1583549073932,0.9086,0.294,1.1805999,6.694427,7.854762599999999,2.408519,-1
404,405,1583549073942,0.52889997,0.1072,1.5308,6.419324400000001,7.889546000000001,2.4976694999999998,-1
405,406,1583549073953,0.4436,0.2033,1.1949999,6.449692,7.9975533,2.0080266,-1
406,407,1583549073963,0.5136,0.44669998,0.6611,6.513588400000001,8.315551,1.4909364,-1
407,408,1583549073973,0.60249996,0.8581,0.23979999,6.639552,8.765862,1.2145785,-1
408,409,1583549073983,0.77879995,1.2916,0.16679999,6.816598399999999,9.197719000000001,1.2836657,-1
409,410,1583549073993,1.0532,1.7471,0.4789,7.1695804999999995,9.650394,1.8444164,-1
410,411,1583549074003,1.3583,2.2431997999999997,1.3438,7.421019599999999,10.171975999999999,2.8941397999999996,-1
411,412,1583549074014,1.5409,2.7175999,2.365,7.5120664,10.516378,3.7744877,-1
412,413,1583549074024,1.4186,3.0681,3.6509,7.241847,10.981849,5.4555620000000005,-1
413,414,1583549074034,1.0217,3.5862,4.9082,6.6817575,11.585935000000001,6.6296115,-1
414,415,1583549074044,0.6917,4.0463,5.3905,6.492079299999999,12.225408,6.6289506,-1
415,416,1583549074054,0.5906,4.8156,5.2683,6.5914288,13.165007000000001,6.6276674,-1
416,417,1583549074064,1.0114,5.7019,5.4075,7.1995564,13.902575,7.1821265,-1
417,418,1583549074075,1.6712999,6.2651,6.3736997,7.6786265,14.279267,8.482992,-1
418,419,1583549074085,2.3586,6.64,8.330999,8.375042,14.685927,11.170043,-1
419,420,1583549074095,2.8125,6.9308,10.591599,8.494772,14.935058999999999,13.229822,-1
420,421,1583549074105,2.8611,7.0827,12.1907,8.307879,15.162728,14.015628,-1
421,422,1583549074115,2.6617,7.2395997,12.2429,7.851861500000001,15.347398000000002,12.951797500000001,-1
422,423,1583549074126,2.2633997999999997,7.3894,10.5571995,7.422542599999999,15.67775,10.781253,-1
423,424,1583549074135,2.134,7.664,8.4215,7.513024000000001,15.916107,9.043532,-1
424,425,1583549074145,2.4868999,7.6386,7.1868,7.6668277,15.717120000000001,8.5800905,-1
425,426,1583549074155,2.7243,7.2089996,7.2084,7.8176527,15.21023,9.013786,-1
426,427,1583549074165,3.0923,6.5221,7.8018,7.9778056,14.59331,9.604206,-1
427,428,1583549074175,3.3263,5.8013997,8.307,7.7490063,13.9321375,9.584095,-1
428,429,1583549074186,3.1427999,4.9557,7.8634996,7.1344533,13.083729,7.796689,-1
429,430,1583549074196,2.7946,4.2111998,6.075599700000001,6.933215,12.832835000000001,5.102647,-1
430,431,1583549074207,2.9461,3.9059,3.4680998,7.086367599999999,12.449188000000001,2.4144664000000002,-1
431,432,1583549074217,3.2544,3.2895,1.004,6.71655,11.732527000000001,0.11372458,-1
432,433,1583549074227,3.0351999,2.4528,-0.9137,6.1166873,10.83335,-0.98196745,-1
433,434,1583549074239,2.6193,1.4088,-1.5575999,5.268125,9.824262,-1.0552397,-1
434,435,1583549074249,1.9899999,0.2972,-1.3693,4.187047,8.527782,-0.9244203999999999,-1
435,436,1583549074259,1.3363,-0.86149997,-1.1299,3.7823982000000003,7.8890576,-1.2324202,-1
436,437,1583549074269,1.1528,-1.5769999,-1.3120999,3.6893977999999996,7.3464932,-1.8627368000000002,-1
437,438,1583549074279,1.2781,-2.1633,-1.8170998999999999,3.5147457,6.702874,-2.2965183,-1
438,439,1583549074290,1.4456999,-3.5335,-2.1678,3.4772427,5.971273,-2.4125223,-1
439,440,1583549074300,1.745,-4.0555997,-2.0074,3.6382098,5.477138500000001,-2.3232758,-1
440,441,1583549074310,1.9964,-4.474,-1.8174,3.615915,5.1420746,-2.2513156000000003,-1
441,442,1583549074320,1.5781,-4.9568,-1.653,2.94754,4.5679164000000005,-2.163554,-1
442,443,1583549074331,1.5781,-4.9568,-1.653,2.2534799999999997,3.6275699999999995,-2.1160913,-1
443,444,1583549074341,0.4509,-7.232,-1.6504999,1.6291776000000002,2.308001,-2.460339,-1
444,445,1583549074351,0.5062,-7.9445996,-1.8327999,1.6143911,1.6823002,-2.7036377999999996,-1
445,446,1583549074361,0.8652,-8.2511,-1.7679,1.9658982,1.438264,-2.6765356,-1
446,447,1583549074372,1.1055,-8.241899499999999,-1.4347999,2.0125372,1.5324806,-2.3323164,-1
447,448,1583549074382,1.2907,-7.8992,-1.0807999,2.5853452999999997,1.9649214,-2.0631602,-1
448,449,1583549074392,2.182,-7.5857997,-1.0495,3.1597524,2.199802,-2.0804558,-1
449,450,1583549074402,2.3415,-7.2627997,-0.917,3.1598864,2.5039425,-1.9141738000000001,-1
450,451,1583549074414,1.9777999,-7.2528996,-0.80259997,2.6058395,2.3782659,-1.8313823,-1
451,452,1583549074424,1.5825,-7.476,-0.7985,2.3270299999999997,2.2642062000000003,-1.9573653000000002,-1
452,453,1583549074434,1.4724,-7.4508996,-0.9077,2.220239,2.2487493,-2.2191472,-1
453,454,1583549074445,1.3663,-7.502000000000001,-1.0661,1.8034564,2.2624152000000004,-2.4047554,-1
454,455,1583549074455,0.7281,-7.3171,-1.2019,1.2090813999999999,2.8077762,-2.8024035,-1
455,456,1583549074466,0.41189998,-6.7802,-1.4787999,1.5726073999999999,3.4466257000000007,-2.7176584999999998,-1
456,457,1583549074476,0.9325,-6.0787,-1.2978,2.5226266,4.1027135999999995,-2.4990007999999997,-1
457,458,1583549074486,2.2368999,-5.2318,-0.9654,4.299795,5.1145225,-2.1382136000000003,-1
458,459,1583549074496,3.6074998,-4.4044,-0.8037,5.2977653,5.8377147,-2.1008356,-1
459,460,1583549074506,4.3382,-3.7224998,-0.70949996,4.993835400000001,6.213126,-1.9077861,-1
460,461,1583549074517,3.5509998999999994,-3.3818,-0.43129998,3.4031086000000004,6.229051999999999,-1.760562,-1
461,462,1583549074527,2.0794,-3.4596,-0.2687,1.7971165,6.2894144,-2.122,-1
462,463,1583549074538,0.5941,-3.3075,-0.77129996,0.77145964,6.5280113,-3.9036883999999996,-1
463,464,1583549074547,-0.2704,-3.034,-2.6283,0.48519933,6.963689,-5.772277,-1
464,465,1583549074557,-0.3761,-2.5358,-4.1781,0.7493181,7.257381,-6.2211894999999995,-1
465,466,1583549074567,0.37899998,-2.0241,-4.2496,2.3040457,7.9929559999999995,-5.5390816,-1
466,467,1583549074578,1.5529,-1.4899,-3.5270998,3.6022870000000005,8.653019,-4.898719,-1
467,468,1583549074588,2.7910000000000004,-0.7741,-2.9505,4.274760700000001,9.261835000000001,-4.0829663,-1
468,469,1583549074598,3.142,-0.2566,-2.065,3.3947480000000003,9.384782000000001,-2.8805692,-1
469,470,1583549074608,2.2877,-0.2102,-1.1057,2.0791342,9.184072,-2.4104919999999996,-1
470,471,1583549074618,0.6297,-0.48549998,-0.5487,0.17397228,8.857750999999999,-2.2139279999999997,-1
471,472,1583549074629,-0.8738,-0.73789996,-0.40539998,-0.78477144,8.585914,-2.8721035,-1
472,473,1583549074639,-1.7795,-0.9963,-0.99939996,-1.0325426,8.536650999999999,-3.7776577000000007,-1
473,474,1583549074649,-1.296,-0.72529995,-2.9564998,-0.06312074,8.909007,-5.069780000000001,d
474,475,1583549074659,-0.4587,-0.5743,-3.1022,0.8067310999999999,9.100437,-4.9407516,-1
475,476,1583549074670,-0.4587,-0.5743,-3.1022,1.1255046,9.345528,-4.5572767,-1
476,477,1583549074680,0.6701,0.1774,-1.2751,1.7344555,9.722997,-2.9924839,-1
477,478,1583549074690,0.4937,0.1554,-0.2377,1.40373,9.741816,-1.954406,-1
478,479,1583549074700,-0.2154,0.1654,0.4779,0.6611157,9.693978999999999,-1.4120044,-1
479,480,1583549074710,-0.79929996,-0.046299997999999995,0.3724,0.120926335,9.503736,-1.7002279999999999,-1
480,481,1583549074720,-0.79929996,-0.046299997999999995,0.3724,0.022601265,9.488297,-2.3348925,-1
481,482,1583549074731,-0.4544,0.0774,-1.6392,0.73543173,9.691767,-4.0159187,-1
482,483,1583549074741,0.7463,0.4782,-3.2838,2.0596266,10.115972,-5.704952,-1
483,484,1583549074752,2.3897998,1.0052999,-5.0071,3.7148337,10.614472,-7.4362087,-1
484,485,1583549074762,3.4926998999999994,1.3055999,-5.9574,4.842474,10.811871,-8.214353,-1
485,486,1583549074772,3.9517,1.1746,-6.1412,4.8754563,10.529785,-8.277579,-1
486,487,1583549074782,3.6632998,0.59599996,-5.9058,4.6151876,9.827086,-8.096491,-1
487,488,1583549074792,3.7673997999999997,0.0058999998,-6.1598997,4.940531,9.321652,-9.281659,-1
488,489,1583549074803,4.5821,-0.50369996,-9.2553,5.6101220000000005,8.839106,-12.810914,-1
489,490,1583549074813,4.8868,-1.0641,-15.412498999999999,5.678213599999999,8.077653,-20.722553,-1
490,491,1583549074823,5.0878997,-1.8463999,-21.4,6.2883615,7.206786599999999,-25.68712,-1
491,492,1583549074833,6.3981,-2.75,-23.8477,7.886931,6.239232,-26.336486999999998,-1
492,493,1583549074844,8.078899,-3.7921,-22.008298999999997,9.14293,5.0738688,-23.100158999999998,-1
493,494,1583549074854,8.1708,-5.4551997000000005,-17.8535,8.619107000000001,3.605754,-19.493025,-1
494,495,1583549074864,6.1952996,-7.6844997,-13.6858,4.959062,0.47424346,-13.767446,-1
495,496,1583549074874,3.2373998,-10.0088,-10.3592,2.1084777999999997,-1.8994542,-11.030078,-1
496,497,1583549074885,0.8289,-12.3277,-8.000299,0.3121177,-3.4786985,-8.879299000000001,-1
497,498,1583549074896,-1.0202,-14.094199,-4.8608,-1.2374862,-5.10326,-4.970717400000001,-1
498,499,1583549074906,-1.5748999,-15.565999999999999,-0.5751,-1.4374213,-6.6837587,2.1492367000000003,-1
499,500,1583549074916,-1.5307,-16.5264,4.6777,-1.2136687,-7.0871243,7.8303037,-1
500,501,1583549074926,-1.2551,-16.795599,10.028299,-1.2633436000000002,-6.5606966,13.385110000000001,-1
501,502,1583549074936,-1.5366,-16.0861,15.2978,-1.8814117,-5.3635483,19.128466,-1
502,503,1583549074946,-2.2114,-14.926398999999998,20.956099,-2.3207572,-4.2994213,25.950388,-1
503,504,1583549074956,-2.7918,-13.8557,27.6517,-3.1338282000000004,-2.9592047000000004,32.611317,-1
504,505,1583549074966,-3.6625,-12.4123,33.8227,-2.1670303,-1.0409989,37.783004999999996,-1
505,506,1583549074976,-2.3253,-10.380199000000001,38.4197,0.68907994,1.4730086000000002,41.014484,-1
506,507,1583549074986,0.3014,-7.6622996,41.0999,2.6139798,4.6726294,42.086147,-1
507,508,1583549074997,1.7134999,-4.5762,41.6484,3.7663379,6.454931,41.15446,-1
508,509,1583549075007,2.5623,-3.0187,40.3377,3.7084269999999995,7.744256,38.633922999999996,-1
509,510,1583549075017,2.0182,-1.6773,37.6117,3.3670232,8.810193,35.08745,-1
510,511,1583549075028,1.7127,-0.7671,34.329997999999996,4.3937144,9.8780365,31.481828999999998,-1
511,512,1583549075038,2.8553,0.5681,30.3848,6.899926,11.95378,25.55411,-1
512,513,1583549075048,4.8254,2.3595,25.4074,9.191838,13.592323,19.834332999999997,-1
513,514,1583549075058,6.9214997,4.0389,19.844599,10.911996,14.703166,14.167363,-1
514,515,1583549075069,8.4634,5.204,14.342099,11.814888,15.228263,8.9081545,-1
515,516,1583549075079,9.435599,5.8634996,7.8915997,13.862188,15.2903385,1.6339371999999999,-1
516,517,1583549075089,11.0724,5.8896,2.1390998,15.765004000000001,15.026095000000002,-3.2296631000000002,-1
517,518,1583549075099,12.8173,5.6917995999999995,-2.5709,16.42383,14.459608,-7.6673064,-1
518,519,1583549075109,13.323298999999999,5.1682,-6.882899799999999,16.35824,14.046829,-11.872769,-1
519,520,1583549075120,12.4611,4.6287,-15.1593,15.664535,13.805953,-16.998209,-1
520,521,1583549075130,12.4611,4.6287,-15.1593,15.536396,13.613296499999999,-20.517906,-1
521,522,1583549075140,12.8749,4.0874,-23.2924,16.651117000000003,13.074046000000001,-25.137384,-1
522,523,1583549075150,14.369499,3.6046,-26.1215,18.301508,12.478599,-27.606133000000003,-1
523,524,1583549075161,14.9099,2.3634999,-26.3191,18.205845,11.033439999999999,-27.393659999999997,-1
524,525,1583549075171,12.1304,0.40609998,-26.216798999999998,15.0584755,9.051864,-27.747765,-1
525,526,1583549075182,8.8586,-1.5166998999999999,-27.822899,11.824167,7.198694000000001,-29.554764000000002,-1
526,527,1583549075192,6.2567997,-2.8876998,-29.4774,8.964944000000001,5.717708,-31.436605,-1
527,528,1583549075202,4.6112,-4.0452,-30.4571,7.642071700000001,4.6254153,-31.79518,-1
528,529,1583549075212,4.0334,-4.9687,-29.6696,7.5715766,3.8567812000000004,-30.337639000000003,-1
529,530,1583549075222,4.9372,-5.5993,-27.3069,9.003969999999999,3.3291852,-27.325895000000003,-1
530,531,1583549075234,6.6275997,-6.1439,-23.899,10.265149000000001,2.7744966,-23.699904999999998,-1
531,532,1583549075244,6.9241,-6.8694,-20.2262,9.568896,1.7392342,-19.480759,-1
532,533,1583549075254,5.9016,-7.8738,-17.2144,8.309527000000001,0.83249265,-17.210297,-1
533,534,1583549075264,4.7721,-8.701799000000001,-15.419398999999999,7.2456493,0.21784362,-16.012192000000002,-1
534,535,1583549075275,3.9950997999999998,-9.2514,-14.3754,6.835235000000001,-0.19616173,-14.573564000000001,-1
535,536,1583549075285,4.0227,-9.5996,-12.3779,7.344415,-0.4222031,-11.275167,-1
536,537,1583549075295,4.8559,-9.6966,-8.3664,8.530311,-0.22397278,-6.366527,-1
537,538,1583549075305,6.1949,-9.3741,-3.4278,10.166478999999999,0.19495507,-1.4505415000000002,-1
538,539,1583549075316,7.9248996,-9.0238,0.87259996,11.654936,0.37330392,2.3770592,-1
539,540,1583549075326,8.8145,-8.971499,4.3062997,11.5044365,0.41141963,6.145944,-1
540,541,1583549075336,8.2897,-8.936999,7.1006,10.104786,0.06630981,8.291341000000001,-1
541,542,1583549075346,6.5895996,-9.3736,9.0301,7.374763499999999,-0.42918462,9.725046,-1
542,543,1583549075357,3.7651,-9.7311,10.2965,5.353234,-0.33946908,10.561647,-1
543,544,1583549075367,2.1283998,-9.601999000000001,11.0211,5.417475,-0.13398911,11.680496,-1
544,545,1583549075377,2.4101999,-9.3418,12.4028,6.575378,0.3143491,15.186823,-1
545,546,1583549075387,3.4419,-8.8596,16.2572,6.7457970000000005,0.42570823,20.791726999999998,-1
546,547,1583549075398,3.1425,-8.783899,22.0014,6.0851893,0.33333033,26.467297,-1
547,548,1583549075408,2.0827,-8.804,28.2734,4.107933,0.36151490000000003,33.907097,-1
548,549,1583549075418,-0.1796,-8.601399,34.3014,1.602286,0.9604674999999999,37.033466,-1
549,550,1583549075428,-2.6752,-7.8585997,36.265,0.6892428,1.7105231,34.62281,-1
550,551,1583549075438,-3.4066,-7.1828,33.8087,0.97557974,2.5482447,30.728984999999998,-1
551,552,1583549075448,-3.3019998,-6.2541,29.9012,0.74364865,2.9344678,28.046703000000004,-1
552,553,1583549075458,-3.7206,-5.7743998,27.213,0.6866283000000001,2.996851,27.799152000000003,-1
553,554,1583549075468,-3.6734,-5.2955,27.306397999999998,3.045827,4.5138655,28.957667999999998,-1
554,555,1583549075478,-1.8477,-3.9392,27.9306,5.5607443,5.972633,27.636173,-1
555,556,1583549075488,0.4324,-2.3165,26.428,8.218126,7.7774205,24.797743,-1
556,557,1583549075499,2.8674998,-0.3384,23.3939,10.42195,8.858211,21.516394000000002,-1
557,558,1583549075509,4.8687997,0.91679996,19.909198999999997,11.660261,9.186974000000001,17.946304,-1
558,559,1583549075519,6.3473997,2.3154,13.1345,12.304751,10.068912,14.6205845,-1
559,560,1583549075530,6.6749997,2.9902,10.3439,12.827606,10.5287895,11.902573,-1
560,561,1583549075541,7.4996,3.8102998999999995,7.2040997,13.972713,11.284505000000001,8.963460000000001,-1
561,562,1583549075551,9.491799,4.7662,4.1795,16.224997000000002,12.05583,6.109294,-1
562,563,1583549075561,11.4176,5.3203,1.0784999,17.980024,12.310659,3.2337525,-1
563,564,1583549075571,11.6279,4.8819,-1.3495,17.910334,11.532669,1.1508257,-1
564,565,1583549075582,10.741799,3.781,-2.4793,16.9674,10.149576,0.23082978,-1
565,566,1583549075592,10.2921,3.0842,-3.2900998999999995,16.7771,9.736558,-0.7775218,-1
566,567,1583549075602,10.5476,3.2686,-4.8845997,17.454736999999998,10.254107000000001,-2.7863145,-1
567,568,1583549075612,11.7188,4.4033,-7.8627996,18.582731,11.245699,-5.466537000000001,-1
568,569,1583549075622,12.979899000000001,5.522599700000001,-11.8695,19.688229,12.251983000000001,-10.191964,-1
569,570,1583549075632,12.688399,5.7345,-15.0638,18.631804000000002,12.052143,-12.522135,-1
570,571,1583549075642,10.7339,4.8615,-15.821698999999999,16.335714000000003,10.862761500000001,-12.253351,-1
571,572,1583549075653,8.1762,3.3460998999999996,-14.303699499999999,13.782864000000002,9.2384,-10.298592,-1
572,573,1583549075663,5.8834,1.6905999,-12.0553,11.751747,7.7578745,-8.147364,-1
573,574,1583549075673,4.3884,0.5712,-10.3373995,10.6135435,6.9369119999999995,-6.7943234,-1
574,575,1583549075684,3.9789999,0.20629999,-9.6718,10.71073,6.918247,-6.543746,-1
575,576,1583549075693,4.6477,0.5754,-9.953199,11.408447,7.423404,-7.034059,-1
576,577,1583549075703,5.1481,1.1033,-10.4407,11.687515,7.897657400000001,-7.329408,-1
577,578,1583549075713,4.9356,1.3999,-10.235,11.122110000000001,8.036655,-6.6953087,d
578,579,1583549075723,4.0546,1.3255999,-8.9098,10.045199,7.871732700000001,-4.870659,-1
579,580,1583549075734,3.1457,1.0898,-7.2043996,9.053664,7.4648046,-3.2089963,-1
580,581,1583549075744,2.0932999,0.5509,-5.5369,8.209143,6.9987593,-1.9503359,-1
581,582,1583549075754,1.0939,-0.0112,-3.8523,7.2118910000000005,6.566462,0.151122,-1
582,583,1583549075764,0.5656,-0.1025,-2.1417,7.264525,6.857970699999999,1.5153382,-1
583,584,1583549075774,1.0332,0.3656,-1.2982,8.064438,7.428825,1.5861584999999998,-1
584,585,1583549075784,1.9080000000000001,1.0260999,-1.507,9.097517,8.220022,1.3264738,-1
585,586,1583549075795,3.0177999,1.8433,-1.7731999,10.064745,8.881692999999999,1.0446476999999998,-1
586,587,1583549075806,3.6703,2.3703,-1.9365,10.31696,9.248361000000001,1.5304791000000002,-1
587,588,1583549075816,3.7431,2.6125,-1.2524998999999999,10.146799,9.284963000000001,2.5008776000000004,-1
588,589,1583549075826,3.4164999,2.4879,0.0523,9.535855999999999,9.048081,3.7935648,-1
589,590,1583549075836,2.5994,2.2935,1.135,8.104785000000001,8.996817,4.4268312000000005,-1
590,591,1583549075847,1.3927,2.2917,1.4948,7.606005000000001,9.517776,4.6685114,-1
591,592,1583549075857,1.209,2.9668999,1.7109999999999999,8.200907,10.706056,4.414458,-1
592,593,1583549075867,1.8786,4.1486998,1.2653999,8.684248,11.780382000000001,3.8735885999999997,-1
593,594,1583549075877,2.3948,5.1983,0.8603,9.508925999999999,12.872052,4.3787174,-1
594,595,1583549075887,3.3739998,6.2615,1.4828,10.698002,13.932251999999998,5.2281127,-1
595,596,1583549075897,4.6289,7.281399700000001,2.2015,11.933257000000001,14.892356,5.3850765,-1
596,597,1583549075907,5.888099700000001,8.1868,2.2226999,13.002419999999999,15.688926,5.1532893,-1
597,598,1583549075917,6.9114,8.891399,1.9374,13.175138,16.228004000000002,4.257925,-1
598,599,1583549075927,6.8904,9.2637,1.0035,12.531452999999999,16.404783,3.3530697999999997,-1
599,600,1583549075937,6.1025996,9.3567,0.0381,11.792143,16.885164000000003,2.3241475,-1
600,601,1583549075947,5.7997,9.7827,-0.65529996,12.124323,17.708628,1.5230378,-1
601,602,1583549075957,6.4080997,10.472799,-1.3834,13.141447,18.260519,0.94681096,-1
602,603,1583549075968,7.6622,10.8491,-1.7138,14.496528,18.605311999999998,1.007595,-1
603,604,1583549075978,9.0758,10.9846,-1.5109999,14.8663645,18.541904000000002,1.2599916000000002,-1
604,605,1583549075988,9.2939,10.7034,-1.1333,13.990278,17.897472,1.4905821000000001,-1
605,606,1583549075998,8.6844,9.9521,-0.8034,13.010275,17.052319,1.4861575,-1
606,607,1583549076008,7.9126997,8.9318,-0.6281,12.041225,16.033958,1.4722329,-1
607,608,1583549076019,7.1678,7.7257,-0.44669998,11.686645,14.562396,1.7665473000000003,-1
608,609,1583549076029,7.0681996,6.0662,0.058599997,10.931207,12.910015,2.3131627999999997,-1
609,610,1583549076039,6.594599700000001,4.2332,0.8171,9.538212,11.29571,2.9184457999999998,-1
610,611,1583549076049,5.5,2.4364998,1.6164999,7.599522,9.499619000000001,3.6198702000000003,-1
611,612,1583549076060,3.8932998,0.466,2.5146,5.5458717,7.813094,4.0369209999999995,-1
612,613,1583549076069,2.1771,-1.3701,3.1183,3.6010230000000005,5.982239,4.393293,-1
613,614,1583549076079,0.5675,-3.3249,3.6467998,2.1028368,4.140207,4.8158507,-1
614,615,1583549076089,-0.6195,-5.2799997,4.2465997,1.2016115,2.4755375,4.894955,-1
615,616,1583549076099,-1.2038,-7.0396,4.5232,1.4963090000000001,1.6037511999999998,4.590747400000001,-1
616,617,1583549076110,-0.6196,-7.9767,4.3992,2.5080795,1.5887826999999999,3.9863459999999997,-1
617,618,1583549076120,1.6486,-8.2282,2.5834,3.0647217999999996,1.2956367,2.3365302000000003,-1
618,619,1583549076130,1.6486,-8.2282,2.5834,2.0093195,0.5335525999999999,2.5073037,-1
619,620,1583549076140,0.7098,-9.1989,2.7187997999999998,0.34562695,-0.33150116,3.4316285000000004,-1
620,621,1583549076150,-1.7466999,-10.7335,5.1344,-1.2461723,-1.0377523000000002,5.110414,-1
621,622,1583549076160,-2.4345,-10.904799,6.1078,-2.0851867,-1.0564079,5.949447599999999,-1
622,623,1583549076171,-2.6329,-10.5596,6.3771996,-2.2905613999999996,-0.57755804,6.0150776,-1
623,624,1583549076181,-2.6329,-10.5596,6.3771996,-2.0246806,0.0641646,5.526411,-1
624,625,1583549076191,-1.3924999,-8.9543,4.5481997000000005,-1.0980671999999998,1.0558621000000001,3.7051038999999997,-1
625,626,1583549076201,-0.2006,-8.2358,2.4469,0.05731719,1.6480726000000003,1.5979763999999999,-1
626,627,1583549076211,-0.2006,-8.2358,2.4469,1.4246936000000001,1.9955671000000001,0.25535598,-1
627,628,1583549076221,1.3047999,-7.7962,0.7909,0.8901353999999999,1.9936613999999997,0.33010298,-1
628,629,1583549076232,0.23259999,-7.7629,1.6423,-0.3906667,2.0700555,1.4135271,-1
629,630,1583549076242,-0.4885,-7.7391996,2.4817998,-1.0562931,2.0403388,1.9332220000000002,-1
630,631,1583549076252,-1.3047999,-7.6260996,2.4772,-1.9530174,2.3387616,1.6173791000000002,-1
631,632,1583549076262,-1.4103,-7.1587996,1.8120999,-1.8668643,2.7147949000000002,0.9384026,-1
632,633,1583549076272,-1.0148,-6.7304997,0.9690000000000001,-1.4723574,3.2358499,-0.086804174,-1
633,634,1583549076282,-0.60649997,-6.1168,0.25849998,-1.0579404,3.8750536,-0.82234126,-1
634,635,1583549076292,-0.1724,-5.495,-0.2886,-0.58520997,4.5692379999999995,-1.2699995000000002,-1
635,636,1583549076303,0.4007,-4.7474,-0.528,-0.17711346,5.1488266,-1.3873633,-1
636,637,1583549076313,0.63989997,-4.1383,-0.31039998,-0.09920614,5.7879442999999995,-0.9869281999999999,-1
637,638,1583549076323,0.27629998,-3.7747,0.1537,-0.67303884,6.0245394999999995,-0.501614,-1
638,639,1583549076333,-0.3658,-3.7343,0.4613,-1.3725479999999999,6.0007980000000005,-0.39638403,-1
639,640,1583549076343,-1.0762,-3.7912,0.4125,-2.059272,5.986203,-0.47824657,-1
640,641,1583549076354,-1.4203,-3.6518998,0.2236,-2.1181695,6.186828,-0.7776367,-1
641,642,1583549076364,-1.0892998999999999,-3.4247,-0.11639999599999999,-1.5564799999999999,6.464737400000001,-1.1123268999999998,-1
642,643,1583549076374,-0.38599998,-3.0412,-0.387,-0.9441295,6.8932323,-1.3275179,-1
643,644,1583549076384,0.046699997,-2.6290998,-0.4949,-0.5134605,7.3462442999999995,-1.4559043999999999,d
644,645,1583549076395,0.2816,-2.208,-0.6103,-0.6651093000000001,7.8108726,-1.3641012,-1
645,646,1583549076405,-0.1775,-1.8070998999999999,-0.3029,-1.3056252,8.043666,-0.7634439000000001,-1
646,647,1583549076415,-0.77989995,-1.6908,0.42,-1.6267548,8.106633,0.008925584,-1
647,648,1583549076425,-0.90139997,-1.6330999,1.0771998999999999,-1.5318773,8.119054,0.35319263,-1
648,649,1583549076435,-0.7703,-1.6431999,1.1084,-1.3272113,8.072147,-0.10217495,-1
649,650,1583549076445,-0.4463,-1.6915,0.3796,-1.0275723,8.069666999999999,-0.7328747,-1
650,651,1583549076455,-0.0083,-1.6608,-0.7629,-0.657103,8.08249,-2.0667515,-1
651,652,1583549076465,-0.1013,-1.7289,-1.2171999,-1.1027884,7.822316000000001,-1.7269281000000003,-1
652,653,1583549076476,-0.5191,-1.9856,-0.59639996,-1.3274317,7.6345825,-0.97421026,-1
653,654,1583549076486,-0.89169997,-2.4317,0.81659997,-1.9498761999999998,6.758611,1.4408591999999998,-1
654,655,1583549076496,-1.4139,-3.1643,2.6843998,-2.350905,6.012415,3.3451405,-1
655,656,1583549076506,-1.9354999,-4.2406,5.0197997,-2.902711,4.7860949999999995,5.535088,-1
656,657,1583549076516,-2.5630999,-5.5120000000000005,6.848099700000001,-3.6591160000000005,3.1859740000000003,7.508054,-1
657,658,1583549076526,-3.1938,-6.861000000000001,8.4105,-4.007089,1.9914011999999999,9.097592,-1
658,659,1583549076536,-3.4845998,-7.9157996,9.7691,-3.7176206,1.0946577,10.369508,-1
659,660,1583549076547,-3.1692,-8.8144,11.075,-3.5826738,0.74882966,11.821869,-1
660,661,1583549076557,-3.2285,-9.0954,12.5439,-3.8316230000000004,0.44732305,13.974563,-1
661,662,1583549076567,-3.6378998999999994,-9.4346,14.837198999999998,-4.284126799999999,0.15868768,16.855476,-1
662,663,1583549076577,-4.1688,-9.6742,17.6139,-4.5202527,0.07035122,18.550926,-1
663,664,1583549076588,-4.5469,-9.7939,19.2102,-4.549146,-0.1792012,18.54019,-1
664,665,1583549076598,-4.599,-10.0282,18.4079,-3.7720745000000004,0.09197565,14.645791000000001,-1
665,666,1583549076608,-4.008899700000001,-9.718699,14.9901,-2.3440382,1.1014764,11.389878,-1
666,667,1583549076618,-2.3634999,-8.4124,11.0328,0.38584954,2.9564847999999997,6.693383,-1
667,668,1583549076628,-0.29909998,-6.8238997,7.2553997,2.2480787999999996,4.8060727,4.276743,-1
668,669,1583549076638,1.3014,-4.9428997,4.9446,3.7454796000000004,5.8748629999999995,3.209734,-1
669,670,1583549076648,2.9492998,-3.6035,3.6546,6.398178,7.314630999999999,0.66283953,-1
670,671,1583549076659,4.9242,-2.3535,1.4959999,8.488498,8.673273,-3.3083174,-1
671,672,1583549076669,6.7395997,-0.94689995,-2.372,11.329792999999999,10.085498,-9.081743,-1
672,673,1583549076679,9.3041,0.5381,-8.0666,14.215103,11.833917,-14.323226000000002,-1
673,674,1583549076690,11.9035,2.3543,-13.247399,17.292889000000002,13.299914999999999,-17.703454999999998,-1
674,675,1583549076700,15.986899,4.8006,-18.0145,18.859913,14.259817000000002,-19.274845000000003,-1
675,676,1583549076710,15.5786,5.0266,-18.9657,18.495506,14.258994,-20.262234,-1
676,677,1583549076720,14.8209,4.8814,-20.576199,17.832635999999997,14.094828,-22.172482000000002,-1
677,678,1583549076730,13.8189,4.8087,-23.5892,16.944235,13.96875,-25.344866,-1
678,679,1583549076741,13.109798999999999,4.5836,-26.782299,16.378801,13.638110000000001,-28.426884,-1
679,680,1583549076751,12.4814,4.2047,-28.855597999999997,15.886773000000002,13.212431,-30.234114,-1
680,681,1583549076761,11.924299000000001,3.4148998,-29.4989,15.366617999999999,12.277887,-30.461170000000003,-1
681,682,1583549076772,11.924299000000001,3.4148998,-29.4989,15.115801999999999,11.352586,-29.159328000000002,-1
682,683,1583549076782,11.5878,1.2659,-25.3214,15.192609,10.050601,-25.540789,-1
683,684,1583549076792,10.931,-0.248,-22.080399,14.141142000000002,8.386104,-21.412302,-1
684,685,1583549076802,9.6297,-1.2292,-18.8295,12.732661,7.4433913,-18.32473,-1
685,686,1583549076812,8.2361,-2.4192998,-16.2876,11.313809,6.1353526,-15.820529999999998,-1
686,687,1583549076822,6.7297997,-3.7168998999999996,-14.0696,9.787085000000001,5.0082197,-13.901548000000002,-1
687,688,1583549076833,5.6756997,-4.5979,-12.8143,9.197623,4.1506934,-12.800915,-1
688,689,1583549076843,5.5906997,-5.568,-11.6029,9.323998,3.2211206000000003,-11.275464,-1
689,690,1583549076853,5.9309998,-6.0471997,-9.888,10.062130999999999,3.1533647,-9.491286,-1
690,691,1583549076863,7.7261,-5.7311,-8.3,12.437916,3.4756052000000004,-7.6818633,-1
691,692,1583549076873,9.8054,-5.2297,-5.5955,14.198029,4.243129,-4.150387,-1
692,693,1583549076884,10.8496,-4.1658,-1.3126999,15.013541,5.384425599999999,1.5646681999999998,-1
693,694,1583549076894,11.1005,-3.1201,3.6478,15.033824,6.485787,5.8017635,-1
694,695,1583549076904,11.075399,-1.4733,8.721499,15.384269,7.969656,10.920969,-1
695,696,1583549076914,11.841499,-0.5581,13.3539,16.917065,8.736336999999999,17.315707999999997,-1
696,697,1583549076924,13.173599,0.2439,19.755,17.520107,9.873036,24.993168,-1
697,698,1583549076934,12.884,1.6955999,27.893,16.181059,11.577957000000001,33.527702000000005,-1
698,699,1583549076944,11.005,3.6055998999999996,35.6688,14.381386,13.664245000000001,39.46352,-1
699,700,1583549076955,9.4163,5.8773,39.4526,13.568315,15.092148000000002,40.468426,-1
700,701,1583549076965,8.2504,7.989,37.736,12.006826,17.36186,36.5781,-1
701,702,1583549076975,7.0811,8.9752,34.3955,10.870173,18.042904,34.703635999999996,-1
702,703,1583549076985,5.5534,9.6679,33.4472,9.056614,18.645803,34.687634,-1
703,704,1583549076995,4.3374,9.899799,33.816497999999996,7.875947,18.780205,34.426426,-1
704,705,1583549077006,3.273,10.0341,32.7071,6.8029423,19.005077,31.92258,-1
705,706,1583549077016,2.6046,10.0974,29.2757,6.433421,18.90728,26.033217999999998,-1
706,707,1583549077026,2.5951,9.873799,23.9573,6.3946447,18.490353,20.020515,-1
707,708,1583549077036,2.7559,9.2872,18.004799,6.5283940000000005,17.919306,15.0868225,-1
708,709,1583549077046,3.1236,8.3928995,12.2314,6.804378999999999,16.788641000000002,9.120577,-1
709,710,1583549077056,3.7431,7.3139,7.9006,7.9796443,15.690487,5.8293834,-1
710,711,1583549077066,5.2194,6.1122,5.0513,8.960463,14.332754999999999,3.562668,-1
711,712,1583549077077,6.3514,4.5908,3.0897,9.281467,12.531856,1.8414093,-1
712,713,1583549077087,6.7433996,2.5734,1.5853,8.8854,10.585608500000001,0.15744270000000002,-1
713,714,1583549077097,6.3273,-0.0066,-0.76839995,7.534457000000001,7.6928287,-3.6397803,-1
714,715,1583549077107,5.4649997,-2.3703,-3.7156,6.579544,5.512037,-5.8487763,-1
715,716,1583549077117,4.8180000000000005,-4.5645,-5.4786997,5.71223,3.7816894,-6.3639894,-1
716,717,1583549077128,4.423899700000001,-6.2077,-5.4835,5.6742487,2.2889717000000003,-5.287058,-1
717,718,1583549077138,4.5614,-7.752999999999999,-4.2002997,4.538439,1.0586106000000002,-4.473709599999999,-1
718,719,1583549077148,2.8154,-9.2704,-3.4052,1.033213,-1.2820088,-4.895615599999999,-1
719,720,1583549077158,0.6053,-11.0137,-3.9132,-0.062459935,-3.2982139999999998,-6.032833,-1
720,721,1583549077168,-0.2006,-13.0309,-4.9403,-0.41579622,-5.041691,-6.7017155,-1
721,722,1583549077178,-0.4025,-15.225999999999999,-5.620899700000001,-1.0232818000000001,-7.7567825,-6.669374499999999,-1
722,723,1583549077189,-0.6817,-17.4658,-5.3891,-1.903036,-9.594438,-5.2011065,-1
723,724,1583549077199,-1.3584,-19.2833,-3.8737998,-3.2438655,-10.757608,-3.1502237,-1
724,725,1583549077209,-2.524,-20.434399,-1.7825999,-4.317129,-11.693702,-1.9635996999999998,-1
725,726,1583549077219,-3.4459,-21.359499,-0.5746,-5.705421,-12.53242,-2.1402917,-1
726,727,1583549077229,-4.7223,-22.1752,-0.6943,-7.272703599999999,-13.193220000000002,-3.212559,-1
727,728,1583549077240,-6.2118998,-22.8148,-1.7129999,-8.610306,-13.667444,-4.447814,-1
728,729,1583549077250,-7.5133,-23.282099,-2.8883997999999997,-9.288133,-13.566151000000001,-5.236866,-1
729,730,1583549077260,-8.2106,-22.6216,-4.1881,-9.678646,-12.875259,-5.909043,-1
730,731,1583549077270,-8.535,-21.9532,-4.3827,-9.273299,-12.179217,-6.0988646,-1
731,732,1583549077280,-7.5351996,-21.1117,-4.6459,-7.9250565,-11.297912,-6.3853264,-1
732,733,1583549077290,-6.575999700000001,-20.33,-4.821399700000001,-6.8542833,-10.462499000000001,-6.437213400000001,-1
733,734,1583549077301,-6.1987996,-19.6752,-4.2682,-6.159993599999999,-9.886387,-5.562698,-1
734,735,1583549077311,-4.9628997,-19.1649,-2.8529,-4.4353833,-9.34048,-3.9576056000000004,-1
735,736,1583549077321,-4.1046,-18.7566,-0.94769996,-3.6755497000000004,-9.064898,-2.0506625,-1
736,737,1583549077331,-4.2367,-18.7999,1.43,-3.5819650000000003,-9.200889,0.37117788,-1
737,738,1583549077341,-4.0792,-18.8869,2.7621999,-2.764872,-9.179034,1.4342992,-1
738,739,1583549077352,-4.0792,-18.8869,2.7621999,-1.1157746000000002,-8.625983,1.2340194,-1
739,740,1583549077362,-0.51309997,-16.979399,1.3869999999999998,1.9581697,-7.2157793,-0.1303978,-1
740,741,1583549077372,1.9337,-15.594999,0.4001,5.0061126,-5.857836,-0.69220203,-1
741,742,1583549077382,4.6513,-13.5211,1.5394,8.774558,-3.4020362,1.6088748,-1
742,743,1583549077392,6.9367,-11.509999,4.4425,11.378463,-1.8101889,5.020296599999999,-1
743,744,1583549077402,8.946,-9.9512,7.3679,14.098639499999999,-0.53033483,7.13813,-1
744,745,1583549077413,11.3368,-8.5271,7.4129,17.146276,0.7705499,6.394970400000001,-1
745,746,1583549077424,14.4723,-6.0095,5.8373,21.515179,4.0458465,4.189853,-1
746,747,1583549077435,19.564,-0.9375,1.9361,29.008532000000002,10.415859,-0.96901006,-1
747,748,1583549077445,25.1808,4.8333,-1.8543999,33.879917,15.352205,-2.2761102,-1
748,749,1583549077455,28.162699,9.4373,-1.4239998999999999,34.147926,17.782894,1.2483655,-1
749,750,1583549077465,25.8766,10.732999999999999,3.5658998,30.101954,16.963993,8.044633000000001,-1
750,751,1583549077476,21.048199,9.6648,10.3003,25.89334,15.781255999999999,13.590292999999999,-1
751,752,1583549077486,17.6433,9.205999,13.598498999999999,24.801373,15.989859,13.037664,-1
752,753,1583549077496,17.2731,10.4772,10.563399,25.753307,18.375823999999998,6.751753999999999,-1
753,754,1583549077506,18.1625,12.957,4.7977,26.039951000000002,20.235716,1.928405,-1
754,755,1583549077516,17.764599,14.9307995,0.2358,24.460257000000002,21.043186,-0.7403446,-1
755,756,1583549077526,15.250298999999998,15.497998999999998,-2.7842999,21.267054,19.661213,-2.9103627,-1
756,757,1583549077537,12.4408,14.1307,-4.0232,18.41714,18.045376,-2.7062237000000002,-1
757,758,1583549077547,9.578899,12.6156,-3.6984,16.313238000000002,16.290129,-2.1121453999999997,-1
758,759,1583549077557,7.5769997,11.015599,-3.1158,14.840162,14.902564000000002,-1.3563247999999999,-1
759,760,1583549077568,6.1938996,9.803699499999999,-2.4025,14.34847,13.948704999999999,-1.2362509,-1
760,761,1583549077578,5.8584,9.0441,-2.4972,14.127888,13.236162,-1.1749976,-1
761,762,1583549077588,5.6092,8.5289,-2.4394,13.877444,12.708892,-1.1698931000000001,-1
762,763,1583549077598,5.3402,8.0542,-2.4802,13.17581,12.0720625,-1.3926305,-1
763,764,1583549077608,4.3563,7.2216,-2.7082,11.332695,10.615718,-0.7435337,-1
764,765,1583549077618,2.7754,5.9992,-2.0693998,9.653115,9.239933,0.28315744,-1
765,766,1583549077629,1.0949,4.6006,-1.045,7.9532604000000005,7.7639747,1.2852267,-1
766,767,1583549077639,-0.5901,3.1069,-0.0385,6.950310000000001,6.7550774,2.2885602,-1
767,768,1583549077650,-1.3055999,1.5438,1.5037999,7.432684,6.2274337,2.9495609,-1
768,769,1583549077660,0.0392,1.6119999999999999,1.7677,8.865728,6.30966,3.2144072,-1
769,770,1583549077670,0.0392,1.6119999999999999,1.7677,10.390941,6.521557,2.971099,-1
770,771,1583549077681,1.5086,1.7932999,1.6708,10.680122,6.5340443,2.3619661,-1
771,772,1583549077692,2.1764,1.8981999,1.0548999,10.641508,6.493123000000001,2.18039,-1
772,773,1583549077702,1.6068,1.6205,0.00029999999,9.801517,6.2337065,1.3598298999999998,d
773,774,1583549077712,0.84779996,1.3413999,-0.2373,9.066985,5.951037,1.1456351,-1
774,775,1583549077722,0.3847,1.0217999,-0.35169998,8.798250999999999,5.6789510000000005,1.1195,-1
775,776,1583549077734,0.3814,0.7966,-0.14559999,8.907196,5.569718,1.4047163999999999,-1
776,777,1583549077744,1.1603999,0.9625,0.27089998,10.073077,5.9236383,1.8387661,-1
777,778,1583549077754,2.2424998,1.2708,0.501,11.190145,6.277616,2.194851,-1
778,779,1583549077764,3.1306,1.5848,0.82019997,11.8532715,6.5505260000000005,2.4211795,-1
779,780,1583549077774,3.6604997999999997,1.7895,0.7884,12.016402000000001,6.7643957,1.9404526999999998,-1
780,781,1583549077784,3.472,1.8994999,0.1322,11.336822999999999,6.9113803,1.373793,-1
781,782,1583549077795,2.7221,2.0456,-0.18699999,10.949384,7.3062320000000005,1.3342502,-1
782,783,1583549077804,2.7510998,2.5119998,-0.1618,11.15584,7.843156,1.4510969,-1
783,784,1583549077814,3.1743999,3.3439998999999996,0.1015,11.626330000000001,8.938226,1.7741799999999999,-1
784,785,1583549077824,3.855,4.6781,0.2816,12.8223295,10.856785,1.6673220000000002,-1
785,786,1583549077834,5.2541,6.2756996,-0.1809,14.264539000000001,12.308677000000001,1.1979531,-1
786,787,1583549077844,6.7272997000000005,7.5223,-0.5038,15.643714000000001,13.456476,1.2607005,-1
787,788,1583549077855,8.0142,8.3426,-0.205,16.42724,13.850467000000002,2.0233111,-1
788,789,1583549077866,8.5501995,8.4464,0.7672,16.370344,14.070475,3.5543074999999997,-1
789,790,1583549077877,8.3955,8.4878,2.0471,15.874035999999998,14.151389000000002,4.283005999999999,-1
790,791,1583549077887,7.9809,8.439899,2.5493,15.372173000000002,14.370209,4.0447353999999995,-1
791,792,1583549077897,7.6677,8.5238,2.2307,15.471839000000001,14.630592000000002,3.655132,-1
792,793,1583549077907,8.0538,8.6142,1.9159,16.057175,14.894012,3.4862547,-1
793,794,1583549077917,8.7569,8.6516,1.7615999,16.321753,14.819113,2.7626789,-1
794,795,1583549077927,9.1055,8.2661,1.0196999,16.140644,14.242742999999999,1.9325805,-1
795,796,1583549077938,8.9583,7.3683996,0.3854,15.250653,13.290232999999999,1.1318158,-1
796,797,1583549077948,8.2315,6.1285996,-0.29569998,14.282993,12.37763,0.5518826,-1
797,798,1583549077958,7.1018996,4.6424,-0.62,11.98908,10.614588000000001,0.7357765,-1
798,799,1583549077970,5.6756997,3.1436,-0.1375,10.813354499999999,10.098455,1.0980864,-1
799,800,1583549077980,4.1349,1.1310999,1.0904,8.957158,8.974952,1.5668518999999999,-1
800,801,1583549077990,3.0965998,0.29479998,1.0820999,8.382933999999999,8.382445,1.2124813,-1
801,802,1583549078000,2.9557998,-0.4553,0.36839998,7.9282556,7.8731884999999995,0.16172354,-1
802,803,1583549078010,2.8636,-1.1381,-0.6412,7.4640007,7.373921000000001,-1.04188,-1
803,804,1583549078021,2.32,-1.8614,-1.056,6.466451599999999,6.785819,-1.4951886,-1
804,805,1583549078031,2.32,-1.8614,-1.056,5.5116629999999995,6.3017592,-1.0768256999999999,-1
805,806,1583549078041,1.0034,-3.4534998,0.7812,4.5240545,5.4816685,0.16624379,-1
806,807,1583549078051,0.6729999999999999,-4.370899700000001,1.6456,3.5959282,4.564622,0.8259613000000001,-1
807,808,1583549078061,-0.3766,-5.3978996,2.1311998,2.0507774,3.6556396,1.1028459,-1
808,809,1583549078072,-1.4491999,-6.3668,2.3760998,0.9388334999999999,2.8299847000000002,1.1320264,-1
809,810,1583549078082,-1.8138,-7.2869997,2.3079998,0.25839183,1.9782810000000002,0.9131389999999999,-1
810,811,1583549078092,-1.6162,-7.5930995999999995,2.2235,0.8965424000000001,1.9782522,0.7009456000000001,-1
811,812,1583549078102,0.2899,-7.5843,1.9786999,2.4953136000000002,1.8743343000000001,0.50163317,-1
812,813,1583549078112,1.291,-7.8156,2.2494,2.7656188,1.7402111,0.9378663,-1
813,814,1583549078123,1.3228999,-8.0841,3.3439998999999996,2.3425252,1.3544285,2.375211,-1
814,815,1583549078134,0.76119995,-8.5744,4.3574,1.3320668,0.93013775,3.1996782,-1
815,816,1583549078143,-0.2365,-8.940599,4.8592,0.21498974,0.6114887,3.5167181000000003,-1
816,817,1583549078153,-1.0285,-9.2593,4.8810997,-0.86637545,0.31604418,3.3040655,-1
817,818,1583549078163,-2.0435998,-9.5112,4.3656,-1.9482099,0.19440918,2.5804515,-1
818,819,1583549078173,-2.4974,-9.4725,3.5972998,-2.314628,0.3209571,1.8958821,-1
819,820,1583549078184,-2.4592,-9.068399000000001,3.0897,-1.9509487,0.94622684,1.3082492000000001,-1
820,821,1583549078194,-1.1187,-8.213699,2.2927,-0.39483258,1.8148911,0.3805344,-1
821,822,1583549078204,0.2776,-7.4101,1.4387,0.93015695,2.7178211,-0.5002541,-1
822,823,1583549078214,1.1889,-6.7268996,0.9479,1.4669082,3.2088623,-0.50517654,-1
823,824,1583549078224,1.6509999,-6.2514997,1.4251,1.613941,3.52958,0.5919616,-1
824,825,1583549078234,1.4142,-6.157099700000001,2.391,1.0128527,3.6621614,1.1193659,-1
825,826,1583549078245,0.44349998,-5.7735,2.6108,-0.057661954,4.0797195,1.0041857,-1
826,827,1583549078255,-0.2122,-5.4828,2.0166,-0.7474698000000001,4.3370104000000005,-0.10356359,-1
827,828,1583549078265,-0.7342,-5.2086997,1.0152,-1.3042941000000001,4.6507273,-1.1987671999999998,-1
828,829,1583549078276,-1.0531,-4.9544,-0.028999999999999998,-1.3674148000000002,4.924671599999999,-2.1752662999999997,-1
829,830,1583549078286,-0.92179996,-4.6738,-0.6102,-0.74708664,5.4524307,-2.137007,-1
830,831,1583549078296,-0.18339999,-4.1035,-0.43019998,-0.31820855,5.803564,-1.9228313000000001,-1
831,832,1583549078306,0.41509998,-3.4778,-0.0521,0.34555990000000003,6.8199315,-1.3605386,-1
832,833,1583549078316,0.81579995,-2.677,0.2985,0.42774808,7.6091466,-0.98703355,-1
833,834,1583549078327,0.8208,-1.9440998999999999,0.6999,0.054281342999999996,8.025958000000001,-0.35855564,-1
834,835,1583549078338,0.37799999999999995,-1.611,1.3276,-0.520442,8.123248,-0.022285229,-1
835,836,1583549078348,-0.3163,-1.5882,1.5115,-1.4226251,7.998711999999999,-0.65634644,-1
836,837,1583549078358,-0.99429995,-1.6891999,0.71379995,-2.0745756999999996,7.921810000000001,-2.3748949,-1
837,838,1583549078368,-1.469,-1.7394999,-0.741,-2.3722324,8.144232,-3.5446443999999997,-1
838,839,1583549078378,-1.7393999,-1.4283999,-2.0948,-2.0205528999999998,8.520916,-4.144162000000001,-1
839,840,1583549078388,-1.2516999,-1.0732,-2.4513,-1.6464446,8.794554,-3.4572462999999996,-1
840,841,1583549078398,-0.9838,-0.86109996,-1.8169999,-1.8018762,8.90259,-2.079891,-1
841,842,1583549078409,-1.1529,-0.7609999999999999,-0.47939998,-1.7277708999999999,8.893108999999999,-0.78141,-1
842,843,1583549078419,-1.0775,-0.7793,0.7636,-1.8498081000000002,8.896001,-0.17794664,-1
843,844,1583549078429,-1.2059,-0.78569996,1.331,-1.953027,8.9312525,0.046409205,-1
844,845,1583549078439,-1.2624999,-0.7201,1.5361999,-1.5730288000000001,9.169754,-0.13237062,d
845,846,1583549078449,-0.9274,-0.5141,1.3593,-1.5527643,9.364087,-0.7623713000000001,-1
846,847,1583549078459,-0.907,-0.3157,0.7362,-1.7527375,9.426077000000001,-1.6604651000000001,-1
847,848,1583549078470,-1.1036,-0.25349998,-0.1345,-1.5725212,9.57221,-2.3031740000000003,-1
848,849,1583549078480,-0.3823,-0.0041,-1.0041,-0.92590487,9.646381,-2.5412726,-1
849,850,1583549078490,-0.1284,-0.06359999599999999,-0.66029996,-0.72633374,9.600806,-2.1245953999999996,-1
850,851,1583549078500,-0.039699998,-0.3012,-0.2488,-0.653234,9.28911,-1.6937061999999998,-1
851,852,1583549078510,-0.039699998,-0.3012,-0.2488,-0.6373555999999999,9.019542,-1.1537275,-1
852,853,1583549078521,-0.0526,-1.1322,1.2983999,-0.66245645,8.411271000000001,-0.013235146000000001,-1
853,854,1583549078531,-0.054899998,-1.7336999,2.1404998,-0.63059443,7.838176,0.80846447,-1
854,855,1583549078541,0.14209999,-2.3634999,2.852,-0.46570095,7.156594800000001,1.5941266,-1
855,856,1583549078551,-0.1158,-3.247,3.9612,-0.83265543,6.2106357,2.7736158,-1
856,857,1583549078562,-0.62479997,-4.5323997,5.3048,-1.3313006,4.8591565999999995,4.2070246,-1
857,858,1583549078572,-1.1777999,-6.153,6.8645,-2.1344116,2.8143456000000002,6.0830727,-1
858,859,1583549078582,-1.9214,-8.0903,8.429299,-2.6674569,0.75141543,7.684171000000001,-1
859,860,1583549078593,-2.0340000000000003,-10.1192,9.823299,-2.5528605,-1.0947822,8.888416000000001,-1
860,861,1583549078603,-1.9446,-11.542399000000001,10.632299,-2.4045446,-2.2424095,9.639142999999999,-1
861,862,1583549078613,-2.052,-12.2497,11.5344,-2.7102075,-2.4354299999999998,11.000945,-1
862,863,1583549078623,-2.7673,-11.7088995,13.286098999999998,-3.3372873999999997,-1.7351642,12.772003,-1
863,864,1583549078633,-3.6980998999999994,-11.349299,14.9904995,-4.4414834999999995,-1.6247148999999999,14.646309,-1
864,865,1583549078644,-4.6187997,-11.3466,16.2878,-4.715591000000001,-1.6225505,15.191612,-1
865,866,1583549078654,-4.6314,-11.2786,16.165699,-4.1406856,-1.4854585,14.177744,-1
866,867,1583549078664,-3.4492,-10.927899,14.000798999999999,-1.5383991000000001,-0.5143511,10.64306,-1
867,868,1583549078674,-1.1495,-9.4193,10.5876,0.54346466,1.7470106,6.6279454,-1
868,869,1583549078684,0.5122,-6.7697,6.5632,3.2873058,4.586189,2.4418366000000002,-1
869,870,1583549078695,3.5911,-3.819,2.4619,7.206442,7.7544746,-2.138472,-1
870,871,1583549078705,7.1331997000000005,-0.2888,-2.4043,10.69374,11.196676,-7.5576229999999995,-1
871,872,1583549078715,9.8246,2.8689999999999998,-7.763999999999999,13.472317000000002,13.705817999999999,-13.370735,-1
872,873,1583549078725,12.2083,5.2374997,-13.765699,15.465681,15.333158,-18.451319,-1
873,874,1583549078735,14.2547,7.3293996,-19.8127,18.161282999999997,17.407685999999998,-25.649706,-1
874,875,1583549078745,15.967099,8.722199,-25.2517,19.520147,17.998402,-30.13822,-1
875,876,1583549078756,16.4543,8.991199499999999,-28.6096,18.87286,17.432717999999998,-31.607206,-1
876,877,1583549078766,15.3185,8.371099000000001,-28.8597,17.54451,16.518192000000003,-30.088929999999998,-1
877,878,1583549078776,13.8626995,7.509299799999999,-27.0975,16.889032,15.316051999999999,-28.123154,-1
878,879,1583549078786,13.309199,6.2077,-25.243599,16.359858,13.820232,-26.974426,-1
879,880,1583549078797,12.5334,4.7574,-24.393599,15.184133,12.323885,-27.065733,-1
880,881,1583549078807,11.2661,3.1497,-24.5805,13.709257000000001,10.128566000000001,-27.160227000000003,-1
881,882,1583549078817,9.7887,0.88159996,-24.4555,12.090555,8.028122,-26.316941999999997,-1
882,883,1583549078827,7.2426,-2.3362,-22.741,8.552184,4.1688123,-23.615064999999998,-1
883,884,1583549078837,4.5,-5.329,-20.4111,5.842877,0.94282705,-19.984201000000002,-1
884,885,1583549078847,2.194,-8.5605,-16.5065,4.6737212999999995,-1.9794015,-15.384689999999999,-1
885,886,1583549078858,1.2857,-11.4044,-12.0161,4.0023102999999995,-4.148826000000001,-11.00421,-1
886,887,1583549078868,0.78499997,-13.4705,-7.8286,3.7197754,-5.680703,-6.8489394,-1
887,888,1583549078878,0.56949997,-14.9801,-3.7391,3.4273667000000003,-7.046365299999999,-1.3896903999999999,-1
888,889,1583549078889,0.325,-16.107,0.6831,2.7371566,-7.7525783,3.1511047000000003,-1
889,890,1583549078900,-1.3908,-17.2433,9.3337,1.5930061000000002,-8.166527,8.363081,-1
890,891,1583549078910,-1.3908,-17.2433,9.3337,1.1738676000000001,-8.035209,12.0599,-1
891,892,1583549078920,-1.8612,-16.7749,16.3293,1.6808158,-7.553246499999999,15.433847,-1
892,893,1583549078930,-1.1493,-15.6182995,19.4261,2.4939823,-6.2666698,18.69067,-1
893,894,1583549078940,-1.1493,-15.6182995,19.4261,3.037562,-4.948211,21.819395,-1
894,895,1583549078950,0.22119999,-12.3138,27.6062,4.485355,-3.0374565,27.344732,-1
895,896,1583549078961,1.1408,-9.5647,31.3338,5.7916503,-0.27601317,30.917477,-1
896,897,1583549078971,1.1408,-9.5647,31.3338,7.531383,1.629781,32.75246,-1
897,898,1583549078981,2.8924,-6.9757,33.5817,10.040392,4.070641,34.08512,-1
898,899,1583549078991,6.5146,-1.4975,34.4707,12.068778,7.2973833,33.810352,-1
899,900,1583549079001,7.3608,1.3299999,33.5121,13.128156,9.889116,32.895573,-1
900,901,1583549079011,7.2942995999999996,4.3301,31.761,13.163857,12.790275999999999,30.987282,-1
901,902,1583549079021,7.6798,7.5585,28.049799,14.204826999999998,15.822092000000001,27.043877000000002,-1
902,903,1583549079032,9.494599000000001,10.9578,23.3218,16.809864,19.686985,21.771185,-1
903,904,1583549079042,11.609699,14.187999999999999,19.1871,19.137974,22.396465,18.193031,-1
904,905,1583549079052,13.4272995,16.562898999999998,16.0588,20.87964,24.241722,15.791503,-1
905,906,1583549079062,14.379000000000001,18.098,13.9844,21.386772,25.23005,14.244859,-1
906,907,1583549079073,14.2996,18.7622,12.2711,21.453197,25.5444,12.97799,-1
907,908,1583549079083,14.927,19.2976,9.9709,22.522743,26.186007,9.979560000000001,-1
908,909,1583549079093,16.1546,20.01,6.311899700000001,23.975986,26.714924,5.870726,-1
909,910,1583549079103,17.7852,20.2113,1.6775999,25.497196,26.775890000000004,1.4070052,-1
910,911,1583549079114,18.888199,20.1146,-2.4331,26.2473,26.525090999999996,-2.3737168,-1
911,912,1583549079124,19.3676,19.3739,-5.6927,26.458544,25.799726,-4.7624025,-1
912,913,1583549079134,19.274399,17.7536,-7.7342997,25.600224,23.336494000000002,-7.0833035,-1
913,914,1583549079144,18.112099,15.5499,-8.7864,24.201366,21.572754,-7.8198365999999995,-1
914,915,1583549079154,16.237299,12.8474,-9.320499,21.195733999999998,18.189247,-8.406847,-1
915,916,1583549079165,13.6395,9.5774,-9.4892,18.27092,15.107366,-8.482685,-1
916,917,1583549079175,11.0293,6.3420000000000005,-9.1748,16.09209,12.874658,-8.279762,-1
917,918,1583549079185,8.8869,3.6857998,-8.7781,13.240251,10.021592,-8.027211999999999,-1
918,919,1583549079195,6.7808,1.0016999,-8.0697,11.128086999999999,7.7361345,-7.059025999999999,-1
919,920,1583549079205,5.1524997,-1.4082999,-6.7802997000000005,9.809974,6.1287255,-6.293178,-1
920,921,1583549079215,4.3476,-3.3246998999999997,-5.8048997,9.103214999999999,4.379857,-5.5428643,-1
921,922,1583549079226,4.5089999999999995,-4.6979,-5.0347,9.277982000000002,3.4406116,-5.242152,-1
922,923,1583549079236,5.0915,-5.6787,-4.9021,9.091675,2.2263873,-6.0461636,-1
923,924,1583549079246,4.8587,-6.9785,-5.4793997,7.507373299999999,0.66316515,-7.0081444,-1
924,925,1583549079257,3.3946998,-8.7664995,-6.2481,4.7740089999999995,-1.267768,-7.614567,-1
925,926,1583549079267,0.8109999999999999,-10.7843,-6.4301996,1.7388417,-2.646656,-6.86025,-1
926,927,1583549079278,-1.7615,-12.017099,-5.2458,-0.21820755,-3.2901216,-5.8921684999999995,-1
927,928,1583549079288,-3.0913,-12.745999000000001,-4.245,-0.7467802,-4.024902,-5.646839599999999,-1
928,929,1583549079298,-3.1957998,-13.4424,-4.0097,-0.40465838,-4.283055,-6.870755,-1
929,930,1583549079308,-2.4157999,-13.6488,-5.4512997,2.5977855,-3.7660122000000005,-9.867386999999999,-1
930,931,1583549079318,0.4779,-13.1229,-7.8624997,6.250341400000001,-2.4642560000000002,-12.519376,-1
931,932,1583549079328,4.2285,-11.811999,-10.387099000000001,8.325961,-1.7671603,-14.134103,-1
932,933,1583549079338,6.4054,-11.1081,-11.8751,8.123928999999999,-1.6866193999999999,-13.570689000000002,-1
933,934,1583549079348,6.3227997,-11.0275,-11.215899,6.226121400000001,-2.2029624,-12.568074000000001,-1
934,935,1583549079358,4.554199700000001,-11.5480995,-10.122,4.203375299999999,-2.8248227000000004,-12.52857,-1
935,936,1583549079368,2.6669,-12.1614,-9.974999,3.0043783,-2.838441,-14.165198,-1
936,937,1583549079379,1.5989,-12.1661,-11.487499,2.8665392000000005,-2.324425,-16.60129,-1
937,938,1583549079391,2.3127,-10.9527,-15.839298999999999,3.7452786,-1.4961941,-19.044735,-1
938,939,1583549079401,3.8279,-9.6428995,-16.6534,5.5782604000000005,-0.045834597000000005,-19.588879000000002,-1
939,940,1583549079411,6.604099799999999,-7.9653997,-15.895999999999999,8.230241,1.6252321,-18.495829999999998,-1
940,941,1583549079421,7.4697,-6.7075,-13.4479,8.561722999999999,2.7946656,-15.716575,-1
941,942,1583549079432,6.4393997,-5.973099700000001,-10.1516,7.3286705,3.4567196000000004,-12.327630000000001,-1
942,943,1583549079442,5.0958,-5.6549,-7.3711996,5.728262,3.8393992999999993,-9.190594,-1
943,944,1583549079452,3.9939999999999998,-5.4333,-5.5056,4.610744,3.9928293,-7.715248,-1
944,945,1583549079462,3.2514,-5.2391996,-4.7973,4.2778735,4.5184717,-7.1469603,-1
945,946,1583549079472,3.2514,-5.2391996,-4.7973,4.748631,5.1061716,-6.4816213,-1
946,947,1583549079482,5.2205,-3.4463,-1.7732999,7.025469,6.507364,-2.6936684,-1
947,948,1583549079493,7.567,-2.2536,1.8889999,9.611274,7.753172,1.6725032,-1
948,949,1583549079503,10.5678,-1.2997999,6.7468996,12.155956,8.439963,6.0266657,-1
949,950,1583549079513,12.533,-0.6495,12.212999,13.597601000000001,9.185267999999999,12.927711500000001,-1
950,951,1583549079523,11.9781,-0.2681,17.546,12.26742,9.460813,18.241318,-1
951,952,1583549079533,9.591000000000001,-0.3189,21.6008,9.332177,9.234799,21.492193,-1
952,953,1583549079543,6.0815997,-0.8013,22.5836,5.6180330000000005,8.746345,21.083504,-1
953,954,1583549079553,2.9801,-0.9421,20.1946,3.3828058,9.006422,17.948545000000003,-1
954,955,1583549079564,2.3890000000000002,-0.5764,17.3967,3.4704050000000004,9.383461,14.943879,-1
955,956,1583549079574,2.4593,-0.266,14.6373,3.252255,9.593059,13.065743,-1
956,957,1583549079584,2.2838,-0.0918,13.206099499999999,3.438361,9.799831,12.374967999999999,-1
957,958,1583549079594,2.5993,0.1811,12.7982,3.6740272000000003,10.111489,12.160917,-1
958,959,1583549079604,2.4369,0.41489998,12.401999,3.0916805,10.153033,11.695541,-1
959,960,1583549079616,1.4022,0.23629999,11.5844,1.5346642,9.754858,10.517306,-1
960,961,1583549079626,-0.0686,-0.099599995,10.4453,0.13050315,9.544083,9.139674000000001,-1
961,962,1583549079636,-1.1731,-0.2686,8.9552,-0.5086434,9.458323,7.914905,-1
962,963,1583549079646,-1.6258999,-0.2601,7.5888995999999995,-0.8361606,9.547281,5.915364,-1
963,964,1583549079656,-1.6843,-0.21139999,6.0885997000000005,-0.65217096,9.506149,4.302533599999999,-1
964,965,1583549079667,-1.5043,-0.2796,4.539,-0.63422406,9.456714,2.9371970000000003,-1
965,966,1583549079677,-1.4661,-0.30859998,3.2366998,-0.5077335,9.608496,1.8014357,-1
966,967,1583549079688,-1.2949,-0.1025,2.1869,-0.07318596,9.882747,0.9597972,-1
967,968,1583549079698,-0.8315,0.1716,1.3988999,0.34216973,10.053512,0.7028514,-1
968,969,1583549079708,-0.5123,0.28779998,1.2545998999999999,0.10081505,9.924187,1.2453583000000001,-1
969,970,1583549079718,-0.7456,0.1576,1.7633,-0.08448659,9.6191845,1.8041650000000002,-1
970,971,1583549079729,-0.92569995,-0.21849999,2.4278,-0.34760934,9.368703,2.4805558,-1
971,972,1583549079738,-1.1446999,-0.3985,2.9120998,-0.39303216,9.297385,2.4805558,-1
972,973,1583549079748,-1.1697999,-0.4799,2.8415,-0.40413168,9.267619,2.266294,-1
973,974,1583549079758,-1.1683999,-0.51159996,2.5800998,-0.48923117,9.476346000000001,2.198327,-1
974,975,1583549079768,-1.249,-0.3075,2.5166,-0.4018428,9.7256975,2.354707,-1
975,976,1583549079778,-1.1567,-0.0539,2.6402,-0.10427227,9.895102,2.5959373,-1
976,977,1583549079789,-0.8506,0.1118,2.8583,0.17325401,10.096014,2.0345736,-1
977,978,1583549079799,-0.5923,0.3171,2.2870998,0.26850495,10.0238905,0.8468100000000001,d
978,979,1583549079810,-1.0716,-0.0565,0.35459998,-0.5154141999999999,9.671656,0.007728483,-1
979,980,1583549079820,-1.6373,-0.25329998,0.22549999,-0.9298122,9.541651,-0.060592457999999995,-1
980,981,1583549079830,-1.2824,-0.1457,0.3897,-0.41818085,9.694659,0.19905393,-1
981,982,1583549079840,-0.5778,0.1391,0.9554,0.31041303,9.989931,0.8157524,-1
982,983,1583549079850,-0.5778,0.1391,0.9554,1.0979809999999999,10.338125,1.1353782,-1
983,984,1583549079861,1.4006,1.0533999,1.6069,2.338139,10.892239,1.4139771,-1
984,985,1583549079871,2.0225,1.2995,1.7392,2.922918,11.115072,1.5515767,-1
985,986,1583549079881,2.0386,1.3485,1.8998,2.7592695,11.107439,1.769928,-1
986,987,1583549079891,1.6068,1.1805999,2.1824,2.3041701,10.922262,2.0762613,-1
987,988,1583549079901,1.2120999,1.0905,2.6343,1.9284816000000002,10.870096,2.6404502,-1
988,989,1583549079911,1.0848,1.1374999,3.3753998,1.8256553,10.953942,3.4176176,-1
989,990,1583549079922,0.9971,1.3414999,3.9308998999999996,1.62822,11.230798,4.0002894,-1
990,991,1583549079931,0.7722,1.6046,4.2177,1.4549564,11.460411,4.229337999999999,-1
991,992,1583549079941,0.6749,1.9267,4.3665,1.3469396,11.803806,4.297238,-1
992,993,1583549079952,0.51,2.0625,4.0173,1.1022426,11.846175,3.7657537000000003,-1
993,994,1583549079962,0.2785,2.0413,3.2477999,0.8869559000000001,11.889165,2.889993,-1
994,995,1583549079972,0.1753,2.1966999,2.4912,0.8126111999999999,12.058368,2.1638987000000003,-1
995,996,1583549079982,0.3071,2.4012,1.8781999,0.9647292,12.239773,1.7760955000000003,-1
996,997,1583549079992,0.5189,2.5565999,1.7311,1.1259834999999998,12.368158,1.667705,-1
997,998,1583549080003,0.5887,2.5744998,1.6638,1.1417278,12.387916,1.5345683,-1
998,999,1583549080013,0.5877,2.5235,1.3903999,1.0773237,12.263761500000001,1.1576252,-1
999,1000,1583549080023,0.4786,2.2958,0.8499,0.8422514000000001,11.93951,0.41720402,-1
1000,1001,1583549080033,0.1629,1.8526,0.0234,0.38107070000000004,11.477363,-0.50248545,-1
1001,1002,1583549080043,-0.196,1.459,-0.8224,0.09439858,11.193267,-1.3677787000000001,-1
1002,1003,1583549080053,-0.024999999,1.3112,-1.6294999,0.54915327,11.052736,-2.3979175,-1
1003,1004,1583549080063,0.49609998,1.2327,-2.3755,0.83487725,11.022991000000001,-2.941631,-1
1004,1005,1583549080073,0.49609998,1.2327,-2.3755,0.91966075,10.985756,-3.1334736,-1
1005,1006,1583549080083,0.81119996,1.1543,-2.8392,1.1727662,10.751086,-3.1937692,-1
1006,1007,1583549080093,1.2149,0.5663,-2.5921,1.1662443999999998,10.114564,-2.9326482000000005,-1
1007,1008,1583549080104,1.0507,0.086399995,-2.5386999,0.82067484,9.644965,-3.0735037,-1
1008,1009,1583549080114,0.82049996,-0.2555,-2.7510998,0.6913401,9.503583,-3.2729406,-1
1009,1010,1583549080124,0.9817,-0.3715,-3.0144,0.9060521,9.360764,-3.5131845,-1
1010,1011,1583549080134,1.183,-0.5262,-3.1022,0.77981067,9.050082000000002,-3.552986,-1
1011,1012,1583549080144,0.94769996,-0.89599997,-3.1415,0.37055540000000003,8.617058,-3.6946456,-1
1012,1013,1583549080154,0.6083,-1.3532,-3.2903,-0.16698120000000002,8.1845875,-3.8015327000000005,-1
1013,1014,1583549080165,0.1611,-1.7020998999999999,-3.3557,-0.43827298,8.041243,-3.8184642999999996,-1
1014,1015,1583549080175,0.19049999,-1.8156999,-3.3044,-0.4300561,7.841978,-3.4643905,-1
1015,1016,1583549080185,0.2144,-2.0472999,-2.6592,-0.52340126,7.64573,-2.6240737000000003,-1
1016,1017,1583549080195,0.1356,-2.2302,-1.4089999,-0.6483114999999999,7.4360266,-1.0973297,-1
1017,1018,1583549080205,0.14989999,-2.3541,-0.3581,-0.7464929,7.4318800000000005,-0.30767408,-1
1018,1019,1583549080216,0.0415,-2.2717,0.11449999,-0.8784709,7.606609,-0.26983613,-1
1019,1020,1583549080226,0.046699997,-2.0513,-0.11109999599999999,-0.85206765,7.802981,-0.7069886,-1
1020,1021,1583549080236,0.0971,-1.9384999,-0.5769,-1.0498958,7.877642,-1.3607111,-1
1021,1022,1583549080246,-0.1004,-1.8743999,-1.1136999,-1.2341343999999999,7.944038000000001,-1.6140653999999999,-1
1022,1023,1583549080256,-0.2331,-1.7811999,-1.3297,-1.2807829,7.9240317,-1.7431991000000002,-1
1023,1024,1583549080267,-0.1565,-1.8359999999999999,-1.3982999,-1.1922358,7.9833217,-1.5986372,-1
1024,1025,1583549080277,-0.0773,-1.7250999,-1.1853,-1.1926572,8.12684,-1.1422065000000001,-1
1025,1026,1583549080287,-0.034199997999999995,-1.5662,-0.7287,-1.117508,8.326535,-0.5972288,-1
1026,1027,1583549080297,0.0525,-1.3687999,-0.19839999,-1.1059678999999998,8.470599,-0.24175692,-1
1027,1028,1583549080307,0.1068,-1.1812999,0.12889999,-1.0895534,8.738808,-0.032379184,-1
1028,1029,1583549080317,0.1007,-0.98399997,0.2094,-1.1223155,8.862702,-0.058590904000000006,-1
1029,1030,1583549080327,0.0845,-0.8551,0.1612,-1.0951749,9.046856,-0.1314704,-1
1030,1031,1583549080337,0.11669999,-0.62799996,0.0902,-1.2226422,9.409538000000001,-0.23249614,-1
1031,1032,1583549080347,0.0018,-0.28309998,-0.0637,-1.2617922,9.564358,-0.5226159,-1
1032,1033,1583549080357,-0.014599998999999999,-0.1539,-0.3612,-1.3762447,9.688597,-0.94662905,-1
1033,1034,1583549080367,-0.1593,-0.0050999997,-0.7963,-1.4657016,9.900789999999999,-1.35055,d
1034,1035,1583549080377,-0.1784,0.2022,-1.1567,-1.2882338,9.99041,-1.445552,-1
1035,1036,1583549080387,0.044499997,0.28149998,-1.1609,-1.2525505,10.244396,-1.0928478000000001,-1
1036,1037,1583549080398,0.0121,0.5862,-0.75839996,-1.3421991000000002,10.465084,-0.6383708,-1
1037,1038,1583549080408,-0.0569,0.7441,-0.35529998,-1.4613729,10.506485000000001,-0.56777054,-1
1038,1039,1583549080418,-0.1523,0.7849,-0.34989998,-1.5821268999999998,10.575754,-0.8143925,-1
1039,1040,1583549080428,-0.2839,0.8556,-0.6854,-1.6012899999999999,10.523857000000001,-1.2665518999999998,-1
1040,1041,1583549080438,-0.2481,0.77919996,-1.1122,-1.2839433999999998,10.504091,-1.3125875,-1
1041,1042,1583549080449,0.0716,0.7811,-1.1175,-1.0408552,10.443996,-0.82180494,-1
1042,1043,1583549080459,0.3335,0.7241,-0.65529996,-1.0145764000000002,10.17303,0.12498691,-1
1043,1044,1583549080469,0.3848,0.4619,0.23719999,-1.1413733999999998,9.857973,1.1159757,-1
1044,1045,1583549080479,0.2766,0.14199999,1.1845,-1.4615357,9.544657,2.115009,-1
1045,1046,1583549080489,-0.07809999599999999,-0.24489999,2.4097,-2.1178439,8.777153,3.4834774,-1
1046,1047,1583549080499,-0.6109,-0.9244,3.4789999,-3.0147692999999998,7.897399000000001,3.6263824000000002,-1
1047,1048,1583549080510,-1.4509999999999998,-1.7988,3.6143,-3.9651427000000004,7.0966244000000005,2.8516858,-1
1048,1049,1583549080520,-2.3595,-2.5846,2.8399,-4.5725994000000005,5.76994,2.8715386,-1
1049,1050,1583549080530,-2.9127,-3.9106998,2.843,-5.121743,4.723157,4.321112599999999,-1
1050,1051,1583549080540,-3.7184,-6.6085997,8.6209,-5.4297047,2.722006,9.5528555,-1
1051,1052,1583549080550,-3.7045999,-8.3426,12.3165,-5.487769,1.0011497999999999,13.137196,-1
1052,1053,1583549080560,-4.6193,-10.0582,14.6903,-6.5931334,-0.7857195,15.150785999999998,-1
1053,1054,1583549080571,-5.4948997,-11.854899000000001,15.035898999999999,-7.2738433,-2.5466740000000003,15.234860999999999,-1
1054,1055,1583549080581,-5.9940996,-13.4802,14.8287,-7.7615614,-4.0946693,15.082054000000001,-1
1055,1056,1583549080591,-6.5881996,-14.8663,15.7053995,-8.222762,-5.484963,16.202568,-1
1056,1057,1583549080601,-6.7469997,-16.4449,17.7131,-8.117886,-7.070403,18.200865,-1
1057,1058,1583549080611,-6.0552998,-17.7542,18.971698999999997,-7.010941000000001,-8.208453,19.018906,-1
1058,1059,1583549080621,-4.151799700000001,-18.4088,17.933199,-4.710889,-8.768198,17.439595999999998,-1
1059,1060,1583549080632,-4.151799700000001,-18.4088,17.933199,-2.948469,-9.186944,15.332467999999999,-1
1060,1061,1583549080642,-0.74039996,-19.507599,13.0123,-0.56936985,-9.95445,11.595703,-1
1061,1062,1583549080652,0.64779997,-19.961199,10.4443,1.3379087,-10.25653,8.713783,-1
1062,1063,1583549080663,2.1685,-20.0247,7.5705,2.8487456,-10.235327,6.269466400000001,-1
1063,1064,1583549080673,3.8307,-19.6745,4.9245996,5.765525,-9.669463,3.1210240000000002,-1
1064,1065,1583549080684,6.4683,-18.7204,2.9608998,9.530014999999999,-8.379992999999999,1.183789,-1
1065,1066,1583549080694,8.5731,-17.6784,1.8942,11.272993,-7.733606299999999,0.19253212,-1
1066,1067,1583549080704,10.117,-16.8009,0.1069,13.459694,-7.13904,-2.7247833999999997,-1
1067,1068,1583549080714,11.300799000000001,-16.283499,-2.9452,14.636080999999999,-6.793873,-5.3934755,-1
1068,1069,1583549080725,12.722199,-15.1366,-7.1403,17.226654,-5.3817058,-10.106902,-1
1069,1070,1583549080734,15.4179,-12.912399,-11.251699,21.658628,-2.0564373,-15.027513500000001,-1
1070,1071,1583549080744,18.7466,-9.2439995,-15.2641,24.444466000000002,0.87973505,-17.640976000000002,-1
1071,1072,1583549080754,21.043499,-5.7974,-17.7111,26.892384000000003,3.9696248,-19.229942,-1
1072,1073,1583549080765,21.6441,-3.6021998,-18.3196,26.425053000000002,5.0179977,-18.828634,-1
1073,1074,1583549080775,19.980299,-2.9815998,-18.0884,24.49955,4.6033893,-18.576036,-1
1074,1075,1583549080786,17.4632,-3.2791,-17.768798999999998,22.455103,5.171466400000001,-17.045807,-1
1075,1076,1583549080796,16.1703,-1.7852999,-16.7829,24.353292,8.032067999999999,-16.890068,-1
1076,1077,1583549080806,18.344799,1.4926,-17.1028,27.391459,10.559569,-16.76622,-1
1077,1078,1583549080816,21.8962,4.9932,-17.0301,30.130915,13.072035000000001,-16.298786,-1
1078,1079,1583549080826,24.1406,8.0905,-17.2164,31.998822999999998,15.833153,-17.159637,-1
1079,1080,1583549080836,24.540998000000002,9.9703,-18.8569,31.086890000000004,16.658307999999998,-18.817852,-1
1080,1081,1583549080847,23.048199,10.697000000000001,-20.157299,29.123587,17.299046,-19.133827,-1
1081,1082,1583549080857,21.0928,11.5814,-20.458399,27.904373,18.024720000000002,-17.99801,-1
1082,1083,1583549080867,19.788598999999998,12.4435,-18.9564,26.525955,18.548932999999998,-14.5279875,-1
1083,1084,1583549080877,18.3352,13.042,-15.2556,25.521692,18.648789999999998,-10.521224,-1
1084,1085,1583549080887,17.108,13.1307,-9.8603,24.791098,18.196413,-2.9646156,-1
1085,1086,1583549080898,16.7595,12.7369995,-3.372,24.823235999999998,17.779583,3.5704059999999997,-1
1086,1087,1583549080909,16.6224,12.544,3.0958,25.061020000000003,18.170479,10.47131,-1
1087,1088,1583549080919,16.8895,12.9774,8.8018,26.14903,18.873817000000003,15.864554,-1
1088,1089,1583549080929,17.957698999999998,13.689898999999999,14.296498999999999,26.0291,19.045357,21.658169,-1
1089,1090,1583549080939,17.8266,13.832,20.2316,25.208397,18.126654000000002,27.684126000000003,-1
1090,1091,1583549080949,17.0423,12.8189,26.4305,21.769001,16.488972,32.719772,-1
1091,1092,1583549080960,14.3552,11.3582,31.1325,18.932447,14.961768,33.528209999999994,-1
1092,1093,1583549080970,10.9338,9.3249,32.6489,15.739578,12.836273,32.42953,-1
1093,1094,1583549080980,7.8890996,6.9818997000000005,31.694399,12.832892,10.401849,30.255278000000004,-1
1094,1095,1583549080990,2.2296,1.4484999,27.1433,9.172732,7.282079700000001,27.193465999999997,-1
1095,1096,1583549081001,0.20439999,-1.1139,24.6603,7.123746000000001,5.0423613,24.63145,-1
1096,1097,1583549081011,-1.2009999999999998,-3.3694,22.135899,5.5473175,3.0605464,21.942235999999998,-1
1097,1098,1583549081021,-2.4801,-5.5773997,19.41,4.045971,1.0598556000000001,19.108593,-1
1098,1099,1583549081031,-3.7663998999999997,-7.6821,16.9327,2.5606947,-0.72707117,16.495464000000002,-1
1099,1100,1583549081041,-4.6377,-9.1463995,14.4775,1.5677329,-1.9079488999999998,13.864085000000001,-1
1100,1101,1583549081051,-4.8795,-10.1314,11.8681,1.3373723,-2.5627632,11.182089999999999,-1
1101,1102,1583549081062,-4.1563,-10.4499,9.660999,1.961148,-2.7010137999999997,8.975777,-1
1102,1103,1583549081072,-3.3789999999999996,-10.7052,7.8231997,2.6350777,-2.8608987,6.9031057,-1
1103,1104,1583549081082,-2.6885,-10.9921,5.6977,3.0796616,-3.0994666,4.5023823,-1
1104,1105,1583549081092,-2.4524,-11.285399,3.6285,3.0794987999999996,-3.2204502,2.649548,-1
1105,1106,1583549081102,-2.4726,-11.371099000000001,1.7163999,2.860027,-3.2264452,0.89240515,-1
1106,1107,1583549081113,-3.0433998,-11.4359,-0.2269,1.8713943,-3.1704977000000003,-1.5397016000000001,-1
1107,1108,1583549081123,-3.9531,-11.3118,-2.0808,0.95751786,-2.9150555000000002,-3.3960122999999998,-1
1108,1109,1583549081133,-4.4739,-10.9277,-3.7354998999999998,0.6694571,-2.2675099999999997,-5.0507503,-1
1109,1110,1583549081143,-4.171,-9.859799,-5.4465,1.6205298000000001,-0.6329599,-7.501426700000001,-1
1110,1111,1583549081154,-2.8887,-8.3633995,-7.7542,2.8529785,0.568144,-9.330366999999999,-1
1111,1112,1583549081164,-1.2847998999999999,-6.8554997,-9.6023,4.4892144,2.1035744999999997,-10.77068,-1
1112,1113,1583549081174,-0.040599998,-5.4325,-10.3234,5.2233529999999995,3.4876814,-10.601544,-1
1113,1114,1583549081184,-0.093899995,-4.5631,-9.5293,4.6129370000000005,4.117624299999999,-9.3651495,-1
1114,1115,1583549081194,-0.87409997,-4.0029,-8.2357,4.0727477,4.5409102,-8.367505,-1
1115,1116,1583549081205,-1.3001,-3.3941998,-7.0372996,4.090599,5.4866867,-7.008949,-1
1116,1117,1583549081215,-0.726,-2.4266999,-6.3085,5.158183,6.47849,-7.0715046,-1
1117,1118,1583549081225,0.45069999,-1.4505,-6.9512997,6.169944,7.2053213000000005,-7.858306,-1
1118,1119,1583549081235,1.7242998999999999,-0.5466,-7.8149,7.9225574000000005,8.327216,-8.043991,-1
1119,1120,1583549081245,3.2779998999999997,0.41889998,-7.281399700000001,9.31672,9.0597925,-6.4342445999999995,-1
1120,1121,1583549081256,4.2995,1.0185,-5.250099700000001,9.7961445,9.454798,-4.202637999999999,-1
1121,1122,1583549081266,4.2511,1.2844,-3.5028,8.95532,9.617776,-3.0682845000000003,-1
1122,1123,1583549081276,3.3792,1.401,-2.9810000000000003,7.9648867,9.53553,-3.2429652,-1
1123,1124,1583549081286,2.0499,1.1856999,-3.3299,6.442777599999999,9.148389,-3.416382,-1
1124,1125,1583549081296,0.9399,0.821,-3.2633,5.7965636,8.888129,-2.4362345000000003,-1
1125,1126,1583549081307,0.42249998,0.6268,-2.1390000000000002,5.738748,8.895311,-1.2981361,-1
1126,1127,1583549081317,0.5237,0.6446,-0.9188,6.0862904,8.8965845,-0.50961065,-1
1127,1128,1583549081327,0.8244,0.6471,-0.5920000000000001,6.2472095,8.969484,-0.80940294,-1
1128,1129,1583549081337,0.9267,0.73929995,-1.0481,6.244844400000001,8.965978999999999,-1.4424586000000001,-1
1129,1130,1583549081348,0.93109995,0.71349996,-1.6613,6.3468084000000005,8.963442,-1.6456976000000003,-1
1130,1131,1583549081358,1.0146998999999999,0.71639997,-1.7548,6.088541,8.763554,-1.234776,-1
1131,1132,1583549081369,0.7568,0.5221,-1.3492,5.842551,8.607012,-0.5297794,-1
1132,1133,1583549081379,0.5096,0.3568,-0.6471,5.6129184,8.502442,0.047366887,d
1133,1134,1583549081389,0.2807,0.261,-0.1052,5.680464,8.474381,0.8731558,-1
1134,1135,1583549081399,0.34379998,0.23529999,0.72349995,5.841718,8.636556,1.3183143999999998,-1
1135,1136,1583549081410,0.4829,0.3974,1.1636,6.0347195,8.767299000000001,1.1676713,-1
1136,1137,1583549081419,0.61219996,0.5202,1.0684999,6.342815,8.819875,1.0210695,-1
1137,1138,1583549081429,0.9774,0.5936,0.87869996,6.9336842999999995,9.006345,0.75629,-1
1138,1139,1583549081440,1.5704,0.78319997,0.62439996,7.175843700000001,9.178948,0.48995900000000003,-1
1139,1140,1583549081450,1.4122,1.2677,0.1812,6.592194999999999,9.576069,0.25893772,-1
1140,1141,1583549081460,1.4122,1.2677,0.1812,6.038511799999999,9.888944,0.21964405,-1
1141,1142,1583549081470,0.43469998,1.8745999,0.3777,5.6978936,10.1785755,0.6339846,-1
1142,1143,1583549081481,0.22639999,2.3739,1.0584999,5.533431,10.768545,1.3890392,-1
1143,1144,1583549081491,0.4177,3.0612,2.0832999,5.8113790000000005,11.442273,2.5592770000000002,-1
1144,1145,1583549081501,1.1661999,3.6513998999999995,3.3507,6.6345053,12.055819999999999,3.7095665999999996,-1
1145,1146,1583549081511,2.1615999,4.3382998,3.6072,7.6188674,12.775478999999999,3.6886987999999996,-1
1146,1147,1583549081521,3.1055999,5.0885997000000005,2.5757,8.5165205,13.534757999999998,2.4765527,-1
1147,1148,1583549081531,3.7285998,5.6739999999999995,1.1392,8.964552000000001,14.099626,0.99955046,-1
1148,1149,1583549081542,3.6613998,6.1225,0.1837,8.757923,14.566783,0.2293741,-1
1149,1150,1583549081552,3.3139,6.5536,0.64809996,8.333229,15.062364,0.9305113000000002,-1
1150,1151,1583549081562,3.3139,6.5536,0.64809996,8.187567,15.413047,1.8990330000000002,-1
1151,1152,1583549081572,3.3372998,7.1934,2.3734,8.315782,15.713356,2.3769922,-1
1152,1153,1583549081582,3.6495998,7.1282997,2.3049,8.58125,15.596816,2.194985,-1
1153,1154,1583549081593,3.9160000000000004,6.7929997,2.0233998,8.666368499999999,15.259426000000001,1.6965313999999998,-1
1154,1155,1583549081604,4.0390997,6.3252997,1.4458,8.625705,14.780154000000001,1.0376087,-1
1155,1156,1583549081614,3.9989998,5.6965,0.94869995,8.155128999999999,14.058446,0.6450554000000001,-1
1156,1157,1583549081624,3.5021,4.956,0.89019996,7.3830285,13.350299,0.6454959,-1
1157,1158,1583549081634,2.9297,4.2522,1.0265,6.547107,12.876992999999999,0.9836339,-1
1158,1159,1583549081644,2.2014,3.6655998,1.6587,5.814453,12.103064,1.7647756,-1
1159,1160,1583549081655,1.8651999,2.6685,2.398,5.5396943,11.297376,1.8918694999999999,-1
1160,1161,1583549081665,1.6048,1.5674,2.1148,4.8631405999999995,10.070453,0.9224093000000001,-1
1161,1162,1583549081675,1.2026,0.46179998,1.1356,4.155482,8.979913,-0.36145744,-1
1162,1163,1583549081685,0.5471,-0.6468,-0.021499999,3.1240215,8.121141,-1.611499,-1
1163,1164,1583549081695,-0.3168,-1.4052,-1.0060999,2.214196,7.5768437,-2.7315924,-1
1164,1165,1583549081706,-0.7177,-1.8722999,-1.828,1.5961186,6.851707000000001,-3.7252339999999995,-1
1165,1166,1583549081716,-1.2245,-2.6868,-2.6359,0.80074555,6.221573,-3.92357,-1
1166,1167,1583549081726,-1.8253,-3.3012,-2.5195,0.31342018,5.473308,-3.0815485000000002,-1
1167,1168,1583549081736,-2.0606,-4.128,-1.4196999,0.1896878,4.856418,-1.8118743999999998,-1
1168,1169,1583549081746,-1.9611,-4.8329997,0.2683,0.15823758,4.385804,-0.29868147,-1
1169,1170,1583549081756,-1.91,-5.1998,1.3181,-0.23082978,3.9290763999999996,0.15782577,-1
1170,1171,1583549081768,-2.1604,-5.6787996,1.7479999,-0.40638223,3.3813023999999996,-0.24113442,-1
1171,1172,1583549081778,-2.126,-6.1421,1.393,-0.15688725,3.2083068,-1.2401677,-1
1172,1173,1583549081788,-1.6538999,-6.3148,0.18259999,0.30531818,3.1769428,-2.4895099999999997,-1
1173,1174,1583549081799,-1.2055,-6.3564997000000005,-0.6788,0.31472259999999996,2.9491009999999998,-2.6739017999999994,-1
1174,1175,1583549081809,-1.1309,-6.6436,-0.7944,-0.42156145,2.5992796,-2.2525895,-1
1175,1176,1583549081819,-1.7322999,-6.942199700000001,-0.35279998,-1.6766595000000002,2.3035285,-1.0087633,-1
1176,1177,1583549081829,-2.8627,-7.2434997999999995,0.9393,-2.2598581,2.4993932,0.17308164,-1
1177,1178,1583549081839,-3.4013,-7.0576,2.1282,-2.0292392,3.1277373,0.23602998,-1
1178,1179,1583549081849,-3.1353,-6.4146,2.2368999,-1.1550683000000002,4.043979,-1.1721342,-1
1179,1180,1583549081860,-1.3314999,-4.8792,-0.3355,-0.042626366,4.778932,-2.8666735,-1
1180,1181,1583549081870,-1.3314999,-4.8792,-0.3355,0.62633276,5.196002,-3.7333841,-1
1181,1182,1583549081880,-0.26659998,-4.1752,-1.6944,1.5253077,5.868907,-4.259352,-1
1182,1183,1583549081890,0.4349,-3.4004998,-1.0568,1.5052538,6.1186223,-3.039257,-1
1183,1184,1583549081901,0.156,-3.1216998,0.7417,1.2910972,6.4157805,-1.1582763999999999,-1
1184,1185,1583549081911,0.17729999,-2.8418,1.9882,1.3890105,6.713992599999999,-0.17790835,-1
1185,1186,1583549081921,0.3931,-2.4965,1.7958,1.6232208000000001,7.091367,-0.6095733,-1
1186,1187,1583549081931,0.9108,-1.9085,0.7852,2.2654033,7.712327,-1.7739599,-1
1187,1188,1583549081941,1.5795,-1.3658,-0.53249997,2.7654562,8.1531,-3.0532775,-1
1188,1189,1583549081951,1.3765,-1.1298,-1.0676,2.4335337000000004,8.370561,-3.4240627,-1
1189,1190,1583549081961,0.8369,-0.9691,-0.6699,1.8832121,8.521472,-2.7479975,-1
1190,1191,1583549081972,0.5859,-0.863,0.23189999,1.7188549,8.636153,-1.762075,-1
1191,1192,1583549081982,0.47779998,-0.7303,1.1108,1.6417903000000003,8.824031,-0.9728312,-1
1192,1193,1583549081992,0.4279,-0.5872,1.5698,1.5985988000000002,8.952399,-0.75580156,-1
1193,1194,1583549082002,0.2529,-0.3724,1.5026,1.405722,9.143504,-0.8933533000000001,-1
1194,1195,1583549082013,0.0047,-0.1245,0.90419996,1.0823611000000002,9.376489,-1.8209914,-1
1195,1196,1583549082023,-0.31669998,-0.0404,-0.0033999997999999997,0.8368979999999999,9.421835,-2.4925268,-1
1196,1197,1583549082034,-0.6847,-0.0733,-0.3877,0.3927736,9.3341875,-2.8654572999999997,d
1197,1198,1583549082044,-0.9472,-0.0778,-0.72819996,0.27800512,9.519585000000001,-3.4558578,-1
1198,1199,1583549082054,-0.8552,0.21,-1.2275,0.58459705,9.808297999999999,-3.8353483999999995,-1
1199,1200,1583549082064,-0.4186,0.4664,-1.494,1.1828698,10.138084,-4.087189700000001,-1
1200,1201,1583549082074,0.162,0.8587,-1.8852999,1.6684617,10.373109,-4.643468,-1
1201,1202,1583549082084,0.56909996,0.8682,-2.4335,1.9534770000000001,10.239589,-4.9470339999999995,-1
1202,1203,1583549082094,0.8268,0.6920000000000001,-2.7201,2.1079798,9.905464,-5.712498,-1
1203,1204,1583549082104,0.89589995,0.34199998,-4.0317,2.5096787999999997,9.72904,-7.7933087,-1
1204,1205,1583549082114,1.6308999,0.2111,-6.3412,3.4666986000000004,9.408408,-10.283269,-1
1205,1206,1583549082124,2.4201,-0.12529999,-8.7497,3.7824843,9.203187,-12.497532000000001,-1
1206,1207,1583549082135,2.5788999,-0.3479,-10.6353,4.032123,8.847743,-13.367834,-1
1207,1208,1583549082145,3.1081,-1.0288,-10.656899000000001,4.8018203,8.072252,-12.443413,-1
1208,1209,1583549082155,3.9875,-1.4609,-9.7043,6.397632,7.9818854,-11.935450999999999,-1
1209,1210,1583549082165,5.933799700000001,-1.3931999,-9.6964,8.293084,8.237519,-12.440062,-1
1210,1211,1583549082175,7.4438996,-1.0971,-10.5583,9.231658,8.40179,-13.818786,-1
1211,1212,1583549082185,8.0799,-1.064,-12.2748995,9.223346000000001,8.333403,-15.660119,-1
1212,1213,1583549082196,7.6407,-1.2566998999999999,-14.0686,8.282176,7.8042929999999995,-17.331884,-1
1213,1214,1583549082206,6.8589997,-1.8159,-15.2393,7.3495,7.0790224,-17.909712,-1
1214,1215,1583549082216,6.0081997000000005,-2.5479,-15.7554,6.719729400000001,6.5650353,-18.003525,-1
1215,1216,1583549082226,5.2556996,-3.2173,-15.604099,5.791373,5.780149,-16.61961,-1
1216,1217,1583549082237,4.7265997,-3.8228,-14.1557,6.150091000000001,5.477062,-14.795506,-1
1217,1218,1583549082247,5.2788997,-4.1945,-12.5188,6.788844999999999,4.9797,-13.528313,-1
1218,1219,1583549082257,5.9634,-4.683,-11.447599,7.3939266,4.6899055999999995,-12.549610000000001,-1
1219,1220,1583549082267,6.6053996,-5.0042,-10.6488,7.957598700000001,4.4356227,-11.707589,-1
1220,1221,1583549082277,7.3728,-5.2274,-9.382299,8.462488,4.545057,-8.594944,-1
1221,1222,1583549082288,7.6011996,-5.0983996,-6.429199700000001,7.871436,4.624688,-4.6837482,-1
1222,1223,1583549082298,6.91,-5.1063,-2.6009998,6.339923000000001,4.341176,0.5075516,-1
1223,1224,1583549082308,5.6087,-5.3862,1.5618,5.1056447,4.0050206,4.688,-1
1224,1225,1583549082319,4.4077997,-5.7402,5.5710998,4.7319484,3.702978,7.0971894,-1
1225,1226,1583549082329,4.035599700000001,-6.1082,8.3699,4.963209,3.8262885000000004,10.694286,-1
1226,1227,1583549082339,4.2815,-5.951699700000001,11.2585,5.814501,4.332145,14.065945000000001,-1
1227,1228,1583549082349,5.1133,-5.4481997,14.476299,6.2529078,4.770926,17.096401,-1
1228,1229,1583549082359,5.5448,-4.892299700000001,18.0627,6.442586,5.404163400000001,21.271829999999998,-1
1229,1230,1583549082370,5.6558,-4.3817997,21.340899,6.5012155,5.7693653,24.108118,-1
1230,1231,1583549082380,5.6702,-4.0153,24.025599,5.259046,5.8617053,25.504482,-1
1231,1232,1583549082390,1.9743998999999999,-4.1819,25.5205,2.3478402999999997,5.550478,25.866888,-1
1232,1233,1583549082400,-0.61289996,-4.4514,25.3119,-0.16904022,5.221754,25.634565,-1
1233,1234,1583549082410,-2.77,-5.0643,24.605598,-2.261285,4.544511,24.926676,-1
1234,1235,1583549082420,-4.491699700000001,-5.9914,23.6619,-3.8176693999999998,3.572235,23.992027,-1
1235,1236,1583549082431,-4.491699700000001,-5.9914,23.6619,-4.793335400000001,2.6226467999999996,22.485395,-1
1236,1237,1583549082441,-5.7846,-7.8866997,20.122099,-4.6578235999999995,1.6753186999999998,20.020687,-1
1237,1238,1583549082452,-5.0478997,-8.578899,16.6143,-3.5818982000000004,0.9893991,15.319595999999999,-1
1238,1239,1583549082462,-4.1505,-9.0925,12.527699,-2.6684432,0.34438196,11.680083999999999,-1
1239,1240,1583549082472,-3.9545,-9.9748,10.7038,-2.8469355,-0.49087837,11.015128,-1
1240,1241,1583549082482,-5.5063,-11.4219,12.0026,-4.5490694000000005,-2.0997627,12.60689,-1
1241,1242,1583549082492,-7.7274,-13.4241,13.8144,-6.597644,-4.1396227,14.278387,-1
1242,1243,1583549082503,-8.9313,-14.9207,14.571898999999998,-7.2634525,-5.625023400000001,14.51457,-1
1243,1244,1583549082513,-8.689899,-15.663098999999999,13.303498999999999,-6.289146400000001,-6.097371,12.396898,-1
1244,1245,1583549082524,-7.1275997,-15.382999,10.2248,-3.4222527,-5.219771400000001,7.987660000000001,-1
1245,1246,1583549082533,-4.5579,-14.3812,6.365999700000001,-1.0794306999999999,-4.516508,5.197103,-1
1246,1247,1583549082543,-2.1692,-13.371699,3.5693998,1.0250535,-3.6519141000000004,3.3456192000000002,-1
1247,1248,1583549082553,-1.4203,-12.932799000000001,3.6589,1.7763253,-3.8109848,4.8675175,-1
1248,1249,1583549082563,-0.9733,-13.5822,6.6176996,2.7895706000000002,-4.6390533,8.254652,-1
1249,1250,1583549082573,-0.0972,-14.030299,9.254399000000001,3.8806274,-5.0918730000000005,10.128699000000001,-1
1250,1251,1583549082583,0.7464,-14.274099,10.0359,5.4179444000000005,-5.339242,10.609876,-1
1251,1252,1583549082593,3.4178998,-13.0336,8.9539995,9.959083999999999,-2.989697,8.033083,-1
1252,1253,1583549082604,8.8652,-8.9475,4.2729,16.462387,1.2579806,2.7732037999999997,-1
1253,1254,1583549082614,14.876598999999999,-4.5017,-0.8293,22.085121,5.2961655,-1.439643,-1
1254,1255,1583549082624,18.1744,-0.43129998,-3.7953,24.80958,9.009466999999999,-3.5803277000000002,-1
1255,1256,1583549082634,18.9058,1.902,-4.848799700000001,24.918898000000002,9.828045,-3.7234912000000002,-1
1256,1257,1583549082644,18.215398999999998,2.6375,-4.896,24.128546,9.798424,-3.5176857000000004,-1
1257,1258,1583549082654,17.0453,2.4226,-4.8824997,22.905031,9.053377000000001,-3.0347562000000003,-1
1258,1259,1583549082664,15.474998999999999,2.1931,-4.2255,22.02946,9.309182,-2.3239748,-1
1259,1260,1583549082675,15.141399,3.9694,-4.3545,23.59055,12.004949,-3.596972,-1
1260,1261,1583549082685,17.5954,6.8314,-6.4831,26.908625,14.608557000000001,-5.505438,-1
1261,1262,1583549082695,20.4632,9.6696,-8.1613,28.713718,16.628035999999998,-5.940215,-1
1262,1263,1583549082705,20.926699,11.2674,-7.9296,27.344867999999998,16.746004,-4.4020753,-1
1263,1264,1583549082715,18.352299,10.8824,-6.2207,24.321623000000002,15.530669,-2.6380369999999997,-1
1264,1265,1583549082725,15.4851,9.7251,-5.0383,21.460293,13.879283,-2.2093979999999998,-1
1265,1266,1583549082736,13.1647,8.4824,-5.049299700000001,19.500381,12.812915,-2.2849112000000003,-1
1266,1267,1583549082747,11.267999999999999,7.5786,-5.133899700000001,18.44515,12.186448,-2.3706810000000003,-1
1267,1268,1583549082757,10.164599,6.941,-5.4424996,17.479185,11.513860000000001,-3.1523402000000003,-1
1268,1269,1583549082768,9.3524,6.5004,-6.1745996,16.741042999999998,11.050285,-3.1929936000000003,-1
1269,1270,1583549082779,8.5674,6.067199700000001,-5.9407997,15.274356,10.302164,-0.99394804,-1
1270,1271,1583549082789,7.2598,5.4761,-3.9864998,13.879819,9.493134,1.4423629,-1
1271,1272,1583549082799,5.8686,4.7241,-1.6337999,12.69873,8.700403999999999,3.3839645,-1
1272,1273,1583549082810,3.8530998,3.3869998,1.2616999,11.769455,7.983484700000001,4.4624085,-1
1273,1274,1583549082820,3.4606,3.2045999,0.8354,11.485339999999999,7.9029818,3.6684818,-1
1274,1275,1583549082830,3.4606,3.2045999,0.8354,11.62995,7.9957139999999995,2.0970526,-1
1275,1276,1583549082840,3.6076998999999996,3.3776998999999996,-2.6434999,11.562634,8.034538000000001,0.24243686,-1
1276,1277,1583549082850,2.7816,3.0263,-2.9431998999999998,10.602196000000001,7.619623700000001,0.20128532,-1
1277,1278,1583549082860,1.6389999,2.3286998,-2.0112,9.486297,6.926234,1.2755923999999998,-1
1278,1279,1583549082871,0.7743,1.6231999,-0.7281,8.676347999999999,6.2566333,2.5410526,-1
1279,1280,1583549082881,0.7743,1.6231999,-0.7281,8.309163,5.858793299999999,3.4478421000000004,-1
1280,1281,1583549082891,0.0067,0.5755,1.2613,7.959619,5.253932,4.3812739999999994,-1
1281,1282,1583549082901,-0.4438,0.0634,1.5962,7.480175999999999,4.7484875,4.6268806,-1
1282,1283,1583549082911,-0.82379997,-0.37199998,1.4775,7.1724442999999996,4.399595,4.4403057,-1
1283,1284,1583549082922,-0.8124,-0.4261,1.0591,7.217378599999999,4.4203763,3.9223727999999998,-1
1284,1285,1583549082932,-0.6168,-0.2847,0.6181,7.4518857,4.6051993,3.5447881000000003,-1
1285,1286,1583549082942,-0.0997,-0.0455,0.0753,8.102601,4.9167323,2.9734643,-1
1286,1287,1583549082952,0.299,0.20369999,-0.16219999,8.265503,5.123697,2.8769686,-1
1287,1288,1583549082962,0.1319,0.2464,0.0448,7.970536999999999,5.0847864000000005,3.2742624,-1
1288,1289,1583549082972,-0.1107,0.1519,0.51879996,7.8088136,5.0107,3.641782,d
1289,1290,1583549082983,-0.1954,0.029199999,0.6745,7.726644500000001,4.9376006,3.7321966,-1
1290,1291,1583549082993,-0.0955,0.0848,0.71419996,8.020000999999999,5.1654325,3.7883358,-1
1291,1292,1583549083003,0.4434,0.48459998,0.768,8.629957000000001,5.629199,3.846419,-1
1292,1293,1583549083013,1.1887,0.97099996,0.8138,9.212515,6.0109406,3.8743165,-1
1293,1294,1583549083024,1.4668,1.2756,0.7906,9.389292999999999,6.442471,3.7448473,-1
1294,1295,1583549083034,1.6618998999999999,1.6132,0.5779,9.790188,6.811992,3.5472782,-1
1295,1296,1583549083045,2.3513,2.0676,0.2883,10.455919,7.251979400000001,3.2899013,-1
1296,1297,1583549083055,2.8895,2.4648,0.24659999,11.000227,7.813439,3.6747549,-1
1297,1298,1583549083065,3.5619,3.0214,0.852,11.995486,8.588136,4.6952214,-1
1298,1299,1583549083075,4.6596,3.8421998,1.9707999,12.927549,9.369392,5.711233999999999,-1
1299,1300,1583549083085,5.3768,4.5722,2.5663,13.204070000000002,10.17215,5.621815,-1
1300,1301,1583549083096,5.5859,5.3195,1.9580000000000002,13.348689000000002,10.7947855,4.700344599999999,-1
1301,1302,1583549083106,6.0716,5.9782,0.55469996,14.111099,11.656611,3.0282152,-1
1302,1303,1583549083116,6.6710997,6.4968996,-0.5643,14.494373000000001,12.043983,2.4556656,-1
1303,1304,1583549083126,7.0367,6.6148,-0.7018,14.796387,12.11149,2.9524338,-1
1304,1305,1583549083136,7.404,6.569,-0.1241,14.951235,12.137176,3.3940587,-1
1305,1306,1583549083147,7.6249,6.4532,0.3267,14.981879999999999,11.922636,3.6001133999999997,-1
1306,1307,1583549083157,7.6590996,6.0562,0.4491,14.695657999999998,11.664483,3.6201,-1
1307,1308,1583549083167,7.4674997,5.6503997,0.4465,14.106522,11.23708,3.260941,-1
1308,1309,1583549083177,6.8946,4.990999700000001,0.0938,13.320955,10.727661,2.8579202,-1
1309,1310,1583549083187,5.9414,4.1610000000000005,-0.21249999,12.022264,9.957685000000001,2.7373674,-1
1310,1311,1583549083198,4.9912,3.3418998999999996,-0.0981,10.959113,9.404731,2.906015,-1
1311,1312,1583549083208,4.1417,2.6269,0.1366,10.286764999999999,8.875736,2.8455852999999998,-1
1312,1313,1583549083218,3.7043,1.8725,0.12889999,9.683569,8.165137,2.4979183999999997,-1
1313,1314,1583549083228,3.3834,1.089,-0.0778,9.270781,7.7884436,2.2766848,-1
1314,1315,1583549083238,2.8653998,0.22749999,-0.3254,8.489782,7.018535000000001,1.7914853,-1
1315,1316,1583549083248,2.4038,-0.5621,-0.6347,7.686738,6.2977557,1.396241,-1
1316,1317,1583549083259,1.9387,-1.3564,-0.8118,6.995483999999999,5.6707339999999995,1.385218,-1
1317,1318,1583549083269,1.4405999,-2.1547,-0.6915,6.136319599999999,5.097954799999999,1.4282848999999997,-1
1318,1319,1583549083279,0.7923,-2.9076998,-0.5094,5.193186799999999,4.5783076,1.633583,-1
1319,1320,1583549083289,0.0629,-3.5953,-0.1707,4.164149,4.1021104,1.9282613999999998,-1
1320,1321,1583549083300,-1.3339,-4.8424,0.3116,3.2029247000000005,3.5105699999999995,1.9292189999999998,-1
1321,1322,1583549083311,-1.8722999,-5.6425,0.6920000000000001,2.4714866,2.8647196,2.2097046000000002,-1
