,Seq,Time,ACCx,ACCy,ACCz,ADGx,ADGy,ADGz,Keydown
0,1,1583549310355,0.33949998,0.713,-0.3005,6.426794,4.034383,4.115068,-1
1,2,1583549310365,-0.96129996,-0.5129,-1.004,-0.12453679999999999,9.823256,1.0738761000000001,-1
2,3,1583549310376,0.0023999998999999998,0.0893,0.0087,0.41727105,9.894881,0.9349358,-1
3,4,1583549310385,0.055,0.1572,-0.0212,0.08821197,9.894374000000001,0.9461885,-1
4,5,1583549310395,-0.3665,0.0976,0.053,-0.26597667,9.855846000000001,1.1645013000000002,-1
5,6,1583549310405,-0.7209,0.0284,0.2349,-0.82733077,9.7548685,1.3275848999999997,-1
6,7,1583549310415,-0.9765,0.0187,0.38689998,-0.61818284,9.828237,1.3292511999999999,-1
7,8,1583549310425,-0.5221,0.0783,0.29209998,-0.2975131,9.860519,1.1887785,-1
8,9,1583549310436,-0.1515,0.1374,-0.0379,0.063743226,10.044969,0.5505802,-1
9,10,1583549310446,0.045399997000000004,0.3031,-0.5198,0.014326903,10.099442,0.27919266,-1
10,11,1583549310456,-0.0191,0.34109998,-0.67399997,-0.07018842,10.202833,0.5119378,-1
11,12,1583549310466,-0.0526,0.41759998,-0.3796,-0.28249663,10.132826,0.80461454,-1
12,13,1583549310476,-0.2988,0.36839998,0.07369999599999999,-0.30546182,10.147267999999999,1.4001005,-1
13,14,1583549310487,-0.2688,0.3504,0.4994,-0.44352108,10.054287,1.7518468999999997,-1
14,15,1583549310497,-0.3717,0.2943,0.79609996,-0.52383214,10.062714999999999,2.0047417000000003,-1
15,16,1583549310508,-0.39429998,0.29799998,1.0077,-0.31407140000000006,10.093207000000001,2.122527,-1
16,17,1583549310518,-0.1183,0.35099998,1.0706999,0.015351621000000001,10.229054,2.1314716000000002,-1
17,18,1583549310528,0.2087,0.5115,1.0490000000000002,0.26441565,10.390922,2.0786938999999998,-1
18,19,1583549310538,0.4337,0.6615,0.94549996,0.350061,10.495127,1.9726785,-1
19,20,1583549310548,0.49229997,0.7425,0.8365,-0.123521656,10.480646,1.8382488000000001,-1
20,21,1583549310559,-0.0185,0.7157,0.659,-0.4230267,10.317150999999999,1.8631773999999997,-1
21,22,1583549310569,-0.30769998,0.50409997,0.74649996,-0.755792,9.964553,2.3650403,-1
22,23,1583549310580,-0.5221,0.226,1.1320000000000001,-0.77096164,9.425349,2.9533818,-1
23,24,1583549310589,-0.5064,-0.3039,1.6543,-0.9775813,8.725419,4.2309375,-1
24,25,1583549310599,-0.6702,-0.98569995,2.833,-1.332967,8.054344,5.8430204,-1
25,26,1583549310610,-0.97209996,-1.6306,4.3162,-1.4424683,7.270587400000001,7.6529603,-1
26,27,1583549310620,-1.0203999,-2.3824,5.9479999999999995,-1.7508893,6.5155997,9.102333,-1
27,28,1583549310630,-2.1648,-4.0386,6.9743,-3.0019746,5.207839,9.143322,-1
28,29,1583549310640,-2.1648,-4.0386,6.9743,-3.8056028,4.031807,8.479448,-1
29,30,1583549310650,-3.9569,-6.6123,4.2485,-5.0651535999999995,2.3854964,7.1969414,-1
30,31,1583549310661,-4.2043,-7.986799700000001,3.8140998,-5.249488400000001,0.955976,6.9515166,-1
31,32,1583549310671,-4.1626997,-9.724,4.15,-5.3291674,-0.90328443,7.380682000000001,-1
32,33,1583549310681,-4.7904,-11.675999999999998,4.9406,-6.1496889999999995,-2.8393319,8.283536,-1
33,34,1583549310691,-5.9335,-13.532,5.987,-7.3067779999999996,-4.649587599999999,9.334658000000001,-1
34,35,1583549310701,-6.4751,-14.9551,6.558399700000001,-7.5873593999999995,-5.9511046,9.677871000000001,-1
35,36,1583549310712,-5.8464,-15.755099,5.9234,-6.7508826,-6.638269,8.752723,-1
36,37,1583549310722,-4.4235,-16.149399,4.0098,-4.6318517,-6.8792024000000005,6.043166,-1
37,38,1583549310732,-2.1186,-16.0158,1.5452,-1.8574023999999998,-6.4749365,3.5257587,-1
38,39,1583549310742,0.7673,-15.4344,-0.67469996,1.1522622,-5.823484,1.3660549,-1
39,40,1583549310752,2.8209,-14.9459,-2.3955,2.5623991000000004,-5.4422120000000005,-0.17089811,-1
40,41,1583549310762,3.1536,-14.622299,-3.4074,2.9027493,-5.0048294,-0.9184828000000002,-1
41,42,1583549310773,3.3139,-14.2273,-3.635,3.4807765,-4.7200727,-1.0066181,-1
42,43,1583549310783,4.4901,-13.9395,-3.7739999999999996,5.4461580000000005,-4.216725299999999,-1.4388193999999999,-1
43,44,1583549310793,6.1229997,-13.2026,-4.7314,6.9144835,-3.5004857000000005,-2.7610126,-1
44,45,1583549310803,6.8609,-12.6347,-6.451699700000001,7.6945143,-3.0774302000000002,-4.61921,-1
45,46,1583549310814,7.1382,-12.3417,-8.272699000000001,8.449253,-2.7132146,-6.4822726,-1
46,47,1583549310824,7.6245,-11.8859,-9.387199,9.192796000000001,-2.3592557999999997,-7.0060663,-1
47,48,1583549310834,8.2968,-11.4459,-9.7842,10.316452,-1.8925686000000002,-7.173516800000001,-1
48,49,1583549310844,9.6698,-10.4091,-9.884299,13.277773999999999,0.26610115,-7.2725789999999995,-1
49,50,1583549310855,12.381599000000001,-7.6439,-10.3255,15.796234,2.7772071,-7.879777400000001,-1
50,51,1583549310865,14.876698999999999,-4.3554,-11.823,18.706635000000002,6.4107623,-9.921361,-1
51,52,1583549310875,16.3845,-1.5873,-13.7268,20.163977,8.517153,-11.405517999999999,-1
52,53,1583549310886,17.479399,0.65779996,-15.2154,21.126198000000002,10.207296000000001,-11.505069,-1
53,54,1583549310896,17.961,2.3364,-14.857698999999998,21.697453,11.339725,-10.169065,-1
54,55,1583549310907,18.244799,3.6653998,-13.688398999999999,22.819672,12.928191,-8.9565935,-1
55,56,1583549310917,19.91,6.0695,-12.9928,26.286495000000002,16.26616,-8.749772,-1
56,57,1583549310927,22.737299,9.1537,-13.4539995,28.684997999999997,18.592844,-9.748365,-1
57,58,1583549310938,24.463798999999998,11.586599,-14.678598999999998,29.059488,19.872967000000003,-10.463428,-1
58,59,1583549310948,24.363498999999997,12.9442,-15.312598999999999,28.267984000000002,20.727322,-8.489868,-1
59,60,1583549310958,23.386599,13.9532995,-12.9773,27.420658000000003,21.015497,-3.970362,-1
60,61,1583549310968,22.465,14.5484,-8.4404,27.30155,21.852127,0.6897504,-1
61,62,1583549310978,22.4144,15.786098999999998,-4.124,28.324745,23.220806,4.6049504,-1
62,63,1583549310989,23.2052,17.1468,-1.1812999,29.135662,23.861591,5.1616306,-1
63,64,1583549310998,24.2076,18.3727,-0.7040000000000001,28.935765999999997,24.663132,4.622658,-1
64,65,1583549311009,24.2076,18.3727,-0.7040000000000001,28.935765999999997,24.663132,4.622658,-1
65,66,1583549311020,20.973299,17.6864,-0.8896,24.307688,22.242353,7.099689,-1
66,67,1583549311030,17.5681,15.378798999999999,5.7915,23.005922,21.037697,12.412116000000001,-1
67,68,1583549311041,16.6666,14.661698999999999,10.9811,22.065317,20.366152,17.508242000000003,-1
68,69,1583549311051,15.5178995,13.878098999999999,15.408899,20.902914000000003,19.617552,21.575385999999998,-1
69,70,1583549311061,14.5625,12.9106,18.0999,20.043932,18.775532000000002,23.650566,-1
70,71,1583549311071,14.5625,12.9106,18.0999,19.29511,17.8339,23.702406,-1
71,72,1583549311081,12.221399,9.6401,17.8704,17.43295,15.726926999999998,22.611635,-1
72,73,1583549311091,10.809899,7.3315997,17.2232,15.750917000000001,13.614656,21.844896,-1
73,74,1583549311102,8.7525,4.6583,17.2608,13.498988,11.252097000000001,21.773560999999997,-1
74,75,1583549311112,7.0259,2.2015,17.6456,11.150094000000001,8.675696,21.891306,-1
75,76,1583549311122,4.9958,-0.2914,17.745699,8.505736,6.574343700000001,21.591486,-1
76,77,1583549311132,2.5393,-2.312,17.4392,5.9465938,5.1609893,20.856112,-1
77,78,1583549311142,0.7044,-3.6553,16.469,4.0889616,4.236789,19.389154,-1
78,79,1583549311153,-0.2375,-4.6211,15.1629,3.3221847999999996,3.7492146,18.246796,-1
79,80,1583549311163,-0.0131,-5.344599700000001,14.0434,3.6115480000000004,3.149352,16.46548,-1
80,81,1583549311173,1.3951,-6.1702,12.3251,4.9077589999999995,2.4316664,14.326424,-1
81,82,1583549311183,2.5239,-7.0902996,10.4625,4.9683514,1.6696397,12.581674000000001,-1
82,83,1583549311193,2.1859999,-7.9584,9.493899,4.114033,0.95452034,11.678141,-1
83,84,1583549311204,2.1859999,-7.9584,9.493899,3.3054062999999996,0.20404345,11.0571995,-1
84,85,1583549311216,0.0407,-10.382999,7.808799700000001,0.50799215,-1.4173098999999998,9.17798,-1
85,86,1583549311225,-1.3341,-11.1553,6.579799700000001,-0.94547987,-1.756664,7.4179070000000005,-1
86,87,1583549311236,-2.0214,-11.4063,4.7708,-1.2997068,-1.9723817,5.599645,-1
87,88,1583549311246,-1.7888998999999999,-11.7362995,3.3718,-1.448425,-2.4139588,4.307715,-1
88,89,1583549311256,-1.6775999,-12.1094,2.6337,-1.5329117,-2.5799727000000003,3.5322425,-1
89,90,1583549311266,-1.4786999,-12.2744,1.8808999,-1.5108179,-2.7578044,2.910698,-1
90,91,1583549311276,-1.1316,-12.4895,1.4405,-0.6529754,-2.629274,2.430335,-1
91,92,1583549311287,0.053999998,-12.267699,0.9673,0.05697242,-2.3826904,1.2866535,-1
92,93,1583549311297,0.6871,-12.081799499999999,-0.2839,-0.61417973,-2.4669185000000002,-0.52685845,-1
93,94,1583549311308,-0.0052,-12.196,-1.9415,-2.2212252999999995,-2.7241322999999995,-1.920552,-1
94,95,1583549311318,-1.5056,-12.491699,-3.1534998,-3.8835483,-3.0110056,-2.9968223999999997,-1
95,96,1583549311328,-2.944,-12.705299,-4.1036997,-5.0937886,-3.0663786,-3.6999129999999996,-1
96,97,1583549311338,-3.8837,-12.712199,-4.6479,-5.368595,-2.6193907000000003,-3.9680063999999997,-1
97,98,1583549311348,-3.8923,-12.2706995,-4.7834997,-4.5185002999999995,-1.6567683999999998,-3.8466584999999998,-1
98,99,1583549311359,-2.9805,-11.294499,-4.6113,-2.6074292999999997,-0.2896984,-3.96996,-1
99,100,1583549311369,-1.0545,-9.941,-4.6926,-0.722618,0.94149584,-4.7616076,-1
100,101,1583549311379,1.2404,-8.4347,-5.6679,0.7017213999999999,2.3127127,-5.9353504,-1
101,102,1583549311390,1.6609,-6.617799799999999,-6.6586,-0.09990525,3.2039495,-6.0231699999999995,-1
102,103,1583549311400,1.6609,-6.617799799999999,-6.6586,-1.0047123,3.8468212999999998,-5.5860558,-1
103,104,1583549311410,0.5595,-5.8345,-6.1085,-1.5769361000000002,4.7405862999999995,-5.051334400000001,-1
104,105,1583549311420,-0.0393,-3.9671,-5.5783,-1.5751836000000001,5.889928,-5.2357835999999995,-1
105,106,1583549311430,-0.1108,-3.1490998,-6.0972,-1.6530622,6.709511,-5.824288,-1
106,107,1583549311441,-0.1108,-3.1490998,-6.0972,-1.6889465,7.4404035,-6.294749299999999,-1
107,108,1583549311450,-0.19129999,-2.2635999,-6.632999999999999,-1.2979637,8.3000555,-6.806696400000001,-1
108,109,1583549311460,0.7571,-0.37719998,-7.2676997000000005,-0.48631024,9.553555000000001,-7.00145,-1
109,110,1583549311470,0.7571,-0.37719998,-7.2676997000000005,0.35112405,10.430177,-6.7202754,-1
110,111,1583549311480,2.3832998,1.3531,-5.9312997,1.1698548999999998,11.169362,-5.326208,-1
111,112,1583549311490,2.3295,1.6621,-3.9236998999999995,0.97893167,11.422094,-3.1727674,-1
112,113,1583549311502,2.3295,1.6621,-3.9236998999999995,0.40683234,11.388949,-1.4722521000000002,-1
113,114,1583549311511,0.6829,1.3546,-0.6512,-0.6852779999999999,11.064525999999999,-0.22662555,-1
114,115,1583549311521,0.060799997,1.4218998999999999,-0.8096,-1.1483645,11.218108,-0.5708352,-1
115,116,1583549311531,0.1414,1.6157,-1.4901999,-0.9266135,11.337043,-1.3379374,-1
116,117,1583549311541,0.287,1.5734999,-1.7817999,-0.88367116,11.299991,-1.3868557,-1
117,118,1583549311552,0.2162,1.5216,-1.2531999,-0.8762395000000001,11.244425999999999,-0.7646793000000001,-1
118,119,1583549311562,0.4382,1.3718,-0.466,-0.5569392,11.068978,0.15555608,-1
119,120,1583549311572,0.6489,1.2808,0.1727,-0.40221632,11.026428999999998,0.63381225,-1
120,121,1583549311582,0.84999996,1.3172,0.5992,-0.18821298,11.088592,1.0323989,-1
121,122,1583549311592,0.72999996,1.3144,0.71889997,-0.42388862,11.072894999999999,1.0126708,-1
122,123,1583549311603,0.4377,1.2923,0.5832,-0.6175221,10.98204,0.8140861,-1
123,124,1583549311613,0.4377,1.2923,0.5832,-0.6146203,10.916717,0.70967966,-1
124,125,1583549311623,0.45909998,1.0031999,0.13069999,-0.47816995,10.738817999999998,0.32994014,-1
125,126,1583549311633,0.5549,0.98139995,0.0733,-0.41587284,10.790121000000001,0.22770773,d
126,127,1583549311643,0.4369,1.117,0.0071,-0.6134232,10.91122,0.18036959,-1
127,128,1583549311654,0.2428,1.1745,0.0381,-0.7434666999999999,10.952199,0.08507078,-1
128,129,1583549311664,0.13849999,1.2225,-0.1566,-0.8193915999999999,11.042776,-0.25668716,-1
129,130,1583549311674,0.18159999,1.2707,-0.54859996,-0.71846163,10.961354,-0.66056025,-1
130,131,1583549311684,0.2541,1.0249,-0.77989995,-0.68033636,10.695263,-0.77140224,-1
131,132,1583549311694,0.2577,0.789,-0.6484,-0.7622755,10.451169,-0.48744032,-1
132,133,1583549311704,0.123399995,0.6314,-0.25169998,-0.76978374,10.344513000000001,0.043200977,-1
133,134,1583549311714,0.2429,0.6013,0.2278,-0.49011225,10.501064,0.28445032,-1
134,135,1583549311725,0.5086,0.8359,0.31669998,-0.35037705,10.71503,0.17448942,-1
135,136,1583549311735,0.51379997,1.0023,0.116799995,-0.52238613,10.828955,-0.1806569,-1
136,137,1583549311745,0.29099998,1.0223,-0.2641,-0.8244481,10.673619,-0.6708361999999999,-1
137,138,1583549311756,0.035099998,0.8567,-0.7495,-0.8956516999999999,10.603297,-1.0968221000000002,-1
138,139,1583549311766,0.036000000000000004,0.7991,-1.0407,-0.85549617,10.5287895,-1.2757072,-1
139,140,1583549311776,0.114599995,0.7513,-1.1414,-0.8274265,10.519959,-1.3184677,-1
140,141,1583549311786,0.1134,0.7327,-1.14,-0.9017904,10.504607,-1.248356,-1
141,142,1583549311797,0.051999997,0.7531,-1.0258,-0.9734537,10.487533,-0.96176994,-1
142,143,1583549311807,-0.0004,0.7047,-0.7292,-0.8818132,10.429889999999999,-0.82170916,-1
143,144,1583549311817,0.122899994,0.6563,-0.6405,-0.5677227,10.367631,-0.8405563,-1
144,145,1583549311827,0.4725,0.57839996,-0.6595,-0.32022929999999994,10.232876,-0.87222683,-1
145,146,1583549311837,0.6879,0.45189998,-0.649,-0.155422,10.163367,-0.65903753,-1
146,147,1583549311847,0.85899997,0.37489998,-0.44329998,-0.2592633,9.968967,-0.45245624,-1
147,148,1583549311858,0.7219,0.1612,-0.2078,-0.40181407,9.739305499999999,-0.022428881,-1
148,149,1583549311868,0.6092,-0.0911,0.2347,-0.610598,9.489572,0.25684994,-1
149,150,1583549311878,0.2929,-0.3726,0.44439998,-1.1287513,9.192978,0.17440324,-1
150,151,1583549311888,-0.1209,-0.6146,0.3136,-1.3973520000000001,9.029416000000001,-0.011243171000000001,-1
151,152,1583549311898,-0.3031,-0.73929995,0.14459999,-1.392755,8.985583,-0.32788113,-1
152,153,1583549311908,-0.2373,-0.7568,-0.19209999,-1.2351974,8.976227,-0.57955,-1
153,154,1583549311919,-0.089099996,-0.7653,-0.3649,-1.0291907,9.016917999999999,-0.49134767,-1
154,155,1583549311929,0.1241,-0.73499995,-0.2774,-0.7281342,9.048445,-0.23616406,-1
155,156,1583549311939,0.4271,-0.7047,-0.0311,-0.74672276,9.002112,0.022237346,-1
156,157,1583549311949,0.4238,-0.7531,0.1988,-0.8592790000000001,8.98789,0.28179756,-1
157,158,1583549311960,0.32799998,-0.7518,0.4549,-0.80053484,9.070653,0.44168234,-1
158,159,1583549311970,0.38979998,-0.6719,0.6056,-0.8931905000000001,9.1185665,0.33902854,-1
159,160,1583549311981,0.0446,-0.7274,0.3116,-1.2417958,8.982556,0.09102755,-1
160,161,1583549311991,-0.1863,-0.8138,0.0689,-1.4377947,8.916697000000001,-0.19208202,-1
161,162,1583549312002,-0.1856,-0.8027,-0.2252,-1.4165055,8.912426,-0.49632758,-1
162,163,1583549312012,-0.1507,-0.8021,-0.3691,-1.3465948,8.981513,-0.58827454,-1
163,164,1583549312022,0.0265,-0.60609996,-0.40269998,-1.1031429,9.264497,-0.5165538,-1
164,165,1583549312032,0.21159999,-0.4105,-0.1977,-1.0543299,9.341103,-0.21015345,-1
165,166,1583549312042,0.14459999,-0.42029998,0.32819998,-1.1726034,9.305083999999999,0.5097447,-1
166,167,1583549312052,0.0229,-0.41,0.9553,-1.3199521,9.323864,1.0826198,-1
167,168,1583549312063,-0.1733,-0.4481,1.2398,-1.5349035,9.245047,1.1124227,-1
168,169,1583549312073,-0.3572,-0.5151,0.9693,-1.6343586,9.240958000000001,0.6939642,-1
169,170,1583549312083,-0.2771,-0.40559998,0.4253,-1.4719936000000002,9.38889,0.052835245,-1
170,171,1583549312093,0.0156,-0.2572,-0.20279999,-1.2177868,9.552989,-0.53662676,-1
171,172,1583549312103,0.0911,-0.059899997,-0.5976,-1.2427056,9.743233,-0.7983992,-1
172,173,1583549312114,-0.0084999995,0.0492,-0.5379,-1.4096773,9.721225,-0.52718407,-1
173,174,1583549312123,-0.21429999,-0.0964,-0.0827,-1.6523151000000003,9.561742,-0.046610318,-1
174,175,1583549312133,-0.4883,-0.2127,0.3306,-1.8674294999999999,9.488489,0.28847256,-1
175,176,1583549312143,-0.5003,-0.30969998,0.51989996,-1.7445303,9.431210499999999,0.37784332,d
176,177,1583549312153,-0.21429999,-0.1328,0.47759998,-1.4123491000000001,9.774559,0.25193706,-1
177,178,1583549312163,0.1846,0.34739998,0.302,-0.9768726000000001,10.220224,0.0983155,-1
178,179,1583549312174,0.51489997,0.66099995,0.1894,-0.79114,10.430053,-0.0026910827000000003,-1
179,180,1583549312184,0.5475,0.7109,0.28759998,-0.8236724,10.38215,0.19878578,-1
180,181,1583549312194,0.44169998,0.5072,0.598,-1.1098561000000002,10.069907,0.4506175,-1
181,182,1583549312204,0.079799995,0.2364,0.564,-1.6685861000000002,9.783445,-0.21425232,-1
182,183,1583549312214,-0.4933,-0.043199997000000004,-0.34719998,-2.1049726000000004,9.477658,-1.3113139,-1
183,184,1583549312224,-0.71779996,-0.3137,-1.2958,-2.027228,9.277234,-1.8742385,-1
184,185,1583549312234,-0.491,-0.5176,-1.4709999999999999,-1.7978538,9.096971,-1.645803,-1
185,186,1583549312245,-0.20459999,-0.78249997,-0.8264,-1.5037118999999999,8.738989,-0.6152907,-1
186,187,1583549312255,0.007999999,-1.1076,0.047399998,-1.3453785,8.35811,0.19130629999999998,-1
187,188,1583549312265,0.1609,-1.5112,0.70229995,-1.1137252,7.9385023,0.71027344,-1
188,189,1583549312275,0.45279998,-2.0123,1.0012,-0.80829203,7.239683,0.61560667,-1
189,190,1583549312285,0.6714,-2.8065999,0.67649996,-0.8098914,6.5350695,0.27674099999999996,-1
190,191,1583549312296,0.4957,-3.7463998999999997,0.24749999,-1.0908175,5.4898663,-0.25567199999999995,-1
191,192,1583549312306,0.1401,-5.0478997,-0.3126,-1.6149752,3.7260385,-0.75919175,-1
192,193,1583549312316,-0.3997,-6.6728,-0.52349997,-2.3198952999999998,1.9038308999999998,-0.6916465,-1
193,194,1583549312326,-1.1575,-8.5925,-0.34399998,-3.383572,-0.41307643,-0.42072827,-1
194,195,1583549312337,-2.0902,-10.4648,-0.14829999,-4.2750864,-2.165546,-0.05544971,-1
195,196,1583549312347,-2.9099998,-12.1825,0.27109998,-4.618051,-3.7715379999999996,0.7053414000000001,-1
196,197,1583549312357,-3.178,-13.7476,0.99869996,-4.863064,-5.0370846,1.3534708999999998,-1
197,198,1583549312367,-3.4910997999999998,-14.9502,1.5466,-5.147965,-5.999726,1.5686235,-1
198,199,1583549312378,-3.8560000000000003,-15.8431,1.6452,-5.2996707,-6.712977400000001,1.5003313,-1
199,200,1583549312388,-3.9698,-16.5423,1.5382999,-4.759338,-7.2245803,1.2314146000000001,-1
200,201,1583549312398,-3.4724,-17.067,1.1637,-4.289231299999999,-7.6949835,0.39860585,-1
201,202,1583549312408,-3.3147,-17.534000000000002,0.2298,-4.427846,-7.9567747,-0.85806274,-1
202,203,1583549312418,-3.6146998,-17.7166,-0.8170000000000001,-4.0475035,-7.7545323,-1.3478302,-1
203,204,1583549312428,-3.4398,-17.5354,-1.3671,-3.3890211999999997,-7.432042599999999,-0.597813,-1
204,205,1583549312438,-3.0188,-17.2229,-0.72139996,-2.3128562,-7.004840400000001,0.56453365,-1
205,206,1583549312448,-2.2333,-16.795,0.28689998,-1.2166376,-6.44589,1.6116903999999999,-1
206,207,1583549312458,-1.12,-16.042099,1.5015999,0.61734015,-5.501224,3.0402818,-1
207,208,1583549312468,0.3867,-15.109098999999999,2.7272,2.3467102000000004,-4.868858,3.6453924,-1
208,209,1583549312478,1.5998,-14.505199,2.9889997999999998,3.1090336,-4.4889655,2.9326,-1
209,210,1583549312488,1.9188999,-14.0924,1.8614998999999999,4.3537984000000005,-3.6013582000000004,0.1410855,-1
210,211,1583549312498,2.6155,-13.2198,-0.6609,4.6234813,-2.714632,-1.643562,-1
211,212,1583549312509,2.5266,-11.9878,-2.8746,5.7540617,-0.8380280999999999,-1.9938146,-1
212,213,1583549312519,3.1588,-10.2199,-3.1022,7.918189999999999,1.1397166,0.79777676,-1
213,214,1583549312529,4.8605,-8.082,-0.5861,10.984166,2.6508985000000003,5.014751400000001,-1
214,215,1583549312539,7.443,-6.3549,3.3184,14.734482999999999,3.7893891,8.880342500000001,-1
215,216,1583549312549,10.6914,-4.9467,6.9093,17.332373,4.1407046,10.818363,-1
216,217,1583549312560,12.802799,-4.2978997,8.622399,17.92784,5.945703,10.441659,-1
217,218,1583549312570,12.950399,-2.1907,8.107699,18.968120000000003,9.369066,9.596726,-1
218,219,1583549312580,13.544498999999998,1.5537,7.169699700000001,22.858976000000002,12.965464,8.845091,-1
219,220,1583549312590,20.390798999999998,9.7676,4.8441997,27.120874,17.530527,7.138638,-1
220,221,1583549312600,21.4033,12.4404,3.491,27.918153999999998,19.487118,5.9233317,-1
221,222,1583549312610,21.4033,12.4404,3.491,26.701057000000002,19.811779,5.1291175,-1
222,223,1583549312621,16.740799,12.6333,1.5850999,23.263233,18.543885999999997,4.31076,-1
223,224,1583549312631,13.892098999999998,11.816899000000001,1.9186,20.7706,17.737358,5.035054,-1
224,225,1583549312641,12.7542,12.4675,3.3353,20.3173,18.299238,6.556166999999999,-1
225,226,1583549312652,13.586599,13.4338,4.3826,21.40965,19.021368,7.60319,-1
226,227,1583549312662,14.4625,14.4481,4.7448,22.275154,19.743277,7.822106,-1
227,228,1583549312672,14.0919,14.5759,4.1661997,21.67077,19.378122,7.309976600000001,-1
228,229,1583549312682,12.462299,13.6929,3.2647998,19.938671,18.224041,6.4437165,-1
229,230,1583549312692,10.331799499999999,12.3881,2.2603,17.885233,16.739845000000003,5.4997783,-1
230,231,1583549312702,8.4593,10.92,1.6125,15.719408999999999,15.0012245,4.987132,-1
231,232,1583549312713,6.8037996,10.0682,1.479,14.622798000000001,14.488349,4.8881555,-1
232,233,1583549312723,6.5112996,9.500999,1.072,14.682567,13.702848999999999,4.455973,-1
233,234,1583549312733,6.5709,8.7029,1.0546,14.239993,12.713517,4.824775700000001,-1
234,235,1583549312743,5.4357,7.6942,1.7459999,12.9090185,11.6672125,5.503082,-1
235,236,1583549312753,4.1705,6.5957,2.0066,11.786223,10.522210000000001,5.468385,-1
236,237,1583549312763,3.2020998,5.3774,1.5526999,10.758422,9.27394,4.926702,-1
237,238,1583549312774,2.1764,4.2286,1.0989,9.727833,8.220146000000002,4.506864,-1
238,239,1583549312784,1.1725,3.0484,0.67509997,8.705519,6.8703246,4.0601926,-1
239,240,1583549312794,0.5329999999999999,1.9518,0.4209,8.2108755,5.967672299999999,3.874575,-1
240,241,1583549312805,0.0802,1.1105,0.34299999999999997,7.763026700000001,5.31825,3.9811935,-1
241,242,1583549312815,-0.2943,0.49749997,0.5768,7.4587045,4.917096599999999,4.259936,-1
242,243,1583549312825,-0.48299998,0.18339999,0.8648,7.4768815,4.788078,4.4680877,-1
243,244,1583549312835,-0.3486,0.069,1.0024998999999999,7.652864999999999,4.6971172999999995,4.3424687,-1
244,245,1583549312846,-0.1558,-0.0751,0.6814,7.7426186,4.5538,3.6088088,-1
245,246,1583549312856,-0.1293,-0.243,-0.036399997999999996,7.826175999999999,4.490037999999999,2.5869348,d
246,247,1583549312866,0.0157,-0.3554,-1.0454,7.834747999999999,4.3593144,1.8699672999999999,-1
247,248,1583549312876,0.0157,-0.3554,-1.0454,7.675609599999999,4.2715816,1.7987157999999999,-1
248,249,1583549312887,-0.18789999,-0.6749,-1.4871,7.496724,4.1646852,2.4794066000000003,-1
249,250,1583549312897,-0.2987,-0.79039997,-0.7405,7.387271000000001,4.079394000000001,3.4438388,-1
250,251,1583549312907,-0.3938,-0.9062,0.2382,7.1769834,4.012318,4.328007700000001,-1
251,252,1583549312917,-0.6059,-0.96989995,1.0351,7.0360227,4.1262245,4.652019999999999,-1
252,253,1583549312927,-0.64269996,-0.8357,1.1460999,7.4904227,4.5462728,4.0287904999999995,-1
253,254,1583549312937,-0.03,-0.3994,0.392,8.567373,5.013631,3.226934,-1
254,255,1583549312948,1.1319,0.0667,-0.3549,9.565064999999999,5.4514346,2.7720833,-1
255,256,1583549312958,2.0037,0.449,-0.74979997,9.729289,5.839103700000001,2.7513304,-1
256,257,1583549312968,2.0662,0.8249,-0.6940000000000001,9.440192999999999,6.290056,3.1870942,-1
257,258,1583549312978,1.8316,1.156,-0.3308,9.423884,6.923447,3.6734907999999997,-1
258,259,1583549312988,1.8575,1.7586,0.1336,9.614003,7.7394867,3.9465158,-1
259,260,1583549312999,2.083,2.5451,0.37919998,9.752732,8.731297999999999,3.9859436,-1
260,261,1583549313009,2.2714,3.4878,0.3872,10.459491,9.959660000000001,4.423211,-1
261,262,1583549313019,3.0198998,4.6788,0.7818,11.159728,11.175837,4.5550456,-1
262,263,1583549313029,3.7603998,5.8633,0.86499995,11.741394999999999,12.321089,4.563904,-1
263,264,1583549313039,4.3995,6.9781,0.8207,12.824225,13.495664999999999,5.221888,-1
264,265,1583549313049,5.5334,8.120399,1.4294,14.156637,14.464876,6.643891,-1
265,266,1583549313059,6.9254,9.0508995,2.7876,14.840584,15.299303,8.920795,-1
266,267,1583549313070,7.8367,10.4086,7.2949,14.901234,16.082514,11.613631,-1
267,268,1583549313080,7.8567995999999996,10.8498,8.7136,14.852248000000001,16.5897,12.792803999999999,-1
268,269,1583549313090,7.8567995999999996,10.8498,8.7136,15.069317000000002,16.957806,12.382027,-1
269,270,1583549313100,8.6956,11.070399,7.1099,15.517501000000001,17.033077,10.6450615,-1
270,271,1583549313110,9.1307,10.654099,5.3076,15.728057000000002,16.765656,8.803758,-1
271,272,1583549313120,9.0164995,9.8074,3.7057998,15.278761,16.037024,7.165941,-1
272,273,1583549313130,8.2393,8.4611,2.8318,14.242512,14.902123999999999,6.414689,-1
273,274,1583549313141,7.0924997,6.9803,3.1634,12.820663,13.676418,6.7284155,-1
274,275,1583549313151,6.1526,5.6271,3.6076998999999996,11.568361,12.479613,7.017012599999999,-1
275,276,1583549313161,5.2974997,4.2009,3.9487997999999997,10.529699,11.312354,7.218661999999999,-1
276,277,1583549313171,4.592,2.7930999,4.326699700000001,9.579058,10.228575,7.4567122,-1
277,278,1583549313181,4.0710998,1.6801,4.7552,8.92929,9.466289999999999,7.6496949999999995,-1
278,279,1583549313191,3.9373,0.5585,4.8287,8.59844,8.566473,7.4580245,-1
279,280,1583549313202,4.0238,-0.4743,4.454,8.406224,7.788500999999999,6.7843537,-1
280,281,1583549313212,4.0712,-1.5668,3.6504998,8.017472,6.557144,5.479935,-1
281,282,1583549313222,3.6636,-3.0312,2.8511,7.1942697,5.5468,4.722841000000001,-1
282,283,1583549313232,2.2821,-4.3626,2.4415,5.1085753,4.1426487000000005,4.040962,-1
283,284,1583549313242,1.1826,-5.8883,2.2328,4.149717,2.984583,3.743028,-1
284,285,1583549313252,0.5089,-7.4873,2.2384,3.1172986000000003,1.5544498,3.5893393,-1
285,286,1583549313262,-0.34019998,-8.9071,2.5342999,1.5915983,0.04642836,3.7956429,-1
286,287,1583549313273,-1.3813,-10.1762,3.0484998,0.44766784,-1.1051826,4.293847599999999,-1
287,288,1583549313283,-2.0577,-11.181399,3.7096,-0.5503791,-1.8630528000000002,4.651033999999999,-1
288,289,1583549313293,-2.9398,-11.7499,3.8795998,-1.5992885000000001,-2.2457802000000004,4.354066400000001,-1
289,290,1583549313303,-3.3323998,-11.9915,3.2106,-1.6710284,-2.2916915,3.0782921,-1
290,291,1583549313313,-2.365,-11.779699,1.3737999,-0.61430424,-1.8990041000000002,0.68190694,-1
291,292,1583549313323,-1.5116,-11.4008,-0.6186,-0.34076193,-1.6139026,-1.0949738000000002,-1
292,293,1583549313334,-1.6335,-11.3383,-1.6398,-0.8627937,-1.6665558999999996,-1.8927313000000001,-1
293,294,1583549313344,-2.3179998,-11.643499,-1.7856,-1.7701195,-2.085867,-1.8430182000000002,-1
294,295,1583549313354,-3.2577999,-11.9157,-1.1839,-2.8241715,-2.0680828,-1.0308666,-1
295,296,1583549313364,-3.8832998,-11.4886,-0.1892,-2.9927425,-1.2745963,-0.21345745,-1
296,297,1583549313374,-3.4239,-10.6957,0.14800000000000002,-2.0225831999999997,-0.39597222,-0.45676579999999994,-1
297,298,1583549313385,-2.1032999,-9.743199,-0.42299998,-0.20227174,0.81251544,-1.5241008999999999,-1
298,299,1583549313395,-0.1556,-8.4258995,-1.6157999,1.5176365,2.087198,-2.759959,-1
299,300,1583549313405,1.1223,-7.3827996,-2.6048,2.1416998,2.6338997,-3.3651940000000002,-1
300,301,1583549313415,1.4718,-6.9883,-2.8514,2.2323728,3.0325724999999997,-3.1678834,-1
301,302,1583549313426,1.3356,-6.5958,-2.3114998,1.4636806999999998,3.3188138,-1.974345,-1
302,303,1583549313436,0.5049,-6.4498997000000005,-1.1551,0.61949486,3.417943,-1.0473005,-1
303,304,1583549313446,-0.45929998,-6.205899700000001,-0.1331,-0.3285132,4.000098,-0.38002685,-1
304,305,1583549313456,-1.0676,-5.6368,0.2086,-0.40510848,4.558512,-0.6320405,-1
305,306,1583549313466,-0.99259996,-4.928,-0.28059998,-0.032494105,5.390239,-1.7852603999999999,-1
306,307,1583549313477,-0.6071,-4.2265997,-1.3313,0.84876364,6.2238326,-3.2070236,-1
307,308,1583549313487,0.4043,-3.3572,-2.6948,1.8423191000000003,6.939316000000001,-4.177518,-1
308,309,1583549313497,1.4972,-2.4784,-3.6143,2.518384,7.857817599999999,-4.3356404,-1
309,310,1583549313507,1.7398,-1.7882999,-3.2879,2.1401482000000005,8.157198,-2.9684463,-1
310,311,1583549313517,1.2666998999999999,-1.5819,-1.7639999,1.4371817,8.201778,-1.2976669,-1
311,312,1583549313527,0.5082,-1.5245999,-0.2058,0.7174081999999999,8.429428999999999,-0.30412108,-1
312,313,1583549313538,-0.168,-1.2613,0.6599,0.345445,8.736739,0.20778798,-1
313,314,1583549313548,-0.396,-0.91789997,0.9928,0.8975,9.473233,-0.6012798,-1
314,315,1583549313558,0.114,-0.27789998,0.24,1.4503117,9.873544,-1.8299363000000002,-1
315,316,1583549313568,0.7488,0.19739999,-1.2579,1.79138,10.163473,-3.0525978,-1
316,317,1583549313578,1.035,0.46699998,-2.2712998,1.7726669999999998,10.223088,-3.466852,-1
317,318,1583549313589,0.97609997,0.48,-2.5125,1.2027032,10.047056,-3.0775740000000003,-1
318,319,1583549313599,0.4152,0.31379998,-2.1088,0.65998566,9.87928,-1.9457965,-1
319,320,1583549313609,-0.122899994,0.13509999,-0.9942,0.16868588,9.624471,-0.7153491999999999,-1
320,321,1583549313622,-0.7561,-0.156,0.96519995,0.017094601,9.5861635,0.26776752,-1
321,322,1583549313632,-0.6611,-0.1873,1.2951,0.15457924,9.582486,0.47421476,-1
322,323,1583549313642,-0.5335,-0.0892,1.2566,0.24479276,9.696479,0.33251628,-1
323,324,1583549313653,-0.4396,0.069299996,0.75329995,0.49756297,9.862358,-0.36740459999999997,-1
324,325,1583549313663,-0.0837,0.1507,0.1924,0.89958775,9.956422,-0.8858546,-1
325,326,1583549313673,0.20279999,0.3206,-0.20979999,1.0748242000000001,10.100514,-1.2364041000000001,-1
326,327,1583549313683,0.25669998,0.44079998,-0.42139998,1.0444849,10.166748,-1.3166098999999998,-1
327,328,1583549313693,0.0503,0.4129,-0.2384,0.84600556,10.103952,-0.98377746,-1
328,329,1583549313704,-0.1028,0.27629998,0.25419998,0.65098345,9.93339,-0.43090839999999997,-1
329,330,1583549313714,-0.23439999,0.1398,0.562,0.5987610999999999,9.81976,-0.41258797,d
330,331,1583549313724,-0.259,0.1019,0.43379998,0.62345016,9.899842,-0.6945962,-1
331,332,1583549313734,-0.2182,0.251,0.1434,0.6817920999999999,10.052075,-0.9170271999999999,-1
332,333,1583549313744,-0.0628,0.44979998,-0.0655,1.051725,10.297787,-1.1559205,-1
333,334,1583549313755,0.2777,0.6293,-0.243,1.2717999,10.406073,-1.346365,-1
334,335,1583549313765,0.4145,0.72069997,-0.44689998,1.370374,10.488835,-1.6775118000000002,-1
335,336,1583549313775,0.5456,0.82189995,-0.8341,1.779591,10.675334,-2.2440853,-1
336,337,1583549313785,1.0813999,1.0505999,-1.4654,2.1964407,10.857906,-2.9215102,-1
337,338,1583549313795,1.5122,1.3083,-2.4903998,2.6114516,11.091657000000001,-4.278878700000001,-1
338,339,1583549313805,1.7903,1.4281,-3.5964,2.7277139999999997,11.170484,-5.223832,-1
339,340,1583549313816,1.7305,1.4685999,-4.2843,2.4795119999999997,11.062225999999999,-5.5215845,-1
340,341,1583549313826,1.4916999,1.2239,-4.2871,2.1273727000000004,10.588108,-4.930495,-1
341,342,1583549313836,1.2023,0.7826,-3.6406998999999995,2.0640318,10.165426,-4.67647,-1
342,343,1583549313846,1.3191,0.4014,-3.5802998999999995,3.1378310000000003,10.038639,-5.524764,-1
343,344,1583549313856,2.7668998,0.3965,-4.553499700000001,6.0197797,10.630342,-7.571998,-1
344,345,1583549313866,5.8521,1.0826,-6.8652997000000004,8.510602,11.108187,-11.067436,-1
345,346,1583549313877,7.9245996,1.4079,-10.345999999999998,8.4488125,10.709456,-13.924849499999999,-1
346,347,1583549313887,7.429199700000001,0.8461,-12.7528,6.5153413,9.426825,-14.406820999999999,-1
347,348,1583549313897,5.382999999999999,-0.5688,-12.6826,4.559039,7.885389999999999,-12.571186,-1
348,349,1583549313907,3.6977,-2.0616999,-10.6191,3.4753847,6.6702843,-10.184838000000001,-1
349,350,1583549313917,2.8686,-3.1469,-8.6006,2.9751978,5.958354,-8.942352,-1
350,351,1583549313928,2.3504,-4.0748,-7.1580997,2.7614052000000004,5.105913,-7.858239,-1
351,352,1583549313937,2.4599,-4.7668,-6.5846995999999995,3.1372278,4.5450954,-7.5888146999999995,-1
352,353,1583549313947,2.9343,-5.2739997,-6.4427,3.5645160000000002,4.257025,-7.560764999999999,-1
353,354,1583549313957,3.398,-5.5648,-6.3866997,3.7751867999999993,4.0062370000000005,-6.7697199999999995,-1
354,355,1583549313967,3.5774,-5.7853,-5.3493,3.386943,3.6318126000000004,-4.674018,-1
355,356,1583549313978,3.1074998,-6.2693996,-3.1564999,2.2629995,2.9250727000000003,-2.5849621,-1
356,357,1583549313988,1.9412999,-6.9672,-1.235,0.5420568,2.1959426,-1.5254513,-1
357,358,1583549313998,0.20089999,-7.7310996,-0.40299999999999997,-1.6718422999999998,1.1391995000000001,-1.7270240000000001,-1
358,359,1583549314008,-1.5184,-8.620299000000001,-0.655,-2.7847917,0.42384073,-2.5320885,-1
359,360,1583549314018,-2.5881998999999998,-9.3333,-1.4405999,-2.8593759999999997,0.0038594531,-2.3707385,-1
360,361,1583549314028,-2.5825999,-9.814799,-1.0485,-2.0522904,-0.22644360000000002,0.15732779,-1
361,362,1583549314038,-1.8856,-9.967899000000001,1.1676999,-1.3623008,0.08768524,2.2797970000000003,-1
362,363,1583549314048,-1.1645,-9.5844,3.6685,-1.1973212,0.6294643,4.2491330000000005,-1
363,364,1583549314058,-1.2574999,-9.063499,5.411299700000001,-1.4782089,1.0629107,5.869873999999999,-1
364,365,1583549314068,-1.5868,-8.6195,6.915,-0.8447318000000001,1.6660292,7.6157164999999996,-1
365,366,1583549314079,-1.0615,-8.1339,8.274799,0.08042602,1.7983903,9.253829,-1
366,367,1583549314089,-0.2764,-7.9985,9.8284,0.5469123,1.7213352,11.203275,-1
367,368,1583549314099,0.0707,-8.0765,11.684199000000001,0.27609932,1.7153785,12.982818,-1
368,369,1583549314109,-0.38299999999999995,-8.0639,13.8224,0.7240258,2.1792407000000003,15.702237,-1
369,370,1583549314119,-0.06359999599999999,-7.6053996,15.9298,1.6472011999999998,3.2986066,17.922256,-1
370,371,1583549314130,0.64419997,-6.4718,17.9606,1.9666548,4.428373000000001,20.407870000000003,-1
371,372,1583549314140,0.7596,-5.3080997000000005,20.2114,1.6946543,4.855968,22.921206,-1
372,373,1583549314150,0.26049998,-4.8401,22.4818,1.3036811000000001,5.0650580000000005,24.631527,-1
373,374,1583549314160,-0.3937,-4.5515,24.321299,1.3189657,5.120211,25.673378,-1
374,375,1583549314170,-0.57049996,-4.52,23.5501,1.4975828000000002,5.09262,23.992718,-1
375,376,1583549314181,-0.29209998,-3.8562999,21.2367,2.0557766,5.883272,21.688986,-1
376,377,1583549314191,0.3294,-2.7739,19.1187,2.9120293,6.9023495,19.737675,-1
377,378,1583549314201,0.7765,-1.6028999,18.0985,3.4480717000000003,8.030928999999999,19.156727,-1
378,379,1583549314211,0.6928,-0.7553,18.8295,3.5541635,8.621463,20.233503,-1
379,380,1583549314221,0.9368,-0.71489996,19.9212,4.1288295,8.510085,21.257877,-1
380,381,1583549314231,2.0677,-0.5446,19.4635,5.732485,8.731836,20.464928,-1
381,382,1583549314242,4.3290997,0.1644,17.0037,8.30269,9.399321,17.744232,-1
382,383,1583549314252,6.791599799999999,1.117,13.302098999999998,10.889566,10.337981,13.899116500000002,-1
383,384,1583549314262,8.412,2.0869999999999997,9.3509,12.468523,11.138927,9.558524,-1
384,385,1583549314272,8.4439,2.1419,6.8142,12.296313,10.893666,7.9726919999999994,-1
385,386,1583549314282,7.3294997,1.4891,6.2418,11.223587,10.0935135,7.876837299999999,-1
386,387,1583549314293,6.062999700000001,0.8383,7.3911,9.923344,9.431508000000001,9.714225,-1
387,388,1583549314303,5.8092,0.9492,8.5651,11.112860000000001,9.861180000000001,9.867491000000001,-1
388,389,1583549314313,8.7183,2.0319,6.6533,14.735392000000001,11.153111,7.071428,-1
389,390,1583549314323,12.007899,3.5121998999999997,2.9043999,17.84929,12.371222999999999,3.129844,-1
390,391,1583549314333,14.9592,4.4961,-1.1728,21.133253,13.123625,-0.98309755,-1
391,392,1583549314343,17.664299,5.0529,-5.2253,22.977373,13.162842000000001,-4.678548,-1
392,393,1583549314353,17.447899,4.172,-7.7419,21.59323,11.588683,-6.153347,-1
393,394,1583549314364,14.5652,2.2244,-7.6323,18.22297,9.9114685,-5.420578,-1
394,395,1583549314374,11.264999000000001,1.3701999,-7.1078997,15.338845000000001,9.659186,-5.881864,-1
395,396,1583549314384,10.3032,1.7730999,-8.7402,16.409369,10.599753,-8.814436,-1
396,397,1583549314394,12.2469,2.8325999,-12.0931,18.30575,11.479986,-11.9782,-1
397,398,1583549314405,13.445,3.5402,-14.825299,18.72619,11.796643,-13.766410999999998,-1
398,399,1583549314415,13.6598,3.6404998,-16.184399,18.901428,11.423896000000001,-14.821468,-1
399,400,1583549314425,13.6538,2.8657,-17.09,18.46416,10.263349,-15.407693,-1
400,401,1583549314435,13.0306,1.7138,-17.322899,17.748773999999997,9.436928,-15.376588,-1
401,402,1583549314445,12.2589,0.9517,-17.355099,16.618567000000002,8.554148,-15.735555999999999,-1
402,403,1583549314456,11.0975,-0.0257,-17.8193,15.543674,7.8351880000000005,-16.443376999999998,-1
403,404,1583549314466,10.1566,-0.5758,-18.5996,14.509159,7.449501,-17.663002,-1
404,405,1583549314476,9.3889,-0.8976,-19.595299,13.98683,7.134682700000001,-18.089370000000002,-1
405,406,1583549314486,8.8413,-1.3404,-19.769999,13.367067,6.650431599999999,-17.491617,-1
406,407,1583549314496,8.406,-1.7557,-18.994799,13.299253,6.410791000000001,-16.396832999999997,-1
407,408,1583549314506,8.4861,-2.0959,-17.4135,13.326097500000001,5.8235126,-14.127294000000001,-1
408,409,1583549314517,8.457499499999999,-2.6496,-15.5167,13.000544,5.321171,-12.446545,-1
409,410,1583549314527,8.0880995,-3.1755,-13.9414,12.300834,4.622887,-11.281411,-1
410,411,1583549314537,7.3879,-3.9394,-12.859699,11.970759,3.908381,-10.420494999999999,-1
411,412,1583549314547,7.2949996,-4.5954,-11.9914,12.074428999999999,3.4684894,-9.041608,-1
412,413,1583549314557,7.3164,-5.0709,-10.465099,11.472488,2.901734,-7.1656065,-1
413,414,1583549314567,6.5934,-5.6502,-8.5865,10.430685,2.4151464,-5.1097817,-1
414,415,1583549314577,5.664,-6.0983,-6.5557,9.929837,2.0557573000000002,-3.1153162,-1
415,416,1583549314587,5.2551,-6.4537,-4.6782,9.660938999999999,1.8564926,-1.6730585999999998,-1
416,417,1583549314597,5.0095,-6.611000000000001,-3.4431998999999998,9.260255,1.7932857,-1.2949183000000002,-1
417,418,1583549314607,4.5537,-6.6601,-3.2064,8.837305,1.8927505,-1.2432132,-1
418,419,1583549314617,4.1639,-6.501,-3.1064,8.631308,2.274683,-0.9100073000000001,-1
419,420,1583549314627,3.9863,-6.0607,-2.6684,9.165693,2.7948763,-0.06631939,-1
420,421,1583549314637,4.7478,-5.5323997,-1.6149,10.65504,3.4088836000000002,1.8919461,-1
421,422,1583549314648,6.117999999999999,-4.8859,0.54399997,11.078622,3.7311525000000003,3.9604309,-1
422,423,1583549314658,6.1569,-4.541,3.0797,10.281056,4.0097513,6.4393015,-1
423,424,1583549314668,5.4361997,-4.3287,4.5779,9.979778999999999,4.532846,6.544857,-1
424,425,1583549314678,5.0966,-3.7879,4.700599700000001,9.483404,5.1822305,6.400965,-1
425,426,1583549314688,4.3515997,-2.9547,4.5972,7.943242999999999,6.1176260000000005,6.5989656000000005,-1
426,427,1583549314698,2.96,-2.1598,4.8431,6.971647,6.5434203,7.433125,-1
427,428,1583549314709,1.7651,-1.6635,6.0548997,6.296069999999999,6.641429400000001,10.447961,-1
428,429,1583549314719,1.2139,-1.5782,8.6791,6.3052163,6.7491875,13.109193,-1
429,430,1583549314729,1.2557,-1.3712,11.954599,6.9670315,6.9217424,16.91875,-1
430,431,1583549314739,1.7646998999999999,-1.1826,14.9825,7.2738147,6.9414897,19.454565,-1
431,432,1583549314749,2.0217,-1.1001999,17.416199,7.3237380000000005,7.2204337,20.791294,-1
432,433,1583549314761,2.0224,-0.7707,18.670399,6.5391010000000005,7.4410929999999995,20.347284,-1
433,434,1583549314772,-0.2959,-0.36249998,16.6464,4.4600434,7.617449799999999,18.036537,-1
434,435,1583549314782,-1.7562,-0.24489999,14.4619,3.3701453000000003,7.7061887,16.143411999999998,-1
435,436,1583549314793,-2.6049,-0.1559,12.0083,2.5697252999999995,7.8743476999999995,13.218982,-1
436,437,1583549314803,-2.9545999,0.118499994,9.787,2.3814168,8.186427,10.950121000000001,-1
437,438,1583549314813,-2.9445,0.34849998,7.5871997,2.4692168,8.350113,9.2133,-1
438,439,1583549314823,-2.8107,0.5367,5.811,2.6406894,8.49731,7.330739,-1
439,440,1583549314833,-2.6301,0.48700000000000004,4.973099700000001,2.9251973999999996,8.375577999999999,6.9758130000000005,-1
440,441,1583549314844,-2.1866,0.37579998,5.1816,3.4362445,8.275567,7.3986964,-1
441,442,1583549314854,-1.8109,0.2875,5.6006,3.8041089,8.077912,7.764530000000001,-1
442,443,1583549314864,-1.5399,0.089499995,5.6463,4.058421,7.926857000000001,7.5077567,-1
443,444,1583549314874,-1.3742,0.0632,5.106,4.1518717,7.9404273000000005,6.570063,-1
444,445,1583549314885,-1.2566,0.09999999400000001,3.9564,4.476161,8.035343,5.1968737,-1
445,446,1583549314895,-0.8655,0.2223,2.5266,4.7604775,8.132845,3.8837205999999997,-1
446,447,1583549314905,-0.68119997,0.3051,1.4036,4.860651,8.233516,2.9743454,-1
447,448,1583549314915,-0.62439996,0.3811,0.6719,4.991153700000001,8.226448,2.6078699,-1
448,449,1583549314925,-0.4603,0.36409998,0.5988,5.187200499999999,8.170444,2.9795551,-1
449,450,1583549314936,-0.3287,0.28689998,1.0817,5.242746,8.011018,3.4394622000000004,-1
450,451,1583549314946,-0.2805,0.1951,1.286,5.4932375,8.048282,3.3402752999999996,-1
451,452,1583549314956,-0.010199999,0.2945,1.1292,6.0113235000000005,8.250639999999999,3.3347495000000005,-1
452,453,1583549314966,0.5733,0.52959996,1.0684999,6.7502985,8.492205,3.0839999999999996,-1
453,454,1583549314976,1.2758,0.769,0.7301,7.091482000000001,8.532303,2.6418962,d
454,455,1583549314986,1.5223,0.77419996,0.1937,6.9766655,8.495346000000001,2.083176,-1
455,456,1583549314997,1.2866,0.7414,-0.1856,6.666003,8.475521,1.9603436,-1
456,457,1583549315007,0.5879,0.6152,-0.3706,5.730053,8.266872,1.6071796,-1
457,458,1583549315017,0.0708,0.47939998,-0.64779997,5.521086,8.281831,1.6676764,-1
458,459,1583549315028,-0.0541,0.52639997,-0.4949,5.8200746,8.3963785,2.5851345,-1
459,460,1583549315038,0.2489,0.6303,0.2968,6.0526667000000005,8.488565,3.6018657999999997,-1
460,461,1583549315048,0.49969998,0.73859996,1.2784,6.107417,8.572986,4.0615239999999995,-1
461,462,1583549315058,0.5524,0.83529997,1.7025,6.155607,8.639544,3.9745185,-1
462,463,1583549315068,0.6321,0.9059,1.507,6.6980095,8.894421000000001,3.0271137,-1
463,464,1583549315078,1.1410999,1.1449,0.6762,6.836375,9.094135000000001,1.9451740000000002,-1
464,465,1583549315089,1.2796,1.3271998999999999,-0.3593,6.5112233,9.120808,1.1882806000000001,-1
465,466,1583549315099,0.96419996,1.3368,-1.0669,5.9894404,9.189261,1.0413724,-1
466,467,1583549315110,0.45889997,1.3843,-1.186,5.567304,9.112983,1.3172419,-1
467,468,1583549315120,-0.0416,1.2772,-0.7748,5.0612755,9.324113,2.2809463,-1
468,469,1583549315130,-0.3155,1.6947999,0.6024,5.2113633,9.599264999999999,2.9250824,-1
469,470,1583549315140,-0.072399996,1.9433,1.0823,5.422378500000001,9.861066000000001,3.4253843,-1
470,471,1583549315150,0.1213,2.1919999999999997,1.435,5.5970597,10.124073,3.7404900000000003,-1
471,472,1583549315160,0.54039997,2.6548998,1.5783,6.0913663,10.652339999999999,3.8538027,-1
472,473,1583549315171,1.4214,3.3206,1.4849,6.9956374000000014,11.33281,3.7388237,-1
473,474,1583549315181,2.1713,3.9624998999999996,1.4215,7.661254,12.008194999999999,3.737301,-1
474,475,1583549315191,2.5017998,4.7274,1.7866,7.8502426,12.778659,4.2586527,-1
475,476,1583549315201,2.3562999,5.3027,2.9355,7.560275999999999,13.342051999999999,5.5989842,-1
476,477,1583549315211,1.8524,5.729,4.6496,6.9672894,13.778583,7.4592695,-1
477,478,1583549315221,1.3896998999999999,6.046,6.651,6.4505156999999995,14.115677,9.532955000000001,-1
478,479,1583549315232,1.0723,6.5169,8.2786,6.118641,14.663155,11.058530000000001,-1
479,480,1583549315242,1.3677,7.218899700000001,9.0131,6.464354,15.405615,11.729500999999999,-1
480,481,1583549315252,2.1789,8.003799,9.150499,7.389616999999999,16.46617,11.666762,-1
481,482,1583549315262,3.1383,8.8481,8.5562,8.278153,17.297188000000002,10.988706,-1
482,483,1583549315272,4.200599700000001,9.4362,7.8283,9.023545,17.707544,10.4932785,-1
483,484,1583549315282,5.0199,9.559899,7.7096995999999995,9.638605,17.803064000000003,10.748778,-1
484,485,1583549315292,5.2374997,9.2274,8.4282,9.375244,17.353776999999997,11.53739,-1
485,486,1583549315303,4.6987,8.573,9.0841,8.364460000000001,16.87102,11.939884,-1
486,487,1583549315313,3.7940998,8.1164,9.09,7.545393499999999,16.616278,11.684192999999999,-1
487,488,1583549315323,3.4603998999999996,7.3823,8.1722,7.054410000000001,15.789157000000001,10.160849,-1
488,489,1583549315333,3.5477,6.4168997,6.5483,6.868505,14.847957999999998,8.275528999999999,-1
489,490,1583549315343,3.6039,5.0403,4.795099700000001,6.606589,13.45911,6.4900775,-1
490,491,1583549315353,3.3908,3.4543,3.5107,5.925477,12.025903,5.360254,-1
491,492,1583549315363,3.0307999,1.9869,2.9345,5.351835299999999,10.744889,4.8788276,-1
492,493,1583549315374,2.6636999,0.611,2.8501,4.464860400000001,9.476595,4.725378500000001,-1
493,494,1583549315384,1.7759999,-0.6729999999999999,2.8381998999999998,3.0285787999999996,8.209085,4.3495173,-1
494,495,1583549315394,1.1179,-1.7962999,2.4679,2.5452566,7.1941547,3.715983,-1
495,496,1583549315404,0.9845,-3.2189,1.7074,1.9558425,5.838443,2.6008787,-1
496,497,1583549315414,0.66459996,-4.1172,0.9245,1.542249,5.226667,1.8293712,-1
497,498,1583549315424,0.64419997,-5.0027,0.1661,1.4756614,4.341291,0.82391185,-1
498,499,1583549315434,1.0648,-5.6025996,-0.53929996,2.854147,4.308835500000001,-0.16345695,-1
499,500,1583549315445,3.6239,-5.1541,-1.5373,5.210348000000001,4.8225927,-1.4666975,-1
500,501,1583549315455,5.1905,-5.1012,-2.4364998,4.9611790000000004,4.338648,-1.6548626,-1
501,502,1583549315465,4.3206,-5.6707997,-1.9489,3.35963,3.7487454,-0.82980156,-1
502,503,1583549315475,2.7612997999999997,-6.402,-0.9519,1.4744452,2.800287,-0.29103917,-1
503,504,1583549315486,1.0897,-7.3826,-0.5958,-0.7242364,1.9500678,-0.8491084000000001,-1
504,505,1583549315496,-0.4522,-7.9252996,-1.171,-1.9323602,1.6386396,-2.4268491,-1
505,506,1583549315506,-1.2817999,-8.206799499999999,-2.6889,-2.4392414000000002,1.2834261999999999,-4.1489697,-1
506,507,1583549315516,-1.5777999,-8.5329,-4.0912,-2.7548642000000005,1.1815096999999999,-5.178275599999999,-1
507,508,1583549315526,-1.7865,-8.5735,-4.7704,-2.7991092,1.0903962,-5.407936599999999,-1
508,509,1583549315536,-1.2715,-8.6067,-4.8066,0.02933376,1.8573451,-5.644407299999999,-1
509,510,1583549315547,1.8197,-7.6152997000000004,-4.9093,2.2669067000000003,2.7876265,-5.7713575,-1
510,511,1583549315557,3.7814,-6.6874,-4.8567,2.335429,3.0295272,-4.893231,-1
511,512,1583549315567,3.1897,-6.7233,-3.6597,0.9891884,2.837445,-2.8518965,-1
512,513,1583549315577,1.7906,-6.9280996,-1.5360999,-0.5616797,2.5280664,-0.7913507,-1
513,514,1583549315588,0.3199,-7.232199700000001,0.3811,-1.4613345,2.4140928,0.29817387,-1
514,515,1583549315598,-0.3218,-7.2914996,1.1466,-0.9925594000000001,2.4608178,-0.36871666,-1
515,516,1583549315608,0.121999994,-7.2528996,0.5179,-0.277057,2.7053425,-1.6369923000000002,-1
516,517,1583549315619,1.0139999,-6.9199996,-1.0573,1.639693,3.6234230000000003,-3.6891775,-1
517,518,1583549315629,2.6139997999999998,-6.0874,-2.6827998,3.7977114000000003,5.0404267,-4.4739394,-1
518,519,1583549315639,4.6972,-4.6772,-3.4261,4.7014747,6.102044599999999,-3.9203424,-1
519,520,1583549315649,5.5403,-3.6099,-2.8332,3.822908,6.3300776,-2.5981972,-1
520,521,1583549315660,4.6389,-3.3938,-1.4843,2.5263138,6.202888,-1.4524568000000002,-1
521,522,1583549315670,3.003,-3.5572,-0.093499996,0.6454193,6.030515,-0.7531584,-1
522,523,1583549315680,1.4806,-3.6780998999999994,0.42949998,-0.48048756,6.0028863,-1.4055976000000001,-1
523,524,1583549315690,0.2276,-3.2761,-1.4143,-0.6027163000000001,6.5108976,-2.9916031000000003,-1
524,525,1583549315700,0.6868,-2.8348,-2.5816998,-0.037770927,6.940015299999999,-4.187248,-1
525,526,1583549315711,0.6868,-2.8348,-2.5816998,0.49173072,7.4451339999999995,-4.892666,-1
526,527,1583549315721,1.7494999,-1.4489,-3.9842,1.0364691,8.33663,-5.550162,-1
527,528,1583549315732,2.0739,-1.0746,-3.9684,1.3572346000000002,8.618724,-5.421488,-1
528,529,1583549315742,2.0047,-1.0072,-3.2114,1.1602206,8.658113499999999,-4.5494814,-1
529,530,1583549315752,1.3198,-1.0201,-2.1578,0.30955112,8.631355000000001,-3.259629,-1
530,531,1583549315762,0.742,-1.1116999,-1.2188,-0.16833153,8.531460000000001,-2.3754406,-1
531,532,1583549315772,0.3441,-1.1242,-0.40469998,-0.6783252,8.595931,-1.6316389,-1
532,533,1583549315782,-0.2298,-0.91959995,0.044999998,-1.1596076000000002,8.866025,-1.4110755,-1
533,534,1583549315793,-0.5421,-0.6939,-0.1113,-1.3423426,9.064094,-1.8044810000000002,-1
534,535,1583549315803,-0.536,-0.4572,-0.71849996,-1.2552896,9.288555,-2.4054832000000004,-1
535,536,1583549315814,-0.3286,-0.26929998,-1.2436,-0.94534576,9.399598,-3.0286171000000004,-1
536,537,1583549315824,-0.1236,-0.2683,-1.6732999,-0.7360638,9.407603,-3.2600408,-1
537,538,1583549315835,0.1003,-0.2391,-1.7181,-0.48299667,9.446371000000001,-3.1710434,-1
538,539,1583549315846,0.2854,-0.2112,-1.5461,-0.5095244000000001,9.568341,-2.6681654,-1
539,540,1583549315856,0.1497,-0.0863,-1.0199,-0.8731271,9.5729475,-1.8670751,d
540,541,1583549315866,-0.276,-0.1384,-0.214,-1.3876985000000002,9.433748,-1.1452806999999998,-1
541,542,1583549315876,-0.7579,-0.2879,0.4376,-1.5904107,9.318626,-0.77778035,-1
542,543,1583549315887,-0.8987,-0.3872,0.66639996,-1.6060305000000001,9.280185000000001,-0.999675,-1
543,544,1583549315897,-0.8918,-0.4067,0.3885,-1.412311,9.3273115,-1.4372201,-1
544,545,1583549315907,-0.6659,-0.3179,-0.0938,-1.054483,9.550011,-2.2221830000000002,-1
545,546,1583549315917,-0.31559998,-0.0716,-0.91929996,-0.6883425999999999,9.828649,-3.0428962999999998,-1
546,547,1583549315927,0.0296,0.1642,-1.6396998999999999,-0.13687173,10.008911999999999,-3.3675406000000003,-1
547,548,1583549315937,0.58379996,0.3793,-1.8559999999999999,0.26904124,10.169554,-3.3342898,-1
548,549,1583549315947,0.8490000000000001,0.4865,-1.7939999,0.3307446,10.095506,-3.290945,-1
549,550,1583549315958,0.8745,0.3891,-1.8043,0.32037294,9.997143,-3.6326935,-1
550,551,1583549315968,0.84059995,0.2749,-2.3983998,0.3074538,10.035938,-5.047494,-1
551,552,1583549315978,0.85179996,0.3602,-3.4554,0.75532275,10.082309,-6.6222086,-1
552,553,1583549315988,1.2947999,0.4179,-4.9732,1.5056176000000001,10.003185,-7.944315400000001,-1
553,554,1583549315999,2.0449998,0.34669998,-6.2528,2.1305522999999997,9.869091000000001,-8.006488000000001,-1
554,555,1583549316008,2.6506998999999998,0.2127,-6.2988,2.5028217,9.632093,-7.680484,-1
555,556,1583549316018,3.0758997999999997,-0.1013,-5.9135,2.8303583,9.308063,-7.593210000000001,-1
556,557,1583549316028,3.3251998,-0.3477,-5.8763,3.265605,9.274774,-8.051892,-1
557,558,1583549316038,3.7445,-0.377,-6.3331,3.9317963,9.120041,-9.22462,-1
558,559,1583549316048,4.4049997,-0.53139997,-7.4941998,4.5565586,9.152391,-10.888628,-1
559,560,1583549316058,5.0253997,-0.49719998,-9.1255,4.852462999999999,8.929155999999999,-12.230166,-1
560,561,1583549316069,5.3462,-0.7073,-10.452499000000001,4.4600534000000005,8.28253,-12.773602499999999,-1
561,562,1583549316079,4.987,-1.3605,-10.9712,3.5633574,7.6899557000000005,-12.600271000000001,-1
562,563,1583549316089,4.139199700000001,-1.9498999,-10.8238,2.6519709,7.035582000000001,-11.707292,-1
563,564,1583549316099,3.2645998,-2.6145,-9.9895,1.8947808000000002,6.423883,-9.930057000000001,-1
564,565,1583549316109,2.5528,-3.2364,-8.302199,1.7498455000000002,5.8064084000000005,-7.487406299999999,-1
565,566,1583549316120,2.5247998,-4.4982,-4.0601997,1.7902308999999998,5.082191000000001,-5.0436825999999995,-1
566,567,1583549316131,2.5960999,-5.0532,-2.4528,1.8543188999999998,4.553618,-3.3184977,-1
567,568,1583549316140,2.5960999,-5.0532,-2.4528,1.8597105999999999,4.282853599999999,-2.4014225,-1
568,569,1583549316150,2.1759,-5.5849,0.3005,1.1778803,4.139201,-0.36919546,-1
569,570,1583549316160,1.078,-5.7095,1.6586,-0.051082685999999995,3.9880793,1.1372937,-1
570,571,1583549316170,1.078,-5.7095,1.6586,-1.0837785,3.7688565,2.7560902,-1
571,572,1583549316181,-1.4039999,-6.4571,6.2451,-2.558875,3.2389526,6.3299055,-1
572,573,1583549316191,-2.1244,-6.6791,9.5043,-3.2762928,3.0257635,10.321088,-1
573,574,1583549316201,-2.4424,-6.7931,13.554198999999999,-3.4072553999999995,2.996104,14.425324,-1
574,575,1583549316211,-2.3323,-6.5832996,16.9464,-3.211199,3.2505214,17.409868,-1
575,576,1583549316222,-2.1966999,-6.3441997,19.6447,-3.1284652000000004,3.443724,20.145552,-1
576,577,1583549316232,-2.5519,-6.3402996,22.4896,-3.5446348,3.5082524,24.06934,-1
577,578,1583549316242,-3.0721998,-6.1979999999999995,26.3948,-3.993902,3.6587712999999997,28.49012,-1
578,579,1583549316252,-3.5990998999999997,-6.0838,30.857198999999998,-4.272835700000001,3.8234443999999996,32.67795,-1
579,580,1583549316262,-3.4552,-5.6756997,33.4152,-3.5660870000000005,4.3608184,33.845535,-1
580,581,1583549316273,-2.4733,-5.0737,32.2604,-2.4066324,5.0094647000000005,31.314290999999997,-1
581,582,1583549316282,-1.5414,-4.2283,28.4846,-1.2439506,6.0526089999999995,27.091944,-1
582,583,1583549316292,-0.2601,-2.9994,24.2864,0.34777215,7.234051700000001,22.64074,-1
583,584,1583549316302,1.291,-2.0293,19.8165,2.1814720000000003,8.183707,18.088665,-1
584,585,1583549316312,2.8978999,-0.98499995,15.9876995,3.4482825,9.0490675,15.218092,-1
585,586,1583549316322,3.6675,0.0942,13.4964,4.256583999999999,10.109939,12.769302,-1
586,587,1583549316333,4.1352997,1.3054999,11.326699000000001,5.2394233,11.700157,9.680055,-1
587,588,1583549316343,5.2997,2.7865999,7.7181997,6.8528185,12.986936,5.244796,-1
588,589,1583549316353,6.8805,3.7247,3.034,8.450096,13.675229999999999,0.52745223,-1
589,590,1583549316363,7.7815,4.1583,-1.0303,9.08362,13.872110000000001,-3.375834,-1
590,591,1583549316373,7.7735,4.0751,-4.3374,9.089577,13.683159,-6.6722856,-1
591,592,1583549316384,7.8181996,4.1979,-7.4147,9.567652,14.135654,-10.533846,-1
592,593,1583549316394,8.276,4.7697997,-10.425999999999998,10.181305,14.638310999999998,-12.86417,-1
593,594,1583549316404,8.9507,5.436,-13.030399000000001,10.793922,15.224374,-15.373906,-1
594,595,1583549316414,9.1364,5.9304,-15.188298999999999,10.880124,15.550004999999999,-17.333023,-1
595,596,1583549316424,8.8267,5.9075,-16.1465,10.296821000000001,15.089944000000001,-17.530642999999998,-1
596,597,1583549316435,8.0574,5.1997,-16.0357,9.540109,14.187904999999999,-17.186804000000002,-1
597,598,1583549316445,7.4609,4.3673997,-15.663898999999999,9.720429,13.596997,-16.842741,-1
598,599,1583549316455,8.3181,4.0029,-15.570998999999999,11.377036,13.500387,-17.510147,-1
599,600,1583549316465,10.0808,3.8941998,-16.9979,12.639842999999999,13.164039,-19.585115,-1
600,601,1583549316476,10.6417,3.2939999999999996,-18.9317,11.739403999999999,11.845332,-20.7643,-1
601,602,1583549316486,9.4649,2.0109,-19.487999,10.160896000000001,10.549743,-20.331293,-1
602,603,1583549316496,7.370899700000001,0.24929999,-18.5478,7.6953473,8.4280205,-18.377241,-1
603,604,1583549316506,5.5729,-1.4286,-16.8279,6.719192999999999,7.2357949999999995,-16.664928,-1
604,605,1583549316517,4.948,-2.5274,-15.2835,7.0807366,6.598678,-15.515011,-1
605,606,1583549316527,5.4895997,-3.0925999,-14.345598999999998,7.3240547000000005,6.208184200000001,-14.899404999999998,-1
606,607,1583549316537,5.6229,-3.497,-13.7887,7.154793700000001,5.8779182,-14.390148000000002,-1
607,608,1583549316547,5.4028997,-3.9382,-13.1421995,6.633069,5.4287279999999996,-13.540982000000001,-1
608,609,1583549316557,4.9649997,-4.2795,-12.445399,6.3366,5.1354,-12.796348,-1
609,610,1583549316567,4.776799700000001,-4.5608,-11.6875,6.28568,4.974385,-12.038851,-1
610,611,1583549316578,4.7676997000000005,-4.7235,-10.9528,6.456156299999999,4.899207,-11.462595,-1
611,612,1583549316588,5.1052,-4.7485,-10.4611,7.1808815,4.9868635999999995,-10.879559,-1
612,613,1583549316598,5.7124996,-4.6854997,-9.991,7.0474570000000005,4.8308573,-9.675025999999999,-1
613,614,1583549316608,5.5955,-4.8399997,-8.8333,6.685903999999999,4.52733,-8.123852000000001,-1
614,615,1583549316618,5.1566,-5.2412,-6.9112,6.2023807,4.148395,-5.823225,-1
615,616,1583549316628,4.7149997,-5.6129,-4.6784,5.7470703,3.9558053,-3.2889724,-1
616,617,1583549316638,4.3564,-5.7379999999999995,-2.6706,5.266535299999999,3.8313835,-1.3799700000000001,-1
617,618,1583549316648,3.8837,-5.8707,-0.8373,4.7093370000000006,3.8033907,-0.56331736,-1
618,619,1583549316658,3.2164998,-5.9028997,0.0209,4.55336,3.8563980000000004,-0.44719857,-1
619,620,1583549316668,3.1532,-5.8539,0.0064,4.9942665,3.9888837,-0.44918096,-1
620,621,1583549316679,3.7212,-5.6749997,0.0175,5.997686,4.1137652000000005,0.39724594,-1
621,622,1583549316688,4.5346,-5.5931,0.7170000000000001,5.8957120000000005,3.8697386,1.5237370000000001,-1
622,623,1583549316698,4.2307,-5.9428,2.1185,4.500534,3.04937,4.2650504,-1
623,624,1583549316708,2.9615998,-6.6457,4.3806,3.1793656,2.4779222,6.5759435,-1
624,625,1583549316718,1.2897999,-7.3471,7.1207,1.6954396,1.8866214,9.318156,-1
625,626,1583549316728,-0.1775,-7.8978996,9.722000000000001,0.60874015,1.4598118,12.422996000000001,-1
626,627,1583549316739,-1.0769,-8.208099,12.1735,-0.0009959879,1.3275656999999998,14.909327,-1
627,628,1583549316749,-1.7658999,-8.326,14.5505,-0.63071895,1.0865653,17.096218,-1
628,629,1583549316759,-2.4995,-8.5357,16.6559,-0.4670513,1.0005655999999998,18.768291,-1
629,630,1583549316770,-2.4758,-8.5903,18.232198999999998,-0.09945514,1.2631329,19.918629,-1
630,631,1583549316780,-2.2984,-7.6726,20.3043,-0.0006991069,1.9177939,21.08631,-1
631,632,1583549316790,-3.1378999,-7.1843,20.1248,-0.7001699,2.3230557000000003,20.838566,-1
632,633,1583549316801,-3.1378999,-7.1843,20.1248,-0.8028907,2.5775783,20.150175,-1
633,634,1583549316812,-2.9608998,-6.2176,18.3486,0.5002445,3.4159417000000003,19.06729,-1
634,635,1583549316822,-2.0087,-5.3427,17.9665,1.6869545,4.130706299999999,18.855439999999998,-1
635,636,1583549316832,-1.2018,-4.6345997,17.958,2.5969331,4.7905006,18.830961,-1
636,637,1583549316842,-0.74009997,-3.8195,17.5706,3.2728355,5.4481782999999995,18.272163,-1
637,638,1583549316852,-0.74009997,-3.8195,17.5706,3.817593,5.65316,17.838097,-1
638,639,1583549316862,0.49859998,-3.037,15.875798999999999,5.0845375,5.773464,16.58587,-1
639,640,1583549316873,1.3248,-2.9612,15.0994,6.071964,5.750403400000001,16.024181,-1
640,641,1583549316883,2.7180998,-2.787,14.3797,8.080699000000001,5.804378,15.283377,-1
641,642,1583549316893,4.1018,-2.2993,13.9038,9.778877,6.559174499999999,14.797488000000001,-1
642,643,1583549316903,5.8714,-0.7736,12.9351,12.0190935,8.14628,13.536404999999998,-1
643,644,1583549316913,7.8366,0.9033,11.1219,13.731407,9.463149000000001,11.458094000000001,-1
644,645,1583549316923,8.3722,1.9375,8.5938,13.901260999999998,10.059727,8.839852,-1
645,646,1583549316933,7.6558,2.3006,5.8698997,13.181469,9.972885,6.1700683,-1
646,647,1583549316944,6.8729997,2.0114,3.2605,12.789663000000001,9.513149,3.9561405,-1
647,648,1583549316954,6.8559,1.5679,1.3105999,13.202012,8.750434,2.1014578,-1
648,649,1583549316964,7.0533,1.0773,0.4698,13.356235999999999,8.286800999999999,2.4526682,-1
649,650,1583549316974,6.9672,1.0397999,1.3284,13.187176999999998,8.706467,3.7195263,-1
650,651,1583549316984,6.7063,1.9659,2.1780999,13.431251000000001,9.649438,3.8221133000000003,-1
651,652,1583549316994,7.7474,3.4629,0.99869996,15.715079999999999,11.313494,1.1893245000000001,-1
652,653,1583549317004,9.881599000000001,4.8473,-2.2345,17.487059,12.194339999999999,-2.4599178,-1
653,654,1583549317015,10.977099,5.5344,-5.9554996,17.79093,12.395519,-5.7477026,-1
654,655,1583549317025,10.7851,5.6045,-8.8446,17.36277,12.101263000000001,-7.9037957,-1
655,656,1583549317035,10.2289,5.2589999999999995,-10.5176,16.795382999999998,11.585763,-8.987115,-1
656,657,1583549317045,9.5837,4.7019997,-11.221499,15.910907,10.864274,-8.810355,-1
657,658,1583549317056,8.3505,3.9596998999999995,-10.285299,14.357818,10.133181,-6.7275825,-1
658,659,1583549317066,6.8792,3.3916,-7.8938,13.302826000000001,9.815432000000001,-4.3439817000000005,-1
659,660,1583549317076,6.1317,3.3054,-6.1045,13.259262,9.903213000000001,-3.7630434,-1
660,661,1583549317086,6.4441,3.4239,-6.3876995999999995,13.7480135,9.902312,-4.7915160000000006,-1
661,662,1583549317096,6.812,3.3974998,-7.4708996,13.550070999999999,9.604609,-5.412122,-1
662,663,1583549317107,6.4823,3.0326,-8.0204,12.812035,8.905013,-5.605056299999999,-1
663,664,1583549317116,5.7321,2.2993,-8.1124,12.32036,8.38753,-5.379168,-1
664,665,1583549317126,5.2383,1.6940998999999999,-7.7043996,11.807897,7.7737145000000005,-4.8998485,-1
665,666,1583549317136,4.7585,1.143,-7.3152,11.112094,7.277922599999999,-4.5674953,-1
666,667,1583549317146,3.7559998,0.5316,-6.7932,9.796642,6.743930000000001,-3.6302513999999997,-1
667,668,1583549317156,2.7382998,0.1496,-5.9108,9.087441,6.5050935999999995,-2.5626863999999996,-1
668,669,1583549317167,2.1123,-0.087299995,-4.8505,8.605651,6.4011379999999996,-1.5100996000000002,-1
669,670,1583549317177,1.7177,-0.1805,-3.8646,8.411501,6.2999206,-0.6543831999999999,-1
670,671,1583549317187,1.5615,-0.2988,-3.0967,8.236811,6.0980796999999995,-0.12628935,-1
671,672,1583549317197,1.379,-0.50479996,-2.636,8.207514999999999,5.9306865,0.0063781533,-1
672,673,1583549317207,1.3866999,-0.6428,-2.5795,8.330979,5.943395,-0.019096153,-1
673,674,1583549317217,1.5279,-0.6042,-2.5621998,8.506953,6.1260343,0.10471281,-1
674,675,1583549317227,1.7082,-0.3987,-2.3978,8.825822,6.300217,0.44912349999999995,-1
675,676,1583549317238,2.0283,-0.24239999,-2.0045,8.863689,6.421689499999999,0.86615515,-1
676,677,1583549317248,1.9605,-0.117699996,-1.6367999,8.456532000000001,6.464191400000001,0.8990514000000001,-1
677,678,1583549317258,1.4958999,-0.1249,-1.6443,7.789583,6.412975,0.97437304,-1
678,679,1583549317269,0.95559996,-0.175,-1.5616,7.4467525,6.481966000000001,1.1144243,-1
679,680,1583549317278,0.6203,-0.117599994,-1.4063,7.2386293,6.548649299999999,1.2203534,-1
680,681,1583549317288,0.42049998,-0.0689,-1.2885,7.2004657000000005,6.5711070000000005,1.4105774,d
681,682,1583549317298,0.3857,-0.037499998,-1.0447999,7.114628999999999,6.5796684999999995,1.6021231000000002,-1
682,683,1583549317308,0.2823,-0.033999998,-0.8635,6.999449,6.717316,1.6821948,-1
683,684,1583549317318,0.1871,0.0906,-0.82479995,7.3027844,7.1232576000000005,1.4902852,-1
684,685,1583549317329,0.5039,0.4919,-1.0173,7.9439706999999995,7.596371,1.0264708,-1
685,686,1583549317339,1.1449,0.9736,-1.4907999,8.5602665,8.12208,0.41534609999999994,-1
686,687,1583549317349,1.7695999,1.5037,-2.1286,8.888407,8.434571,0.30083624,-1
687,688,1583549317359,2.2143,1.9025999,-2.2633997999999997,9.4678135,8.899065,0.6230671,-1
688,689,1583549317369,2.7057998,2.2677999,-1.9750999,9.613122,8.988215,1.4028393,-1
689,690,1583549317379,2.8822,2.3418,-1.2399,9.605671000000001,9.172138,2.1378784,-1
690,691,1583549317390,2.9187999,2.4952,-0.5387,9.156614999999999,9.488519,2.1744905,-1
691,692,1583549317400,2.5094,2.7767,-0.5227,9.048846000000001,9.823821,1.7549211999999998,-1
692,693,1583549317410,2.4951,3.2207,-1.0904,9.740953,11.02188,0.8232798000000001,-1
693,694,1583549317420,3.1873999,4.2482,-1.9246999,10.697609,12.041953,0.30980968,-1
694,695,1583549317430,4.1868,5.2436,-2.4881,11.510125,13.07352,0.5817144000000001,-1
695,696,1583549317440,6.2604,7.1955,-1.1182,12.908864999999999,14.200364000000002,2.2227097000000002,-1
696,697,1583549317451,7.5491996,7.8838,0.7229,14.123529999999999,14.871948000000001,4.0839815,-1
697,698,1583549317461,8.540999000000001,8.4538,1.9907,14.879667000000001,15.511648999999998,5.176245,-1
698,699,1583549317471,8.719399000000001,9.0248995,2.1963,14.851722,16.108553,5.1740427,-1
699,700,1583549317481,8.519299499999999,9.3046,1.6071999,14.562129,16.479319,4.417216000000001,-1
700,701,1583549317491,8.3249,9.6068,0.43629998,14.270678,16.903389,3.1120887,-1
701,702,1583549317501,8.3327,9.8035,-0.3055,14.180157999999999,17.175467,2.613769,-1
702,703,1583549317511,8.4705,9.9382,0.2819,14.204232999999999,17.471110999999997,3.2870283,-1
703,704,1583549317522,8.7261,10.0767,1.3021,14.309099,17.711365,4.2221839999999995,-1
704,705,1583549317532,8.953899,9.9187,1.9978999,14.428072,17.609314,4.6724763,-1
705,706,1583549317542,9.2162,9.5605,1.9051,14.420794,17.307053,4.104217,-1
706,707,1583549317552,9.2323,8.7895,1.1543,14.111377,16.46958,3.2399967,-1
707,708,1583549317562,8.8598995,7.5014997,0.9305,13.506888,15.5468445,3.15211,-1
708,709,1583549317572,8.2175,6.1832,1.6028999,12.505088,14.200211,4.08016,-1
709,710,1583549317582,7.6966,4.9653,3.2663999,11.857753,13.417076999999999,5.442346,-1
710,711,1583549317593,7.0741997,3.7312999,4.8901,10.657434,11.917253500000001,6.8434615,-1
711,712,1583549317603,5.9897,1.9427999,5.643399700000001,8.935899000000001,10.228059,7.15896,-1
712,713,1583549317615,4.196399700000001,-0.0049,5.7829,6.591409700000001,8.383105,6.862787700000001,-1
713,714,1583549317625,4.196399700000001,-0.0049,5.7829,5.0989122,7.3673896999999995,6.399165,-1
714,715,1583549317635,0.3391,-3.4796998999999995,4.6025,1.9566183000000001,5.2419996,5.045857,-1
715,716,1583549317646,-0.90959996,-4.7127,4.0813,0.86743844,4.185601,4.703457,-1
716,717,1583549317657,-1.2255,-5.7764997000000005,4.2799,0.84211737,3.2278435,5.4173026,-1
717,718,1583549317667,-0.7467,-6.5677,5.0866,1.1894681,2.551951,5.5537339999999995,-1
718,719,1583549317677,-0.1506,-7.3258996,5.1184998,0.8513877000000001,1.5609429,4.660122,-1
719,720,1583549317687,-0.3773,-8.415999000000001,4.2532997,-0.46037626,0.45563576,3.2175007,-1
720,721,1583549317697,-1.5311999,-9.5435,2.9134998,-1.844493,-0.196382,2.0878396,-1
721,722,1583549317707,-2.952,-10.2076,1.7306,-3.5857669999999997,-0.8094796,0.8804915999999999,-1
722,723,1583549317718,-3.9471998,-10.7232,1.0311999,-4.533785,-1.4038066999999999,0.5562784000000001,-1
723,724,1583549317728,-4.5513,-11.2894,0.9711,-5.121618700000001,-1.7145166,1.0909516000000001,-1
724,725,1583549317738,-4.8244,-11.4883995,1.6773,-4.582042700000001,-1.2811948,2.0592914,-1
725,726,1583549317748,-4.0677,-11.0489,2.4905,-3.2166386,-0.7561272,2.076635,-1
726,727,1583549317758,-2.0156,-10.325999999999999,2.3639997999999998,0.4655956,0.6212858,0.86961234,-1
727,728,1583549317769,1.1632,-9.1631,1.2868998999999999,1.4556938,0.97319514,0.6154439,-1
728,729,1583549317779,2.2851999,-8.7939,1.1398,0.7838233,1.0195756,2.2856486,-1
729,730,1583549317789,1.6932,-8.7459,2.6587,-0.28105053,1.0267487,4.043404600000001,-1
730,731,1583549317800,0.7757,-8.7237,4.4003,-1.6497294999999998,0.781726,4.611203700000001,-1
731,732,1583549317810,-0.17469999,-8.9233,5.0436997,-2.7469822999999995,0.8929223,3.4018349999999997,-1
732,733,1583549317820,-2.1032,-8.5829,1.4741,-3.5673127,1.1421492,0.5884180999999999,-1
733,734,1583549317830,-1.818,-8.2662,-0.3538,-3.2186977999999997,1.5698686000000002,-1.1619731000000002,-1
734,735,1583549317840,-1.818,-8.2662,-0.3538,-2.7050072999999997,2.3114102,-1.9597977,-1
735,736,1583549317850,0.217,-6.4002,-1.2487999,-0.9626511000000001,3.4749443999999996,-1.4739664,-1
736,737,1583549317860,0.217,-6.4002,-1.2487999,0.43134898,4.237325,-0.039159562,-1
737,738,1583549317870,2.7285,-4.7848997,2.6137,1.2610643,4.967969,2.7563294999999997,-1
738,739,1583549317880,2.5458998999999998,-4.6196,4.3822,0.98751247,5.1174245,4.3123693,-1
739,740,1583549317890,1.9627999,-4.4102,4.366699700000001,0.29153714,5.3089319999999995,3.8253405,-1
740,741,1583549317901,1.2472,-4.1576,1.9971,-0.45757025,5.622696400000001,1.0935756,-1
741,742,1583549317911,1.2472,-4.1576,1.9971,-1.1402912,6.1292805999999995,-1.3140241000000001,-1
742,743,1583549317921,-0.7459,-2.843,-3.2001998,-2.6360544999999997,6.896986500000001,-3.9068007000000007,-1
743,744,1583549317931,-0.7459,-2.843,-3.2001998,-3.348291,6.943223,-3.6063763999999994,-1
744,745,1583549317941,-1.5544,-2.674,-1.2336999,-3.2203162,7.01457,-1.2311368,-1
745,746,1583549317952,-1.3284999,-2.4499,0.8068,-2.9117900000000003,7.2920774999999995,0.5690538,-1
746,747,1583549317962,-1.3284999,-2.4499,0.8068,-1.9698247,7.6564274,0.9555259,-1
747,748,1583549317972,1.0235,-1.2701,0.73579997,-0.49563807,8.574729,0.02642241,-1
748,749,1583549317982,1.216,-0.46739998,-0.72609997,-0.68644637,9.383834,-1.7827321,-1
749,750,1583549317992,0.45189998,-0.092999995,-1.8411,-1.374061,9.612997,-2.410099,-1
750,751,1583549318002,-0.4179,-0.0009,-1.7902,-2.3676068999999997,9.646363000000001,-2.184776,-1
751,752,1583549318012,-0.92069995,-0.085,-1.3847,-2.6625247000000005,9.530178,-1.8576994999999998,-1
752,753,1583549318023,-1.0352,-0.2094,-1.1545,-2.7177732000000003,9.435941999999999,-1.8277144,-1
753,754,1583549318033,-0.914,-0.1986,-1.4326,-2.4765334,9.526691,-2.0569258,-1
754,755,1583549318043,-0.43159997,0.0547,-1.4467,-1.8929133000000002,9.80938,-1.8721508000000002,-1
755,756,1583549318053,0.062099997000000004,0.30589998,-1.0203999,-1.5211321000000002,10.062284,-1.3732374,-1
756,757,1583549318063,0.2209,0.5175,-0.561,-1.4001675,10.22305,-0.92397034,-1
757,758,1583549318074,0.3929,0.6218,-0.16059999,-1.1859534999999999,10.329189,-0.503922,-1
758,759,1583549318084,0.4328,0.639,0.205,-1.2944683000000001,10.255745,-0.13528197,-1
759,760,1583549318094,0.14739999,0.4913,0.4806,-1.6772531000000002,10.04878,-0.018473659,d
760,761,1583549318104,-0.17199999,0.3057,0.37399998,-2.07878,9.836999,-0.36350685,-1
761,762,1583549318114,-0.5894,0.1303,-0.059299998,-2.2854762,9.780161,-0.9195554,-1
762,763,1583549318124,-0.5517,0.14019999,-0.6304,-1.9032561999999997,9.872596000000001,-1.3897288,-1
763,764,1583549318135,-0.0433,0.2463,-0.9914,-1.3603951,10.033315,-1.574427,-1
764,765,1583549318145,0.4495,0.4393,-1.0853,-0.9531700000000001,10.164258,-1.4903715,-1
765,766,1583549318155,0.8732,0.5142,-0.6953,-0.51908207,10.20086,-0.80272794,-1
766,767,1583549318165,1.1737,0.5015,-0.043399997,-0.40521383,10.02098,-0.23275472,-1
767,768,1583549318175,1.1385,0.24499999,0.3755,-0.5067567,9.832949000000001,0.11050677,-1
768,769,1583549318185,1.0719,0.1077,0.6734,-0.6324523,9.623675,0.39121255,-1
769,770,1583549318196,0.7969,-0.2338,0.8408,-1.2256876,9.128841,0.27068844,-1
770,771,1583549318206,0.2924,-0.5938,0.6716,-1.6000546,8.852015,-0.058571752000000005,-1
771,772,1583549318216,-0.0148,-0.8946,0.3584,-1.7624006,8.484264999999999,-0.15390886,-1
772,773,1583549318226,-0.1867,-1.2547,0.38529998,-2.1094353,8.207811,0.31501946,-1
773,774,1583549318236,-0.5273,-1.4977,0.9152,-2.3985305,7.82722,1.0226879999999998,-1
774,775,1583549318246,-0.7915,-1.9473,1.6159999,-2.6683953,7.3349910000000005,1.7338425,-1
775,776,1583549318257,-1.0375999,-2.3874,2.3058,-2.7686164,6.97973,2.1459994,-1
776,777,1583549318266,-1.1184,-2.7689,2.6432998,-2.9023373,6.4890337,2.5209029,-1
777,778,1583549318276,-1.2394999,-3.2682,3.0684998,-3.0191072999999995,5.995177,3.2196074,-1
778,779,1583549318286,-1.3704,-3.7970998,3.8237,-3.359314,5.2735934,4.3529553,-1
779,780,1583549318296,-1.7458999,-4.5418,5.1143,-4.01431,4.516451,6.287499400000001,-1
780,781,1583549318306,-2.4844,-5.316,7.0709,-4.9703627,3.7503733999999995,7.900952,-1
781,782,1583549318317,-3.4798,-6.0411,8.5148,-6.02905,3.0410478,8.762195,-1
782,783,1583549318327,-4.522599700000001,-6.7867,9.3075,-6.799274400000001,2.2598007,9.243984,-1
783,784,1583549318337,-5.1426997000000005,-7.5053,9.6665,-6.3450847,1.9132066000000003,8.771732,-1
784,785,1583549318347,-4.4982,-7.7966,9.0295,-5.2085094000000005,1.7537048,7.760939,-1
785,786,1583549318358,-3.3688998,-7.9358997,8.1437,-3.6576602,1.9822553,7.566290400000001,-1
786,787,1583549318368,-1.9764999,-7.6084,8.1631,-2.002989,2.8067994,7.4336033,-1
787,788,1583549318378,-0.7213,-6.8998,8.0206995,-0.59417385,3.7497604,6.582628,-1
788,789,1583549318389,0.54499996,-5.9834,7.2113,-0.94424444,4.440593,5.5473943,-1
789,790,1583549318399,0.0648,-5.2978997,6.2429,-2.5988388,4.2481756,5.1378417,-1
790,791,1583549318409,-1.7135999,-5.500499700000001,5.9003,-3.6437452000000006,3.5454964999999996,4.7206187,-1
791,792,1583549318419,-2.8897,-6.2022,5.5408998,-3.1542169999999996,3.269723,4.4158945,-1
792,793,1583549318429,-2.5584,-6.4839997,5.2883997,-0.5592471999999999,3.9458550000000003,3.8110232,-1
793,794,1583549318439,-0.1648,-5.8160996,4.687,2.7417536,5.501387,2.3612478,-1
794,795,1583549318450,5.9832,-1.4189999,0.5466,6.7525205999999995,8.956622,-0.9060138000000001,-1
795,796,1583549318460,8.068,0.903,-1.3455,8.592235,10.94085,-2.3844047,-1
796,797,1583549318470,8.068,0.903,-1.3455,8.053701,11.580515,-2.3474095,-1
797,798,1583549318480,5.7495,2.0697,-1.3488,6.197687999999999,11.653039,-2.657765,-1
798,799,1583549318490,4.6356,1.6097,-3.0166,5.4742370000000005,11.289341,-4.624477,-1
799,800,1583549318500,4.8336997,2.0763,-6.5231,6.3070072999999995,12.000285,-8.572372,-1
800,801,1583549318510,7.2040997,3.4211998,-11.175099000000001,9.061076,13.363122,-13.244599,-1
801,802,1583549318520,7.2040997,3.4211998,-11.175099000000001,11.120194999999999,14.579587,-15.990260000000001,-1
802,803,1583549318530,11.465199,6.4087,-16.3918,13.354244,16.204168,-17.659163,-1
803,804,1583549318541,11.465199,6.4087,-16.3918,13.5417,16.493013,-17.208046,-1
804,805,1583549318551,10.7599,6.2925997,-13.7168,12.540321,15.649403,-14.489038,-1
805,806,1583549318561,9.6124,5.3025,-12.5927,11.413782000000001,14.648837,-13.739242,-1
806,807,1583549318571,9.6124,5.3025,-12.5927,10.985555,13.948235999999998,-15.257816,-1
807,808,1583549318581,9.3875,4.1514,-16.4054,11.652885000000001,13.616620000000001,-18.043566000000002,-1
808,809,1583549318591,9.74,3.6966998999999996,-18.6751,11.843446,13.071756,-19.964012,-1
809,810,1583549318602,9.2246,2.7554,-18.930999999999997,11.032816,11.795092,-19.528412,-1
810,811,1583549318612,8.5061,1.5919,-17.5156,10.68807,10.732977,-17.623356,-1
811,812,1583549318622,8.7551,0.6211,-15.352599,10.983018,9.945953999999999,-15.822982999999999,-1
812,813,1583549318632,9.041699000000001,-0.36089998,-13.7372,11.248745,9.038074,-14.253736499999999,-1
813,814,1583549318643,9.2227,-1.1187,-12.5658,11.297136,8.284636500000001,-12.9940605,-1
814,815,1583549318653,8.632299,-1.9072,-11.3171,10.329411,7.381487,-11.414481,-1
815,816,1583549318663,7.7967,-2.5885,-10.2164,9.63193,6.742024000000001,-10.424106,-1
816,817,1583549318676,7.4119997,-3.3176,-9.5591,9.093886,5.9161586999999995,-9.455833,-1
817,818,1583549318686,6.8735,-3.8874998,-8.6634,8.6337595,5.609021,-8.605527,-1
818,819,1583549318696,6.8441,-4.0822,-8.220799000000001,9.057007,5.4163255999999995,-8.572966000000001,-1
819,820,1583549318706,7.3388,-4.2734,-8.2934,9.617728,5.433861,-8.190257,-1
820,821,1583549318716,8.1758995,-4.0209,-7.6358,11.127407,5.931242,-6.543248,-1
821,822,1583549318726,9.3418,-3.6785,-6.080899700000001,10.849239,6.006468,-3.9219227,-1
822,823,1583549318736,8.668799,-3.5709,-3.3602,9.20629,6.2984743,-0.3543131,-1
823,824,1583549318746,7.022599700000001,-3.2953,0.1331,8.092335,6.6061387,3.1040347,-1
824,825,1583549318756,6.0034,-2.9287999,3.2008997999999997,6.560764,7.211374,5.2710648,-1
825,826,1583549318766,4.2524,-2.2759,5.0064,4.239135299999999,7.571021000000001,6.366976999999999,-1
826,827,1583549318776,1.8768,-2.0541,5.8181,2.463509,7.4251666,6.9900446,-1
827,828,1583549318787,0.48369998,-2.1914,6.462000000000001,3.2505502999999996,7.773532400000001,8.475761,-1
828,829,1583549318797,1.742,-1.6509,8.1008,6.0186496,8.6680355,11.612194,-1
829,830,1583549318807,4.5134,-0.6537,11.4662,7.809809700000001,10.078066999999999,16.677166,-1
830,831,1583549318817,5.7888,0.9363,16.506899,8.286246,11.86007,21.764711,-1
831,832,1583549318827,6.0334997,2.7488,21.132599,7.909466,13.396104999999999,25.193724,-1
832,833,1583549318838,5.3591,4.2808,23.8998,6.296875,14.621839999999999,26.273912,-1
833,834,1583549318848,3.7119,5.3648,24.4842,3.9304650000000003,15.093353,25.775084,-1
834,835,1583549318859,1.5343,5.763,23.9102,1.8426447,14.845382,24.514097,-1
835,836,1583549318869,-0.5506,5.5116,22.6323,0.52805555,14.764869000000001,23.228248999999998,-1
836,837,1583549318879,-1.8462,5.4227,21.3275,0.64808166,15.113732999999998,22.373777,-1
837,838,1583549318889,-1.7063999,5.785599700000001,20.4469,1.0229083,15.470354,21.285631,-1
838,839,1583549318899,-1.3059,6.138499700000001,19.3158,1.0523666,15.632969000000001,20.127,-1
839,840,1583549318910,-1.525,6.0351,17.2677,0.65805113,15.329460999999998,19.116331,-1
840,841,1583549318920,-1.525,6.0351,17.2677,0.6671108,15.227209,18.389414000000002,-1
841,842,1583549318930,-1.4979,5.8587,16.4137,0.92575157,15.165477,16.702103,-1
842,843,1583549318940,-1.1528,5.757000000000001,14.789000000000001,1.5021414,15.106138,14.170178,-1
843,844,1583549318950,-0.5078,5.6801,12.3167,2.254658,15.151370000000002,11.181286,-1
844,845,1583549318960,0.3376,5.6798,9.435599,3.5328457,15.21134,8.202928,-1
845,846,1583549318970,1.5453999,5.7173,6.9677997000000005,3.8647682999999997,14.898342000000001,6.9597240000000005,-1
846,847,1583549318981,2.622,4.6203,4.4484,4.276149299999999,14.07216,5.7126225999999996,-1
847,848,1583549318991,3.1655,3.8506,4.2307997,4.695623400000001,13.303085000000001,5.5341587,-1
848,849,1583549319001,3.1655,3.8506,4.2307997,5.117012,12.533444,5.272836,-1
849,850,1583549319011,4.4192,2.4947999,3.5461,5.6629863,12.130941,4.523308,-1
850,851,1583549319025,5.0712,2.2110999,2.745,6.036606,11.713383,3.4362730000000004,-1
851,852,1583549319036,5.0641,1.5968,1.9375999,5.6154947,10.963586,2.3121762,-1
852,853,1583549319046,4.7419,0.8979,1.158,4.586036,10.012417,1.354716,-1
853,854,1583549319057,3.8978998999999996,0.066199996,0.42249998,3.496722,9.2133,0.4800853,-1
854,855,1583549319068,2.8149,-1.1331999,-0.6228,2.8302624,7.406319,-0.49498683,-1
855,856,1583549319077,2.8193,-2.7101998,-1.0969,3.2622244,5.977565,-0.41290402,-1
856,857,1583549319087,3.511,-4.0471,-0.73609996,3.8476546000000003,4.9546757,0.5454087,-1
857,858,1583549319097,4.2722,-5.0273,0.2913,4.291108599999999,4.0857244,1.0592139999999999,-1
858,859,1583549319107,4.8792,-5.8648996,0.8007,4.334281,3.3484059999999998,0.8475283000000001,-1
859,860,1583549319117,4.9016,-6.5860996,0.486,3.6086845000000003,2.520108,-0.20279846,-1
860,861,1583549319128,4.1840997,-7.4772,-0.5634,2.2132669999999997,1.4639298,-1.7032734,-1
861,862,1583549319138,2.8738,-8.5096,-1.8901999,0.5798565,0.5572265000000001,-2.9857514,-1
862,863,1583549319148,1.4434999,-9.3502,-2.9796999,-1.0750349,-0.35057816,-4.1813774,-1
863,864,1583549319158,0.27519998,-10.0497,-3.7854,-1.8524896,-0.98466814,-4.5761433,-1
864,865,1583549319168,-0.3556,-10.650499,-4.0505,-2.1132085,-1.4230943999999999,-4.6729164,-1
865,866,1583549319179,-0.5427,-11.1649,-4.0611997,-2.296049,-1.9044534,-4.7724004,-1
866,867,1583549319189,-0.5895,-11.5257,-4.058799700000001,-2.1108717999999995,-2.174998,-5.1303053,-1
867,868,1583549319199,-0.24689999,-11.8504,-4.4291,-1.6524397000000002,-2.542106,-5.7509203,-1
868,869,1583549319209,0.1775,-12.1285,-4.8733997,-1.8019146000000001,-2.8811057,-5.9815207,-1
869,870,1583549319219,0.0673,-12.4459,-5.0337,-2.3844717,-3.2500042999999996,-5.8970720000000005,-1
870,871,1583549319230,-2.1482,-13.5773,-4.4719,-4.676939,-4.2518725,-5.537721599999999,-1
871,872,1583549319243,-3.9122,-14.403899,-4.4698,-6.539992,-5.2176356,-5.834191000000001,-1
872,873,1583549319253,-5.2599998,-15.206799499999999,-5.0443,-7.563024499999999,-5.964129,-6.6326284,-1
873,874,1583549319263,-5.6064,-15.852599,-5.8497996,-7.4469156000000005,-6.5864587,-7.302076,-1
874,875,1583549319274,-4.8381,-16.4024,-5.8863,-5.917518599999999,-6.972385000000001,-6.893117,-1
875,876,1583549319284,-2.6957998,-16.473098999999998,-4.8959,-3.9056516,-6.953183,-5.5820527,-1
876,877,1583549319294,-1.7436999,-16.796098999999998,-3.4371,-3.3984065,-7.5158877,-3.6804721,-1
877,878,1583549319304,-1.9512,-17.3381,-1.6903,-3.9641278,-8.101165,-1.5406018,-1
878,879,1583549319314,-2.8028,-17.970299,0.48889998,-4.515637,-8.661322,0.65100265,-1
879,880,1583549319324,-3.4747999,-18.4952,2.3685,-4.8618097,-8.970231,2.1801314,-1
880,881,1583549319334,-3.955,-18.6751,3.4247,-5.053719,-8.962809,2.6222157000000004,-1
881,882,1583549319345,-4.1299,-18.6055,2.9715,-4.5132427,-8.804236,0.78030866,-1
882,883,1583549319355,-3.8862,-18.5098,0.4288,-4.077211,-8.525216,-2.073848,-1
883,884,1583549319365,-3.6404,-18.072699,-2.2591,-2.599059,-7.831740400000001,-4.2215333,-1
884,885,1583549319375,-1.7585,-17.223098999999998,-4.0776997,0.006655880699999999,-6.9748554,-4.785272,-1
885,886,1583549319385,0.0814,-16.435799,-3.5677,1.8658301,-6.349394,-2.313383,-1
886,887,1583549319396,1.1924,-15.949499,-0.78889996,2.6852505,-6.2366366,0.83707994,-1
887,888,1583549319406,1.0253999,-16.0228,2.2605999,2.9069536,-6.448888,4.9433370000000005,-1
888,889,1583549319416,1.0270000000000001,-15.9344,5.3044,4.320978599999999,-5.782227,6.9180839999999995,-1
889,890,1583549319426,2.7333,-14.422998999999999,6.9749,8.198953,-2.5744085,7.4770727,-1
890,891,1583549319436,5.7781997,-11.090099,6.6812997,12.356188000000001,1.1512950000000002,6.415655999999999,-1
891,892,1583549319447,9.4003,-7.1379,5.3694997,16.428005,4.328659,5.413932,-1
892,893,1583549319457,12.897699000000001,-3.9113,4.1591,20.786795,6.289472,4.269379,-1
893,894,1583549319467,16.808699,-1.8675,2.7991998,24.657951,7.324332000000001,3.7408252,-1
894,895,1583549319477,20.9117,-0.112799995,2.5416,28.094492,9.646927999999999,6.557776,-1
895,896,1583549319487,22.1348,2.5751,5.7423997,26.285318,12.876849,11.259547999999999,-1
896,897,1583549319498,19.513199,6.167000000000001,10.0603,25.348074,15.373763,14.077933999999999,-1
897,898,1583549319508,19.0275,9.0131,12.0220995,27.2405,18.403473,12.992624000000001,-1
898,899,1583549319518,20.6779,12.4302,9.892799,28.391996000000002,20.404823,9.800809,-1
899,900,1583549319528,21.366999,14.800699,5.7016,27.763859999999998,21.481716,5.2781519999999995,-1
900,901,1583549319538,19.9501,15.5278,2.1526,24.794764,20.908678,1.9303874,-1
901,902,1583549319548,17.2113,15.1998,-0.5772,23.419153,20.066534,0.7255005,-1
902,903,1583549319559,15.6531,14.3970995,-1.9016,24.2289,19.4977,1.5053016000000001,-1
903,904,1583549319569,16.366,14.2464,-1.1737,23.874855,18.738525,3.4047656,-1
904,905,1583549319579,15.924299,13.720699,0.54649997,21.532435999999997,17.18058,6.8601923,-1
905,906,1583549319589,13.536698999999999,12.360399000000001,3.8056,18.728718,15.563001000000002,10.65346,-1
906,907,1583549319599,10.7028,10.930099499999999,7.3988,17.211044,14.456017499999998,12.262115,-1
907,908,1583549319609,9.0046,9.8539,8.9545,15.750792,13.449457,11.768114,-1
908,909,1583549319619,7.6786,9.0576,8.3024,14.749422000000001,12.437063,9.078621,-1
909,910,1583549319629,6.6598,8.0905,5.5824,13.955112,11.363274,6.8755820000000005,-1
910,911,1583549319639,5.8547997,7.0422997,3.3846,13.443107999999999,10.766045,5.6721797,-1
911,912,1583549319649,5.3458,6.4473996,2.1819,12.771869,10.3459015,5.299604,-1
912,913,1583549319659,4.6833,6.0197997,1.7838999,11.917388,9.988926,5.1759095,-1
913,914,1583549319669,3.8567,5.6541,1.6111,11.158206,9.598288,5.0163794,-1
914,915,1583549319680,3.1353,5.2395,1.3959999,10.112169999999999,8.930964999999999,4.533421,-1
915,916,1583549319690,0.8709,3.6571,0.1715,8.650453,7.943769500000001,3.6470108,-1
916,917,1583549319700,0.8709,3.6571,0.1715,7.9610944,7.082317,2.6872616000000003,-1
917,918,1583549319710,-0.3466,1.8547,-1.7972,7.530175999999999,6.3416276,1.5266005,-1
918,919,1583549319720,-0.33679998,1.2234,-2.3078,7.616788400000001,5.7969465,1.1766353,-1
919,920,1583549319730,-0.15789999,0.7244,-1.9402,7.7294979999999995,5.38026,1.6848093000000002,-1
920,921,1583549319740,-0.0651,0.42319998,-0.945,7.8403974000000005,5.133791,2.765188,-1
921,922,1583549319751,0.0673,0.12799999,-0.076299995,7.8944016,4.867422,3.4960997000000003,-1
922,923,1583549319761,-0.007999999,-0.0994,0.1806,7.7898320000000005,4.702432599999999,3.6889955999999997,-1
923,924,1583549319771,-0.1165,-0.2421,0.15699999,7.6693463,4.5865054,3.5774162000000005,-1
924,925,1583549319781,-0.1165,-0.2421,0.15699999,7.9316645,4.5735383,3.1746252,-1
925,926,1583549319791,0.7337,-0.118099995,-0.7324,8.617325,4.85478,2.636045,-1
926,927,1583549319802,1.3556,0.1935,-1.0324,9.4611,5.37709,2.3724625,-1
927,928,1583549319812,2.5132,0.8235,-1.1071,10.496458,5.9612846,2.3411557999999997,-1
928,929,1583549319822,3.2477999,1.3476,-0.8013,10.942314999999999,6.3874907,2.8191438,-1
929,930,1583549319832,2.9536,1.4259,0.047199998,10.40092,6.447441599999999,3.8801007000000003,-1
930,931,1583549319843,2.4795,1.2495999,0.65139997,9.935276,6.2471905,4.333984,-1
931,932,1583549319853,2.3079998,1.1226,0.9206,10.017617,6.3352876,4.6489077000000005,-1
932,933,1583549319863,2.6311,1.3632,1.2396,10.172829,6.6739902,4.834793599999999,-1
933,934,1583549319873,2.5988,1.7089,1.2845,10.075969,7.141922999999999,4.925619999999999,-1
934,935,1583549319883,2.5779998,2.0730999,1.5541999,9.932489,7.4351454,5.267646,-1
935,936,1583549319893,2.2384,2.1519999999999997,1.7675999,9.370292999999998,7.5309134,5.319964,-1
936,937,1583549319904,1.8168,2.2065,1.4765999,9.24429,7.673081,4.746725,-1
937,938,1583549319914,1.9587,2.1964,0.5496,9.248571,7.689064999999999,3.7999617999999993,-1
938,939,1583549319924,2.075,2.1297998,-0.2537,9.521386,7.673445,3.0068203999999996,-1
939,940,1583549319935,2.3911998,2.0505,-0.64419997,9.555087,7.857731299999999,3.0111396,-1
940,941,1583549319944,2.2923,2.2756998999999998,-0.40559998,9.083839999999999,8.119983,3.3208055,-1
941,942,1583549319954,1.7186999,2.2935,-0.122099996,8.409805,8.116421,3.6055336000000002,-1
942,943,1583549319964,1.2461,2.2698,0.2215,8.16441,8.280519,4.0589857,-1
943,944,1583549319974,1.0886999,2.3167999,0.6903,7.6375036,8.3603325,4.203289,-1
944,945,1583549319984,0.5920000000000001,2.2663999,0.6537,7.2661915,8.401647,3.9948788,-1
945,946,1583549319995,0.5011,2.2676,0.3542,7.582963499999999,8.520169000000001,3.5739303,-1
946,947,1583549320005,1.1876999,2.3434,-0.1143,8.488058,8.767126,3.275354,-1
947,948,1583549320015,2.2595,2.4821,-0.1406,9.306262,8.870325999999999,3.6946456,d
948,949,1583549320025,2.8825,2.4204,0.42859998,9.553047,8.705001,4.2678465999999995,-1
949,950,1583549320035,3.0067,2.169,0.8666,9.247757,8.685684,4.390937,-1
950,951,1583549320046,2.7405,2.0685,0.8752,8.833197,8.637763,4.2521887000000005,-1
951,952,1583549320057,2.2024,1.9083999,0.8574,7.6226687,8.9199915,4.4225216,-1
952,953,1583549320067,1.2477,2.1278,1.1776,7.025239,9.222388,4.7163477,-1
953,954,1583549320077,0.904,2.333,1.5194,7.3067875,9.796268,4.9305900000000005,-1
954,955,1583549320087,1.4538,2.8527,1.7662,8.19178,10.436795,5.1279106,-1
955,956,1583549320097,2.5174,3.3423998,1.9825,9.094289,10.782498,5.0948706,-1
956,957,1583549320108,3.6569,3.6768,1.9037,9.90714,11.279564,4.9620120000000005,-1
957,958,1583549320118,4.3861,3.9452,1.8188,10.613897999999999,11.539209,4.932592,-1
958,959,1583549320128,5.1078997,4.093,1.8592999,10.271844,11.900053999999999,4.9844885,-1
959,960,1583549320138,4.7152,4.3312,1.9799999,9.396609,12.313638000000001,5.077335400000001,-1
960,961,1583549320148,4.008899700000001,4.6236997,2.2051,8.7789345,12.83882,5.258414299999999,-1
961,962,1583549320158,3.3960000000000004,5.1754,2.5756,7.970565299999999,13.66641,5.4350104,-1
962,963,1583549320169,3.0719,5.5715,2.8126,8.214113000000001,13.873968,5.3157787,-1
963,964,1583549320179,3.4766,5.6313996,2.8439999,8.795817999999999,13.88861,5.0876307,-1
964,965,1583549320189,4.238,5.5127,2.7635999,9.648565,13.932453,4.720925299999999,-1
965,966,1583549320199,5.273,5.4079999999999995,2.5342,10.819168,13.768556,4.3205857000000005,-1
966,967,1583549320209,6.6361,5.1175,2.2886999,10.871025999999999,13.341114000000001,4.319724,-1
967,968,1583549320220,5.8863,3.4522998,2.7233999,9.321691,12.170062,4.427884,-1
968,969,1583549320230,5.8863,3.4522998,2.7233999,7.6894193,11.011968,4.243186,-1
969,970,1583549320241,3.1729998999999998,1.3228999,2.9219999999999997,6.034461,10.417755999999999,4.241386,-1
970,971,1583549320251,2.5595,0.4511,2.9199998,5.212512,9.594515,3.9331273999999996,-1
971,972,1583549320261,2.0288,-0.5809,2.3002,4.3245606,8.701046,3.0248249,-1
972,973,1583549320271,1.5188999,-1.6747999,1.2923,3.5296469,7.618752000000001,1.8297447,-1
973,974,1583549320281,1.0852,-3.1151998,0.3256,2.740116,6.216832,0.7941088000000001,-1
974,975,1583549320292,0.3242,-4.4621,-0.129,1.4365306,4.781785500000001,0.27432764,-1
975,976,1583549320302,-0.1981,-5.6282997,-0.13849999,0.7993186,3.7289019999999997,0.24960029999999997,-1
976,977,1583549320312,-0.5046,-6.4778,0.087,0.23036051,3.183235,0.39773437,-1
977,978,1583549320322,-0.93619996,-7.1397,0.4673,-0.606298,2.2946603,0.6738624,-1
978,979,1583549320332,-1.3752999,-8.1346,0.63449997,-1.4446613000000001,1.3246448,0.68872565,-1
979,980,1583549320342,-2.1368,-9.0218,0.7439,-2.5488383999999997,0.46108493,0.6954677,-1
980,981,1583549320353,-2.8053,-9.821899,0.8779,-3.3254309999999996,-0.30586404,0.64261335,-1
981,982,1583549320363,-3.1545,-10.3898,0.66749996,-3.9233592000000006,-0.7992516,0.16226941,-1
982,983,1583549320373,-3.6911,-10.6496,0.118099995,-4.558953,-0.8371757,-0.42498997,-1
983,984,1583549320383,-3.7352998,-10.378799,-0.4102,-4.390669,-0.5457535,-0.97416234,-1
984,985,1583549320393,-2.8878,-10.2469,-0.6624,-3.533813,-0.48478752,-1.1704676999999999,-1
985,986,1583549320403,-1.7993,-10.0196,-0.7068,-2.3739276,-0.0641646,-1.1377821000000001,-1
986,987,1583549320413,-1.7993,-10.0196,-0.7068,-1.4583466,0.43973824,-0.89131343,-1
987,988,1583549320424,0.4883,-8.8749,-0.161,-0.44471818,1.0778027000000001,-0.58986425,-1
988,989,1583549320434,1.0451,-8.289599,-0.1449,-0.30490637,1.7568461,-0.6985706,-1
989,990,1583549320444,1.0648,-7.8117,-0.2978,-0.30551928,1.9848027,-0.7920498,-1
990,991,1583549320454,0.92029995,-7.7253,-0.3638,-1.1634672,1.9437852999999998,-0.778738,-1
991,992,1583549320464,-0.22369999,-7.7268,-0.3139,-2.1745002,2.0271131999999996,-0.64110976,-1
992,993,1583549320474,-1.2200999,-7.572499799999999,0.0265,-3.0464876,2.2421029,-0.11954728,-1
993,994,1583549320485,-1.4240999,-7.3233,0.36479998,-2.5523147999999996,2.6838617,0.11852256,-1
994,995,1583549320495,-0.5366,-6.6858997,0.4604,-1.3843371000000002,3.5317445,0.08171889,-1
995,996,1583549320505,0.5062,-5.8065,0.3247,-0.78344023,4.443102,-0.15788324,-1
996,997,1583549320515,0.8249,-4.8498,0.0655,-0.4542854,5.492155,-0.31079609999999996,-1
997,998,1583549320526,1.3001,-3.8634998999999994,0.0050999997,0.10003932,6.3011745999999995,-0.2394489,-1
998,999,1583549320536,1.5445,-3.2981,0.065299995,0.0024516624,6.750528299999999,-0.31925243,-1
999,1000,1583549320546,1.4064,-2.6917,-0.1416,-0.08059841,7.265435000000001,-0.56139237,-1
1000,1001,1583549320556,1.4037,-2.0741,-0.45819998,-0.13166194,7.9482136,-0.92069507,-1
1001,1002,1583549320566,1.2907,-1.6709,-0.65099996,-0.5173487,8.273911,-1.1444379999999998,-1
1002,1003,1583549320576,0.8218,-1.4038999,-0.8125,-1.2731694,8.301396,-0.94992346,-1
1003,1004,1583549320587,0.0721,-1.3913,-0.5358,-1.8737501,8.395335000000001,-0.5285919,-1
1004,1005,1583549320597,-0.4552,-1.2616999,-0.087,-2.1940942000000003,8.644619,-0.3270288,-1
1005,1006,1583549320607,-0.70669997,-0.9668,0.0069999998,-2.1539962000000004,9.052688,-0.6066716,-1
1006,1007,1583549320617,-0.5751,-0.57519996,-0.31939998,-1.8496071,9.225931,-1.02581,-1
1007,1008,1583549320628,-0.28399998,-0.44939998,-0.7251,-1.3218865,9.469154,-1.3367977,-1
1008,1009,1583549320638,0.2881,-0.138,-0.9777,-0.59514105,9.999163000000001,-1.3883208999999999,-1
1009,1010,1583549320648,0.86079997,0.30069998,-1.0102,-0.36305672,10.349291000000001,-1.2087367,-1
1010,1011,1583549320658,1.0871,0.6423,-0.85139996,-0.550992,10.469634,-0.8164994000000001,-1
1011,1012,1583549320668,0.90379995,0.76989996,-0.46949998,-0.88820094,10.43668,-0.43639594,-1
1012,1013,1583549320678,0.5868,0.7328,-0.0867,-1.8316505,10.244301,-0.07037995,-1
1013,1014,1583549320688,-0.3373,0.5405,0.2683,-2.7774558,10.090842,0.28234342,-1
1014,1015,1583549320699,-1.2573999,0.3981,0.5966,-3.196422,9.965482000000002,0.2598475,-1
1015,1016,1583549320709,-1.6452999,0.27429998,0.575,-3.3367224,10.003377,-0.21504720000000002,-1
1016,1017,1583549320719,-1.7719999999999998,0.3153,0.1171,-2.8814888,10.146809,-0.6173114000000001,-1
1017,1018,1583549320729,-1.3159999999999998,0.46179998,-0.27969998,-1.9281176,10.36675,-0.8573923000000001,-1
1018,1019,1583549320739,-0.3929,0.6748,-0.5114,-1.0925412,10.469499,-1.0238277,-1
1019,1020,1583549320749,0.4161,0.77879995,-0.6774,-0.35633382,10.569758,-1.11135,-1
1020,1021,1583549320760,1.1294999,0.8734,-0.7784,-0.16544892,10.659245,-0.7317351,-1
1021,1022,1583549320770,1.3120999,0.9593,-0.4035,-0.71026385,10.5075,-0.17300501,-1
1022,1023,1583549320780,0.7622,0.8118,0.14559999,-1.2082003000000001,10.2753105,0.359973,-1
1023,1024,1583549320790,0.2706,0.56769997,0.6577,-1.5025913999999998,10.095094,0.5280173,-1
1024,1025,1583549320800,-0.0832,0.31579998,0.6647,-1.5911098999999997,10.009975,0.31105468,-1
1025,1026,1583549320811,-0.0832,0.31579998,0.6647,-1.4462893,9.943465,-0.09592129,-1
1026,1027,1583549320821,0.3757,0.30679998,-0.4511,-1.0885573999999998,10.031753,-0.9075269,-1
1027,1028,1583549320831,0.5247,0.3159,-0.7707,-0.9193543,9.989405,-1.1323903999999998,-1
1028,1029,1583549320842,0.8104,0.2658,-0.6461,-0.637212,9.966889,-0.96879935,-1
1029,1030,1583549320851,0.90239996,0.2649,-0.36069998,-0.5901995,9.946452,-0.65225714,-1
1030,1031,1583549320861,0.8031,0.1862,0.0195,-0.67771226,9.86662,-0.28266904,-1
1031,1032,1583549320872,0.7377,0.0787,0.2823,-0.80096585,9.725142,-0.049923893,-1
1032,1033,1583549320882,0.617,0.0308,0.2935,-0.9398965,9.704054,-0.12235328599999999,-1
1033,1034,1583549320893,0.4989,0.0128,0.13239999,-1.020246,9.687064,-0.29576054,-1
1034,1035,1583549320903,0.35259998,-0.06359999599999999,-0.055499997,-1.237266,9.5829935,-0.5216008,-1
1035,1036,1583549320913,0.089099996,-0.1302,-0.1938,-1.4854777,9.552817,-0.59741074,-1
1036,1037,1583549320923,-0.0583,-0.14800000000000002,-0.1472,-1.572416,9.536661,-0.45890144,-1
1037,1038,1583549320933,-0.0212,-0.1759,0.026899998999999997,-1.5428523,9.577774,-0.43721953,-1
1038,1039,1583549320944,0.0115,-0.0672,-0.1336,-1.3965857,9.646085000000001,-0.75963235,-1
1039,1040,1583549320954,0.2996,-0.017199999,-0.4386,-1.1046942,9.693434,-0.9452596,d
1040,1041,1583549320964,0.5007,-0.0358,-0.5588,-1.1180156,9.618178,-0.97726524,-1
1041,1042,1583549320975,0.20699999,-0.16139999,-0.4858,-1.6080128999999999,9.369335000000001,-0.78863084,-1
1042,1043,1583549320985,-0.13069999,-0.38439998,-0.1804,-1.8424819,9.214899,-0.3700478,-1
1043,1044,1583549320995,-0.3011,-0.4799,0.2312,-1.905976,9.258875999999999,-0.025321077999999997,-1
1044,1045,1583549321005,-0.2571,-0.3696,0.46859998,-1.8368316000000002,9.308244,0.064653024,-1
1045,1046,1583549321015,-0.2047,-0.40629998,0.41759998,-1.8786247999999999,9.153847,-0.23834756,-1
1046,1047,1583549321025,-0.3103,-0.5703,0.07809999599999999,-2.0126042,9.055609,-0.56771314,-1
1047,1048,1583549321035,-0.40879998,-0.6563,-0.21069999,-2.0637348,8.961708,-0.8349731,-1
1048,1049,1583549321045,-0.3938,-0.6842,-0.4235,-2.0447056,9.026926,-1.0264804,-1
1049,1050,1583549321055,-0.4033,-0.6053,-0.5822,-2.047119,9.062849,-1.0839508999999998,-1
1050,1051,1583549321065,-0.36679998,-0.5958,-0.51089996,-1.9556893,9.13252,-0.75004596,-1
1051,1052,1583549321075,-0.30269998,-0.4987,-0.0426,-1.9851859,9.157150999999999,-0.24226448,-1
1052,1053,1583549321085,-0.4145,-0.6074,0.39479998,-2.1545134,8.872605,0.025464728,-1
1053,1054,1583549321096,-0.5147,-0.8824,0.5999,-2.2140619999999998,8.607758500000001,0.32836953,-1
1054,1055,1583549321105,-0.6728,-1.2256,0.8688,-2.4243686,8.136445,0.34729335,-1
1055,1056,1583549321115,-0.8596,-1.8038,0.7804,-2.5261126,7.5322065,0.17191325,-1
1056,1057,1583549321125,-0.8526,-2.3823,0.5363,-2.409831,6.8737917,-0.025684996,-1
1057,1058,1583549321135,-0.7718,-3.0992,0.5402,-2.3138907000000004,6.0908012000000005,0.31659967,-1
1058,1059,1583549321145,-0.6757,-3.9059,1.1467,-2.3317227000000003,5.172979,1.3412606000000002,-1
1059,1060,1583549321156,-0.8775,-4.968999999999999,2.3627,-3.0052211,3.7594809999999996,3.2830345999999997,-1
1060,1061,1583549321166,-1.5934,-6.1608996,4.0743,-3.8397248,2.619812,5.0330143,-1
1061,1062,1583549321176,-2.4345,-7.2753997,5.7026,-4.229779,2.0407889999999997,5.8975506,-1
1062,1063,1583549321186,-3.1216,-8.0873995,6.9052997000000005,-5.1553580000000006,1.0355593,7.290402,-1
1063,1064,1583549321196,-3.8033,-8.8321,7.7468996,-5.4203577,0.45950475,7.974301,-1
1064,1065,1583549321206,-4.1277,-9.5194,8.5805,-5.725848,-0.2932131,8.918535,-1
1065,1066,1583549321217,-4.468899700000001,-10.0904,9.3084,-5.8453764999999995,-0.6916465,9.533894,-1
1066,1067,1583549321226,-4.6431,-10.5057,9.9323,-5.707997,-1.0100274999999999,10.045697,-1
1067,1068,1583549321236,-4.5771,-10.7554,10.3854,-5.381888,-0.7899333000000001,10.129887,-1
1068,1069,1583549321246,-4.2383,-10.1621,10.404799,-4.4604263,0.48440444,9.598392500000001,-1
1069,1070,1583549321256,-2.995,-8.705,9.5018,-1.8452495,2.19216,7.507478999999999,-1
1070,1071,1583549321266,-0.96199995,-7.2735996,7.4811997,-0.21335210000000002,4.075956,5.0245676,-1
1071,1072,1583549321276,0.21849999,-5.2963,5.1218,1.297236,6.0987787,2.6437638,-1
1072,1073,1583549321287,1.6784999,-3.3209,2.7791,3.6050549,8.024492,0.121050835,-1
1073,1074,1583549321297,3.6815998999999997,-1.3769,0.43039998,4.850566400000001,9.856133,-2.2044566000000003,-1
1074,1075,1583549321307,4.3772,0.4364,-1.6920998999999999,5.214341,11.067427,-3.9136195,-1
1075,1076,1583549321317,4.6998997000000005,1.7649,-4.0105,5.9094357,12.372698,-7.2433414,-1
1076,1077,1583549321327,5.0141,2.9118,-6.664499799999999,6.0964035999999995,13.618114000000002,-9.257075,-1
1077,1078,1583549321338,4.973099700000001,4.1496997,-8.264299000000001,6.605248,14.383741,-9.580503,-1
1078,1079,1583549321348,5.4276,4.8789,-8.288899,7.929270699999999,15.366504,-9.749438,-1
1079,1080,1583549321359,6.3747997000000005,5.7573,-8.465199,9.784661999999999,16.411964,-11.540999999999999,-1
1080,1081,1583549321369,8.0493,6.8357,-10.2009,12.317928,17.28901,-14.497129999999999,-1
1081,1082,1583549321379,12.1278,8.2737,-16.1372,14.431262,17.78483,-18.04981,-1
1082,1083,1583549321390,12.1278,8.2737,-16.1372,14.713586,17.616976,-19.438408,-1
1083,1084,1583549321400,11.844000000000001,7.4684,-17.9799,13.959173000000002,16.72075,-19.204678,-1
1084,1085,1583549321410,10.6685,6.7149997,-16.2627,12.905128999999999,15.998141,-17.307817,-1
1085,1086,1583549321420,10.2592,5.9051,-14.584499,12.651574,15.12875,-15.805360999999998,-1
1086,1087,1583549321430,9.9927,4.9937,-14.0148,12.325417,14.239419,-15.447235999999998,-1
1087,1088,1583549321440,9.5363,4.0504,-14.5063,11.796663,13.233365,-16.140894,-1
1088,1089,1583549321451,8.7897,2.839,-15.2275,10.9581175,11.984081,-16.794204999999998,-1
1089,1090,1583549321461,8.7897,2.839,-15.2275,10.059975999999999,10.437609,-16.723778,-1
1090,1091,1583549321471,7.1548996,-0.35459998,-14.4648,9.176027000000001,8.749523,-15.775865,-1
1091,1092,1583549321481,6.4026,-2.0743,-13.1798,8.392539,7.068737,-14.363045999999999,-1
1092,1093,1583549321491,5.9918,-3.6905,-11.1758995,7.968420500000001,5.4893303,-12.079514,-1
1093,1094,1583549321502,5.6934,-5.200999700000001,-8.8896,7.4918118,3.6863617999999994,-9.312286,-1
1094,1095,1583549321512,5.4783998,-6.750099700000001,-6.7559,7.3483224,2.4029357000000005,-7.301099300000001,-1
1095,1096,1583549321522,5.3366,-8.0809,-4.5571,7.006152,1.1210322,-4.998508999999999,-1
1096,1097,1583549321532,4.7014,-9.379499000000001,-2.501,6.0697703,-0.2586887,-2.655457,-1
1097,1098,1583549321542,3.6889,-10.6355,-0.4272,4.861799700000001,-1.5769553,-0.45930365,-1
1098,1099,1583549321552,2.3135,-12.035,1.5041,3.3037302000000004,-2.9161952,1.4086813,-1
1099,1100,1583549321562,0.6545,-13.2929,3.1204998,1.6539528000000001,-4.1261,3.1464121,-1
1100,1101,1583549321573,-0.84559995,-14.467099,4.9365,0.5424686,-5.021895400000001,4.8032856,-1
1101,1102,1583549321583,-2.0070999,-15.300999999999998,7.1309,-0.78456074,-5.881183999999999,7.546083,-1
1102,1103,1583549321593,-2.0070999,-15.300999999999998,7.1309,-1.1964879,-6.0586996,8.38979,-1
1103,1104,1583549321603,-3.0881998999999998,-15.7834,9.1762,-1.6527078999999998,-6.4192860000000005,10.403946000000001,-1
1104,1105,1583549321613,-3.6125,-15.620199,12.5471,-1.7820523000000001,-5.731288,12.845313,-1
1105,1106,1583549321623,-4.1488,-14.7283,13.7076,-2.076807,-4.865171,14.000545,-1
1106,1107,1583549321634,-4.6398,-13.9811,14.693299,-2.2751810000000003,-4.046526399999999,15.37972,-1
1107,1108,1583549321644,-4.6579,-13.0807,16.143099,-1.2902544,-2.9625852000000004,17.520817,-1
1108,1109,1583549321654,-3.5407998999999997,-11.864599,18.4937,0.23640348,-2.0397546,19.720914999999998,-1
1109,1110,1583549321664,-1.6456,-10.2597,20.912198999999998,3.0999453,0.34663249999999995,22.414745,-1
1110,1111,1583549321674,0.3857,-7.6773996,22.6945,5.186358,3.158182,24.435010000000002,-1
1111,1112,1583549321684,1.7229999,-4.6726,24.6605,5.928751999999999,5.728243,26.718094,-1
1112,1113,1583549321695,1.4246,-2.1965,26.594397999999998,5.286474,7.818687,28.236134000000003,-1
1113,1114,1583549321705,0.51339996,0.116799995,27.2414,5.254028,9.683014,28.032856,-1
1114,1115,1583549321715,1.2339,2.6904,25.5017,7.634812400000001,12.4368725,24.55431,-1
1115,1116,1583549321725,3.5904,5.1152,21.5759,10.352941,14.77254,20.63051,-1
1116,1117,1583549321735,5.845,7.664499799999999,17.8981,12.644392999999999,16.979210000000002,18.174414000000002,-1
1117,1118,1583549321745,7.7551,9.8734,16.2044,14.563269,19.055173999999997,18.1211,-1
1118,1119,1583549321756,8.8380995,11.737499,16.5079,15.000909,19.988672,18.880014000000003,-1
1119,1120,1583549321766,9.2963,13.2864,17.503199,15.808693,21.334932000000002,19.761272,-1
1120,1121,1583549321776,9.9204,14.381499,17.2696,16.729570000000002,22.464976999999998,18.268238,-1
1121,1122,1583549321786,10.6742,15.5117,15.302898999999998,17.699118,23.2042,15.645984,-1
1122,1123,1583549321796,11.963699,16.395899,11.4121,19.085676,23.875612,10.529536,-1
1123,1124,1583549321806,12.864699,16.9054,7.1225996,19.893269,23.884173999999998,6.729067,-1
1124,1125,1583549321817,13.625798999999999,16.8078,3.5195,20.253157,23.442701,4.024672,-1
1125,1126,1583549321827,13.9256,16.2673,1.0864,20.372196,22.595078,2.541043,-1
1126,1127,1583549321837,14.038799,15.309099,-0.1812,20.205128,21.436247,1.7948084999999998,-1
1127,1128,1583549321847,13.8741,14.0813,-0.8445,19.71876,20.404247,1.0884423,-1
1128,1129,1583549321857,13.4172,12.946099,-1.5819,18.857662,19.290573000000002,-0.09881349,-1
1129,1130,1583549321868,12.627299,11.6479,-2.7240999,17.797384,17.687107,-1.2492273999999999,-1
1130,1131,1583549321878,11.6024,9.8568,-3.6534998,15.98076,15.95723,-1.9841898999999998,-1
1131,1132,1583549321888,10.215799,8.286,-4.0896,14.713423,14.704784,-2.3430232999999996,-1
1132,1133,1583549321898,8.8715,6.5396,-4.3375998,13.390741,13.026909,-2.6867349999999997,-1
1133,1134,1583549321908,7.9879999999999995,5.0367,-4.4797,12.676532,11.5450325,-2.5201368,-1
1134,1135,1583549321918,7.4522,3.389,-4.1619997,12.156492,10.445184,-2.4095150000000003,-1
1135,1136,1583549321929,7.04,1.875,-3.9217,11.685628999999999,8.916926,-2.415127,-1
1136,1137,1583549321939,6.9080997,0.44829997,-3.7278,10.817244,7.856428999999999,-2.065995,-1
1137,1138,1583549321949,6.200599700000001,-0.7290000000000001,-3.2463,9.445222,6.814655,-1.5206342,-1
1138,1139,1583549321959,5.0411997,-1.8981999,-2.5649998,8.207783000000001,5.762278599999999,-0.8357679,-1
1139,1140,1583549321969,4.0224,-3.0792,-1.7372999,7.658294000000001,5.067183999999999,-0.32058359999999997,-1
1140,1141,1583549321979,3.6871,-3.8776998999999996,-1.0785999,7.2902007,4.533593,-0.28897059999999997,-1
1141,1142,1583549321989,3.5347,-4.5199,-0.8842,6.681652000000001,4.135993,-1.1628063,-1
1142,1143,1583549321999,3.2540998,-4.937999700000001,-1.3264999,6.138666000000001,3.6616343999999996,-2.2898624,-1
1143,1144,1583549322009,2.7993999,-5.5636997,-2.4965,5.2507524000000005,2.839983,-3.3237362,-1
1144,1145,1583549322020,2.1308,-6.4644,-3.3179998,4.166226999999999,2.0238283,-3.8344579,-1
1145,1146,1583549322030,1.2533,-7.3443,-3.6283998,3.1291257999999997,1.5936477,-4.2372484,-1
1146,1147,1583549322040,0.4129,-7.8297,-3.8478,2.2292123,1.2073385,-4.1378317000000004,-1
1147,1148,1583549322050,-0.3092,-8.2541,-3.5863998,1.8562246999999998,1.3826513999999999,-4.2621199999999995,-1
1148,1149,1583549322060,0.3066,-7.7356997000000005,-4.8216,2.7774080000000003,1.8721317,-6.0038824,-1
1149,1150,1583549322071,1.8896998999999999,-7.1292995999999995,-6.4079999999999995,4.4002075,2.5602922,-7.728263,-1
1150,1151,1583549322081,3.5556,-6.44,-7.8325996,5.852463200000001,3.165901,-9.103742,-1
1151,1152,1583549322091,4.6136,-6.2018,-8.187099,6.6931825,3.3431964,-9.352029,-1
1152,1153,1583549322101,4.6907997,-6.4263997,-7.8676,6.4463882,3.071119,-9.029368,-1
1153,1154,1583549322111,3.957,-6.6618,-7.2472,5.531391,2.8831072,-8.470255,-1
1154,1155,1583549322122,3.1223998,-6.9147997000000005,-6.8536,4.4260459999999995,2.5456014,-8.512699000000001,-1
1155,1156,1583549322132,2.5700998,-7.0834,-7.7921,4.085619,2.4964914,-9.727909,-1
1156,1157,1583549322142,2.9921,-6.9393997,-10.1423,4.6162124,2.713818,-12.406676,-1
1157,1158,1583549322152,4.4484,-6.357,-13.077499000000001,6.2292337,3.4101187999999993,-15.477317000000001,-1
1158,1159,1583549322162,6.9014997000000005,-4.9691997,-15.436,9.310735000000001,5.163287599999999,-17.903898,-1
1159,1160,1583549322172,9.307799000000001,-3.735,-16.0829,10.96984,6.047791999999999,-17.787222,-1
1160,1161,1583549322183,9.7684,-3.3667,-14.772599,10.842296000000001,6.1609796999999995,-16.350512,-1
1161,1162,1583549322193,8.8246,-3.6669998,-12.661099,9.473464,5.619747,-13.966804999999999,-1
1162,1163,1583549322203,7.8027997000000004,-4.3939,-11.184999000000001,8.627851,5.0499845,-12.843456,-1
1163,1164,1583549322213,7.133599799999999,-4.8354,-9.9816,7.827124,4.682321,-11.584565,-1
1164,1165,1583549322224,6.9679,-4.989,-9.825399,7.673627000000001,4.432912,-12.124448,-1
1165,1166,1583549322234,6.8004,-5.345,-10.4741,7.0500526,4.0954833,-12.348449,-1
1166,1167,1583549322244,6.1681,-5.6432,-10.401199,6.429858,3.8480282,-12.000074,-1
1167,1168,1583549322254,5.6134996,-6.0435,-9.8032,5.8755144999999995,3.4765532,-11.044758999999999,-1
1168,1169,1583549322264,5.5027,-6.292000000000001,-8.8751,5.978954,3.2610368999999997,-9.423923,-1
1169,1170,1583549322275,5.7362,-6.4269,-7.0600996,6.0441910000000005,3.4130495,-6.935264999999999,-1
1170,1171,1583549322285,5.8173,-6.2207,-4.3642,6.271209,3.6218237999999996,-3.3084898000000003,-1
1171,1172,1583549322295,6.1919,-5.9838,-0.5907,6.3448644,4.2468449999999995,0.82242745,-1
1172,1173,1583549322305,5.9728,-5.1538,3.1216998,5.8939404,5.051124,4.3492875,-1
1173,1174,1583549322315,5.6919,-4.6408,6.1078,5.775178400000001,5.276552,7.1753936000000005,-1
1174,1175,1583549322325,5.4749,-4.3666,8.4784,5.1269245,5.774939,9.344004,-1
1175,1176,1583549322336,4.7219996,-3.9011,10.155399000000001,4.4707026,5.889085,10.772557,-1
1176,1177,1583549322346,4.2707,-4.04,11.2246,4.149113,5.8180156,12.310095,-1
1177,1178,1583549322356,4.001,-3.8999,12.3911,4.005107,6.4001703,14.121307,-1
1178,1179,1583549322366,3.8757,-3.2958,14.1402,3.945357,6.933186500000001,16.428389000000003,-1
1179,1180,1583549322376,3.75,-2.7331998,16.244,3.8849082000000004,7.8801894,18.566967,-1
1180,1181,1583549322387,3.6699998,-1.6836,17.9634,3.7640681000000002,8.761485,19.608673,-1
1181,1182,1583549322398,3.4619999999999997,-0.8667,18.5558,3.5021042999999996,9.174495,19.3345,-1
1182,1183,1583549322408,3.1051998,-0.50369996,17.828499,2.2599635,9.24092,17.322643,-1
1183,1184,1583549322418,1.9656999,-0.4804,15.9534,0.6347699,8.985928,15.437391,-1
1184,1185,1583549322429,0.3645,-0.7181,14.0151,-0.79573685,8.971668,13.688744,-1
1185,1186,1583549322439,-1.0315,-0.7334,12.2352,-1.7191805,9.190383,11.924666,-1
1186,1187,1583549322449,-1.9174999,-0.51379997,10.4404,-1.9673922,9.524336,10.636835000000001,-1
1187,1188,1583549322459,-2.1522,-0.1757,9.113,-1.9998192,9.7704115,9.61882,-1
1188,1189,1583549322470,-2.1668,0.0846,8.066999000000001,-2.0690787,9.827614,8.770152000000001,-1
1189,1190,1583549322480,-2.2217999,0.13859999,7.1814,-2.1239824,9.583559,7.870421,-1
1190,1191,1583549322490,-2.5228,-0.3779,5.3348,-2.4719558,9.249673,6.725983,-1
1191,1192,1583549322500,-2.8177,-0.6949,4.3131,-2.7614532000000005,8.9294815,5.7089739999999995,-1
1192,1193,1583549322510,-2.8177,-0.6949,4.3131,-2.8506036,8.761992999999999,4.862202,-1
1193,1194,1583549322520,-2.7579,-0.8617,2.7652,-2.6209133,8.875017999999999,4.164484,-1
1194,1195,1583549322531,-2.7579,-0.8617,2.7652,-2.2017748,9.158261,3.5841582,-1
1195,1196,1583549322541,-1.7357,-0.2227,1.4843998999999999,-1.5941169,9.554953,2.8590407000000004,-1
1196,1197,1583549322551,-1.4489,0.0396,1.0497999,-1.3332639,9.766705499999999,2.4777975,-1
1197,1198,1583549322561,-1.1848999,0.0186,0.9812,-1.0575955,9.695243,2.4435127,-1
1198,1199,1583549322571,-0.982,-0.0995,1.1913999,-0.8342165000000001,9.593355,2.7013203999999997,-1
1199,1200,1583549322582,-0.6828,-0.129,1.4482,-0.48889598,9.601946,2.9228318,d
1200,1201,1583549322592,-0.23719999,0.0176,1.3936,0.009873686999999999,9.7671175,2.7616925,-1
1201,1202,1583549322602,0.37579998,0.30069998,1.041,0.69787145,10.101041,2.3382156000000003,-1
1202,1203,1583549322613,0.61039996,0.46539998,0.7421,0.7389656,10.238631,2.06543,-1
1203,1204,1583549322623,0.557,0.57129997,0.57989997,0.7500746,10.315054,1.9193262,-1
1204,1205,1583549322633,0.5667,0.59929997,0.4132,0.74293035,10.31221,1.7809796000000002,-1
1205,1206,1583549322643,0.5298,0.57919997,0.3969,0.6606177,10.285605,1.8210202000000002,-1
1206,1207,1583549322653,0.4265,0.5306,0.4028,0.5315415,10.225607,1.7615674,-1
1207,1208,1583549322663,0.3242,0.473,0.3545,0.4860804,10.195995,1.813263,-1
1208,1209,1583549322674,0.31939998,0.5139,0.6168,0.5169943,10.316452,2.1785702999999996,-1
1209,1210,1583549322684,0.47149998,0.7905,0.99509996,0.6692847,10.6190605,2.5933897,-1
1210,1211,1583549322694,0.625,1.0569998999999999,1.4239,0.91688347,10.929024,3.089248,-1
1211,1212,1583549322704,0.85969996,1.3325,1.7406,0.97400916,11.191591,3.2787156000000004,-1
1212,1213,1583549322714,0.80619997,1.5675,1.8493998999999999,0.8522879000000001,11.363235000000001,3.246959,-1
1213,1214,1583549322724,0.5634,1.7328999,1.5919,0.36984670000000003,11.434669,2.7188172,-1
1214,1215,1583549322734,0.0716,1.7312,1.1313,-0.15420575,11.519625,2.5233833999999997,-1
1215,1216,1583549322745,-0.2696,1.8871,1.2156999,-0.25269362,11.722777,2.9262028,-1
1216,1217,1583549322755,-0.1889,2.1128,1.7335999,-0.18542613,11.975653999999999,3.4771563999999997,-1
1217,1218,1583549322765,-0.1565,2.369,2.2653,-0.19950405,12.289207000000001,3.965411,-1
1218,1219,1583549322775,-0.13149999,2.7036998,2.6011,-0.18471745,12.599285,3.9955873,-1
1219,1220,1583549322785,-0.0938,2.9982,2.4247,-0.26746106,12.886168,3.6284892999999996,-1
1220,1221,1583549322795,-0.1501,3.2619998,2.0324,-0.26092967,13.099347999999999,3.2051369999999997,-1
1221,1222,1583549322806,-0.0352,3.4859998,1.6172,-0.16679925,13.329536,2.7594228,-1
1222,1223,1583549322816,0.1336,3.6413998999999997,1.2728,0.049291823,13.24301,2.586887,-1
1223,1224,1583549322826,0.3682,3.4937,1.1804,0.13222697,13.055525,2.4503121,-1
1224,1225,1583549322836,0.5226,3.2983,1.0737,0.3623672,12.702591,2.4309192000000004,-1
1225,1226,1583549322846,0.8111,2.928,1.0888,0.2964692,12.489123,2.5965211,-1
1226,1227,1583549322857,0.6356,2.6573,1.4022,-0.11813949,11.99543,3.144832,-1
1227,1228,1583549322867,0.475,2.1919,1.8600999,-0.3024643,11.521512,3.5023817999999998,-1
1228,1229,1583549322877,0.3354,1.7465,2.1643999,-0.42567948,11.178308,3.3747422999999994,-1
1229,1230,1583549322887,0.37199998,1.3887999,1.9192,-0.34516728,10.632228999999999,2.6723217999999997,-1
1230,1231,1583549322897,0.5347,0.8337,1.1577,-0.26160008,10.1420965,1.7718816000000002,-1
1231,1232,1583549322908,0.69699997,0.3566,0.2981,-0.18913235,9.65006,0.9760681999999999,-1
1232,1233,1583549322918,0.8502,-0.1495,-0.4204,-0.32117736,9.013116,0.38568673,-1
1233,1234,1583549322928,0.7107,-0.7917,-0.9246,-0.8324448,8.369344,0.094733775,-1
1234,1235,1583549322938,0.2751,-1.4211999,-1.1129999,-1.3866258999999999,7.755661999999999,0.26182032,-1
1235,1236,1583549322948,-0.0902,-1.9056,-0.90559995,-1.5572559,7.350237400000001,0.5913295,-1
1236,1237,1583549322958,-0.19209999,-2.3003,-0.5577,-1.5941457,7.186685000000001,0.7819271,-1
1237,1238,1583549322968,-0.1669,-2.4608,-0.3353,-1.4108264,7.153529600000001,0.41712740000000004,-1
1238,1239,1583549322979,0.0738,-2.4956,-0.67539996,-1.0330024,7.1002254,-0.10910856,-1
1239,1240,1583549322989,0.5803,-2.5417,-1.3040999,-0.68005866,7.0854482999999995,-1.2653164,-1
1240,1241,1583549322999,0.88629997,-2.5588999,-2.2549,-0.7361404,7.044890400000001,-1.8984294999999998,-1
1241,1242,1583549323009,0.87899995,-2.5948,-2.8573,-1.0975116000000003,7.0750766,-1.7337563000000002,-1
1242,1243,1583549323019,0.5602,-2.5604,-2.6661,-1.4404092,7.0608070000000005,-1.1768268,-1
1243,1244,1583549323029,-0.13229999,-2.6936998,-0.9641,-1.9232622,6.880285000000001,0.12401007,-1
1244,1245,1583549323040,-0.31559998,-2.9131,-0.6235,-2.16364,6.6679759999999995,0.25825775,-1
1245,1246,1583549323050,-0.45549998,-3.0069999999999997,-0.9181,-2.287564,6.61154,-0.21250933,-1
1246,1247,1583549323060,-0.45549998,-3.0069999999999997,-0.9181,-2.1713397999999997,6.7564660000000005,-0.7784699,-1
1247,1248,1583549323070,-0.309,-2.8479,-1.6057,-1.9666069,6.982143400000001,-1.2533071000000002,-1
1248,1249,1583549323080,-0.0915,-2.6216,-2.0269,-1.827274,7.173478599999999,-1.2888945,-1
1249,1250,1583549323090,0.055099998,-2.1109,-1.8472998999999999,-1.8570002,7.519823599999999,-1.0916219999999999,-1
1250,1251,1583549323101,0.026099999,-2.0123,-1.6401,-1.9023081999999998,7.607557000000001,-0.8947514999999999,-1
1251,1252,1583549323111,0.026099999,-2.0123,-1.6401,-1.9438715,7.647521,-0.683286,-1
1252,1253,1583549323121,-0.0892,-1.7766,-1.2192999,-2.00568,7.8829093,-0.54861695,-1
1253,1254,1583549323131,-0.039499998,-1.4734,-1.2056999,-1.9530748,8.203702999999999,-0.56129664,-1
1254,1255,1583549323141,0.0757,-1.1513,-1.1517998999999999,-1.8189038,8.50724,-0.49752468,-1
1255,1256,1583549323151,0.17979999,-0.8688,-1.1549,-1.7480929,8.781396,-0.55828,-1
1256,1257,1583549323162,0.0888,-0.7626,-1.2056999,-1.8979602999999998,8.85961,-0.6133849,-1
1257,1258,1583549323172,-0.12889999,-0.7935,-1.2764,-2.1233602000000005,8.840944,-0.7904888000000001,-1
1258,1259,1583549323182,-0.3087,-0.6285,-1.5346,-2.2677400000000003,9.073497999999999,-1.0051242,-1
1259,1260,1583549323192,-0.2847,-0.4244,-1.5807999,-2.1297956,9.222742,-1.0188956,-1
1260,1261,1583549323202,0.118999995,-0.1911,-1.5336,-1.7176384999999998,9.520964999999999,-0.9344761,-1
1261,1262,1583549323212,0.1706,-0.0358,-1.3830999,-1.7802613999999999,9.550538000000001,-0.7567401,-1
1262,1263,1583549323223,0.0088,-0.09559999400000001,-1.1280999,-1.9759058999999997,9.515601,-0.4563635999999999,-1
1263,1264,1583549323233,-0.24059999,-0.0179,-0.85469997,-2.2262053,9.708066,-0.20291337,-1
1264,1265,1583549323243,-0.3929,0.19669999,-0.649,-2.2693489,9.837381,-0.07858728,-1
1265,1266,1583549323253,-0.3893,0.2444,-0.59779996,-2.2859645,9.885467,-0.09755893,-1
1266,1267,1583549323263,-0.4349,0.3312,-0.76119995,-2.2606435,9.9662285,-0.2898708,-1
1267,1268,1583549323273,-0.2462,0.3787,-0.9744,-1.9808859,10.02934,-0.5083752,d
1268,1269,1583549323283,0.0492,0.4556,-1.0735999,-1.6677721999999997,10.1122465,-0.4835713,-1
1269,1270,1583549323294,0.2959,0.5035,-0.9147,-1.6066722,10.222292999999999,-0.1400129,-1
1270,1271,1583549323304,0.17199999,0.6404,-0.5665,-1.7486197,10.284188,0.14949396,-1
1271,1272,1583549323314,-0.0174,0.5920000000000001,-0.2618,-1.9267193999999999,10.136783,0.4830254,-1
1272,1273,1583549323324,-0.2636,0.4067,0.1691,-2.2223842,9.929155999999999,1.1661198,-1
1273,1274,1583549323334,-0.3525,0.2215,0.7477,-2.0927622,9.763228,1.612131,-1
1274,1275,1583549323344,-0.1783,0.0751,1.0157,-1.9270642,9.630991999999999,1.6916951,-1
1275,1276,1583549323354,0.0435,-0.0718,1.0043,-1.6773874,9.497023,1.6008207,-1
1276,1277,1583549323365,0.177,-0.1602,0.81939995,-1.6443378,9.448075,1.4282753000000001,-1
1277,1278,1583549323375,0.243,-0.2288,0.7229,-1.5073128,9.270453999999999,1.4787451,-1
1278,1279,1583549323385,0.311,-0.4536,0.8971,-1.6048046,8.931924,1.9031796000000003,-1
1279,1280,1583549323395,0.1371,-0.8244,1.3694,-1.7960343,8.584181,2.3617458,-1
1280,1281,1583549323405,-0.21,-1.4491,2.0514,-2.3694456,7.666473,3.1556439999999997,-1
1281,1282,1583549323415,-0.7525,-2.2791997999999998,2.7782,-2.8525476000000003,6.722775,4.2236970000000005,-1
1282,1283,1583549323426,-1.1207,-3.3154,3.9245,-3.0996675,5.6028724,5.534638,-1
1283,1284,1583549323436,-1.3070998999999999,-4.5095997,5.2313,-3.2666008,4.119061,6.890771000000001,-1
1284,1285,1583549323446,-1.4588,-5.7741,6.1759,-3.4679916,2.9491490000000002,7.345467999999999,-1
1285,1286,1583549323456,-1.8101,-7.2857,6.5463,-4.1847105,1.0839796,7.07682,-1
1286,1287,1583549323466,-2.5384,-8.8187,6.1046,-5.083264,-0.36252046,6.515427,-1
1287,1288,1583549323477,-3.4422,-10.2554,5.6556997,-5.789649,-1.7680892,6.7304070000000005,-1
1288,1289,1583549323487,-4.1359997,-11.6256,6.0516996,-6.376133,-3.0326395,7.61269,-1
1289,1290,1583549323497,-4.8308,-12.929899,7.0174,-7.016427999999999,-4.407150700000001,9.045332,-1
1290,1291,1583549323507,-5.4702997,-14.306299,8.5601,-7.3713926999999995,-5.742684,10.632736,-1
1291,1292,1583549323517,-5.9308996,-15.6477995,10.063499,-7.479304300000001,-7.004198599999999,11.565555999999999,-1
1292,1293,1583549323527,-6.0223,-16.8969,10.769999499999999,-6.6617227,-7.799524000000001,10.875154,-1
1293,1294,1583549323538,-5.2225,-17.5732,9.8189,-5.141893,-8.041252,8.911659,-1
1294,1295,1583549323548,-3.8086,-17.7718,7.8346,-3.4048996,-7.980276600000001,6.6563115,-1
1295,1296,1583549323558,-2.4252,-17.712598999999997,5.7267,-2.2923617000000003,-7.97341,4.8641844,-1
1296,1297,1583549323568,-1.735,-17.7832,4.1937,-1.4632114999999999,-8.222905,3.863169,-1
1297,1298,1583549323578,-1.3952999,-18.0093,3.5326998,-0.32555395,-8.251683,3.401787,-1
1298,1299,1583549323588,-0.6349,-18.035,3.1153998,1.5305078,-8.019627999999999,3.0015054,-1
1299,1300,1583549323599,0.78029996,-17.7873,2.7349,3.9453762,-7.408809,2.4482147999999997,-1
1300,1301,1583549323609,2.7401,-17.124899,2.1938999,6.9517083,-6.1650023,0.81752414,-1
1301,1302,1583549323620,5.272599700000001,-15.8089,0.5665,9.013603999999999,-5.0090437,-1.0982203000000001,-1
1302,1303,1583549323630,5.272599700000001,-15.8089,0.5665,9.270004,-4.8056417,-1.4963378,-1
1303,1304,1583549323640,7.4452996,-13.299000000000001,-3.3778,11.93728,-2.1705449,-4.8307519999999995,-1
1304,1305,1583549323650,8.7701,-11.433599000000001,-5.2374,14.323532,0.34528220000000004,-6.0952544,-1
1305,1306,1583549323660,13.901,-6.1702,-7.0074,19.013275,3.1441615,-6.0335608,-1
1306,1307,1583549323671,18.0989,-3.1769998,-6.7448997,23.654435999999997,6.019501999999999,-5.539100599999999,-1
1307,1308,1583549323681,21.8596,0.0947,-7.3192997,27.7055,8.824463,-5.9503574,-1
1308,1309,1583549323691,21.8596,0.0947,-7.3192997,29.761814,10.362977,-6.674067,-1
1309,1310,1583549323701,23.979198,4.573,-10.096399,29.761134999999996,12.550951,-8.224283999999999,-1
1310,1311,1583549323712,23.796098999999998,7.0273,-10.4724,30.093575,14.751145000000001,-7.939038799999999,-1
1311,1312,1583549323722,23.9228,9.6868,-9.0461,30.307001,17.134785,-6.052475,-1
1312,1313,1583549323732,23.3106,11.937099,-7.3111997,29.638657000000002,19.10705,-3.963802,-1
1313,1314,1583549323742,22.278399,13.143498999999998,-6.4923997,28.882509999999996,19.757220999999998,-3.4847605,-1
1314,1315,1583549323752,21.711899,14.1931,-7.2077,28.536652,20.70703,-4.512983999999999,-1
1315,1316,1583549323762,21.3669,15.0835,-8.5756,28.226516999999998,21.357428,-5.6078715,-1
1316,1317,1583549323773,20.8358,15.7851,-9.2136,27.62224,21.853448999999998,-5.7041379999999995,-1
1317,1318,1583549323783,19.5106,16.732198999999998,-8.7135,26.229906,22.78465,-4.5856433,-1
1318,1319,1583549323793,18.6056,17.423199,-6.9874997,25.407345,22.978839999999998,-2.4974587,-1
1319,1320,1583549323804,17.310098999999997,16.925998999999997,-5.012,23.789324,22.023026,-0.7011467,-1
1320,1321,1583549323813,15.502998999999999,15.596399,-3.4592998,22.175154,20.546913,0.7646602,-1
1321,1322,1583549323823,14.3494,14.1816,-1.8828,21.162454999999998,19.314917,2.4541047000000002,-1
1322,1323,1583549323833,13.186,13.099299,0.4138,20.036394,18.398262,5.2089596,-1
1323,1324,1583549323843,12.177,12.336599,3.9547,18.93147,17.802547,8.767787,-1
1324,1325,1583549323854,10.7748995,11.6928,7.4108,17.344334,17.13107,12.233633,-1
1325,1326,1583549323864,9.2321,10.637199,11.1612,15.428456,15.620337,16.569246,-1
1326,1327,1583549323874,7.6748996,8.9781,14.714498999999998,14.183623999999998,14.356228,19.0299,-1
1327,1328,1583549323884,6.4911,7.2574997,17.228699,13.128156,12.727979,20.760046,-1
1328,1329,1583549323894,5.6179,5.2372,18.3927,11.683244,10.458217999999999,21.605038,-1
