,Seq,Time,ACCx,ACCy,ACCz,ADGx,ADGy,ADGz,Keydown
0,1,1583549670402,-0.84029996,-1.7816999,-0.1576,-2.614114,7.781098399999999,-1.5043440000000001,-1
1,2,1583549670412,-1.9672999,-2.1227,-1.7516999,-0.40590337,10.036695,-0.3707469,-1
2,3,1583549670423,-0.0139,0.2119,-0.0064,-0.8680035,9.895436,-0.21482694,-1
3,4,1583549670433,-0.3798,-0.022799998999999998,0.31689999,-1.176798,9.7383585,0.27427974,-1
4,5,1583549670443,-0.4574,-0.051099997,0.84739995,-1.1046655,9.76887,0.8669021,-1
5,6,1583549670454,-0.2038,0.057699997,1.0892,-0.86650944,9.891567,0.95364887,-1
6,7,1583549670464,-0.0098,0.0985,0.8279,-0.76386523,9.903261,0.76550287,-1
7,8,1583549670474,0.0682,0.1396,0.6354,-0.65807027,9.918967,0.66325134,-1
8,9,1583549670484,0.1107,0.1908,0.4398,-0.7408235,9.909936,0.59335023,-1
9,10,1583549670494,0.0744,0.0756,0.3696,-0.76420045,9.812864999999999,0.6610965999999999,-1
10,11,1583549670505,0.0673,0.029399997999999997,0.43289998,-0.78797007,9.779739,0.8488976999999999,-1
11,12,1583549670515,-0.0093,-0.0112,0.2814,-0.9840935,9.658191,1.0363733,-1
12,13,1583549670525,-0.17019999,-0.1171,0.32899999999999996,-1.1301589,9.633674000000001,1.1761756,-1
13,14,1583549670535,-0.24409999,-0.1046,0.3845,-1.2159288000000001,9.606494999999999,1.3089389,-1
14,15,1583549670545,-0.21769999,-0.1425,0.42049998,-1.218888,9.524861999999999,1.3588818,-1
15,16,1583549670555,-0.2008,-0.212,0.4353,-1.1936628,9.52785,1.5009728999999998,-1
16,17,1583549670566,-0.0824,-0.1638,0.5261,-1.1767215,9.523675,1.6514436999999997,-1
17,18,1583549670576,-0.14289999,-0.22299999,0.64419997,-1.249601,9.38686,1.9161466,-1
18,19,1583549670586,-0.0786,-0.3506,0.89839995,-0.9837392,9.156796,2.1876203999999997,-1
19,20,1583549670599,0.2131,-0.5679,0.9837,-0.6871071999999999,8.757175,2.2227577999999997,-1
20,21,1583549670609,0.2131,-0.5679,0.9837,-0.6871071999999999,8.757175,2.2227577999999997,-1
21,22,1583549670619,0.6982,-1.4182,1.1022999,-0.4262924,7.85617,2.7375013999999998,-1
22,23,1583549670629,0.7698,-1.9010999,1.5389999,-0.26955837,7.1293197,3.6158288,-1
23,24,1583549670639,0.8186,-3.4961998,3.1394,-0.39320454,5.910882,4.8413343,-1
24,25,1583549670649,0.8372,-4.5087,4.2208,-0.31747112,4.855853,6.014867,-1
25,26,1583549670659,0.8372,-4.5087,4.2208,0.02894111,3.5978818,6.7598557,-1
26,27,1583549670669,1.2502999,-5.9979997,5.0917997,-0.29963914,1.5186135,7.050330000000001,-1
27,28,1583549670679,0.9668,-8.0519,5.2676997000000005,-1.7378648999999997,-1.4460021,7.403944500000001,-1
28,29,1583549670689,-0.41529998,-10.9626,5.4929,-3.9353683,-4.708887,8.137661999999999,-1
29,30,1583549670699,-2.5456,-14.1896,6.0874996,-5.8404922,-7.1812453,9.375003999999999,-1
30,31,1583549670710,-6.392299700000001,-19.3183,9.6029,-8.069245,-10.225741000000001,12.388222,-1
31,32,1583549670720,-6.392299700000001,-19.3183,9.6029,-8.09877,-11.014956,13.879638,-1
32,33,1583549670730,-6.5699,-20.3815,11.4093,-6.874797,-11.348085000000001,14.401689000000001,-1
33,34,1583549670740,-3.0121,-20.0383,9.7204,-3.8398972000000002,-10.501294,11.5981455,-1
34,35,1583549670750,0.00049999997,-18.8619,5.6643996,-0.6657221999999999,-9.184388,7.280145,-1
35,36,1583549670760,2.6727998,-17.1981,1.0402,2.0123265,-7.430165299999999,2.5325484,-1
36,37,1583549670771,4.2009,-15.6038,-3.5763998,3.4784207,-5.8433269999999995,-2.1121072999999995,-1
37,38,1583549670781,4.2009,-15.6038,-3.5763998,4.3519115,-4.432576999999999,-5.0123,-1
38,39,1583549670791,6.7953,-11.838799,-9.4643,6.8314333,-1.9407014999999999,-7.416805999999999,-1
39,40,1583549670802,9.0485,-10.224299,-9.9126,9.7851305,-0.09362286,-7.440479799999999,-1
40,41,1583549670813,10.9158,-8.4003,-9.456699,11.703845,2.1045225,-6.594119999999999,-1
41,42,1583549670823,11.9851,-5.8103,-8.748199000000001,12.809257,4.5760856,-6.0377264,-1
42,43,1583549670833,12.620399,-3.4185,-9.0046,13.516523000000001,6.437692,-6.3529663,-1
43,44,1583549670843,12.8175,-0.8142,-10.0827,14.135271,9.391447,-7.575550999999999,-1
44,45,1583549670853,13.4217,1.3061,-11.5791,15.251266000000001,11.147509,-9.120836,-1
45,46,1583549670863,14.255799,3.1383,-13.4225,16.33266,12.940469,-10.634565,-1
46,47,1583549670873,15.039499,4.9077997,-14.6529,17.412865,14.295156500000001,-11.303898,-1
47,48,1583549670883,15.567499,6.2131,-15.0168,17.867325,15.273560999999999,-11.196791000000001,-1
48,49,1583549670893,15.1122,7.7404,-14.3447,17.337917,16.885357,-9.976141,-1
49,50,1583549670904,14.434899,9.1854,-13.7605,17.395529999999997,18.259418,-9.629135,-1
50,51,1583549670914,14.7428,10.9607,-14.0132,18.07422,19.826088000000002,-9.602147,-1
51,52,1583549670924,15.2139,12.4507,-13.575299,19.380709,20.96433,-8.041472,-1
52,53,1583549670934,16.4611,13.583798999999999,-11.9564,20.883041,21.885742,-5.565035,-1
53,54,1583549670944,17.3624,14.598498999999999,-9.253099,21.393055,22.600584,-2.520194,-1
54,55,1583549670955,17.407999,15.538799,-6.6717997,21.167175,23.42918,-0.50080955,-1
55,56,1583549670965,16.4422,16.6603,-5.2711997,20.090178,24.072397,0.06526594,-1
56,57,1583549670975,14.906799,17.275,-5.4179,18.934956,24.460379999999997,-0.79678077,-1
57,58,1583549670985,14.094899,17.544698999999998,-6.3283997,18.59136,24.316507,-1.4001675,-1
58,59,1583549670995,13.741798999999999,17.3652,-6.3947997,18.694407,23.976706,-0.6486946,-1
59,60,1583549671005,13.660998999999999,17.0438,-4.870199700000001,18.543745,23.619375,1.6932657,-1
60,61,1583549671016,13.1053,16.7316,-2.1021,18.037264,23.239424,3.9339797,-1
61,62,1583549671026,12.2641,16.1966,0.91349995,17.435965,22.653898,7.3199368,-1
62,63,1583549671036,11.9388,15.9214,3.5621998,17.841217,22.449156,9.11238,-1
63,64,1583549671046,12.601399,15.7028,4.7752,18.716988,22.288227,9.438269,-1
64,65,1583549671056,13.2422,15.381398999999998,5.4974,18.891964,21.518883,10.921151,-1
65,66,1583549671067,12.9824,14.429,7.3289,17.957556,20.284472,13.227676,-1
66,67,1583549671077,11.905399000000001,13.0422,9.9207,16.510519,18.905756,15.323849,-1
67,68,1583549671087,10.450999000000001,11.5063,12.1201,15.074410999999998,17.661385,16.525451999999998,-1
68,69,1583549671097,9.1268,10.139299000000001,13.3319,13.760042000000002,16.541004,16.540533,-1
69,70,1583549671107,7.9083,8.7553,13.457398999999999,12.147921,15.362433,15.891169,-1
70,71,1583549671118,6.4239999999999995,7.4465,12.9109,10.823851,14.371051999999999,14.670519,-1
71,72,1583549671128,5.473099700000001,6.2738,11.8482,10.526902,13.531137,13.2918415,-1
72,73,1583549671138,5.5632,5.2278,10.7891,11.085450999999999,12.604389,12.571168,-1
73,74,1583549671148,6.4251,4.0867,10.4915,10.712491,11.094874,13.4481735,-1
74,75,1583549671158,6.161299700000001,2.5935,11.5651,8.592953,9.3359785,15.345291,-1
75,76,1583549671168,4.3178,0.6647,13.611799,6.565140700000001,7.6273136,16.557388,-1
76,77,1583549671178,2.5844,-1.2088,14.9648,5.2431774,6.761934299999999,16.428724,-1
77,78,1583549671189,1.2527,-2.3567998,14.818199,3.7801572999999995,6.447518,14.496201999999998,-1
78,79,1583549671199,0.41099998,-2.6871,13.2364,3.55809,6.2671676,12.982128,-1
79,80,1583549671209,0.4613,-3.1668,10.8646,3.375173,5.741631,9.100868,-1
80,81,1583549671219,0.5864,-3.6378998999999994,8.2225,3.8423488,5.392824,6.171524,-1
81,82,1583549671229,1.327,-4.0717998,5.4708,4.619219999999999,4.8938537,4.456615,-1
82,83,1583549671240,2.4508997999999997,-4.8136997,3.6402,4.6287293,3.5419052000000004,3.4711807,-1
83,84,1583549671250,2.6334,-6.0632,3.0263,3.61105,1.9928951000000001,4.117356299999999,-1
84,85,1583549671260,1.8901,-7.6562996,3.7113998,2.2258894000000002,0.33510205,5.22705,-1
85,86,1583549671270,0.7662,-9.3677,4.8361998,1.1149127,-0.9991099,5.3953432999999995,-1
86,87,1583549671280,-0.574,-11.7932,4.6481,0.23215137,-2.2470636,4.976827,-1
87,88,1583549671290,-1.1925,-12.7738,4.3784,-0.7574584,-3.1598002999999997,4.7651699999999995,-1
88,89,1583549671301,-2.4445999,-13.336499,4.1892,-2.3059130000000003,-3.6353366,4.498954299999999,-1
89,90,1583549671311,-2.4445999,-13.336499,4.1892,-3.4178953,-3.7165766000000002,3.705688,-1
90,91,1583549671321,-3.9269,-13.1730995,1.7404,-3.7646330000000003,-3.2692442,1.7747738000000002,-1
91,92,1583549671331,-3.5795,-12.6159,0.45479998,-3.579619,-2.7323396,0.6274341,-1
92,93,1583549671341,-3.5614998,-12.2627,-0.1158,-3.7498946,-2.407523,0.13580870000000003,-1
93,94,1583549671351,-3.5145998,-11.731999,-0.1951,-3.6400008,-1.7565109,0.13359645,-1
94,95,1583549671362,-3.5145998,-11.731999,-0.1951,-2.8833083999999998,-0.9816035,-0.07706457,-1
95,96,1583549671372,-1.3556,-9.7101,-1.4609999999999999,-1.3531357,0.6083475,-1.7194486,-1
96,97,1583549671382,-0.5754,-8.4154,-2.6060000000000003,-0.70056254,1.8420701000000002,-2.7896662,-1
97,98,1583549671393,-0.0459,-7.3855996,-3.438,-0.27437553,2.7268807999999995,-3.6081004,-1
98,99,1583549671404,0.3126,-6.6204996,-4.1352,-0.02444001,3.4868483999999995,-4.2635654999999995,-1
99,100,1583549671415,0.4229,-5.8159,-4.5155997,-0.027485436000000002,4.5367346,-4.563741,-1
100,101,1583549671425,0.4226,-4.9716997,-4.5548997,0.060621187,5.382175,-4.657728,-1
101,102,1583549671435,0.6128,-4.098099700000001,-4.6264,0.3039583,6.1937809999999995,-4.877228700000001,-1
102,103,1583549671445,0.7765,-3.3715,-4.8947,0.27970982,6.768714999999999,-5.258692,-1
103,104,1583549671455,0.6897,-2.8116,-5.2616997,0.18305108,7.408580000000001,-5.8975606,-1
104,105,1583549671466,0.5972,-1.9869999999999999,-5.966,0.058753707,8.465427,-6.5689616,-1
105,106,1583549671476,0.4215,-0.91749996,-6.3287997,-0.04178361,9.4123535,-6.380538,-1
106,107,1583549671486,0.4897,-0.122999996,-5.8184,0.27693254,9.981973,-5.430193,-1
107,108,1583549671497,0.6863,0.2394,-4.9231997000000005,0.088049166,10.179916,-4.2243104,-1
108,109,1583549671507,0.4567,0.39589998,-3.6566,0.040538624,10.135469,-2.97832,d
109,110,1583549671517,0.4569,0.3073,-2.5121999,-0.03970544,9.984558999999999,-2.1434330000000004,-1
110,111,1583549671528,0.3498,0.1698,-1.7665,-0.30959899999999996,10.180595,-1.9139056,-1
111,112,1583549671538,0.12329999,0.3854,-1.6403999,-0.37255695,10.298630000000001,-2.184192,-1
112,113,1583549671548,0.059499998,0.49319997,-1.9093,-0.47662812,10.56588,-2.3857741000000003,-1
113,114,1583549671559,-0.0468,0.76769996,-2.1071,-0.62059623,10.732553999999999,-2.2289060000000003,-1
114,115,1583549671569,-0.233,0.9440000000000001,-1.8447,-0.7836221999999999,10.780199,-1.7397131999999997,-1
115,116,1583549671579,-0.3802,0.97319996,-1.4365,-0.8496447,10.778514,-1.4199436,-1
116,117,1583549671589,-0.44869998,0.973,-1.1155,-0.37416583,10.903203999999999,-1.3342121,-1
117,118,1583549671599,0.0011999999,1.1004,-1.0171,0.1296125,11.129878,-1.4427843,-1
118,119,1583549671610,0.48049998,1.3259999999999998,-1.1101999,0.27155036,11.295681,-1.4869142,-1
119,120,1583549671620,0.62119997,1.4930999,-1.1409999,0.34451604,11.403573,-1.3835613000000002,-1
120,121,1583549671630,0.584,1.5437,-0.99359995,0.20185035,11.34096,-1.3743389,-1
121,122,1583549671640,0.584,1.5938,-0.8947,0.24478320000000003,11.406513,-1.3102028000000001,-1
122,123,1583549671650,0.5902,1.5938,-0.8734,0.17283262,11.44052,-1.2952152,-1
123,124,1583549671660,0.361,1.5178,-0.9396,-0.09622775,11.311577999999999,-1.4292139,-1
124,125,1583549671671,0.1551,1.5388,-1.1044999,-0.23155762,11.33328,-1.5934083,-1
125,126,1583549671681,0.24319999,1.4419999,-1.1451,-0.15485696,11.186247,-1.6368774,-1
126,127,1583549671691,0.2439,1.1488999,-1.054,-0.19875705,10.906719,-1.5051484,-1
127,128,1583549671701,0.2069,1.0026,-0.7143,-0.19680338,10.768726,-1.1368818,-1
128,129,1583549671712,0.3373,0.84639996,-0.3971,-0.04519295,10.566235,-0.87897843,-1
129,130,1583549671722,0.43069997,0.6709,-0.39119998,0.026077645,10.40591,-1.0156778,-1
130,131,1583549671732,0.7035,0.63299996,-0.8125,0.41855437,10.437877,-1.558836,-1
131,132,1583549671742,1.0378,0.5464,-1.2121998999999999,0.55671895,10.291706,-1.7897806,-1
132,133,1583549671752,0.858,0.26369998,-1.2149999,0.11816822,9.910923,-1.6465307,-1
133,134,1583549671763,0.2516,-0.0876,-0.9134,-0.59655845,9.573407000000001,-1.3667827,-1
134,135,1583549671773,-0.3734,-0.312,-0.69949996,-1.1454818000000002,9.380128,-1.1016201,-1
135,136,1583549671783,-0.63019997,-0.52709997,-0.25759998,-1.2436825,9.166546,-0.4798076,-1
136,137,1583549671793,-0.4912,-0.7132,0.43609998,-1.0623456,9.071428,0.037837964,-1
137,138,1583549671803,-0.121999994,-0.69339997,0.7327,-0.57657164,9.122033,0.2733508,-1
138,139,1583549671813,0.35259998,-0.62409997,0.5699,-0.19401653,9.168203,-0.08331822,-1
139,140,1583549671824,0.564,-0.5247,0.0164,-0.06868486,9.317457000000001,-0.7106566,-1
140,141,1583549671834,0.7209,-0.3561,-0.5506,0.03507984,9.456484,-1.2393919,-1
141,142,1583549671844,0.6766,-0.3637,-0.7574,-0.20510648,9.378663000000001,-1.2130463,-1
142,143,1583549671854,0.2649,-0.4693,-0.5309,-0.7501704,9.214861,-0.8208473,-1
143,144,1583549671864,-0.11669999,-0.6046,-0.19479999,-1.0477314,9.109822,-0.49827167,-1
144,145,1583549671874,-0.2963,-0.68149996,0.0677,-1.1412871999999998,9.075747999999999,-0.37331352,-1
145,146,1583549671885,-0.3647,-0.6903,0.054399997,-1.1477708,9.118174,-0.476925,-1
146,147,1583549671895,-0.156,-0.6113,-0.055999997999999995,-0.6628874,9.256817999999999,-0.5874222,-1
147,148,1583549671905,0.40899998,-0.4544,-0.1857,-0.1860582,9.435951,-0.6216018,-1
148,149,1583549671915,0.7772,-0.24859999,-0.1094,0.010113108,9.604186,-0.3347094,-1
149,150,1583549671925,0.914,-0.16,0.23089999,0.13012007,9.603114,-0.028538885,-1
150,151,1583549671935,0.9823,-0.1982,0.43129998,-0.088671654,9.560516,0.22559126,-1
151,152,1583549671945,0.7445,-0.2164,0.6225,-0.40716752,9.44886,0.238089,-1
152,153,1583549671956,0.3498,-0.3906,0.5403,-0.8122569000000001,9.294023,-0.013091493999999999,-1
153,154,1583549671966,0.0348,-0.5056,0.26479998,-1.1280424999999998,9.215014,-0.21787237,-1
154,155,1583549671976,-0.18419999,-0.55219996,0.1549,-1.3074735,9.246292,-0.24887249,-1
155,156,1583549671986,-0.3484,-0.4815,0.120699994,-1.4070148,9.37465,-0.26264393,-1
156,157,1583549671996,-0.3725,-0.36159998,0.1292,-1.3409061000000002,9.393612,-0.13904566,-1
157,158,1583549672007,-0.27629998,-0.3511,0.253,-1.1892096,9.4043,-0.056934115,-1
158,159,1583549672018,-0.0879,-0.35009998,0.2953,-0.93616164,9.442683,-0.11820653,-1
159,160,1583549672028,0.13059999,-0.3195,0.24219999,-0.8780208,9.497050999999999,-0.17731458,-1
160,161,1583549672038,0.20549999,-0.2589,0.1827,-0.91675895,9.536853,-0.29100084,-1
161,162,1583549672048,0.1664,-0.2076,0.0184,-1.2217419,9.5251875,-0.704604,-1
162,163,1583549672058,-0.105,-0.2245,-0.3403,-1.5223676000000002,9.520658500000001,-0.95429045,-1
163,164,1583549672068,-0.3764,-0.2219,-0.5851,-1.6677147,9.496783,-0.63869643,-1
164,165,1583549672079,-0.5038,-0.24929999,-0.2801,-1.6532729,9.409921,0.028797458999999997,-1
165,166,1583549672089,-0.46879998,-0.3363,0.3489,-1.7236625,9.327092,0.6039613,d
166,167,1583549672099,-0.5545,-0.4238,1.0431,-1.6869450000000001,9.233727,1.0778216999999999,-1
167,168,1583549672109,-0.4863,-0.5017,1.3592,-1.4284382,9.368521000000001,0.65694016,-1
168,169,1583549672120,0.21239999,-0.1766,0.0927,-0.9549513000000001,9.592274,-0.3465272,-1
169,170,1583549672130,0.2997,-0.116299994,-0.37759998,-0.95322746,9.613706,-0.6992889,-1
170,171,1583549672140,-0.0967,-0.2122,-0.2421,-1.480019,9.4932785,-0.46042413,-1
171,172,1583549672150,-0.70309997,-0.4644,0.4087,-2.068322,9.210552,0.27020958,-1
172,173,1583549672161,-1.1513,-0.71639997,1.1257,-2.4900177,8.965241,0.9355391,-1
173,174,1583549672171,-1.3185999,-0.8804,1.3958,-2.5909572,8.825008,1.0567719,-1
174,175,1583549672181,-1.0813999,-0.86859995,1.1546999,-2.279213,8.887985,0.67673546,-1
175,176,1583549672191,-0.6759999999999999,-0.8085,0.51989996,-1.840327,8.917405,-0.06365704,-1
176,177,1583549672201,-0.188,-0.7784,-0.16929999,-1.4261589,8.931713,-0.6773963000000001,-1
177,178,1583549672212,0.2096,-0.85639995,-0.6247,-1.0104585,8.818237,-1.1091474,-1
178,179,1583549672222,0.65779996,-1.1012,-0.88,-0.5695614,8.548909,-1.3357731000000002,-1
179,180,1583549672232,0.8559,-1.6104,-0.77129996,-0.46997222,7.954611,-1.1513716,-1
180,181,1583549672242,0.6594,-2.4622,-0.3676,-0.74306446,6.835043400000001,-0.6217741999999999,-1
181,182,1583549672252,0.44919997,-3.5783,0.078899994,-0.9531413000000001,5.59366,-0.15478994,-1
182,183,1583549672262,0.2909,-4.9687,0.5528,-1.1069927,4.16932,0.33382833,-1
183,184,1583549672273,0.102699995,-6.5060997,0.94869995,-1.3189848999999998,2.8687804,0.61651653,-1
184,185,1583549672283,-0.1964,-8.2303,1.2760999,-1.7686925,0.76530176,0.9907494000000001,-1
185,186,1583549672293,-0.7177,-10.033899,1.5511999,-2.3273842,-1.0488998,1.215766,-1
186,187,1583549672303,-1.1719998999999999,-11.8001995,1.6340000000000001,-2.6641529,-2.8557463,1.2483271,-1
187,188,1583549672313,-1.4372,-13.6377,1.5819,-2.927218,-4.5705886,1.240005,-1
188,189,1583549672324,-1.9480000000000002,-15.174299,1.6671,-3.5935434999999996,-6.0614004,1.4556938,-1
189,190,1583549672334,-2.812,-16.6252,2.0246,-4.441435299999999,-7.512641,2.2032112999999995,-1
190,191,1583549672344,-3.4454,-17.5394,2.8332,-4.8430967,-8.173163,3.2886849999999996,-1
191,192,1583549672354,-3.8530998,-18.1028,3.8163,-5.014444999999999,-8.504932,3.9768937000000006,-1
192,193,1583549672364,-4.3231,-18.4027,4.5337996,-5.412304,-8.771081,4.717612,-1
193,194,1583549672374,-4.7307997,-18.673399,4.9621,-5.5037519999999995,-9.125902,5.1175776,-1
194,195,1583549672384,-4.9716,-19.079898999999997,5.3568,-5.375299,-9.5220175,5.3326244,-1
195,196,1583549672394,-5.0006,-19.4529,5.2662997,-4.891833,-9.778504,4.5723314,-1
196,197,1583549672404,-4.4209,-19.534198999999997,4.071399700000001,-2.9781187,-9.286792,2.8614445,-1
197,198,1583549672414,-2.3023,-18.602498999999998,2.0913,-0.04164953,-7.9754977,0.7475463999999999,-1
198,199,1583549672424,0.3487,-17.1224,0.1734,2.8404715,-6.3762474000000005,-0.6912252,-1
199,200,1583549672434,2.2819998,-15.4023,-0.90929997,4.3943944,-4.735721,-1.0997716999999998,-1
200,201,1583549672445,2.9208,-13.8617,-0.8106,5.052780599999999,-3.7463699999999998,-0.22911553,-1
201,202,1583549672455,2.9445999,-12.9699,0.3125,5.957617,-2.6168432,1.299295,-1
202,203,1583549672465,3.8253998999999994,-11.164599,1.6205,8.181619,-0.380544,2.3205272999999997,-1
203,204,1583549672476,6.1842,-8.7149,2.1101,12.986906,2.6128306,2.2539685,-1
204,205,1583549672486,10.059899,-5.7539997000000005,1.6709,16.794624,5.35876,1.7284987,-1
205,206,1583549672496,14.1409,-2.0283,0.8089,21.173344,8.9354,0.9719693000000001,-1
206,207,1583549672506,16.7745,0.90239996,0.1055,22.923256,10.826101,0.6411289000000001,-1
207,208,1583549672516,17.5782,2.9664,-0.1946,22.687887,11.979982000000001,1.2675096000000001,-1
208,209,1583549672526,16.685999,4.5769,0.8458,22.610447,13.273962,3.5086644000000002,-1
209,210,1583549672537,16.6192,5.9624,2.7168999,23.744312,14.838084,5.878445,-1
210,211,1583549672547,17.5523,8.0427,4.7946,25.210686,16.66506,7.2456684000000005,-1
211,212,1583549672557,18.801899,10.125299,5.6337,26.9266,17.851848999999998,7.1516720000000005,-1
212,213,1583549672568,20.063799,11.446799,4.9907,27.280645,18.241595999999998,5.7618856,-1
213,214,1583549672578,19.8344,12.0348,3.2468998,25.596766,17.735298,4.405599,-1
214,215,1583549672588,17.5556,11.5622,1.9605999,22.528576,16.345839,4.3353915,-1
215,216,1583549672598,14.347199,10.4036,1.956,18.899244,15.544804999999998,5.786086599999999,-1
216,217,1583549672608,11.2049,10.0427,3.1311,16.96357,14.923423000000001,7.544943300000001,-1
217,218,1583549672619,9.1874,9.6194,4.7437,16.752804,14.790219,8.377963000000001,-1
218,219,1583549672629,8.9051,9.6696,5.4442,17.458288,14.869045999999999,7.369726700000001,-1
219,220,1583549672639,9.5327,9.9219,4.3227,17.557917,14.502168,5.435307,-1
220,221,1583549672650,9.001599,9.2443,0.4978,16.834763,13.786292000000001,3.3452265,-1
221,222,1583549672660,9.001599,9.2443,0.4978,15.733198999999999,13.084197,2.3179127999999998,-1
222,223,1583549672670,6.1565,7.7439,-1.3955,13.952727,12.135595,1.8609748,-1
223,224,1583549672680,4.613,7.1647997000000005,-0.9763,12.461839,11.521885000000001,2.3970842,-1
224,225,1583549672690,4.613,7.1647997000000005,-0.9763,11.851844999999999,11.242999000000001,2.548484,-1
225,226,1583549672700,3.7127998,6.8275,-0.72279996,13.362948999999999,11.990182,2.6619787,-1
226,227,1583549672710,4.7153,6.8564,-0.0196,12.4176035,10.803873,3.3953227999999998,-1
227,228,1583549672721,2.6317,5.3945,-0.080299996,10.379334,9.351857,3.2649633999999996,-1
228,229,1583549672731,1.7637999,4.6442,-0.5139,9.886242999999999,8.706389,3.0360105,-1
229,230,1583549672741,2.0291,3.8474998,-0.36929998,10.410871,8.024196,3.1122992000000003,-1
230,231,1583549672751,2.0291,3.8474998,-0.36929998,10.979942999999999,7.902369,2.945481,-1
231,232,1583549672761,2.1555998,3.3472998,-0.2668,10.209852,7.591151700000001,3.3732483,-1
232,233,1583549672772,1.7979,3.3759,0.5521,9.868909,7.5808854000000006,4.144248,-1
233,234,1583549672782,1.2705,3.0403,0.9673,9.178583999999999,7.2041816999999995,4.343733,d
234,235,1583549672792,0.75659996,2.6734,0.5755,8.801219999999999,6.9645796,3.8112817000000003,-1
235,236,1583549672802,0.75659996,2.6734,0.5755,8.559616,6.650403,2.5942418999999997,-1
236,237,1583549672812,0.3189,1.8429999,-1.7145,8.303177999999999,6.199833,1.2971976,-1
237,238,1583549672822,0.0896,1.5304999,-2.1261,8.083677,5.958459400000001,1.2733705,-1
238,239,1583549672832,0.103999995,1.2303,-1.6967,8.264593,5.731747599999999,1.8186932,-1
239,240,1583549672843,0.31239998,0.9939,-1.0173,8.385183,5.557210400000001,2.3886569,-1
240,241,1583549672853,0.38349998,0.79859996,-0.354,8.474037,5.3727803,3.1147416,-1
241,242,1583549672863,0.612,0.71959996,0.1294,8.817289,5.3755097,3.5692184,-1
242,243,1583549672873,1.0965999,0.7642,0.6019,9.27985,5.410475,4.1778917,-1
243,244,1583549672883,1.4755,0.7018,1.2349,9.490069,5.2924404,4.814184,-1
244,245,1583549672893,1.5445,0.6149,1.7874,9.5251875,5.255071599999999,5.3519793,-1
245,246,1583549672904,1.5182999,0.5893,2.1671999,9.380261,5.241511,5.646916,-1
246,247,1583549672914,1.3771,0.5354,2.1122,9.196091000000001,5.18291,5.3131166,-1
247,248,1583549672924,1.1587,0.4633,1.3994,9.078966000000001,5.302266,4.4113646,-1
248,249,1583549672935,1.357,0.71419996,0.65099996,9.526863,5.832917,3.7277720000000003,-1
249,250,1583549672945,2.0152,1.2851,0.0534,10.507031,6.4722457,3.3181239999999996,-1
250,251,1583549672955,3.0733,1.9111999,-0.2129,11.2011,7.1039414,3.4174453999999996,-1
251,252,1583549672965,3.4322998999999994,2.4573998,0.096099995,10.90852,7.5571733,4.083119399999999,-1
252,253,1583549672975,2.8883,2.8011,0.8662,10.187118,7.922461500000001,4.9986143,-1
253,254,1583549672986,2.8883,2.8011,0.8662,9.622843,8.5378,5.9431650000000005,-1
254,255,1583549672996,1.9889,3.6869998,2.3895,9.926829,9.361203999999999,6.1990767,-1
255,256,1583549673006,2.5204,4.4737,2.4689999,10.966631,10.162927,5.766952,-1
256,257,1583549673016,3.6883998,5.2236,1.9546,11.952075,10.884242,5.274723000000001,-1
257,258,1583549673026,4.8966,6.0818,1.3648,13.014641000000001,11.949029,4.7671623,-1
258,259,1583549673036,5.7377996,6.8121,1.0159,13.8157215,12.572230000000001,4.600842,-1
259,260,1583549673047,6.58,7.307699700000001,0.9259999999999999,14.144004999999998,12.982463000000001,5.09353,-1
260,261,1583549673057,6.8687997,7.5603,1.5955,14.041313,13.049539,6.409498,-1
261,262,1583549673067,6.8598,7.4886,2.9508,13.956577,13.035557,7.410791400000001,-1
262,263,1583549673077,6.8142,7.3423,4.0576,13.749134,12.988017999999999,8.43052,-1
263,264,1583549673087,6.7978997,7.0948997,4.7873,13.62928,12.600933,8.599331,-1
264,265,1583549673097,6.7714,6.4665,4.7998,13.303267000000002,12.116538,7.707806599999999,-1
265,266,1583549673108,6.5287,5.8192,3.8084998,12.733839999999999,11.844000999999999,6.2638254,-1
266,267,1583549673118,6.1092,5.3166,2.4675,12.270734,11.566044,4.816252700000001,-1
267,268,1583549673128,5.8378,4.8132,1.2034999,11.791119,11.225253,3.4671870000000005,-1
268,269,1583549673138,5.6082,4.2886,0.306,11.274775,10.85555,3.0301400000000003,-1
269,270,1583549673149,5.0973,3.5716998999999996,0.0104,9.926456,10.030662,3.201651,-1
270,271,1583549673159,4.1186,2.6262,0.39049998,8.673245,9.297566,3.9219131000000003,-1
271,272,1583549673169,3.0711,1.671,1.278,7.817710000000001,8.649474,4.807394,-1
272,273,1583549673179,2.4308999,0.8170000000000001,2.3285,7.325825999999999,8.318453,5.446464,-1
273,274,1583549673189,2.1552,0.2909,3.1317,6.5557075,7.8513436,5.704358,-1
274,275,1583549673200,0.816,-1.1905999,4.2274,5.340717,7.073257400000001,6.328124,-1
275,276,1583549673210,0.21499999,-1.9621998999999999,4.8598,4.6122,6.4707513,6.640117,-1
276,277,1583549673220,-0.0515,-2.6945,4.8891,4.1635265,5.905059,6.3719954,-1
277,278,1583549673230,-0.1122,-3.2586,4.6074,3.936173,5.517907,5.798890599999999,-1
278,279,1583549673240,0.033299997000000005,-3.5942,3.8465,3.8548562999999993,5.360043,4.7249284000000005,-1
279,280,1583549673250,0.121,-3.7991,2.8639997999999998,3.7043470999999997,5.219101,3.5532443999999996,-1
280,281,1583549673261,-0.043899997999999996,-4.4237,1.9995999,3.2190998,4.646054,2.5196962000000003,-1
281,282,1583549673271,-0.5203,-5.0962,1.4096,2.4913106,4.0873623,1.8313248,-1
282,283,1583549673281,-0.5203,-5.0962,1.4096,1.7643831,3.6343502999999995,1.7881048,-1
283,284,1583549673291,-1.729,-6.4582996,1.9115,0.85206765,2.8646814999999997,2.0571556,-1
284,285,1583549673301,-1.8325,-6.8128996,2.0035,0.6915316,2.7288248999999998,1.7346661,-1
285,286,1583549673312,-1.3884,-6.6942997,1.4079,0.9766619000000001,2.8541374,0.8434676999999999,-1
286,287,1583549673322,-1.0912,-6.8104997,0.7123,0.8776473,2.6664321,0.010007763000000001,-1
287,288,1583549673333,-1.2521,-7.1640997,0.34739998,0.45079944,2.2539973,-0.4452066,-1
288,289,1583549673343,-1.5596,-7.6294,0.19759999,-0.12885594,1.8889773,-0.6151758,-1
289,290,1583549673353,-2.0492,-7.8644,0.1814,-0.8244481,1.7942052,-0.67314416,-1
290,291,1583549673363,-2.5706,-7.8598,0.3618,-1.3475716,1.8698906000000002,-0.60794526,-1
291,292,1583549673373,-2.6395,-7.6840997,0.25779998,-1.3292226,2.1541781,-0.87864333,-1
292,293,1583549673383,-2.1780999,-7.2885,-0.1882,-0.5767536,2.6014532999999997,-1.6220716,-1
293,294,1583549673394,-0.7194,-6.7426996,-1.1184,1.0126324,3.1927447,-2.497497,-1
294,295,1583549673404,0.71999997,-6.2056,-1.5834,2.0542252,3.5869739999999997,-2.7225330000000003,-1
295,296,1583549673414,1.0497,-6.1312,-1.4908999,1.7296288,3.3485593999999996,-2.3892505,-1
296,297,1583549673424,0.5315,-6.5302,-0.9528,0.8361414,2.9176509999999998,-1.5600905,-1
297,298,1583549673434,-0.43019998,-6.9212,0.0796,-0.27932670000000004,2.69703,-0.27498844,-1
298,299,1583549673444,-1.3262,-7.0277,1.3299999,-0.9439091999999999,2.7817464,0.7324821,-1
299,300,1583549673455,-1.6966,-6.8178997,1.9402,-1.0607367,3.2050507,0.6367331999999999,-1
300,301,1583549673465,-1.6080999,-6.2612996,1.4663,-0.8106959,3.9080746,-0.16506584,-1
301,302,1583549673475,-1.1797,-5.5453,0.6379,-0.27922140000000006,4.487883,-0.9928084,-1
302,303,1583549673485,-0.5828,-5.0834,-0.1235,0.3888758,4.9858199999999995,-1.6531101000000001,-1
303,304,1583549673495,0.070999995,-4.4648,-0.6874,0.9921285,5.728721,-2.0386147,-1
304,305,1583549673506,0.6135,-3.7293,-0.9069,1.5374701000000002,6.4938602,-1.8755313000000002,-1
305,306,1583549673516,0.99359995,-3.1319999999999997,-0.6113,1.7118542,6.961706599999999,-1.2497158000000002,-1
306,307,1583549673526,1.1373999,-2.7115,0.038599997999999996,1.5146104,7.193925,-0.551557,-1
307,308,1583549673536,0.83019996,-2.536,0.7051,1.0112821,7.186205999999999,-0.25081658,-1
308,309,1583549673546,0.235,-2.5655,0.87219995,0.43898165,7.2884765,-0.6871359,-1
309,310,1583549673556,-0.1671,-2.3781,0.35099998,0.14776056,7.518741,-1.4343567,-1
310,311,1583549673567,-0.3929,-2.1706,-0.3574,0.16935624,7.7956259999999995,-1.8454986,-1
311,312,1583549673577,-0.33609998,-1.8557999,-0.6838,0.38025668,8.200686,-1.9535537,-1
312,313,1583549673588,-0.0835,-1.4634999,-0.7579,0.691388,8.457930000000001,-1.6949319999999999,-1
313,314,1583549673598,0.1933,-1.2389,-0.41009998,0.99526966,8.640597,-1.1866621000000002,-1
314,315,1583549673608,0.4515,-1.0438,0.0532,0.90827394,8.813851,-0.7849246999999999,-1
315,316,1583549673618,0.25419998,-0.8972,0.4067,0.5022460999999999,8.875430999999999,-0.6994229000000001,-1
316,317,1583549673628,-0.083299994,-0.85719997,0.45009997,0.33194172,8.927116,-0.85286254,-1
317,318,1583549673639,-0.2904,-0.78639996,0.2329,0.10793061,9.122598,-1.4903523,-1
318,319,1583549673648,-0.4791,-0.6063,-0.28849998,0.020867862,9.276354,-1.8333839,-1
319,320,1583549673658,-0.5833,-0.41619998,-0.6723,-0.062392894000000004,9.2951145,-2.0264043999999997,-1
320,321,1583549673668,-0.64379996,-0.4226,-0.7786,0.11677958,9.355936,-1.8557266,-1
321,322,1583549673678,-0.5051,-0.3613,-0.5919,0.20101719,9.439657,-1.6151955,-1
322,323,1583549673688,-0.4014,-0.2616,-0.31649998,0.37294,9.491467,-1.4522749,-1
323,324,1583549673698,-0.30069998,-0.2209,-0.19119999,0.5311967,9.583731,-1.4554065,d
324,325,1583549673708,-0.1408,-0.0914,-0.1804,0.5710649999999999,9.798701,-1.3894798000000002,-1
325,326,1583549673718,-0.1735,0.12709999,-0.0828,0.5671864000000001,9.932786,-1.2949375,-1
326,327,1583549673728,-0.1339,0.25869998,-0.0137,0.85066944,10.148982,-1.534645,-1
327,328,1583549673738,0.1038,0.4895,-0.3171,0.8247929,10.213674000000001,-2.1158040000000002,-1
328,329,1583549673748,0.049999997000000004,0.52489996,-0.7525,0.73870695,10.150372,-2.669104,-1
329,330,1583549673758,-0.061899997000000005,0.46199998,-1.4451,0.82211137,10.159163000000001,-3.3451687999999993,-1
330,331,1583549673769,0.019399998999999998,0.4766,-1.9314,1.6223207,10.270062,-3.7242384,-1
331,332,1583549673779,0.8032,0.588,-2.2914999,2.1552412999999997,10.356368,-4.1769624,-1
332,333,1583549673789,1.4125,0.68869996,-2.9215999,2.5538757000000003,10.412651,-5.011868499999999,-1
333,334,1583549673799,1.6963999,0.7396,-3.5723,2.621354,10.176238,-5.0663800000000005,-1
334,335,1583549673809,1.7660999,0.5051,-3.6244,1.9532856,9.624184,-4.6607347,-1
335,336,1583549673819,1.112,-0.053099997,-3.2006997999999998,1.218639,9.260025,-4.004599,-1
336,337,1583549673829,0.40559998,-0.4136,-2.5270998,1.6283253,9.2195635,-4.65995,-1
337,338,1583549673840,0.8312,-0.4461,-3.1238,2.63502,9.45203,-7.1925550000000005,-1
338,339,1583549673850,3.4429998,0.37539998,-8.5772,4.709021599999999,10.115502000000001,-10.829492,-1
339,340,1583549673860,3.4429998,0.37539998,-8.5772,6.5100164000000005,10.362057,-12.786838000000001,-1
340,341,1583549673870,6.9132,0.6688,-12.470099000000001,7.8156223,10.217361,-14.371510999999998,-1
341,342,1583549673880,6.539,0.2342,-12.0292,7.255292999999999,9.717058999999999,-13.623564000000002,-1
342,343,1583549673890,6.539,0.2342,-12.0292,6.646151,8.929950999999999,-11.785725999999999,-1
343,344,1583549673901,5.2405,-1.5597999,-8.779799,5.7479324,7.7835784,-10.580399,-1
344,345,1583549673910,5.2405,-1.5597999,-8.779799,4.6091733,6.827947,-10.801163,-1
345,346,1583549673920,3.9262,-2.7756998999999998,-8.8576,3.631985,5.498064,-11.514387,-1
346,347,1583549673930,3.0412,-4.098799700000001,-9.5418,3.2920945,4.056093700000001,-11.431461,-1
347,348,1583549673940,2.8427,-5.3268,-9.624499,3.1172888,3.1900630000000003,-10.164631,-1
348,349,1583549673950,2.6843,-7.1763997,-5.8336997,3.1106427000000005,2.3321726000000003,-7.2288804,-1
349,350,1583549673960,2.7654,-7.6900997,-3.4334,3.0700274,1.8232229,-4.877036599999999,-1
350,351,1583549673971,2.3901,-8.3211,-1.4757999,2.5991356,1.2067448,-2.9172199,-1
351,352,1583549673981,1.7588999,-8.8714,0.0299,1.8710686,0.70922005,-1.5078586,-1
352,353,1583549673991,0.71379995,-9.1446,0.9586,0.7109438,0.45484084,-0.54396266,-1
353,354,1583549674001,-0.4077,-9.663,2.3155,-0.43210554,-0.16316964,1.0771035,-1
354,355,1583549674011,-1.4189,-10.478399000000001,4.2996,-1.3979648,-0.92956316,3.1197982000000004,-1
355,356,1583549674021,-2.0548,-11.0027,6.2662,-1.8379903999999998,-1.4001675,5.234261,-1
356,357,1583549674031,-1.4889,-11.1177,8.614699,-1.0041951999999998,-1.3356773000000002,7.828178,-1
357,358,1583549674041,-0.82989997,-10.6159,11.8333,-0.49317682,-0.82989734,11.413427,-1
358,359,1583549674051,-1.6211,-10.387799000000001,16.041399,-1.5159128000000002,-0.60551274,16.00089,-1
359,360,1583549674062,-3.7556998999999998,-10.224999,20.9333,-4.000395,-0.46311525,22.175718,-1
360,361,1583549674072,-6.2061996,-10.261499,27.728498,-5.867460299999999,-0.44096407,29.544832,-1
361,362,1583549674082,-6.5755,-9.8756,32.4052,-5.3140073,0.17892347,32.645035,-1
362,363,1583549674092,-5.1988997,-8.9383,32.9454,-2.9009392000000003,1.3336661,31.823864,-1
363,364,1583549674103,-1.8511,-7.4789996,30.144499,0.19684169,2.6000072999999997,28.937604999999998,-1
364,365,1583549674113,1.4017998999999999,-5.3023,25.802198,3.9849667999999996,5.487137000000001,23.761389,-1
365,366,1583549674123,3.0798,-2.5489,22.346498,5.167377,8.0029545,21.302198,-1
366,367,1583549674133,3.1418,-0.6846,21.8648,5.169761,9.156443,22.060566,-1
367,368,1583549674143,2.8386998,-0.23099999,23.5864,5.1510963,9.400259,23.772776,-1
368,369,1583549674154,2.5871,0.0686,24.4856,5.2136903,9.601092999999999,23.933016000000002,-1
369,370,1583549674164,3.2224,0.4033,23.0348,6.923083,10.153704,21.161047,-1
370,371,1583549674174,5.8043,1.5898,18.4621,10.485818,11.805883999999999,15.043467999999999,-1
371,372,1583549674184,8.151,2.9884999,13.6151,12.170407,12.749775,10.903702000000001,-1
372,373,1583549674195,9.2757,3.8576998999999996,10.0594,12.904747,13.258026000000001,9.139023,-1
373,374,1583549674204,9.8207,4.9094996,8.0514,13.369596,14.283999,7.2626867,-1
374,375,1583549674214,9.5238,5.4363,7.0688996,13.507492000000001,14.734539999999999,5.9393535,-1
375,376,1583549674224,9.8649,5.8308,5.4832,14.096303,14.821172,3.8511214,-1
376,377,1583549674235,10.2246,5.8183,2.8478,14.623467000000002,14.786819,0.5053297999999999,-1
377,378,1583549674245,10.8855,5.9577,-0.97969997,15.850334,15.091275,-3.4641992999999993,-1
378,379,1583549674255,12.0393,6.3971,-4.6510997000000005,16.7683,15.45938,-6.347421,-1
379,380,1583549674265,12.7276,6.9486,-7.1189,17.642864000000003,16.428276,-7.9760246,-1
380,381,1583549674275,13.736799,8.0233,-8.4928,18.768079999999998,17.105366,-8.706275,-1
381,382,1583549674286,14.523399,8.4122,-8.9889,18.513884,16.86332,-8.700185000000001,-1
382,383,1583549674296,13.7547,7.9426,-9.0604,16.699049,15.521782,-9.352279,-1
383,384,1583549674306,11.882899,6.4266,-10.0478,15.17198,14.214212,-10.420514,-1
384,385,1583549674316,10.1135,4.9677997000000005,-11.581699,13.649459,13.219210999999998,-12.657521000000001,-1
385,386,1583549674326,9.2745,4.3879,-13.805099499999999,13.996197,13.064574,-15.400155999999999,-1
386,387,1583549674336,9.781899000000001,4.1942997,-16.6161,14.4426,12.497589,-17.61125,-1
387,388,1583549674347,10.386399,3.5937,-18.7167,16.025608,12.127733000000001,-18.992743,-1
388,389,1583549674357,12.1684,3.1834998,-20.013899,17.302868,11.519749000000001,-19.2965,-1
389,390,1583549674367,13.363999,2.2911,-19.7798,16.922552,10.070366,-17.991259,-1
390,391,1583549674377,12.342299,0.91719997,-18.7389,14.570432,8.45181,-17.767313,-1
391,392,1583549674387,10.0383,-0.73319995,-18.6378,12.587649,7.0174913,-17.64206,-1
392,393,1583549674397,8.1839,-2.1516,-18.4286,10.736654,6.0378222,-16.976633,-1
393,394,1583549674407,6.5217,-3.0168,-17.645198999999998,9.937623,5.656435500000001,-15.900170999999999,-1
394,395,1583549674417,6.032,-3.3348,-16.607,10.047507000000001,5.6157246,-15.074976999999999,-1
395,396,1583549674427,6.2890997,-3.3604998999999998,-15.8701,10.471472,5.6417546,-14.493597,-1
396,397,1583549674437,6.7394,-3.4111998,-15.180598999999999,10.547789999999999,5.4889565000000005,-13.576972,-1
397,398,1583549674448,6.7243,-3.5788998999999997,-14.281899,9.90782,5.0741944000000005,-12.519109,-1
398,399,1583549674458,5.8872,-4.0715,-13.1904,8.535798,4.36327,-11.330110000000001,-1
399,400,1583549674468,4.5898,-4.8189,-11.9265995,7.91638,3.8373692000000004,-9.06892,-1
400,401,1583549674478,4.1960998,-5.2085,-9.9588995,7.987239,3.6459956,-7.0608745,-1
401,402,1583549674488,4.2598,-5.4642,-7.4804997,7.8521194,3.4534922,-4.9923797,-1
402,403,1583549674499,4.0861998,-5.5878,-5.5982,7.833473700000001,3.564861,-3.43816,-1
403,404,1583549674508,4.0878997,-5.4631,-4.3592997,8.037968,3.7789410000000005,-2.9251110000000002,-1
404,405,1583549674518,4.2806997,-5.2488,-3.8277,7.554482000000001,3.7747370000000005,-2.8773324000000002,-1
405,406,1583549674528,3.7612,-5.2394,-3.7505998999999997,7.712183500000001,3.9593199999999995,-3.049667,-1
406,407,1583549674538,3.8922,-5.0411,-3.8953998,8.199892,4.239882499999999,-2.7558026,-1
407,408,1583549674548,4.3993,-4.6622,-3.3848,7.707337400000001,4.5366197,-0.8983810999999999,-1
408,409,1583549674558,3.7996,-4.4389997,-1.714,6.6271119999999994,4.480068,0.87411344,-1
409,410,1583549674569,2.4287,-4.5208,0.5412,5.769978,4.130515,4.2442400000000005,-1
410,411,1583549674579,1.7786,-4.8073997,3.4185998,5.4799542,4.10121,6.520914599999999,-1
411,412,1583549674589,1.4379,-4.8150997,5.7339,5.2103,4.916503,7.7477136,-1
412,413,1583549674599,1.0988,-3.9724,7.032099700000001,5.7882223,6.358243,8.137997,-1
413,414,1583549674610,1.5741,-2.4919,7.4793,6.214294000000001,7.9559994000000005,7.881482000000001,-1
414,415,1583549674620,1.8907,-0.84559995,7.254699700000001,6.7461042,8.970939999999999,7.738146,-1
415,416,1583549674630,3.0802999,0.71389997,8.519999499999999,7.753699,9.428874,9.794785000000001,-1
416,417,1583549674640,3.8076,0.9263,12.0043,8.563217,9.620966000000001,13.653882999999999,-1
417,418,1583549674650,4.3704,1.2133,15.6173,9.101146,9.815997,17.042510999999998,-1
418,419,1583549674660,4.2021,1.48,16.888899,8.790283,10.043648,17.777092,-1
419,420,1583549674671,4.2021,1.48,16.888899,7.9992003,10.051117,16.30798,-1
420,421,1583549674681,1.814,1.5394,12.3814,6.3753185,10.040583,12.766448,-1
421,422,1583549674691,0.56729996,1.4979,9.6446,5.163546,9.959046,10.125242,-1
422,423,1583549674701,-0.45769998,1.2691,7.8778996,4.1871233,9.703498,8.630935000000001,-1
423,424,1583549674711,-1.3526,1.0235,7.5425997,3.4467597000000003,9.463369,8.569517999999999,-1
424,425,1583549674721,-1.3761,0.89129996,8.0988,3.5573718999999997,9.353274,9.295574,-1
425,426,1583549674732,-1.0490000000000002,1.0389999,8.766399,3.9345355000000004,9.537149000000001,9.931981,-1
426,427,1583549674742,-0.4666,1.3159,8.6128,4.5742755,9.786883,9.68061,-1
427,428,1583549674752,0.2164,1.5019999999999998,7.5516996,5.31825,9.928496,8.286284,-1
428,429,1583549674762,0.5915,1.5827999,6.138099700000001,5.587052,9.992161999999999,6.9149910000000006,-1
429,430,1583549674772,0.68939996,1.5666,4.7929997,5.6063395,9.912914,5.924931,-1
430,431,1583549674782,0.30629998,1.3366,3.8944,4.8988523,9.598842999999999,4.9555664,-1
431,432,1583549674793,-0.51879996,0.95409995,3.2818,4.2175875,9.258014,4.561711,-1
432,433,1583549674803,-1.2418,0.54069996,3.017,3.4260642999999997,8.847964,4.3077817000000005,-1
433,434,1583549674813,-1.6231999,0.31559998,2.8044999,3.1187925,8.682955,4.1046767,-1
434,435,1583549674823,-1.7547,0.24139999,2.5191998,3.1803617,8.703057000000001,3.7811437000000003,-1
435,436,1583549674833,-1.4031,0.3875,2.1434,3.5886017999999997,8.892716,3.4297800000000005,-1
436,437,1583549674844,-1.0083,0.5166,1.7912999,4.048030000000001,8.959361,3.021789,-1
437,438,1583549674854,-0.6956,0.5092,1.4282,4.26053,8.955148,2.6280386,-1
438,439,1583549674864,-0.5117,0.5014,0.99359995,4.485134599999999,8.857952000000001,2.2532504,-1
439,440,1583549674874,-0.1318,0.424,0.6326,4.9528275,8.8953495,1.8508233,-1
440,441,1583549674884,0.1414,0.48299998,0.3516,4.907127,8.871466,1.8618270000000001,-1
441,442,1583549674894,-0.041899998,0.4324,0.48799998,4.6378655,8.804476,2.0996669999999997,d
442,443,1583549674905,-0.2611,0.3805,0.7485,4.547949,8.802043,2.243913,-1
443,444,1583549674915,-0.2742,0.3671,0.7382,4.5929503,8.781051,2.1591294,-1
444,445,1583549674925,-0.1612,0.37289998,0.6954,4.732341,8.8517475,2.1314907,-1
445,446,1583549674935,-0.0883,0.4069,0.6138,4.655659,8.8157,1.7977102999999999,-1
446,447,1583549674945,-0.2333,0.3931,0.15969999,4.562170500000001,8.846748,1.1549437,-1
447,448,1583549674956,-0.3008,0.39909998,-0.51739997,4.4547763,8.822891,0.63488483,-1
448,449,1583549674966,-0.2419,0.46679997,-1.1098,5.034718499999999,9.179044000000001,0.051781796,-1
449,450,1583549674976,0.36339998,0.78419995,-1.3585,5.783702,9.447127,0.38124309999999995,-1
450,451,1583549674986,1.1065,1.0652,-0.9179999999999999,6.354939,9.744113,1.2271146000000002,-1
451,452,1583549674996,1.6083,1.3648,-0.07279999599999999,6.5743537,10.017425999999999,1.9952033,-1
452,453,1583549675007,1.7639999,1.6206,0.6204,6.3738246,10.042259,2.5362544,-1
453,454,1583549675017,1.4664999,1.6049999,1.0713999,5.716482,10.019351,2.7610605,-1
454,455,1583549675027,0.8426,1.5738,1.2298,5.265797599999999,10.008817,2.714527,-1
455,456,1583549675037,0.486,1.5497999,1.1394,5.154199,10.115416,2.6336124,-1
456,457,1583549675047,0.4125,1.6933,1.1083,5.1623106,10.354444,2.7176392000000003,-1
457,458,1583549675058,0.5531,1.9468,1.179,5.678683,10.73109,2.6571138,-1
458,459,1583549675068,1.1134,2.3204,1.0759999999999998,6.3130407,11.180137,2.5646975,-1
459,460,1583549675078,1.8413,2.7924,0.9593,7.139136,11.775958000000001,2.3969886000000002,-1
460,461,1583549675088,2.6132998,3.3599,0.7741,7.165472,12.342367999999999,2.600984,-1
461,462,1583549675098,2.5809999,3.8047,0.9809,6.7378774,12.729261,3.3330257000000003,-1
462,463,1583549675108,2.1980999,4.1756997,1.6919999,6.4570374,13.205507,4.256153,-1
463,464,1583549675119,1.9620999,4.7399,2.8353,6.5040307,13.783485999999998,5.771453,-1
464,465,1583549675129,2.0958,5.1847,4.0513,6.3498730000000005,14.407597,6.940992,-1
465,466,1583549675139,2.0104,5.7735996,5.1910996,6.459153700000001,15.004701999999998,7.5891886,-1
466,467,1583549675149,2.197,6.337999999999999,5.812,7.070451299999999,15.573630999999999,7.085362400000001,-1
467,468,1583549675159,2.8908,6.8662996,5.2962,7.457086,16.124403,5.9406276,-1
468,469,1583549675170,3.5309,7.5546,3.2138999,7.498802700000001,16.368755,4.830225,-1
469,470,1583549675180,3.4048998,7.4117,2.8212,7.133888000000001,16.250470999999997,4.4678197,-1
470,471,1583549675190,2.8458997999999998,7.1063,2.8149998,6.220269999999999,15.933163,4.619986,-1
471,472,1583549675200,1.8909999,6.4445,3.5349998,5.0982804,15.256198000000001,5.386197,-1
472,473,1583549675210,1.8909999,6.4445,3.5349998,4.284376,14.969248,5.793259,-1
473,474,1583549675220,0.1086,5.4059,4.4088,3.1437879,14.499236999999999,5.953288,-1
474,475,1583549675231,-0.133,5.0429997,4.5394998,2.869719,14.198429999999998,5.9744625,-1
475,476,1583549675241,0.38639998,4.6342998,4.3222,3.3544395,13.893351999999998,5.6232805,-1
476,477,1583549675251,1.2754999,4.3451,3.8825998,4.0630654999999996,13.64083,5.054629,-1
477,478,1583549675261,2.3456,3.8407,3.2287,4.976846,13.182973,4.2370470000000005,-1
478,479,1583549675272,2.9959,3.2094998,2.4814,5.227021,12.549246,3.4124174,-1
479,480,1583549675282,2.4385998,2.1481,2.1818,4.2490277,11.446564,3.0763671,-1
480,481,1583549675292,1.2502999,0.8549,2.0578,2.795518,10.260418,2.8092509999999997,-1
481,482,1583549675302,0.057299998,-0.078499995,1.5871998999999999,1.1170483999999998,9.252957,1.7736342,-1
482,483,1583549675312,-1.1201,-1.0134,0.3543,-0.30927342,8.384944,0.4231991,-1
483,484,1583549675322,-2.251,-1.8118,-0.5902,-1.5103295,7.5819387,-0.41797975,-1
484,485,1583549675333,-2.9417,-2.5326998,-1.0476,-2.0761466,7.151653,-0.73061454,-1
485,486,1583549675343,-2.9713,-2.9327,-1.3176999,-1.8948191000000003,6.672755,-1.2681702,-1
486,487,1583549675353,-1.7499,-3.3571,-1.9755,-0.36322913,6.321794000000001,-2.0489387999999997,-1
487,488,1583549675363,0.1325,-3.5918998999999996,-2.5333997999999998,1.2264633999999999,6.1184400000000005,-2.3821828,-1
488,489,1583549675373,1.1531,-3.9815,-2.3871,1.429166,5.5622287,-2.0331752,-1
489,490,1583549675384,0.53889996,-4.7324,-1.5238999,0.30042443,4.641562,-0.97846234,-1
490,491,1583549675393,-0.5179,-5.8634,-0.4039,-0.82463974,3.5965697999999997,0.003993528400000001,-1
491,492,1583549675403,-1.3549,-6.5115,0.44299999999999995,-1.620932,3.197131,0.5741966,-1
492,493,1583549675413,-1.6005,-6.7555,0.4779,-1.7072479,3.0242503,0.1466305,-1
493,494,1583549675423,-1.1534,-6.7135,-0.3247,-1.1269125,3.185179,-0.9198427,-1
494,495,1583549675433,-0.4441,-6.5627,-1.3623999,-0.65027475,3.2349782000000005,-1.9892176,-1
495,496,1583549675443,0.0022,-6.6563,-2.1649,0.06409757,3.144918,-2.692567,-1
496,497,1583549675454,1.5496,-6.4266,-2.5202,1.7553328000000001,3.5935245000000005,-2.9369577999999996,-1
497,498,1583549675464,2.8202999,-6.0506997,-2.3794,2.5098321,3.7181474999999997,-2.397908,-1
498,499,1583549675474,2.8862,-6.1854997,-1.0014,2.0612926,3.5657134,-0.65258276,-1
499,500,1583549675484,1.9059,-6.3013,0.7665,0.6898557,3.354631,1.1978191,-1
500,501,1583549675494,0.98069996,-6.5154,1.9327999,0.19359516,3.3046591,1.6882378,-1
501,502,1583549675505,0.7474,-6.3669,1.9547,0.23198856,3.6755497000000004,1.1435282,-1
502,503,1583549675515,1.0843999,-5.9342,1.1445,1.08171,4.158949,0.02846227,-1
503,504,1583549675525,2.063,-5.4231,-0.0094,1.9690202,4.678826,-1.2170876,-1
504,505,1583549675535,2.8098,-4.9017,-1.1127,2.6293602000000003,5.203118,-2.0974548,-1
505,506,1583549675545,3.3925,-4.3798,-1.6163,2.8612626,5.6535244,-2.0183504,-1
506,507,1583549675555,3.1994998,-4.0243,-1.1183,2.1871223,5.9315866999999995,-1.2782451000000001,-1
507,508,1583549675565,2.4975998,-3.7666,-0.4131,1.4559427,6.1412807,-0.6660956,-1
508,509,1583549675576,1.7526,-3.5967998999999997,0.3005,0.87462103,6.2298565,-0.15744270000000002,-1
509,510,1583549675586,1.2928,-3.5340998,0.6274,0.5088636,6.289472,-0.27179936,-1
510,511,1583549675596,0.97679996,-3.4218,0.37469998,0.18507179999999998,6.424936,-0.8675055,-1
511,512,1583549675606,0.75259995,-3.2991,-0.17369999,0.21536323,6.791038,-1.7782598000000003,-1
512,513,1583549675616,0.8125,-2.8525,-1.0406,0.42200200000000004,7.267015,-2.5171392000000004,-1
513,514,1583549675626,1.1872,-2.2589,-1.8397,1.0916123,7.913746400000001,-3.2714372000000003,-1
514,515,1583549675637,1.7050999,-1.7443,-2.3216,1.0637918,8.345622,-3.5585593999999996,-1
515,516,1583549675646,1.5012,-1.3379999,-2.4896,0.6423739,8.549128999999999,-3.5376915999999996,-1
516,517,1583549675656,0.94149995,-1.099,-2.2559,0.1962575,8.684660000000001,-3.0307145,-1
517,518,1583549675666,0.5931,-1.037,-1.5690998999999999,-0.09572976,8.735303,-2.3222415,-1
518,519,1583549675676,0.2571,-0.9551,-0.9607,-0.6129348000000001,8.813248,-2.0724306,-1
519,520,1583549675686,-0.1468,-0.9015,-0.90349996,-0.7205876999999999,8.863182,-2.6666331000000003,d
520,521,1583549675696,-0.2015,-0.8275,-1.5942999,-0.7319266,9.077453,-3.7884602999999997,-1
521,522,1583549675707,-0.25329998,-0.55759996,-2.6782,-0.80075514,9.475474,-4.529302599999999,-1
522,523,1583549675717,-0.302,-0.19119999,-3.2926,-0.5559623,9.713631,-4.844571,-1
523,524,1583549675727,-0.0404,0.0359,-3.4692,-0.41149625,9.918229,-4.5700235000000005,-1
524,525,1583549675737,0.025899999,0.2224,-3.0976,-0.3735625,9.967129,-4.055749,-1
525,526,1583549675748,0.0668,0.2419,-2.6227,-0.18349162,9.951231,-4.133417,-1
526,527,1583549675758,0.31759998,0.24239999,-2.8404999,0.561153,10.06214,-4.9389315,-1
527,528,1583549675768,0.93509996,0.3522,-3.5298998,0.9843234000000001,10.172350999999999,-6.381917,-1
528,529,1583549675778,1.3518,0.4734,-4.9561,0.90818775,9.918258,-8.168202,-1
529,530,1583549675789,1.2728,0.2122,-6.7159996,0.77885294,9.530436,-9.008289,-1
530,531,1583549675798,1.1549,-0.16839999,-7.5379996,1.4358603,9.281908,-8.697445,-1
531,532,1583549675808,2.0613,-0.4829,-7.0706,2.6127636,8.958298,-7.748622999999999,-1
532,533,1583549675818,3.179,-0.79829997,-6.107599700000001,3.6479589999999997,8.729776,-7.036434,-1
533,534,1583549675828,4.1617,-1.0139999,-5.5367,4.1399674,8.38143,-7.8960485,-1
534,535,1583549675838,4.4853997,-1.3145,-6.4156,3.5882187000000005,7.9108350000000005,-10.01215,-1
535,536,1583549675849,3.9487997999999997,-1.778,-8.4901,3.2074068,7.326152,-12.256646,-1
536,537,1583549675859,3.5902,-2.3573,-10.684000000000001,3.1119833,6.780446,-13.961595999999998,-1
537,538,1583549675869,3.5223,-2.8883,-12.3376,2.816089,5.956429,-13.830499,-1
538,539,1583549675879,3.2738,-3.7175,-12.2034,2.3077326,4.975812,-12.562078999999999,-1
539,540,1583549675889,2.7914999,-4.6997,-10.948999,1.7055813999999998,4.200148,-10.786971000000001,-1
540,541,1583549675900,2.2268999,-5.4817,-9.2296,1.5130397,3.3758434999999998,-8.551629,-1
541,542,1583549675909,2.057,-6.3167995999999995,-7.0761,1.5770031,2.598226,-6.123995,-1
542,543,1583549675919,2.1436,-7.1047997,-4.7514,1.5523813,1.9994361,-4.0762339999999995,-1
543,544,1583549675930,2.1362997999999997,-7.8535,-2.2948,1.2895936000000001,1.2353603000000002,-1.0956728,-1
544,545,1583549675940,1.2195,-8.74,2.1790000000000003,0.21578461,0.9306741,1.8056974,-1
545,546,1583549675950,1.2195,-8.74,2.1790000000000003,-1.2380991000000001,0.6715831,3.235955,-1
546,547,1583549675960,-2.5964,-9.3477,6.1124,-3.5116236000000005,0.36981797,5.65045,-1
547,548,1583549675970,-3.9208998999999998,-9.5352,7.983,-4.6369753,0.21468328,7.684400999999999,-1
548,549,1583549675980,-3.9208998999999998,-9.5352,7.983,-4.4692087,0.2268075,9.87814,-1
549,550,1583549675990,-3.016,-9.3361,14.438298999999999,-3.3063352,0.5188235,15.050267000000002,-1
550,551,1583549676000,-3.016,-9.3361,14.438298999999999,-3.0627012000000002,0.6560879,20.007251999999998,-1
551,552,1583549676010,-2.7962,-9.153299,20.240599,-2.8476636,1.2955409,27.146013,-1
552,553,1583549676020,-2.501,-7.3738,30.6262,-2.4044008,2.7766322999999997,31.514522999999997,-1
553,554,1583549676030,-2.501,-7.3738,30.6262,-2.1690892999999996,3.8439577000000007,33.428936,-1
554,555,1583549676040,-1.2339,-3.6427,33.7613,-0.50740796,6.601963499999999,33.779990000000005,-1
555,556,1583549676050,0.5035,-1.2386999,30.8902,1.6195913999999998,9.052074000000001,30.463246999999996,-1
556,557,1583549676061,2.5681998999999998,1.1963999,26.7216,3.8212415999999996,11.421463000000001,26.118873999999998,-1
557,558,1583549676071,4.2894,3.7322998,22.2053,5.6736835999999995,14.046149,21.496358999999998,-1
558,559,1583549676081,5.8059998,6.3107,17.7689,7.3542886,16.514448,17.020773000000002,-1
559,560,1583549676091,7.2657,8.2642,13.7703,8.871667,18.277689000000002,13.026869999999999,-1
560,561,1583549676101,8.0168,9.366199499999999,10.413199,9.737257000000001,19.142494,9.637151,-1
561,562,1583549676112,8.866899499999999,9.3995,7.2521996,10.689699000000001,18.979115,6.3920875,-1
562,563,1583549676122,9.5308,8.9615,4.4389,11.446372,18.545256,3.4884858,-1
563,564,1583549676132,10.6612,8.9052,0.6095,12.953857000000001,18.569323,-0.899243,-1
564,565,1583549676142,12.645499000000001,8.8981,-4.7753,14.976698999999998,18.288578,-7.365263499999999,-1
565,566,1583549676152,12.6805,8.1046,-9.0323,14.082732,17.161148,-10.838014999999999,-1
566,567,1583549676163,10.7662,6.6398997,-11.1451,11.928947,15.464063000000001,-12.446324,-1
567,568,1583549676173,8.8117,4.7207,-12.385699,10.406761999999999,13.611803,-14.271606,-1
568,569,1583549676183,8.2323,3.3904998,-15.496699,10.448881,12.655108,-18.627062,-1
569,570,1583549676193,8.7877,2.8487,-20.7664,10.836769,12.149788000000001,-24.105694,-1
570,571,1583549676203,8.3933,2.0532,-25.2682,9.557039999999999,10.862924000000001,-28.343958,-1
571,572,1583549676213,6.9316998,0.8795,-27.5591,8.026887,9.556896,-29.41402,-1
572,573,1583549676224,5.392299700000001,-0.5394,-27.6686,6.429782,7.984241,-28.374105,-1
573,574,1583549676234,3.9919,-2.1351,-25.8259,5.4633959999999995,6.7176029999999995,-26.167782,-1
574,575,1583549676244,2.7718,-3.7568998,-22.5667,3.9876482,5.0877934,-22.834421,-1
575,576,1583549676254,1.1812,-5.3311,-19.882399,2.3739467,3.5194955,-20.969856,-1
576,577,1583549676264,0.4998,-6.411299700000001,-19.6433,2.333724,2.6562902999999998,-21.657488,-1
577,578,1583549676275,0.8017,-7.1046,-20.2022,2.9524434,2.2099342,-21.392210000000002,-1
578,579,1583549676284,1.7026,-7.4638,-19.3076,3.79616,1.9513797999999998,-19.548666,-1
579,580,1583549676294,2.3039,-7.6881,-16.8765,4.179615,1.8281261999999998,-17.020292,-1
580,581,1583549676304,2.9057,-7.7286997,-13.3763,4.8036404,1.8897913,-12.484335,-1
581,582,1583549676314,3.1976,-7.6717997,-9.5864,4.8580937,1.9089642,-10.19089,-1
582,583,1583549676324,3.0956,-7.6622996,-6.5968,4.7292566,1.9746226999999998,-6.4675817,-1
583,584,1583549676334,3.2333998999999998,-7.5807996,-4.6421,5.0966907,1.9628623,-5.1662374,-1
584,585,1583549676345,3.4275,-7.731,-3.5319,5.034288,1.8255404999999998,-3.5799637000000004,-1
585,586,1583549676355,3.2129,-7.7219996,-1.6262,4.9169145,1.9600946,-1.7882292000000002,-1
586,587,1583549676365,3.3493,-7.454799700000001,0.66789997,5.522437,2.464371,1.0510928999999998,-1
587,588,1583549676375,3.9157998999999997,-6.8006,2.7314,6.2479949999999995,3.258403,2.7962935,-1
588,589,1583549676385,4.687999700000001,-6.0834,4.2831,7.505899,3.938596,4.5097184,-1
589,590,1583549676395,6.0509,-5.3837,5.9653997,8.685982000000001,4.407907,6.3236422999999995,-1
590,591,1583549676406,6.699,-5.1555,7.919699700000001,8.416031,4.1282835,9.071717,-1
591,592,1583549676416,5.9772997000000005,-5.468999999999999,10.191,6.557211,3.8646727,11.51431,-1
592,593,1583549676426,3.7888,-5.7542995999999995,12.5814,4.499529,3.5741122000000005,13.7738905,-1
593,594,1583549676436,1.2573,-6.0572996,15.629000000000001,2.3576853,3.3777970999999996,18.474062,-1
594,595,1583549676446,-0.2563,-6.1579999999999995,19.6062,1.6307003,3.215643,22.35516,-1
595,596,1583549676456,-0.8725,-6.279,23.182999,2.3159592,3.4119672999999997,25.281084,-1
596,597,1583549676467,-0.0796,-5.9480996,25.6341,3.9101336000000004,4.237373000000001,26.358706,-1
597,598,1583549676477,1.3736,-4.9312,26.241298999999998,4.855048,5.446646,26.235884000000002,-1
598,599,1583549676487,1.8831999,-3.7034998,25.8645,4.454987,6.287662,25.173164,-1
599,600,1583549676497,1.1653,-2.8676,24.4658,3.6830866,7.0551186,22.878819,-1
600,601,1583549676508,0.287,-2.0119,21.9259,3.420433,7.8224125,20.485643,-1
601,602,1583549676518,0.0563,-1.2617999,19.6976,3.844676,8.386497,18.983797,-1
602,603,1583549676528,0.2837,-0.75259995,18.473799,4.2403994,8.756755,17.730902,-1
603,604,1583549676538,0.5277,-0.3173,17.157799,5.1738415,9.136972,15.530764999999999,-1
604,605,1583549676548,1.3172,0.1326,14.8996,6.365081,9.989069,12.681981,-1
605,606,1583549676558,2.3467,1.0597,11.9782,7.394166499999999,10.764752,10.846950999999999,-1
606,607,1583549676569,3.4743,2.0802,9.717899000000001,8.880669000000001,11.556419,9.161997,-1
607,608,1583549676579,4.5601997,2.7791997999999998,8.2779,9.591555,11.574347,8.155207,-1
608,609,1583549676590,5.1313,2.8766,7.182699700000001,9.945839999999999,11.372017999999999,7.394119,-1
609,610,1583549676600,5.3687,2.7503998,6.3348,9.510852,10.939424,5.526717700000001,-1
610,611,1583549676610,4.8412,2.3796,4.3995,9.31582,10.443114999999999,3.4382843999999997,-1
611,612,1583549676621,4.6145,2.4106,-0.6058,9.532897,11.015846,0.25917712,-1
612,613,1583549676631,4.9283,3.1841,-2.5184,9.91211,11.698874,-1.4961461999999999,-1
613,614,1583549676641,4.9281,3.6365,-4.0326,9.831980999999999,11.971812,-2.8372438,-1
614,615,1583549676651,4.3245,3.4229998999999998,-5.0653996,9.217189,11.465314999999999,-3.7464277999999998,-1
615,616,1583549676661,4.0192,2.8279,-5.4579,9.229897,10.765547,-3.816185,-1
616,617,1583549676671,4.0691,2.4888,-5.4688,9.242624000000001,10.664157000000001,-3.8217491999999997,-1
617,618,1583549676681,4.0348,2.6791,-6.4508996,9.357747,10.808672,-4.8652477,-1
618,619,1583549676691,4.4459,2.9283,-7.3472,10.01914,11.130241,-5.5946364,-1
619,620,1583549676701,5.0375,3.7939999999999996,-7.9754,10.50818,11.973958,-6.166879,-1
620,621,1583549676711,5.1768,4.3305,-8.8223,10.52967,12.273328999999999,-6.925717,-1
621,622,1583549676722,4.6891,4.3582997,-9.5506,9.9155,12.085298,-7.417351700000001,-1
622,623,1583549676732,4.2773,3.9954998,-9.4793,9.675803,11.608708,-6.971551400000001,-1
623,624,1583549676742,3.8874,3.4417998999999995,-8.8365,9.139923,10.9460125,-6.2273190000000005,-1
624,625,1583549676752,3.2071,2.7507,-8.013599000000001,8.601409,10.261289999999999,-5.1611519999999995,-1
625,626,1583549676763,3.0681998999999998,2.4565,-6.8839999999999995,8.732094,10.187252,-4.2198668,-1
626,627,1583549676773,3.7624998,2.6378999,-5.7848997,9.580484,10.321567,-2.6785371,-1
627,628,1583549676783,4.1247,2.6615999,-4.3298,9.693394999999999,10.259758,-1.0715201,-1
628,629,1583549676793,4.0099,2.6295,-2.9475,9.568283000000001,10.130395,0.12964123,-1
629,630,1583549676803,3.8683,2.4115999,-2.2196,9.465054499999999,9.833953999999999,0.59635735,-1
630,631,1583549676813,3.6111,2.0853,-2.3885,9.000762,9.44776,0.10948206,-1
631,632,1583549676823,2.8664,1.6329,-3.0598998,8.140526,8.9572735,-0.49972737,-1
632,633,1583549676833,1.9869,1.1495,-3.3592,7.3497585999999995,8.492349,-0.49295655,-1
633,634,1583549676843,1.341,0.76919997,-2.835,6.867020599999999,8.241292,0.2793746,-1
634,635,1583549676853,1.2009999999999998,0.7782,-2.0557,7.0536532,8.315207000000001,0.9987173,-1
635,636,1583549676864,1.8513,1.0465,-1.662,8.078382000000001,8.768275,1.1689833,d
636,637,1583549676874,2.6076,1.4305999,-1.6805999,8.597933,9.007083,1.233914,-1
637,638,1583549676884,2.947,1.6096,-1.6463,8.646315,9.092805,1.1138017,-1
638,639,1583549676894,2.7252,1.591,-1.882,8.137221,8.945791,0.8572008,-1
639,640,1583549676904,1.8161999,1.2681,-2.1193,6.9538345,8.498239,0.7278756,-1
640,641,1583549676915,0.8835,0.9019,-2.0727,6.1366935,8.162896,0.9103904,-1
641,642,1583549676925,0.15789999,0.57629997,-1.7379999,5.5907290000000005,7.956305499999999,1.3771735,-1
642,643,1583549676935,-0.25419998,0.4499,-1.185,5.432942,7.9533467,1.9055355999999999,-1
643,644,1583549676945,-0.17300000000000001,0.5367,-0.765,5.8466597,8.221698,2.2201529,-1
644,645,1583549676955,0.47259998,0.9313,-0.6504,6.746956,8.703335000000001,1.9031892,-1
645,646,1583549676965,1.4882,1.4343,-1.1884999,8.041041,9.230642999999999,1.0654293,-1
646,647,1583549676975,2.7103,1.9225999,-2.1073,8.555881,9.525723,0.37118748,-1
647,648,1583549676985,2.6543999,1.9899,-2.5147998,7.888866,9.333508,0.14301045,-1
648,649,1583549676996,1.8245,1.7644999,-2.6269999,7.005501,9.203694,0.34738909999999995,-1
649,650,1583549677006,1.2757,1.6556,-2.3079,6.8021765,9.239033000000001,0.67910093,-1
650,651,1583549677016,1.0612999,1.7771,-1.9251,6.6617994000000005,9.625917,1.0720181,-1
651,652,1583549677026,1.0618,2.1799,-1.5885999,7.13248,10.331939,1.4006943,-1
652,653,1583549677036,1.6876999,2.9535,-1.3669,8.080574,11.225464,1.4564503,-1
653,654,1583549677047,2.7042,3.8792,-1.3802999,9.169858999999999,12.309185000000001,1.218122,-1
654,655,1583549677057,2.7042,3.8792,-1.3802999,9.824013,13.278521,0.9070959999999999,-1
655,656,1583549677067,4.5724,6.1597,-2.2558,10.566942999999998,14.342282999999998,0.21466412,-1
656,657,1583549677077,5.1106,6.9294996,-2.8400998,10.898502,15.032178,-0.13961070000000003,-1
657,658,1583549677087,5.4235,7.559,-3.0372,10.894383,15.546317000000002,-0.15619773,-1
658,659,1583549677097,5.395,7.9715,-3.0988,10.731712,15.914431,-0.22124339999999998,-1
659,660,1583549677107,5.3791,8.347899,-3.0667999,11.195200999999999,16.681744000000002,0.34525344,-1
660,661,1583549677118,5.9914,9.1263,-2.4041997999999998,11.646068,17.54335,1.5680201,-1
661,662,1583549677128,6.4687,9.932899,-1.0705,11.822931,18.041764999999998,3.2654805000000002,-1
662,663,1583549677138,6.7528,10.269899,0.5710000000000001,12.227715,18.219242,4.3600616,-1
663,664,1583549677148,7.2746,10.335199000000001,1.4661,12.535216,17.779235999999997,4.346080000000001,-1
664,665,1583549677159,7.6324997,9.7899,1.4058,12.107401,16.876966,3.7334796999999997,-1
665,666,1583549677169,7.349,8.7713995,0.8809999999999999,11.256426,15.732432999999999,3.0726228,-1
666,667,1583549677180,6.1186,6.292000000000001,0.3111,10.387569000000001,14.481558999999999,2.9025578,-1
667,668,1583549677190,5.5705,5.1008,0.73149997,9.673226,13.3919,3.2734482000000003,-1
668,669,1583549677200,5.0554,3.843,1.7138,8.963442,12.288748,4.1655663999999994,-1
669,670,1583549677210,5.0554,3.843,1.7138,8.305563000000001,11.284543,4.9836173,-1
670,671,1583549677220,4.4754,2.4909,2.8827999,6.9924482999999995,9.682133,5.852904,-1
671,672,1583549677230,2.1566,-0.92289996,4.9347,5.23044,7.8511714999999995,6.858009,-1
672,673,1583549677241,1.1310999,-2.2152998,5.5596,4.055031,6.7531333,7.205369,-1
673,674,1583549677251,0.66999996,-3.1441,5.5752997,3.5018647000000005,6.0100975,6.9501667000000005,-1
674,675,1583549677261,0.5556,-3.7573998,5.5162,3.088894,5.505429,6.718724000000001,-1
675,676,1583549677271,0.5556,-3.7573998,5.5162,2.6604655,5.0544275999999995,6.2930923,-1
676,677,1583549677281,-0.0994,-4.8831,4.6418,1.9445226999999998,4.565427,5.4396834,-1
677,678,1583549677291,-0.6077,-5.4361997,3.8758,1.2521962,4.0484230000000005,4.4354404999999995,-1
678,679,1583549677302,-0.95089996,-5.9898,3.0556997999999997,0.55704457,3.5288522000000007,3.6946839999999996,-1
679,680,1583549677312,-1.4559,-6.2893,3.3489999999999998,-0.29461129999999996,3.2974572,4.0945926,-1
680,681,1583549677322,-1.4559,-6.2893,3.3489999999999998,-0.8232223,3.1137457000000004,4.360827400000001,-1
681,682,1583549677332,-2.8646998,-6.7184,4.225,-1.9490238000000002,3.0606419999999996,4.501626,-1
682,683,1583549677342,-3.5426998,-6.4466996,4.0029,-3.0320264999999997,3.5668241999999997,4.032123,-1
683,684,1583549677352,-4.3894997,-5.8641,3.6053998,-3.9032,4.126263,3.1508078999999998,-1
684,685,1583549677363,-4.4077997,-5.3928,2.0058,-3.1774310000000003,4.6803,0.7735283000000001,-1
685,686,1583549677373,-2.2168,-4.5631,-0.64809996,-0.6900185000000001,5.593171599999999,-1.9316514999999999,-1
686,687,1583549677383,-0.0387,-3.9067998,-2.7621999,0.6524966,5.897857,-3.6727915,-1
687,688,1583549677393,0.16049999,-4.1913,-3.5051,0.14799997,5.3109519999999995,-3.8209736000000003,-1
688,689,1583549677403,-0.47559997,-4.9567,-2.7856,-0.52194554,4.655075,-2.9278789,-1
689,690,1583549677413,-0.67759997,-5.4379,-1.4965998999999999,-0.69299686,4.143942,-1.2645886,-1
690,691,1583549677424,-0.7141,-5.928999999999999,0.396,-1.0977893,3.6245148,1.0235883,-1
691,692,1583549677434,-1.1415,-6.3122997000000005,2.2635,-1.5309867,3.4079068,2.632128,-1
692,693,1583549677444,-1.3752999,-6.4897,4.1746,-1.5881602,3.2946991999999997,4.1150199999999995,-1
693,694,1583549677454,-0.4764,-6.3629,5.1830997000000005,0.30194715,3.8352811,4.8066087,-1
694,695,1583549677464,1.3245,-5.6082,4.8017,1.6667186999999999,4.6393595,3.9802647000000007,-1
695,696,1583549677475,2.3393,-4.8919997,3.9055998,2.202407,5.280067,3.3833613,-1
696,697,1583549677485,2.5532,-4.4098997,3.5444,1.5908992,5.4041348,3.2323637,-1
697,698,1583549677495,1.5117999,-4.4459,3.3586998,0.05227979,5.231848,2.818119,-1
698,699,1583549677505,0.022799998999999998,-4.6762,2.7347999,-1.2527995,4.944247,1.7846284,-1
699,700,1583549677515,-0.8822,-4.9056,1.5883,-1.7215938999999998,4.8812695,0.55574214,-1
700,701,1583549677526,-0.9341,-4.7728,0.42339998,-1.4685841999999998,5.3198300000000005,-0.46477202,-1
701,702,1583549677536,-0.4621,-4.200599700000001,-0.312,-0.6946728,5.9642344000000005,-0.7668628000000001,-1
702,703,1583549677546,0.42049998,-3.5228,-0.2722,0.1942368,6.699704,-0.45613372,-1
703,704,1583549677557,1.2926999,-2.7975,0.1706,1.1033919,7.438306,0.33324414,-1
704,705,1583549677568,1.89,-2.2688,0.8365,0.9056690999999999,7.6207633,1.0586106000000002,-1
705,706,1583549677579,1.545,-2.1513,1.4997,0.6414258,7.6411047000000005,1.2630275,-1
706,707,1583549677589,0.90639997,-2.1503,1.7019999,-0.45582727,7.819166,0.8222838,-1
707,708,1583549677599,0.361,-1.9619,1.1488999,-0.5759013000000001,8.1180105,-0.14061625,-1
708,709,1583549677609,0.345,-1.4365,-0.56159997,-0.5247228,8.392157000000001,-1.0682639999999999,-1
709,710,1583549677620,0.2041,-1.2379,-0.8003,-0.69668394,8.555058,-1.1995622,-1
710,711,1583549677630,0.2041,-1.2379,-0.8003,-0.88113326,8.65685,-0.9516952,-1
711,712,1583549677640,-0.00029999999,-1.1185,-0.5097,-1.1978766,8.688147,-0.7016352,-1
712,713,1583549677650,-0.3182,-1.0784,-0.2559,-1.2977052,8.827039,-0.8308455,-1
713,714,1583549677660,-0.16579999,-0.38189998,-0.733,-0.99283713,9.468675,-1.2762053,-1
714,715,1583549677670,0.1127,-0.06839999599999999,-1.1793,-0.72314465,9.761784,-1.7172555,d
715,716,1583549677681,0.2086,0.3139,-1.3144,-0.67701316,10.156836,-1.7744291,-1
716,717,1583549677690,-0.0717,0.5006,-1.1173999,-1.031786,10.248371,-1.4949874,-1
717,718,1583549677701,-0.0717,0.5006,-1.1173999,-1.2823153,10.102133,-1.0931925,-1
718,719,1583549677711,-0.6272,0.1302,-0.2599,-1.5916556999999998,9.854619999999999,-0.7149374,-1
719,720,1583549677721,-0.8621,-0.1038,-0.3818,-1.8012537,9.597685,-0.9500767,-1
720,721,1583549677731,-0.94629997,-0.3583,-0.7711,-1.8327901000000002,9.390719,-1.2886360000000001,-1
721,722,1583549677741,-0.70589995,-0.3787,-0.6721,-1.5420191,9.377265,-1.0452318,-1
722,723,1583549677752,-0.278,-0.3223,0.0389,-0.92541647,9.495337,-0.04260721,-1
723,724,1583549677762,0.4202,-0.1783,0.9361,-0.2800737,9.597502,0.7767460999999999,-1
724,725,1583549677772,1.1991999,-0.3477,2.1378,0.44560882,9.361147,2.0107367,-1
725,726,1583549677782,1.4394,-0.8099,3.4582,0.57186943,8.848892,3.4492977,-1
726,727,1583549677792,1.0674,-1.5052999,5.1124997,-0.026594793,7.9273167,5.316248000000001,-1
727,728,1583549677802,0.4558,-2.3944,6.0316997,-0.8814876,6.9528479999999995,5.523701,-1
728,729,1583549677813,-0.65489995,-3.5166,5.3410997,-1.9384606,5.803622,4.4247819999999995,-1
729,730,1583549677823,-1.3852,-4.6186,4.1152,-2.5562127,4.7699110000000005,3.3284287000000004,-1
730,731,1583549677833,-2.0333,-5.8705997000000005,3.7214,-3.4984745999999998,3.1714363,3.7277913000000003,-1
731,732,1583549677843,-3.4956,-7.7749,5.9533,-5.2501297,1.1806288,7.242307,-1
732,733,1583549677853,-5.6247997000000005,-9.7525,10.8849,-7.553074400000001,-0.76281184,13.107066,-1
733,734,1583549677864,-7.6489997,-11.5261,17.490099,-8.402671,-2.476275,20.936508,-1
734,735,1583549677874,-6.861399700000001,-12.554899,22.8526,-6.7841043,-2.9690304,23.777746,-1
735,736,1583549677884,-4.4702997,-12.7112,23.988498999999997,-4.3291383,-2.8286439999999997,23.096777,-1
736,737,1583549677894,-2.7682,-12.375899,20.8286,-2.654097,-2.3118124,17.337324,-1
737,738,1583549677904,-1.7498,-11.8015995,15.3706,-1.666393,-1.494068,11.846261,-1
738,739,1583549677914,-1.2044,-10.9182,10.482599,-1.488705,-0.6522093000000001,7.7758694,-1
739,740,1583549677925,-1.3025,-10.0984,7.2521,-0.61993545,0.42003876,5.221495,-1
740,741,1583549677935,-0.0008,-8.4866,5.3292,1.7825118000000002,2.8054585,3.5320125,-1
741,742,1583549677945,2.5921,-5.9526997,3.5756997999999998,5.218555,5.3044305,0.851924,-1
742,743,1583549677955,6.0415998,-3.4074,0.21519999,8.759436,7.840378299999999,-3.5209036,-1
743,744,1583549677966,8.780399000000001,-0.9497,-4.326699700000001,10.932078,9.994537,-8.183937,-1
744,745,1583549677976,10.2198,0.99619997,-8.6523,12.381105999999999,11.784452,-12.731492999999999,-1
745,746,1583549677986,11.0245,2.4459999,-12.117599499999999,12.902151,12.981457,-15.099081,-1
746,747,1583549677996,11.2927,4.0034,-14.6598,13.326710999999998,14.183318,-17.115374,-1
747,748,1583549678007,11.4669,4.6840997,-15.904698999999999,13.782691,14.253104,-17.512714000000003,-1
748,749,1583549678017,11.724899,4.772,-16.233598999999998,14.298326500000002,14.287791,-18.361832,-1
749,750,1583549678027,12.115,4.8566,-17.393099,14.926487,14.303545000000002,-20.582214,-1
750,751,1583549678037,12.5155,4.8602,-19.7409,14.918376,14.222813,-22.28547,-1
751,752,1583549678048,12.3172,4.8396,-21.6591,14.775364999999999,14.147117999999999,-23.890532,-1
752,753,1583549678058,12.0766,4.6945,-22.7909,14.693214999999999,13.44235,-23.874807,-1
753,754,1583549678068,11.9415,4.0910997,-22.7176,14.186612,12.894845,-22.530107,-1
754,755,1583549678078,11.141399,3.3627,-21.134498999999998,12.14975,11.508238,-20.604882999999997,-1
755,756,1583549678088,9.290299000000001,2.1564999,-19.6611,9.9011345,9.797408,-18.98936,-1
756,757,1583549678099,7.0221,0.4549,-18.1374,8.657616,8.725389999999999,-18.050375,-1
757,758,1583549678109,5.5744,-0.7984,-17.195999999999998,8.389225999999999,7.737983,-17.981057999999997,-1
758,759,1583549678119,5.4992,-1.6233,-17.297499,9.214641,7.080104400000001,-18.12493,-1
759,760,1583549678130,6.3115,-2.2781,-17.4977,10.187607,6.6860285,-17.315489000000003,-1
760,761,1583549678140,8.773399000000001,-2.9442,-15.3038,11.947975999999999,6.3774734,-15.389373,-1
761,762,1583549678151,9.3452,-3.3021,-13.4332,12.371328,5.9167046999999995,-13.486117000000002,-1
762,763,1583549678160,9.3452,-3.3021,-13.4332,12.083843,5.3145055999999995,-11.780525,-1
763,764,1583549678170,8.3856,-4.6299,-8.112599000000001,11.353391,4.6133394,-7.620725,-1
764,765,1583549678180,8.3856,-4.6299,-8.112599000000001,11.601593,4.369313,-5.1567655,-1
765,766,1583549678190,8.544,-4.9564,-5.0337,12.040172,4.102139,-2.5438967,-1
766,767,1583549678200,8.941999000000001,-5.2174,-2.5442,12.402558,4.3109803,0.093661174,-1
767,768,1583549678210,9.6188,-4.1447997,2.7401,12.808682000000001,5.4587129999999995,3.7971942000000003,-1
768,769,1583549678221,8.578199,-3.0038998,5.4509,11.359127,6.4733852999999995,6.3771379999999995,-1
769,770,1583549678231,5.6369,-2.0832,8.4438,8.368041,7.2884192,9.402461,-1
770,771,1583549678241,3.2970998,-1.4674,11.500999,6.419707,7.850463,12.546814999999999,-1
771,772,1583549678251,2.4949,-0.9241,15.0218,5.909225,8.356098,16.325735,-1
772,773,1583549678261,2.4383,-0.301,19.9814,6.056449400000001,9.06054,21.780435999999998,-1
773,774,1583549678271,3.2912998,1.0328,26.359999,7.1740437,10.471836,28.38757,-1
774,775,1583549678282,4.6415997,3.2214,32.072998,8.555574,12.795993,33.819096,-1
775,776,1583549678292,4.933,5.7885,34.6321,8.682314,15.244955,35.725826,-1
776,777,1583549678302,4.2936,7.9617996,33.4214,8.027203,17.266333,33.829285,-1
777,778,1583549678312,3.4241998,9.5402,29.296999,7.165233,18.986977,28.43282,-1
778,779,1583549678322,3.0676,10.6191,24.8214,6.818131,19.845528,24.148159,-1
779,780,1583549678332,2.4959,11.058499000000001,21.306099,6.129434,20.068916,20.93945,-1
780,781,1583549678343,2.0579998,10.931399,18.6464,5.908717,19.813389,18.495179999999998,-1
781,782,1583549678353,2.2777,10.5734,16.4979,6.186425700000001,19.454995999999998,16.285675,-1
782,783,1583549678363,2.8295999,10.0624,14.124599,6.623386999999999,18.986757,14.240262,-1
783,784,1583549678373,3.4601998,9.2205,11.3217,7.10646,18.048067,10.623044,-1
784,785,1583549678383,3.5063,8.3215,8.1855,6.7492833,17.069643,7.5713277,-1
785,786,1583549678394,3.1169,7.1801,5.6949,5.984604,15.826095,5.041557,-1
786,787,1583549678404,2.6311998,6.1429996,4.0771,5.524859999999999,14.974726,3.5613367999999994,-1
787,788,1583549678414,2.6413999,5.3318,2.7071,5.574237999999999,14.593511999999999,2.608521,-1
788,789,1583549678425,3.0426,4.7002,0.8961,5.9236193,13.704324,0.024123976000000002,-1
789,790,1583549678435,3.5391,3.8667998,-0.43069997,6.1592082999999995,12.811144,-0.71856695,-1
790,791,1583549678445,3.9612,2.8423,-0.75339997,6.278870599999999,11.754285000000001,-0.78138125,-1
791,792,1583549678455,4.2574,1.6856999,-0.59279996,6.4326935,10.549677,-0.5292621999999999,-1
792,793,1583549678465,4.7392,0.4366,-0.2854,6.8555474,9.393172,-0.4134116,-1
793,794,1583549678476,5.4059,-0.71849996,-0.19299999,7.239012700000001,8.280222,-0.5511644,-1
794,795,1583549678486,5.9399,-1.9275999,-0.4486,7.1422296,6.995876299999999,-0.96859825,-1
795,796,1583549678496,5.6324,-3.3179998,-0.7015,6.2782480000000005,5.8260603,-1.1867386999999998,-1
796,797,1583549678506,4.3294,-4.928,-1.0529,3.6954885,3.4848660000000002,-2.3418357000000003,-1
797,798,1583549678516,2.6804,-6.5891,-1.9316,2.1208028999999997,2.009444,-3.421525,-1
798,799,1583549678526,1.4666,-8.0457,-2.8885,1.1541008999999998,0.7004285,-4.3458495,-1
799,800,1583549678536,0.81409997,-9.3185,-3.6878998,0.4571872,-0.38324466,-5.350265,-1
800,801,1583549678546,0.2985,-10.37,-4.6169,-0.14525144,-1.092886,-5.95369,-1
801,802,1583549678556,-0.6559,-11.5745,-5.3124,-1.9531131999999998,-2.8258092,-6.290516,-1
802,803,1583549678566,-1.7831999,-12.7864,-5.0698,-2.9744507999999996,-3.9537462999999997,-5.6199864999999996,-1
803,804,1583549678576,-2.5351,-13.8888,-4.2983,-3.4723492,-5.0590057,-5.067893,-1
804,805,1583549678586,-2.8832,-15.0096,-3.7278,-4.22319,-6.3458414,-4.5861220000000005,-1
805,806,1583549678597,-3.5734,-16.257599,-3.2103999,-4.8547225,-7.313501,-4.2390685,-1
806,807,1583549678607,-4.1393,-17.4578,-2.7005,-5.464909,-8.689679,-3.6425097,-1
807,808,1583549678617,-4.5769997,-18.553299,-2.1613,-6.2279315,-9.776876,-3.2865973,-1
808,809,1583549678627,-5.3504,-19.6139,-1.8395,-7.1091895,-10.680227,-2.9668949000000002,-1
809,810,1583549678637,-6.2290998,-20.4648,-1.4735,-7.851861500000001,-11.29208,-2.5999689999999998,-1
810,811,1583549678648,-6.9435997,-21.0187,-1.135,-8.086876,-11.5022335,-2.4466922,-1
811,812,1583549678658,-7.0878,-21.1386,-1.0509,-7.336925999999999,-11.238785,-2.3623111,-1
812,813,1583549678668,-6.5474997,-20.9123,-1.0212,-6.667660000000001,-11.037691,-1.6003993,-1
813,814,1583549678678,-6.0547,-20.739898999999998,-0.3452,-5.838165,-10.767607,-0.16226941,-1
814,815,1583549678688,-5.3009,-20.372598999999997,1.4473,-5.012203700000001,-10.064983999999999,2.9970138,-1
815,816,1583549678699,-4.8868,-19.8049,3.9975,-3.3988949999999996,-9.326592999999999,4.7319192999999995,-1
816,817,1583549678709,-3.5609,-19.0797,5.6294,-0.8895320999999999,-8.260082,3.96905,-1
817,818,1583549678719,-1.3672,-18.006698999999998,4.7872,1.3053858,-7.1036634,1.9556319,-1
818,819,1583549678729,0.4682,-16.8311,2.7268999,2.1266928,-6.515619,0.06522763,-1
819,820,1583549678740,0.95159996,-16.221698999999997,0.7726,3.0389028,-5.3959660000000005,-0.7594408,-1
820,821,1583549678750,1.5031999,-15.049999,-0.120699994,3.3218782,-3.9559777,0.44807965,-1
821,822,1583549678760,1.3842,-13.5569,0.9086,4.6726394,-2.2710822,2.719382,-1
822,823,1583549678770,5.1119,-9.6242,5.6136,8.686021,0.14205278,6.2775682999999995,-1
823,824,1583549678781,8.372399,-7.6401,8.2652,12.581586999999999,2.0114262,9.088649,-1
824,825,1583549678791,12.303599,-4.3824997,9.9593,16.897806,5.473423,10.861919,-1
825,826,1583549678801,14.9051,0.0694,10.6424,19.639194,9.648537,11.532275,-1
826,827,1583549678812,16.4583,4.0327,9.6559,21.76833,13.940852,10.033342,-1
827,828,1583549678822,17.2495,7.4666,7.607599700000001,22.472485,16.63022,8.047697,-1
828,829,1583549678832,16.7314,9.3306,5.362,21.73646,17.622913,5.7177367,-1
829,830,1583549678842,15.181299,9.8898,2.7098,20.702528,17.68095,3.6483133000000003,-1
830,831,1583549678852,13.856299,9.7314,0.94979995,19.676882,17.289555,2.366726,-1
831,832,1583549678862,13.856299,9.7314,0.94979995,19.176520999999997,17.774717000000003,2.7686547999999997,-1
832,833,1583549678873,13.7569,11.9832,2.3916,21.198368,19.693832,4.5038953,-1
833,834,1583549678882,15.7998,13.9396,2.5200999,23.073582000000002,21.405973,4.417149,-1
834,835,1583549678892,16.174599,15.120398999999999,1.9365,22.867307999999998,21.706772,4.0070415,-1
835,836,1583549678902,14.198898999999999,14.6936,0.96999997,20.741716,20.923445,3.1651537,-1
836,837,1583549678913,11.6577,13.6142,-0.0307,18.339270000000003,19.608656,2.118974,-1
837,838,1583549678922,9.2086,12.1199,-1.6179,15.4614,17.668854,0.13689087,-1
838,839,1583549678932,9.2086,12.1199,-1.6179,13.766631,16.400608,-0.9726684000000001,-1
839,840,1583549678942,5.1333,9.1693,-3.6042,12.193382000000001,14.978385000000001,-1.0423492,-1
840,841,1583549678952,4.0291,8.2309,-2.8464,11.177043,13.876698000000001,0.052682016,-1
841,842,1583549678963,3.8223,7.474,-2.0528,11.302183,13.120829,0.71040756,-1
842,843,1583549678973,4.0204997,6.8241997,-1.8506,11.528359,12.496459,0.8359403,-1
843,844,1583549678984,4.1263,6.3517,-1.6797,11.241055000000001,11.675804,1.3309749,-1
844,845,1583549678994,3.3918998,5.49,-1.1966,10.139166000000001,10.625668,1.8843325,-1
845,846,1583549679004,2.2565,4.4997997000000005,-0.7466,9.1755,9.764388,2.0893817,-1
846,847,1583549679014,1.4267,3.6806,-0.76,8.560344,8.939278999999999,1.9054206999999999,-1
847,848,1583549679024,0.8738,2.9268,-0.93939996,8.118307000000001,8.391696000000001,1.906043,-1
848,849,1583549679034,0.3241,2.3329,-0.71169996,7.568646,7.7315190000000005,2.514448,-1
849,850,1583549679045,0.0323,1.8919,-0.110599995,7.504635,7.4408917,3.1401296000000003,-1
850,851,1583549679055,0.0655,1.7203,0.4104,7.7924847999999995,7.348494500000001,3.6009366999999997,-1
851,852,1583549679065,0.6186,1.7443999,0.6784,8.526806,7.4278383,3.784275,-1
852,853,1583549679075,1.2487999,1.7986,0.8203,8.733684,7.3796289999999996,3.8081980000000004,-1
853,854,1583549679085,1.0246998999999999,1.5983,0.44219998,8.074435000000001,7.0650306,2.9522998,-1
854,855,1583549679096,0.3488,1.2803,-0.3976,7.480577499999999,6.743815,2.041871,d
855,856,1583549679106,-0.1312,0.9626,-1.237,6.988455,6.4780774,1.0301197,-1
856,857,1583549679116,-0.5419,0.7349,-1.9621998999999999,6.7452326000000005,6.378728,0.62303835,-1
857,858,1583549679126,-0.7057,0.6166,-2.1936,6.9582205,6.3592772,1.180715,-1
858,859,1583549679136,-0.4175,0.65309995,-1.4236,7.3387647,6.4937263,2.3715525,-1
859,860,1583549679147,-0.0021,0.7931,-0.30069998,7.9607306,6.6427608,3.2610080000000004,-1
860,861,1583549679156,0.687,0.9902,0.48499998,9.075001,7.080889699999999,3.7668550000000005,-1
861,862,1583549679166,1.8948,1.4980999,0.83989996,10.232942999999999,7.444167,3.8106593999999996,-1
862,863,1583549679176,2.9840999,1.8263999,0.74079996,10.62993,7.590223,3.3048889999999997,-1
863,864,1583549679186,2.9794998,1.8226999,-0.0603,9.864331,7.3457174,2.3347201,-1
864,865,1583549679196,2.0609,1.484,-0.889,9.070663,6.9845953,1.7989745,-1
865,866,1583549679207,1.5998,1.1665,-1.1187999,8.797437,6.82879,1.9368421999999998,-1
866,867,1583549679217,1.3101,0.99869996,-0.7564,8.639984,6.908105,2.8214135,-1
867,868,1583549679227,1.2791,1.1229,0.131,8.596592,7.1859093,3.8079300000000003,-1
868,869,1583549679237,1.28,1.4215,1.0655,8.93407,7.8474174,4.5181074,-1
869,870,1583549679247,1.7833999,2.1376,1.5918,9.782134,8.710182000000001,4.285707,-1
870,871,1583549679258,2.7401,2.9901,1.0955,10.958444,9.646535,3.1959049999999998,-1
871,872,1583549679268,3.9638998999999995,3.9104997999999997,-0.0705,12.43217,10.866487,1.8947616000000003,-1
872,873,1583549679278,5.2602,4.8826,-1.143,13.172217000000002,11.842967,1.3941245,-1
873,874,1583549679288,6.046,5.7971,-1.6305,13.027609,12.430839,1.5108945,-1
874,875,1583549679298,5.907,6.43,-1.4045999,12.606774,13.121029,2.0743937,-1
875,876,1583549679308,5.5504,7.0427,-0.8415,12.367919,14.217297,2.9221807,-1
876,877,1583549679319,5.4919,7.8960996,-0.118499994,12.424614,15.480198999999999,3.7355483,-1
877,878,1583549679329,5.6589,9.0629,0.6588,13.0672655,16.977102,4.317444999999999,-1
878,879,1583549679339,6.4228997,10.4542,1.1919999,14.161539999999999,18.098986,4.534915,-1
879,880,1583549679349,7.9209,11.6723995,1.406,15.445607999999998,18.862497,4.875312999999999,-1
880,881,1583549679359,9.059899,12.1088,1.6959,15.632461,18.955154,4.819030000000001,-1
881,882,1583549679369,9.4036,12.0581,1.6443,15.238395,18.435581,4.787446,-1
882,883,1583549679380,9.1876,11.3608,1.6553999,14.837079000000001,17.931067000000002,4.5780199999999995,-1
883,884,1583549679390,8.4496,9.673699000000001,1.1072,13.948580999999999,17.015734,3.8632362000000002,-1
884,885,1583549679400,7.9497,8.559999000000001,0.6228,13.177657,16.040461999999998,3.244622,-1
885,886,1583549679410,7.0284996,6.8956,0.2931,11.880364,14.548232,2.8136945,-1
886,887,1583549679420,5.9096,5.2278,0.4877,10.5949745,13.131373000000002,2.9535062,-1
887,888,1583549679431,5.4493,3.5540998,1.1108999,9.9015465,11.657645,3.3946523999999996,-1
888,889,1583549679441,4.861000000000001,1.9049,1.7407999,8.912119,10.236208,3.8851093999999997,-1
889,890,1583549679451,3.8128998,0.4457,2.5934,7.4964756999999995,8.931109,4.6133204,-1
890,891,1583549679461,2.6368,-1.2251999,3.6332998,6.060146,7.428528,5.411413,-1
891,892,1583549679471,1.8068,-2.7632,4.0127997,4.9849863,6.092468,5.445564,-1
892,893,1583549679482,1.601,-3.9898998999999997,3.6552,4.6140676,5.046642299999999,4.7557178,-1
893,894,1583549679492,1.601,-3.9898998999999997,3.6552,4.272759400000001,4.160183999999999,3.9193752,-1
894,895,1583549679502,1.0189999,-6.437599700000001,2.1806,3.2568040000000003,2.808705,3.0466599999999997,-1
895,896,1583549679512,0.065299995,-7.6198997,2.5572,1.6742653000000003,1.4774045,3.7170365,-1
896,897,1583549679522,-0.82879996,-8.7563,3.5818,0.81573325,0.7122845999999999,4.4406123,-1
897,898,1583549679532,-1.2876999,-9.4375,4.2925,0.059577316,0.034533966,5.102197,-1
898,899,1583549679542,-1.5284,-9.9219,4.7784,-0.35375765,-0.39186376,5.357859599999999,-1
899,900,1583549679553,-1.587,-10.349299,4.7058,-0.7950761,-0.7719768,4.7521075999999995,-1
900,901,1583549679563,-2.0894,-10.720099000000001,3.6107,-1.5524003999999998,-1.0042719,3.2346048,-1
901,902,1583549679573,-2.2412,-10.631499,2.0174,-1.6788142,-0.71547365,1.4153658000000002,-1
902,903,1583549679583,-2.0177999,-10.3674,0.54859996,-1.525298,-0.56563497,-0.01751598,-1
903,904,1583549679593,-1.7528,-10.331799499999999,-0.2993,-1.7505828,-0.4307456,-0.6172731,-1
904,905,1583549679604,-2.2115998,-10.0173,-0.050899997,-2.4978802000000004,-0.13209289999999999,0.07733272,-1
905,906,1583549679614,-2.7331998,-9.7696,1.2329999,-2.963811,0.33221942,1.5725882,-1
906,907,1583549679624,-2.6669998,-9.207499499999999,2.2028,-2.7203016,1.0919092,1.8535814,-1
907,908,1583549679634,-2.1213999,-8.3904,2.1351,-1.5749058999999999,1.8885653999999998,1.2532496000000002,-1
908,909,1583549679644,-0.47169998,-7.6024,1.2617999,0.16198212,2.6436296,0.06678865,-1
909,910,1583549679655,1.1651,-6.8336,0.0762,1.4283424999999998,3.4474110000000002,-0.9824174999999999,-1
910,911,1583549679665,2.2233999,-6.035,-0.6282,1.9776968000000001,4.081682700000001,-1.0213377000000001,-1
911,912,1583549679675,2.4161,-5.5993,-0.1029,1.5567386,4.3365026,0.21860977,-1
912,913,1583549679685,1.724,-5.3603,1.4863,0.29139349999999997,4.67194,2.0749779999999998,-1
913,914,1583549679695,0.39729998,-4.9452,3.2552,-0.9373683,5.0306773,3.3170992999999993,-1
914,915,1583549679706,-0.6322,-4.6867,3.9884,-1.7827035,5.196931,3.3118896,-1
915,916,1583549679716,-1.1758,-4.3886,3.2436,-1.5748292,5.709203700000001,1.4640735,-1
916,917,1583549679726,-0.6127,-3.9729,1.6509999,-1.0571454,6.010998000000001,0.3405704,-1
917,918,1583549679736,0.4222,-3.3025,-0.22109999,0.5706819000000001,7.0695796,-1.994054,-1
918,919,1583549679746,1.9490999,-2.2206,-1.8857,1.9475873,8.208693499999999,-2.9283767000000003,-1
919,920,1583549679756,2.7568,-1.4625,-2.1225998,1.5285063,8.477773,-1.9795738,-1
920,921,1583549679767,2.1218,-1.2831,-0.98899996,0.45185292,8.310044,-0.718634,-1
921,922,1583549679777,1.0914,-1.525,0.2658,-0.43701842,7.934087299999999,0.36122757,-1
922,923,1583549679787,0.30179998,-1.8743999,1.2416999,-1.2549447,7.652357,0.9847543,-1
923,924,1583549679797,-0.4421,-2.1158,1.7227999,-1.5504947,7.809034,0.6192747,-1
924,925,1583549679807,-0.5699,-1.867,1.1352,-1.39083,8.159363,-0.6284109,-1
925,926,1583549679818,-0.3381,-1.5009999,-0.1195,-1.0837976,8.568694,-1.7928262,-1
926,927,1583549679828,-0.0168,-1.0670998999999999,-1.1867,-0.7696400999999999,9.137911,-2.3698862000000003,-1
927,928,1583549679838,0.2227,-0.5948,-1.5746,-0.89509624,9.146386999999999,-1.7055622,-1
928,929,1583549679848,0.11229999,-0.584,-0.9044,-1.2652111000000001,8.867376,-0.4901793,-1
929,930,1583549679858,-0.24849999,-0.8675,0.3071,-1.7252234,8.620878999999999,0.09361329,-1
930,931,1583549679868,-0.69619995,-1.1115,0.8638,-1.6292256,8.71613,-0.04774996,-1
931,932,1583549679879,-0.55939996,-0.96279997,0.6465,-1.3600789,9.20696,-1.1518792,-1
932,933,1583549679889,-0.32029998,-0.5197,-0.3367,-0.99153465,9.649974,-2.0773723000000004,-1
933,934,1583549679899,0.0508,-0.077,-1.2311,-0.8063001000000001,10.043619,-2.2829287,-1
934,935,1583549679909,0.2236,0.31559998,-1.4366,-0.8240171999999999,10.224305000000001,-1.8027476999999998,-1
935,936,1583549679919,0.21069999,0.49179998,-0.956,-0.9235106,10.20156,-1.4463181,-1
936,937,1583549679929,0.1217,0.46179998,-0.5596,-0.7318979,10.184407,-1.3005016,-1
937,938,1583549679940,0.2996,0.4613,-0.45929998,-0.6329503000000001,10.25653,-1.8355004000000001,-1
938,939,1583549679950,0.4014,0.5202,-0.8656,-0.57727075,10.209192,-2.099916,d
939,940,1583549679960,0.4703,0.4912,-1.2753,-0.8300601999999999,10.128172,-1.8406334999999998,-1
940,941,1583549679970,-0.1761,0.3533,-0.2348,-1.3323158000000002,10.044558,-0.8197841999999999,-1
941,942,1583549679980,-0.3595,0.2929,0.59,-1.4337053999999998,10.028057,-0.010065224000000001,-1
942,943,1583549679990,-0.2149,0.41869998,1.0843999,-1.2663698,10.168338,0.45076114,-1
943,944,1583549680001,0.0148,0.45679998,1.0127,-1.0496275,10.2023735,0.24556848,-1
944,945,1583549680011,0.21589999,0.49609998,0.3491,-0.88012767,10.230884,-0.48038220000000004,-1
945,946,1583549680021,0.4007,0.4484,-0.4991,-0.65155804,10.146692999999999,-1.3241659,-1
946,947,1583549680031,0.6501,0.2838,-0.98209995,-0.47108313,9.953156,-1.7041928,-1
947,948,1583549680041,0.5956,-0.14459999,-0.8513,-0.62851626,9.471175,-1.4295491000000002,-1
948,949,1583549680051,0.5956,-0.14459999,-0.8513,-1.1453383,8.948252,-0.879352,-1
949,950,1583549680061,-0.8343,-1.5281,0.9417,-2.3033946,8.016879,0.56290555,-1
950,951,1583549680071,-1.9453,-2.4055,2.2154,-3.4583955,7.126188000000001,1.7418584,-1
951,952,1583549680081,-2.7217,-3.2052999,2.8725998,-4.1729883999999995,6.2513084,2.3962512,-1
952,953,1583549680091,-2.9666997999999998,-3.9582998999999996,3.3149998,-4.3198295,5.558196499999999,2.8298793,-1
953,954,1583549680101,-2.9387,-4.5280000000000005,3.7849998,-4.192803,5.035092400000001,3.2760627,-1
954,955,1583549680111,-2.4772,-4.9726996,4.1843,-3.6585028,4.6339197,3.7071724,-1
955,956,1583549680122,-1.8987999,-5.6836,4.9344997,-3.0910293999999996,3.8168553999999997,4.546636599999999,-1
956,957,1583549680131,-1.9405999,-6.8559,6.1429996,-3.3569197999999996,2.5860634,5.914348599999999,-1
957,958,1583549680141,-3.0507,-8.3713,8.2588,-4.563071,1.010152,8.242825,-1
958,959,1583549680151,-3.0507,-8.3713,8.2588,-5.527216,-0.36710772,10.658881,-1
959,960,1583549680161,-5.1768,-11.5527,13.2591,-6.380289,-2.061963,12.988669,-1
960,961,1583549680171,-5.2776,-12.582399,13.8518,-6.1556263,-2.996832,13.238814000000001,-1
961,962,1583549680182,-4.3592997,-13.035299,12.757299,-5.0421505,-3.2916347999999997,11.893502999999999,-1
962,963,1583549680192,-3.6186,-12.694799,11.3855,-3.9376477999999997,-2.7301848,10.5086775,-1
963,964,1583549680202,-2.7436,-12.0885,11.1251,-2.8510442000000005,-2.1274781000000003,10.907686,-1
964,965,1583549680212,-1.7348,-11.7245,12.4825,-1.4889444,-1.8318613000000001,12.545885,-1
965,966,1583549680222,-0.6940000000000001,-11.413899,13.941298999999999,-0.483533,-1.5611057,13.463564000000002,-1
966,967,1583549680233,0.4579,-10.6538,13.8467,1.0104296999999998,-0.61153656,12.885364,-1
967,968,1583549680243,2.4387,-8.6177,11.237599000000001,4.248683,2.3080773,8.492194999999999,-1
968,969,1583549680253,5.5652,-5.6068997000000005,5.7894998,7.833359,5.3974023,2.5467985,-1
969,970,1583549680263,8.6903,-2.2884,0.16149999,10.9359665,8.729997000000001,-2.7697754,-1
970,971,1583549680273,10.606999,0.8244,-3.8878,12.576903999999999,11.574098,-5.812796,-1
971,972,1583549680284,11.3271,3.678,-5.8219,13.777779,14.419137,-7.8652396,-1
972,973,1583549680294,12.945499,6.4667997,-8.5745,15.981497000000001,16.885901999999998,-11.001539,-1
973,974,1583549680304,14.7989,8.523399000000001,-11.9467,17.832396,18.859575,-15.111348999999999,-1
974,975,1583549680314,15.2745,9.8913,-15.1943,17.615856,19.773386,-17.953132999999998,-1
975,976,1583549680324,14.5541,10.6137,-17.5934,16.902863,19.965343,-19.751827,-1
976,977,1583549680335,13.833798999999999,10.6102,-18.8554,16.624657,19.853361,-20.314745000000002,-1
977,978,1583549680345,13.6557,10.4885,-19.143,16.586752,19.524658,-20.48837,-1
978,979,1583549680355,13.321898999999998,10.003799,-19.173,15.881143,18.627598000000003,-20.753487,-1
979,980,1583549680365,12.5222,8.9698,-19.725199,15.49266,17.44562,-21.595182,-1
980,981,1583549680375,11.7049,7.6720996,-21.080399,13.339955999999999,16.100998,-23.407852,-1
981,982,1583549680385,9.5338,6.1972,-22.2852,11.813450999999999,13.980462,-23.727601999999997,-1
982,983,1583549680396,8.236199000000001,3.7707998999999996,-21.993000000000002,10.248342,11.759304,-22.384953,-1
983,984,1583549680406,6.6635,1.7584,-20.046298999999998,9.202401,9.869225,-19.65136,-1
984,985,1583549680416,6.280999700000001,-0.2288,-16.9681,9.114639,7.400937,-15.416619,-1
985,986,1583549680426,6.1647997000000005,-2.3446,-13.3894,8.521298,5.2593236,-11.845044999999999,-1
986,987,1583549680436,5.5944,-4.4905,-9.9826,7.6731195,3.160777,-9.042249,-1
987,988,1583549680447,4.7545,-6.5855,-7.4002,6.676595,1.4435983000000001,-7.195352000000001,-1
988,989,1583549680457,3.8859,-8.215799,-5.7627,6.043147,0.22421220000000003,-6.175623000000001,-1
989,990,1583549680467,3.3167998999999995,-9.3905,-4.7606,5.215212999999999,-0.88360405,-5.306068,-1
990,991,1583549680477,2.5338,-10.4432,-4.0106,4.4442129999999995,-1.7801943,-5.078715,-1
991,992,1583549680487,1.8162999,-11.3747,-3.7821998999999997,3.6003525,-2.7009182000000003,-4.5385349999999995,-1
992,993,1583549680497,0.99079996,-12.264899,-3.0995998,2.7379037999999998,-3.3379862,-2.9583044,-1
993,994,1583549680507,0.1092,-12.8792,-1.2243998999999999,1.965429,-3.9421585,0.45938984,-1
994,995,1583549680518,-0.6458,-13.4605,2.3674998,1.3142731,-4.1002526,4.730789700000001,-1
995,996,1583549680528,-1.3076,-13.455,6.5695996,0.59422165,-3.4545362,9.637552000000001,-1
996,997,1583549680538,-2.0309,-12.8497,10.528399,-0.3927257,-3.06521,12.424643,-1
997,998,1583549680548,-3.3279998,-12.3496,13.779698999999999,-1.0138582,-2.7927692000000004,14.21335,-1
998,999,1583549680558,-3.7863,-12.041599,15.1795,1.0803213,-1.9652086,13.960301999999999,-1
999,1000,1583549680568,-1.9915999,-11.236799000000001,14.821098999999998,3.7487166,-0.88817227,13.754889499999999,-1
1000,1001,1583549680578,0.46519998,-10.0737,14.650499,4.788183,0.3435009,15.396076999999998,-1
1001,1002,1583549680589,1.2674999,-8.7827,16.257,3.8742301,1.5381502,18.12245,-1
1002,1003,1583549680599,0.0991,-7.4926996,18.8815,2.370365,2.6648996,21.351845,-1
1003,1004,1583549680609,-1.9889,-5.9437,22.8977,2.2585175,4.6550465,26.698355,-1
1004,1005,1583549680619,-2.0885,-4.1369,27.1349,4.8951273,6.699934,29.671159999999997,-1
1005,1006,1583549680629,0.24100000000000002,-1.9390999,29.9735,8.105714,9.150965,30.83795,-1
1006,1007,1583549680639,3.1201,0.6942,31.0373,12.875614,12.956367,28.281834000000003,-1
1007,1008,1583549680650,6.7896,3.9505,29.084099,15.463574,15.918242000000001,24.673111,-1
1008,1009,1583549680660,9.851299000000001,7.8683996,24.6904,16.721794,18.7366,20.20599,-1
1009,1010,1583549680670,9.527599,12.9488,17.101,15.339095,20.840021,17.134937,-1
1010,1011,1583549680680,9.527599,12.9488,17.101,14.509026,21.286129000000003,17.780855,-1
1011,1012,1583549680690,8.0917,14.194799,18.8148,14.565403,21.756313000000002,20.02445,-1
1012,1013,1583549680700,8.8571,15.481299,18.801199,15.776851,22.970842,19.41392,-1
1013,1014,1583549680711,11.1825,16.5536,14.3482,18.21116,23.881779,14.404063,-1
1014,1015,1583549680721,13.1467,17.5464,7.0435,20.181004,24.80161,6.773838499999999,-1
1015,1016,1583549680731,13.1467,17.5464,7.0435,21.482302,25.128775,0.24431393,-1
1016,1017,1583549680741,15.929399499999999,17.922499,-6.8718,22.530107,24.921867000000002,-6.0573015,-1
1017,1018,1583549680751,14.865298999999998,16.9308,-8.0477,20.5122,23.5382,-6.035466,-1
1018,1019,1583549680761,12.7779,15.4456,-6.4593,18.852913,22.460659,-4.571374,-1
1019,1020,1583549680771,11.7922,14.1326,-5.275,18.001398000000002,21.272089,-3.6142485,-1
1020,1021,1583549680781,11.7922,14.1326,-5.275,17.928204,20.582722,-3.9253511,-1
1021,1022,1583549680791,11.288099,11.5880995,-7.0989,16.867659,18.977123000000002,-5.726796,-1
1022,1023,1583549680801,9.3799,9.7112,-7.8338,14.607636999999999,17.144678,-6.323182599999999,-1
1023,1024,1583549680811,7.3854,7.4623,-7.4603996,12.399828999999999,15.0846,-5.950787999999999,-1
1024,1025,1583549680822,5.8037996,5.5499997,-6.8926997000000005,10.763182,13.496604000000001,-5.534513,-1
1025,1026,1583549680832,5.2232,4.0709,-6.861399700000001,10.117255,12.201148,-5.9645505,-1
1026,1027,1583549680842,5.3557997,3.1843,-7.764199700000001,9.831282,11.5444765,-7.3780484,-1
1027,1028,1583549680852,4.6453,2.5153,-8.9143,8.5225725,10.891913,-8.217207,-1
1028,1029,1583549680862,3.6241,1.3377,-8.7353,7.6406064,9.88835,-7.86954,-1
1029,1030,1583549680872,3.2559,-0.23629999,-7.1024,7.0815600000000005,8.178613,-5.3633565999999995,-1
1030,1031,1583549680883,3.3769,-1.716,-3.7299,7.259028,6.856419,-1.88009,-1
1031,1032,1583549680893,4.2374,-3.0145,-0.82989997,7.979836,5.6948004,0.015160085,-1
1032,1033,1583549680903,4.8325,-4.2246,-0.2717,8.050685000000001,4.654855,-0.3243473,-1
1033,1034,1583549680913,4.8795,-5.1147,-1.4606999,7.9220495,4.098614700000001,-1.8669793999999997,-1
1034,1035,1583549680923,4.933399700000001,-5.7028,-4.0346,7.478049799999999,3.5026786,-5.492327700000001,-1
1035,1036,1583549680934,4.0256,-6.4479,-6.8764,5.378775599999999,2.4822412,-8.841375,-1
1036,1037,1583549680944,2.1973,-7.3279996,-8.9031,3.8132449999999998,1.9012643,-10.211031,-1
1037,1038,1583549680954,0.83599997,-8.0694,-9.803599,2.5673215,1.0557758999999998,-10.652695,-1
1038,1039,1583549680964,0.4274,-8.8206,-9.2978,2.2657287,0.43832088,-9.815068,-1
1039,1040,1583549680974,0.5269,-9.3393,-8.2392,2.4221756,-0.011702858,-9.174582000000001,-1
1040,1041,1583549680984,1.0584999,-9.6755,-7.9691,3.1140425,-0.20039469,-9.600624,-1
1041,1042,1583549680995,2.0953999,-9.642799,-8.5086,4.278878700000001,0.115630366,-10.204491,-1
1042,1043,1583549681005,4.1423,-9.2225,-9.3709,6.748019,0.6657988,-11.376603999999999,-1
1043,1044,1583549681015,6.1326,-8.7308,-9.998099,8.602232,1.2599535,-11.652273,-1
1044,1045,1583549681026,7.5094,-8.2887,-9.987599000000001,8.640943,1.3484813999999998,-11.040975999999999,-1
1045,1046,1583549681036,7.3971995999999995,-8.2515,-9.1314,8.252469,1.4278253,-10.389657000000001,-1
1046,1047,1583549681046,7.1573,-8.157599000000001,-8.6426,7.7568207,1.4734204,-10.448029,-1
1047,1048,1583549681056,6.3963,-8.131599000000001,-8.811299,6.3681746,1.6473736,-11.399609,-1
1048,1049,1583549681067,5.3959,-7.937599700000001,-9.8529,5.6015797,1.6549201,-12.764159,-1
1049,1050,1583549681077,4.8778996,-7.9788,-11.1122,5.410781,1.7207415000000001,-13.443203,-1
1050,1051,1583549681087,4.9592,-7.7293,-11.5202,5.9444675,2.2980888,-12.157019,-1
1051,1052,1583549681097,5.5903997,-7.2697,-9.8397,6.1440095999999995,2.4598987,-9.670008000000001,-1
1052,1053,1583549681107,5.6647,-7.1871996,-7.4244,5.472446,2.5775115,-7.529266000000001,-1
1053,1054,1583549681117,4.9451,-7.0565,-5.5202,4.2955713,2.8242195,-6.295055400000001,-1
1054,1055,1583549681128,3.8409,-6.7868,-4.5249,3.777514,3.4131358,-6.260416,-1
1055,1056,1583549681138,3.6469998,-6.1025,-4.8257,4.5301843,4.6222553,-6.725485000000001,-1
1056,1057,1583549681148,4.381,-5.0834,-5.2325,5.2405343,5.4991650000000005,-5.9689364000000005,-1
1057,1058,1583549681158,5.2602,-3.987,-4.2021,5.9450517,6.780044,-3.8409028,-1
1058,1059,1583549681168,5.9108996,-2.6766999,-2.0238,6.063048,7.925123700000001,-1.126175,-1
1059,1060,1583549681178,5.8816,-1.6707,0.6537,5.6435165000000005,8.378318,2.0149984,-1
1060,1061,1583549681189,5.5228996,-1.3794,3.1060998,5.464114,8.475158,3.5745432,-1
1061,1062,1583549681199,5.339299700000001,-1.2924,4.5627,5.050003500000001,8.679651,4.7862196,-1
1062,1063,1583549681209,4.9207997,-1.0965999,5.6626,4.9849005,9.002668,6.3197637,-1
1063,1064,1583549681219,4.8289,-0.78319997,7.0677,5.4902489999999995,9.554388000000001,8.259718,-1
1064,1065,1583549681229,5.2932997,-0.2438,8.8597,6.252745,10.203513000000001,10.517498,-1
1065,1066,1583549681240,6.468499700000001,1.2447,13.488199,6.782448,11.16377,13.722971,-1
1066,1067,1583549681250,6.468499700000001,1.2447,13.488199,6.343562,11.295776,15.2269125,-1
1067,1068,1583549681260,5.9623,1.4886999,15.3403,5.712441,11.199894,15.757467000000002,-1
1068,1069,1583549681270,5.1321,1.3715998999999999,15.7659,4.7262115,11.074542999999998,15.133557000000001,-1
1069,1070,1583549681280,3.6460000000000004,1.0105,13.8159,3.9706972,10.798309,13.680622,-1
1070,1071,1583549681290,2.7649,1.0407,12.4890995,2.9745274,10.879598,12.454905499999999,-1
1071,1072,1583549681300,1.7737,1.1395,11.6692,2.0667324000000002,10.927683,11.877108,-1
1072,1073,1583549681311,1.7737,1.1395,11.6692,1.514141,10.889403999999999,12.163541,-1
1073,1074,1583549681321,0.46989998,1.073,12.0428,0.80185646,10.832603,12.346994,-1
1074,1075,1583549681331,0.0893,0.72069997,11.205999,0.37546828,10.418339999999999,11.296802,-1
1075,1076,1583549681341,-0.3435,0.30859998,9.4797,-0.086306185,10.067416999999999,9.511913999999999,-1
1076,1077,1583549681351,-0.6044,0.0526,7.6436996,-0.33390495,9.788952,7.7301493,-1
1077,1078,1583549681362,-0.74329996,-0.2331,6.139199700000001,-0.6029941,9.489457000000002,6.032038,-1
1078,1079,1583549681372,-1.1121,-0.4305,4.9084,-1.0188860999999998,9.317084,5.109322,-1
1079,1080,1583549681382,-1.7313,-0.66679996,4.1816,-1.8829821,9.051250999999999,4.4484553,-1
1080,1081,1583549681392,-2.4180999,-0.85359997,3.8797,-2.3748085,8.914638,4.248482,-1
1081,1082,1583549681402,-2.7257,-1.0498999,3.5676,-2.7204832999999997,8.697560000000001,3.8177557,-1
1082,1083,1583549681412,-2.7840998,-1.2267,3.0957,-2.7361512,8.545241,3.4169757000000005,-1
1083,1084,1583549681423,-2.5758,-1.3448,2.4752,-2.4749822999999997,8.442578,2.6758268,-1
1084,1085,1583549681433,-2.2967,-1.3649,2.0156999,-2.2031443,8.500297,2.2971407999999998,-1
1085,1086,1583549681443,-1.9369999,-1.1594,1.7333,-1.7230495,8.753680000000001,2.001045,-1
1086,1087,1583549681453,-1.3087,-0.87549996,1.3349,-1.1280617,9.042401,1.4873356000000002,-1
1087,1088,1583549681463,-0.7514,-0.57199997,0.8318,-0.6020171999999999,9.374382,1.0638205,-1
1088,1089,1583549681473,-0.3892,-0.3568,0.613,-0.44807965,9.440116999999999,0.95464486,d
1089,1090,1583549681483,-0.4163,-0.4454,0.752,-0.5889449000000001,9.317706,1.2297003,-1
1090,1091,1583549681493,-0.62799996,-0.5632,1.1504999,-0.7740646,9.216183000000001,1.6443281000000003,-1
1091,1092,1583549681503,-0.63549995,-0.5927,1.4612,-0.65177834,9.261136,1.797107,-1
1092,1093,1583549681513,-0.3834,-0.4067,1.3558999,-0.38361818,9.515514999999999,1.4612101,-1
1093,1094,1583549681524,-0.0289,-0.1327,0.768,0.023942016,9.786338,0.781908,-1
1094,1095,1583549681534,0.33139998,0.1019,0.1431,0.44882664,10.076668,0.14387238,-1
1095,1096,1583549681544,0.6026,0.327,-0.21419999,0.5295208,10.184942999999999,-0.00410845,-1
1096,1097,1583549681554,0.6304,0.42499998,-0.1522,0.61911184,10.287511,0.21394587,-1
1097,1098,1583549681564,0.7872,0.5724,0.2101,0.73179257,10.487542,0.7331907,-1
1098,1099,1583549681574,0.8285,0.77879995,0.5632,0.76200736,10.738741000000001,0.98718685,-1
1099,1100,1583549681585,0.8721,1.0541999,0.74509996,0.8677162,11.042939,1.1030469999999999,-1
1100,1101,1583549681595,1.0647,1.3884,0.7793,1.1371597,11.382514,1.1947450000000002,-1
1101,1102,1583549681605,1.3097,1.7031,0.972,1.144754,11.702475,1.5870875,-1
1102,1103,1583549681615,1.1795,1.9785999,1.355,0.88390094,11.900638,1.8746504000000002,-1
1103,1104,1583549681626,0.9007,2.1265,1.5014,0.4582598,12.001616499999999,1.736007,-1
1104,1105,1583549681635,0.45139998,2.2251,1.1762999,-0.003964798,12.114842,1.2740984,-1
1105,1106,1583549681645,0.0744,2.3925,0.7563,-0.3385018,12.366483,1.0701507,-1
1106,1107,1583549681655,-0.1551,2.7268,0.6868,-0.4411556,12.736799000000001,0.9991290999999999,-1
1107,1108,1583549681665,-0.0918,3.0614,0.5936,-0.27495015,12.955926,0.9799276,-1
1108,1109,1583549681675,0.1468,3.2196,0.557,-0.117746845,13.199770999999998,0.95831275,-1
1109,1110,1583549681686,0.2687,3.5349,0.5582,-0.061186217,13.453776000000001,0.9998953000000002,-1
1110,1111,1583549681696,0.35619998,3.6641998,0.6184,-0.22134873,13.36475,1.183339,-1
1111,1112,1583549681706,0.049,3.4703,0.90569997,-0.68211764,13.152173999999999,1.5392994,-1
1112,1113,1583549681716,-0.32889998,3.3258997999999997,1.1784999,-0.95559293,13.141974,1.4863491000000002,-1
1113,1114,1583549681726,-0.39819998,3.3286998,1.0087,-0.9871964,12.972599,1.0726118999999998,-1
1114,1115,1583549681736,-0.35709998,3.1650999,0.5715,-0.7062129,12.9380455,0.51000327,-1
1115,1116,1583549681746,0.0663,3.1587,0.0077,-0.30096072,12.844978,-0.10515334,-1
1116,1117,1583549681757,0.4807,3.0254998,-0.5226,-0.11760319,12.635649,-0.20863074,-1
1117,1118,1583549681768,0.70129997,2.8049998,-0.5344,-0.20183120000000002,12.269862,0.16378255,-1
1118,1119,1583549681778,0.62149996,2.4092,-0.1064,-0.45384488,11.778917,0.7728675,-1
1119,1120,1583549681788,0.4278,1.9260999,0.4831,-0.7070748,11.308408,1.2597523000000002,-1
1120,1121,1583549681798,0.29569998,1.4340000000000002,0.8606,-0.70008373,10.688224,1.199859,-1
1121,1122,1583549681808,0.4001,0.8243,0.68219995,-0.65547496,9.914188000000001,0.47825617,-1
1122,1123,1583549681819,0.51519996,0.17549999,0.0585,-0.38687426,9.363483,-0.24693796,-1
1123,1124,1583549681829,0.8562,-0.3653,-0.6102,-0.3930896,9.099575,-0.9010338999999999,-1
1124,1125,1583549681839,0.9227,-0.6213,-1.2324,-0.8110501999999999,8.847226,-1.1382417999999999,-1
1125,1126,1583549681849,0.58849996,-0.8666,-1.4345,-1.252292,8.509701,-1.0086005999999998,-1
1126,1127,1583549681859,0.2332,-1.1895,-1.2833999,-1.612131,8.122061,-0.77659285,-1
1127,1128,1583549681870,0.084699996,-2.0802999,-0.9273,-1.470241,7.5114436,-0.6416269,-1
1128,1129,1583549681880,0.4349,-2.414,-0.7934,-1.17517,7.2138157000000005,-0.5001487,-1
1129,1130,1583549681890,0.8289,-2.6011,-0.50369996,-0.83432186,7.034337,-0.14830643,-1
1130,1131,1583549681900,0.8289,-2.6011,-0.50369996,-0.54944056,7.029884,0.28325320000000004,-1
1131,1132,1583549681910,1.1624,-2.6411998,-0.0931,-0.34720713,7.101566,0.6294739,-1
1132,1133,1583549681920,1.2509999,-2.5922,0.5018,-0.7413693,7.009514,0.7197353,-1
1133,1134,1583549681930,1.2509999,-2.5922,0.5018,-1.5708836000000002,6.740721700000001,-0.082676575,-1
1134,1135,1583549681941,-0.08249999599999999,-2.9703,-0.99399996,-2.172221,6.6369953,-0.98977256,-1
1135,1136,1583549681951,-0.2496,-2.9782,-1.5239999,-2.322079,6.6252830000000005,-1.454602,-1
1136,1137,1583549681961,-0.2199,-2.8894,-1.6517998999999999,-2.3097822999999997,6.727994,-1.5434461000000002,-1
1137,1138,1583549681971,-0.0919,-2.7728999,-1.4388,-2.2415667,6.817518,-1.2038621,-1
1138,1139,1583549681982,-0.099199995,-2.7363,-0.6890000000000001,-2.3276906000000004,6.839238000000001,-0.33907643,-1
1139,1140,1583549681991,-0.099199995,-2.7363,-0.6890000000000001,-2.2951486,6.965259,0.42976877,-1
1140,1141,1583549682001,0.2305,-2.4218,0.75259995,-1.8822734,7.1761794000000005,0.88220584,-1
1141,1142,1583549682011,0.9420000000000001,-2.0948,0.5252,-1.2084494,7.558418,0.46260765,-1
1142,1143,1583549682022,1.1366999,-1.7181,-0.43989998,-1.1895926000000001,7.8897758,-0.6436093,-1
1143,1144,1583549682032,0.60499996,-1.7019,-1.2879,-1.8456806000000001,7.828933999999999,-1.3881198000000001,-1
1144,1145,1583549682042,-0.21409999,-1.8505,-1.3244,-2.8382304,7.598363000000001,-1.3807648000000001,-1
1145,1146,1583549682052,-0.8379,-2.0186,-1.2219,-3.3389442000000003,7.4774460000000005,-1.2288097,-1
1146,1147,1583549682062,-0.9597,-2.0414999,-0.9324,-3.242381,7.51765,-0.9602185,-1
1147,1148,1583549682072,-0.639,-1.89,-0.6861,-2.9028547000000002,7.737092999999999,-0.7636736999999999,-1
1148,1149,1583549682082,-0.36069998,-1.6044999,-0.6354,-2.723232,8.019014,-0.8651017,-1
1149,1150,1583549682093,-0.3022,-1.3592,-0.87479997,-2.6459377,8.298743,-1.1854554,-1
1150,1151,1583549682103,-0.1384,-0.97709996,-1.2004,-2.5183744,8.655346,-1.4796548999999999,-1
1151,1152,1583549682113,-0.1608,-0.7323,-1.3104,-2.5684133,8.842725999999999,-1.51688,-1
1152,1153,1583549682123,-0.1318,-0.6046,-1.3144,-2.5142088,8.923601,-1.5406208000000001,-1
1153,1154,1583549682133,-0.1594,-0.57449996,-1.3199999,-2.5521998,9.013508999999999,-1.5523907,d
1154,1155,1583549682143,-0.057999999999999996,-0.387,-1.3567,-2.3524467999999996,9.206758500000001,-1.6161723,-1
1155,1156,1583549682154,0.1223,-0.27789998,-1.3378999,-2.2690425,9.299348,-1.5421723,-1
1156,1157,1583549682165,0.117599994,-0.1294,-1.1575999,-2.363872,9.331114,-1.2308784,-1
1157,1158,1583549682175,0.0652,-0.2848,-0.8167,-2.2679508,9.090036999999999,-0.7464833000000001,-1
1158,1159,1583549682185,0.24859999,-0.5186,-0.27519998,-2.1252657999999998,8.702636,-0.11518025400000001,-1
1159,1160,1583549682195,0.37539998,-1.0656999,0.42069998,-2.0067432000000003,8.056001,0.8187211999999999,-1
1160,1161,1583549682205,0.5166,-1.7096,1.5101999,-1.8513403999999998,7.3617773,2.0385478,-1
1161,1162,1583549682215,0.615,-2.4694998,2.6344,-2.0449069,6.4676194,2.8247174999999998,-1
1162,1163,1583549682225,0.2497,-3.4724,3.1971,-2.6172934,5.2744074,3.1248739,-1
1163,1164,1583549682236,-0.3256,-4.6993,3.4564,-3.247907,4.0002512999999995,3.5277796,-1
1164,1165,1583549682246,-1.0392,-6.0934,4.0752,-4.316736,2.2756982000000003,4.665083,-1
1165,1166,1583549682256,-2.2586,-8.0092,5.4934,-5.573902599999999,0.20650469,6.528433000000001,-1
1166,1167,1583549682266,-3.5096998,-10.095099000000001,7.5919,-6.841814500000001,-1.9558138999999999,9.217417999999999,-1
1167,1168,1583549682276,-4.6611,-12.205299,10.6637,-7.745089500000001,-4.2168593,13.760185,-1
1168,1169,1583549682286,-5.1967,-13.9873,14.4515,-7.751888799999999,-5.670954,17.098814,-1
1169,1170,1583549682297,-5.2279,-15.3833,17.5217,-7.494579300000001,-6.664232000000001,19.024202,-1
1170,1171,1583549682307,-4.9143,-16.286499,19.066,-6.4155607,-7.1596494,18.837970000000002,-1
1171,1172,1583549682317,-3.8084998,-16.7556,18.5682,-5.1483765,-7.502403299999999,16.909653,-1
1172,1173,1583549682327,-2.7261,-17.122,16.4464,-3.7957098,-7.7661679999999995,13.455959,-1
1173,1174,1583549682337,-1.4344,-17.3531,12.927099,-2.087332,-7.6703134,9.606409,-1
1174,1175,1583549682348,0.13669999,-17.2418,9.2844,0.26343882,-7.264208999999999,6.090207599999999,-1
1175,1176,1583549682358,2.2295,-16.8067,6.2099,2.0862978,-6.8612075,3.9926858,-1
1176,1177,1583549682368,3.5082998,-16.5064,4.5281,3.1516888,-6.513445,3.0852833,-1
1177,1178,1583549682378,4.2371,-16.131899,3.8384998,4.944237,-5.889736,2.2675965,-1
1178,1179,1583549682388,5.4165,-15.630999999999998,3.2203,6.8531246,-4.791075,1.6393386000000003,-1
1179,1180,1583549682399,6.9307,-14.5392,2.6431,8.6611595,-3.3025138,0.4696849,-1
1180,1181,1583549682409,8.3133,-13.0299,1.5084,9.909917,-1.5678861000000002,-1.4623687,-1
1181,1182,1583549682419,9.1173,-11.2781,-0.39799999999999996,10.958663,-0.055641245,-3.6488112999999998,-1
1182,1183,1583549682429,10.0483,-9.3705,-3.2956,13.747593,2.3061142000000006,-8.071917,-1
1183,1184,1583549682439,12.020499000000001,-7.3149996,-7.1288,15.832673999999999,5.035839599999999,-11.370208,-1
1184,1185,1583549682450,13.625,-4.5032997,-10.5885,18.255999,8.204432,-13.142731,-1
1185,1186,1583549682460,15.5765,-1.2306,-12.5827,21.265644,11.532008,-13.091083,-1
1186,1187,1583549682470,18.1332,2.2288,-12.804299,22.641823000000002,14.597591,-12.133986,-1
1187,1188,1583549682480,18.9854,7.5154996,-12.7444,22.784601000000002,16.752036999999998,-12.753807,-1
1188,1189,1583549682490,17.8856,8.988,-14.655999,21.799706,18.243423,-14.470096,-1
1189,1190,1583549682501,17.8856,8.988,-14.655999,21.187641,20.001324,-15.709152,-1
1190,1191,1583549682511,17.2972,13.8806,-17.803299,22.301796,22.958488,-16.81852,-1
1191,1192,1583549682521,18.8141,16.694399,-17.7452,24.250418,25.546993,-16.097769,-1
1192,1193,1583549682531,21.1419,19.1757,-16.09,26.814809999999998,27.757494,-13.907563,-1
1193,1194,1583549682542,22.774898999999998,21.2094,-13.736099,28.269537,29.43555,-11.187282000000002,-1
1194,1195,1583549682552,22.546,22.125398999999998,-11.350999999999999,27.572805,29.961671999999997,-8.23546,-1
1195,1196,1583549682562,20.813098999999998,22.147099,-9.7295,25.462029,29.749603000000004,-6.9597240000000005,-1
1196,1197,1583549682572,18.4613,21.856499,-9.1677,23.206566,29.135807,-6.209285700000001,-1
1197,1198,1583549682582,16.2664,20.8259,-7.8886,21.518242,28.151971999999997,-4.904484,-1
1198,1199,1583549682592,14.4077,19.464699,-5.5221995999999995,19.366947,26.509548,-1.6461765,-1
1199,1200,1583549682603,12.6487,17.8471,-2.1392,17.526226,24.718504,1.7162787,-1
1200,1201,1583549682613,10.8636,15.7983,1.1079,15.820319,22.66088,4.5899816,-1
1201,1202,1583549682623,9.727699000000001,13.480498999999998,3.734,15.035682999999999,20.389395,7.008613599999999,-1
1202,1203,1583549682633,9.3875,11.362599000000001,6.4096,14.625709,18.586570000000002,9.755539,-1
1203,1204,1583549682644,8.7859,9.4198,9.8859,13.151638,16.220028,14.112182,-1
1204,1205,1583549682654,7.1436,7.3004,13.7574,10.983994500000001,14.320151000000001,17.666603,-1
1205,1206,1583549682664,5.1966,5.2044,17.2568,9.066612,12.121497999999999,20.864182999999997,-1
1206,1207,1583549682674,3.6064,2.7642,20.5162,7.5000186,9.779624,23.980247,-1
1207,1208,1583549682684,2.4157,0.2687,23.7297,6.502508,7.8505009999999995,26.479515000000003,-1
1208,1209,1583549682694,1.4336,-2.339,26.5289,4.9100575,4.7826095,28.910608,-1
1209,1210,1583549682704,0.12799999,-5.0987,27.8466,3.020094,2.1783502,29.680574,-1
1210,1211,1583549682714,-1.8073,-7.7074,28.5322,1.0417554,0.009002198000000001,29.699115999999997,-1
1211,1212,1583549682725,-3.2726,-9.8793,27.967999,-0.4638622,-1.8783470000000002,27.901089000000002,-1
1212,1213,1583549682735,-4.2302,-11.4744,25.5199,-1.1501649999999999,-2.7838627999999996,24.332635999999997,-1
1213,1214,1583549682745,-4.4125,-12.214399,21.6325,-1.3687173000000001,-3.2143116000000003,20.062424,-1
1214,1215,1583549682755,-4.499399700000001,-12.577399,17.6407,-1.7599490000000002,-3.3859565000000003,16.204666,-1
1215,1216,1583549682765,-4.7289,-12.768399,14.1749,-2.0208786,-3.4300005,12.818527,-1
1216,1217,1583549682775,-4.6840997,-12.8069,11.0013,-1.8020581000000002,-3.2828622000000003,9.556235000000001,-1
1217,1218,1583549682785,-4.173,-12.5763,7.9617,-1.035023,-2.7397234,6.018027,-1
1218,1219,1583549682796,-3.3911998,-12.0782995,5.2049,-0.39814618,-2.1807156,3.825791,-1
1219,1220,1583549682806,-2.609,-11.325299000000001,2.7121,0.4221648,-1.1098561000000002,0.95272946,-1
1220,1221,1583549682816,-1.9380000000000002,-10.3587,0.4631,1.0053349,-0.11541010000000002,-0.8270434999999999,-1
1221,1222,1583549682826,-1.1287,-9.0626,-1.5798,2.2087277999999997,1.6115563,-3.4292822,-1
1222,1223,1583549682836,-0.138,-7.5951,-3.7057998,2.9353773999999997,2.9880402000000004,-5.941336,-1
1223,1224,1583549682847,0.49179998,-6.2128,-6.2432,3.6354038999999996,4.316429599999999,-8.692273,-1
1224,1225,1583549682857,1.2461,-4.9269,-8.7943,4.514775,5.362073400000001,-10.6091385,-1
1225,1226,1583549682867,2.0105999,-3.9155998,-10.4023,4.7667885000000005,6.151192,-11.151397,-1
1226,1227,1583549682877,2.1035,-3.1518998,-10.629000000000001,4.520071,6.8399186,-10.661036,-1
1227,1228,1583549682888,1.8484,-2.4694998,-10.026999,4.6485724,7.553917,-9.860414500000001,-1
1228,1229,1583549682898,2.0430999,-1.7193999,-9.246099000000001,4.9812136,8.258884,-9.167303,-1
1229,1230,1583549682908,2.3518,-1.0275999,-8.6574,5.2872114,9.056663,-8.632083999999999,-1
1230,1231,1583549682918,2.5697,-0.37449998,-8.2633,5.490575,9.435644,-8.425895,-1
1231,1232,1583549682928,2.7972999,0.0924,-8.0604,5.8302164,9.82837,-8.189653999999999,-1
1232,1233,1583549682938,3.1095,0.4624,-7.8845997,6.123419999999999,10.050438,-7.502164,-1
1233,1234,1583549682949,3.3272,0.643,-7.3097,6.073936499999999,10.229217,-6.572715799999999,-1
1234,1235,1583549682959,3.2028,0.8526,-6.1615,5.5897903,10.297433,-4.87085,-1
1235,1236,1583549682969,2.7616,0.89419997,-4.8476996,5.17183,10.360735,-3.620282,-1
1236,1237,1583549682980,2.3457,0.9546,-3.6954,4.8156395,10.417622,-2.5502653,-1
1237,1238,1583549682990,1.9827,1.0145998999999999,-2.7059,4.7519730000000004,10.42625,-1.7139898999999998,-1
1238,1239,1583549683000,1.8597,0.90889996,-1.328,4.6323685999999995,10.265599,-0.9283948000000001,-1
1239,1240,1583549683010,1.4541,0.69299996,-0.9447,4.168880000000001,10.034291,-0.51536626,-1
1240,1241,1583549683020,0.9044,0.4269,-0.5596,3.6215843999999997,9.775400999999999,-0.08110598,-1
1241,1242,1583549683030,0.9044,0.4269,-0.5596,3.3045442000000005,9.610412,0.25529853,-1
1242,1243,1583549683041,0.1674,0.12979999,-0.0543,2.9395914,9.527822,0.41085458,-1
1243,1244,1583549683051,0.1531,0.0998,0.0133,2.9648452,9.493431,0.5241385999999999,-1
1244,1245,1583549683061,0.1357,0.1196,0.0345,2.9093382,9.516645,0.51009905,-1
1245,1246,1583549683071,0.0482,0.0614,0.018000000000000002,2.8252919999999997,9.458936,0.5505706,-1
1246,1247,1583549683081,0.0185,-0.015999998999999997,0.21869999,2.8062341,9.356646000000001,0.79983574,-1
1247,1248,1583549683091,0.0361,-0.103099994,0.6398,2.8130624,9.277867,1.2655653999999998,-1
1248,1249,1583549683101,0.0133,-0.1413,1.0103999,2.7945599999999997,9.255189,1.6243604,-1
1249,1250,1583549683113,0.048299998,-0.17979999,1.1177,2.924297,9.205466,1.5655206,-1
1250,1251,1583549683123,0.1999,-0.14989999,0.7556,3.044352,9.2893305,1.0169228000000001,-1
1251,1252,1583549683133,0.2733,-0.012499999,0.115499996,3.0680065,9.412363000000001,0.34528220000000004,-1
1252,1253,1583549683144,0.21139999,0.0557,-0.4463,2.961436,9.4524145,-0.13226527,-1
1253,1254,1583549683154,0.12239999,0.0647,-0.6599,2.9048083,9.4537735,-0.22773646,-1
1254,1255,1583549683164,0.0543,0.0246,-0.55619997,2.8242483,9.392684,-0.051015653,d
1255,1256,1583549683174,0.0071,-0.0449,-0.3304,2.8606496,9.322925999999999,0.20442651,-1
1256,1257,1583549683184,0.1063,-0.0749,-0.1371,2.9713097,9.346907,0.29181490000000004,-1
1257,1258,1583549683194,0.1661,-0.036199998,-0.0923,2.893182,9.392664,0.26381227,-1
1258,1259,1583549683205,0.0016,0.0019999999,-0.14479999,2.6169488,9.431556,0.19485928,-1
1259,1260,1583549683215,-0.2593,0.049599998,-0.2651,2.4285537999999995,9.477276,0.017812861,-1
1260,1261,1583549683225,-0.44169998,0.0678,-0.42459998,2.3477829,9.479516,-0.24805845,-1
1261,1262,1583549683235,-0.35029998,0.0765,-0.7556,2.5884957,9.533700999999999,-0.5799523,-1
1262,1263,1583549683245,-0.16149999,0.1252,-0.93109995,2.6491745,9.535588,-0.47324750000000004,-1
1263,1264,1583549683255,-0.0995,0.1547,-0.76919997,2.7638952999999997,9.623446000000001,-0.13868174,-1
1264,1265,1583549683266,0.060999997,0.3023,-0.3358,2.8635612,9.919694,0.67287606,-1
1265,1266,1583549683276,0.0758,0.56769997,0.33799999999999997,2.7499037,10.259738,1.3378226,-1
1266,1267,1583549683286,-0.043899997999999996,0.92029995,0.9015,2.548685,10.583798,1.5523717,-1
1267,1268,1583549683296,-0.25939998,1.2224,1.0196,2.4056268,10.737822999999999,1.513145,-1
1268,1269,1583549683306,-0.52279997,1.5526999,0.75329995,2.0391033,11.202891000000001,0.99992394,-1
1269,1270,1583549683316,-0.68909997,1.8628999,0.3915,2.2423232000000004,11.711592,0.69739264,-1
1270,1271,1583549683326,-0.39799999999999996,2.4387,0.13239999,2.6325684,12.472134,0.47272077,-1
1271,1272,1583549683337,-0.0218,3.2117,-0.0711,3.0172496,13.283826000000001,0.29960084,-1
1272,1273,1583549683347,0.3743,4.0538,-0.21429999,3.3201258,14.078835,0.40032009999999996,-1
1273,1274,1583549683357,0.7531,5.0035996,0.0339,3.8457487,15.115782999999999,0.88921607,-1
1274,1275,1583549683367,1.2343,5.8447,0.46159998,4.2510676,15.879888000000001,1.5119288,-1
1275,1276,1583549683378,1.6053,6.6148996,1.1464,4.5206265,16.73384,2.4583566,-1
1276,1277,1583549683388,1.9279,7.4504,2.1338,4.8986516,17.37882,3.4002550000000005,-1
1277,1278,1583549683398,2.3616,8.0265,3.0205998,5.3238616,17.701704,3.8301193999999996,-1
1278,1279,1583549683408,2.8300998,8.2444,3.3534,5.5638084,17.755276000000002,3.4923167,-1
1279,1280,1583549683418,3.0714,8.260799,3.0749,5.389396,17.620396,3.055164,-1
1280,1281,1583549683428,2.9303,8.0371,2.615,5.077259,17.192235999999998,2.5088935,-1
1281,1282,1583549683438,2.7208997999999998,7.5452,2.1977,4.446894599999999,16.346498,1.9632453999999997,-1
1282,1283,1583549683448,2.3054,6.7672,1.8856,3.9005089,15.646970000000001,1.7384490000000001,-1
1283,1284,1583549683458,1.7504,5.8322997,1.7170999,3.1750849999999997,14.599554999999999,1.4709976,-1
1284,1285,1583549683468,1.2076,4.7328997,1.6360999,2.5084627,13.450137,1.3903896,-1
1285,1286,1583549683479,0.7897,3.6662,1.6884999,2.0420625,12.444917,1.1825153999999998,-1
1286,1287,1583549683489,0.4908,2.5156,1.5579,1.5469034,11.147892,0.792883,-1
1287,1288,1583549683499,0.22739999,1.4383999,1.3524,0.9893415999999999,9.985152000000001,0.7737102,-1
1288,1289,1583549683509,-0.16899999999999998,0.258,1.4435999,0.6620255,8.825353999999999,0.61143124,-1
1289,1290,1583549683519,-0.3407,-0.9083,1.3786,0.6137104999999999,7.979759,0.10340078,-1
1290,1291,1583549683530,-0.25349998,-1.7569,0.95949996,0.7369640000000001,7.318145299999999,-0.33942118,-1
1291,1292,1583549683540,0.0041,-2.5735,0.55689996,1.0116748,6.771444,-0.7488776,-1
1292,1293,1583549683550,0.7703,-3.2419999,0.5943,1.3579816,6.403005599999999,-0.31583354,-1
1293,1294,1583549683560,0.7703,-3.2419999,0.5943,1.4491049999999999,6.039162999999999,0.21453005,-1
1294,1295,1583549683570,1.0073999,-3.7027997999999998,1.3158,1.173044,5.72717,0.15209885,-1
1295,1296,1583549683580,0.5,-4.5301,1.1525999,0.63209796,5.101431,-0.12579136,-1
1296,1297,1583549683591,0.048,-4.9537997,0.94329995,0.051532798,4.679132,-0.42895475,-1
1297,1298,1583549683601,-0.4253,-5.432699700000001,0.69769996,-0.5663628,4.1776805,-0.75942165,-1
1298,1299,1583549683611,-1.13,-6.0165,0.43989998,-1.3922858,3.5802605000000005,-1.14575,-1
1299,1300,1583549683621,-1.7882999,-6.4515,-0.014599998999999999,-2.058209,3.1395743,-1.7448846000000002,-1
1300,1301,1583549683631,-1.8873999,-6.769,-0.7421,-2.1245477000000004,2.8853865,-2.5759119999999998,-1
1301,1302,1583549683641,-1.4606999,-6.5989,-1.3993,-1.6219663999999998,3.1329374,-3.2058169999999997,-1
1302,1303,1583549683652,-0.8692,-6.3455,-1.4164,-1.0621637,3.3560483,-3.113238,-1
1303,1304,1583549683662,-0.382,-6.1858997,-0.7559999999999999,-0.69400245,3.5104265,-2.326101,-1
1304,1305,1583549683672,-0.45499998,-6.0211,0.55829996,-0.8663371,3.672083,-0.61793387,-1
1305,1306,1583549683682,-0.8896,-6.0055,1.9116,-1.5245222999999999,3.5385535000000004,0.5900941,-1
1306,1307,1583549683692,-1.7816,-6.2539,2.74,-2.3868945,3.4111629,1.1405402,-1
1307,1308,1583549683703,-2.4412,-6.1475,2.6683,-2.710169,3.5965792999999997,0.62202317,-1
1308,1309,1583549683713,-2.0439,-5.8336997,1.7435,-1.6182889,4.0769134,-0.47886908,-1
1309,1310,1583549683724,-0.287,-5.0582,0.5775,0.88762635,5.183753,-1.942186,-1
1310,1311,1583549683734,1.6458,-4.0952,-0.6243,2.188846,5.9526944,-2.7191045,-1
1311,1312,1583549683744,2.6482,-3.1109,-1.0759,2.8197374,7.027278999999999,-2.7116057999999996,-1
1312,1313,1583549683754,2.6253998,-2.3708,-0.6119,2.4372494,7.589466000000001,-1.9135705000000003,-1
1313,1314,1583549683764,2.0479998999999998,-1.8654,0.18869999,1.6678393,8.0326805,-1.5379201999999998,-1
1314,1315,1583549683774,1.1925,-1.4569,0.2409,0.9665870999999999,8.378432,-1.8884889,-1
1315,1316,1583549683785,0.6773,-1.1254,-0.17009999,0.7806151,8.612748,-2.3120232000000005,-1
1316,1317,1583549683795,0.4869,-0.8811,-0.6166,0.36820906,8.82317,-2.8225912999999996,-1
1317,1318,1583549683805,0.0611,-0.7443,-0.9932,0.12333011599999999,8.930162,-3.3180666,-1
1318,1319,1583549683815,-0.0354,-0.6081,-1.4625,0.2572522,9.181716,-3.8038695,-1
1319,1320,1583549683826,0.24159999,-0.3071,-1.9224999,0.95049804,9.58805,-4.3868093,-1
1320,1321,1583549683836,0.8739,0.0991,-2.3660997999999998,1.4847306999999998,10.076851,-4.692903500000001,-1
1321,1322,1583549683846,1.2883999,0.5613,-2.6768,1.5333903999999998,10.412115,-4.979068,-1
1322,1323,1583549683856,1.2071999,0.93219995,-2.8934999,1.3364242,10.607406,-4.6579294,-1
1323,1324,1583549683866,1.0066,1.0253,-2.3985,1.2140326000000001,10.61341,-3.8230227999999995,-1
1324,1325,1583549683876,0.86429995,1.0282,-1.3527,0.92840433,10.5791445,-2.5332282000000004,-1
1325,1326,1583549683887,0.6034,0.93369997,-0.33299999999999996,0.78933,10.38982,-1.7512628000000001,-1
1326,1327,1583549683897,0.49469998,0.7335,0.2861,0.6206154,10.216011,-1.8957288,-1
1327,1328,1583549683907,0.3284,0.5757,-0.070099995,0.3275555,10.089875,-2.9537075,-1
