,Seq,Time,ACCx,ACCy,ACCz,ADGx,ADGy,ADGz,Keydown
0,1,1583552598593,1.2887,-0.3435,-1.6868999,8.200485,-7.2918477,0.32057405,-1
1,2,1583552598603,1.2038,-1.0509,-1.5608,9.747255000000001,1.6978146,-3.1164365000000003,-1
2,3,1583552598613,0.5275,0.0852,-0.1547,10.146042999999999,1.153239,-1.9384702,-1
3,4,1583552598623,0.9007,-0.4669,0.98499995,10.593067999999999,0.62681156,-1.1193947,-1
4,5,1583552598634,1.3507,-0.88009995,1.7026999,10.992929,0.6919434,-0.44385627,-1
5,6,1583552598644,1.6504999,-0.76519996,2.2066,10.668352,0.84939575,-0.34505233,-1
6,7,1583552598654,1.1538,-0.6145,2.2038999,9.497194,0.81682503,-0.7575350000000001,-1
7,8,1583552598664,0.113,-0.6566,1.7371999,8.452183999999999,0.8278958000000001,-0.8823591000000001,-1
8,9,1583552598674,-0.9625,-0.65389997,1.4812,8.124042999999999,1.0650176000000002,-0.6698881,-1
9,10,1583552598684,-1.3616999,-0.2271,1.3869999999999998,8.709743,1.7219194,-0.47520113,-1
10,11,1583552598694,-0.8892,0.3988,1.1312,9.466463000000001,2.0060823,-0.21226993,-1
11,12,1583552598704,-0.1454,0.5794,1.2113,9.746143,1.9090023,0.20125659,-1
12,13,1583552598715,0.1068,0.19479999,0.8993,9.616599,1.4024851,0.52745223,-1
13,14,1583552598725,-0.0289,-0.3403,1.0170000000000001,9.592503,0.9680332,0.6436093,-1
14,15,1583552598735,-0.0672,-0.75439996,1.0085,9.88972,0.8107533,0.4569765,-1
15,16,1583552598745,0.6714,-0.38599998,-0.1463,10.443384,1.3438653999999999,-0.33388579999999995,-1
16,17,1583552598755,0.6714,-0.38599998,-0.1463,10.545664,1.8654087,-0.5249144,-1
17,18,1583552598766,0.8706,0.2314,-0.479,10.039414,2.415223,-0.22224896,-1
18,19,1583552598776,0.364,0.7703,-0.20699999,9.0534725,2.6111834,0.95112056,-1
19,20,1583552598786,-1.6485,0.5758,2.0128999,7.865058,2.3536537,2.3953222999999997,-1
20,21,1583552598796,-1.8542999,0.1607,2.5677,7.856113400000001,2.0006716,2.7973947999999997,-1
21,22,1583552598806,-1.8542999,0.1607,2.5677,8.399933,1.869316,2.7439754,-1
22,23,1583552598816,-0.5607,-0.2056,2.3435,9.163308,1.7101113000000001,2.5028794,-1
23,24,1583552598827,-0.25509998,-0.35599998,1.5963,9.401580000000001,1.5518737,1.6441845000000002,-1
24,25,1583552598837,-0.096499994,-0.48459998,0.7984,9.560411,1.4873356000000002,0.98338485,-1
25,26,1583552598847,-0.1228,-0.3933,0.6199,9.413523,1.5538370000000001,1.0965731,-1
26,27,1583552598857,-0.5882,-0.4218,1.2285,8.855395,1.5424213,1.8109646000000001,-1
27,28,1583552598868,-1.5218999,-0.396,2.2447999,7.619269,1.6604936999999997,3.122748,-1
28,29,1583552598879,-2.699,-0.2616,3.2510998,6.3951807,1.9302724999999998,4.024155,-1
29,30,1583552598889,-3.9835,0.0473,3.8671,5.062271599999999,2.2698374,4.3477364000000005,-1
30,31,1583552598899,-5.1907,0.38279998,3.9401998999999996,3.974825,2.6598432,4.358587,-1
31,32,1583552598909,-5.9891996,0.7334,3.5921998,3.4829887999999998,3.0396307,3.8603053,-1
32,33,1583552598919,-6.0274997,1.084,3.1726,3.6239019999999997,3.3245692000000004,3.6131282,-1
33,34,1583552598929,-5.7960997,1.1388,3.2115998,3.8333466,3.1146362,3.7096720000000003,-1
34,35,1583552598940,-5.7446,0.7136,3.1369998,3.8001153,2.7196789,3.5155022000000002,-1
35,36,1583552598950,-5.9599,0.049799997,2.8690999,3.4295692000000004,1.5302588,2.9078155,-1
36,37,1583552598960,-6.304199700000001,-0.9116,2.2756,3.0971394,0.59312034,2.1374476000000002,-1
37,38,1583552598970,-6.62,-1.6697999,1.7469999999999999,2.8399446,0.049502514000000004,2.014826,-1
38,39,1583552598981,-6.9364,-1.9497,2.0059,2.3621578,-0.007259219399999999,2.394518,-1
39,40,1583552598991,-7.5667,-1.8118999,2.3679,1.5324613999999999,0.3315969,2.4235642000000004,-1
40,41,1583552599001,-8.496099000000001,-1.2317,2.231,0.5742444999999999,0.9110511999999998,1.9757048,-1
41,42,1583552599011,-9.408,-0.63949996,1.7366999,-0.044934377000000005,1.1151137,1.3418447,-1
42,43,1583552599022,-9.7687,-0.6559,1.0252,-0.10551726,0.5893088000000001,0.4613148,-1
43,44,1583552599032,-9.7494,-1.3052,0.20619999,0.041793186,-0.5098692,-0.3000605,-1
44,45,1583552599042,-9.495999000000001,-2.4013999,-0.34669998,0.86383754,-2.2539685,-0.8405659,-1
45,46,1583552599052,-8.6928,-3.6938998999999995,-0.7173,1.7985626000000001,-3.3519495000000004,-1.3404177,-1
46,47,1583552599062,-7.8089,-4.4951,-1.1178,2.3374688999999997,-3.7423290000000002,-1.6976900000000001,-1
47,48,1583552599072,-7.4119,-4.5506,-1.4011999,2.0330317,-3.5654166,-2.120688,-1
48,49,1583552599083,-7.933399700000001,-4.1418,-1.8118,1.0804267,-3.2206035,-2.4929577999999997,-1
49,50,1583552599093,-8.903999,-3.6286,-2.0595,0.42802579999999996,-3.058976,-2.36233,-1
50,51,1583552599104,-9.373099,-3.3904,-1.9885,0.91999596,-3.4309196,-2.815677,-1
51,52,1583552599114,-8.6531,-3.6873998999999995,-2.6775,2.6278088,-4.407036,-3.9966218000000002,-1
52,53,1583552599124,-6.7219996,-4.482199700000001,-3.9933,5.1651263,-5.6894565,-6.0249224,-1
53,54,1583552599134,-4.637,-5.2932997,-5.7626,6.3123510000000005,-6.6898594,-6.846382000000001,-1
54,55,1583552599144,-3.2603998,-6.2756996,-6.7218,7.021561599999999,-7.6582084,-6.930198700000001,-1
55,56,1583552599155,-2.7505,-6.7379,-6.7292,6.498457,-7.7784834,-5.603294,-1
56,57,1583552599165,-4.0994997,-6.4347997,-3.9936,5.618483,-7.8267503,-3.9881175000000004,-1
57,58,1583552599175,-3.9524,-6.273,-3.5698998,5.9321423,-7.937458500000001,-3.432404,-1
58,59,1583552599186,-2.2698998,-6.3002996,-4.6089,7.8080087,-8.34046,-4.563942400000001,-1
59,60,1583552599196,0.2042,-7.0028996,-6.7079997,10.225883999999999,-9.472735,-6.5679940000000006,-1
60,61,1583552599206,2.2709,-7.8566,-8.603,12.226595,-10.74081,-8.45022,-1
61,62,1583552599216,3.5238998,-8.6852,-10.016399,13.008157,-11.817597,-9.189521000000001,-1
62,63,1583552599226,3.6562,-9.4347,-9.281899000000001,12.865846000000001,-12.730919,-8.034883500000001,-1
63,64,1583552599237,3.4627,-9.7556,-7.8759,12.568544000000001,-13.091897,-6.596782000000001,-1
64,65,1583552599247,3.3676998999999994,-9.2088995,-7.2769,12.410748,-12.756584,-5.993281,-1
65,66,1583552599257,3.8112998,-8.4587,-7.6094,13.007755,-12.187223,-6.2579546,-1
66,67,1583552599268,4.8448,-8.0244,-8.0414,14.112038,-12.335817,-6.291387599999999,-1
67,68,1583552599278,6.3006,-8.4021,-7.692,15.379701,-13.038411,-5.6186074999999995,-1
68,69,1583552599288,7.4603,-8.800099000000001,-7.4041,16.052969,-13.722894,-5.514574,-1
69,70,1583552599298,7.836199799999999,-9.2982,-7.8661,16.111694,-14.577088,-6.1621385,-1
70,71,1583552599308,8.3652,-9.871699000000001,-9.1192,16.924526,-15.04205,-7.531613,-1
71,72,1583552599318,9.9175,-9.5765,-10.519199,18.48088,-14.800898000000002,-8.579066000000001,-1
72,73,1583552599329,11.4818,-9.0651,-10.8626995,19.58996,-14.432995000000002,-8.329514,-1
73,74,1583552599339,12.0296,-8.4045,-9.816999000000001,19.466343,-13.904144,-6.996777000000001,-1
74,75,1583552599349,11.1676,-7.8230996,-8.3074,18.115267000000003,-13.584375,-5.6053432999999995,-1
75,76,1583552599359,9.6686,-7.4719,-6.9606,16.496395,-13.249761,-4.244393,-1
76,77,1583552599369,8.7849,-7.0709995999999995,-5.9631,16.100967,-13.0491085,-3.6897519999999995,-1
77,78,1583552599379,8.780499,-6.6696,-5.4976997,16.431694,-12.667913,-3.5608866000000003,-1
78,79,1583552599390,9.3984995,-6.3655996,-5.5961,17.17921,-12.75734,-3.844025,-1
79,80,1583552599400,10.305099499999999,-6.5375,-5.8371,17.997578,-13.320600500000001,-4.0230440000000005,-1
80,81,1583552599410,11.1151,-7.107,-5.6864,18.655926,-13.760098999999999,-3.4499106,-1
81,82,1583552599420,11.6424,-7.1741996,-4.5325,18.661932,-13.602551,-2.161629,-1
82,83,1583552599430,10.8539,-6.8447,-2.6362,16.933020000000003,-13.223291,-0.12183613,-1
83,84,1583552599440,8.9745,-6.5243998,-0.9924,15.069191,-12.863749,1.1211759,-1
84,85,1583552599451,7.2219996,-6.240999700000001,0.17809999,13.794068,-12.594132,2.0227365,-1
85,86,1583552599461,6.3141,-6.0304,1.0731,13.678007000000001,-12.171499,2.712956,-1
86,87,1583552599471,6.5106997,-5.4634,1.8326,14.166013000000001,-11.347385000000001,3.5385056000000006,-1
87,88,1583552599481,6.8292,-4.7658997,2.8806,14.161492,-10.993188,4.4707694,-1
88,89,1583552599491,6.5302997000000005,-4.8454,3.8792998999999995,14.028402999999999,-11.318397500000001,5.327511,-1
89,90,1583552599501,6.4663,-5.3223,4.8666,14.2328005,-11.763374,5.896478,-1
90,91,1583552599511,6.5695,-5.8563,5.2788997,14.247693,-11.951731,5.964675,-1
91,92,1583552599521,6.3176,-5.9542,5.6148,13.725192000000002,-11.611716,6.451186,-1
92,93,1583552599531,5.3368998,-5.6583,6.3194,12.426491,-10.95602,7.00462,-1
93,94,1583552599542,4.1608,-5.2888,6.7065997,11.94564,-10.242883,6.8989787,-1
94,95,1583552599552,3.6978,-4.7588,6.5834,11.831628,-9.592963000000001,6.640156,-1
95,96,1583552599562,3.4222,-4.3381,6.4572997,11.5022135,-8.934251,6.800758999999999,-1
96,97,1583552599572,2.8831,-3.8906,6.8248997000000005,10.847238,-8.136637,7.4230695,-1
97,98,1583552599582,2.1297,-3.4085998999999996,7.5048,10.221536,-7.647923,7.4507270000000005,-1
98,99,1583552599592,1.3219999,-3.2133,7.5796,9.675419,-7.4546532999999995,7.399232400000001,-1
99,100,1583552599602,0.69839996,-3.2512999,7.7380996,9.370206,-7.0562005,7.584199000000001,-1
100,101,1583552599613,0.2993,-3.1179,7.9789,9.118508,-6.8756495,7.217780599999999,-1
101,102,1583552599623,-0.061499998,-3.2412999,7.586,8.713496000000001,-6.5723424,6.354939,-1
102,103,1583552599633,-0.5897,-3.1745,6.7258,8.336553,-6.303847,5.3316574,-1
103,104,1583552599644,-1.0304999,-3.2179,5.7195,8.323395,-6.283793,4.2674346,-1
104,105,1583552599654,-1.0603,-3.4668,4.857199700000001,8.810586,-5.8207545,4.481859,-1
105,106,1583552599664,-0.6504,-3.2375998,5.0467,9.10784,-5.3437433,5.200646400000001,-1
106,107,1583552599674,-0.41959998,-2.8903,5.8601,8.526882,-4.636103599999999,5.651322,-1
107,108,1583552599684,-1.0452,-2.5462,6.1984997,7.5430284,-4.002464,5.5436783,-1
108,109,1583552599694,-2.0844998,-2.1519,6.0955997,6.975736,-4.088789,5.4418,-1
109,110,1583552599704,-2.6929998,-2.4724998,6.0274,7.0793576,-4.563722,5.7787695,-1
110,111,1583552599714,-2.6172,-3.1601,6.3862996,7.139988400000001,-4.319236,5.343360400000001,-1
111,112,1583552599725,-2.5863,-3.1318998,5.9372997000000005,6.7703524,-3.5743419999999997,4.6322823,-1
112,113,1583552599735,-2.9847999,-2.5930998,5.1825,5.7633033,-2.9464676,4.0960484,-1
113,114,1583552599745,-5.192199700000001,-1.8246,4.089699700000001,4.442403,-2.2240794,3.634992,-1
114,115,1583552599755,-5.192199700000001,-1.8246,4.089699700000001,3.9799485,-1.3229784,3.7759720999999997,-1
115,116,1583552599765,-5.7556,-1.2533,4.121299700000001,3.7334318,-0.65887475,3.895031,-1
116,117,1583552599775,-6.4828,-0.0371,4.4103,3.2223558,0.16968188,3.9635625,-1
117,118,1583552599786,-7.0266,0.30069998,4.1640997,2.6640952,0.58086205,3.614756,-1
118,119,1583552599796,-7.3322,0.1134,3.8676,2.4542672999999997,0.5044295999999999,3.2966241999999997,-1
119,120,1583552599806,-7.2542,0.0401,3.6964998,2.556538,0.56470597,3.0282342,-1
120,121,1583552599816,-7.2542,0.0401,3.6964998,2.6006873,0.70469975,2.6272054,-1
121,122,1583552599826,-7.305299799999999,0.5262,2.7041,2.4086053,1.3520536,1.8560331,-1
122,123,1583552599836,-7.6208,1.0899,1.7982,2.0427425,1.9398109000000001,0.7927489000000001,-1
123,124,1583552599846,-8.113999,1.3909999,0.3047,1.565827,2.2211585,-0.8438412000000001,-1
124,125,1583552599856,-8.0584,1.4912,-1.185,1.8185878,2.3368653999999998,-2.287516,-1
125,126,1583552599866,-8.0584,1.4912,-1.185,2.5581758,2.342755,-2.9565902000000004,-1
126,127,1583552599876,-5.9558,0.94729996,-2.0032,4.040109999999999,1.5873749,-2.9279268,-1
127,128,1583552599887,-4.7804,0.045199998,-1.2594,5.133407599999999,0.58280617,-2.3056736,-1
128,129,1583552599898,-4.1637,-0.6968,-1.1531,5.5222073,0.10642706,-2.4924119,-1
129,130,1583552599908,-4.4129,-0.2758,-1.4451,5.019875,0.70678747,-2.9302156000000004,-1
130,131,1583552599918,-5.2247996,0.3023,-2.0186,4.2781224,1.1401284,-3.4571984,-1
131,132,1583552599928,-6.0783997,0.7224,-2.9248998,3.4305272000000007,1.5236604,-4.7122197,-1
132,133,1583552599938,-6.1770997,0.68039995,-4.1124,3.8161466,1.2352933000000001,-5.7208014,-1
133,134,1583552599948,-5.214299700000001,0.2487,-4.5197,4.979499,0.78254,-5.685434,-1
134,135,1583552599959,-3.4132,-0.36409998,-3.6754,7.025182000000001,-0.016539145,-4.63143,-1
135,136,1583552599969,-1.7355,-1.1017,-2.6817,8.1911,-0.57220465,-4.007788,-1
136,137,1583552599979,-1.1064,-1.3457,-2.1854,8.454655,-0.62269354,-3.6251376000000004,-1
137,138,1583552599989,-1.6078999,-1.077,-1.9720999,7.68193,-0.31101638,-3.573145,-1
138,139,1583552599999,-2.5245,-0.826,-2.2347999,6.8328795,0.058485555999999994,-4.1578093,-1
139,140,1583552600009,-2.8751,-0.5115,-2.7972,6.8855133,0.40583634,-4.6098914,-1
140,141,1583552600020,-2.5695999,-0.2932,-3.1148,7.382703299999999,0.38084087,-4.7805123,-1
141,142,1583552600030,-1.6745,-0.4764,-3.2049,8.643834,0.11171345,-4.859262,-1
142,143,1583552600040,-0.6595,-0.6441,-3.2110999,9.26217,0.011386823999999999,-4.838566999999999,-1
143,144,1583552600050,-0.0548,-0.7929999999999999,-3.033,9.804419000000001,-0.18268716,-4.5570564000000005,-1
144,145,1583552600060,0.2653,-0.8591,-2.6919,9.9406395,-0.13909353,-4.207484,-1
145,146,1583552600070,0.2696,-0.8429,-2.2965,9.838167,-0.19441876,-3.8672583,-1
146,147,1583552600081,0.0067999995999999995,-0.9019,-1.8779,9.395804,-0.05500918,-3.3184402000000004,-1
147,148,1583552600091,-0.3956,-0.62079996,-1.2873,9.026102,0.34085768,-2.7006595,-1
148,149,1583552600102,-0.6823,-0.289,-0.90309995,8.955492,0.7082335999999999,-2.8086187999999996,-1
149,150,1583552600112,-0.6462,0.0311,-1.1767,9.150524,0.9505746999999999,-3.3833422999999994,-1
150,151,1583552600122,-0.4335,0.2445,-1.8087,9.563495,1.0786741000000002,-3.8710123999999997,-1
151,152,1583552600132,0.0056,0.3773,-2.2261999,9.865317,1.1267496000000001,-3.9697492,-1
152,153,1583552600142,0.2504,0.4247,-2.2402,9.907072,0.9851278,-3.7152362,-1
153,154,1583552600153,0.25169998,0.2445,-1.9322,9.858595,0.67239714,-3.2841553999999995,-1
154,155,1583552600163,0.22469999,-0.0861,-1.4923999,9.961373,0.3113803,-2.8917072,-1
155,156,1583552600173,0.3742,-0.40019998,-1.063,10.20245,0.21333295,-2.5505430000000002,-1
156,157,1583552600183,0.5823,-0.42389998,-0.75479996,10.171383,0.36510617,-2.6056,-1
157,158,1583552600193,0.4955,-0.2652,-0.87399995,9.924924,0.49231490000000006,-2.772313,-1
158,159,1583552600203,0.2411,-0.1392,-0.99899995,9.644688,0.6717171999999999,-2.7283362999999996,-1
159,160,1583552600213,0.015099999499999999,0.0145,-0.9536,9.476499,0.73061454,-2.5795607999999994,d
160,161,1583552600224,-0.1821,0.061699998,-0.7546,9.439159,0.7533978,-2.3092363,-1
161,162,1583552600234,-0.1927,0.102199994,-0.4935,9.574067,0.7596515,-2.0113401,-1
162,163,1583552600244,-0.065,0.1073,-0.25509998,9.728427,0.7577361,-1.7393205000000003,-1
163,164,1583552600254,0.0929,0.115499996,0.038399998,9.767213,0.6865420999999999,-1.7114807,-1
164,165,1583552600264,0.13419999,0.049799997,0.0831,9.815814999999999,0.57629395,-1.9446568,-1
165,166,1583552600274,0.1847,-0.0475,-0.1502,10.099135,0.47271118,-2.2155464,-1
166,167,1583552600284,0.4703,-0.1415,-0.4039,10.246198,0.42069957,-2.4534245,-1
167,168,1583552600295,0.6081,-0.18769999,-0.64199996,10.376106,0.47080538,-2.494787,-1
168,169,1583552600305,0.74539995,-0.1197,-0.6685,10.446582000000001,0.5916264,-2.4038455,-1
169,170,1583552600315,0.8136,0.0028,-0.5907,10.3604,0.7043550000000001,-2.1878502,-1
170,171,1583552600325,0.7245,0.1214,-0.3696,10.099021,0.7992899,-2.036556,-1
171,172,1583552600335,0.46859998,0.2183,-0.2278,9.872596000000001,0.69378215,-2.1964502,-1
172,173,1583552600346,0.4551,-0.038399998,-0.7353,10.179283999999999,0.53462523,-2.592413,-1
173,174,1583552600356,0.97239995,-0.0253,-1.0778999,10.7162075,0.5209687,-2.9053732999999995,-1
174,175,1583552600368,1.5195999,-0.1486,-1.2314999,11.246944000000001,0.36002090000000003,-3.0199979999999997,-1
175,176,1583552600378,1.8902999,-0.2667,-1.1608,11.616675,0.314397,-2.8309424,-1
176,177,1583552600388,1.9570999,-0.1291,-0.8962,11.562118,0.43290039999999996,-2.6324632,-1
177,178,1583552600398,1.632,-0.050899997,-0.8777,11.1284895,0.49377057,-2.590488,-1
178,179,1583552600408,1.2689999,-0.0679,-0.7664,10.791127000000001,0.46329719999999996,-2.5056279,-1
179,180,1583552600418,1.2689999,-0.0679,-0.7664,10.701947,0.30301973,-2.5082326,-1
180,181,1583552600429,1.2219,-0.3718,-0.6022,11.022310000000001,0.23602039999999996,-2.2435777000000003,-1
181,182,1583552600439,1.6044999,-0.3708,-0.46719998,11.355957,0.24634421,-2.2215797999999998,-1
182,183,1583552600450,1.7989,-0.3987,-0.5484,11.512317999999999,0.20823808,-2.3092650000000003,-1
183,184,1583552600460,1.9236,-0.4358,-0.60609996,11.609437,0.19310674,-2.1960669999999998,-1
184,185,1583552600470,1.9199,-0.46379998,-0.41459998,11.499715,0.17778385,-2.0000682,-1
185,186,1583552600480,1.7391,-0.4843,-0.1982,11.303322999999999,0.16768031,-1.9125936000000001,-1
186,187,1583552600490,1.5775,-0.46829998,-0.45709997,11.126746,0.23222798,-2.465568,-1
187,188,1583552600501,1.3765,-0.41579998,-1.1403999,10.878055999999999,0.28592515,-3.0080942999999998,-1
188,189,1583552600510,1.1079,-0.3983,-1.5561,10.670784,0.36293226,-3.1327937,-1
189,190,1583552600520,0.9977,-0.3087,-1.5251,10.751717999999999,0.51827765,-2.7621427000000005,-1
190,191,1583552600530,1.0952,-0.1753,-0.9564,10.7202015,0.66767585,-1.9722283999999999,-1
191,192,1583552600540,0.9105,-0.1264,-0.1525,10.233564999999999,0.64018077,-1.2007496000000002,-1
192,193,1583552600551,0.3353,-0.25,0.5701,9.799679,0.5717449,-0.6704148,-1
193,194,1583552600561,-0.0925,-0.3053,1.0282,9.408322,0.61502254,-0.5028494000000001,-1
194,195,1583552600571,-0.3354,-0.3065,0.86109996,9.248151,0.6696582,-0.7954974,-1
195,196,1583552600581,-0.4333,-0.2823,0.6143,9.278575,0.71710175,-0.89303726,-1
196,197,1583552600592,-0.31669998,-0.22379999,0.5286,9.481383000000001,0.9348017,-0.9420033999999999,-1
197,198,1583552600602,-0.1505,-0.0652,0.42659998,9.536105000000001,1.0096061,-1.1992556,-1
198,199,1583552600612,-0.1399,-0.035099998,-0.030199998999999998,9.425369,1.0223528,-1.973052,-1
199,200,1583552600622,-0.2553,-0.067099996,-0.7158,9.343055999999999,1.0293343000000001,-2.4612107000000005,-1
200,201,1583552600632,-0.3204,-0.0642,-1.112,9.140344,1.1695483999999998,-2.3609223,-1
201,202,1583552600642,-0.6005,0.041699997999999995,-0.8709,8.687552,1.2420448,-1.5377191000000001,-1
202,203,1583552600653,-1.0569998999999999,0.035499997,0.052699998,8.294626,1.3010473999999999,-0.48715302,-1
203,204,1583552600663,-1.4054999,0.0585,1.0340999,8.160598,1.3680564,0.05744169,-1
204,205,1583552600673,-1.4502,0.0773,1.4296,8.365705499999999,1.3657962,0.16715358,-1
205,206,1583552600683,-1.2109999999999999,0.0444,1.4643999,8.493977000000001,1.3662846000000002,-0.130235,-1
206,207,1583552600693,-1.1392,-0.0016999998999999999,1.1662999,8.464815,1.0997814,-0.67980003,-1
207,208,1583552600704,-1.1664,-0.2796,0.6594,8.53508,0.95881075,-0.9570869000000001,-1
208,209,1583552600714,-1.0861,-0.43879998,0.3752,8.811696000000001,1.0052869,-1.0513514,-1
209,210,1583552600724,-0.72169995,-0.392,0.2554,9.11397,1.2316155,-1.1040813,-1
210,211,1583552600734,-0.5143,-0.20979999,0.1908,8.883417,1.4246458,-0.99544203,-1
211,212,1583552600744,-0.7377,-0.052199997000000005,0.29189998,8.410734,1.6726276000000002,-0.79278725,-1
212,213,1583552600754,-1.2054,0.15959999,0.4727,8.092153,1.9397438999999999,-0.6166505999999999,-1
213,214,1583552600765,-1.5238,0.3885,0.6337,7.905481299999999,2.0886633000000003,-0.43242157,-1
214,215,1583552600775,-1.7078999,0.5194,0.8167,7.723934,1.8067987,-0.22752577,-1
215,216,1583552600785,-1.8622999,0.2762,0.9806,7.8014584000000005,1.6101197,-0.12682566,-1
216,217,1583552600795,-1.3837999,-0.088599995,1.1579,8.349386,1.489749,-0.06744945,-1
217,218,1583552600806,-0.8588,-0.1265,1.146,8.848394,1.4502828,-0.06281428,-1
218,219,1583552600816,-0.8588,-0.1265,1.146,9.081044,1.4295778000000001,-0.21619642,-1
219,220,1583552600826,-0.4064,-0.078999996,0.6004,9.225368,1.4971421999999999,-0.6715926999999999,-1
220,221,1583552600836,-0.37829998,0.0187,0.079399996,9.241361,1.6120352,-1.1417373,-1
221,222,1583552600846,-0.3575,0.0994,-0.1564,9.256136999999999,1.6767265,-1.3484622,-1
222,223,1583552600856,-0.3349,0.1152,-0.2871,9.272964,1.7121128,-1.437565,-1
223,224,1583552600866,-0.3349,0.1152,-0.2871,9.282588,1.8091353,-1.2470726,-1
224,225,1583552600877,-0.6389,0.2821,0.299,8.905463000000001,1.9214331000000002,-0.80879,-1
225,226,1583552600887,-0.9382,0.39929998,0.77129996,8.627092999999999,2.0635147000000003,-0.33899024,-1
226,227,1583552600897,-1.1312,0.5232,1.1012,8.432666000000001,2.1976187,-0.085042045,-1
227,228,1583552600907,-1.2284,0.5098,1.0641999,8.382406,2.1485567000000003,-0.17879897,-1
228,229,1583552600917,-1.0138999,0.3897,0.7704,8.680284,2.0142130000000003,-0.5176072,d
229,230,1583552600927,-0.4477,0.2687,0.3012,9.276641,1.8638668,-1.019767,-1
230,231,1583552600938,-0.0185,0.13939999,-0.25259998,9.635598,1.7387363,-1.5347024,-1
231,232,1583552600948,-0.0094,0.0332,-0.48819998,9.55866,1.6028893,-1.7413508999999998,-1
232,233,1583552600958,-0.26319999,-0.1512,-0.59389997,9.268069,1.3919792,-1.7903361,-1
233,234,1583552600968,-0.4664,-0.22549999,-0.3838,9.042401,1.4078385,-1.521247,-1
234,235,1583552600979,-0.6983,-0.1572,-0.105,8.801813000000001,1.463834,-1.2975231000000003,-1
235,236,1583552600988,-0.9594,-0.1301,0.162,8.527361,1.5524003999999998,-0.8761916999999999,-1
236,237,1583552600998,-1.2799,0.0155,0.7011,8.229686000000001,1.7060028000000003,-0.51117164,-1
237,238,1583552601008,-1.8274,0.0585,0.863,7.5114149999999995,1.6392142,-0.41310513,-1
238,239,1583552601018,-2.3865,-0.2138,0.8154,7.0828433,1.2742323999999998,-0.60240984,-1
239,240,1583552601028,-2.5948,-0.53459996,0.3435,7.0500812999999996,1.0173345999999999,-1.1625572,-1
240,241,1583552601039,-2.4716,-0.6892,-0.23979999,7.1496515,0.9089155999999999,-1.6353833999999998,-1
241,242,1583552601049,-2.4175,-0.6656,-0.7170000000000001,7.1724442999999996,0.9642695,-2.0016866,-1
242,243,1583552601060,-2.5585,-0.2768,-0.4504,6.816608400000001,1.6338991000000003,-1.3567846000000001,-1
243,244,1583552601070,-3.1001,0.3256,0.2145,5.910786,2.2885218,-0.566765,-1
244,245,1583552601080,-4.2,0.94769996,1.0091,4.9027314,2.7561667,0.20208979,-1
245,246,1583552601090,-5.4962,1.4596,1.9951999,3.4892042,3.1591970000000003,1.1231008999999998,-1
246,247,1583552601100,-6.4505,1.5498999,2.3857,2.8334134,3.0243747,1.0901471,-1
247,248,1583552601110,-6.9354997,1.3464999,2.0252,2.6210093,2.6058302,0.3520147,-1
248,249,1583552601120,-6.9124,0.8641,1.1419,2.9755043999999997,2.050193,-0.6966648,-1
249,250,1583552601130,-6.4305997,0.4818,0.1184,3.4761894,1.8441195,-1.3513353000000001,-1
250,251,1583552601140,-5.7644,0.5232,-0.26459998,4.0951576,2.0472147,-1.2965752000000001,-1
251,252,1583552601150,-5.5994997,0.90819997,0.1423,3.7361519999999997,2.41076,-0.52884084,-1
252,253,1583552601160,-6.3276,1.3268,1.1115999,2.6096032000000005,2.6348476,0.65847254,-1
253,254,1583552601170,-7.5368,1.5665,2.2742,1.6714592000000001,2.7458525000000003,1.6699365000000002,-1
254,255,1583552601181,-8.1781,1.6983,2.9426,1.4811872,2.5955827,1.8314110000000001,-1
255,256,1583552601191,-8.152699,1.43,2.698,1.8126596000000001,1.7643542,1.0285394,-1
256,257,1583552601201,-7.6650996,0.4799,1.5712,2.573355,0.6207686,-0.22386743,-1
257,258,1583552601211,-6.7823997,-0.45279998,0.4644,3.5661633000000004,-0.22686498,-0.94475204,-1
258,259,1583552601221,-5.7689,-0.98569995,0.21499999,4.5296283,-0.81132793,-0.33500630000000003,-1
259,260,1583552601232,-5.1447,-1.2048,0.99869996,4.5802226,-1.1146061,0.5264179,-1
260,261,1583552601242,-5.2156997,-1.3869999999999998,1.8197999,4.3989720000000005,-1.2905226,1.030675,-1
261,262,1583552601252,-5.4831,-1.265,2.2644,3.83101,-0.82032055,1.1662636,-1
262,263,1583552601263,-6.065,-0.5760000000000001,2.2775,3.3027724999999997,-0.7122175000000001,1.223868,-1
263,264,1583552601273,-6.634999799999999,-0.6087,2.3007,3.188205,-1.3631339,0.9280212999999999,-1
264,265,1583552601283,-6.4463,-1.0514,1.8163999,4.2280644999999994,-2.3756707,0.15206054,-1
265,266,1583552601293,-5.1721997,-1.9683,1.0012,6.265070400000001,-3.9045023999999997,-0.792816,-1
266,267,1583552601303,-2.9973998,-3.2656999,0.0265,8.453505,-4.8964105,-1.7068743000000002,-1
267,268,1583552601313,-0.91319996,-3.8313,-0.92759997,9.465937,-5.193741999999999,-2.5878446,-1
268,269,1583552601324,-0.18769999,-3.8314,-1.6532999,8.805912,-4.9250164000000005,-1.7976623999999999,-1
269,270,1583552601334,-0.83529997,-3.3504,-0.80759996,7.2920869999999995,-4.4517690000000005,0.52165824,-1
270,271,1583552601344,-2.3179998,-2.7066998,1.4655,5.408166400000001,-4.369130999999999,2.7069992999999997,-1
271,272,1583552601354,-4.1828,-2.4591,3.6086998,4.7389874,-4.8772187,3.3392699,-1
272,273,1583552601364,-4.8160996,-2.7746,4.158,6.015556299999999,-5.785387,2.0315090000000002,-1
273,274,1583552601374,-3.4843,-3.4350998,2.7512999,8.5620575,-6.958709,0.41348820000000003,-1
274,275,1583552601385,-0.8684,-4.3167,0.99799997,10.913174,-8.264344,-0.50508076,-1
275,276,1583552601395,1.5588,-5.3171,-0.0071,12.022609,-8.894680000000001,-0.72965693,-1
276,277,1583552601405,2.6064,-5.3343997000000005,-0.6429,11.567404,-8.697474,-0.9674969000000001,-1
277,278,1583552601416,1.4681,-4.2839,0.1358,10.274046,-7.803412,0.19418892,-1
278,279,1583552601426,1.4681,-4.2839,0.1358,8.892506,-7.057149000000001,2.090119,-1
279,280,1583552601437,0.1854,-3.1102998,1.8892,8.373558000000001,-6.878292599999999,3.1806874,-1
280,281,1583552601447,-0.0088,-2.9101999,3.0965,9.166546,-7.592262700000001,2.8722662999999997,-1
281,282,1583552601457,1.6291,-3.8207998,2.0256998999999998,10.628810000000001,-8.688356,1.9048653000000002,-1
282,283,1583552601467,3.4754,-4.7239,0.6371,12.25201,-9.870115,0.6204334,-1
283,284,1583552601477,4.6668,-5.4235,-0.3629,13.060102,-10.751679,-0.17091727,-1
284,285,1583552601487,4.7221,-5.8173,-0.5743,12.758797,-11.429144,-0.1614075,-1
285,286,1583552601498,4.3325,-6.2538,-0.0042,12.219431,-11.989865,1.0416884,-1
286,287,1583552601508,4.3707,-5.8968,1.6316998999999999,12.134552000000001,-11.652139,2.8369663,-1
287,288,1583552601518,4.3094,-5.2914,2.9399,11.9328165,-11.337100999999999,3.6402400000000004,-1
288,289,1583552601528,4.4846,-4.7084,2.4343998,12.165725,-10.797601,2.5297327000000003,-1
289,290,1583552601538,5.3315,-4.121299700000001,0.6854,13.012016000000001,-10.608449,0.8287959999999999,-1
290,291,1583552601548,6.3471,-4.0294,-0.84639996,13.760981,-10.78519,-0.25903347,-1
291,292,1583552601558,6.9638995999999995,-4.0263,-1.3622,13.905857999999998,-11.042508999999999,-0.50121176,-1
292,293,1583552601569,6.7532997,-4.3925,-1.23,13.249494,-11.678868,-0.12751518,-1
293,294,1583552601579,6.0466,-5.032099700000001,-0.4376,12.488109,-12.460335,0.74287295,-1
294,295,1583552601589,5.66,-5.4135,0.1462,12.181564,-12.691577,0.8935927,-1
295,296,1583552601599,5.8132997,-5.2886,-0.3199,12.438117,-12.570611999999999,-0.044838607,-1
296,297,1583552601609,6.4572,-4.8821,-1.7472999,13.050189999999999,-12.093812,-1.7163074,-1
297,298,1583552601619,7.0792,-4.1839,-3.2891998,13.445529999999998,-11.492752000000001,-2.9132648,-1
298,299,1583552601629,7.2553997,-3.4889,-3.5674998999999996,13.077656,-10.683311,-2.546176,-1
299,300,1583552601639,6.515,-2.7673,-2.8125,12.064478999999999,-10.173222,-1.7949522,-1
300,301,1583552601649,5.0878997,-2.1144,-1.8625,10.567537,-9.632285000000001,-0.9763459000000001,-1
301,302,1583552601659,3.8665998,-1.7285999,-1.1965,9.573426,-9.536996,-0.40677488,-1
302,303,1583552601669,3.4561,-2.0165,-0.805,9.528722,-10.003013000000001,-0.15685852,-1
303,304,1583552601679,3.8065998999999997,-2.1845,-0.83339995,9.744314,-9.993321,-0.2611308,-1
304,305,1583552601689,4.0278997,-1.9344,-1.1525999,9.744181,-9.782555,-0.5548609999999999,-1
305,306,1583552601700,3.6292998999999995,-1.724,-1.2132,9.106786999999999,-9.5301485,-0.38863638,-1
306,307,1583552601710,2.9108,-1.4271,-0.9043,8.380184,-9.215961,0.060324308,-1
307,308,1583552601720,2.3746998,-1.0116999,-0.43629998,7.785283,-8.808525999999999,0.5785349,-1
308,309,1583552601730,1.9077,-0.7687,-0.2304,7.382836999999999,-8.514624000000001,0.5688432,-1
309,310,1583552601740,1.5722,-0.3919,-0.3214,7.094163000000001,-8.125873,0.3932237,-1
310,311,1583552601750,1.3622999,-0.0455,-0.5566,6.9721836999999995,-7.8712735,0.21976857,-1
311,312,1583552601761,1.2336999,0.1946,-0.6576,6.735167,-7.690568400000001,0.31251994,-1
312,313,1583552601771,0.91359997,0.3242,-0.46499997,6.3660197,-7.7066097000000005,0.53592765,-1
313,314,1583552601781,0.5966,0.1223,-0.32389998,6.2528505,-8.152132,0.41348820000000003,-1
314,315,1583552601791,0.7134,-0.3725,-0.677,6.649138499999999,-8.512163000000001,0.027140671,-1
315,316,1583552601801,1.2337999,-0.5434,-0.8792,7.082115700000001,-8.502098,0.1501356,-1
316,317,1583552601811,1.515,-0.4816,-0.6878,7.0720410000000005,-8.475425999999999,0.25952187,-1
317,318,1583552601821,1.2976999,-0.4937,-0.6692,6.671644000000001,-8.417755,0.27131096,-1
318,319,1583552601832,0.9165,-0.31399998,-0.6155,6.3161817000000005,-8.058453,0.5919041,-1
319,320,1583552601842,0.5819,-0.0273,-0.2304,6.0419884,-7.8850926999999995,1.0660998,-1
320,321,1583552601852,0.25849998,0.1431,0.3936,5.756322,-7.816992,1.5634233999999998,-1
321,322,1583552601862,0.0591,0.1408,0.62909997,5.751696,-7.992927000000001,1.4176546,d
322,323,1583552601872,0.1235,-0.08249999599999999,0.3884,6.0673957000000005,-8.180921000000001,0.8032451,-1
323,324,1583552601883,0.5189,-0.2339,-0.3383,6.6484303,-8.313176,0.10649409,-1
324,325,1583552601893,1.1324999,-0.3552,-1.0038999,7.174896,-8.465438,-0.2823913,-1
325,326,1583552601903,1.6322999,-0.5287,-1.3363,7.444780000000001,-8.597864999999999,-0.2277652,-1
326,327,1583552601913,1.8345,-0.64,-1.2049,7.4412460000000005,-8.731644000000001,0.17521726,-1
327,328,1583552601923,1.7468,-0.78819996,-0.74399996,7.153932000000001,-8.779451,0.7325204000000001,-1
328,329,1583552601933,1.3923,-0.8056,-0.15879999,6.6531515,-8.724260000000001,1.1878496,-1
329,330,1583552601944,0.8286,-0.80619997,0.27789998,6.2700315,-8.855203999999999,1.4902756000000001,-1
330,331,1583552601954,0.5155,-0.97179997,0.6008,6.506856,-8.963671000000001,1.56825,-1
331,332,1583552601964,0.7538,-1.063,0.62509996,7.1142554,-9.012829,1.2970347,-1
332,333,1583552601974,1.3475,-1.119,0.3196,7.588058500000001,-9.155111,0.8879328000000002,-1
333,334,1583552601984,1.9675,-1.3211,-0.2592,8.385719,-9.373041,0.041007884,-1
334,335,1583552601995,2.6243,-1.4936999,-1.0382999,9.033189,-9.374832000000001,-0.57311445,-1
335,336,1583552602005,3.2624998,-1.5066998999999999,-1.6725,9.370925,-9.529919,-0.8759809999999999,-1
336,337,1583552602015,3.5821,-1.6848999,-2.0036,9.378663000000001,-9.635598,-0.51406384,-1
337,338,1583552602025,3.5525,-1.8231,-1.6487,9.018374,-10.017330000000001,0.28221893,-1
338,339,1583552602036,3.1286,-2.2337,-0.87,8.826138499999999,-10.332196000000001,1.0162524,-1
339,340,1583552602046,3.1948,-2.6819,0.047399998,9.309939,-10.384514999999999,1.1637927,-1
340,341,1583552602056,3.1948,-2.6819,0.047399998,10.071066,-10.3387375,0.674121,-1
341,342,1583552602066,4.6064997000000005,-2.5719,-1.0855,10.871466999999999,-10.126783,-0.022064961,-1
342,343,1583552602076,5.2967,-2.4048998,-1.7987,11.559378,-9.908021000000002,-0.6870400999999999,-1
343,344,1583552602086,5.7191,-2.2177,-2.2143,11.985269,-9.659416,-1.0038409,-1
344,345,1583552602097,5.6728997,-2.0627,-2.3058999,11.923536,-9.485789,-1.0760021,-1
345,346,1583552602107,5.2353,-2.2651,-2.2670999,11.595396000000001,-9.689468,-1.0573466,-1
346,347,1583552602117,5.1259,-2.5872998,-2.0059,11.709073,-9.828696,-0.7614232,-1
347,348,1583552602127,5.4483,-2.6136,-1.4706999,12.216836,-9.73945,-0.34105882,-1
348,349,1583552602137,5.7448997,-2.6676998,-1.0131,12.616035,-9.683387,0.18638381,-1
349,350,1583552602147,5.7806997,-2.7612,-0.2564,12.704582,-9.642906,0.72582614,-1
350,351,1583552602158,5.5768,-2.7675,0.28399998,12.607722,-9.508955,0.9965146999999999,-1
351,352,1583552602168,5.3128,-2.8028,0.0827,12.563842,-9.454252,0.44435424,-1
352,353,1583552602178,5.2282,-3.0304,-0.2949,12.667023,-9.555354,-0.0875799,-1
353,354,1583552602188,5.2948,-3.3116999,-0.7517,12.873,-9.686634,-0.6872604,-1
354,355,1583552602198,5.3252997,-3.6283998,-1.1636,12.970445,-9.842783,-1.0238181,-1
355,356,1583552602208,5.1598,-3.8374998999999996,-0.90449995,12.905188,-9.834777,-0.7283353,-1
356,357,1583552602219,4.6981997,-4.0302997000000005,-0.1147,12.3842,-9.808603,0.06483498,-1
357,358,1583552602229,3.9011,-4.0018,0.46899998,11.636022,-9.418876,0.48541963,-1
358,359,1583552602239,2.9369,-3.6915,0.8585,10.796883,-8.875583,0.72673595,-1
359,360,1583552602249,2.0244,-3.3601,1.1274998999999999,10.247931,-8.440116,0.9154278,-1
360,361,1583552602260,1.4951,-3.0760999,1.298,9.904017,-7.706226299999999,0.8761916999999999,-1
361,362,1583552602270,1.3183,-2.7735999,1.1973,9.956996,-7.239845799999999,0.720195,-1
362,363,1583552602280,1.2123,-2.5277,1.1494,9.704533,-6.7623076,0.5781135000000001,-1
363,364,1583552602290,0.6717,-2.2974,1.1802,9.063642999999999,-6.340392,0.68522054,-1
364,365,1583552602301,-0.1563,-2.0923998,1.5820999,8.324869,-5.79234,1.3389333,-1
365,366,1583552602311,-0.87829995,-1.8005999,2.5204,8.031493,-5.521278400000001,2.2412026000000003,-1
366,367,1583552602321,-1.0123,-1.9154999,3.4559998999999997,8.149469,-5.430796599999999,2.7432091,-1
367,368,1583552602331,-1.0105,-1.9933,3.783,8.066036,-5.186291000000001,2.5916371,-1
368,369,1583552602341,-1.2171,-1.9856999,3.5746,7.8624339999999995,-4.9151235,2.1188016,-1
369,370,1583552602351,-1.456,-1.9245,3.1358,7.913162,-4.5423083,1.2563908000000001,-1
370,371,1583552602361,-1.403,-1.7314,2.2498999,8.107178999999999,-4.15372,0.46394840000000004,-1
371,372,1583552602371,-1.1755999,-1.4175999,1.5022999,8.344205,-3.5928828999999998,0.03863284,-1
372,373,1583552602381,-1.0598,-1.1262,1.4216,8.293534,-3.2475336,0.24598029999999999,-1
373,374,1583552602391,-1.3518,-1.0382999,1.8906,7.6463428,-2.9256474999999997,0.90133077,-1
374,375,1583552602401,-2.3569,-0.88979995,2.8313,6.2614980000000005,-2.5083477000000003,1.9941881000000001,-1
375,376,1583552602411,-3.8983,-0.6953,4.1006,4.5583777,-2.0311449,3.478296,-1
376,377,1583552602422,-5.2393,-0.52889997,5.2727,3.8065027999999996,-1.7252139,3.811253,-1
377,378,1583552602432,-5.9665,-0.39159998,5.3673,3.7725053,-1.481398,3.0384047,-1
378,379,1583552602442,-5.6577,-0.34989998,4.4702,4.948844,-1.2797583000000001,1.6178865,-1
379,380,1583552602452,-4.3719,-0.2751,2.9922,6.3765730000000005,-1.4459636999999999,0.12354081,-1
380,381,1583552602463,-2.9943,-0.5819,1.6301999,7.2600240000000005,-1.6336787,-0.55329996,-1
381,382,1583552602473,-2.1155999,-0.84919995,0.9334,7.563158500000001,-1.8218534,-1.0364883,-1
382,383,1583552602484,-2.1515,-1.0834,0.6968,6.8763003,-1.8734148999999998,-0.7034548,-1
383,384,1583552602494,-2.9991,-1.1645,1.2150999,5.295725,-1.5073128,0.5537501,-1
384,385,1583552602505,-4.3497,-0.9069,2.2638,3.7554300000000005,-0.80465287,1.0994749,-1
385,386,1583552602515,-5.895,-0.32259998,2.8163,2.6599197,-0.31655174,1.1390271,-1
386,387,1583552602525,-7.257899799999999,0.1026,2.9761,2.455522,-0.20406261,1.1699603,-1
387,388,1583552602535,-7.257899799999999,0.1026,2.9761,2.9597504,-0.30091283,0.72734886,-1
388,389,1583552602545,-6.1636996,-0.1143,2.313,3.6974902000000003,-0.42045057,0.43724826,-1
389,390,1583552602556,-6.1636996,-0.1143,2.313,4.199602,-0.7597281,0.48346594,-1
390,391,1583552602566,-4.5703,-1.0037999,2.5138,5.292584,-1.284968,0.5436562,-1
391,392,1583552602577,-3.8727998999999995,-0.8735,2.2646,5.8392669999999995,-1.01925,0.21707748,-1
392,393,1583552602587,-3.6395,-0.33179998,1.5984,5.922077,-0.45861414,-0.5036347,-1
393,394,1583552602597,-4.268399700000001,0.108399995,1.0257,4.9584779999999995,-0.042999864000000006,-0.77258015,-1
394,395,1583552602609,-5.1763997,0.0682,1.9114,4.1706223,-0.20030849,0.5832946,-1
395,396,1583552602619,-5.6549997,-0.146,3.5886,3.946085,-0.4086998,2.2198656000000003,-1
396,397,1583552602629,-5.499399700000001,-0.4109,4.8908997,4.2909074,-0.6177519,2.7429507,-1
397,398,1583552602639,-4.946399700000001,-0.493,4.0919,4.9229383,-0.6534543,0.54360825,-1
398,399,1583552602649,-4.4871,-0.4612,1.8725,5.3585486,-0.7328364,-2.0905402,-1
399,400,1583552602660,-3.819,-0.5412,-0.9029,6.156776,-0.8432474,-5.257954,-1
400,401,1583552602670,-3.0432,-0.4526,-3.7744,6.7972155,-0.5882936,-7.2492600000000005,-1
401,402,1583552602680,-2.4092999,-0.046699997,-4.7051997000000005,7.380232,-0.06677908,-6.783645,-1
402,403,1583552602690,-1.8786999,0.498,-3.3102998999999995,7.5941205,0.30392954,-4.5633099999999995,-1
403,404,1583552602700,-1.9190999,0.6796,-0.87189996,7.1561637000000005,0.33935416,-2.7672088,-1
404,405,1583552602710,-2.5463998,0.6293,0.19909999,6.3610587,0.21157081,-2.9919956,-1
405,406,1583552602721,-3.2700999,0.3955,-0.44329998,5.991777,0.014738706,-3.6721593999999995,-1
406,407,1583552602731,-3.2115998,0.21419999,-0.86109996,6.60181,-0.12741941,-3.7410455000000002,-1
407,408,1583552602741,-2.323,0.1383,-0.6357,7.688969,-0.20012653,-3.6864578999999997,-1
408,409,1583552602751,-1.2112,0.0747,-0.7136,8.637897,-0.31173465,-4.137554,-1
409,410,1583552602761,-0.38979998,0.0,-1.3309,9.211672,-0.37853286,-4.847291,-1
410,411,1583552602771,-0.0307,-0.092999995,-1.8822,9.233813,-0.5361001,-5.170585,-1
411,412,1583552602782,-0.16059999,-0.3331,-2.1245,9.085986,-0.73952097,-5.1037965,-1
412,413,1583552602792,-0.2048,-0.4193,-1.6574999,9.115166,-0.70906675,-4.2580204,-1
413,414,1583552602802,-0.15169999,-0.3953,-0.99609995,9.146214500000001,-0.669687,-4.226168599999999,-1
414,415,1583552602812,-0.13669999,-0.3637,-1.1945,9.15537,-0.48473006,-4.8782625,-1
415,416,1583552602822,-0.1095,-0.1938,-1.7392,9.214057,-0.34080023,-5.1076846,-1
416,417,1583552602832,-0.0218,-0.0427,-1.829,9.256655,-0.20105548,-4.892024500000001,-1
417,418,1583552602842,0.0072,-0.029299999,-1.5455999,9.236151,-0.26610115,-4.516269,-1
418,419,1583552602852,-0.0133,-0.1236,-1.1173999,9.216776,-0.27708575,-4.167089,-1
419,420,1583552602862,-0.0053999997,-0.1182,-0.71209997,9.301751,-0.25979963,-4.0205927,-1
420,421,1583552602872,0.1085,-0.1766,-0.6847,9.464883,-0.3496588,-4.130351999999999,-1
421,422,1583552602882,0.327,-0.2979,-0.80399996,9.686509,-0.43149263,-4.191452,-1
422,423,1583552602892,0.4655,-0.31829998,-0.82009995,9.633032,-0.31093976,-4.26595,-1
423,424,1583552602903,0.3891,-0.20289999,-0.922,9.458888,-0.23356874,-4.4135480000000005,-1
424,425,1583552602913,0.19669999,-0.1582,-1.0490000000000002,9.248744,-0.19865170000000001,-4.524792,-1
425,426,1583552602924,0.0149,-0.13329999,-1.1542,9.287377000000001,-0.09257899,-4.816061,-1
426,427,1583552602935,0.1267,-0.015899998999999998,-1.4081,9.617422,-0.006157887,-4.8158407,-1
427,428,1583552602945,0.53,0.0963,-1.1790999,9.713344000000001,0.08253292,-4.533047,-1
428,429,1583552602956,0.2528,0.1344,-0.7644,9.376374,0.11362881,-4.051142700000001,-1
429,430,1583552602966,-0.19999999,0.0256,-0.1418,8.967817,-0.07500555,-3.4436474,-1
430,431,1583552602976,-0.2096,-0.20709999,0.1627,9.073853,-0.26407087,-3.231502,-1
431,432,1583552602986,0.28309998,-0.2391,-0.0365,9.58896,-0.2777274,-3.5290341,-1
432,433,1583552602996,0.7277,-0.153,-0.5081,9.992813,-0.19092321,-4.018543,d
433,434,1583552603006,0.87729996,-0.1512,-1.0113,10.074877,-0.21330422,-4.4912925,-1
434,435,1583552603016,0.87729996,-0.1512,-1.0113,9.931216000000001,-0.17611748,-4.426515,-1
435,436,1583552603026,0.30769998,0.0034999999,-0.6798,9.400824,-0.022955606,-4.052531200000001,-1
436,437,1583552603036,-0.1854,0.0064999997,-0.5013,8.976197,0.01133894,-3.8847456,-1
437,438,1583552603046,-0.30589998,0.0717,-0.35189998,8.923055999999999,0.11611878,-3.7333937000000006,-1
438,439,1583552603056,-0.081599995,0.1347,-0.3848,9.190449000000001,0.13219824,-3.8115690000000004,-1
439,440,1583552603066,0.2917,-0.050499998,-0.5887,9.605087,-0.10219411,-4.032573,-1
440,441,1583552603077,0.7862,-0.3804,-0.9501,10.086063000000001,-0.45343307,-4.471995400000001,-1
441,442,1583552603087,1.2717999,-0.8006,-1.5444,10.540453999999999,-0.8644216999999998,-5.0810227,-1
442,443,1583552603097,1.5112,-1.0232999,-1.9554,10.716294,-1.0361434,-5.4728769999999995,-1
443,444,1583552603107,1.4137,-1.0517,-2.4542,10.540837,-1.0050093,-6.0111419999999995,-1
444,445,1583552603117,1.4137,-1.0517,-2.4542,10.172542,-0.93205315,-6.3546805,-1
445,446,1583552603127,0.47169998,-0.893,-2.9636998,9.593403,-0.7824346999999999,-6.3487334,-1
446,447,1583552603137,0.1409,-0.8556,-2.9259,9.313004,-0.7635205,-6.336676000000001,-1
447,448,1583552603147,0.1409,-0.8556,-2.9259,9.441295,-0.8987450000000001,-6.348705000000001,-1
448,449,1583552603157,0.6314,-1.2563,-2.9366999,9.958855,-1.0821792,-6.315741,-1
449,450,1583552603167,1.1115,-1.4656,-3.3716,10.406483999999999,-1.2763585,-6.910365,-1
450,451,1583552603177,1.298,-1.7334,-4.5113,10.498249000000001,-1.4963856000000002,-8.115999,-1
451,452,1583552603187,1.0698,-1.9578999,-5.542000000000001,10.2294655,-1.6946447,-8.981541,-1
452,453,1583552603198,0.7288,-2.1055,-5.5683,9.9076185,-1.7332296000000003,-8.738989,-1
453,454,1583552603208,0.3451,-2.0,-4.7829,9.312391,-1.5162479,-7.777487799999999,-1
454,455,1583552603218,-0.2769,-1.8518,-4.2637997,8.826751,-1.2147605,-7.2958703,-1
455,456,1583552603228,-0.5791,-1.515,-3.9833998999999998,8.615641,-0.902116,-7.1638155,-1
456,457,1583552603238,-0.81619996,-1.5715,-4.1261997,8.416625,-1.0722002,-7.202735400000001,-1
457,458,1583552603248,-0.9564,-1.895,-4.0779,8.326861,-1.3162268,-7.002255,-1
458,459,1583552603259,-1.0210999,-2.0963,-3.9652998,8.326153,-1.4098209,-6.809597999999999,-1
459,460,1583552603269,-1.036,-2.1729,-3.9348998,8.3229065,-1.3919122,-6.7858089999999995,-1
460,461,1583552603279,-1.0717,-2.1081998,-3.9539999999999997,8.260110000000001,-1.189449,-6.572141,-1
461,462,1583552603289,-1.2127,-1.9943,-3.6466,8.0270405,-1.0710796,-6.1294723,-1
462,463,1583552603300,-1.5375999,-2.0370998,-3.3274998999999994,7.6613307,-1.1009018,-5.8402624,-1
463,464,1583552603310,-2.0862,-2.1259,-2.9294,6.9458470000000005,-1.1224496000000002,-5.1924105,-1
464,465,1583552603320,-2.7122998,-2.2258,-2.4833,6.4302225,-1.0497136999999999,-4.820208,-1
465,466,1583552603330,-3.1438,-2.1338,-2.1625,6.1265707,-0.8433624,-4.264849,-1
466,467,1583552603341,-3.3913,-2.003,-1.6051999,5.9956555,-0.64608014,-3.5921644999999995,-1
467,468,1583552603351,-3.4931997999999997,-1.8619,-1.0926,5.992189,-0.43127233,-3.1516217999999996,-1
468,469,1583552603361,-3.4292998,-1.6811999,-0.84639996,6.1396623,-0.22769816,-3.0385005,-1
469,470,1583552603371,-3.2956,-1.5613999,-0.9975,6.266066599999999,-0.20923407,-3.3463469,-1
470,471,1583552603381,-3.1999,-1.6832,-1.4480000000000002,6.3214874000000005,-0.35264677,-3.5134525,-1
471,472,1583552603391,-3.2203999,-1.8855,-1.4063,6.1577720000000005,-0.7533499,-3.0052307000000003,-1
472,473,1583552603402,-3.3864,-2.2996,-0.9729,6.0335126,-0.8224370000000001,-2.2065248,-1
473,474,1583552603412,-3.4919998999999997,-2.2981,-0.1978,5.950166,-0.46434107,-1.1970338,-1
474,475,1583552603422,-3.6453998,-1.9568,0.72389996,5.441139,-0.09260772,-0.34534925,-1
475,476,1583552603432,-4.2490997,-1.6638,1.4882,4.754721599999999,0.15343003,0.25268406,-1
476,477,1583552603442,-5.1182,-1.402,2.0555,4.0028562999999995,0.5827296,0.82093346,-1
477,478,1583552603452,-5.5785,-1.1018,2.3451998,3.9520607000000005,0.62141985,0.8816025,-1
478,479,1583552603462,-5.5431,-1.1192,2.2384,4.414525,0.46899540000000006,0.5873168000000001,-1
479,480,1583552603472,-5.0498,-1.2692,1.8019999,5.032449199999999,0.22375251,0.27914476,-1
480,481,1583552603482,-4.2139,-1.6387,1.4627,5.747224,-0.15758635,0.33535105,-1
481,482,1583552603492,-3.4269,-1.8549999,2.0091,6.4988980000000005,-0.24598029999999999,1.9149783,-1
482,483,1583552603503,-3.1301,-1.7406,3.3112,6.166506,0.23996605,3.8250437000000006,-1
483,484,1583552603513,-3.6766998999999996,-1.1330999,5.2304997,4.764289,0.7640568,5.5226383000000006,-1
484,485,1583552603524,-5.2565,-0.649,6.5365,2.7953360000000003,1.0017053,6.1492963,-1
485,486,1583552603534,-6.8887,-0.4373,6.8801,2.1218757999999998,1.1632468999999999,6.483469,-1
486,487,1583552603544,-7.5839996,-0.2042,7.0827,2.9283767000000003,1.1366329,6.5154657,-1
487,488,1583552603554,-6.7995996,-0.1345,7.0105996,4.2099357,0.9733483,6.428154,-1
488,489,1583552603564,-5.2214,-0.239,6.8338,5.706503,0.5726739000000001,6.5615973,-1
489,490,1583552603574,-3.7884998,-0.52239996,6.9772997000000005,6.9021006,0.026364949,7.270347599999999,-1
490,491,1583552603585,-2.8841,-1.1736,8.4169,6.822315700000001,-0.6010978,8.292222,-1
491,492,1583552603596,-2.8841,-1.1736,8.4169,6.3881707,-0.9720363000000001,8.803509,-1
492,493,1583552603605,-3.4034,-1.5203999,9.0441,5.928714,-1.1107084999999999,9.38481,-1
493,494,1583552603615,-3.8716998,-1.5258,9.5882,6.16256,-1.0558143,9.647953,-1
494,495,1583552603625,-3.6519999999999997,-1.337,9.8167,7.1187663,-0.8763832,9.072857,-1
495,496,1583552603635,-2.6949,-0.99649996,9.1978,8.485443,-0.8857396999999999,8.222224,-1
496,497,1583552603646,-1.3233,-0.8376,8.303599,9.830956,-1.0445136000000002,7.346234299999999,-1
497,498,1583552603656,0.7331,-0.89339995,7.2521,10.588903,-1.3607396999999999,7.293667299999999,-1
498,499,1583552603666,0.5444,-1.2455,7.8234,10.085325,-2.0457687,8.060884,-1
499,500,1583552603676,-0.4272,-1.8083999,8.7598,9.034616,-2.6649667999999997,9.036464,-1
500,501,1583552603687,-1.2012,-2.0437,9.6755,8.51605,-2.908591,9.79261,-1
501,502,1583552603697,-1.2012,-2.0437,9.6755,8.771052000000001,-2.8127656,10.045238000000001,-1
502,503,1583552603707,-0.2987,-1.3327,9.5675,9.621185,-2.4114687000000004,9.44095,-1
503,504,1583552603717,0.4869,-1.0962,8.5486,10.50435,-2.5162868,8.056221,-1
504,505,1583552603728,1.2077,-1.2279,7.2419,11.10946,-2.8479509999999997,7.024195,-1
505,506,1583552603738,1.5682,-1.5097,6.8290997,11.217917,-3.4150126000000003,7.011553999999999,-1
506,507,1583552603748,1.3316,-2.0562,7.0976,10.869935,-4.000462000000001,7.201461999999999,-1
507,508,1583552603758,1.3316,-2.0562,7.0976,10.277358999999999,-4.8491683,7.0845485,-1
508,509,1583552603769,0.69439995,-3.0856,6.782,10.4802065,-5.3412533,6.5185113,-1
509,510,1583552603779,1.433,-3.3135998,5.808399700000001,11.190221000000001,-5.576307,5.572858999999999,-1
510,511,1583552603789,2.4686,-3.128,4.4121,12.42787,-5.3942227,3.9296606,-1
511,512,1583552603799,3.3881997999999998,-2.6903,3.3062,13.013368,-5.1108065,3.101219,-1
512,513,1583552603809,3.543,-2.3781,3.0045,12.780114,-5.0665045,3.2445455,-1
513,514,1583552603820,2.8637998,-2.4861999,3.7540998,11.678225999999999,-5.7293916,4.483047,-1
514,515,1583552603830,1.8615999,-3.2164,4.8578,10.623446000000001,-6.7427807,5.4684715,-1
515,516,1583552603840,0.9891,-4.1028,5.4751997,10.183268,-7.6495795,5.2416544,-1
516,517,1583552603850,1.0624,-4.6995997,4.500099700000001,10.985258,-8.026216499999999,3.5614038,-1
517,518,1583552603861,2.3374999,-4.7306,2.4506,12.50504,-8.031628,1.4464713,-1
518,519,1583552603872,3.8892998999999997,-4.5569997,0.3265,13.863913,-7.788759,-0.5201068,-1
519,520,1583552603882,4.8289,-4.1431,-1.0796,14.0069895,-7.398198,-1.0173633,-1
520,521,1583552603892,4.7893,-3.702,-1.3332,13.02214,-7.313155999999999,-0.36417726,-1
521,522,1583552603902,3.6418,-3.6279,-0.5094,11.448516999999999,-7.6586110000000005,0.8372331000000001,-1
522,523,1583552603913,2.0767,-3.9705,0.7513,10.037164,-8.080699000000001,1.9476063999999997,-1
523,524,1583552603923,0.79569995,-4.326699700000001,1.7091999,9.385769,-8.572027,1.6026691000000002,-1
524,525,1583552603933,0.40219998,-4.7348,0.8513,10.08862,-8.7320175,-0.97728443,-1
525,526,1583552603943,1.429,-4.7174997,-2.0119,11.916737,-8.548333999999999,-3.8004217000000002,-1
526,527,1583552603953,3.3744,-4.482599700000001,-4.7348,13.696931,-8.627525,-5.1730943,-1
527,528,1583552603963,5.0734997,-4.4842,-5.7476997,14.360546,-8.658928,-4.859597,-1
528,529,1583552603973,5.4484,-4.416,-5.1403,13.364262,-8.696591999999999,-3.372415,-1
529,530,1583552603984,4.1707997,-4.4744,-3.4937,10.975432000000001,-9.016525,-1.219884,-1
530,531,1583552603994,2.1554,-4.7339997,-1.6518999,9.704483999999999,-9.122416000000001,-0.23134692,-1
531,532,1583552604004,0.6565,-4.8553,-0.5421,9.150457000000001,-9.157295,-1.1882518999999998,-1
532,533,1583552604014,0.3299,-4.8617,-1.5999,10.156989,-8.598162,-3.6968772000000003,-1
533,534,1583552604024,1.3546,-4.2672,-4.1429,11.437839,-8.105235,-6.2764378,-1
534,535,1583552604034,2.6583997999999998,-3.7533998,-6.7716,11.941262,-7.991318,-7.7407699999999995,-1
535,536,1583552604045,3.1648,-3.6072,-8.2733,11.945419000000001,-7.9931765,-7.913622,-1
536,537,1583552604055,3.1129,-3.6025,-8.318,11.269833,-8.010050999999999,-6.669096499999999,-1
537,538,1583552604065,2.5005999,-3.6162998999999996,-7.1510997000000005,10.224228,-7.8211580000000005,-5.4476233,-1
538,539,1583552604075,1.4374,-3.4417998999999995,-5.8671,9.265369,-7.4125633,-5.0064483,-1
539,540,1583552604085,0.4673,-3.0725,-5.3698997,8.82268,-6.9133725,-5.421526,-1
540,541,1583552604095,0.0435,-2.1220999,-6.7999997,8.919742999999999,-6.3516639999999995,-6.753458999999999,-1
541,542,1583552604106,0.0435,-2.1220999,-6.7999997,9.186437,-6.2763805,-7.7256484,-1
542,543,1583552604116,0.7849,-2.042,-8.3896,9.697053,-6.3392525,-8.058797,-1
543,544,1583552604126,0.7849,-2.042,-8.3896,9.710345,-6.466653,-7.830734700000001,-1
544,545,1583552604136,0.3667,-2.3586,-7.5912,9.077501,-6.6136856,-7.22345,-1
545,546,1583552604146,-0.42200000000000004,-2.4849,-7.2271,8.308062,-6.698535400000001,-6.9367779999999994,-1
546,547,1583552604156,-0.9575,-2.4877,-7.0787997,7.875688,-6.6275716000000005,-6.8485856,-1
547,548,1583552604166,-1.0612,-2.3530998,-7.2563996,7.8605375,-6.428336,-7.1105203999999995,-1
548,549,1583552604176,-1.0612,-2.3530998,-7.2563996,7.879921,-6.2585487,-7.400189999999999,-1
549,550,1583552604186,-1.2574999,-1.8378999,-7.6477,7.5944557,-5.842532,-7.4340057,-1
550,551,1583552604196,-1.7428,-1.7819999999999998,-7.482599700000001,7.122692599999999,-5.819308299999999,-7.2050342999999994,-1
551,552,1583552604207,-2.0396,-1.8008,-6.8982,6.9165616,-5.7882795,-6.5363235,-1
552,553,1583552604217,-2.0093,-1.8222,-6.2668,6.985303999999999,-5.8021082999999996,-5.9336839999999995,-1
553,554,1583552604227,-1.9268999,-1.8379999,-5.8907,7.049017999999999,-5.7822747,-5.5424237000000005,-1
554,555,1583552604237,-2.0681998999999998,-1.8894,-5.5294,6.86025,-5.893634,-5.1438656,-1
555,556,1583552604247,-2.218,-2.1639,-5.2964,6.7563414999999996,-6.1512117,-4.8994846,-1
556,557,1583552604258,-2.218,-2.1639,-5.2964,6.877986,-6.312112,-4.858869599999999,-1
557,558,1583552604268,-1.994,-2.3130999,-5.1808,7.000397,-6.1561437,-4.631784,-1
558,559,1583552604278,-2.1420999,-2.1331,-4.9017,6.7578454,-6.0386940000000005,-4.342219999999999,-1
559,560,1583552604288,-2.6627998,-2.042,-4.39,6.112694,-5.9834065,-3.6525176,-1
560,561,1583552604298,-3.1418998,-2.0743,-3.9445998999999996,5.750279,-6.004198000000001,-3.2668498,-1
561,562,1583552604308,-3.2331998,-2.0771,-3.7956,5.7646055,-6.017117,-3.148988,-1
562,563,1583552604318,-2.9067,-2.3525,-3.6111998999999995,6.235708,-6.422896,-2.7995112,-1
563,564,1583552604329,-2.4682,-2.6183999,-3.3427,6.542597,-6.6244497,-2.596234,-1
564,565,1583552604343,-2.1759999,-2.773,-3.3355,6.881711500000001,-6.799734,-2.493743,-1
565,566,1583552604353,-1.9935999,-2.7235,-3.1444,6.83038,-6.6011496,-1.7478822,-1
566,567,1583552604363,-2.1278,-2.5103,-2.3492,6.3404303,-6.524659,-0.724495,-1
567,568,1583552604373,-2.6747,-2.4255,-1.3404,5.876549,-6.493889299999999,0.07256346,-1
568,569,1583552604383,-3.0226998,-2.3746998,-0.6692,6.042351999999999,-6.5324454,0.07591534400000001,-1
569,570,1583552604394,-2.7064998,-2.3804998,-0.8365,6.747167,-6.6385179999999995,-0.66316515,-1
570,571,1583552604403,-2.0788,-2.4229998999999998,-1.5260999,7.138188,-6.899132000000001,-1.0789135,-1
571,572,1583552604413,-1.5745,-2.6938,-2.0500998,7.5682054,-7.114561999999999,-1.0709169,-1
572,573,1583552604423,-1.1103,-2.7488,-1.8536999,7.8088136,-6.977392999999999,-0.15025052,-1
573,574,1583552604434,-0.9253,-2.5637999,-0.81769997,7.678951700000001,-6.914550299999999,1.2187157,-1
574,575,1583552604444,-1.0682,-2.4526,0.6005,7.447557000000001,-6.8009405,2.6395880000000003,-1
575,576,1583552604454,-1.2411,-2.3028,1.7721,7.560927400000001,-6.7917559999999995,3.2557025,-1
576,577,1583552604464,-1.0965999,-2.2363,2.4175,7.901919,-6.813236999999999,3.1527326,-1
577,578,1583552604474,-0.7208,-2.1931998999999998,2.3279998,8.148771,-7.101145,2.7064152000000004,-1
578,579,1583552604484,-0.3891,-2.5091999,1.6931,8.56382,-7.545786,1.8027476999999998,-1
579,580,1583552604494,0.022599999,-2.7869,0.92649996,9.197546,-7.5877132,1.6950086,-1
580,581,1583552604506,0.6859,-2.7763999,0.7874,9.459616,-7.389003999999999,2.0885866,-1
581,582,1583552604515,0.9665,-2.5228999,1.2025,8.947303999999999,-7.4001327,2.7708383,-1
582,583,1583552604525,0.4802,-2.5001,1.9372,8.5133505,-7.313788000000001,3.6043269999999996,-1
583,584,1583552604535,-0.0625,-2.3506,3.0558,8.034194,-6.908583999999999,4.8990445,-1
584,585,1583552604546,-0.9005,-1.6421,4.8413,7.4826274,-6.575406599999999,5.535174,-1
585,586,1583552604556,-0.9005,-1.6421,4.8413,7.351549,-6.668503,5.370472,-1
586,587,1583552604566,-0.6416,-1.8772999,3.7305998999999996,7.933053,-6.9222402999999995,4.187976,-1
587,588,1583552604576,-0.6416,-1.8772999,3.7305998999999996,8.792112,-6.867700599999999,3.3113437000000006,-1
588,589,1583552604586,0.83599997,-1.7569,2.3198,9.221525999999999,-6.876836999999999,3.1043026,-1
589,590,1583552604597,0.76919997,-1.706,2.8077,9.010933,-6.798949,3.7476342000000002,-1
590,591,1583552604607,0.111899994,-1.4635999,3.9106,8.274208,-6.555286,4.838873,-1
591,592,1583552604617,-0.69799995,-1.1703,5.0761,7.527168799999999,-6.217694,5.895817299999999,-1
592,593,1583552604627,-1.1335,-0.6599,5.7728996,7.1837254,-5.724583999999999,6.37416,-1
593,594,1583552604637,-1.2282,-0.4155,5.5818,7.1498046,-5.5289779999999995,6.01118,-1
594,595,1583552604647,-0.8531,-0.3168,5.1243,7.5743922999999995,-5.4818506,5.573328,-1
595,596,1583552604658,-0.3728,-0.3369,4.593899700000001,8.093091000000001,-5.5772066,4.8465055999999995,-1
596,597,1583552604668,0.0117999995,-0.50189996,3.7250997999999997,8.491707,-5.8522525000000005,3.9804082000000003,-1
597,598,1583552604678,0.59029996,-0.7294,2.9991999,9.121161,-5.932764499999999,3.4654634,-1
598,599,1583552604688,1.1026,-0.5732,2.7417,9.384514,-5.8181114,3.3628379999999995,-1
599,600,1583552604698,0.80009997,-0.43019998,3.0453,8.741528,-5.6750627,3.8950598,-1
600,601,1583552604708,-0.060399997999999996,-0.3581,3.909,8.048865,-5.596992,4.6489267,-1
601,602,1583552604718,-0.8053,-0.1818,4.8224,7.2780476,-5.3989058,5.5341396,-1
602,603,1583552604729,-1.153,-0.1078,5.1359,7.185612,-5.3314466,5.4635489999999995,-1
603,604,1583552604741,-0.7855,-0.0028,4.6310997,7.9560756999999995,-5.214265,4.5881233,-1
604,605,1583552604749,0.022000000000000002,0.0442,3.7043,8.577553,-5.2709694,3.7566748,-1
605,606,1583552604759,0.022000000000000002,0.0442,3.7043,9.155522999999999,-5.3261223,2.5605986,-1
606,607,1583552604769,1.1319,0.0243,1.4719,9.409576,-5.2501206,1.9739331000000002,-1
607,608,1583552604780,1.1372,0.089099996,1.4415,9.193457,-5.2491335999999995,2.375393,-1
608,609,1583552604790,0.7413,0.0742,2.0544999,8.572669,-5.1860037000000005,3.238943,-1
609,610,1583552604800,0.0352,0.1788,3.0739,7.904265,-5.070833,4.1240697,-1
610,611,1583552604810,-0.5634,0.25259998,3.7164,7.519383400000001,-4.9538910000000005,4.276025,-1
611,612,1583552604820,-0.7256,0.3712,3.5447,7.715813000000001,-4.866435,3.7972806000000006,-1
612,613,1583552604830,-0.3214,0.4107,2.8697,8.334541999999999,-4.8882895,2.895059,-1
613,614,1583552604841,0.4028,0.3798,1.8571999,9.117513,-5.0015735999999995,1.9741821,-1
614,615,1583552604851,1.1197,0.22469999,0.9819,9.560651,-5.2627807,1.4034138999999999,-1
615,616,1583552604861,1.3932999,-0.0407,0.6343,9.636211999999999,-5.414899,1.4587104,-1
616,617,1583552604874,1.2882999,-0.1759,0.92039996,9.22643,-5.556645400000001,1.888824,-1
617,618,1583552604884,0.91249996,-0.2307,1.1891999,8.750079,-5.4266977,2.314494,-1
618,619,1583552604894,0.5125,-0.1248,1.5626999,8.397758,-5.300733999999999,2.6967711,-1
619,620,1583552604905,0.1498,-0.0219,1.9476999,8.185019500000001,-5.1689663,2.8637142000000004,-1
620,621,1583552604915,-0.075399995,0.1003,2.1141,8.229992,-5.0504727,2.4641027,-1
621,622,1583552604925,0.1972,0.20809999,0.9185,8.528606,-5.0350155999999995,1.5377573999999998,-1
622,623,1583552604936,0.1972,0.20809999,0.9185,8.714023,-5.019482,1.0724396,d
623,624,1583552604946,0.43829998,0.1319,0.20449999,8.678139,-5.1357446,0.95346683,-1
624,625,1583552604956,0.43829998,0.1319,0.20449999,8.515821,-5.2211123,0.8880764999999999,-1
625,626,1583552604967,0.108399995,-0.0154,-0.0132,8.378260000000001,-5.242641000000001,0.7397988,-1
626,627,1583552604976,0.07369999599999999,0.0158,0.0585,8.35449,-5.1613913,0.8886894000000001,-1
627,628,1583552604986,0.07369999599999999,0.0158,0.0585,8.192354,-4.9733605,1.2225369,-1
628,629,1583552604996,-0.5302,0.3067,0.85639995,7.6605167000000005,-4.897033,1.6950756,-1
629,630,1583552605006,-0.85139996,0.2465,1.1848999,7.453417999999999,-4.966905000000001,1.9454805,-1
630,631,1583552605016,-0.6288,0.0554,1.0768,7.781883199999999,-5.160625,1.7469628000000001,-1
631,632,1583552605026,-0.0681,-0.0999,0.6071,8.34207,-5.311977,1.2524452,-1
632,633,1583552605037,0.35729998,-0.2139,0.1682,8.701822,-5.407419,0.9037154000000001,-1
633,634,1583552605047,0.39909998,-0.1735,0.0503,8.6633415,-5.354172,0.86226696,-1
634,635,1583552605057,0.19229999,-0.1183,0.16309999,8.445202,-5.265443299999999,1.015199,-1
635,636,1583552605067,-0.046699997,0.0609,0.46109998,8.236035000000001,-5.081597299999999,1.3521683999999998,-1
636,637,1583552605078,-0.1497,0.1806,0.8149,8.146214,-4.971579,1.6626869999999998,-1
637,638,1583552605088,-0.124299996,0.1647,0.91529995,8.219984,-5.014646,1.7420881000000001,-1
638,639,1583552605098,0.0005999999700000001,0.033099998,0.98319995,8.421959,-5.227682,1.8078139,-1
639,640,1583552605108,0.2845,-0.23359999,0.9655,8.699323,-5.486112,1.740125,-1
640,641,1583552605118,0.4511,-0.4229,0.83989996,8.772383999999999,-5.6425204,1.7152636000000003,-1
641,642,1583552605129,0.33249998,-0.53679997,0.98859996,8.547961,-5.683902,2.0157073,-1
642,643,1583552605139,0.1548,-0.486,1.4821999,8.4093275,-5.5791507000000005,2.6593162999999995,-1
643,644,1583552605149,0.0277,-0.3462,2.1832,8.249805,-5.5057926,3.3624264999999998,-1
644,645,1583552605159,-0.0762,-0.47779998,2.6283,8.3501425,-5.667774,3.847396,-1
645,646,1583552605169,0.3159,-0.5936,2.8724,8.8331,-5.7735124,3.7937562000000007,-1
646,647,1583552605179,0.9489,-0.73399997,2.2501,9.565794,-5.938779,3.0517453999999997,-1
647,648,1583552605189,1.9559,-0.83519995,1.2123,10.455822999999999,-5.9849586,2.2774317,-1
648,649,1583552605199,2.9778,-0.8732,0.61109996,11.514061,-6.024893799999999,1.9979613,-1
649,650,1583552605209,3.4092,-0.8548,1.0688,11.550778,-6.0264644999999994,3.0566964,-1
650,651,1583552605220,3.0725,-0.9788,2.1290998,11.116528,-6.157006,3.9058335,-1
651,652,1583552605230,2.5226,-1.1919999,3.0180000000000002,10.707138,-6.345937,4.7148824000000005,-1
652,653,1583552605240,2.4338,-1.3403,3.3348,10.843694000000001,-6.3663454,4.6417727,-1
653,654,1583552605250,2.7910000000000004,-1.2825999,2.8613,11.49687,-6.1155477,3.9562843,-1
654,655,1583552605260,3.4143999,-1.1061,2.2082,12.129437,-5.972796,3.6179642999999997,-1
655,656,1583552605270,4.032099700000001,-1.0042,2.0812,12.618917999999999,-5.892503700000001,3.8278785,-1
656,657,1583552605280,4.505,-0.9859,2.4908,12.967437,-5.84417,4.531170400000001,-1
657,658,1583552605291,4.5483,-1.0749,3.0839,12.848657000000001,-5.907778700000001,5.0837330000000005,-1
658,659,1583552605301,4.3574,-1.1455,3.4666997999999998,12.787575,-5.8201895,5.191865,-1
659,660,1583552605311,4.3066998,-1.178,3.3281,12.77207,-5.8388453,4.8229947,-1
660,661,1583552605321,4.3013,-1.2601,2.8913999,12.937078,-5.720083,4.570598,-1
661,662,1583552605331,4.4405,-1.1567,2.702,13.2172575,-5.2146287000000004,4.421334,-1
662,663,1583552605341,4.6572,-0.7594,2.559,13.366713,-4.744877,4.4446535,-1
663,664,1583552605351,4.7764997000000005,-0.3306,2.4642,13.428053,-4.3787650000000005,4.153155,-1
664,665,1583552605362,4.6912,-0.2685,1.9633,13.265209,-4.4088364,3.3677413,-1
665,666,1583552605372,4.4887,-0.46359998,1.1817,13.140317000000001,-4.633239700000001,2.7993867000000003,-1
666,667,1583552605382,4.3248997000000005,-0.8462,0.6951,12.963013,-4.8891325,3.1023110000000003,-1
667,668,1583552605392,4.0288997,-1.2231,1.1623,12.394093,-5.101546,4.052263,-1
668,669,1583552605402,3.3032,-1.5807999,2.1657999,11.648098,-5.2573795,4.948221,-1
669,670,1583552605412,2.3044,-1.8647,3.2419,10.733561,-5.0701336999999995,5.6787019999999995,-1
670,671,1583552605422,1.5942999,-1.7502999,3.6388998,10.404635,-4.6498365,5.248578500000001,-1
671,672,1583552605433,1.2560999,-1.4956,3.0963,10.435711999999999,-4.229118,4.4498444,-1
672,673,1583552605443,1.2825999,-1.2895,2.4287999,10.560478,-4.006304,3.8501062000000004,-1
673,674,1583552605453,1.3122,-1.2742,1.9229,10.432226,-3.9623272000000003,3.310338,-1
674,675,1583552605464,1.0497999,-1.4419999,1.4734,10.171451,-3.975371,2.5661917,-1
675,676,1583552605474,0.79789996,-1.5877,0.91859996,10.127703,-4.074663,2.319541,-1
676,677,1583552605484,0.6979,-1.8356999,0.7664,10.293027,-4.201642,2.6486096000000003,-1
677,678,1583552605494,0.8093,-2.0981998,1.1676999,10.644046000000001,-4.5384107,3.0082378,-1
678,679,1583552605505,1.1197,-2.5765,1.6092,10.641451,-4.6394267,3.0145776,-1
679,680,1583552605515,1.0776,-2.8388,1.6925,10.303619,-4.212579,2.2654702999999996,-1
680,681,1583552605525,0.6921,-2.5765998,1.0390999,9.800597,-3.5178769999999995,1.0932786,-1
681,682,1583552605535,0.16129999,-2.0708,-0.0311,9.402758,-2.8690197,0.40683234,-1
682,683,1583552605545,-0.6841,-0.80869997,-0.9659,8.954937,-1.6745813000000003,-0.17525557,-1
683,684,1583552605555,-0.6841,-0.80869997,-0.9659,8.625782000000001,-1.3479068,-0.46740565,-1
684,685,1583552605566,-1.5399,-0.4206,-1.6694,8.203502,-1.1920156000000002,-1.1684183000000001,-1
685,686,1583552605576,-1.4599999,-0.8552,-1.9720999,8.408197,-1.6174653,-1.5050526000000002,-1
686,687,1583552605586,-0.8064,-1.6881,-1.6348,9.131342,-2.2794235,-1.2510086,-1
687,688,1583552605596,-0.3646,-2.2078,-1.1445999,9.43122,-2.5892909,-0.88254106,-1
688,689,1583552605606,-0.85069996,-2.1896,-0.6818,8.769012,-2.3130669999999998,-0.60985106,-1
689,690,1583552605617,-2.1081,-1.7021998999999999,-0.5001,7.427934,-1.6235082,-0.5468261,-1
690,691,1583552605627,-3.3428,-1.1049,-0.2765,6.2372785,-0.8904994,-0.36854425,-1
691,692,1583552605637,-4.5264997000000005,-0.677,-0.1267,5.09284,-0.40449557,-0.32994974,-1
692,693,1583552605647,-5.179199700000001,-0.6242,-0.21,4.6116824,-0.28961220000000004,-0.5263126,-1
693,694,1583552605657,-4.9978,-0.63629997,-0.48349997,5.0249695999999995,-0.27398288,-1.0779653999999999,-1
694,695,1583552605668,-4.9978,-0.63629997,-0.48349997,5.5726385,-0.259474,-1.4663336,-1
695,696,1583552605678,-3.2013998,-0.7399,-1.6075,6.9060654999999995,-0.35008976,-2.4214477999999997,-1
696,697,1583552605688,-2.5475,-0.89599997,-2.1569998,7.3704543000000005,-0.50716853,-3.0055563,-1
697,698,1583552605698,-2.3837,-1.1975,-2.4593,7.344672999999999,-0.8403360999999999,-3.081893,-1
698,699,1583552605708,-2.6708998999999998,-1.4854,-1.9265,6.7783869999999995,-1.0070395,-2.3252102999999997,-1
699,700,1583552605718,-3.6334,-1.7034999,-0.9553,5.6028533,-1.1770662,-1.4820108,-1
700,701,1583552605729,-4.8385997000000005,-1.8559999999999999,-0.1431,4.468701,-1.1066958,-0.7638078,-1
701,702,1583552605739,-5.8157,-1.6472,0.66359997,3.6345131,-0.73067206,-0.07637503,-1
702,703,1583552605749,-6.3795,-1.2502999,1.1564,3.238857,-0.28075367,0.09007944,-1
703,704,1583552605759,-6.3795,-1.2502999,1.1564,3.246528,0.062364165,-0.36081576,-1
704,705,1583552605769,-6.3114,-0.6703,0.603,3.784304,0.2917287,-1.0143658000000002,-1
705,706,1583552605779,-5.5945,-0.59139997,0.0231,4.628623999999999,0.16644489999999998,-2.0023763,-1
706,707,1583552605790,-4.7142,-0.8174,-1.0437,5.493438200000001,-0.19710027,-3.0926576,-1
707,708,1583552605800,-3.8367,-1.1248,-1.8643999,6.112665,-0.39352056,-3.5012805,-1
708,709,1583552605810,-3.2747,-1.1836,-1.9662998999999999,6.4578514,-0.3871137,-3.1326406,-1
709,710,1583552605820,-3.2823,-1.1674,-1.248,6.308999,-0.431167,-2.5675323,-1
710,711,1583552605830,-3.7605,-1.341,-0.035499997,5.7547607,-0.60244817,-0.89311385,-1
711,712,1583552605840,-3.9334998,-1.2353,1.015,5.731374,-0.2849483,-0.47382209999999997,-1
712,713,1583552605851,-3.889,-0.88909996,0.95059997,5.8199214999999995,0.024296357999999997,-1.1395155000000001,-1
713,714,1583552605860,-3.7740998,-0.6712,0.115499996,6.060232,0.17656758,-2.166044,-1
714,715,1583552605870,-3.4122,-0.5694,-0.8433,6.527963,0.120322995,-3.2176251000000002,-1
715,716,1583552605880,-2.8644,-0.6727,-1.8514999,7.1616607000000005,-0.13301226,-4.129433000000001,-1
716,717,1583552605890,-2.1612,-0.8695,-2.5449998,7.86908,-0.3318172,-4.5056767,-1
717,718,1583552605900,-1.4203,-0.9819,-2.5735,8.623818,-0.31345847,-4.019194000000001,-1
718,719,1583552605910,-0.87649995,-0.8991,-1.7389,8.726567999999999,-0.30161193,-3.034574,-1
719,720,1583552605921,-0.9406,-0.9185,-0.74189997,8.563274,-0.34045547,-2.1089087,-1
720,721,1583552605930,-1.0723,-0.898,0.1488,8.513303,-0.17446070000000002,-1.6877494,-1
721,722,1583552605940,-1.0849,-0.6616,0.15439999,8.513877,-0.03734955,-2.3047066000000003,-1
722,723,1583552605950,-1.0085,-0.6149,-0.5812,8.677774000000001,-0.047730802999999995,-2.8942451,-1
723,724,1583552605960,-0.7263,-0.56119996,-1.2081,9.10401,0.06017108,-3.536983,-1
724,725,1583552605970,-0.3074,-0.473,-1.5824,9.50543,0.09610326,-3.9123937999999994,-1
725,726,1583552605980,0.119799994,-0.4226,-1.9045,10.030135000000001,0.1539376,-4.1424766,-1
726,727,1583552605991,0.6737,-0.2668,-1.9871,10.382839,0.38949832,-4.135821,-1
727,728,1583552606000,0.82549995,-0.039499998,-1.9147999,10.326172999999999,0.49712247,-4.0543027,-1
728,729,1583552606010,0.6342,0.0319,-1.6869999,10.004612,0.5101278,-3.6231263,-1
729,730,1583552606020,0.36389998,-0.0289,-1.208,9.774453,0.42601469999999997,-3.1673758,-1
730,731,1583552606030,0.1908,-0.1293,-0.78169996,9.711188,0.34761894,-2.8750339,-1
731,732,1583552606040,0.1644,-0.1396,-0.5826,9.64937,0.39137536,-2.808207,-1
732,733,1583552606050,0.078499995,-0.0885,-0.58199996,9.651257000000001,0.45597089999999996,-2.8838255,-1
733,734,1583552606061,0.1387,0.0047,-0.6637,9.771550999999999,0.6246855,-2.99099,-1
734,735,1583552606071,0.3157,0.2483,-0.7479,9.993464,0.83972317,-3.0683706,-1
735,736,1583552606081,0.5904,0.4446,-0.87299997,10.190757000000001,0.94014555,-3.1327553,-1
736,737,1583552606091,0.6102,0.424,-0.7822,10.003377,0.73955935,-2.7883258,-1
737,738,1583552606101,0.3567,0.1647,-0.2942,9.711677,0.38974732,-2.2654798,-1
738,739,1583552606112,0.1639,-0.1068,0.0537,9.758392,0.27232608,-2.2554145,-1
739,740,1583552606122,0.3554,-0.2013,0.0267,10.174131,0.27159825,-2.4254794,-1
740,741,1583552606132,0.715,-0.1681,-0.12239999,10.3746605,0.36369840000000003,-2.6632428,d
741,742,1583552606142,0.88839996,-0.039699998,-0.4385,10.363398,0.5557708,-3.0077112,-1
742,743,1583552606152,0.8165,0.1226,-0.6188,10.146119,0.60543615,-2.9513803,-1
743,744,1583552606162,0.4895,0.122099996,-0.3994,9.736433,0.5588258,-2.390141,-1
744,745,1583552606173,0.2112,0.0691,0.1906,9.686863,0.44910434,-1.8528726999999998,-1
745,746,1583552606183,0.1973,-0.08,0.6518,9.684805,0.26920405,-1.8338723000000001,-1
746,747,1583552606193,0.2313,-0.3114,0.58,9.931714,0.087378785,-2.2536237,-1
747,748,1583552606203,0.5293,-0.4089,0.1241,10.299425,0.10370724,-2.9842958,-1
748,749,1583552606213,0.8756,-0.40379998,-0.6382,10.4762125,0.019431341,-3.6458519999999996,-1
749,750,1583552606223,0.9949,-0.47919998,-1.2099,10.316376,-0.04207091,-3.9184654,-1
750,751,1583552606234,0.83959997,-0.5128,-1.4008,10.038007,-0.084285475,-3.6694398,-1
751,752,1583552606244,0.5671,-0.5654,-1.1503,9.770335000000001,-0.17006494,-3.6297152,-1
752,753,1583552606254,0.2464,-0.70199996,-1.1532,9.592092,-0.2941229,-4.2195315,-1
753,754,1583552606264,0.122899994,-0.82269996,-1.6725999,9.741710000000001,-0.3510283,-4.793029,-1
754,755,1583552606274,0.35169998,-0.9044,-2.4182,10.183871,-0.38719988,-5.7608805,-1
755,756,1583552606285,0.7287,-0.9486,-3.1899998,10.3973,-0.39504328,-6.218948999999999,-1
756,757,1583552606295,0.9389,-0.97709996,-3.6392998999999997,10.354136,-0.36587232,-6.428891,-1
757,758,1583552606305,0.6135,-0.93149996,-3.8502,9.976533,-0.26400384,-6.445257700000001,-1
758,759,1583552606316,0.6135,-0.93149996,-3.8502,9.592857,-0.29960084,-6.4101685999999996,-1
759,760,1583552606326,-0.2426,-1.0656999,-3.9952,9.154978,-0.32912612,-6.6701117,-1
760,761,1583552606336,-0.31,-1.1338,-4.3649,9.150294,-0.40123948,-7.030199499999999,-1
761,762,1583552606346,-0.31,-1.1338,-4.3649,9.406359,-0.5963861,-7.368030999999999,-1
762,763,1583552606356,0.52099997,-1.6245999,-5.2457,10.061862,-0.814268,-7.8936925,-1
763,764,1583552606366,0.88909996,-1.7506,-5.7134,10.355171,-0.9446275,-8.353705,-1
764,765,1583552606377,0.92109996,-2.0503,-6.1941,10.368138,-1.2144923,-8.749179,-1
765,766,1583552606387,0.81409997,-2.263,-6.5299997,10.268741,-1.3340778,-9.004602,-1
766,767,1583552606397,0.6285,-2.3139,-6.639199700000001,10.025787,-1.3300365,-8.982796,-1
767,768,1583552606407,0.1504,-2.4603,-6.2327,9.4887,-1.3943161,-8.387827,-1
768,769,1583552606417,-0.5991,-2.5135,-5.3059,8.553745,-1.2721063999999997,-7.1354774999999995,-1
769,770,1583552606428,-1.4836999,-2.3676,-4.4178,7.6552777,-0.96409714,-6.3497386,-1
770,771,1583552606438,-2.2803,-2.1102,-4.0059,6.974817,-0.6252696999999999,-6.044996,-1
771,772,1583552606448,-2.7459998,-1.8600999,-3.9763,6.707337,-0.37548742,-6.013938,-1
772,773,1583552606458,-2.8316998,-1.7418,-3.9733,6.648764999999999,-0.21134098,-5.8368720000000005,-1
773,774,1583552606468,-2.7919,-1.7678,-3.8386,6.7830414999999995,-0.22833022,-5.664844,-1
774,775,1583552606479,-2.6555998,-1.9916999,-3.7310000000000003,6.866647,-0.44349235,-5.4015010000000006,-1
775,776,1583552606489,-2.7840998,-2.2447,-3.1798,6.5445212999999995,-0.61174726,-4.5751376,-1
776,777,1583552606499,-3.4111998,-2.3258,-2.7303998,5.8524346,-0.5558569999999999,-4.0879464,-1
777,778,1583552606510,-4.0167,-2.1081,-2.1773999,5.314879,-0.058159947000000004,-2.9997337,-1
778,779,1583552606520,-4.3849998,-1.7255,-1.2132,4.8424835,0.33229604,-1.728336,-1
779,780,1583552606530,-4.9772997000000005,-1.4389,0.075399995,4.2896147000000004,0.5954092,-0.53685665,-1
780,781,1583552606540,-5.6577,-1.1644,1.4336,3.5191796,0.9597396999999999,1.1315285,-1
781,782,1583552606550,-6.3008,-0.93259996,2.5544,2.942943,1.1543978000000001,2.1483555,-1
782,783,1583552606561,-6.780999700000001,-0.7567,3.198,2.6551697,1.34942,2.3693976,-1
783,784,1583552606571,-6.922000000000001,-0.6041,2.9742,2.8698816000000003,1.3277763,2.074863,-1
784,785,1583552606581,-6.4979,-0.652,2.6088,3.6848774,1.2091581,2.1491792000000003,-1
785,786,1583552606591,-5.4379,-0.7114,2.8803,4.912107,1.114252,3.178274,-1
786,787,1583552606601,-4.3375998,-0.7442,4.139199700000001,5.6204557,0.83000267,5.038253,-1
787,788,1583552606612,-4.0578,-0.99759996,5.5722,5.206967400000001,0.56438035,6.677007000000001,-1
788,789,1583552606622,-4.6275,-1.1728,7.1805997,4.1935687,0.44196963,8.435903,-1
789,790,1583552606632,-5.6663,-1.2723,8.8382,3.6602747000000004,0.22033359,9.914935,-1
790,791,1583552606642,-6.0099998,-1.3788999,9.9984,4.14874,0.4103183,10.646086,-1
791,792,1583552606652,-5.3361,-1.0206,10.6199,5.2623690000000005,0.7328843,10.931963,-1
792,793,1583552606663,-4.2517,-0.608,10.700399,6.184031500000001,0.96630937,11.154413,-1
793,794,1583552606673,-3.3918,-0.2976,10.8553,7.0292516,1.0346686,11.450347,-1
794,795,1583552606683,-2.5303,-0.0977,10.9893,7.797934,0.87980205,11.926908000000001,-1
795,796,1583552606693,-1.9523,-0.1431,11.3554,7.8505397,0.34031183,12.368963,-1
796,797,1583552606704,-1.9425999,-0.6871,11.8418,7.633960000000001,-0.15264472,12.732872,-1
797,798,1583552606714,-2.1677,-0.96629995,12.23,7.742599,-0.36080619999999997,13.518956,-1
798,799,1583552606724,-2.029,-1.0133,12.911699,8.306204,-0.49527413,14.034916,-1
799,800,1583552606734,-1.4771,-1.0279,13.4339,9.004956,-0.36725137,13.657934,-1
800,801,1583552606745,-0.78669995,-0.79219997,13.061299,9.381497,0.10697293,12.318599,-1
801,802,1583552606755,-0.4094,-0.21169999,11.728499000000001,9.355717,0.3430891,11.033430000000001,-1
802,803,1583552606765,-0.7818,0.0032,10.2008,8.971256,-0.052988473,10.72363,-1
803,804,1583552606777,-0.7818,0.0032,10.2008,8.979291,-1.1273912,10.808595,-1
804,805,1583552606787,-0.46539998,-1.8977,10.078899,9.624097,-2.554575,9.940831,-1
805,806,1583552606797,0.3685,-2.908,9.0006,10.624347,-3.5003803,8.5992155,-1
806,807,1583552606808,1.5978999,-3.2382,7.790199799999999,11.870481,-3.6712592000000006,7.500459700000001,-1
807,808,1583552606818,2.5061,-3.0619,7.0031,12.370821000000001,-3.5729055,6.7341904999999995,-1
808,809,1583552606828,2.347,-2.8673,6.6843,11.780708,-3.5680406000000002,6.642989999999999,-1
809,810,1583552606838,1.3457999,-2.9589,6.8967,10.773936,-3.9260410000000006,6.7359715,-1
810,811,1583552606848,0.6501,-3.3177998,6.752000000000001,10.240585000000001,-4.4284300000000005,6.0597916,-1
811,812,1583552606858,0.486,-3.7981,5.1092,10.525821,-5.0486913,3.5692470000000003,-1
812,813,1583552606868,1.6683999,-4.2359,1.9993,12.276690499999999,-5.5222169999999995,0.3221255,-1
813,814,1583552606878,3.9431998999999998,-4.4859,-0.90629995,14.490082000000001,-5.845175299999999,-2.293971,-1
814,815,1583552606888,5.6320996,-4.5947,-2.6504,15.572961,-5.971809400000001,-3.4218028,-1
815,816,1583552606899,5.7219,-4.4347997,-2.3522,14.958599,-5.8970623,-2.3764462,-1
816,817,1583552606909,4.2495,-4.4158,-0.4349,12.9976425,-6.026530999999999,-0.51057786,-1
817,818,1583552606919,1.9396,-4.5176997000000005,1.0507,10.488509,-6.108308,0.17640479,-1
818,819,1583552606930,0.3821,-4.5113,0.5846,9.924196,-6.1754217,-1.6296948,-1
819,820,1583552606939,0.6594,-4.4714,-1.8010999,10.938639,-6.1537595000000005,-3.8745654000000003,-1
820,821,1583552606949,2.5607,-4.2623,-4.6828,12.923661,-5.9665230000000005,-6.621423200000001,-1
821,822,1583552606959,4.0948,-3.9289,-6.798899700000001,13.854613,-5.786182,-8.132969000000001,-1
822,823,1583552606969,4.0421,-3.7015998,-7.3236,12.932654,-5.748488,-8.114725,-1
823,824,1583552606979,2.8614,-3.6618,-6.8408,11.63129,-5.7781477,-7.5180229999999995,-1
824,825,1583552606989,1.6502,-3.5421,-6.3223996,10.577401,-5.703793,-7.781442599999999,-1
825,826,1583552607000,0.86039996,-3.4998,-7.2114997,10.31175,-5.8594637,-9.728887,-1
826,827,1583552607010,1.0731,-3.6510000000000002,-9.539499000000001,11.00331,-6.0880527,-12.200756,-1
827,828,1583552607020,2.0152,-3.7554998,-11.8431,12.071833,-6.1706142,-14.298143,-1
828,829,1583552607030,2.9972,-3.7143,-13.2088995,12.690016,-6.150398,-14.445799,-1
829,830,1583552607040,3.3068,-3.5978,-12.3995,12.394936,-6.0694356,-12.634192,-1
830,831,1583552607051,2.6652,-3.5289,-10.0652,11.352030000000001,-6.066486,-10.133957,-1
831,832,1583552607061,1.5437,-3.4059,-7.8034,10.272437,-5.8922930000000004,-8.840446,-1
832,833,1583552607071,0.61289996,-3.2493,-7.4881997,9.77159,-5.761866599999999,-9.926092,-1
833,834,1583552607081,0.4754,-3.0937997999999998,-8.7864,10.149653,-5.4926434,-11.437963499999999,-1
834,835,1583552607091,1.0564,-2.7842,-10.8087,10.752705,-5.380068,-13.433682999999998,-1
835,836,1583552607102,1.5896,-2.7430000000000003,-12.5546,11.072637,-5.3102245,-14.431070000000002,-1
836,837,1583552607112,1.7089,-2.6866999,-12.780399000000001,10.620449,-5.252878,-13.316367999999999,-1
837,838,1583552607122,1.0583,-2.6587,-11.4123,9.442271,-4.9531054,-11.696212,-1
838,839,1583552607132,-0.14829999,-2.369,-9.7399,8.288841,-4.4364367,-10.321193,-1
839,840,1583552607143,-1.3011999,-1.9297999,-8.4232,7.377157700000001,-4.0063133,-9.422995,-1
840,841,1583552607153,-2.1332998,-1.6013,-7.607199700000001,6.8964114,-3.704012,-8.77949,-1
841,842,1583552607163,-2.5448,-1.3837,-7.0389,6.883761,-3.5678203,-8.446015,-1
842,843,1583552607173,-2.4745,-1.3235999,-6.8068,7.309833,-3.5635392999999995,-8.3486,-1
843,844,1583552607183,-2.039,-1.3757,-6.8294997,7.756466400000001,-3.7783759,-8.4783945,-1
844,845,1583552607193,-1.6304,-1.6380000000000001,-7.0042,8.03589,-4.095847,-8.330960000000001,-1
845,846,1583552607204,-1.4259,-1.9152999,-6.8875,7.950023700000001,-4.321467,-7.621989,-1
846,847,1583552607214,-1.5252999,-2.1850998,-6.2037997,7.407966,-4.347238,-6.4908338,-1
847,848,1583552607224,-2.0867999,-2.2526999,-5.0875,6.794562299999999,-4.3495555,-5.448695,-1
848,849,1583552607234,-2.7085,-2.3169,-4.0506,6.420253,-4.345457,-4.4828844000000005,-1
849,850,1583552607244,-3.0956,-2.3588998,-3.1241,6.27142,-4.2493443,-4.025314,-1
850,851,1583552607255,-3.2672,-2.3032,-2.7059999,6.4074874,-4.168391000000001,-4.137841000000001,-1
851,852,1583552607265,-3.1369998,-2.2614,-2.8852,6.719346000000001,-4.2263209999999996,-4.069433999999999,-1
852,853,1583552607275,-2.8430998,-2.3372,-2.8689999999999998,7.084079300000001,-4.40604,-3.951199,-1
853,854,1583552607285,-2.4694,-2.7177,-2.3265998,7.0799710000000005,-4.589176999999999,-3.2836573,-1
854,855,1583552607295,-2.4694,-2.7177,-2.3265998,6.8296137,-4.645805,-2.464486,-1
855,856,1583552607305,-2.7522,-2.8218,-1.3844999,6.363328500000001,-4.724957,-1.0992546,-1
856,857,1583552607316,-3.2307,-2.9292,-0.042799998,5.933349,-4.523442,0.12517844,-1
857,858,1583552607326,-3.6106,-2.8089999999999997,1.0242,5.75546,-4.2367024,0.23111708,-1
858,859,1583552607336,-3.9176998,-2.2437,1.1746,5.6882305,-3.9663591,0.28656679999999995,-1
859,860,1583552607346,-3.9176998,-2.2437,1.1746,5.697539,-3.8825333,0.54370403,-1
860,861,1583552607356,-3.9224,-2.1273,1.4031,5.694829,-3.891593,0.72307765,-1
861,862,1583552607367,-3.8177,-2.1134999,1.4028,5.8535642999999995,-3.8961129999999997,0.7242843000000001,-1
862,863,1583552607377,-3.6488,-1.9470999,1.6924,6.0114865,-3.8197667999999996,1.3751433000000002,-1
863,864,1583552607388,-3.6488,-1.9470999,1.6924,6.0509233,-3.9721434,1.9248136999999998,-1
864,865,1583552607398,-3.3837,-2.1669,3.6601,6.254019,-4.0876779999999995,3.5020945,-1
865,866,1583552607408,-3.3774998,-1.9992,4.4767,6.1010485,-3.85364,4.2697806,-1
866,867,1583552607418,-3.8223998999999997,-1.6365,5.0866,5.459115,-3.5276167000000003,4.849044,-1
867,868,1583552607429,-4.5803,-1.3188,5.5533,4.7777449999999995,-3.3298078,5.2977266,-1
868,869,1583552607439,-5.0211997,-1.1836,5.8366,4.522475,-3.3109032999999997,5.543371700000001,-1
869,870,1583552607449,-4.849,-1.2342,5.9096,4.9487190000000005,-3.4941074999999997,5.5705605,-1
870,871,1583552607459,-4.1419997,-1.2177,5.8008,5.8728905,-3.3795114,5.5158005,-1
871,872,1583552607469,-3.392,-0.9281,5.745899700000001,6.279713,-3.198816,5.468462000000001,-1
872,873,1583552607479,-3.2141,-0.6394,5.638099700000001,6.287203,-3.1002517000000003,5.466805,-1
873,874,1583552607489,-3.1934998,-0.46469998,5.8644,6.286877,-2.9893045,5.914282,-1
874,875,1583552607499,-3.1188,-0.1283,6.6819997,6.3132606,-2.5891662,7.05192,-1
875,876,1583552607509,-3.2099,0.2663,7.6232996,5.9038525,-2.4732966,7.805892500000001,-1
876,877,1583552607520,-3.7105,0.3029,8.3266,5.3812940000000005,-2.877907,8.531355,-1
877,878,1583552607530,-4.0884,-0.1669,9.0988,5.2465773,-3.4900660000000006,9.039912,-1
878,879,1583552607540,-3.9685998,-0.6074,9.1874,5.611846,-3.8874843,8.502155,-1
879,880,1583552607550,-3.4090998,-0.71459997,8.283,6.341723,-3.9788854,7.3597856,-1
880,881,1583552607561,-2.5386,-0.574,7.1292995999999995,7.1407929999999995,-3.9590422999999997,6.4864,-1
881,882,1583552607571,-1.7516999,-0.4105,6.4860997000000005,7.7571273000000005,-4.092926,6.435442,-1
882,883,1583552607581,-1.1492,-0.45769998,6.7679,8.140084,-4.3766484000000005,7.2791777,-1
883,884,1583552607591,-0.75259995,-0.6598,7.8231997,8.449301,-4.9108524000000005,8.511358,-1
884,885,1583552607601,-0.49289998,-0.9561,8.741099,8.314861,-5.2440968,9.027911999999999,-1
885,886,1583552607611,-0.6534,-1.1474999,9.1158,7.878705,-5.7863736,8.977317999999999,-1
886,887,1583552607622,-1.016,-1.6307,9.021999000000001,7.749542699999999,-6.325528599999999,8.955281,-1
887,888,1583552607632,-0.91069996,-2.0667,8.8939,8.124331,-6.903776,8.660584,-1
888,889,1583552607642,-0.4635,-2.3369999999999997,8.486199000000001,8.5046835,-7.260789999999999,8.038915,-1
889,890,1583552607653,0.0191,-2.5656,7.7254996,9.033361,-7.545230999999999,7.3069024,-1
890,891,1583552607664,0.7008,-2.5735,6.9058,9.912378,-7.1629725,6.697214,-1
891,892,1583552607674,1.5291,-2.0607998,6.325999700000001,10.286304,-6.9417386,6.5703697,-1
892,893,1583552607684,1.9908999,-1.7071999,6.1193,10.0239,-6.988214999999999,6.7952423,-1
893,894,1583552607694,1.8086,-1.6222999,6.2948,9.24928,-7.1729517000000005,6.964560499999999,-1
894,895,1583552607705,1.1105,-1.6955999,6.4329,8.253666,-7.497184299999999,6.9298444,-1
895,896,1583552607715,0.18519999,-1.9115,6.379699700000001,7.573425,-8.034692,6.3771095,-1
896,897,1583552607725,-0.41099998,-2.3402998,5.7829,7.6081023000000005,-8.648958,5.305953,-1
897,898,1583552607735,-0.28,-2.8385,4.6575,8.401588,-9.147143,4.022757,-1
898,899,1583552607745,1.6782999,-3.4652998,1.735,9.530683999999999,-9.586739,2.3648488999999997,-1
899,900,1583552607755,1.6782999,-3.4652998,1.735,10.205217,-9.726024,1.7719678,-1
900,901,1583552607766,2.9415,-3.4708,0.82189995,10.389687,-9.759044,1.9066560000000001,-1
901,902,1583552607776,2.9415,-3.4708,0.82189995,9.936205000000001,-9.679421000000001,2.3171852000000004,-1
902,903,1583552607786,2.5374,-3.2949,1.3189,8.650978,-9.46316,3.2341450000000003,-1
903,904,1583552607796,-0.030399999,-3.1025999,2.3544,7.0108255999999995,-9.665536,3.1783888,-1
904,905,1583552607806,-0.77169997,-3.1680999,1.0126,6.394232700000001,-9.767319,1.7787962,-1
905,906,1583552607816,-0.45949998,-3.2347,-0.39899999999999997,6.869577400000001,-9.952304,0.50249505,-1
906,907,1583552607827,0.7877,-3.4294998999999997,-1.4304,8.074416000000001,-10.181084,-0.33481473,-1
907,908,1583552607837,0.7877,-3.4294998999999997,-1.4304,8.80664,-10.291457000000001,-0.4343465,-1
908,909,1583552607847,2.2038,-3.908,-1.4374,9.06145,-10.905302,-0.02138501,-1
909,910,1583552607857,2.03,-4.0607,-1.2591,8.728608,-10.986061999999999,0.14211981,-1
910,911,1583552607867,1.449,-3.8356998,-1.3785,8.050042999999999,-10.784183500000001,0.05281609,-1
911,912,1583552607877,0.6796,-3.5059,-1.3639,6.989565400000001,-10.408121000000001,0.055411402,-1
912,913,1583552607888,-0.1048,-3.2529,-1.7439,6.4523835,-10.288546,-0.6954581,-1
913,914,1583552607898,0.044000000000000004,-3.1289999999999996,-3.0281,6.8021474,-10.170646000000001,-1.7530057000000001,-1
914,915,1583552607908,1.0497999,-2.8536,-4.4024997,7.8476567,-9.953586999999999,-3.0239344,-1
915,916,1583552607918,2.1807,-2.7033,-5.2637,9.007858,-9.85869,-3.7256940000000003,-1
916,917,1583552607928,2.7336,-2.7324998,-5.2358,9.212342,-9.971505,-3.404689,-1
917,918,1583552607938,2.5865,-2.8969998,-4.5414,8.921389999999999,-10.18389,-2.5184417000000003,-1
918,919,1583552607949,2.162,-3.0028,-3.4568,8.396169,-10.147478999999999,-1.5808243999999998,-1
919,920,1583552607959,1.5428,-2.7358,-3.0,7.7615229999999995,-9.826867,-1.4799421999999998,-1
920,921,1583552607969,0.9501,-2.3688,-3.2337,7.3171115,-9.488527000000001,-1.7167863,-1
921,922,1583552607979,0.51629996,-1.9166,-3.4599998,6.888472599999999,-8.932585000000001,-1.9431053,-1
922,923,1583552607989,0.3534,-1.5421,-3.7352,6.850644,-8.618139,-2.2446694,-1
923,924,1583552608000,0.4899,-1.2728,-4.2037997,7.014618400000001,-8.367486,-2.607573,-1
924,925,1583552608010,0.6283,-1.0591999,-4.3901,7.1082220000000005,-8.180537,-2.4619958,-1
925,926,1583552608020,0.63699996,-1.0291,-4.0657997,7.040131,-8.405382000000001,-1.9236645,-1
926,927,1583552608030,0.5527,-1.3699,-3.5112997999999997,6.9023495,-8.748106,-1.4802870000000001,-1
927,928,1583552608040,0.4723,-1.614,-3.1369,6.882602,-8.78945,-1.2050591999999998,-1
928,929,1583552608050,0.3672,-1.6064999,-2.9638,6.659414999999999,-8.756305000000001,-1.266686,-1
929,930,1583552608060,0.1113,-1.4467,-3.0706,6.55814,-8.49208,-1.458289,-1
930,931,1583552608070,0.1113,-1.4467,-3.0706,6.6277919999999995,-8.33821,-1.6947308999999997,-1
931,932,1583552608081,0.1973,-1.1515,-3.4389,6.7813272,-8.370388,-1.4367892,-1
932,933,1583552608091,0.3322,-1.2621,-2.9218,6.842695,-8.5060625,-0.7298868000000001,-1
933,934,1583552608101,0.36139998,-1.4,-2.2463,6.830686,-8.676031,-0.37317944,-1
934,935,1583552608111,0.3236,-1.5466,-2.1222,6.7790479999999995,-8.687735,-0.39405686,-1
935,936,1583552608121,0.2767,-1.4973999,-2.1880999,6.7617908,-8.626462,-0.50642157,-1
936,937,1583552608131,0.33699998,-1.4291999,-2.3128,6.8701525,-8.475847,-0.51937896,-1
937,938,1583552608141,0.47329998,-1.2544,-2.2573,7.0808325,-8.264544500000001,-0.38516,-1
938,939,1583552608152,0.62439996,-1.053,-2.1564999,7.0314064,-7.9951872999999996,-0.33064884,-1
939,940,1583552608162,0.48529997,-0.7969,-2.0705,6.780274,-7.840991000000001,-0.14162183,-1
940,941,1583552608172,0.1072,-0.6709,-1.8147999,6.407851,-7.784134,0.06254613,-1
941,942,1583552608182,-0.2417,-0.6533,-1.6284,6.169867,-7.767595,0.30374759999999995,-1
942,943,1583552608192,-0.37199998,-0.6529,-1.3847,6.188925299999999,-7.749629,0.7282874,-1
943,944,1583552608203,-0.3505,-0.62909997,-0.9363,6.2405057,-7.7005954,1.0939491000000001,-1
944,945,1583552608212,-0.30539998,-0.5732,-0.59029996,6.288907,-7.5669413,1.2732843,-1
945,946,1583552608222,-0.2583,-0.4285,-0.48499998,6.335632299999999,-7.383603,1.0846882,-1
946,947,1583552608232,-0.2008,-0.25509998,-0.7378,6.4793806,-7.212935000000001,0.6872604,d
947,948,1583552608242,-0.0256,-0.1114,-1.1388999,6.7287025,-7.2285832999999995,0.39730340000000003,-1
948,949,1583552608252,0.2268,-0.17369999,-1.4083999,6.9268274000000005,-7.438583400000001,0.30531818,-1
949,950,1583552608262,0.38709998,-0.4043,-1.4243,6.95982,-7.6075087,0.53044975,-1
950,951,1583552608273,0.35999998,-0.5466,-1.1712999,6.6977983,-7.668925,0.7858153,-1
951,952,1583552608283,0.0535,-0.6042,-0.9245,6.4504867,-7.6529894,1.0299568000000001,-1
952,953,1583552608293,-0.1749,-0.5941,-0.6695,6.341187000000001,-7.629775,1.2020520000000001,-1
953,954,1583552608303,-0.2739,-0.5635,-0.49699998,6.353138400000001,-7.548755,1.5329403,-1
954,955,1583552608313,-0.2514,-0.49159998,-0.124699995,6.369898,-7.5465045,1.7654843,-1
955,956,1583552608324,-0.24409999,-0.5258,0.031999997999999995,6.49636,-7.70298,1.7203201000000001,-1
956,957,1583552608334,-0.056199998,-0.67649996,-0.106,6.9446306,-7.8137550000000005,1.1994183999999999,-1
957,958,1583552608344,0.4482,-0.80649996,-0.76,7.828714,-8.049152000000001,0.17401057,-1
958,959,1583552608354,1.2168,-1.0148,-1.6360999,8.500488,-8.256317999999998,-0.5567380999999999,-1
959,960,1583552608364,1.8915,-1.2249,-2.3609,8.758372999999999,-8.633367999999999,-0.72173685,-1
960,961,1583552608374,2.1352,-1.6058999,-2.5188,8.595088,-8.826522,-0.29379728,-1
961,962,1583552608385,1.949,-1.8156999,-2.0686,8.110138000000001,-9.254087,0.37665582,-1
962,963,1583552608395,1.4455999,-2.2653,-1.3972,7.967463,-9.557568,0.9266996999999999,-1
963,964,1583552608405,1.2791,-2.5786998,-0.8606,8.634075,-9.605891,0.7672746,-1
964,965,1583552608415,1.9354,-2.6539,-1.032,9.554751,-9.673637,-0.26138937,-1
965,966,1583552608425,2.853,-2.7373,-2.0927,10.44075,-9.781999,-1.152042,-1
966,967,1583552608436,3.7405,-2.8607,-3.0254998,11.079897,-10.000964,-1.623623,-1
967,968,1583552608446,5.3841,-3.9303,-3.9447,12.322678999999999,-10.951002,-2.1104026,-1
968,969,1583552608456,6.1934,-4.586,-3.9940998999999997,13.099136,-11.549485,-2.0835016,-1
969,970,1583552608466,6.1934,-4.586,-3.9940998999999997,13.392388,-11.899096499999999,-1.7970686000000002,-1
970,971,1583552608476,6.4964,-5.4618998,-3.3799998999999996,13.360651,-12.241755,-1.5442984,-1
971,972,1583552608487,6.4964,-5.4618998,-3.3799998999999996,13.214576000000001,-12.132942,-1.3420553999999998,-1
972,973,1583552608496,6.0578,-5.2356997000000005,-2.8882,13.053092,-11.810128,-1.0275434,-1
973,974,1583552608506,5.9395,-5.0611997,-2.6464999,13.026919,-11.5944195,-0.76029307,-1
974,975,1583552608516,6.0171,-5.1934,-2.5935,13.329028,-11.719119000000001,-0.7615764,-1
975,976,1583552608526,6.6018,-5.4248,-2.7716,13.990221,-11.822214,-0.97050405,-1
976,977,1583552608536,7.2753,-5.561899700000001,-3.0272,14.706766,-11.858011,-1.2212249,-1
977,978,1583552608547,7.697,-5.7774997,-2.9375,15.177620000000001,-12.010675,-1.0361147,-1
978,979,1583552608557,7.8338,-6.0195,-1.5601,15.337342000000001,-12.082778999999999,0.56160307,-1
979,980,1583552608567,7.000099700000001,-5.9614997,0.51269996,14.33872,-11.85014,2.3778255,-1
980,981,1583552608577,4.9687,-5.7731,1.6071999,12.392263,-11.466416,3.1065054,-1
981,982,1583552608587,3.2437,-5.3062,1.9236,11.0549,-10.742985000000001,3.2864537000000005,-1
982,983,1583552608597,2.8360000000000003,-4.7113,1.9827,10.965653999999999,-9.986905,3.2432144,-1
983,984,1583552608608,3.089,-4.1584997,1.9174,11.4177475,-9.266528,3.1560655,-1
984,985,1583552608618,3.5246,-3.7192998,1.9241999,11.962591,-8.65209,3.1445157999999998,-1
985,986,1583552608628,3.6862998,-3.6538,2.1675,12.233191999999999,-8.43776,3.3996036,-1
986,987,1583552608638,3.9455998,-3.4157,2.7584999,12.6001,-8.000886,3.9215394999999997,-1
987,988,1583552608648,4.2058,-3.0259,3.9894998,12.882241,-7.592186,5.2544684,-1
988,989,1583552608658,3.9182,-3.3225,5.2890997,12.392322,-7.7250357,6.390153,-1
989,990,1583552608668,2.8558,-3.6074,6.3525996,11.187108,-7.801334,6.9430413,-1
990,991,1583552608679,1.3454,-3.8695,6.5499,9.860884,-7.7731395,6.566395,-1
991,992,1583552608689,0.3633,-3.8906,5.6271996,9.444311,-7.408492999999999,5.202475499999999,-1
992,993,1583552608699,0.5693,-3.435,4.2258997,10.103177,-6.430213,3.8160222000000004,-1
993,994,1583552608710,1.3833,-2.3736,3.2465,10.907149,-5.0116773,2.867746,-1
994,995,1583552608720,1.5744,-1.6783999,2.7963998,10.61544,-4.5213737,2.9248142,-1
995,996,1583552608730,0.89479995,-1.5644,3.1959999,9.558917,-4.210941,3.2130284,-1
996,997,1583552608740,-0.5273,-1.4567,3.2556998999999998,7.952552000000001,-3.6753104,2.7110312000000003,-1
997,998,1583552608750,-2.3277,-1.0522,2.7937,5.9655843,-2.8824944,2.2496400000000003,-1
998,999,1583552608760,-4.5049,-0.64519995,2.6104998999999998,3.9862692,-2.1659862999999997,2.0524533,-1
999,1000,1583552608770,-6.1905,-0.1653,2.544,2.991268,-1.4880347,2.0397737,-1
1000,1001,1583552608781,-6.8473997,0.4201,2.8364,2.7031686,-0.64067876,2.3877661,-1
1001,1002,1583552608791,-7.2198,1.1744,3.2092998,2.3411557999999997,0.2081902,2.4895294,-1
1002,1003,1583552608801,-7.4277997000000004,1.2933999,3.307,2.1999936,0.2664938,2.8885946,-1
1003,1004,1583552608811,-7.7081,1.0231,4.1442,1.6773107,0.18158583,4.1736107,-1
1004,1005,1583552608821,-8.327499000000001,0.649,5.4417,1.3226911,-0.530488,4.979183,-1
1005,1006,1583552608831,-8.2781,-0.51309997,5.7962,1.7897328000000001,-1.4073883999999999,4.768301999999999,-1
1006,1007,1583552608841,-7.4052997000000005,-1.2406,4.950999700000001,2.9420812,-1.2755063,3.2273552000000003,-1
1007,1008,1583552608852,-6.6113,-0.6617,2.8636,3.1701338,-0.31987494,0.22677878,-1
1008,1009,1583552608862,-6.8073997,0.13319999,-0.4987,2.6355276,0.51298165,-2.5805759999999998,-1
1009,1010,1583552608872,-7.3539,0.8326,-2.6274,2.2273259999999997,1.2832633999999998,-3.204821,-1
1010,1011,1583552608882,-7.6214,1.1832,-2.7115998,2.2348819,1.1889797,-2.1689935,-1
1011,1012,1583552608892,-7.5318,0.847,-1.4805,2.379645,0.77581716,-0.016357185,-1
1012,1013,1583552608902,-7.3992996,0.2999,0.8365,2.5552645,0.23338678,2.45172,-1
1013,1014,1583552608913,-7.1464,-0.4349,3.3197,3.2082496,-0.46724284,4.2055783,-1
1014,1015,1583552608923,-6.4606,-1.17,4.8942,3.5238913999999997,-0.65190285,4.9424653,-1
1015,1016,1583552608933,-6.2654,-1.3008,5.5197,3.2773267999999995,-0.08655518,4.747348000000001,-1
1016,1017,1583552608943,-6.5913997,-0.7603,5.0868998,2.7763355,0.62699354,3.5898754999999998,-1
1017,1018,1583552608953,-7.0855,-0.15169999,3.7608,2.4684220000000003,1.1041675,2.0581994,-1
1018,1019,1583552608965,-7.3166,0.1707,2.2203,2.5930737999999995,1.1824579,0.60272586,-1
1019,1020,1583552608973,-7.1671,0.163,0.97999996,3.3818386,1.1031715,0.0053725885,-1
1020,1021,1583552608983,-6.0579,0.0613,0.2465,5.243445400000001,1.1634862,-0.5793872,-1
1021,1022,1583552608993,-4.1165,0.1381,-0.29729998,6.817336,1.223686,-0.7520858,-1
1022,1023,1583552609003,-2.7542,0.1848,-0.40649998,7.2982830000000005,1.0552875,-0.6709606,-1
1023,1024,1583552609013,-2.4889,-0.062099997000000004,-0.2891,6.805173399999999,0.6858814000000001,-0.6656647,-1
1024,1025,1583552609024,-2.947,-0.3752,-0.2874,6.835273299999999,0.6256528,-0.3726527,-1
1025,1026,1583552609033,-2.8351998,-0.4719,0.1856,7.16892,0.60694927,0.7991271,-1
1026,1027,1583552609043,-2.5463998,-0.5322,1.4631,6.995933999999999,0.39101145,2.0077295,-1
1027,1028,1583552609053,-2.8553,-0.8488,2.5781,6.4946933,0.06652050000000001,2.1294317000000005,-1
1028,1029,1583552609063,-3.2823,-1.1234,2.4039,6.6531515,0.31306583,0.8306155999999999,-1
1029,1030,1583552609073,-2.9266,-0.7683,0.9644,7.5449720000000005,0.99659127,-0.7584735,-1
1030,1031,1583552609083,-1.9941,-0.0561,-0.5762,8.373032,1.646981,-2.2102025000000003,-1
1031,1032,1583552609094,-1.2092999,0.53569996,-1.9564999,9.051213,1.9525290000000002,-3.113123,-1
1032,1033,1583552609105,-0.67899996,0.75479996,-2.5901,9.265302,1.722245,-2.5281333999999998,-1
1033,1034,1583552609115,-0.46069998,0.5161,-1.9542999,9.357823,1.1347846000000001,-1.7091535,-1
1034,1035,1583552609125,-0.35819998,-0.075399995,-1.092,9.457585,0.6741689000000001,-1.1786463,-1
1035,1036,1583552609135,-0.2641,-0.5582,-0.524,9.542742,0.80252683,-0.62350756,-1
1036,1037,1583552609145,-0.1591,-0.5288,0.040599998,9.326497999999999,1.15729,-0.5703372,-1
1037,1038,1583552609155,-0.37759998,-0.14199999,0.17279999,8.774672500000001,1.6846178,-0.7495191999999999,-1
1038,1039,1583552609166,-1.3584,0.6106,-0.2323,8.306616,1.9786354,-1.043374,-1
1039,1040,1583552609177,-1.3584,0.6106,-0.2323,8.508448,2.0723825000000002,-1.2650675,-1
1040,1041,1583552609187,-0.83889997,0.7777,-0.65489995,8.945782000000001,2.1200657000000005,-1.4711508,-1
1041,1042,1583552609197,-0.3611,0.4806,-1.3068,9.485502,1.6899904,-2.1819797000000003,-1
1042,1043,1583552609208,0.57769996,-0.0941,-1.9156,10.529105,1.1579126,-2.7395606,-1
1043,1044,1583552609218,1.6945,-0.2412,-2.1118,11.661064,1.0812886,-2.7945504,-1
1044,1045,1583552609228,1.9803,-0.1016,-1.6594,11.579921,1.2461149999999999,-2.265231,-1
1045,1046,1583552609238,1.0531,0.033099998,-0.6604,10.200984,1.4104339,-1.0667891999999999,-1
1046,1047,1583552609248,-0.107499994,0.0346,0.1759,9.149892,1.4069766000000001,-0.33834857,-1
1047,1048,1583552609259,-0.9145,0.029399997999999997,0.8013,8.65456,1.5053495000000001,0.024181437000000004,-1
1048,1049,1583552609268,-1.0390999,0.12969999,0.6584,8.74418,1.5730766,-0.47361138,-1
1049,1050,1583552609278,-0.597,0.20600000000000002,-0.1788,9.204585,1.6493176,-1.1585158000000002,-1
1050,1051,1583552609289,-0.0981,0.3861,-0.8567,9.722729,1.8376265,-1.9544827,-1
1051,1052,1583552609299,0.2038,0.37799999999999995,-1.3745999,10.067273,1.7086938999999999,-2.2988262,-1
1052,1053,1583552609309,0.7213,0.2348,-1.3522999,10.623868,1.5070734,-2.102588,-1
1053,1054,1583552609319,1.2784,0.0095999995,-1.0184,11.113234,1.2245767,-1.8339682000000002,d
1054,1055,1583552609329,1.5816,-0.3443,-0.8854,11.332034,0.90846545,-1.6317346000000001,-1
1055,1056,1583552609339,1.5242,-0.42119998,-0.50949997,10.966286,0.9889394,-1.2891052,-1
1056,1057,1583552609350,0.81219995,-0.26929998,-0.3672,10.145688,1.1565908999999999,-1.3301132,-1
1057,1058,1583552609360,0.0431,-0.1762,-0.5458,9.5528555,1.3340969999999999,-1.4815893999999998,-1
1058,1059,1583552609370,-0.26459998,0.0929,-0.64489996,9.302882,1.7397802,-1.5624177,-1
1059,1060,1583552609380,-0.4067,0.40699998,-0.6185,9.184244,2.0010738,-1.406852,-1
1060,1061,1583552609390,-0.51089996,0.5714,-0.3498,9.0876045,2.107022,-1.0381163,-1
1061,1062,1583552609401,-0.636,0.61579996,0.0334,8.860424,2.194889,-0.68873525,-1
1062,1063,1583552609411,-0.9094,0.66679996,0.3478,8.691307,2.0912395,-0.39589563,-1
1063,1064,1583552609421,-0.8897,0.48959997,0.7,8.926475,1.8932197,0.16040193,-1
1064,1065,1583552609431,-0.68479997,0.3268,1.3426,9.006221,1.7617302,0.8687026,-1
1065,1066,1583552609441,-0.6666,0.23169999,1.8912,8.710575,1.7634061999999997,1.033663,-1
1066,1067,1583552609451,-1.2564,0.2882,1.8237,7.752032300000001,1.887943,0.8637705,-1
1067,1068,1583552609462,-2.0421999,0.39909998,1.7186999,7.196511,2.1265585,1.2005965,-1
1068,1069,1583552609472,-2.5435,0.6847,2.1502,6.6808,2.5295794,2.1157465,-1
1069,1070,1583552609482,-3.1128,1.0673,3.1360997999999998,6.0045910000000005,2.789695,3.355483,-1
1070,1071,1583552609492,-3.8181,1.2819999999999998,4.3889,5.3103584999999995,2.9309149,4.4300585,-1
1071,1072,1583552609503,-4.7381,1.4391999,5.7957997,4.114033,3.2187266,6.1026382,-1
1072,1073,1583552609513,-5.7560997,1.7009,7.126,3.2232084,3.4288703999999997,7.006957000000001,-1
1073,1074,1583552609523,-6.5407996,1.9073999,7.9293,2.9965924999999998,3.6973464,7.580808599999999,-1
1074,1075,1583552609533,-6.6717,2.2422,8.524799,2.9104395,3.9707739999999996,7.961994,-1
1075,1076,1583552609543,-6.7960997,2.5307,8.8253,2.6957562000000004,3.7547116000000003,7.7586884000000005,-1
1076,1077,1583552609554,-6.9817,2.3590999,8.6301,2.9516678,2.6724463,6.895875500000001,-1
1077,1078,1583552609564,-6.7360997000000005,1.3726,7.803499700000001,3.6599205,1.8747269,5.6367555,-1
1078,1079,1583552609574,-5.8125,0.4919,6.2671,4.8578835,1.0225348,4.268345,-1
1079,1080,1583552609584,-4.6208,-0.22199999,5.1586,5.6945705,0.08620083,4.1366634,-1
1080,1081,1583552609594,-4.003,-0.86899996,5.2847,5.9204583,-0.37095759999999994,4.8765483,-1
1081,1082,1583552609605,-3.7731,-1.2011,6.1535,5.8125186,-0.5766195,5.3907557,-1
1082,1083,1583552609615,-3.8834998999999994,-1.304,6.767299700000001,5.746812,-0.5898068000000001,4.94757,-1
1083,1084,1583552609625,-3.9329,-0.91499996,5.2903,6.0390196,-0.45662215,3.2440187999999996,-1
1084,1085,1583552609635,-3.7345998,-0.91499996,5.2903,6.371373,-0.7782017,2.284145,-1
1085,1086,1583552609645,-3.2774,-1.1553999,4.0239997,6.983695,-1.5537219,0.9522792999999999,-1
1086,1087,1583552609655,-2.0017,-2.8047,1.6269,7.740616999999999,-3.0368629,-0.7433709,-1
1087,1088,1583552609666,-1.157,-3.972,0.2058,8.622277,-4.272567700000001,-2.2975907,-1
1088,1089,1583552609676,0.0,-4.4049,-0.9896,9.770019,-4.7546550000000005,-3.4248383000000002,-1
1089,1090,1583552609686,0.99539995,-4.1995,-1.1744,10.649246,-4.594022799999999,-3.5288522000000007,-1
1090,1091,1583552609696,1.2227,-3.4907,-1.2200999,10.640609,-4.0606523,-3.6877983,-1
1091,1092,1583552609706,1.2227,-3.4907,-1.2200999,10.144233,-3.9623082000000003,-4.1605287,-1
1092,1093,1583552609716,0.29369998,-3.4008,-3.3144,9.745436,-4.57961,-6.242383,-1
1093,1094,1583552609727,0.9278,-4.1695,-5.4361997,10.592906,-5.5750519999999995,-8.389244,-1
1094,1095,1583552609737,2.4902,-5.076699700000001,-7.1322,12.185616,-6.677917,-9.996645,-1
1095,1096,1583552609747,3.8098998,-5.7627,-8.254,13.294120999999999,-7.425914,-11.0541725,-1
1096,1097,1583552609757,3.8098998,-5.7627,-8.254,13.824839,-7.50701,-11.169669,-1
1097,1098,1583552609767,4.4157,-5.2398996,-7.89,13.314874,-6.8253520000000005,-10.345135,-1
1098,1099,1583552609777,3.2851,-4.4316,-7.5597997,11.947268,-6.275738700000001,-10.422717,-1
1099,1100,1583552609787,2.1369,-4.0298,-8.2115,11.254328,-6.083226,-11.0393095,-1
1100,1101,1583552609797,2.1144,-3.7568,-9.1387,11.421969,-5.9474845,-11.915386999999999,-1
1101,1102,1583552609807,2.8286,-3.7445,-10.236899000000001,12.207689,-6.104199400000001,-13.019467,-1
1102,1103,1583552609817,3.6613,-4.0284,-11.443399000000001,13.074084,-6.564412599999999,-14.302023000000002,-1
1103,1104,1583552609828,3.9924998,-4.209,-12.4106,13.148926999999999,-6.7098173999999995,-15.159692999999999,-1
1104,1105,1583552609838,3.839,-4.1085,-13.010699,12.953224,-6.5654087,-15.199598000000002,-1
1105,1106,1583552609848,3.6215,-3.8416997999999998,-12.032,12.727719,-6.369946,-14.035279000000001,-1
1106,1107,1583552609858,2.9377,-3.6538,-10.2969,11.667854,-6.1557129999999995,-11.87118,-1
1107,1108,1583552609868,1.6215,-3.4585,-8.5566,10.50955,-5.9739933,-10.567805,-1
1108,1109,1583552609878,0.027199998,-3.1936998,-7.8610997000000005,8.719778,-5.546675700000001,-10.150084,-1
1109,1110,1583552609889,-0.95159996,-2.7921,-8.304999,8.254489,-5.2223573,-10.65483,-1
1110,1111,1583552609899,-0.5753,-2.6921,-9.316999000000001,9.146799,-5.2845297,-11.911767,-1
1111,1112,1583552609909,0.6483,-2.9243,-10.505899000000001,10.332894999999999,-5.580482,-12.877855,-1
1112,1113,1583552609920,1.4707999,-3.2205,-11.200399,10.877298,-5.937333,-13.127360000000001,-1
1113,1114,1583552609930,1.5254999,-3.6474,-10.8461,10.649859,-6.3333244,-12.253736,-1
1114,1115,1583552609940,0.9079999999999999,-3.7738998,-9.481,9.799793,-6.2726455,-10.487427,-1
1115,1116,1583552609950,-0.1855,-3.6181,-7.5877,8.452701,-5.991059,-8.2019415,-1
1116,1117,1583552609960,-1.3993,-3.3971998999999995,-6.0867,7.309172,-5.742751599999999,-7.3344164,-1
1117,1118,1583552609970,-2.3871,-3.2479,-5.8402,6.847790700000001,-5.6874933,-7.6213856,-1
1118,1119,1583552609981,-2.5087,-3.3169,-6.3476996,7.1404476,-5.7987470000000005,-7.9536915,-1
1119,1120,1583552609991,-2.1749,-3.5015,-6.6464,7.3241315,-6.042917,-7.969349,-1
1120,1121,1583552610001,-2.1034,-4.0517,-6.513999999999999,7.2805279999999994,-6.7061687,-7.4147854,-1
1121,1122,1583552610011,-2.2175,-4.4628997,-5.857599700000001,7.187891499999999,-6.9191947,-6.516078500000001,-1
1122,1123,1583552610021,-2.2728999,-4.6967,-5.1124997,7.1861105,-7.1228557,-5.6630435,-1
1123,1124,1583552610031,-2.339,-4.825,-4.2256,7.000665,-6.9164270000000005,-3.9217023999999996,-1
1124,1125,1583552610042,-2.5822,-4.587,-2.6468,6.652222,-6.5801854,-2.2251517999999995,-1
1125,1126,1583552610052,-3.1383,-4.187999700000001,-0.68689996,5.968218299999999,-6.252391,0.038307227,-1
1126,1127,1583552610062,-3.6532,-4.0238,0.92649996,5.6693263,-6.1069574,0.938393,-1
1127,1128,1583552610072,-3.9092,-3.8962998,1.5179,5.7472142999999996,-5.969645,0.9631681999999999,-1
1128,1129,1583552610082,-3.7477,-3.7587,1.3323,6.36307,-5.8012176,0.7125048,-1
1129,1130,1583552610093,-3.0016,-3.5511,0.98219997,7.2062984,-5.704808,0.62343097,-1
1130,1131,1583552610103,-1.8873999,-3.4939999999999998,0.8494,8.576739,-5.921292,1.3449093,-1
1131,1132,1583552610113,-0.7509,-3.6862,1.7923,9.439849,-6.1973910000000005,3.2200002999999997,-1
1132,1133,1583552610123,-0.0075999996999999994,-3.9155998,3.7126,9.581692,-6.197736,5.3186425999999996,-1
1133,1134,1583552610133,-0.0132,-3.7988,5.745,9.070136999999999,-5.844409,7.272608,-1
1134,1135,1583552610143,-0.5999,-3.4095,7.5565996,8.456608000000001,-5.546158999999999,8.663389,-1
1135,1136,1583552610154,-1.1366999,-3.1755998,8.7267,8.637773,-5.48096,9.413387,-1
1136,1137,1583552610164,-0.7273,-3.1032,9.2709,9.668552,-5.435412400000001,9.482705000000001,-1
1137,1138,1583552610174,0.3841,-3.0128999,9.1268,10.937412,-5.3824334,9.205447,-1
1138,1139,1583552610184,1.4499999,-2.9145,8.7879,11.732566,-5.307007,9.395814999999999,-1
1139,1140,1583552610194,2.2604,-2.8009999,8.8946,12.184159,-5.3256526,10.03795,-1
1140,1141,1583552610205,2.7226999,-2.7814999,9.472199,12.219536,-5.179051,11.084906,-1
1141,1142,1583552610215,2.7563,-2.6255999,10.4808,11.820901,-4.72082,12.101339,-1
1142,1143,1583552610225,2.3617,-2.1764997999999998,11.4876995,11.206415,-4.2052045,12.299368,-1
1143,1144,1583552610235,1.7378,-1.6931,11.6689,10.748606,-3.6133962,11.756555,-1
1144,1145,1583552610245,1.1491,-0.8322,10.370299000000001,10.658297,-3.2559035,10.974935,-1
1145,1146,1583552610257,1.1491,-0.8322,10.370299000000001,11.261778999999999,-3.1703634,10.232933000000001,-1
1146,1147,1583552610267,2.4601998,-0.64779997,8.6557,12.267727,-2.9740102000000004,9.182577,-1
1147,1148,1583552610278,2.8966,-0.40899998,8.1659,12.284687,-2.6910827,8.974215,-1
1148,1149,1583552610287,2.8966,-0.40899998,8.1659,12.014306,-2.7013586,9.029138,-1
1149,1150,1583552610297,2.2252,-0.56009996,8.3314,11.729769000000001,-2.8794584,9.145725,-1
1150,1151,1583552610307,2.2091,-0.7005,8.1723995,11.726417,-2.9441402,8.843357000000001,-1
1151,1152,1583552610317,2.055,-0.7012,7.2995,11.527889,-2.7779443,7.560295599999999,-1
1152,1153,1583552610328,1.9302,-0.4723,5.9897,11.500088,-2.4119954,6.292996400000001,-1
1153,1154,1583552610338,1.9427999,-0.1665,4.9266,11.557903,-2.0604978,5.501866000000001,-1
1154,1155,1583552610348,1.9259,0.0502,4.772599700000001,11.455134,-1.7930081000000002,5.6548843,-1
1155,1156,1583552610358,1.6538999,0.108899996,5.0197997,11.180874000000001,-1.7544998,5.735032,-1
1156,1157,1583552610368,1.4409999999999998,-0.0185,4.8402,11.058463,-1.8636081999999998,5.3911676,-1
1157,1158,1583552610378,1.6215998999999999,-0.37829998,4.2321,11.561763000000001,-2.2201432999999997,4.6550655,-1
1158,1159,1583552610389,2.4018,-0.83199996,3.6899,12.3715105,-2.5541822999999995,4.1169543,-1
1159,1160,1583552610399,3.0553,-1.0424,3.1825,12.889338,-2.54586,3.7386608,-1
1160,1161,1583552610409,3.2961,-0.93799996,3.0772998,12.897152,-2.288196,3.695757,-1
1161,1162,1583552610419,2.997,-0.774,3.1883,12.604208,-2.1476946,3.7627370000000004,-1
1162,1163,1583552610429,2.4531,-0.69369996,3.0318,11.935058,-1.9031508999999998,3.5550062999999996,-1
1163,1164,1583552610439,1.8901999,-0.7414,2.8820999,11.468283999999999,-2.1129117,3.2047442999999998,-1
1164,1165,1583552610450,1.7206999,-1.1475999,2.5242,11.604791,-2.3499281,2.869738,-1
1165,1166,1583552610460,1.9935999,-1.4004999,2.3922,11.93683,-2.5794268,2.740231,-1
1166,1167,1583552610470,2.3260999,-1.7691,2.1548,12.258925,-2.7727346,2.3016992000000003,-1
1167,1168,1583552610480,2.767,-1.8966999,1.6284,12.6746645,-2.53047,1.7969824,-1
1168,1169,1583552610490,2.8456,-1.6501,1.4577,12.305708000000001,-2.2594178,1.7053898999999997,-1
1169,1170,1583552610501,2.1598,-1.5412999,1.4771999,11.404407,-2.0841048,1.70222,-1
1170,1171,1583552610511,1.2399,-1.4796,1.5913,10.583961,-1.874497,1.7564726000000002,-1
1171,1172,1583552610521,0.4788,-1.4168999,1.6024,9.837909,-1.8309705000000003,1.2711487,-1
1172,1173,1583552610531,-0.1917,-1.5523,0.90849996,9.522737,-1.8123628,-0.066328965,-1
1173,1174,1583552610541,-0.23269999,-1.5863999,-0.18329999,10.005523,-1.6668911,-1.110651,-1
1174,1175,1583552610552,0.2965,-1.4981999,-1.0976,10.484123,-1.5355835,-1.9446664,-1
1175,1176,1583552610562,0.6895,-1.4828,-1.7513,10.601275999999999,-1.7395504000000002,-2.1301596000000003,-1
1176,1177,1583552610572,0.7795,-1.8270998999999999,-1.8016,10.4491205,-1.9940348,-2.1818457,-1
1177,1178,1583552610582,0.6066,-2.1475,-1.8404,10.216136,-2.049676,-2.3642838,-1
1178,1179,1583552610592,0.3478,-2.2805998,-1.8599999,9.771455,-1.969566,-2.1266065,-1
1179,1180,1583552610602,-0.1237,-2.2646,-1.4741,9.205993,-1.5381405000000001,-1.6070169,-1
1180,1181,1583552610613,-0.7389,-1.9379,-0.9009,8.414278,-1.0515238,-1.5473821,-1
1181,1182,1583552610623,-1.8421999,-1.4595,-0.7818,6.66472,-0.19805793,-1.2197405000000001,-1
1182,1183,1583552610633,-3.0909,-0.9984,-0.41200000000000003,5.6149874,0.23653755,-0.98168015,-1
1183,1184,1583552610643,-4.3585997,-0.6238,-0.0817,4.579638500000001,0.6367331999999999,-0.85576427,-1
1184,1185,1583552610654,-5.1366997,-0.4344,0.0645,4.6112995,0.6029941,-1.2561419,-1
1185,1186,1583552610664,-5.0931,-0.5604,-0.29299998,5.597366,0.34004366,-1.9145186,-1
1186,1187,1583552610674,-4.0912,-0.8738,-0.9073,6.664192999999999,-0.01925896,-2.8650167,-1
1187,1188,1583552610684,-3.0231,-1.2581999,-1.8224,7.0767145000000005,0.21742225,-4.0360974999999994,-1
1188,1189,1583552610694,-2.6025999,-1.0868,-2.9731,6.737972999999999,0.8561378000000001,-5.263298000000001,-1
1189,1190,1583552610704,-2.9255998,-0.509,-4.1788,6.17908,1.4943170000000001,-5.8591766,-1
1190,1191,1583552610715,-3.4710998999999996,0.0603,-4.7474,5.419611,2.0423497999999998,-5.0491033,-1
1191,1192,1583552610725,-4.218,0.5158,-3.9115998999999997,4.5609636,2.1907808999999996,-3.6492709999999997,-1
1192,1193,1583552610735,-5.0478997,0.54719996,-2.4696999,3.8808477,2.3321536,-2.450226,-1
1193,1194,1583552610746,-6.2482,0.5621,-0.2034,3.1696837,2.4260926,-1.4505702,-1
1194,1195,1583552610756,-6.2482,0.5621,-0.2034,2.9080644,2.5253751,-1.5957642,-1
1195,1196,1583552610766,-6.6134996,0.5485,-0.1933,2.9373503,2.6755586,-2.0993414,-1
1196,1197,1583552610776,-6.2128997,0.72789997,-0.97029996,3.369111,2.7774367,-2.5571127000000002,-1
1197,1198,1583552610786,-5.7924,0.68909997,-1.8089,3.7561671999999997,2.79208,-3.5057242,-1
1198,1199,1583552610796,-5.5221995999999995,0.8147,-2.7556998999999998,3.9702857000000003,2.9714534,-4.4244943,-1
1199,1200,1583552610807,-5.5358996,0.97889996,-3.4847998999999996,3.9159946000000003,3.1097328999999996,-5.0462110000000004,-1
1200,1201,1583552610817,-5.5466,0.92149997,-3.2726,3.9239051,3.0430782,-4.589311,-1
1201,1202,1583552610827,-5.5526,0.7004,-2.1195,3.8763370000000004,2.8866315,-3.4273572,-1
1202,1203,1583552610837,-5.8205,0.731,-0.9853,3.5083675000000003,3.0150757,-2.396835,-1
1203,1204,1583552610847,-6.1970997,0.904,-0.35079998,3.1615434,3.2055678,-1.9672101999999998,-1
1204,1205,1583552610858,-6.3526998,1.1104,-0.4608,3.011858,3.4598897000000006,-2.2427349999999997,-1
1205,1206,1583552610868,-6.5252,1.3449,-1.0476,2.8352425,3.5899522000000004,-2.96429,-1
1206,1207,1583552610878,-6.5579996,1.1472,-1.5129,2.9126325,3.231004,-3.4046792999999997,-1
1207,1208,1583552610888,-6.3216,0.74,-2.0167,3.1994483,2.8450873,-3.9042440000000003,-1
1208,1209,1583552610899,-6.0487,0.47129998,-2.3943,3.4565187000000006,2.5755863,-4.1170597,-1
1209,1210,1583552610909,-5.6485996,0.030399999,-2.5052,3.9658995000000004,1.9930580000000002,-4.2367215,-1
1210,1211,1583552610919,-5.2669997,-0.2652,-2.6032,4.2321153,1.7898381,-4.2933015999999995,-1
1211,1212,1583552610929,-5.295,-0.3238,-2.3665,3.9193275,1.7243615,-3.7425873,-1
1212,1213,1583552610939,-6.086,-0.35259998,-1.2785,2.6887555,1.6071126,-1.7165852,-1
1213,1214,1583552610950,-7.2506,-0.3351,0.92829996,1.5510883,1.8590209999999998,0.52437806,-1
1214,1215,1583552610960,-8.3223,0.0378,2.7868,0.7817643,2.126147,1.4630296,-1
1215,1216,1583552610970,-9.1781,0.3918,2.9739999999999998,0.0519446,2.4065654,1.0356263,-1
1216,1217,1583552610980,-9.4352,0.7236,2.2682,0.34861493,2.5543354,0.07286993,-1
1217,1218,1583552610990,-8.934199000000001,0.86329997,0.9061,1.3030393999999998,2.018111,-1.4445943,-1
1218,1219,1583552611000,-7.8139,0.1918,-0.4987,2.5506291,1.207166,-2.3890588,-1
1219,1220,1583552611010,-6.5843,-0.2296,-1.2983999,3.6760379999999997,0.95302635,-2.6579854,-1
1220,1221,1583552611021,-5.8090997,-0.1862,-1.1833999,3.6799839,0.8475378,-1.6810168,-1
1221,1222,1583552611031,-6.477999700000001,-0.1621,0.24,2.178235,0.586522,0.20183120000000002,-1
1222,1223,1583552611041,-8.2898,-0.37809998,2.2954,0.35952290000000003,0.15986563,2.6590290000000003,-1
1223,1224,1583552611051,-10.0116,-0.5894,4.8279,-1.1752753,-0.18108785,4.784036,-1
1224,1225,1583552611061,-11.3024,-0.7822,6.199,-1.6576113000000001,-0.51256984,5.058929,-1
1225,1226,1583552611072,-11.0449,-0.7226,5.6626997,-0.22761197,-0.46182236,3.428286,-1
1226,1227,1583552611082,-9.0968,-0.4534,3.2588,2.5489724,-0.8380185,0.46611276,-1
1227,1228,1583552611092,-6.7454996,-0.5582,0.92789996,4.7032557,-1.4488273,-0.6616233,-1
1228,1229,1583552611102,-4.7816,-0.9155,0.060599997999999995,5.3508015,-2.4311776000000003,-0.27945122,-1
1229,1230,1583552611112,-4.4516,-1.7156,0.6401,4.477405999999999,-4.1222506,0.8478346999999999,-1
1230,1231,1583552611122,-5.4936,-3.0958,1.7818999,3.2682097000000003,-5.4442997,1.7071328000000001,-1
1231,1232,1583552611133,-6.5266,-4.086,2.5428998,3.4025053999999995,-6.5669026,1.8011291,-1
1232,1233,1583552611143,-5.9124,-4.841,2.5444999,5.222654299999999,-7.070059,1.7040874,-1
1233,1234,1583552611153,-3.9419,-4.8733,2.405,6.7390075,-7.441944599999999,1.0786071000000002,-1
1234,1235,1583552611163,-2.4856,-5.0467997,1.5306,7.7487187,-8.397164,0.20895635,-1
1235,1236,1583552611173,-1.4439,-5.6619997,0.85069996,8.352575,-9.625266,0.91988105,-1
1236,1237,1583552611184,-0.8429,-6.6368,1.6230999,8.376785,-11.599103,2.0035064,-1
1237,1238,1583552611194,-0.7125,-7.9023,2.3981,8.2816105,-12.426213,2.6354702000000003,-1
1238,1239,1583552611204,-0.6526,-8.3492,2.9078,9.042019,-13.60871,2.2542176,-1
1239,1240,1583552611215,0.285,-9.1707,2.4129,11.346716,-13.591394000000001,0.38890454,-1
1240,1241,1583552611225,2.7728999,-8.8039,0.445,13.897881,-12.837133999999999,-1.0910951999999998,-1
1241,1242,1583552611235,5.5106,-7.7261,-1.0942,14.352741,-13.168301000000001,-1.7815828000000002,-1
1242,1243,1583552611245,6.1440997,-7.7716,-1.8247999,13.717454,-14.252903,-0.0045872903000000005,-1
1243,1244,1583552611256,5.6927,-8.6012,-0.039499998,12.662061999999999,-15.205489000000002,2.4996134999999997,-1
1244,1245,1583552611266,4.995,-9.161799,2.1469,12.29935,-15.459732999999998,3.106017,-1
1245,1246,1583552611276,4.7464,-9.572000000000001,2.8277,12.285559,-16.089237,2.8647007999999996,-1
1246,1247,1583552611286,5.8252,-9.8045,2.0744998,13.304186999999999,-16.413057000000002,2.3420558,-1
1247,1248,1583552611296,5.8252,-9.8045,2.0744998,14.0832205,-15.765799,2.2453972999999996,-1
1248,1249,1583552611306,7.4198,-7.7739,0.87149996,14.189294,-14.719045000000001,1.4578868,-1
1249,1250,1583552611317,7.8222,-6.9477997,-0.1645,14.501191,-14.036534,0.65895134,-1
1250,1251,1583552611327,8.851399,-5.9872,-0.7431,15.390935,-13.260239000000002,0.35689887,-1
1251,1252,1583552611337,9.334,-5.6045,-0.4455,15.475039,-13.149712,0.8901259,-1
1252,1253,1583552611347,8.6308,-5.7212996,0.8193,14.4692135,-13.378157999999999,2.1738777000000002,-1
1253,1254,1583552611357,7.535599700000001,-5.6274,1.808,13.313685999999999,-13.31905,2.989611,-1
1254,1255,1583552611367,6.7679,-5.5028,2.0233,12.504724000000001,-13.361254,2.9354637,-1
1255,1256,1583552611379,6.5933,-5.9007998,1.0811,12.602244,-13.86307,1.7083203999999999,-1
1256,1257,1583552611389,7.5146,-5.8292,0.19569999,13.551248999999999,-13.670567000000002,0.95484596,-1
1257,1258,1583552611399,8.3939,-5.4119,-0.622,13.978364000000001,-13.253534,0.099273175,-1
1258,1259,1583552611409,8.2455,-4.6962,-1.4192,13.088985000000001,-12.223874,-0.2932897,-1
1259,1260,1583552611419,7.2465997,-3.7038998999999997,-1.2816,12.129754,-11.488434,0.08707233,-1
1260,1261,1583552611429,6.173899700000001,-2.8913,-0.65489995,11.084838000000001,-10.774472,0.87882525,-1
1261,1262,1583552611439,5.2205,-2.165,0.1961,10.100457,-9.952103,1.802786,-1
1262,1263,1583552611450,4.4902,-1.5328,0.9166,9.185125,-9.402375,2.1933377,-1
1263,1264,1583552611460,3.4782,-1.0129,1.0116,8.115434,-9.079245,1.7272537000000001,-1
1264,1265,1583552611470,2.5121,-0.7513,0.3328,7.55565,-8.782114,1.0167025,-1
1265,1266,1583552611480,2.3141,-0.5381,-0.1696,7.829892,-8.834116,0.62200403,-1
1266,1267,1583552611490,2.8457,-0.6662,-0.7157,8.445613,-8.796555499999998,-0.23269725,-1
1267,1268,1583552611501,3.3744,-0.3946,-1.5985,8.598901,-8.452364999999999,-0.9225721,-1
1268,1269,1583552611511,3.2156,-0.109799996,-1.9386,8.221210000000001,-8.291723,-0.8241799999999999,-1
1269,1270,1583552611521,2.4266,0.1091,-1.4862,7.178793400000001,-7.9975815,-0.10434888,-1
1270,1271,1583552611531,1.6116999,0.2852,-0.77529997,6.518520400000001,-7.889814,0.7258645,-1
1271,1272,1583552611541,1.0329,0.3533,0.1178,6.142899,-7.814339,1.4465288,-1
1272,1273,1583552611551,0.74469995,0.3946,0.5786,5.9657855,-7.9666104,1.5005037,d
1273,1274,1583552611562,0.6314,0.106199995,0.48479998,6.1107497,-8.474985,1.1657655,-1
1274,1275,1583552611572,0.90749997,-0.3558,0.1329,6.7370634,-8.758344000000001,0.9063011000000001,-1
1275,1276,1583552611582,1.5490999,-0.5625,-0.1118,7.0002627,-8.709483,0.69779485,-1
1276,1277,1583552611592,1.6552999,-0.45999998,-0.41169998,6.5556399999999995,-8.496658,0.410529,-1
1277,1278,1583552611602,1.1034,-0.2669,-0.67429996,6.0549935999999995,-8.331468,0.43635765,-1
1278,1279,1583552611612,0.5632,-0.1566,-0.6446,5.842398,-8.335997,0.5173390999999999,-1
1279,1280,1583552611622,0.52,-0.184,-0.5133,5.982372799999999,-8.335768,0.7483795999999999,-1
1280,1281,1583552611633,0.5732,-0.21079999,-0.3004,5.8180156,-8.419497999999999,1.2914898000000001,-1
1281,1282,1583552611643,0.33969998,-0.3067,0.3531,5.490747,-8.489897000000001,2.0452611000000003,-1
1282,1283,1583552611653,-0.0123,-0.42249998,1.0397,5.3365893,-8.636842999999999,2.2651063999999996,-1
1283,1284,1583552611663,-0.1264,-0.5572,1.1506,5.5831637,-8.780275,2.014855,-1
1284,1285,1583552611674,0.1964,-0.74869996,0.85679996,6.089652,-8.828763,1.8026136000000001,-1
1285,1286,1583552611684,0.65029997,-0.773,0.6386,6.32911,-8.840378999999999,1.4256799999999998,-1
1286,1287,1583552611694,0.7996,-0.8093,0.2622,6.357774,-8.9380245,0.88692725,-1
1287,1288,1583552611704,0.8082,-0.92759997,-0.3175,6.6118654999999995,-8.911257,0.19033903,-1
1288,1289,1583552611714,1.0383999,-0.92139995,-1.0536,6.964982000000001,-8.787199000000001,-0.3172413,-1
1289,1290,1583552611725,1.3619999999999999,-0.8190000000000001,-1.5726,7.158807,-8.6618,-0.0637528,-1
1290,1291,1583552611735,1.5214,-0.7188,-1.3165,6.803468700000001,-8.733761,0.9887094999999999,-1
1291,1292,1583552611745,0.6644,-0.9184,0.9532,6.3570843,-8.825486999999999,2.3858888,-1
1292,1293,1583552611756,0.6644,-0.9184,0.9532,6.625914999999999,-8.973458,2.796332,-1
1293,1294,1583552611766,1.3816,-1.3701,1.4266,7.360427400000001,-9.268328,2.5842247000000005,-1
1294,1295,1583552611776,1.3816,-1.3701,1.4266,8.127443,-9.509798,1.7787004000000002,-1
1295,1296,1583552611786,3.3323,-2.0572999,-0.8479,9.384428,-9.877672,0.35579753,-1
1296,1297,1583552611796,4.2974,-2.2924,-1.6089,10.31086,-10.0698395,-0.25728092,-1
1297,1298,1583552611807,4.6674,-2.4482,-1.6811999,10.563343,-10.214929,-0.056340355,-1
1298,1299,1583552611817,4.4396,-2.6641,-1.0728999,10.370724000000001,-10.354385,0.6135956,-1
1299,1300,1583552611827,4.1665,-2.6643999,0.1113,10.202124000000001,-10.18797,2.0328784,-1
1300,1301,1583552611838,4.0018997,-2.5548,1.0855,10.080374,-10.0592575,2.717668,-1
1301,1302,1583552611848,3.7858,-2.5386,1.2874,9.973746,-9.931868,2.6353167999999996,-1
1302,1303,1583552611858,3.7882,-2.4456,0.82,10.201042,-9.760633,2.0395823,-1
1303,1304,1583552611868,4.1979,-2.3319,-0.0082,10.891903,-9.623206,1.1825823999999998,-1
1304,1305,1583552611878,4.9144,-2.4129999,-0.8045,11.692449,-9.649550999999999,0.30591193,-1
1305,1306,1583552611889,5.547999999999999,-2.497,-1.5488,12.285482,-9.674452,-0.13849978,-1
1306,1307,1583552611899,5.7572,-2.6381,-1.4432,12.356139,-9.769176,0.28425878,-1
1307,1308,1583552611909,5.3820996,-2.9088,-0.53569996,11.920778,-9.959419,1.2657666,-1
1308,1309,1583552611919,4.671,-3.0944998,0.29709998,11.337369,-9.940026,1.6290052,-1
1309,1310,1583552611929,4.1802998,-3.0851998,-0.0029,11.134618,-9.752110499999999,0.9107064,-1
1310,1311,1583552611939,4.0717998,-2.8773,-0.78389996,11.303524000000001,-9.322428,0.33287063,-1
1311,1312,1583552611950,4.1205997000000005,-2.5273,-0.73139995,11.303486,-8.869139,0.67599803,-1
1312,1313,1583552611960,3.6682,-2.2913,-0.027199998,10.739777,-8.46469,1.5426416,-1
1313,1314,1583552611970,2.9993,-2.1109,0.7678,10.176544999999999,-8.078544,2.0678337,-1
1314,1315,1583552611980,2.3119,-1.837,1.058,9.718399,-7.8070892999999995,1.8054866999999999,-1
1315,1316,1583552611990,1.8532,-1.9078,0.6627,9.56475,-7.935074,1.265326,-1
1316,1317,1583552612000,1.7322999,-2.2128,0.28599998,9.889346000000002,-8.150658,0.82512814,-1
1317,1318,1583552612010,2.0765998,-2.6648998,-0.015999998999999997,10.423109,-8.350515,0.69987303,-1
1318,1319,1583552612021,2.4513,-2.8489999999999998,0.1783,10.673342,-8.062942999999999,1.1371213,-1
1319,1320,1583552612031,2.3230999,-2.4592,1.0023999,10.194033000000001,-7.3195820000000005,1.9780128000000001,-1
1320,1321,1583552612041,1.4654,-1.8715998999999999,1.8106999,9.435951,-6.651675999999999,2.3674345000000003,-1
1321,1322,1583552612052,0.31419998,-1.2863,2.1276999,8.169179,-6.027699500000001,2.2108922000000004,-1
