,Seq,Time,ACCx,ACCy,ACCz,ADGx,ADGy,ADGz,Keydown
0,1,1583938107873,-0.35799998,-0.3128,0.3839,6.507919,-6.934307,3.7949917,-1
1,2,1583938107883,0.7202,0.049799997,-0.0464,10.425858,0.54880846,-0.22933578,-1
2,3,1583938107893,0.5629,-0.43799999999999994,1.1941,10.27033,0.083940715,0.99093133,-1
3,4,1583938107903,0.3073,-0.701,1.9296999,10.017942999999999,-0.033729516,1.3611325,-1
4,5,1583938107913,-0.0481,-0.7004,1.5551,9.676061,0.03517561,0.719879,-1
5,6,1583938107923,-0.1117,-0.5085,0.8289,9.666742,0.25209028,0.16499881,-1
6,7,1583938107933,-0.098299995,-0.2731,0.4024,9.722671,0.461717,0.044455536,-1
7,8,1583938107943,-0.0058999998,-0.073,0.4173,9.838664999999999,0.56043476,0.21370643,-1
8,9,1583938107953,0.13699999999999998,-0.0341,0.4716,9.963222,0.5705191,0.30043402,-1
9,10,1583938107963,0.2816,-0.0213,0.486,10.088419,0.5449874,0.37720168,-1
10,11,1583938107973,0.3683,-0.043899997999999996,0.36069998,10.176688,0.4816751,0.22678836,-1
11,12,1583938107983,0.3777,-0.1249,0.1108,10.183584,0.3762919,0.010333375,-1
12,13,1583938107993,0.41619998,-0.26029998,0.0557,10.256913,0.28086859999999997,0.026594793,-1
13,14,1583938108003,0.5237,-0.19469999,0.0501,10.357575,0.3739743,-0.010764331,-1
14,15,1583938108014,0.5728,-0.059299998,0.045199998,10.290192999999999,0.5383793,0.069834076,-1
15,16,1583938108024,0.2302,0.066199996,0.1936,9.846537,0.6583767,0.24013843,-1
16,17,1583938108034,-0.19029999,0.1435,0.3755,9.493382,0.7449701999999999,0.42524853,-1
17,18,1583938108044,-0.4143,0.2341,0.5078,9.394186999999999,0.88193774,0.57728994,-1
18,19,1583938108054,-0.37289998,0.3478,0.48169997,9.501285000000001,1.0303878,0.43708545,-1
19,20,1583938108065,-0.1838,0.4743,0.2972,9.644534,1.1612836000000002,0.35687009999999997,-1
20,21,1583938108075,-0.1608,0.4594,0.2321,9.601716,1.1390941,0.4017949,-1
21,22,1583938108085,-0.2058,0.3822,0.4078,9.603850999999999,1.1447253000000002,0.65243906,-1
22,23,1583938108095,-0.1034,0.38529998,0.5247,9.761132,1.1679298999999999,0.8639142,-1
23,24,1583938108107,0.087,0.3854,0.9632,9.920096000000001,1.2909056,1.4770789,-1
24,25,1583938108117,0.07200000000000001,0.4249,1.2587,9.618399,1.3178357,1.5259205,-1
25,26,1583938108127,-0.36249998,0.3663,1.112,9.030114999999999,1.34829,1.3185635,-1
26,27,1583938108137,-0.7895,0.3511,0.76489997,8.895551,1.4307653999999999,0.971251,-1
27,28,1583938108147,-0.8249,0.3829,0.37309998,8.997966,1.4481952,0.72168905,-1
28,29,1583938108157,-0.67509997,0.4008,0.0515,9.219275,1.4841369,0.4406959,-1
29,30,1583938108168,-0.3886,0.42929998,0.0242,9.550327000000001,1.5941839,1.2007208,-1
30,31,1583938108178,-0.1803,0.5121,0.8757,9.4061,1.571688,2.1231014999999998,-1
31,32,1583938108188,-0.4028,0.4141,1.7933999,8.970097,1.3970646,2.704701,-1
32,33,1583938108199,-0.8408,0.1987,2.2368999,8.57129,1.2846328000000002,2.6053797999999997,-1
33,34,1583938108209,-1.1516,0.096,2.0974998,8.515208,1.3370084999999998,2.3716004,-1
34,35,1583938108219,-1.1881,0.14649999,1.8032,8.562249000000001,1.4303535,2.039764,-1
35,36,1583938108229,-1.166,0.24049999,1.4274,8.57921,1.5425459,1.6568738,-1
36,37,1583938108239,-1.1438,0.3187,1.0992,8.613792,1.5756625,1.5117947,-1
37,38,1583938108250,-1.1022999,0.37829998,0.92209995,8.514662,1.6480918000000002,1.7017411,-1
38,39,1583938108260,-1.1982,0.39749998,1.1043999,8.144911,1.6383809999999999,2.1414986000000003,-1
39,40,1583938108270,-1.569,0.37539998,1.5409,7.5954804000000005,1.5970284,2.6390042,-1
40,41,1583938108280,-2.1167998,0.3234,2.0454,7.155263000000001,1.520749,2.9203900000000003,-1
41,42,1583938108290,-2.5574,0.2358,2.3281999,6.882467699999999,1.4852861000000002,3.0983174,-1
42,43,1583938108300,-2.832,0.20289999,2.5216,6.552413,1.4943745000000002,3.1578372000000003,-1
43,44,1583938108311,-3.7159,0.2136,2.2753,5.8803225,1.4913961000000002,2.750593,-1
44,45,1583938108321,-3.7159,0.2136,2.2753,5.535902,1.4695610000000001,2.4045252999999995,-1
45,46,1583938108331,-4.1710997,0.2111,1.4599,5.5943303,1.4314931999999998,1.9710792000000001,-1
46,47,1583938108341,-3.8616,0.1549,1.162,5.930725,1.35734,1.7034650000000002,-1
47,48,1583938108352,-3.5928998,0.15439999,0.9953,6.16076,1.3189082,1.5361965,-1
48,49,1583938108362,-3.7366,0.1355,0.8803,5.8947067,1.255414,1.4236209999999998,-1
49,50,1583938108372,-3.7366,0.1355,0.8803,5.496982,1.1502702,1.4904193000000001,-1
50,51,1583938108382,-5.3781,-0.0814,1.2581999,4.1306586,0.9420129999999999,1.6767839,-1
51,52,1583938108392,-6.5028,-0.25439999,1.1281999,2.9066853999999998,0.5828445,1.4275571000000002,-1
52,53,1583938108403,-7.2158,-0.731,1.0009,2.487652,0.12359827,1.2984905,-1
53,54,1583938108412,-7.0569,-1.0814999,0.6767,2.9202366,-0.21542068,0.8264497,-1
54,55,1583938108422,-7.0569,-1.0814999,0.6767,4.1057205,0.033997666,0.35649663,-1
55,56,1583938108432,-4.4755,-0.2514,-0.2714,5.376697,0.44122267,-0.13478398,-1
56,57,1583938108442,-4.6597,-0.3193,-0.45069999,4.994448,0.1593868,-0.28688282,-1
57,58,1583938108453,-5.3918,-0.7154,-0.2954,4.1774510000000005,-0.53483593,-0.08473559,-1
58,59,1583938108463,-5.9656,-1.7192,-0.0708,3.7623347999999996,-1.8785098000000002,-0.26027843,-1
59,60,1583938108473,-5.9656,-1.7192,-0.0708,3.8891699999999996,-2.7478924,-0.88750184,-1
60,61,1583938108483,-5.4999,-3.5068998,-1.5115,4.5870514,-3.6190752999999996,-2.0435470000000002,-1
61,62,1583938108493,-4.6758,-3.6193,-2.3260999,5.5162983,-3.4563940000000004,-2.766299,-1
62,63,1583938108503,-3.8992,-2.7545,-2.6069,6.184386,-2.5790722,-2.6446927000000002,-1
63,64,1583938108514,-3.5625,-1.8673999,-1.9351,6.19108,-2.0587358,-1.9722381000000002,-1
64,65,1583938108524,-4.1849,-1.4121,-0.6799,5.167022,-1.9863925999999998,-0.5340698,-1
65,66,1583938108534,-5.2559,-1.8432,-0.0447,4.273516000000001,-2.7556496,-0.35483027,-1
66,67,1583938108544,-5.627000000000001,-2.5026,-0.5142,4.332987999999999,-3.6511097,-1.2763585,-1
67,68,1583938108554,-4.8554997,-3.5202,-2.0176,5.444482,-4.9670396,-2.9610912999999996,-1
68,69,1583938108565,-3.3720999,-4.3807,-3.468,7.0788116,-5.851879,-4.180726,-1
69,70,1583938108575,-1.4611,-4.8187,-4.5769997,8.94126,-6.2652335,-5.1588535,-1
70,71,1583938108585,-0.017099998999999998,-4.5864997,-5.1579,9.902169,-6.011735400000001,-5.4541445,-1
71,72,1583938108595,0.2315,-3.9705,-5.0565,9.462363999999999,-5.401482,-4.5571427,-1
72,73,1583938108605,-0.61869997,-3.2192,-3.6675,8.471873,-4.977344,-3.0922647,-1
73,74,1583938108615,-2.0269999999999997,-2.7233999,-1.9670999,6.7568107,-4.858477,-1.4531943,-1
74,75,1583938108626,-3.1266,-2.6917,-1.2595999,6.3446918,-5.305550599999999,-1.4741004999999998,-1
75,76,1583938108636,-2.8634,-3.1297998,-1.8046,7.2070355,-6.0185156,-2.1316056,-1
76,77,1583938108646,-0.9996,-4.1618,-3.1875,9.751737,-7.4793330000000005,-4.014473000000001,-1
77,78,1583938108656,1.3149998999999999,-4.7516,-4.8672,11.930442,-7.6185985,-4.966321499999999,-1
78,79,1583938108666,3.2122998,-4.357199700000001,-5.3643,12.948053,-7.428011,-4.8605933,-1
79,80,1583938108676,3.5786998,-4.1493,-5.1369,12.114364,-7.469325,-4.3940980000000005,-1
80,81,1583938108687,2.3039,-3.9359,-4.6282997,10.268194,-7.4888997,-3.3859470000000003,-1
81,82,1583938108697,0.93259996,-3.8899,-3.8032,9.588835000000001,-7.684382,-2.520491,-1
82,83,1583938108707,0.4818,-3.9663,-2.9129,9.591478,-8.084185,-2.147551,-1
83,84,1583938108717,0.9271,-4.323,-3.3346,10.581328,-8.7472925,-3.1370362999999997,-1
84,85,1583938108728,2.5333997999999998,-4.697,-4.7176,12.855953,-9.400412,-4.668617,-1
85,86,1583938108738,4.4968,-5.0976,-6.0361,14.357826000000001,-9.728685,-5.4314290000000005,-1
86,87,1583938108748,5.9581,-5.1026998,-6.6591997,14.868845,-9.378654,-5.4184613,-1
87,88,1583938108758,6.3610997000000005,-4.5195,-6.5589,14.367384,-9.02957,-4.826289,-1
88,89,1583938108769,5.7948,-4.045099700000001,-5.8827996,13.544717000000002,-8.672095,-3.7122386,-1
89,90,1583938108779,5.0878,-3.5542,-4.8476,12.790610000000001,-8.584707,-3.6114616,-1
90,91,1583938108789,4.5615,-3.3985999,-4.9519997,12.78631,-8.98633,-5.002895,-1
91,92,1583938108799,4.6622,-3.6596,-6.3942,14.048561999999999,-9.577285,-6.740568,-1
92,93,1583938108809,6.0285997,-4.098,-8.189899,15.358007999999998,-9.777978,-7.7322273,-1
93,94,1583938108819,7.7612,-4.1898,-9.3771,16.487719,-9.97705,-8.02319,-1
94,95,1583938108829,9.0931,-4.2808,-9.3336,17.23219,-10.208589,-6.850156,-1
95,96,1583938108839,9.524099,-4.3018,-8.3152,16.995586,-10.643338,-5.463923,-1
96,97,1583938108850,9.2189,-4.785599700000001,-6.4272,16.19391,-11.622815,-2.9212613,-1
97,98,1583938108861,8.4206,-5.8057,-2.9784,15.969594,-11.9663925,-1.6932369999999999,-1
98,99,1583938108871,8.4206,-5.8057,-2.9784,16.029554,-11.924475,-1.604977,-1
99,100,1583938108881,8.5568,-5.7367,-2.7451,16.069086,-12.02935,-1.6547381999999997,-1
100,101,1583938108891,8.5568,-5.7367,-2.7451,16.315727,-12.180386,-1.2416521,-1
101,102,1583938108901,8.8647995,-5.865,-2.2309,16.485899,-12.276145,-0.46479118,-1
102,103,1583938108911,9.0458,-5.9268,-1.3935,16.473974,-12.283059,0.29449640000000005,-1
103,104,1583938108922,9.0372,-5.9161,-0.74979997,16.295109,-12.38758,1.1649419,-1
104,105,1583938108932,8.0648,-5.9268,1.7188,15.356400500000001,-12.181497,2.6445682,-1
105,106,1583938108942,6.9224997,-5.589699700000001,2.6057,14.241056,-11.767483,3.3640258000000003,-1
106,107,1583938108952,5.9448,-5.2797,3.2347,13.467088,-11.388059,3.9192507000000005,-1
107,108,1583938108962,5.617999999999999,-4.8626,3.8871,13.290559,-10.858260000000001,4.445380999999999,-1
108,109,1583938108973,5.4054,-4.5614,4.061,13.053187,-10.424871000000001,4.4681745,-1
109,110,1583938108983,4.9526,-4.319,4.1603,12.569875,-10.11328,4.6442533,-1
110,111,1583938108993,4.3382,-4.1259,4.6123,12.012782000000001,-9.786021,5.194086599999999,-1
111,112,1583938109003,3.6218998,-3.7853,5.3684,11.5066,-9.361071,5.744638,-1
112,113,1583938109013,2.9234998,-3.4325,5.9133,10.786166,-8.789066,6.255618,-1
113,114,1583938109024,2.392,-3.1336,6.3134,10.539189,-8.451772,6.483306400000001,-1
114,115,1583938109034,2.372,-2.9652,6.2637997,10.774865,-8.101366,6.213796599999999,-1
115,116,1583938109044,2.5391,-2.7226,5.8048,10.916545,-7.7585063,5.5727057,-1
116,117,1583938109054,2.3614,-2.6747,5.0186,10.638617,-7.596686999999999,4.809510700000001,-1
117,118,1583938109064,1.7878,-2.6299,4.589699700000001,10.155399000000001,-7.308942299999999,4.6453739999999994,-1
118,119,1583938109075,1.2401999,-2.2949,4.9097,9.705769,-6.690434,5.103432700000001,-1
119,120,1583938109085,0.7018,-1.8238,5.5299,9.2651205,-6.085955599999999,5.660046,-1
120,121,1583938109095,0.087,-1.6544,6.1129,8.474631,-5.8529706,6.2362633,-1
121,122,1583938109105,-0.7683,-1.6939,6.561,7.773657000000001,-5.6375504,6.2977557,-1
122,123,1583938109115,-1.4109,-1.6514,6.528,7.4832883,-5.377109,6.079395,-1
123,124,1583938109126,-1.5648999,-1.6299,6.3206,7.5718255,-5.366996,5.721223,-1
124,125,1583938109136,-1.5252999,-1.8542999,5.8591,7.712422999999999,-5.370271,5.016533,-1
125,126,1583938109146,-1.4508,-1.9842999,5.0376,7.923678,-5.3098893,4.0168767,-1
126,127,1583938109156,-1.1958,-2.0521,3.9454,8.322455999999999,-5.058143599999999,3.0510077,-1
127,128,1583938109166,-0.8206,-1.8267,3.2254,8.656369999999999,-4.399259,2.7054669999999996,-1
128,129,1583938109176,-0.75799996,-1.2263,3.0477998,8.370042999999999,-3.653638,2.690355,-1
129,130,1583938109187,-1.3812,-0.7464,3.2489998,7.40562,-3.0714831,3.3465865,-1
130,131,1583938109197,-2.5414999,-0.434,4.0648,6.3751845000000005,-2.7803385,3.8880496,-1
131,132,1583938109207,-3.3823998,-0.494,4.3518,5.9930987,-2.738507,3.8699779999999997,-1
132,133,1583938109217,-3.5688,-0.6409999999999999,4.3423,6.5069995,-2.535134,3.8045014999999998,-1
133,134,1583938109227,-2.9211,-0.5628,4.377,7.3808737,-1.9113581999999998,3.7269964,-1
134,135,1583938109238,-2.1590000000000003,0.0072,4.2401,7.442021400000001,-1.1174409,3.2422087000000004,-1
135,136,1583938109248,-2.3327,0.6376,3.7108998,6.669556599999999,-0.38541859999999994,2.5977664000000003,-1
136,137,1583938109258,-3.2003,1.1735,3.0628998,5.788797,-0.16097654,1.9505084,-1
137,138,1583938109268,-4.0833,1.0825,2.3332,5.3365893,-0.6129348000000001,1.0778983,-1
138,139,1583938109278,-4.3238,0.44869998,1.5425,6.1859856,-1.1833677,0.5355925,-1
139,140,1583938109288,-3.2842,-0.2331,1.0570998999999999,7.480778699999999,-1.7652067,-0.04414908,-1
140,141,1583938109299,-2.0356,-0.8635,0.5129,8.476364,-2.0285497,-0.6575436,-1
141,142,1583938109309,-1.1692,-1.1151999,-0.028999999999999998,8.287481,-1.4672147,-0.9509865,-1
142,143,1583938109319,-1.4715999,-0.68759996,-0.2066,7.079108,-1.0236074,-0.83882296,-1
143,144,1583938109329,-3.0498998,-0.27989998,-0.035299998,5.0886073,-0.61022455,-0.31739452,-1
144,145,1583938109339,-4.6858997,-0.0967,0.4271,4.0828896,-0.5754416,0.049837705,-1
145,146,1583938109349,-5.6914,-0.1986,0.7873,3.936757,-0.46267468,0.07864474,-1
146,147,1583938109360,-5.8415,-0.2391,0.83959997,4.381399,-0.14747325,-0.26477,-1
147,148,1583938109370,-5.4007,0.0218,0.52239996,4.8884044,0.26143727,-0.7730111,-1
148,149,1583938109380,-4.8907,0.3426,0.024699999,5.084642400000001,0.9476155,-1.1933755,-1
149,150,1583938109390,-4.7044,0.9598,-0.39299998,4.9088316,1.3040451000000002,-1.5565280000000001,-1
150,151,1583938109400,-4.8714,1.2725999,-0.76,4.890827,1.2271816999999998,-1.5042195,-1
151,152,1583938109411,-4.891,1.1642,-0.71239996,5.2620053,1.1235701,-1.6050824,-1
152,153,1583938109421,-4.5178,1.0288,-0.8063,5.78691,0.7888703,-2.0920534,-1
153,154,1583938109431,-3.9975998,0.67759997,-1.2839,6.3807197,0.5092371,-2.6071804,-1
154,155,1583938109441,-2.8302999,0.4096,-2.3523,7.021236,0.5990484,-3.2473228,-1
155,156,1583938109451,-2.8302999,0.4096,-2.3523,7.103739999999999,0.85346586,-3.3991629999999997,-1
156,157,1583938109462,-2.7925,0.95309997,-2.5046,6.9784755999999994,1.1738676000000001,-3.2701826,-1
157,158,1583938109472,-2.7742,1.1759,-2.3102,7.0238119999999995,1.4148582,-2.9954240000000003,-1
158,159,1583938109482,-2.7066998,1.1467999,-1.8693999,7.095159,1.2891628000000002,-2.4749822999999997,-1
159,160,1583938109492,-2.5795,0.5825,-1.0449,7.2462716,0.6562986,-1.6021135,-1
160,161,1583938109502,-2.3535,-0.1042,-0.493,7.503447,0.030214823999999998,-1.2135347,-1
161,162,1583938109513,-1.9215,-0.39249998,-0.7421,8.071821,-0.18666154,-1.6987627,-1
162,163,1583938109523,-1.4117998999999999,-0.3321,-1.2354,8.542817999999999,0.041074924,-2.0921588,-1
163,164,1583938109533,-1.0800999,0.12239999,-1.4240999,8.7367,0.48909712,-2.1368248,-1
164,165,1583938109543,-1.0633,0.6256,-1.3366,8.644926,0.9605633,-1.8621047999999998,-1
165,166,1583938109553,-1.3212999,0.7559999999999999,-1.0181999,8.346513,0.9594428,-1.5787941,-1
166,167,1583938109564,-1.5883,0.6051,-0.9644,8.191809,0.67599803,-1.5704813999999998,-1
167,168,1583938109574,-1.5110999,0.1762,-0.9119,8.431641,0.14990576,-1.408844,-1
168,169,1583938109584,-1.1187999,-0.29600000000000004,-0.6985,8.892352,-0.30063513,-1.2041686000000003,-1
169,170,1583938109594,-0.6077,-0.7176,-0.4296,9.340394,-0.6861303000000001,-0.9437464,-1
170,171,1583938109604,-0.2631,-0.9382,-0.364,9.604561,-0.7559644,-1.199859,-1
171,172,1583938109614,-0.2131,-0.8135,-0.6421,9.506829,-0.56842184,-1.2983948,-1
172,173,1583938109625,-0.4578,-0.5402,-0.44849998,9.083525,-0.23993732,-0.8580148000000001,-1
173,174,1583938109635,-0.8792,-0.2723,-0.023599999,8.740474,-0.05803545,-0.5350179,-1
174,175,1583938109645,-1.2416999,-0.08109999400000001,0.3322,8.525522,0.19883366,-0.27648243,-1
175,176,1583938109655,-1.1922,0.13599999,0.3796,8.795962,0.38477695,-0.45563576,-1
176,177,1583938109665,-0.8481,0.2543,0.0321,9.110636999999999,0.3337996,-1.0347165999999999,-1
177,178,1583938109676,-0.57199997,0.0951,-0.5222,9.385232,0.11696154,-1.4208151000000002,d
178,179,1583938109686,-0.25599998,-0.0712,-0.68479997,9.670392,-0.014901511000000001,-1.4129525,-1
179,180,1583938109696,0.0799,-0.23809999,-0.5017,10.003808,-0.25549963,-1.0974445,-1
180,181,1583938109706,0.2392,-0.3497,-0.08800000000000001,9.945265,-0.25776932,-0.6449501,-1
181,182,1583938109716,0.0743,-0.3182,0.27699998,9.753422,-0.25226265,-0.54032344,-1
182,183,1583938109727,-0.1793,-0.2447,0.17629999,9.561292,-0.12131899,-0.9033706,-1
183,184,1583938109737,-0.1495,-0.108799994,-0.21149999,9.808968,-0.027475858,-1.3184006000000001,-1
184,185,1583938109748,0.19389999,-0.0208,-0.6683,10.206702,-0.046323012999999996,-1.8907299,-1
185,186,1583938109757,0.4687,-0.0379,-1.097,10.288584,-0.14554831,-2.1299584,-1
186,187,1583938109767,0.49839997,-0.14459999,-1.2706,10.278538000000001,-0.2581237,-2.0098271,-1
187,188,1583938109777,0.5086,-0.2066,-1.091,10.326153999999999,-0.14647727,-1.7256543999999998,-1
188,189,1583938109787,0.5384,-0.0578,-0.79319996,10.29727,-0.06169379,-1.5446144,-1
189,190,1583938109798,0.4897,0.0175,-0.6426,10.232215,0.0016184803,-1.3843178999999999,-1
190,191,1583938109808,0.43129998,0.059699997000000005,-0.5007,10.107064999999999,-0.07541735,-1.2846520000000001,-1
191,192,1583938109818,0.2846,-0.0274,-0.36879998,9.941941,-0.15426320000000002,-1.0667988000000002,-1
192,193,1583938109828,0.13759999,-0.0844,-0.132,9.930077,-0.15293202,-0.97082007,-1
193,194,1583938109838,0.1567,-0.079799995,-0.088599995,9.886138,-0.049196057,-1.0104393,-1
194,195,1583938109849,0.086899996,0.0654,-0.1416,9.812789,0.029850906,-1.0805128000000002,-1
195,196,1583938109859,0.036399997999999996,0.106199995,-0.2678,9.990572,0.07700710000000001,-1.3141774,-1
196,197,1583938109869,0.21159999,0.17019999,-0.48119998,10.310783,-0.03964798,-1.4377756000000002,-1
197,198,1583938109879,0.5247,0.0898,-0.6189,10.576328,-0.28423962,-1.3894893999999998,-1
198,199,1583938109889,0.7994,-0.1384,-0.57199997,10.677431,-0.5267914,-1.3482229,-1
199,200,1583938109899,0.88799995,-0.3706,-0.5204,10.728782,-0.6051105,-1.2672893,-1
200,201,1583938109910,0.9472,-0.47149998,-0.4202,10.591432000000001,-0.73103595,-1.0091082,-1
201,202,1583938109920,0.80969995,-0.5696,-0.1871,10.299645,-0.7689218000000001,-0.65057164,-1
202,203,1583938109930,0.5147,-0.61539996,0.1671,10.027569,-0.6209697,-0.60614485,-1
203,204,1583938109940,0.2488,-0.4689,0.19489999,9.744755,-0.4138617,-0.53995955,-1
204,205,1583938109950,-0.0365,-0.2737,0.2525,9.519987,-0.3814155,-0.44291773,-1
205,206,1583938109961,-0.2732,-0.2826,0.5211,9.545097,-0.42272982,-0.20234835,-1
206,207,1583938109971,-0.1365,-0.3355,0.5920000000000001,9.682343,-0.48602295,-0.2233886,-1
207,208,1583938109981,-0.1365,-0.3355,0.5920000000000001,9.802464500000001,-0.47084373,-0.4354478,-1
208,209,1583938109992,0.2543,-0.3401,0.039899997,10.099892,-0.5131732,-0.74225044,-1
209,210,1583938110002,0.489,-0.39609998,-0.13849999,10.317236999999999,-0.55581874,-0.9067033000000001,-1
210,211,1583938110012,0.489,-0.39609998,-0.13849999,10.280644,-0.50060844,-0.91467124,-1
211,212,1583938110022,0.2723,-0.3058,-0.0854,9.995869,-0.48519933,-0.78456074,-1
212,213,1583938110033,0.0175,-0.2791,0.0738,9.769664,-0.45678493,-0.6168421,-1
213,214,1583938110043,-0.1586,-0.2529,0.20729999,9.641106,-0.42272025,-0.47247177,-1
214,215,1583938110053,-0.089499995,-0.21499999,0.3216,9.751469,-0.37474045,-0.42040268,-1
215,216,1583938110063,0.0284,-0.23339999,0.36409998,9.812999999999999,-0.40811563,-0.31518227,-1
216,217,1583938110073,0.0187,-0.2505,0.4534,9.795129,-0.41808507,-0.33643323,-1
217,218,1583938110083,0.0285,-0.1688,0.2562,9.822586,-0.3450428,-0.54941183,-1
218,219,1583938110094,0.11669999,-0.0866,-0.020299999,9.940064,-0.24390212,-0.81234306,-1
219,220,1583938110104,0.1952,-0.0447,-0.1574,9.995141,-0.24669854,-0.95345736,-1
220,221,1583938110114,0.2052,-0.0925,-0.32189998,9.9933405,-0.2830904,-1.0895534,-1
221,222,1583938110125,0.1563,-0.103099994,-0.4078,9.896728999999999,-0.2722782,-1.1288661,-1
222,223,1583938110135,0.0681,-0.037299998,-0.2979,9.787314,-0.15588169,-0.9317754,-1
223,224,1583938110145,-0.069,0.0765,-0.12,9.638912,-0.0965438,-0.78117055,-1
224,225,1583938110155,-0.2258,0.092599995,0.11699999999999999,9.531930000000001,-0.07165367,-0.58168566,-1
225,226,1583938110165,-0.2453,0.16929999,0.1982,9.550088,-0.003715801,-0.57332516,-1
226,227,1583938110175,-0.1961,0.1994,0.0928,9.630524000000001,0.02735136,-0.69662654,-1
227,228,1583938110186,-0.029199999,0.1634,-0.033299997000000005,9.806123,-0.05818868,-0.8403360999999999,-1
228,229,1583938110195,0.0589,0.1187,-0.094299994,9.883773,-0.07520667,-0.81222814,-1
229,230,1583938110205,0.097799994,0.1034,-0.0795,9.85258,-0.09368032,-0.8530349,-1
230,231,1583938110216,0.0188,0.1161,-0.116799995,9.679557,-0.055200715,-0.87176716,-1
231,232,1583938110226,-0.1584,0.1769,-0.1673,9.602530499999999,0.022802377000000002,-0.99556655,-1
232,233,1583938110236,-0.15879999,0.2172,-0.3107,9.723609,0.10159077,-1.0080259,-1
233,234,1583938110246,-0.0022,0.31739998,-0.2367,9.856009,0.13015838,-0.8648048,-1
234,235,1583938110256,0.085999995,0.26049998,-0.1096,9.85057,-0.034897886,-0.68711674,-1
235,236,1583938110267,-0.0018999999,0.0945,0.14909999,9.679489,-0.25475264,-0.42272982,-1
236,237,1583938110277,-0.1584,-0.1407,0.3509,9.612461,-0.39218938,-0.37232709999999997,-1
237,238,1583938110287,-0.12879999,-0.1884,0.3529,9.704886,-0.34431493,-0.37813064,-1
238,239,1583938110297,-0.0309,-0.0872,0.2807,9.784719,-0.17854041,-0.6241971,-1
239,240,1583938110307,0.0075999996999999994,0.0832,0.044999998,9.775516,-0.0006033388,-0.81683457,-1
240,241,1583938110317,-0.0128,0.2534,-0.1743,9.697934,0.12510183,-0.88084596,d
241,242,1583938110328,-0.1116,0.33499998,-0.1857,9.649906,0.107480496,-0.90190536,-1
242,243,1583938110338,-0.1317,0.28939998,-0.21239999,9.770297,0.059893347,-0.9056786,-1
243,244,1583938110348,-0.0041,0.2349,-0.2228,9.876331,-0.016002843,-0.8255591,-1
244,245,1583938110358,0.0844,0.1801,-0.1017,9.871207,-0.24883416,-0.61555886,-1
245,246,1583938110369,0.055299997000000004,-0.0535,0.099599995,9.79625,-0.29735029999999996,-0.43535206,-1
246,247,1583938110379,0.026099999,-0.0548,0.3284,9.824138,-0.21938549,-0.11825441,-1
247,248,1583938110389,0.0163,0.0103,0.6134,9.683856,-0.18529205,-0.16496049,-1
248,249,1583938110399,-0.131,0.0565,0.45299998,9.638693,-0.07000645,-0.5756044,-1
249,250,1583938110409,-0.13159999,0.17279999,0.023599999,9.793289999999999,0.020925324,-0.88371897,-1
250,251,1583938110419,0.034399997,0.2241,-0.25059998,10.039663000000001,-0.018732235,-0.96231586,-1
251,252,1583938110430,0.2987,0.17999999,-0.27969998,10.323528999999999,-0.16112019,-0.8495202,-1
252,253,1583938110440,0.5239,0.078,-0.1891,10.397855999999999,-0.23844333,-0.8193533000000002,-1
253,254,1583938110450,0.60209996,0.0042,-0.17459999,10.512844,-0.33152992,-0.74595666,-1
254,255,1583938110460,0.7197,-0.091699995,-0.0981,10.608344,-0.44897985,-0.6774920999999999,-1
255,256,1583938110471,0.8178,-0.2007,-0.029199999,10.807675,-0.43457633,-0.4251049,-1
256,257,1583938110481,0.9842,-0.2043,0.2941,10.759619,-0.449746,-0.39232346,-1
257,258,1583938110491,0.96389997,-0.19569999,-0.0747,10.791787,-0.39096355,-0.7641621999999999,-1
258,259,1583938110501,0.96389997,-0.19569999,-0.0747,10.947497,-0.29092422,-1.0178996,-1
259,260,1583938110512,1.1592,-0.0892,-0.38779998,11.106529,-0.1857709,-1.1965837,-1
260,261,1583938110522,1.3435,-0.1134,-0.4227,11.158128999999999,-0.3202963,-0.9773035,-1
261,262,1583938110532,1.5192,-0.32299998,-0.0602,11.386439999999999,-0.5416259,-0.60263973,-1
262,263,1583938110542,1.9207,-0.4544,0.0603,11.795131,-0.6217741999999999,-0.54044795,-1
263,264,1583938110552,2.1358,-0.50909996,0.093499996,11.968997,-0.6634906999999999,-0.43697056,-1
264,265,1583938110562,2.1358,-0.50909996,0.093499996,12.082281,-0.9258187,-0.1935281,-1
265,266,1583938110572,2.468,-1.0016999,0.6082,12.311894,-1.0935661,0.09088389599999999,-1
266,267,1583938110582,2.468,-1.0016999,0.6082,12.353572999999999,-1.1025299,-0.19496463,-1
267,268,1583938110592,2.5053,-1.0435,-0.1451,12.322189999999999,-1.0807139,-0.8114045,-1
268,269,1583938110602,2.6121,-1.0221,-0.6936,12.455336,-1.0301101000000001,-1.2859639999999999,-1
269,270,1583938110613,2.8172,-1.0509,-0.9059,12.652906,-1.0552397,-1.4260631000000001,-1
270,271,1583938110623,3.0521998,-1.2107999,-0.91599995,12.92821,-1.2059401,-1.296853,-1
271,272,1583938110633,3.1309998,-1.3389,-0.60179996,12.858654,-1.3097625,-0.94294196,-1
272,273,1583938110643,2.9064999,-1.5557,-0.131,12.689413,-1.4537306,-0.50426674,-1
273,274,1583938110653,2.8005,-1.6737,0.42299998,12.573246000000001,-1.5173014,-0.0059184665000000004,-1
274,275,1583938110663,2.7143,-1.7100999,0.5114,12.467891999999999,-1.4079247,-0.0743256,-1
275,276,1583938110674,2.4715,-1.4882,0.17979999,12.131889,-0.9920040000000001,-0.49154878,-1
276,277,1583938110684,2.0819,-1.155,-0.0442,11.653738,-0.6196098000000001,-0.5227117,-1
277,278,1583938110694,1.5163,-0.9156,0.1184,11.188957,-0.36230975,-0.3459717,-1
278,279,1583938110704,0.91249996,-0.7773,0.14459999,10.540741,-0.17406803,-0.3772304,-1
279,280,1583938110714,0.4766,-0.76699996,0.0786,10.1255865,-0.045547295,-0.39186376,-1
280,281,1583938110724,0.4766,-0.76699996,0.0786,9.935784,0.032762256000000003,-0.4333505,-1
281,282,1583938110735,0.107999995,-0.8307,0.086799994,9.830487,0.06397307,-0.26538292,-1
282,283,1583938110745,-0.0109,-0.7999,0.42069998,9.567795,0.2523776,0.10213664,-1
283,284,1583938110755,-0.6094,-0.6168,0.8879,8.80936,0.5632406999999999,0.5347976,-1
284,285,1583938110765,-1.4031,-0.32909998,1.0835,7.906621,1.012029,0.43139684,-1
285,286,1583938110775,-2.0396,-0.0682,0.7636,7.5792,1.3174238,0.20152475,-1
286,287,1583938110785,-2.333,0.21899999999999997,0.6077,7.239616000000001,1.6636542,-0.032915484,-1
287,288,1583938110796,-2.5677,0.2776,0.2758,7.0263405,1.6966941000000002,-0.5236980999999999,-1
288,289,1583938110806,-2.7433999,0.292,-0.16,6.824796000000001,1.7720348999999997,-0.77241737,-1
289,290,1583938110816,-2.9575999,0.18949999,-0.3633,6.5976824999999995,1.6221386,-0.92266786,-1
290,291,1583938110826,-3.1115,-0.0427,-0.33229998,6.4462347,1.5406114,-0.30199504,-1
291,292,1583938110837,-3.2637,-0.1319,0.413,6.137804,1.5808818,0.44109815,-1
292,293,1583938110847,-3.7772,-0.1371,1.2483,5.3231053,1.8627081,1.0183498,-1
293,294,1583938110857,-4.6823,0.1805,1.6071999,4.3737373,2.2958863,0.9492914000000001,-1
294,295,1583938110867,-5.5299,0.5452,1.3665999,3.7433536,2.8311052000000005,0.6187575,-1
295,296,1583938110878,-5.9983997,1.0037,1.0557,3.424532,3.246997,0.48075572,-1
296,297,1583938110888,-6.1769,1.2557,0.9787,3.4706635,3.5195913,0.26047954,-1
297,298,1583938110898,-6.0846,1.5160999,0.6545,3.7194786,3.7097773999999997,-0.45574108,-1
298,299,1583938110908,-5.7792997,1.6348,-0.1125,4.3781905,3.607564,-1.2283499,-1
299,300,1583938110918,-5.0339,1.5272,-0.8534,5.23543,3.7038586000000002,-1.6115468000000002,-1
300,301,1583938110929,-4.3464,1.6257,-1.0878,5.2801914000000005,3.8038883,-1.1580658000000001,-1
301,302,1583938110939,-4.3919,1.7161,-0.4658,4.522666,3.6834219,-0.6896738,-1
302,303,1583938110949,-5.2388,1.5811,-0.0026999997999999996,3.4152424,3.5958992999999997,-0.10683886,-1
303,304,1583938110959,-6.1538997,1.4842,0.5395,2.9361532,3.5414937000000006,0.43834004,-1
304,305,1583938110970,-6.6299,1.4176999,1.0992,2.8720077999999996,3.5020754000000003,0.49140513,-1
305,306,1583938110980,-6.699,1.3910999,1.1912999,3.1637459999999997,3.1833115000000003,-0.4800183,-1
306,307,1583938110990,-6.4013995999999995,1.1154,0.2644,3.8936135999999997,2.7930567,-1.4835241000000001,-1
307,308,1583938111001,-5.6877,0.78529996,-0.72069997,4.8454237000000004,2.5025632,-2.1746821,-1
308,309,1583938111011,-4.7518997,0.5692,-1.4089999,5.6356444,2.2034892999999998,-2.5003033,-1
309,310,1583938111021,-3.9733998999999995,0.35889998,-1.7256,5.619162599999999,1.9412857,-2.290849,-1
310,311,1583938111031,-4.8922,-0.13669999,-0.8743,4.531429,1.4899118,-1.4906875,-1
311,312,1583938111041,-5.7964997,-0.41079998,0.1152,3.760362,1.1524538,-0.49414408,-1
312,313,1583938111053,-5.8989,-0.45009997,0.8236,3.870342,1.1609292,0.14302003,-1
313,314,1583938111063,-5.4265,0.1634,0.93659997,4.35059,1.7365336,0.15717456,-1
314,315,1583938111073,-5.3677,0.3098,0.7485,4.315050599999999,1.5717934,0.09083601,-1
315,316,1583938111083,-5.5042995999999995,-0.0931,0.6655,4.2261489999999995,0.91689306,0.06712384,-1
316,317,1583938111094,-5.2074,-0.7407,0.7252,4.826835,0.052959744,0.25086445,-1
317,318,1583938111104,-4.4567,-1.3196,0.84599996,5.58279,-0.6391465000000001,0.24320300000000003,-1
318,319,1583938111114,-3.9192,-1.8147999,0.6992,5.9226613,-1.192073,-0.029937098,-1
319,320,1583938111124,-3.7817,-1.9476999,0.2393,6.067846,-1.261409,-0.6188533,-1
320,321,1583938111134,-3.5444998999999995,-1.5807999,-0.1519,6.360053,-0.84288347,-0.9017809000000001,-1
321,322,1583938111145,-3.3163998,-1.0070000000000001,-0.4053,6.392882299999999,-0.5803353,-1.0884806999999999,-1
322,323,1583938111155,-3.5286,-0.9104,-0.3715,6.176437,-0.7895024,-0.8373193999999999,-1
323,324,1583938111165,-3.7484998999999997,-1.0728999,0.005,6.018707,-1.2557013000000001,-0.28707436,-1
324,325,1583938111175,-3.8183,-1.355,0.4779,5.915746700000001,-1.6886113,0.08095275,-1
325,326,1583938111185,-3.8751998,-1.6567,0.64309996,6.056516,-2.4255755,0.04344039400000001,-1
326,327,1583938111195,-3.5563,-2.3681,0.48819998,6.683921300000001,-3.0949464,-0.3326025,-1
327,328,1583938111206,-2.7828999,-2.5864,-0.07279999599999999,7.3624673,-3.277643,-0.8416385000000001,-1
328,329,1583938111216,-1.7605,-2.5888,-0.54719996,8.567191000000001,-3.5806532,-0.9267189,-1
329,330,1583938111226,-0.7991,-2.5297,-0.3423,9.427064,-3.4165163,-0.18621142,-1
330,331,1583938111236,-0.1256,-2.0270998,0.49469998,9.537609,-3.2981852999999997,0.77914023,-1
331,332,1583938111246,-0.44489998,-2.1222,1.3220999,8.764904,-4.0449269999999995,1.3022637,-1
332,333,1583938111257,-1.1725999,-2.7728,1.4741,8.467161,-4.842857,1.1488912,-1
333,334,1583938111267,-1.0619999,-3.1438,1.2033,8.92341,-5.2208533,0.5668129,-1
334,335,1583938111277,-0.61219996,-3.3191,0.4998,9.445911,-5.61289,-0.11886732,-1
335,336,1583938111287,0.0198,-3.4982,-0.1635,10.237625999999999,-5.8602685999999995,-0.33871248,-1
336,337,1583938111298,0.8534,-3.4896,-0.3691,10.88544,-5.8574624,-0.08050264,-1
337,338,1583938111308,1.5637,-3.2107,-0.0871,11.466894,-5.4801936,0.7793797,-1
338,339,1583938111318,2.1002998,-2.6160997999999998,0.7848,11.323568,-5.2097545,1.6807008,-1
339,340,1583938111328,1.8252,-2.2359999999999998,1.4748,10.481689999999999,-5.3887353,1.9634848999999999,-1
340,341,1583938111338,1.0237,-2.3209,1.6141,10.047334,-5.6623254,2.018312,-1
341,342,1583938111348,0.81689996,-2.4313998,1.5399,10.239349,-6.0217714,1.7549306,-1
342,343,1583938111359,1.1582999,-2.5928,1.0900999,10.645138000000001,-6.587138,1.0446764000000002,-1
343,344,1583938111369,1.7034999,-2.9863,0.2595,11.452214,-6.903709399999999,0.5304114000000001,-1
344,345,1583938111380,2.6743,-2.9613,-0.3243,12.485321,-6.573233,0.05204037,-1
345,346,1583938111390,3.5957,-2.4742,-0.76479995,12.527306,-6.3911877,0.6509547,-1
346,347,1583938111400,3.7289999,-2.1272,-0.20799999,11.898187,-6.3306713,1.6862936999999998,-1
347,348,1583938111410,3.1727998,-1.9093,0.80689996,11.450988,-6.454117,2.07448,-1
348,349,1583938111420,2.8054,-1.8713,1.1592,11.447339,-6.6534863,2.0464296,-1
349,350,1583938111430,2.8985999,-1.9068999,1.0834,11.410057,-7.1575136,2.0531523000000003,-1
350,351,1583938111441,2.9744,-2.2503998,0.992,11.373914,-7.706073299999999,2.2561522000000003,-1
351,352,1583938111451,3.0521,-2.6311,1.0725,11.852208000000001,-8.116583,2.1901298,-1
352,353,1583938111461,4.6035,-2.5857,0.5797,12.938544,-7.878705,1.9877046000000003,-1
353,354,1583938111471,4.6035,-2.5857,0.5797,13.417365,-7.780667,1.9908457,-1
354,355,1583938111481,5.5919,-2.3843,0.91969997,13.315411,-8.188333,2.842176,-1
355,356,1583938111491,5.2363,-2.6041,1.7916,12.865013000000001,-8.481517,3.5597851,-1
356,357,1583938111502,4.7648997,-2.7075,1.9693999,12.314863,-8.664682,3.5878644,-1
357,358,1583938111512,4.4498997000000005,-2.6506998999999998,1.7752,11.950246,-8.678042999999999,3.391607,-1
358,359,1583938111522,4.4498997000000005,-2.6506998999999998,1.7752,11.727672,-8.430157000000001,3.1036706,-1
359,360,1583938111532,4.2632,-1.8998,1.079,11.624874,-8.100092,2.7809036,-1
360,361,1583938111542,4.4789,-1.7246,0.70379996,11.80645,-8.042076,2.4317331,-1
361,362,1583938111553,4.9776998,-1.5438,-0.061199997,12.264000999999999,-7.9747699999999995,1.6747729,-1
362,363,1583938111563,5.575,-1.4393,-0.5417,12.758816,-7.9703836,1.4439813,-1
363,364,1583938111573,5.5664,-1.5419999,-0.1348,12.351189,-8.265847,2.1351588,-1
364,365,1583938111583,4.9501,-1.795,0.7337,11.704822,-8.463302,2.8524997,-1
365,366,1583938111593,4.4865,-1.7751,1.0777999,11.250584,-8.479783,2.8617222,-1
366,367,1583938111604,4.1039,-1.676,0.8103,10.940535,-8.379408999999999,2.5155876,-1
367,368,1583938111614,3.8669,-1.4157,0.0696,10.723927,-8.121783,1.5416648000000002,-1
368,369,1583938111624,3.8576,-1.2656,-0.6281,10.696,-8.000972,1.035272,-1
369,370,1583938111634,3.8311,-1.0971,-0.8681,10.609685,-7.983465,0.9341888,-1
370,371,1583938111644,3.7366998,-1.1955999,-0.7849,10.467574,-8.078294999999999,1.1065999,-1
371,372,1583938111654,3.5904,-1.2592,-0.67689997,10.2803,-8.204374000000001,1.2285223,-1
372,373,1583938111665,3.4280998999999994,-1.3090000000000002,-0.4098,9.947764,-8.186091000000001,1.704346,-1
373,374,1583938111675,3.0312,-1.2287999,0.0594,9.383509,-8.123756,2.2575214,-1
374,375,1583938111685,2.4308999,-1.1352999,0.61039996,8.879147,-8.036636,2.6899047,-1
375,376,1583938111695,1.8550999,-1.0469998999999999,1.0022,8.347969,-7.879538,2.8236065,-1
376,377,1583938111705,1.5818,-0.8246,0.7509,8.230346,-7.510447999999999,2.3149536,-1
377,378,1583938111715,1.5051,-0.44669998,0.19839999,8.221019,-7.214295,1.8973761000000002,-1
378,379,1583938111726,1.4791,-0.228,-0.1612,8.102487,-7.1163050000000005,1.7825885,-1
379,380,1583938111736,1.3321999,-0.1927,-0.1466,7.940016,-7.074300999999999,1.9182631999999997,-1
380,381,1583938111746,1.1059999999999999,-0.1406,0.0967,7.678310000000001,-7.0924587,2.3421326000000002,-1
381,382,1583938111756,0.89669997,-0.2174,0.5211,7.444444,-7.0652604000000006,2.696302,-1
382,383,1583938111766,0.61509997,-0.13949999,0.6462,7.134021799999999,-6.979069,2.3883598,-1
383,384,1583938111777,0.3101,-0.122999996,0.1575,6.9464315999999995,-6.9976673,2.0462380000000002,-1
384,385,1583938111787,0.2091,-0.1459,0.028199999,6.930582000000001,-7.063412,2.1674805,-1
385,386,1583938111797,0.2052,-0.23600000000000002,0.2111,6.971723599999999,-7.064379,2.3394034,-1
386,387,1583938111807,0.19219999,-0.2272,0.3356,6.908871,-7.029050999999999,2.2336464,-1
387,388,1583938111817,0.1612,-0.1986,0.1219,7.089413,-6.952101,1.7615004,-1
388,389,1583938111828,0.3583,-0.0815,-0.3344,7.182930499999999,-6.7582088,1.6329412,-1
389,390,1583938111838,0.3601,0.065,-0.3716,6.962722,-6.739247,1.7998651,d
390,391,1583938111848,0.1052,0.014599998999999999,-0.1901,6.7164254,-6.846660000000001,1.9939200000000001,-1
391,392,1583938111858,-0.1319,-0.0751,0.0067,6.727573,-6.9248259999999995,2.1076062,-1
392,393,1583938111868,-0.027099999,-0.1841,0.1021,6.9693007,-7.027067999999999,2.2052896,-1
393,394,1583938111878,0.23269999,-0.24399999,0.25259998,7.1425834,-6.935782400000001,2.2989889999999997,-1
394,395,1583938111889,0.2645,-0.16849999,0.2782,6.972853999999999,-6.809310400000001,2.246058,-1
395,396,1583938111899,0.0792,-0.0367,0.3005,6.8091288,-6.579840700000001,2.6343017000000004,-1
396,397,1583938111909,-0.1046,0.1635,0.7294,6.681863000000001,-6.5064445,2.8274565,-1
397,398,1583938111919,-0.23449999,0.1788,0.8222,6.671424000000001,-6.483575,2.5395682,-1
398,399,1583938111929,-0.22119999,0.19569999,0.41939998,6.852492999999999,-6.5147667,1.801359,-1
399,400,1583938111940,-0.057099998,0.15609999,-0.22309999,7.270376700000001,-6.714136,1.3813011999999998,-1
400,401,1583938111949,0.3602,-0.047599997000000005,-0.6551,7.6719704,-6.9047149999999995,1.472482,-1
401,402,1583938111959,0.83949995,-0.299,-0.5008,8.023295,-7.201347,1.6974028,-1
402,403,1583938111969,1.1129999,-0.5919,-0.2316,8.078353,-7.4157906,1.9436129,-1
403,404,1583938111979,1.083,-0.7919,0.0937,7.884077499999999,-7.3635397,2.3002436,-1
404,405,1583938111989,0.8717,-0.7418,0.452,7.731155,-7.2558300000000004,2.584493,-1
405,406,1583938112000,0.6906,-0.6555,0.7798,7.571203,-7.225624000000001,2.8244686000000003,-1
406,407,1583938112010,0.49519998,-0.64779997,1.0581,7.617315299999999,-7.3196588,2.623959,-1
407,408,1583938112020,0.5237,-0.76559997,0.86139995,7.9506364000000005,-7.4066160000000005,2.142954,-1
408,409,1583938112030,0.84459996,-0.8606,0.3699,8.646573,-7.572514999999999,1.5236508,-1
409,410,1583938112040,1.5232999,-1.0411999,-0.2579,9.504119000000001,-7.852388,0.82852787,-1
410,411,1583938112050,2.3774,-1.3292999,-0.978,10.266605,-8.125375,0.3949188,-1
411,412,1583938112060,3.3104,-1.6902,-1.4598,11.047747,-8.371939999999999,0.22792801,-1
412,413,1583938112070,3.866,-1.9023999,-1.5296999,10.99517,-8.413119,0.5664873,-1
413,414,1583938112080,3.7766,-1.9793999,-1.1178,10.595147,-8.455497,1.5804508,-1
414,415,1583938112090,3.3123,-2.0669,-0.0111,10.277801,-8.449368,2.7136647999999997,-1
415,416,1583938112100,2.9227,-2.122,1.2025,10.241888000000001,-8.542253,2.795058,-1
416,417,1583938112111,2.8618,-2.2974,1.2706,10.900398,-8.485443,2.2364526000000002,-1
417,418,1583938112121,4.1782,-2.1343,0.069,11.843178,-8.275874,1.3604907,-1
418,419,1583938112131,4.7908,-2.1334999,-0.70989996,12.481482000000002,-8.233143,0.6258826,-1
419,420,1583938112141,5.2598,-2.1976,-1.0368998999999999,12.927856,-8.237432499999999,0.4532607,-1
420,421,1583938112151,5.3747997000000005,-2.3497,-0.6741,13.027061999999999,-8.356539999999999,0.89939624,-1
421,422,1583938112161,5.1639,-2.5828,0.2104,12.872799,-8.471279,1.7645841,-1
422,423,1583938112171,4.8638997,-2.5741,0.8752,12.619808,-8.295468,2.2769146,-1
423,424,1583938112182,4.3114,-2.372,1.1144,12.104307,-7.990265400000001,2.4118135,-1
424,425,1583938112192,3.6676998,-2.228,1.2543,11.615737,-7.746746000000001,2.4767442,-1
425,426,1583938112202,3.3694,-2.1947,1.3005999,11.485503,-7.604070699999999,2.437039,-1
426,427,1583938112212,3.3894,-2.2591,1.0853,11.664234,-7.529458,2.0417752,-1
427,428,1583938112222,3.3894,-2.2591,1.0853,11.943925,-7.496686,1.5290138,-1
428,429,1583938112233,3.7308998,-2.3820999,0.3346,12.166672,-7.410897,1.3770778000000001,-1
429,430,1583938112243,3.8207998,-2.4486,0.5482,12.253343,-7.336005999999999,1.6591531000000002,-1
430,431,1583938112253,3.5242,-2.4872,1.0946,11.847334,-7.180747,2.2477627,-1
431,432,1583938112263,2.8021998,-2.3818998,1.7084,11.1201,-6.824576400000001,2.6066442000000003,-1
432,433,1583938112273,1.9517,-2.1004,1.8651999,10.441305,-6.323556,2.5684516,-1
433,434,1583938112283,1.9517,-2.1004,1.8651999,10.124561,-6.022605,2.421055,-1
434,435,1583938112294,0.812,-1.4861,1.4843998999999999,9.667384,-5.41986,1.9763178,-1
435,436,1583938112304,0.6926,-1.2439,1.3073,9.634238999999999,-5.049046,1.7785279999999999,-1
436,437,1583938112314,0.3829,-1.1552,1.3165,9.32238,-4.8434315,1.8452974999999998,-1
437,438,1583938112324,0.0187,-1.1439999,1.4686999,9.055571,-4.6413226,1.7686638,-1
438,439,1583938112335,-0.25239998,-1.0913,1.3518,8.83559,-4.446176,1.7591541000000002,-1
439,440,1583938112344,-0.40129998,-1.1833999,1.6652,8.885975,-4.4682026,2.003085,-1
440,441,1583938112354,-0.41869998,-1.3830999,2.0988,8.864130000000001,-4.4404683,2.405665,-1
441,442,1583938112364,-0.66819996,-1.3403,2.5441,8.5328865,-4.132919,2.6273682000000003,-1
442,443,1583938112374,-1.1898999,-1.0763999,2.4952,8.016046000000001,-3.5632330000000003,2.2347672000000003,-1
443,444,1583938112384,-1.7572999,-0.7549,2.1481,7.468463400000001,-3.0826304,1.8539740000000002,-1
444,445,1583938112395,-2.144,-0.49899998,1.8416,7.209822,-2.7341208,1.6999215,-1
445,446,1583938112405,-2.3883997999999997,-0.3241,1.9843998999999999,7.1089406,-2.3715238999999997,2.0325625,-1
446,447,1583938112415,-2.52,-0.061899997000000005,2.3437997999999998,6.9633923,-1.9472331000000003,2.2554432999999996,-1
447,448,1583938112425,-2.7452,0.1796,2.5733,6.745366000000001,-1.6736523,2.2741756,-1
448,449,1583938112435,-2.8976998,0.22459999,2.4572,6.816867,-1.598235,1.8776383,-1
449,450,1583938112445,-2.7326,0.16219999,1.9664999,7.1064024,-1.5841571,1.2183708999999998,-1
450,451,1583938112455,-2.3878,0.0989,1.4046999,7.4900970000000004,-1.3518621000000002,0.96298623,-1
451,452,1583938112466,-2.1980999,0.2843,1.3507,7.3291683,-1.0419854,1.0616465,-1
452,453,1583938112476,-2.5860999,0.5279,1.6699,6.756399000000001,-0.6014139000000001,1.4938956,-1
453,454,1583938112486,-3.1892998,0.9173,2.0435998,6.2355547,-0.07347326,1.6864948,-1
454,455,1583938112496,-3.605,1.2118,2.0147998,6.0732183,0.080157876,0.88707083,-1
455,456,1583938112506,-3.5967998999999997,1.1432999,0.78889996,6.423854,0.003428497,-0.38493976,-1
456,457,1583938112517,-3.0563998,0.89949995,-0.21849999,7.152036,-0.34492785,-0.98260915,-1
457,458,1583938112527,-2.3074,0.4172,-0.62549996,7.9775853,-0.69680846,-1.2814341999999999,-1
458,459,1583938112537,-1.694,0.12969999,-0.66899997,8.316461,-0.5880350999999999,-0.66437185,-1
459,460,1583938112547,-1.4713999,0.2164,0.1467,7.9211106,-0.41193676,0.024305933999999998,-1
460,461,1583938112557,-2.0026,0.2645,0.7468,7.221602000000001,-0.38063020000000003,0.05773857,-1
461,462,1583938112567,-2.6496,0.1935,0.81909996,6.8976665,-0.2716844,-0.04538449,-1
462,463,1583938112578,-2.863,0.1713,0.7844,7.057848,-0.42554542,-0.44730392,-1
463,464,1583938112588,-2.6527998,-0.0896,0.4518,7.3637505,-0.7268222,-0.53016245,-1
464,465,1583938112598,-2.3242,-0.4921,0.55149996,7.5480657,-1.1457405,-0.30931172,-1
465,466,1583938112608,-2.2214,-0.9345,0.7075,7.333305999999999,-1.3747121999999998,-0.98875743,-1
466,467,1583938112618,-2.4636,-1.1479,-0.0301,7.1470084,-1.3109021,-1.6618153999999998,-1
467,468,1583938112628,-2.5898,-1.0755,-0.62839997,7.242192,-1.0272274,-1.9484875,-1
468,469,1583938112639,-2.4910997999999998,-0.81759995,-0.7733,7.2190447,-0.70606923,-1.5070542,-1
469,470,1583938112648,-2.5486,-0.56409997,-0.1301,6.868055,-0.47496173,-0.6045550999999999,-1
470,471,1583938112658,-3.0066,-0.40379998,0.69049996,6.234482,-0.41588240000000004,-0.43783244,-1
471,472,1583938112668,-3.6006,-0.42909998,0.7642,5.943682,-0.3155845,-0.7055234,-1
472,473,1583938112678,-3.7917,-0.3685,0.4775,6.0189943,-0.17651969,-1.273227,-1
473,474,1583938112689,-3.679,-0.2597,-0.1156,6.2573037000000005,-0.13892116,-1.8654662,-1
474,475,1583938112699,-3.4099,-0.3015,-0.6063,6.7124505,-0.24166115,-1.9814988000000002,-1
475,476,1583938112709,-3.0135999,-0.41200000000000003,-0.62079996,6.856946000000001,-0.040165126,-1.717179,-1
476,477,1583938112719,-2.873,-0.18259999,-0.1998,6.4589243,0.493263,-0.69370556,-1
477,478,1583938112729,-3.2515,0.21319999,0.701,6.095301999999999,0.75540894,-0.3108057,-1
478,479,1583938112740,-3.6913,0.5047,1.0991,5.950021700000001,0.95390743,-0.9151118,-1
479,480,1583938112750,-3.7575998,0.627,0.50189996,6.3568926,0.913953,-1.7099674999999999,-1
480,481,1583938112760,-3.2156,0.5697,-0.4525,7.239453299999999,0.6293398,-2.6225605,-1
481,482,1583938112770,-2.4661,0.3006,-1.1582999,7.9053955,0.10398497,-3.2454742999999997,-1
482,483,1583938112780,-1.7932999,-0.21859999,-1.7445998999999999,8.445336,-0.23964044,-3.5069307999999997,-1
483,484,1583938112790,-1.0989,-0.5936,-1.9476,9.1726265,-0.44739009999999996,-3.2403796000000002,-1
484,485,1583938112801,-0.3633,-0.8048,-0.8602,9.239177,-0.4735348,-2.3911467,-1
485,486,1583938112811,-0.3633,-0.8048,-0.8602,9.071765,-0.3648093,-2.181434,-1
486,487,1583938112821,-1.3858,-0.1582,-0.4702,8.216766,0.31222305,-2.3054627999999995,-1
487,488,1583938112831,-1.3858,-0.1582,-0.4702,8.179196000000001,0.72824913,-2.4636335,-1
488,489,1583938112841,-1.4695,0.34059998,-0.6845,8.172703,0.9786155999999999,-2.6017215,-1
489,490,1583938112852,-1.5785999,0.20799999,-0.89669997,8.111134,0.49091670000000004,-2.7451627,-1
490,491,1583938112862,-1.5785999,0.20799999,-0.89669997,8.721502000000001,-0.028088775,-2.9044921,-1
491,492,1583938112872,0.3859,-0.81149995,-1.3051,10.25112,-0.47416687,-3.2885318,-1
492,493,1583938112882,1.2081,-0.8524,-1.9482,10.879387,-0.46698424,-4.0507402,-1
493,494,1583938112892,1.1969,-0.6558,-2.4185,10.716371,-0.22064005,-4.3251542999999995,-1
494,495,1583938112903,0.4603,-0.36319998,-1.4804,9.621310000000001,0.18315643,-2.9502025,-1
495,496,1583938112913,0.4603,-0.36319998,-1.4804,8.60388,0.34136528,-2.0334241000000004,-1
496,497,1583938112923,-1.7202,-0.0918,0.57559997,7.772526700000001,0.44358809999999993,-1.4296927,-1
497,498,1583938112933,-1.7346,0.08549999400000001,0.5437,8.111623,0.7448170000000001,-1.7301746999999998,-1
498,499,1583938112943,-0.98759997,0.3349,-0.0284,8.931607000000001,0.92423844,-2.412704,-1
499,500,1583938112954,-0.3024,0.31599998,-0.6888,9.415687,0.77187145,-2.9576244,-1
500,501,1583938112964,0.0195,0.0656,-1.1829,9.708192,0.50459236,-3.4212184000000003,-1
501,502,1583938112974,0.33249998,-0.1494,-1.5175999,10.036838000000001,0.28204653,-3.5082047,-1
502,503,1583938112985,0.53889996,-0.2659,-1.0738,10.046644,0.25888026,-2.8755512000000003,d
503,504,1583938112995,0.15799999,-0.2092,-0.4516,9.586278,0.32994974,-2.4667556,-1
504,505,1583938113005,-0.5753,0.0234,-0.10439999400000001,8.751717,0.7204823,-2.0692608,-1
505,506,1583938113015,-0.5753,0.0234,-0.10439999400000001,8.308866499999999,1.0809053999999998,-1.7561948,-1
506,507,1583938113025,-1.2832999,0.59,0.5157,8.392137,1.0944375,-1.5048131999999999,-1
507,508,1583938113035,-1.0246998999999999,0.3579,0.6382,8.831491999999999,0.7792456,-1.5976603999999999,-1
508,509,1583938113046,-0.5306,0.096,0.3618,9.34886,0.5980045,-2.0712620999999998,-1
509,510,1583938113056,-0.057999999999999996,-0.011000000000000001,-0.1171,9.70594,0.67153525,-2.5571032000000002,-1
510,511,1583938113066,0.16749999,0.17719999,-0.4962,9.637113000000001,0.84746116,-2.6183276,-1
511,512,1583938113076,-0.029199999,0.3032,-0.3303,9.396725,0.8631959000000001,-2.3116209999999997,-1
512,513,1583938113086,-0.1856,0.2978,-0.1308,9.473473,0.84276855,-2.3789554,-1
513,514,1583938113096,0.0326,0.2519,-0.305,9.975766,0.72177523,-2.7390242000000002,-1
514,515,1583938113107,0.51809996,0.1358,-0.6261,10.348574000000001,0.6126379,-3.035187,-1
515,516,1583938113117,0.93659997,-0.0442,-0.8825,10.607596000000001,0.39940074,-3.0861737999999996,-1
516,517,1583938113127,1.0522,-0.2135,-0.77419996,10.444542,0.39702567,-2.896802,-1
517,518,1583938113137,0.8052,-0.1576,-0.50119996,9.981714,0.49569553,-2.4513178,-1
518,519,1583938113147,0.1068,-0.13759999,0.0625,9.1098795,0.51005113,-2.0417848000000003,-1
519,520,1583938113158,-0.6412,-0.11639999599999999,0.3092,8.742954,0.61741674,-2.2399096000000003,-1
520,521,1583938113168,-0.7352,-0.0433,-0.012,9.218805999999999,0.6811887,-2.9252932,-1
521,522,1583938113178,-0.1264,0.0165,-0.7636,9.949795,0.6379973000000001,-3.6526039,-1
522,523,1583938113188,0.80439997,-0.0884,-1.6356,10.893619000000001,0.36974135,-4.5683956,-1
523,524,1583938113199,1.4706,-0.30089998,-2.3312,11.180003,0.30173644,-4.8678336,-1
524,525,1583938113209,1.6367999,-0.34739998,-2.5187,10.921111999999999,0.20895635,-4.811445,-1
525,526,1583938113219,1.3422999,-0.4481,-2.4548,10.474,0.34285924,-4.519591999999999,-1
526,527,1583938113229,0.96,-0.3408,-2.1782,10.121364,0.5199919,-4.1531353,-1
527,528,1583938113239,0.5096,-0.14119999,-1.7318,9.642101,0.6703956,-3.6850307,-1
528,529,1583938113250,0.0401,-0.086399995,-1.2958,9.367994,0.47759536,-3.6963794,-1
529,530,1583938113260,-0.1354,-0.2995,-1.3694,9.552347,0.40452433,-4.019213,-1
530,531,1583938113270,0.2663,-0.4416,-1.9834,10.555325999999999,-0.07007349,-5.4247246,-1
531,532,1583938113280,1.0493,-0.8383,-3.1188998,11.300566,-0.5134029999999999,-6.5302615,-1
532,533,1583938113290,1.7831999,-1.2827,-4.2351,11.742697999999999,-0.73829514,-7.257534,-1
533,534,1583938113301,2.2336,-1.5307,-4.9679,11.768344,-0.7379121,-7.407995,-1
534,535,1583938113311,2.2533,-1.5606999,-5.1254,11.289016,-0.52387047,-6.790157300000001,-1
535,536,1583938113321,1.7738999,-1.3852,-4.5312,10.462767,-0.32262346,-5.517437999999999,-1
536,537,1583938113331,0.9528,-1.2545998999999999,-3.2717,9.52174,-0.31874487,-4.5846089999999995,-1
537,538,1583938113342,0.0143,-1.3233,-2.3479,9.016361999999999,-0.33650982,-4.677485,-1
538,539,1583938113352,-0.56869996,-1.4798,-3.0423,8.996864,-0.3975907,-5.4192276,-1
539,540,1583938113362,-0.2348,-1.5820999,-3.8123,9.431210499999999,-0.50442,-6.0836663,-1
540,541,1583938113373,0.1454,-1.7768999,-4.2894,9.705998,-0.68141854,-6.373547,-1
541,542,1583938113383,0.1041,-1.8998,-4.2822,9.587026,-0.74189603,-6.164878,-1
542,543,1583938113393,-0.4156,-1.9864,-3.9224,9.00734,-0.7756543,-5.744236,-1
543,544,1583938113403,-1.0697,-1.8993,-3.5498,8.378202,-0.5755661,-5.2725873,-1
544,545,1583938113413,-1.5541999,-1.604,-3.1318,7.842351400000001,-0.19865170000000001,-4.7319574,-1
545,546,1583938113423,-1.9478999,-1.4386,-2.8042998,7.5385656,-0.025273193,-4.425404,-1
546,547,1583938113434,-2.3111,-1.3399,-2.335,7.025171799999999,0.13872005,-3.7631487999999997,-1
547,548,1583938113444,-2.8813,-1.2846999,-1.7042999,6.468568,0.24895866,-2.96972,-1
548,549,1583938113454,-3.4252,-1.288,-0.9691,5.978954,0.23217054,-2.2671845,-1
549,550,1583938113464,-3.7775998,-1.2964,-0.6552,5.7437377,0.40620026,-2.2845185000000003,-1
550,551,1583938113474,-3.8297,-1.0849999,-1.1909999999999998,5.8306379999999995,0.5920765,-2.7617884,-1
551,552,1583938113485,-3.7261998999999997,-0.88409996,-1.6369,5.8439207,0.7459661999999999,-2.7766035,-1
552,553,1583938113495,-3.8758998,-0.87899995,-1.2248,5.659921,0.62681156,-1.9300331000000002,-1
553,554,1583938113505,-4.1203,-1.0639,-0.2305,5.4111257,0.41200382,-0.48520893,-1
554,555,1583938113515,-4.3227,-1.2411,0.9758,5.137487999999999,0.38427895,0.7166037,-1
555,556,1583938113525,-4.6411,-1.1531,1.9787999,4.8157263,0.655044,1.5184027,-1
556,557,1583938113535,-4.9795,-0.853,2.5033998,4.4220714999999995,0.9691537,1.9145952000000002,-1
557,558,1583938113545,-5.3787,-0.53249997,2.7458,4.13607,1.1898034,2.1282919999999996,-1
558,559,1583938113556,-5.5744,-0.3446,2.8225,4.0450610000000005,1.3094655000000002,2.240427,-1
559,560,1583938113566,-5.6247997000000005,-0.2497,2.8378,4.0516214,1.2460096,2.2761772000000002,-1
560,561,1583938113576,-5.539,-0.38689998,2.8372998,4.410522,0.9292089,2.5249537999999996,-1
561,562,1583938113586,-5.0119,-0.6807,3.0056,5.203386,0.609784,2.5860157000000004,-1
562,563,1583938113596,-4.1408997,-0.8218,2.8743,5.965527,0.58964396,2.3910412999999995,-1
563,564,1583938113606,-3.6216998,-0.72029996,2.7431997999999997,6.143148,0.5967308000000001,2.5900474,-1
564,565,1583938113617,-3.679,-0.6871,3.4599,5.762192199999999,0.64887655,3.9534206,-1
565,566,1583938113627,-4.186,-0.466,4.8984,5.125785,0.95420426,5.6573167,-1
566,567,1583938113637,-4.9283,-0.1373,6.4223,4.1926494,1.0298036,6.875457300000001,-1
567,568,1583938113647,-5.6618,-0.14019999,7.0501,3.8947915999999996,0.7268222,6.6151029999999995,-1
568,569,1583938113657,-5.7988,-0.405,6.5013,4.72037,0.316207,5.532943,-1
569,570,1583938113667,-4.7504,-0.68259996,5.2517,6.3203955,0.1296125,4.5514064,-1
570,571,1583938113678,-3.1332,-0.74369997,4.3048997,7.7203045,-0.22693200000000002,3.9583817000000003,-1
571,572,1583938113688,-1.867,-0.9461,3.6603,8.690272,-0.21181981,3.8921769999999998,-1
572,573,1583938113698,-0.97059995,-0.7062,3.7638998,8.778895,0.07025546,5.3614793,-1
573,574,1583938113708,-1.1894,-0.37399998,5.433399700000001,7.5270543000000005,0.025416845,7.699628,-1
574,575,1583938113719,-2.5834,-0.36200000000000004,7.7567,6.234328700000001,-0.08485051,9.475408,-1
575,576,1583938113729,-3.7810998,-0.3691,9.243199,5.7755327,-0.2693477,10.022732000000001,-1
576,577,1583938113739,-4.027,-0.4482,9.5357,6.427407,-0.20091183,9.420082,-1
577,578,1583938113749,-3.1450999,-0.2041,8.706099499999999,7.9138136,0.04884171,7.82021,-1
578,579,1583938113759,-1.8883,0.10569999,7.2837996,8.726405,0.12257355,6.853489,-1
579,580,1583938113769,-1.0698,0.3145,6.2764997000000005,9.255466,-0.10195468,6.6634850000000005,-1
580,581,1583938113779,-0.5333,0.2575,6.0304,9.610249000000001,-0.21151336,6.780044,-1
581,582,1583938113790,-0.113199994,0.217,6.1298,9.729949000000001,-0.83290446,6.6668463000000004,-1
582,583,1583938113800,-0.0462,-0.19999999,5.9908,9.802724000000001,-1.2840200000000002,7.1878242,-1
583,584,1583938113810,0.0402,-0.5323,6.5243998,9.824827,-1.5307568,8.086052,-1
584,585,1583938113820,0.0587,-0.65059996,7.4533997,9.450527000000001,-1.6706932,8.414565,-1
585,586,1583938113831,-0.3031,-0.6624,7.7974,9.125461999999999,-1.9230803,7.9803147,-1
586,587,1583938113841,-0.1033,-0.9461,6.5263995999999995,9.830152,-2.2983762999999997,6.9749413,-1
587,588,1583938113851,1.0669,-1.0841,5.3971995999999995,10.95399,-2.5484552000000003,5.87133,-1
588,589,1583938113861,1.9843998999999999,-1.2405,4.5678997,11.799823,-2.8930576,5.2588644,-1
589,590,1583938113872,2.3920999,-1.5794,4.589299700000001,12.013950999999999,-3.3958876000000005,5.3498626,-1
590,591,1583938113883,2.1023,-1.9388,4.6370997,11.6190605,-3.8201883000000003,5.4358629999999994,-1
591,592,1583938113893,1.5371,-1.9555999,5.1247997000000005,10.930077,-4.0962877,6.1099453,-1
592,593,1583938113903,1.2664,-2.4772,5.4877,10.935545,-4.869471,6.027336,-1
593,594,1583938113913,1.8120999,-2.9861,4.6211,11.752091,-5.2934747,4.716864599999999,-1
594,595,1583938113923,2.9104997999999997,-3.1655998,2.9916,12.916803999999999,-5.609480400000001,3.1664084999999997,-1
595,596,1583938113934,4.0203,-3.3952,1.7326,13.7393465,-5.980668,2.1241453,-1
596,597,1583938113944,4.4238,-3.6429,1.1958,13.816908999999999,-6.3128204000000006,1.9718069999999999,-1
597,598,1583938113954,4.1583,-3.7868998,1.4394,13.354042999999999,-6.504078400000001,2.4298467999999995,-1
598,599,1583938113965,3.577,-3.7484998999999997,2.1053,12.62116,-6.4463882,3.2010953,-1
599,600,1583938113975,2.6805,-3.6920998,2.7179,11.62226,-6.659165400000001,3.35986,-1
600,601,1583938113985,2.1366,-3.8102,2.1904,11.526846,-6.726136,2.5897121,-1
601,602,1583938113995,2.6032999,-3.9378,0.7245,12.463667999999998,-7.0485296,0.82494617,-1
602,603,1583938114005,4.1587,-4.1310997,-1.2147,14.115342000000002,-7.0921330000000005,-0.97936255,-1
603,604,1583938114016,5.5446,-3.8177,-2.6696,15.080051000000001,-6.792513400000001,-2.0854647,-1
604,605,1583938114026,5.8553,-3.6564998999999996,-2.9387999,14.688054000000001,-6.9308309999999995,-1.6576973999999998,-1
605,606,1583938114036,5.0111,-3.8298,-2.1808999,13.532718,-6.9877652999999995,-0.5979279000000001,-1
606,607,1583938114046,3.7793,-3.7273998,-0.9048,12.255372999999999,-6.925257000000001,0.611843,-1
607,608,1583938114056,2.5266,-3.8219998,-0.14469999,11.312516,-7.078236599999999,0.59409726,-1
608,609,1583938114066,1.6094998999999999,-3.8023,-0.9288,10.795216,-6.7870064,-0.7959092,-1
609,610,1583938114077,1.7562,-3.4157,-2.2891998,11.481164,-6.325787,-2.2944686,-1
610,611,1583938114088,2.3773,-3.0421999,-3.5974,11.896030999999999,-6.0214934,-3.1890767,-1
611,612,1583938114098,2.7135,-2.7656999,-4.4221,11.805253,-5.8540335,-3.273592,-1
612,613,1583938114108,2.5342999,-2.5925999,-4.3822,11.33146,-5.787178,-2.881824,-1
613,614,1583938114118,1.8189,-2.6325998,-3.9366,10.400872,-6.07183,-2.894494,-1
614,615,1583938114128,1.1082,-2.8748,-4.1839,10.334025,-6.1573796,-3.8536975,-1
615,616,1583938114138,1.2186999,-2.9808,-5.2676997000000005,10.878295,-6.294797,-5.208385,-1
616,617,1583938114149,1.7297,-3.1069,-6.4947,10.964025999999999,-6.3607526,-5.9737725,-1
617,618,1583938114159,1.6998999,-3.188,-7.1021,10.49843,-6.243695,-6.138388,-1
618,619,1583938114169,1.2674999,-3.0598,-7.1426997000000005,9.901107000000001,-5.8387400000000005,-6.0145800000000005,-1
619,620,1583938114179,0.6504,-2.6792998,-7.0091996,9.221325,-5.297037,-5.8642907,-1
620,621,1583938114190,-0.0325,-2.1703,-6.8584,8.771175999999999,-4.9482307,-5.76314,-1
621,622,1583938114200,-0.5649,-1.7925999,-6.7497997000000005,8.605834,-4.778156299999999,-5.8795085,-1
622,623,1583938114210,-0.6533,-1.6614,-6.9042997,8.880458,-4.8313646,-6.875506,-1
623,624,1583938114220,-0.36839998,-1.7182,-7.9024997,9.536383,-5.2066607000000005,-7.524621499999999,-1
624,625,1583938114230,0.27719998,-2.0815,-8.5074,10.01145,-5.644436,-6.86477,-1
625,626,1583938114241,0.7543,-2.5177999,-7.8016996,9.60051,-5.9160533,-6.080899,-1
626,627,1583938114251,0.3349,-2.7858,-6.9518,8.697513,-5.6658115,-5.87901,-1
627,628,1583938114261,-1.1997,-2.0376,-6.2714996,7.998520399999999,-5.040053400000001,-5.3111053,-1
628,629,1583938114271,-1.1997,-2.0376,-6.2714996,7.736383999999999,-4.775676,-4.8395624,-1
629,630,1583938114281,-1.5596,-1.6158999,-5.7741,7.7703333,-4.7321873,-4.961485,-1
630,631,1583938114291,-1.2477,-1.6493,-5.968999999999999,8.10014,-4.774670599999999,-5.1640058,-1
631,632,1583938114302,-0.94439995,-1.7554,-6.312999700000001,8.364202,-4.9129977,-5.4647846,-1
632,633,1583938114312,-0.7797,-1.8708999,-6.1794,8.474114,-5.080285,-5.1652309999999995,-1
633,634,1583938114322,-0.9219,-2.1365,-5.321000000000001,8.233449,-5.348187,-4.2257085,-1
634,635,1583938114332,-1.4878,-2.1612,-4.3076,7.475196,-5.3417224999999995,-3.1596568,-1
635,636,1583938114343,-2.1715,-2.0992,-3.701,6.838233,-5.2835913,-2.808973,-1
636,637,1583938114353,-2.6466,-2.0623,-3.6357,6.564269,-5.2803354,-2.796667,-1
637,638,1583938114363,-2.6262999,-2.1420999,-3.4661,6.698047,-5.530481299999999,-2.5336976000000004,-1
638,639,1583938114373,-2.2379,-2.4938,-3.2760000000000002,7.224810000000001,-5.887226999999999,-2.3750862999999995,-1
639,640,1583938114383,-1.4728999,-2.5714,-3.3823,7.960922,-5.8414693,-2.7054193,-1
640,641,1583938114394,-1.0014,-2.3130999,-3.9434,8.217274,-5.5900016,-3.2023213,-1
641,642,1583938114404,-1.0128,-1.9792,-4.0769997,8.0775,-5.3918,-3.1090815,-1
642,643,1583938114414,-1.3501999,-1.8435999,-3.2099998,7.5792575,-5.415856400000001,-1.8004493000000001,-1
643,644,1583938114424,-1.8420999,-2.1485,-1.7314999,7.115864299999999,-5.9243654999999995,-0.39629784,-1
644,645,1583938114434,-2.0737,-2.6064,-0.59029996,7.078438,-6.2752123,0.46873683,-1
645,646,1583938114445,-1.8664,-2.6357,-0.21779999,7.305801400000001,-6.28522,0.40446687,-1
646,647,1583938114455,-1.7136999,-2.5521998,-0.53319997,7.3598623,-6.225096700000001,0.07592492599999999,-1
647,648,1583938114465,-1.6360999,-2.3969,-0.75949997,7.524325,-6.207552400000001,0.199935,-1
648,649,1583938114475,-1.3989999,-2.3567998,-0.3872,7.7561603,-6.1185355,0.65328187,-1
649,650,1583938114485,-1.1515,-2.1297,-0.089999996,7.8471875,-5.9514303,0.7902876999999999,-1
650,651,1583938114495,-1.1304,-1.8844,0.060799997,7.698776,-5.756858,1.0122780999999998,-1
651,652,1583938114506,-1.2875,-1.7287999,0.2889,7.5556793,-5.9989214,1.374923,-1
652,653,1583938114516,-1.3270998999999999,-2.0135,0.9141,7.6070204,-6.2639213,2.1981547000000004,-1
653,654,1583938114526,-1.1406,-2.0816998,1.6434,7.934988000000001,-6.1955523,2.3892026,-1
654,655,1583938114536,-0.7273,-1.8658999,1.5403,8.201731,-6.0061617,2.0952903999999997,-1
655,656,1583938114546,-0.44059998,-1.5444,1.2448,8.422025999999999,-5.765841,2.0231673999999997,-1
656,657,1583938114556,-0.3103,-1.3332,1.4662,8.374888,-5.6802529999999996,2.6131754000000003,-1
657,658,1583938114566,-0.41579998,-1.2816,2.3594,8.170865,-5.764663,3.8824182,-1
658,659,1583938114576,-0.6198,-1.1925,3.6355998999999994,7.929605499999999,-5.6343517,4.700851999999999,-1
659,660,1583938114586,-0.7942,-1.045,3.9531,7.8394785,-5.612488,4.568443299999999,-1
660,661,1583938114596,-0.732,-0.9449,3.7329,8.08928,-5.632752,4.3826056,-1
661,662,1583938114607,-0.2855,-1.0674,3.5939,8.69439,-5.885215799999999,4.3923163,-1
662,663,1583938114617,0.3671,-1.102,3.7426998999999994,9.261865,-5.7496467,4.798630999999999,-1
663,664,1583938114627,0.8218,-0.905,4.1802998,9.522515,-5.706857,5.255368700000001,-1
664,665,1583938114637,1.1169,-0.8114,4.7167,9.704092,-5.6953654,5.7877913,-1
665,666,1583938114648,1.2439,-0.7909,5.1281,9.659532,-5.7926655,6.175633,-1
666,667,1583938114658,1.1939,-0.80329996,5.5046,9.727727999999999,-5.585816400000001,6.689007000000001,-1
667,668,1583938114668,1.3201,-0.5252,5.9438,9.692753,-5.4561944,6.7857323,-1
668,669,1583938114678,1.2588999,-0.4184,6.0078998,9.41265,-5.5538774,6.9655949999999995,-1
669,670,1583938114689,0.9977,-0.49429998,6.0958,9.301186999999999,-5.657106,6.6004024,-1
670,671,1583938114699,0.98819995,-0.52529997,5.6162996,9.529449000000001,-5.504375,6.1107783,-1
671,672,1583938114709,1.2987,-0.3146,5.1134996,9.85575,-5.252419000000001,5.673061,-1
672,673,1583938114719,1.5659,-0.0497,4.7317,9.833618,-5.0410775999999995,5.531985,-1
673,674,1583938114729,1.5083,0.166,4.5857997,9.6262045,-4.9279566,5.150617,-1
674,675,1583938114739,1.3348,0.2599,4.2662,9.518226,-4.8435182999999995,4.8995805,-1
675,676,1583938114749,1.2217,0.3454,4.0194,9.310658,-4.7817473,4.852539,-1
676,677,1583938114760,1.0303999,0.4098,3.9580998,9.016774,-4.7792673,4.754329,-1
677,678,1583938114770,0.73149997,0.4141,3.8374,8.593900999999999,-4.852424,4.2811394,-1
678,679,1583938114780,0.3153,0.3484,3.3346,8.650299,-5.0717525000000006,3.5178485,-1
679,680,1583938114790,0.38079998,0.1364,2.5326,9.261633999999999,-4.976588,2.6986485,-1
680,681,1583938114800,1.0052999,0.23969999,1.6801,9.569644,-4.949715,2.0676900000000002,-1
681,682,1583938114811,1.3125,0.2723,1.0331,9.406723,-4.9016876,2.526151,-1
682,683,1583938114821,1.1423,0.30859998,1.5073999,8.825295,-4.8785495999999995,3.1279576000000002,-1
683,684,1583938114831,0.5556,0.3206,2.1436,8.266106,-4.8688297,3.3004646,-1
684,685,1583938114841,-0.2427,0.4035,1.9949,8.030027,-4.780607700000001,2.8391306,-1
685,686,1583938114851,-0.22289999,0.40289998,1.5775,8.077548,-4.770619,2.4351041,-1
686,687,1583938114861,-0.1011,0.45549998,1.3167,8.191512,-4.7463517,2.2092638,-1
687,688,1583938114872,-0.017099998999999998,0.3533,0.9754,8.291742999999999,-4.90841,1.8105241,-1
688,689,1583938114882,0.2339,0.2128,0.382,8.568206,-4.9993615,1.2750752,-1
689,690,1583938114892,0.6313,0.2294,0.012399998999999998,8.95917,-4.9717417,1.0104966999999998,-1
690,691,1583938114902,0.6313,0.2294,0.012399998999999998,8.9993925,-4.9755726,1.0330213,-1
691,692,1583938114912,0.428,0.139,0.3737,8.56132,-5.1307645,1.5119001,-1
692,693,1583938114922,0.162,0.0324,0.74369997,8.371872,-5.210252,1.8163468,-1
693,694,1583938114933,0.0546,-0.0235,0.9227,8.287644,-5.2929387000000006,1.8254735,-1
694,695,1583938114943,0.0572,-0.1169,0.6902,8.345833,-5.36554,1.6146592,-1
695,696,1583938114953,0.2778,-0.2573,0.4881,8.614894,-5.539301999999999,1.3867503,d
696,697,1583938114963,0.43069997,-0.32899999999999996,0.2694,8.696966999999999,-5.609816,1.1376576,-1
697,698,1583938114973,0.4847,-0.4711,-0.0594,8.781433999999999,-5.7673825999999995,0.778738,-1
698,699,1583938114984,0.6742,-0.5367,-0.3254,8.995581,-5.762748,0.7095456,-1
699,700,1583938114994,0.78209996,-0.4876,-0.1182,9.038524,-5.7601237,1.1224114,-1
700,701,1583938115004,0.75869995,-0.589,0.50369996,8.984596,-5.8953866999999995,1.7265929,-1
701,702,1583938115014,0.66429996,-0.67359996,1.0516,8.829317999999999,-5.8654304,2.069481,-1
702,703,1583938115024,0.40269998,-0.6033,0.8874,8.636728,-5.803344,1.5626763000000001,-1
703,704,1583938115034,0.4274,-0.5033,0.2776,8.735273,-5.701236,1.1745284,-1
704,705,1583938115045,0.7299,-0.479,0.2528,9.100311999999999,-5.758687,1.2982606,-1
705,706,1583938115055,0.9856,-0.6494,0.3348,9.401092,-5.9377356,1.2862227,-1
706,707,1583938115065,1.2903,-0.7518,0.18869999,9.756411,-5.981731,1.1494466,-1
707,708,1583938115075,1.8188,-0.8067,0.010799999,10.374277000000001,-6.0718107,1.1191744,-1
708,709,1583938115085,2.2746,-0.97309995,0.23959999,10.725258,-6.2314653,1.6202521,-1
709,710,1583938115095,2.6355,-1.0191,1.2020998999999999,11.041244500000001,-6.076771,2.9634376000000002,-1
710,711,1583938115106,2.7747,-0.838,2.3379,11.048485000000001,-5.95257,3.7384120000000003,-1
711,712,1583938115116,2.7640998,-0.8505,2.8422,11.209059,-6.0080860000000005,3.9386055,-1
712,713,1583938115126,3.2645998,-1.0522,2.9817,12.244579,-6.4179926,4.051985299999999,-1
713,714,1583938115137,4.3767,-1.5565,2.8658,13.508919,-6.820027400000001,3.7153509,-1
714,715,1583938115147,5.6281,-1.9243,2.4587998,14.721104,-7.067444,3.6295238,-1
715,716,1583938115157,6.7293997,-2.1417,2.5985,15.48765,-7.1872883000000005,4.264945,-1
716,717,1583938115167,7.1074,-2.2737,3.1841,15.505309,-7.182653,4.9564,-1
717,718,1583938115177,7.0239997,-2.3632998,3.7793998999999996,15.325056,-7.2740064,5.438707,-1
718,719,1583938115187,6.8025,-2.4716,4.1857,15.222067000000001,-7.028121499999999,5.501913500000001,-1
719,720,1583938115198,6.6805997,-2.3222,4.0839,15.200959,-6.828608,5.2007327000000005,-1
720,721,1583938115208,6.5427,-2.1392,3.6962998,14.81056,-6.4507933,4.846524700000001,-1
721,722,1583938115218,6.027,-2.0004,3.3572,14.108619000000001,-6.19764,4.5250797,-1
722,723,1583938115229,5.2004,-1.915,2.9981,13.389504999999998,-5.9693192999999996,4.1539209999999995,-1
723,724,1583938115239,4.4191,-1.7982999,2.5746,12.530935000000001,-5.635185,3.70926,-1
724,725,1583938115249,3.5152,-1.6231999,2.0692,11.716572,-5.2307467,2.9696817,-1
725,726,1583938115259,2.7777998,-1.4821999,1.4190999,11.453746,-4.954532,2.9577107000000002,-1
726,727,1583938115269,2.4025,-1.3036,1.4591999,11.419729,-4.6312194,3.4337258000000004,-1
727,728,1583938115279,2.3395,-1.2246,1.9103999,11.407404,-4.164417,3.6393876000000005,-1
728,729,1583938115290,2.2558,-0.93329996,2.1799998,11.110887,-3.766807,3.2796540000000003,-1
729,730,1583938115300,1.8781999,-0.726,1.8765999,10.573733,-3.5069022000000003,2.6635207999999997,-1
730,731,1583938115310,1.2777,-0.6601,1.3446,10.045783,-3.2464705,2.2292507,-1
731,732,1583938115320,0.6721,-0.5858,0.9772,9.397193,-3.242381,2.1673367000000003,-1
732,733,1583938115330,-0.0255,-0.7751,0.9862,8.777747,-3.225162,2.2600787,-1
733,734,1583938115341,-0.7075,-0.94229996,1.1373999,8.469928999999999,-3.0469663,1.8354237,-1
734,735,1583938115351,-1.0591,-0.9454,0.7707,8.434341,-2.8491766,1.149102,-1
735,736,1583938115361,-1.1388,-0.9174,0.13149999,8.524546,-2.6193907000000003,0.7943291,-1
736,737,1583938115371,-1.0677,-0.8089,-0.0323,8.57877,-2.4022272,0.9353093000000001,-1
737,738,1583938115382,-1.0677,-0.8089,-0.0323,8.605986999999999,-2.2982134999999997,1.2577316,-1
738,739,1583938115392,-1.0824,-0.7119,0.74759996,8.636863,-2.0152571,1.5380448,-1
739,740,1583938115402,-0.98789996,-0.4721,0.7531,8.760653,-1.6182697,1.3874016000000002,-1
740,741,1583938115412,-0.9496,-0.38709998,0.19039999,8.768371,-1.4943745000000002,0.68012565,-1
741,742,1583938115423,-1.2131,-0.5087,-0.37,8.477945,-1.4204223,0.09577764,-1
742,743,1583938115433,-1.7299,-0.3495,-0.66749996,7.7913165,-1.1149702,-0.30561504,-1
743,744,1583938115443,-2.3423998,-0.4069,-0.7132,7.2081466,-1.0344579,-0.39743748,-1
744,745,1583938115453,-2.8737,-0.27449998,-0.755,6.8528185,-0.7772441,-0.5155578,-1
745,746,1583938115464,-2.8737,-0.27449998,-0.755,6.7394,-0.40302074,-0.5041327,-1
746,747,1583938115474,-2.908,0.1226,-0.4788,7.061698,-0.032254685,-0.30640996,-1
747,748,1583938115484,-2.5472999,0.3143,-0.03,7.298025,0.16120639999999997,0.20433074,-1
748,749,1583938115494,-2.5484,0.29479998,0.71999997,7.155761200000001,0.13279201,0.9781367,-1
749,750,1583938115504,-2.9995,0.077599995,1.4408,6.4968195,-0.10465534,1.4048026000000002,-1
750,751,1583938115514,-3.6652,-0.4346,1.3864,6.127528,-0.9958826,0.66828877,-1
751,752,1583938115524,-3.5751,-1.3461,0.4522,6.4390235,-1.5682021000000002,-0.586024,-1
752,753,1583938115534,-3.22,-1.5914999,-0.71739995,6.836882000000001,-1.306717,-1.7366678,-1
753,754,1583938115545,-2.7179,-1.2172999,-1.7239,7.400075,-0.8065874,-2.277202,-1
754,755,1583938115555,-2.0393999,-0.3946,-1.7399,7.8753720000000005,0.13893074,-2.002405,-1
755,756,1583938115565,-2.0273,0.33409998,-1.4346,7.3980546,0.71489906,-1.9677465,-1
756,757,1583938115575,-2.7107,0.5157,-1.4264,6.664413499999999,0.7416375,-1.7332296000000003,-1
757,758,1583938115585,-3.3142998,0.30249998,-1.0106,6.3917236,0.3500227,-1.2170876,-1
758,759,1583938115596,-3.3279998,-0.2792,-0.35279998,6.675714500000001,-0.27332205,-0.72244555,-1
759,760,1583938115606,-2.9968,-0.8555,0.13499999,7.0474190000000005,-0.70076364,-0.29526255,-1
760,761,1583938115616,-2.5270998,-1.1927,0.5787,7.466251,-0.7080036999999999,-0.5082507,-1
761,762,1583938115626,-2.2439,-1.1438999,-0.0278,7.5215473,-0.5511069000000001,-1.6266207000000001,-1
762,763,1583938115636,-2.2749,-1.0062,-1.2062,7.419516000000001,-0.36494340000000003,-2.9395242,-1
763,764,1583938115646,-2.3848,-0.8781,-2.4241,7.344721300000001,-0.3106716,-3.9594445,-1
764,765,1583938115656,-2.3576,-0.96669996,-3.0716,7.653784299999999,-0.31534508,-3.9734745000000005,-1
765,766,1583938115667,-2.0265,-0.9219,-2.7437,7.7777080000000005,-0.030731974,-2.8900027,-1
766,767,1583938115678,-1.9892,-0.6782,-1.4600999,7.400727000000001,0.19177556,-1.8295914,-1
767,768,1583938115688,-2.6574,-0.5294,-0.31689999,6.3736234000000005,0.1878395,-0.98251337,-1
768,769,1583938115698,-3.4919998999999997,-0.7037,0.3155,5.830494,-0.30517453,-0.53053594,-1
769,770,1583938115708,-3.8953,-1.2892,0.79359996,6.020249,-0.71736985,-0.21427147,-1
770,771,1583938115718,-3.553,-1.6457,1.055,6.807347999999999,-0.67599803,-0.63937634,-1
771,772,1583938115728,-2.7179,-1.5467,0.5306,7.3057337,-0.34171006,-1.6722636000000002,-1
772,773,1583938115739,-2.3804998,-1.202,-0.50589997,7.0984445,-0.12902832,-2.5390412999999996,-1
773,774,1583938115748,-2.6304998,-1.0396,-1.2845,6.9807644,0.010228029,-3.0176997,-1
774,775,1583938115758,-2.6655998,-0.9356,-1.6772,7.2209315,0.16610971,-3.1500513999999997,-1
775,776,1583938115768,-2.3868,-0.80039996,-1.6858,7.4845424,0.31048965,-2.9714245999999997,-1
776,777,1583938115778,-2.1067998,-0.6563,-1.4721999,7.7333293,0.43202890000000005,-2.8581214,-1
777,778,1583938115788,-1.806,-0.5137,-1.2814,8.027998,0.66394085,-2.5635962,-1
778,779,1583938115799,-1.5731,-0.3141,-0.99009997,8.218098,0.9237213,-2.362761,-1
779,780,1583938115808,-1.4185,-0.124699995,-0.79719996,8.050446,0.9104479,-2.1402056000000003,-1
780,781,1583938115818,-1.6661999,-0.17009999,-0.48909998,7.6043773,0.76328105,-2.0590806,-1
781,782,1583938115828,-2.0621998,-0.3588,-0.43089998,7.604023,0.5937045999999999,-2.0522139999999998,-1
782,783,1583938115839,-1.9808999,-0.4885,-0.3866,7.8977914,0.47059470000000003,-2.1289434,-1
783,784,1583938115849,-1.6688,-0.655,-0.5369,8.184406,0.3782647,-2.5200217,-1
784,785,1583938115859,-1.3400999,-0.63659996,-0.9941,8.760461,0.5709405,-2.9734166,-1
785,786,1583938115869,-0.7582,-0.4168,-1.4102,9.394762,0.7763534000000001,-2.9734453999999997,-1
786,787,1583938115879,-0.24509999,-0.2166,-1.3966999,9.651553999999999,0.8909590000000001,-2.5116419999999997,-1
787,788,1583938115889,0.0053999997,-0.0918,-0.95229995,9.754609,0.85046834,-2.0736277,-1
788,789,1583938115899,0.1121,-0.1331,-0.5132,9.827202,0.80470073,-1.9244976999999999,-1
789,790,1583938115910,0.18259999,-0.163,-0.35529998,9.581088000000001,0.7767364999999999,-2.0894485,-1
790,791,1583938115920,-0.058399998,-0.1999,-0.50159997,9.035219,0.6077154,-1.8435258,-1
791,792,1583938115930,-0.60209996,-0.3893,-0.23089999,8.703134,0.4423144,-1.3009326,-1
792,793,1583938115940,-0.9307,-0.5689,0.33859998,8.909351,0.6346454,-1.0283288000000002,-1
793,794,1583938115950,-0.7125,-0.37939999,0.61399996,9.397165,0.89501965,-1.3655663999999998,-1
794,795,1583938115961,-0.2223,-0.1219,0.2816,9.680199,1.1092144,-2.1794035,-1
795,796,1583938115971,0.011299999,0.0839,-0.4089,9.855885,1.1590042999999999,-2.6093159,-1
796,797,1583938115981,0.4793,0.090399995,-1.0663999,10.176210000000001,1.0232148,-2.5808823,-1
797,798,1583938115991,0.6361,-0.0173,-0.56079996,10.25563,0.96010363,-2.0046747,-1
798,799,1583938116001,0.4511,0.015,0.0663,9.964457000000001,1.002548,-1.4615931999999998,-1
799,800,1583938116011,0.1003,0.0714,0.3232,9.699964999999999,1.040884,-1.3420075,d
800,801,1583938116022,0.0442,0.097899996,0.21959999,9.677142,1.0880785,-1.5077341999999998,-1
801,802,1583938116032,0.2136,0.18519999,0.038399998,9.855606,1.1510364,-1.7012718999999998,-1
802,803,1583938116042,0.2652,0.13679999,-0.1528,9.899929,1.0623646999999998,-1.9106017,-1
803,804,1583938116052,0.32619998,-0.037299998,-0.32529998,9.96053,0.91606945,-2.0539377,-1
804,805,1583938116062,0.46519998,-0.1214,-0.2056,10.105312,0.8544905999999999,-1.9135034,-1
805,806,1583938116073,0.58379996,-0.1074,-0.0019999999,10.187911999999999,0.87559783,-1.6990116999999998,-1
806,807,1583938116083,0.5057,-0.084199995,0.109299995,10.057093,0.8568177,-1.7390332,-1
807,808,1583938116093,0.39819998,-0.1407,-0.23009999,10.002275,0.8110119,-2.0537367,-1
808,809,1583938116103,0.5169,0.0074,-0.4299,10.253524,1.0547223999999997,-2.154255,-1
809,810,1583938116113,0.78349996,0.1926,-0.23439999,10.370303,1.1005473999999997,-1.8918598999999998,-1
810,811,1583938116124,0.59959996,0.0893,-0.0083,10.032175,1.0283,-1.752345,-1
811,812,1583938116133,0.1804,0.0414,0.098799996,9.708698,1.0049806000000001,-1.6771575,-1
812,813,1583938116143,-0.0436,0.0138,0.18069999,9.551822,0.9897246999999999,-1.5859097,-1
813,814,1583938116153,0.044499997,0.0674,0.27539998,9.757799,1.0829739999999999,-1.5056176000000001,-1
814,815,1583938116163,0.044499997,0.0674,0.27539998,10.081311999999999,1.0313933000000002,-1.7355951,-1
815,816,1583938116173,0.6105,-0.0837,-0.1637,10.274755,0.8447988000000001,-2.0483544,-1
816,817,1583938116184,0.73749995,-0.1679,-0.5518,10.364087,0.8143446,-2.5402575,-1
817,818,1583938116194,0.7782,-0.14,-1.0309,10.369114999999999,0.9027194,-2.9472144,-1
818,819,1583938116204,0.6839,-0.1178,-1.5099,10.244837,0.879783,-3.5540392,-1
819,820,1583938116214,0.6116,-0.1787,-2.2446,10.212582000000001,0.88778913,-4.384454,-1
820,821,1583938116224,0.7190000000000001,-0.1302,-3.0751998,10.413293,0.9580542,-5.2031746,-1
821,822,1583938116234,0.9903,-0.23099999,-3.7212,10.71027,0.79657966,-5.63122,-1
822,823,1583938116245,1.3117,-0.43179998,-3.5159998,10.911478,0.5724344,-5.0336847,-1
823,824,1583938116255,1.2695,-0.67109996,-2.8795,10.559033,0.40653545,-4.36304,-1
824,825,1583938116265,0.7362,-0.8289,-2.3212,9.877892,0.34365416,-4.2750387000000005,-1
825,826,1583938116275,0.113299996,-0.9852,-2.7015,9.596917999999999,0.24542484,-4.7686367,-1
826,827,1583938116285,0.076,-1.1503,-3.8748,9.916861,0.16785268,-6.5436497000000005,-1
827,828,1583938116295,0.63409996,-1.1652,-5.1621,10.579996000000001,0.17166427,-7.4196405,-1
828,829,1583938116306,1.24,-1.2056,-5.727999700000001,10.970836,-0.007556100400000001,-7.424783000000001,-1
829,830,1583938116316,1.4154999,-1.5271,-5.529,10.779079,-0.41914809999999997,-7.275682000000001,-1
830,831,1583938116327,1.0445,-1.9017998999999999,-5.5038,10.327197,-0.5500725999999999,-7.146539,-1
831,832,1583938116337,0.62689996,-2.0159,-5.2918,9.888703999999999,-0.5640739,-6.8306766,-1
832,833,1583938116347,0.1803,-2.0913,-5.0497,9.445815,-0.44718900000000006,-6.435442,-1
833,834,1583938116358,-0.1692,-2.006,-4.6856,9.182405000000001,-0.27750713,-6.013526000000001,-1
834,835,1583938116368,-0.5787,-1.8361,-4.1698,8.345708,0.0519446,-5.38319,-1
835,836,1583938116379,-1.3615,-1.6579,-3.8033997999999998,7.555689,0.4263786,-4.9060736,-1
836,837,1583938116389,-2.1055999,-1.4176999,-3.4838,7.0881300000000005,0.5975832,-4.6044044,-1
837,838,1583938116399,-2.4974,-1.2763,-3.1755998,6.989134299999999,0.6329406999999999,-4.096201000000001,-1
838,839,1583938116409,-2.5569,-1.3184999,-2.8258997999999997,7.172204499999999,0.4011916,-3.9418519999999995,-1
839,840,1583938116419,-2.2835999,-1.6926,-2.7254,7.765229700000001,-0.016385917,-3.6470873,-1
840,841,1583938116429,-1.6276,-2.0719,-2.4143999,8.200696,-0.13151829,-2.8225532,-1
841,842,1583938116439,-1.3414999,-2.1834,-1.7751,7.922662700000001,0.031804577,-2.204054,-1
842,843,1583938116450,-1.7771,-2.0351999,-1.0957999,6.6906924,0.60674816,-1.1560641999999999,-1
843,844,1583938116460,-2.8369999999999997,-1.5964999,-0.2465,5.371679,1.1104212,-0.007125144399999999,-1
844,845,1583938116470,-4.1503997,-1.1705999,0.8240000000000001,4.4549389999999995,1.457207,0.9196989999999999,-1
845,846,1583938116480,-5.0439997000000005,-0.8803,1.6566,4.3422008000000005,1.6963876,1.1384045,-1
846,847,1583938116490,-5.1577997,-0.68399996,1.7939999,5.201594999999999,1.8601606,1.0235308,-1
847,848,1583938116501,-3.4578998,-0.6904,1.6867,6.179932599999999,1.6141613000000001,1.2197787,-1
848,849,1583938116511,-2.9145,-1.1772,2.0932999,6.6742300000000006,1.1098274,1.7121990000000002,-1
849,850,1583938116521,-2.9145,-1.1772,2.0932999,6.812135700000001,0.9097009,2.6228862,-1
850,851,1583938116532,-2.717,-1.4311999,2.8272998,6.504174,1.0726503,3.6148138,-1
851,852,1583938116542,-3.6248,-1.0489,4.3967,5.765486699999999,1.3742813999999999,4.15235,-1
852,853,1583938116552,-4.1977997,-0.6872,4.9216,5.2832847,1.7254821,4.794053599999999,-1
853,854,1583938116562,-4.263099700000001,-0.3242,5.6341996,5.3190254999999995,2.0577302,5.5872145,-1
854,855,1583938116572,-4.0466,-0.065299995,6.1397,5.5287957,2.2447462000000002,6.0186305,-1
855,856,1583938116583,-3.8909998,0.067,6.0964,5.6936800000000005,2.3144843999999996,5.97496,-1
856,857,1583938116593,-3.7568,0.17019999,6.2074,5.8283873,2.3180468,6.3707695,-1
857,858,1583938116603,-3.7122,0.0761,6.9272,5.972949,2.1364896,7.2563944000000005,-1
858,859,1583938116613,-3.3941998,0.0681,7.6446,6.4151773,2.1632667000000003,7.8122034,-1
859,860,1583938116623,-2.9397,0.24419999,8.0556,6.7323995,2.2402257999999997,8.211834,-1
860,861,1583938116634,-2.8283,0.48229998,8.6854,6.715582400000001,2.408289,8.997324,-1
861,862,1583938116643,-3.148,0.5657,9.0402,6.435825,2.3216765,9.143848,-1
862,863,1583938116653,-3.3209,0.3606,8.9531,6.3957744000000005,2.0027306,9.032193,-1
863,864,1583938116663,-2.7003999,0.0382,8.7555,7.471116,1.5247426000000002,8.818256,-1
864,865,1583938116673,-1.5704,-0.1273,8.5408,8.283153,1.3571292,8.672689,-1
865,866,1583938116683,-0.8121,-0.025999999,8.7065,9.138266,1.4775958999999999,9.085441000000001,-1
866,867,1583938116694,-0.45399999999999996,0.3559,9.352799000000001,9.249825999999999,1.7176672999999998,9.717758,-1
867,868,1583938116704,-0.76129997,0.52849996,9.653999,8.6712055,1.6094686000000002,9.801680000000001,-1
868,869,1583938116714,-1.5286,0.1714,9.449699,8.068106,0.94974154,9.4376745,-1
869,870,1583938116724,-1.5286,0.1714,9.449699,8.4592705,0.011473015,9.029558999999999,-1
870,871,1583938116734,-0.7872,-1.3807,8.9038,9.532886999999999,-1.0420619,8.89355,-1
871,872,1583938116745,0.5455,-2.3374,8.3708,10.870978,-1.9589838,7.9349302999999995,-1
872,873,1583938116755,1.8312998999999999,-2.9134998,7.098099700000001,12.201417,-2.5144002,6.525205000000001,-1
873,874,1583938116765,3.2963,-3.0381,5.8865,13.787509,-2.5276928,5.289788,-1
874,875,1583938116775,4.2244997,-2.7867,5.1404,13.96241,-2.3181427,4.590555999999999,-1
875,876,1583938116785,3.8413,-2.4798,4.6017,12.982156,-2.0406165,4.1970067,-1
876,877,1583938116796,2.6755,-2.1511,4.5655,11.818058,-1.9495313000000003,4.322693,-1
877,878,1583938116805,1.6676999,-2.2087,4.6728,11.335166000000001,-2.3404564999999997,3.9800155,-1
878,879,1583938116815,1.7393999,-2.9531999,3.5674998999999996,12.026392,-3.1600587000000004,2.1706119999999998,-1
879,880,1583938116825,3.2637,-3.3395,1.2958,14.079467000000001,-3.3817236000000004,-0.4887619000000001,-1
880,881,1583938116835,4.7799997,-3.3386998,-0.3924,14.909699,-3.5625339,-1.5931401,-1
881,882,1583938116845,5.0818,-3.4004998,-0.92069995,14.51479,-3.5005622000000005,-1.6140368,-1
882,883,1583938116856,4.3348,-3.1008,-0.5707,13.330685999999998,-3.1302272999999996,-1.0269784,-1
883,884,1583938116865,2.9698,-2.8255,0.0348,12.204806,-3.1123376,-1.0361912,-1
884,885,1583938116875,1.869,-2.8653998,-0.76479995,11.566925,-3.1892009999999997,-3.0165792000000002,-1
885,886,1583938116885,2.0435,-2.8241,-3.0311,12.441699,-3.2159684,-5.845155999999999,-1
886,887,1583938116895,3.22,-2.8051,-5.8719997,13.77639,-3.2160737999999998,-8.539543,-1
887,888,1583938116905,4.5165,-2.6617,-8.2046995,14.598683,-3.164828,-10.390654,-1
888,889,1583938116915,4.862,-2.6046,-9.607699,14.387782999999999,-3.1893830000000003,-11.098504,-1
889,890,1583938116925,4.2151,-2.6654,-9.5722,13.579548,-3.3499575,-10.491296,-1
890,891,1583938116935,3.3485,-2.7182999,-8.5483,12.461246000000001,-3.1984715,-9.474986,-1
891,892,1583938116945,2.3016999,-2.4139,-8.0448,11.319958,-2.87535,-9.7227955,-1
892,893,1583938116955,1.2436,-2.1747,-8.842999,10.5913925,-2.84231,-11.09907,-1
893,894,1583938116966,0.8623,-2.227,-10.2703,10.707607000000001,-2.9880307,-12.255486999999999,-1
894,895,1583938116976,1.1686,-2.3416,-11.132999,11.01487,-3.1120312,-12.772309,-1
895,896,1583938116986,1.3769999999999998,-2.4552,-11.5048,11.018969,-3.156075,-12.832212,-1
896,897,1583938116996,1.1815,-2.4968,-11.2487,10.594439,-3.1863952,-12.41542,-1
897,898,1583938117006,0.7190000000000001,-2.4029,-10.9442,10.168338,-2.8319669999999997,-12.146742999999999,-1
898,899,1583938117016,0.313,-1.9767,-10.5426,9.75302,-2.3510392,-11.15698,-1
899,900,1583938117027,-0.024999999,-1.6582999,-9.6332,9.2128315,-2.218544,-10.440041,-1
900,901,1583938117037,-0.6374,-1.5823,-9.051499,8.611475,-2.172288,-10.347932,-1
901,902,1583938117047,-1.1801,-1.5478,-9.0609,8.326488000000001,-2.0492163,-10.405134,-1
902,903,1583938117057,-1.4083999,-1.4805,-9.077499000000001,8.3256645,-1.9739138999999999,-10.169027,-1
903,904,1583938117067,-1.3913,-1.4178,-8.8017,8.307813000000001,-1.8542707999999999,-9.732075,-1
904,905,1583938117078,-1.453,-1.3212,-8.3537,8.142047999999999,-1.7575165000000001,-9.182338,-1
905,906,1583938117088,-1.6033,-1.2518,-7.7534,8.066123,-1.7621995,-8.33731,-1
906,907,1583938117098,-1.6557,-1.3083999,-6.919699700000001,8.062839,-1.7038575,-7.562278,-1
907,908,1583938117108,-1.6692,-1.2175,-6.1878,7.9774899999999995,-1.6568067,-6.844639999999999,-1
908,909,1583938117118,-1.8010999,-1.2152,-5.4516,7.625503999999999,-1.7558213,-5.8290863,-1
909,910,1583938117129,-2.2178,-1.3607999,-4.4756,7.1284385,-1.9139918000000002,-4.928636599999999,-1
910,911,1583938117139,-2.7333,-1.5333999,-3.6346998,6.708956,-2.016684,-4.233140000000001,-1
911,912,1583938117149,-3.0727,-1.6207,-3.0377,6.6745844,-1.8828863999999998,-3.4749634,-1
912,913,1583938117159,-3.0881,-1.4830999,-2.4529998,6.674948,-1.8886613,-2.8300612000000003,-1
913,914,1583938117170,-3.0927,-1.4836,-1.8651999,6.6429043000000005,-2.1406652999999998,-2.106907,-1
914,915,1583938117180,-3.1257,-1.7124,-1.1841999,6.7733784,-2.4049757,-1.4442208,-1
915,916,1583938117190,-2.9912,-1.9654,-0.55799997,7.0059323000000004,-2.4035296,-1.3251618,-1
916,917,1583938117201,-2.7681,-1.9305999,-0.4816,6.729545599999999,-2.2830436,-0.7926819,-1
917,918,1583938117211,-3.862,-1.8076999,1.0525,5.7405485999999994,-2.3414237,0.5795883000000001,-1
918,919,1583938117221,-3.862,-1.8076999,1.0525,5.3908324,-2.2668016,1.6960046000000002,-1
919,920,1583938117231,-4.1895,-1.3375,2.8151,5.6461883,-1.8282793999999998,2.2721548,-1
920,921,1583938117241,-4.0331,-1.083,3.2207,5.744264599999999,-1.7065773999999998,2.7533703,-1
921,922,1583938117251,-4.0331,-1.083,3.2207,5.6305879999999995,-1.7779053,3.1273637,-1
922,923,1583938117261,-4.2265,-1.3196,4.1984997,5.5569615,-2.1272482999999998,3.8763273000000003,-1
923,924,1583938117273,-4.0856,-1.41,4.8022,5.7439003,-2.2507603,4.521852,-1
924,925,1583938117283,-3.8646998,-1.2885,5.5748997000000005,5.8822184,-2.156381,5.3989725,-1
925,926,1583938117293,-4.1621,-1.0857999,6.2239,5.4448266,-2.0652575,6.0974956,-1
926,927,1583938117303,-4.4287,-0.90919995,6.5827,5.385402,-1.9355301999999999,6.380298000000001,-1
927,928,1583938117314,-4.1734,-0.6946,6.5648,5.731106,-1.8347151000000002,6.2913013,-1
928,929,1583938117324,-3.7882,-0.6082,6.4438996,6.069808999999999,-1.9142408,6.2699356,-1
929,930,1583938117335,-3.4891,-0.5657,6.5044,6.268039,-1.9827533,6.343839599999999,-1
930,931,1583938117345,-3.247,-0.6573,6.7644,6.518894,-2.2709193,6.9230160000000005,-1
931,932,1583938117355,-3.1404,-0.8355,7.6849,6.5221214000000005,-2.5928917,8.005579,-1
932,933,1583938117365,-3.1104998999999998,-1.0224999,8.8159,6.6336627,-2.7739507999999997,9.197872,-1
933,934,1583938117375,-2.863,-0.7466,9.702,6.7906933,-2.3197036,9.546574,-1
934,935,1583938117386,-2.9171999,-0.2118,9.4353,6.554682700000001,-2.0504422,9.096194,-1
935,936,1583938117396,-3.1648,0.111899994,8.9678,6.3452187,-2.0191738999999997,8.749706,-1
936,937,1583938117406,-3.2319,0.1314,8.6574,6.4273973,-2.362895,8.437819000000001,-1
937,938,1583938117416,-2.9507,-0.1908,8.2722,6.9075975000000005,-2.9541193999999997,8.117282000000001,-1
938,939,1583938117426,-2.3016999,-0.64129996,8.0301,7.5396285,-3.5708752,7.9911080000000005,-1
939,940,1583938117436,-1.6294,-1.1082,8.0204,8.342260000000001,-4.130812000000001,8.404883,-1
940,941,1583938117447,-0.9152,-1.2917,8.457399,8.830803,-4.346271,8.785896000000001,-1
941,942,1583938117457,-0.3363,-1.4489,8.9769,9.159613,-4.6890535,9.182396,-1
942,943,1583938117467,-0.12879999,-1.5518999,9.0865,9.028735000000001,-4.921004,8.508543,-1
943,944,1583938117477,-0.2532,-1.6191,8.277999999999999,8.880745,-5.066744,7.648153,-1
944,945,1583938117488,-0.29600000000000004,-1.6268,7.4287,8.896355999999999,-5.5309315,7.114753200000001,-1
945,946,1583938117498,-0.19699999999999998,-2.0616999,6.9767,9.066756,-6.247143,7.000502,-1
946,947,1583938117508,0.0634,-2.5914,6.8252997,9.449943,-6.9197507,6.386083,-1
947,948,1583938117518,0.5837,-3.0795,6.0037,10.409768,-7.344098599999999,5.455935500000001,-1
948,949,1583938117528,1.7348,-3.2547,5.0634,11.620804,-7.2517686,4.997771299999999,-1
949,950,1583938117539,3.0036,-2.9466999,4.6983,12.262805,-7.2042006999999995,5.0780444000000005,-1
950,951,1583938117549,3.4728,-2.8408,4.8150997,11.711209,-7.349701400000001,5.384665,-1
951,952,1583938117559,2.7876,-2.8604998999999998,5.1203,10.479325,-7.5531507,5.302908,-1
952,953,1583938117569,1.8240999,-2.9306,4.9786,9.986675,-7.666195399999999,5.0744242999999996,-1
953,954,1583938117580,1.3040999,-2.9916,4.667,9.702167,-7.97997,4.8025866,-1
954,955,1583938117590,1.1718998999999999,-3.1469,4.3766,9.817788,-8.400679,3.7356059999999998,-1
955,956,1583938117600,1.3485,-3.4573998,3.2194998,10.258877,-8.663515,2.2611606,-1
956,957,1583938117610,3.0370998,-3.5577998,0.023699999,11.473752000000001,-8.731586,0.6320693000000001,-1
957,958,1583938117621,3.0370998,-3.5577998,0.023699999,11.757762,-8.761447,0.8448754999999999,-1
958,959,1583938117631,3.4889997999999998,-3.5049,0.14819999,11.330110000000001,-8.703650999999999,1.1409042,-1
959,960,1583938117641,3.1160997999999998,-3.3690998999999997,0.45949998,9.951891999999999,-8.624642,1.3730267,-1
960,961,1583938117651,0.6655,-3.444,0.83559996,8.675276,-8.9854965,1.4679904,-1
961,962,1583938117661,0.6655,-3.444,0.83559996,8.521913,-9.225156,0.74942344,-1
962,963,1583938117672,1.4235,-3.9871,-2.4122999,9.785418,-9.6294985,-2.2028189,-1
963,964,1583938117682,1.4235,-3.9871,-2.4122999,11.276546000000002,-9.634727499999999,-4.3474584,-1
964,965,1583938117692,4.65,-3.9057998999999994,-6.9105,12.720575,-9.633022,-6.167981,-1
965,966,1583938117702,4.9592,-3.9424998999999996,-6.8353,12.775988,-9.733358,-5.8624516,-1
966,967,1583938117712,4.2928,-3.9771,-5.8954997,11.960369,-9.803499,-4.9160337,-1
967,968,1583938117722,4.2928,-3.9771,-5.8954997,10.849008999999999,-9.624509,-4.248262,-1
968,969,1583938117732,3.1885,-3.8734998999999997,-5.0702,10.150917,-9.197814,-4.046746700000001,-1
969,970,1583938117742,1.8677,-2.8416997999999998,-5.0917997,9.686154,-8.61249,-4.409046599999999,-1
970,971,1583938117752,1.8341999,-2.44,-5.3982,9.67202,-8.241943,-4.51239,-1
971,972,1583938117762,1.7852,-2.2133,-5.2118,9.482523,-8.050483999999999,-4.0731980000000005,-1
972,973,1583938117772,1.472,-2.1546,-4.8101997,9.192222000000001,-8.034999000000001,-3.6698227,-1
973,974,1583938117782,1.472,-2.1546,-4.8101997,9.100744,-8.020355,-3.4359763,-1
974,975,1583938117792,1.5218999,-1.9369999,-4.7023997,9.308063,-7.7529516,-3.4992695,-1
975,976,1583938117802,1.4986999,-1.5832,-4.6499,9.178641,-7.4147086,-3.3444507000000003,-1
976,977,1583938117812,0.91899997,-1.3722,-4.1548,8.534381,-7.2288227,-2.7253006,-1
977,978,1583938117822,0.1889,-1.2717,-3.1913,7.838559,-7.138475,-1.7536857,-1
978,979,1583938117833,-0.21429999,-1.2766,-2.6576998,7.4648333,-7.1456003,-1.3661889999999999,-1
979,980,1583938117843,-0.3058,-1.2462,-2.8100998,7.5460066999999995,-7.1195509999999995,-1.6866096999999998,-1
980,981,1583938117853,0.0709,-1.2587,-3.3295999,8.027806,-7.115222500000001,-2.083396,-1
981,982,1583938117863,0.5391,-1.2085,-3.4861,8.438106,-7.050320599999999,-1.9832991000000002,-1
982,983,1583938117873,0.7971,-1.0620999,-3.2435,8.463244,-6.8605084000000005,-1.5945575,-1
983,984,1583938117883,0.5162,-0.7549,-2.6703,8.017301,-6.55225,-0.93118167,-1
984,985,1583938117893,-0.0479,-0.5214,-2.0323,7.4692490000000005,-6.3714876,-0.48568773,-1
985,986,1583938117903,-0.4482,-0.38639998,-1.8018,7.238208,-6.254105,-0.3975428,-1
986,987,1583938117913,-0.493,-0.2671,-1.7541,7.275011500000001,-6.154803299999999,-0.389709,-1
987,988,1583938117923,-0.5326,-0.1627,-1.665,7.088848,-6.028408,-0.38630924,-1
988,989,1583938117933,-0.88019997,-0.0154,-1.7405,6.7852630000000005,-5.9519763,-0.45126869999999997,-1
989,990,1583938117943,-1.1617,0.0098,-1.7944,6.526986,-5.9030190000000005,-0.4568041,-1
990,991,1583938117953,-1.0928999,0.051599998,-1.6525999,6.6992927,-5.963343599999999,-0.14903428,-1
991,992,1583938117964,-0.7851,-0.1362,-1.1431999,6.999285700000001,-6.182681,0.42440575,-1
992,993,1583938117974,-0.46899998,-0.2548,-0.78819996,7.2925759999999995,-6.337002,0.57378477,-1
993,994,1583938117984,-0.16749999,-0.29839998,-0.861,7.539657000000001,-6.208232,0.37403178,-1
994,995,1583938117994,-0.0786,0.1129,-1.1572,7.4759617,-5.7907887,0.008561665,-1
995,996,1583938118004,-0.2891,0.44039997,-1.3204,7.1630588,-5.5277519999999996,0.047108315,-1
996,997,1583938118014,-0.7170000000000001,0.6288,-0.7751,6.792292999999999,-5.464353599999999,0.6495373000000001,-1
997,998,1583938118024,-1.1026,0.42749998,0.0797,6.413329,-5.910987400000001,1.486445,d
998,999,1583938118035,-1.0982,0.0361,0.24129999,6.717220299999999,-6.2233730000000005,1.3071766000000002,-1
999,1000,1583938118045,-0.3297,-0.1813,-0.1862,7.5988708,-6.3666325,0.8199662,-1
1000,1001,1583938118055,0.48259997,-0.3566,-0.6156,8.154947,-6.6466392999999995,0.48692316,-1
1001,1002,1583938118065,0.75299996,-0.6138,-0.81009996,8.353589999999999,-6.8973985,0.5641314000000001,-1
1002,1003,1583938118075,0.9492,-0.7193,-0.5057,8.529612,-7.018161999999999,1.1111202,-1
1003,1004,1583938118085,1.0703,-0.80079997,0.096,8.4434395,-7.1213326,1.560761,-1
1004,1005,1583938118095,0.86149997,-0.95659995,0.3642,8.242499,-7.277377,1.5853255,-1
1005,1006,1583938118105,0.7274,-1.0582,0.4161,8.247795,-7.2747917,1.7098143,-1
1006,1007,1583938118115,0.76919997,-0.95559996,0.4926,8.206299000000001,-7.201136,1.6046418,-1
1007,1008,1583938118125,0.6939,-0.9032,0.1369,8.141205000000001,-7.1382647,1.1562175,-1
1008,1009,1583938118135,0.73789996,-0.9001,-0.41509998,8.390164,-7.247431,0.38020879999999996,-1
1009,1010,1583938118146,1.1177,-1.0521,-1.179,8.777987,-7.40653,-0.23772508,-1
1010,1011,1583938118156,1.6651,-1.2325,-1.7759,9.377034,-7.685540700000001,-0.68583345,-1
1011,1012,1583938118166,2.0818,-1.5229,-1.9914,9.646678999999999,-8.02725,-0.8197938,-1
1012,1013,1583938118176,2.2286,-1.8865,-2.1301,9.637332,-8.278087,-1.0179571,-1
1013,1014,1583938118186,2.1922,-2.0895998,-2.4180999,9.694918,-8.417285000000001,-1.3680851,-1
1014,1015,1583938118196,2.3171,-2.1797,-2.6381,9.894767,-8.478702,-1.3849691000000002,-1
1015,1016,1583938118207,2.4875998,-2.2824,-2.6645,10.051223,-8.64551,-1.6699365000000002,-1
1016,1017,1583938118217,2.6667,-2.4656,-3.0756,10.299002999999999,-8.734287,-2.203604,-1
1017,1018,1583938118227,2.8425,-2.5851998,-3.5995,10.468772,-8.939049,-2.7249846,-1
1018,1019,1583938118237,3.0542,-2.8564,-4.0771,10.771542,-9.196091000000001,-3.1795668999999998,-1
1019,1020,1583938118247,3.389,-3.0951,-4.5516,11.162219,-9.320378,-3.6522303,-1
1020,1021,1583938118257,3.7700998999999995,-3.2101,-4.9491,11.581883,-9.428146,-3.8005366,-1
1021,1022,1583938118267,4.067,-3.3602998,-4.8581,11.599236999999999,-9.67131,-3.035503,-1
1022,1023,1583938118278,3.9638,-3.6652,-4.0088,11.604733999999999,-9.816965,-2.1833970000000003,-1
1023,1024,1583938118288,3.9915998,-3.8007,-2.8878999,11.784481,-9.785964,-0.9788454,-1
1024,1025,1583938118298,4.143,-3.7659998,-1.9749999,12.150957,-9.490366,-0.5834574,-1
1025,1026,1583938118308,4.4782,-3.5112997999999997,-1.6194998999999999,12.527000000000001,-9.309345,-0.30700370000000005,-1
1026,1027,1583938118318,4.8009996,-3.429,-1.3669,12.796261,-9.155858,-0.11216356,-1
1027,1028,1583938118328,4.9632998,-3.3427,-1.1831,12.941656,-9.013844,-0.03373909,-1
1028,1029,1583938118339,5.111000000000001,-3.2242,-1.003,13.034293,-8.6757345,0.6752701999999999,-1
1029,1030,1583938118349,5.0169,-2.9958,-0.2289,12.665911,-8.463761,1.4454178999999998,-1
1030,1031,1583938118359,4.5253,-2.9122,0.5778,12.360517,-8.379734,2.3209774,-1
1031,1032,1583938118369,4.2074,-2.9419,1.5215,12.512807,-8.222023,3.0598185,-1
1032,1033,1583938118379,4.3108997,-2.8959,2.1368,12.898330999999999,-8.028055,2.9087348,-1
1033,1034,1583938118390,4.6203,-2.8144999,2.0356998,13.078031,-7.778579700000001,2.8987844,-1
1034,1035,1583938118399,4.7302,-2.6727,2.0885,12.942528,-7.574699000000001,2.9455287,-1
1035,1036,1583938118409,4.4625,-2.5323,2.2416,12.578264,-7.299174000000001,3.1014874,-1
1036,1037,1583938118419,3.9845998,-2.4034,2.5149999,12.239284,-7.0871625,3.542432,-1
1037,1038,1583938118429,3.642,-2.3918998,2.9944,11.999748,-6.7824097000000005,3.8935466,-1
1038,1039,1583938118439,3.3095999,-2.241,3.4459,11.572067,-6.300955,4.3545739999999995,-1
1039,1040,1583938118450,2.7921999,-1.9109999,3.9966,10.992633,-5.742426,4.541264,-1
1040,1041,1583938118461,1.8450999,-0.8517,4.459,10.784825,-4.7146144,4.7235494000000005,-1
1041,1042,1583938118471,1.8450999,-0.8517,4.459,10.734202,-4.027152500000001,4.7862964,-1
1042,1043,1583938118481,1.7037,0.1372,4.4003,10.802064,-3.5644875,4.419332499999999,-1
1043,1044,1583938118491,1.7293999,-0.1065,3.2059999,10.909008,-3.7545583,2.9948208,-1
1044,1045,1583938118501,1.8571999,-0.6518,1.7326,11.092365,-4.115374,1.6815628,-1
1045,1046,1583938118511,1.8571999,-0.6518,1.7326,11.057984,-4.270509,1.5114691,-1
1046,1047,1583938118521,1.7897999,-1.0064,1.4456999,10.576118,-4.4849815,2.040741,-1
1047,1048,1583938118531,0.62189996,-1.426,3.0405,9.879232,-4.233236,3.0151618,-1
1048,1049,1583938118541,0.62189996,-1.426,3.0405,9.318213,-3.6605809999999996,2.6878746,-1
1049,1050,1583938118551,-0.88619995,-0.2651,1.7515,8.492262,-2.5882277,1.2298822,-1
1050,1051,1583938118561,-1.4964,0.3019,0.82699996,7.9304866999999994,-1.8284998,0.37925112,-1
1051,1052,1583938118572,-2.1783,0.51699996,0.63159996,7.2608957,-1.5369244,0.1969566,-1
1052,1053,1583938118582,-2.7842,0.0393,1.0162,6.807289999999999,-1.8490324,0.61721563,-1
1053,1054,1583938118592,-2.8139,-0.2852,1.9540999,6.8735037,-1.8988031000000003,1.4039981000000001,-1
1054,1055,1583938118602,-2.8279,-0.542,2.3466,6.8349767,-2.0034009999999998,1.6304705,-1
1055,1056,1583938118612,-3.0837998,-0.912,2.6332,6.4814587,-2.1354845,1.8632636000000002,-1
1056,1057,1583938118622,-3.563,-0.98609996,2.7473,5.9134192,-1.9402515,1.8369081999999999,-1
1057,1058,1583938118632,-4.5403,-0.87899995,2.6304,4.869346599999999,-1.6267258999999998,1.7837857,-1
1058,1059,1583938118642,-5.525,-0.64419997,2.9043,4.1091776,-1.2422268,2.0506146,-1
1059,1060,1583938118652,-5.6341,-0.1361,2.9573998,4.3277206,-0.31339142,2.0089938999999997,-1
1060,1061,1583938118662,-5.093,0.45679998,2.5918,4.7926269999999995,0.18540698,1.5836974,-1
1061,1062,1583938118672,-4.5984,0.5046,1.4032999,5.2683067,0.19794302,0.25433126,-1
1062,1063,1583938118682,-4.0428,0.0221,-0.13239999,5.890818599999999,-0.26342922,-1.2302365,-1
1063,1064,1583938118692,-3.26,-0.7546,-1.1293,6.672486999999999,-1.0610241000000002,-2.0405111000000002,-1
1064,1065,1583938118702,-2.5739,-1.615,-1.1187,7.327760700000001,-1.7157711,-1.8144218999999997,-1
1065,1066,1583938118712,-2.0834,-1.6794,-0.091299996,7.7498684,-1.4468544,-0.6413109,-1
1066,1067,1583938118722,-2.0834,-1.6794,-0.091299996,7.504442999999999,-0.55184436,0.9842468000000001,-1
1067,1068,1583938118733,-3.3751,-0.3392,2.8135,5.647625,0.26318023,2.2922182,-1
1068,1069,1583938118743,-5.2641,-0.0361,2.8825998,4.1860895,0.52099746,1.9930484,-1
1069,1070,1583938118753,-6.2502,0.1134,1.8463,3.6176962999999995,0.793812,0.67112345,-1
1070,1071,1583938118763,-5.5306,0.0064,0.9246,4.8505855,0.51466715,0.045441947999999996,-1
1071,1072,1583938118773,-3.8906998999999995,-0.42,0.46969998,6.2175603,0.25132415,-0.31609207,-1
1072,1073,1583938118783,-2.2319999,-0.6541,0.0275,8.038158000000001,0.057786454,-0.8110215000000001,-1
1073,1074,1583938118794,-1.2305,-0.75339997,-0.2839,8.753249,0.053496044000000006,-0.9886328999999999,-1
1074,1075,1583938118804,-0.8853,-0.5349,-0.2818,8.687351,0.50369215,-0.81353056,-1
1075,1076,1583938118814,-1.7149999,-0.2083,0.14899999,7.5115110000000005,0.72328836,-0.12170207,-1
1076,1077,1583938118825,-1.7149999,-0.2083,0.14899999,6.9459715,0.6955539000000001,0.2218946,-1
1077,1078,1583938118835,-4.0062,-0.2376,1.0131999,5.5489264,1.0120386000000001,0.22030488,-1
1078,1079,1583938118845,-4.2061,0.0028,0.5431,5.616480999999999,1.1891903999999998,-0.48453856,-1
1079,1080,1583938118855,-3.9861998999999995,0.005,-0.2147,6.038435,1.154417,-0.9795924000000001,-1
1080,1081,1583938118865,-3.3751,-0.039499998,-0.4919,6.903651700000001,1.3399676,-0.8803001,-1
1081,1082,1583938118876,-2.46,0.1946,-0.2795,7.5792575,1.5388684,-0.7480444,-1
1082,1083,1583938118886,-2.1123,0.326,-0.2419,7.472246000000001,1.6402197,-0.5762556,-1
1083,1084,1583938118896,-2.4191,0.35799998,0.13759999,6.993425,1.6242839,0.09291418,-1
1084,1085,1583938118906,-2.9389999999999996,0.097399995,1.0188999,6.381438,1.062949,0.94622684,-1
1085,1086,1583938118916,-3.5361998,-0.65419996,1.7055,6.1556169999999995,0.48149312,1.2460191,-1
1086,1087,1583938118926,-3.3588,-1.0073,1.8662,6.6078243,0.68374574,0.9055733,-1
1087,1088,1583938118937,-2.8109,-0.55399996,1.1803,7.1542580000000005,1.4650983,-0.23081063,-1
1088,1089,1583938118947,-2.4629998,0.2543,0.0925,7.075201,2.176818,-1.0885669,-1
1089,1090,1583938118957,-2.6571999,0.65929997,-0.4664,6.88311,2.1530384999999996,-1.3459723,-1
1090,1091,1583938118967,-2.7747998,0.5528,-0.6612,7.1871157000000006,1.93327,-1.1733886999999998,-1
1091,1092,1583938118977,-2.3446,0.3091,-0.43109998,8.153291000000001,1.5725788,-0.7854131,-1
1092,1093,1583938118988,-1.2774999,-0.062099997000000004,-0.0699,9.217936,1.189832,-0.6466643,-1
1093,1094,1583938118998,-0.37739998,-0.3602,0.024999999,9.673207000000001,0.98807746,-0.684167,-1
1094,1095,1583938119008,0.0232,-0.5545,-0.0276,9.564414,1.0395433,-0.8197651,d
1095,1096,1583938119018,-0.154,-0.43379998,-0.18949999,9.297853,1.3820864,-1.1557481,-1
1096,1097,1583938119029,-0.45839998,-0.065299995,-0.5668,8.929203999999999,1.6077063999999999,-1.3673286,-1
1097,1098,1583938119039,-0.92929995,0.06359999599999999,-0.8145,8.669903,1.5962048,-1.4669752,-1
1098,1099,1583938119049,-1.125,0.0067,-0.70949996,8.943579,1.4778928999999998,-1.0741538,-1
1099,1100,1583938119060,-0.7324,-0.0646,-0.45659998,9.515553,1.3622048999999998,-0.77977234,-1
1100,1101,1583938119070,-0.16409999,-0.17889999,-0.16219999,10.021305,1.3219538,-0.88241655,-1
1101,1102,1583938119080,0.3443,-0.21159999,-0.266,10.41947,1.5208256000000002,-1.3867503,-1
1102,1103,1583938119090,0.7345,-0.009000000000000001,-0.78429997,10.463773,1.696924,-1.6630316000000003,-1
1103,1104,1583938119100,0.53529996,0.0887,-1.3859,10.188593,1.5878346,-1.9184738000000001,-1
1104,1105,1583938119110,0.457,-0.0466,-1.0138,10.120405,1.4703559,-1.3811672,-1
1105,1106,1583938119121,0.3505,-0.19659999,-0.2214,9.987422,1.3390865,-0.55731267,-1
1106,1107,1583938119131,-0.0392,-0.23369999,0.5473,9.507624,1.336271,0.18547401,-1
1107,1108,1583938119141,-0.6737,-0.31059998,0.91899997,8.915184,1.2672318,0.42584229999999995,-1
1108,1109,1583938119151,-0.8483,-0.35169998,0.67329997,8.887018,1.2756306,0.1143758,-1
1109,1110,1583938119161,-0.3385,-0.087299995,0.20899999,9.445921,1.5424885,-0.42462605,-1
1110,1111,1583938119172,-0.3385,-0.087299995,0.20899999,9.835965,1.6278081,-0.8784805,-1
1111,1112,1583938119182,0.3542,-0.0517,-0.6904,10.063596,1.4947001,-1.171732,-1
1112,1113,1583938119192,0.6084,-0.2347,-0.5377,10.366874000000001,1.3097048999999998,-0.98606634,-1
1113,1114,1583938119202,0.88369995,-0.3964,-0.46069998,10.541306500000001,1.1620496999999999,-0.90829307,-1
1114,1115,1583938119213,0.6117,-0.5394,-0.2057,10.192116,1.0486125,-0.5849035,-1
1115,1116,1583938119223,0.048299998,-0.55149996,0.2586,9.448516,1.1397357,-0.08961018,-1
1116,1117,1583938119233,-0.5455,-0.3611,0.5527,8.961516,1.4670136,0.16954779999999997,-1
1117,1118,1583938119243,-0.88379997,0.0101,0.6834,8.659396000000001,1.8537921000000002,0.21528663,-1
1118,1119,1583938119253,-1.1838,0.3669,0.5438,8.409317,2.151554,0.05905059,-1
1119,1120,1583938119263,-1.3871,0.63229996,0.3427,8.239185,2.424292,-0.1449354,-1
1120,1121,1583938119274,-1.3952,0.72819996,0.39229998,8.334877,2.4773188,0.17737204,-1
1121,1122,1583938119284,-1.1486,0.6328,1.1206,8.585799,2.2535182999999996,1.0386046999999998,-1
1122,1123,1583938119294,-1.0095999,0.2933,1.8792,8.637083,1.9646148999999997,1.5963292,-1
1123,1124,1583938119304,-1.046,0.1855,2.0974,8.569280000000001,2.013629,1.5637393999999998,-1
1124,1125,1583938119314,-1.1893,0.3674,1.7681999,8.349683,2.2328514999999998,1.0739431000000002,-1
1125,1126,1583938119324,-1.5086,0.52529997,1.3349,7.8099914,2.3932345,0.8529008,-1
1126,1127,1583938119335,-2.0235999,0.6404,1.4833,7.4417534,2.5438776,1.1456255,-1
1127,1128,1583938119345,-2.4503,0.8037,2.0111,6.825946000000001,2.7373865,2.0953863,-1
1128,1129,1583938119355,-3.1125998,0.9105,3.0895998,5.930035,2.8085612999999996,3.1349772999999996,-1
1129,1130,1583938119365,-4.0894,0.885,3.9578998,5.081118599999999,2.6737102999999998,3.7848977999999995,-1
1130,1131,1583938119375,-4.7348,0.7044,4.7107997,4.7880874,2.5567966,4.654922,-1
1131,1132,1583938119385,-4.7756,0.70809996,5.5032,4.9273148,2.5995765,5.185726,-1
1132,1133,1583938119395,-4.644,0.7795,5.8353,5.0951486,2.6399617,5.1138043,-1
1133,1134,1583938119406,-4.4863,0.86689997,5.4518,5.232221,2.6974416000000003,4.4061449999999995,-1
1134,1135,1583938119416,-4.4193,0.98539996,4.6675997,5.179233,2.6692572,3.8335383000000003,-1
1135,1136,1583938119426,-4.5783997,0.9032,4.343899700000001,4.927736299999999,2.3482711,3.8304449999999997,-1
1136,1137,1583938119437,-4.8539,0.52599996,4.4628997,4.626249,1.582098,4.1913567,-1
1137,1138,1583938119447,-5.0291,-0.079399996,4.8782997,5.082641000000001,1.1231200000000001,4.6698904,-1
1138,1139,1583938119457,-4.4289,-0.3683,5.3746,5.9469959999999995,1.2203821000000001,4.6723704,-1
1139,1140,1583938119467,-3.6195998,-0.12079999599999999,5.2987,6.270347,1.4559332,4.3304024000000005,-1
1140,1141,1583938119477,-3.4482,0.1303,5.000099700000001,5.838711,1.502649,3.7415434999999997,-1
1141,1142,1583938119487,-4.0021,0.2446,4.4133,5.1978599999999995,1.6243893,3.2549555,-1
1142,1143,1583938119498,-4.5762,0.4051,4.0765,5.0165896,1.4534241,3.4701845999999996,-1
1143,1144,1583938119508,-4.6903,0.24679999,4.4561,5.3029366,0.9246119,3.6999514,-1
1144,1145,1583938119518,-4.2655,-0.2173,4.6047997,6.35853,0.15136144,3.1515641,-1
1145,1146,1583938119528,-3.1048,-0.8961,3.9185998,7.8621655,-0.7385825,1.8749856,-1
1146,1147,1583938119538,-1.5494,-1.6451,2.6905,9.445288,-1.563835,0.716326,-1
1147,1148,1583938119549,0.0002,-2.2858999,1.6746999,10.665929,-2.486503,-0.63596696,-1
1148,1149,1583938119559,0.9359999999999999,-2.9071999,0.6448,10.827652,-3.000155,-1.2445443,-1
1149,1150,1583938119569,1.1098,-3.2809,0.1388,10.714378,-3.2823453000000002,-1.5042578000000002,-1
1150,1151,1583938119579,1.0001,-3.4162998,-0.058599997,10.83948,-3.4310157,-1.9690009999999998,-1
1151,1152,1583938119589,1.1338,-3.4357998,-0.47039998,11.17508,-3.6376255,-2.5958989,-1
1152,1153,1583938119600,1.5892998999999999,-3.5314,-1.2617999,12.109430999999999,-3.7583892,-3.9156404,-1
1153,1154,1583938119610,2.418,-3.4761,-2.3762999,13.1728115,-3.8848220999999996,-5.132661,-1
1154,1155,1583938119620,3.4847998999999996,-3.4582998999999996,-3.5763,13.949079500000002,-4.029729,-5.8749400000000005,-1
1155,1156,1583938119631,4.2708,-3.467,-4.294699700000001,13.93795,-4.204343,-6.154955999999999,-1
1156,1157,1583938119641,3.7321,-3.5758997999999997,-4.4136,13.237254,-4.372349,-6.0537386,-1
1157,1158,1583938119651,3.7321,-3.5758997999999997,-4.4136,12.738158,-4.3939056,-6.1039023,-1
1158,1159,1583938119661,2.9318,-3.0395,-4.8043,12.539765,-3.8908842000000003,-6.7069345,-1
1159,1160,1583938119672,2.9318,-3.0395,-4.8043,12.657858000000001,-3.6103796999999997,-7.66224,-1
1160,1161,1583938119682,3.6304998,-2.2468,-7.132899799999999,13.36679,-3.2985396000000002,-8.994307000000001,-1
1161,1162,1583938119692,4.0474,-1.974,-7.9013,13.650426000000001,-3.1813674,-9.716436,-1
1162,1163,1583938119702,4.0474,-1.974,-7.9013,13.474194,-3.3272315999999997,-10.073144000000001,-1
1163,1164,1583938119712,3.4682,-2.158,-8.0362,12.949758000000001,-3.5198214,-9.525350999999999,-1
1164,1165,1583938119722,3.4682,-2.158,-8.0362,12.530304,-3.932122,-8.950541000000001,-1
1165,1166,1583938119733,2.9863,-2.5973,-7.1712,12.629787,-3.9418616,-8.842955,-1
1166,1167,1583938119743,3.1367998,-2.4097,-7.6987,12.700263,-3.7608695,-9.472813,-1
1167,1168,1583938119753,2.7659,-2.2008,-8.307,12.117017,-3.5497677000000003,-10.09222,-1
1168,1169,1583938119763,1.9912,-1.9894999,-8.674399000000001,11.240978,-3.316247,-10.329763,-1
1169,1170,1583938119774,1.2148,-1.819,-8.6484995,10.5670395,-3.2199904999999998,-10.211424000000001,-1
1170,1171,1583938119785,0.78029996,-1.8508999,-8.5461,10.312152000000001,-3.2994013,-9.991301,-1
1171,1172,1583938119795,0.6975,-1.9171,-8.1914,10.254146,-3.4272997000000003,-9.587131,-1
1172,1173,1583938119805,0.61359996,-2.0902,-7.9051,10.164114,-3.6202915,-9.109286,-1
1173,1174,1583938119815,0.4992,-2.1390998,-7.3792,9.914371000000001,-3.5259216,-8.434714999999999,-1
1174,1175,1583938119825,0.0994,-1.9973999,-6.8071,9.3183,-3.463117,-7.713830499999999,-1
1175,1176,1583938119835,-0.5753,-1.9986,-5.9603996,8.645184500000001,-3.4418275,-6.7360005,-1
1176,1177,1583938119846,-1.23,-1.9824,-5.1584997,8.148082,-3.4447867999999997,-6.144029,-1
1177,1178,1583938119856,-1.5897,-1.9237,-4.8269,7.8924856,-3.3214949999999996,-6.0468435,-1
1178,1179,1583938119866,-1.8307999,-1.8403,-4.9771,7.7428193,-3.3428322999999995,-6.4820137,-1
1179,1180,1583938119877,-1.9139999,-1.8801,-5.5583,7.7927527,-3.3605015,-6.9042935,-1
1180,1181,1583938119887,-1.7605,-1.8984,-5.8381996,8.01165,-3.5088656000000005,-6.70545,-1
1181,1182,1583938119897,-1.5961,-2.1148,-5.4014997000000005,8.030804,-3.7409592000000003,-5.8576345000000005,-1
1182,1183,1583938119907,-1.6373999,-2.2373,-4.6829,7.813209,-3.6620464,-5.061381,-1
1183,1184,1583938119917,-1.8949,-2.1369,-3.8873,7.582839,-3.5995386,-4.303999,-1
1184,1185,1583938119927,-2.1625,-2.0841,-2.9994,7.534859,-3.5859587,-3.4176269999999995,-1
1185,1186,1583938119938,-2.0765998,-2.0739,-2.3832,7.702942,-3.5884008,-3.0091379000000003,-1
1186,1187,1583938119948,-1.921,-2.0758997999999997,-2.113,7.7918243,-3.7453265,-3.1532497000000004,-1
1187,1188,1583938119959,-1.8326,-2.3081,-2.5256,8.152869,-4.028771,-4.0598383,-1
1188,1189,1583938119969,-1.4977,-2.4496999,-3.2517998,8.560248,-4.0097613,-4.480385,-1
1189,1190,1583938119979,-0.9948,-2.4053,-3.7285998,8.866839,-3.987792,-4.2580495,-1
1190,1191,1583938119989,-0.7655,-2.3741999,-3.2756,8.859447,-3.865065,-2.7108684,-1
1191,1192,1583938119999,-0.78099996,-2.2198,-1.9078,8.567103999999999,-3.8029977999999995,-0.7766312,-1
1192,1193,1583938120009,-1.0711,-2.1448,0.0402,8.092037,-4.1391153,0.8273020000000001,-1
1193,1194,1583938120019,-1.5469998999999999,-2.4545999,1.6358999,8.120596,-4.3763323,1.2044271,-1
1194,1195,1583938120030,-1.5113,-2.6489,2.0063999,8.955492,-4.4758544,1.288253,-1
1195,1196,1583938120040,-0.6594,-2.6938999,2.0499,10.00307,-4.6750712,2.1670592,-1
1196,1197,1583938120050,0.39119998,-2.8105,2.8834,10.875910000000001,-4.9183607,3.6031873,-1
1197,1198,1583938120060,1.2773,-2.9598,4.2742,11.668727,-5.294222,4.945693,-1
1198,1199,1583938120071,1.9485999,-3.1889999999999996,5.3926997000000005,12.1960535,-5.537625299999999,5.3682985,-1
1199,1200,1583938120081,2.6296,-3.4255,5.9402,12.870874,-5.479696,5.81339,-1
1200,1201,1583938120091,3.5546,-2.9189,7.2011,13.090404,-5.0612273000000005,6.922557,-1
1201,1202,1583938120101,3.2470999,-2.4359,8.533999,12.676244,-4.6259522,8.330884,-1
1202,1203,1583938120111,2.6331,-2.0217,9.781199,12.062869000000001,-4.226915,9.455430999999999,-1
1203,1204,1583938120121,2.3127,-1.6761999,10.2603,11.821955,-3.9184558,9.949498,-1
1204,1205,1583938120132,2.4157999,-1.5284,10.6491995,12.071278,-3.9039852999999995,10.374363,-1
1205,1206,1583938120142,3.0607,-1.7835,10.7794,12.889712,-4.2587485,10.426433,-1
1206,1207,1583938120152,4.0306,-1.9769999999999999,10.3968,13.760329,-4.4298954,9.9732485,-1
1207,1208,1583938120162,5.127000000000001,-2.0994,9.6651,14.822589,-4.5624194000000005,9.344128999999999,-1
1208,1209,1583938120172,5.7286997,-1.9469999,9.6004,15.228817999999999,-4.350485,9.412393,-1
1209,1210,1583938120183,5.2746997,-1.615,9.9731,14.385054,-3.9114169999999997,9.884634,-1
1210,1211,1583938120193,4.1777997000000004,-1.2853,10.1944,13.291459,-3.6149477999999995,9.907896000000001,-1
1211,1212,1583938120203,3.363,-1.1807,9.918799,12.769255000000001,-3.5249352,9.44524,-1
1212,1213,1583938120213,3.2247999,-1.1834999,9.2116995,12.844596000000001,-3.5350482000000003,8.601208,-1
1213,1214,1583938120224,3.517,-1.3188,8.0137,13.222610999999999,-3.653753,7.136368300000001,-1
1214,1215,1583938120234,3.9993,-1.2925999,6.224,13.671553,-3.4931977,5.7035537000000005,-1
1215,1216,1583938120244,4.4681,-1.0677,4.8761,14.113762,-3.2146754,4.433898999999999,-1
1216,1217,1583938120254,4.5516,-1.0652,4.6115,14.070417,-3.2442007,4.589876,-1
1217,1218,1583938120264,4.2694,-1.3166,5.1333,13.716314,-3.4219557999999997,5.0192237,-1
1218,1219,1583938120275,3.9067998,-1.4160999,5.2093,13.357376,-3.2748945,4.6271877,-1
1219,1220,1583938120284,3.4747999,-1.2786,4.3229,12.961317,-3.0774877,3.560427,-1
1220,1221,1583938120294,3.0138,-1.2803,3.3681,12.562769,-2.9663777000000002,2.7285855,-1
1221,1222,1583938120305,2.9167,-1.1919999,2.6051,12.721523,-2.6923373,1.9133407,-1
1222,1223,1583938120315,3.3114998,-1.0121,1.8087,13.10088,-2.5150704,1.3130089,-1
1223,1224,1583938120325,3.5997999,-1.1079,0.9623,13.347809,-2.6241217,0.076451644,-1
1224,1225,1583938120335,3.6143,-1.3392,0.16219999,13.250929999999999,-2.7016172000000003,-0.38404912,-1
1225,1226,1583938120345,3.3944,-1.6107999,0.1485,13.041925,-2.8621627999999997,2.8730421000000003e-05,-1
1226,1227,1583938120356,3.2052999,-1.8153,0.9363,12.724627,-2.8338248999999998,0.59397274,-1
1227,1228,1583938120366,2.7141,-1.9588,0.9535,12.204874,-2.820925,-0.02195004,-1
1228,1229,1583938120376,2.3618999,-1.9482,0.3534,12.045842,-2.5421827,-0.39603928,-1
1229,1230,1583938120386,2.227,-1.8275,0.1968,11.912522000000001,-2.3164667999999997,-0.61175686,-1
1230,1231,1583938120396,1.9754,-1.7723,-0.067499995,11.299675,-2.1359727000000004,-0.9070959999999999,-1
1231,1232,1583938120407,1.0975,-1.7658999,-0.4037,10.250928,-2.1423794999999997,-1.6074096000000002,-1
1232,1233,1583938120417,0.35869998,-1.9847,-1.0256,10.191839,-2.2840588,-1.8345906000000003,-1
1233,1234,1583938120427,0.4958,-2.2501,-1.1036,10.780649,-2.4257286,-1.7453156000000003,-1
1234,1235,1583938120437,1.0978,-2.5088,-0.9891,11.086322000000001,-2.1753716,-1.8794388,-1
1235,1236,1583938120447,1.2430999,-2.3211,-1.0900999,10.239023,-1.7576984,-1.7340148999999998,-1
1236,1237,1583938120458,0.1865,-2.1132998,-0.7435,8.803661,-1.4552532,-1.2584882,-1
1237,1238,1583938120468,-1.209,-1.9602,-0.195,7.678942,-0.90450066,-0.7654454,-1
1238,1239,1583938120478,-2.2477999,-1.5924,0.3178,6.761063,-0.28741914,-0.8363138000000001,-1
1239,1240,1583938120488,-3.1174998,-1.1558,0.1087,6.137105,0.24368185,-1.6041629,-1
1240,1241,1583938120498,-3.5942998,-0.82979995,-0.63949996,6.224637,0.5429666,-2.242639,-1
1241,1242,1583938120508,-3.3256,-0.7112,-1.166,6.8564476999999995,0.7380845,-2.584464,-1
1242,1243,1583938120518,-2.6734998,-0.68759996,-1.3859,7.152438,0.70091695,-2.6438212000000005,-1
1243,1244,1583938120528,-2.4796999,-0.9065,-1.3722,6.8432699999999995,0.54854995,-2.4268107000000003,-1
1244,1245,1583938120538,-2.8016999,-1.1889,-0.99899995,6.4744196,0.58416605,-1.9593571,-1
1245,1246,1583938120549,-3.1306,-1.2104,-0.50879997,6.0682,1.0230999,-1.8341116999999998,-1
1246,1247,1583938120559,-3.5563,-0.8477,-0.4174,5.42031,1.6060976,-1.8975484,-1
1247,1248,1583938120569,-4.1879,-0.3913,-0.4219,4.7914395,2.1039095000000003,-2.091067,-1
1248,1249,1583938120579,-4.7724,-0.0805,-0.6509,4.276962999999999,2.326532,-2.4658743999999997,-1
1249,1250,1583938120589,-5.212999999999999,0.0095999995,-0.9963,4.042255,2.4554548,-2.9001924999999997,-1
1250,1251,1583938120600,-5.3327,0.026099999,-1.3237,4.0054994,2.391051,-2.9907026,-1
1251,1252,1583938120610,-5.3457,-0.1219,-1.3902,4.210768700000001,2.2191183999999997,-2.8251578999999998,-1
1252,1253,1583938120620,-5.1236,-0.36949998,-1.1946,4.420769,2.2673952999999996,-2.610379,-1
1253,1254,1583938120630,-4.8828,-0.38639998,-0.9321,4.2710834,2.4966063,-2.1107953,-1
1254,1255,1583938120640,-5.0158,-0.2259,-0.4035,3.6135589999999995,2.8539362,-1.8847060000000002,-1
1255,1256,1583938120651,-5.6407,0.082899995,-0.1589,2.802298,3.177709,-1.8038203999999998,-1
1256,1257,1583938120661,-6.4346,0.33859998,-0.0674,2.353548,3.3417597000000003,-1.7889283999999999,-1
1257,1258,1583938120671,-6.768399700000001,0.3988,-0.3543,2.4931972,3.2996792999999998,-2.2221544,-1
1258,1259,1583938120681,-6.4551,0.31219998,-0.84559995,2.7722557,3.2084985,-2.7139903999999997,-1
1259,1260,1583938120691,-6.2899,0.1239,-1.1848,2.9248526000000004,3.0420822999999997,-3.038443,-1
1260,1261,1583938120702,-6.1934,0.1134,-1.0916,2.9799576,3.1056724,-2.8143172,-1
1261,1262,1583938120712,-6.1934,0.1134,-1.0916,2.5442223999999998,3.2983288999999996,-2.2005684,-1
1262,1263,1583938120722,-6.5102,0.2996,-0.45569998,1.9929432,3.548475,-1.9110421999999998,-1
1263,1264,1583938120732,-7.4572997,0.8736,-0.2462,1.6726564,3.9253225,-2.1888366,-1
1264,1265,1583938120742,-7.6224,1.1995,-0.5951,1.5448251,4.170019600000001,-2.478401,-1
1265,1266,1583938120753,-7.6656,1.1688,-0.7412,1.526974,4.0338182,-2.5666130000000003,-1
1266,1267,1583938120763,-7.6642,0.87759995,-0.3489,1.5376426,3.5396642999999997,-1.943862,-1
1267,1268,1583938120773,-7.6945996,0.4103,0.19229999,1.5740248,2.9975883999999997,-1.5148306,-1
1268,1269,1583938120783,-7.6278996,-0.02,0.36499998,1.6304034,2.5952667999999997,-1.5504276000000001,-1
1269,1270,1583938120793,-7.6881,-0.18959999,0.0069999998,1.5902573999999998,2.3371336,-1.9821692,-1
1270,1271,1583938120803,-7.6208,-0.4016,-0.1589,1.7840633000000001,2.0615034,-1.8786726000000002,-1
1271,1272,1583938120813,-7.4667997,-0.5656,0.0867,1.8223897,1.7889761999999998,-1.7530153999999998,-1
1272,1273,1583938120824,-7.6208,-0.7773,0.096499994,1.6929879,1.4566898000000001,-1.7667773,-1
1273,1274,1583938120834,-7.6618,-0.9849,0.1617,1.7331051,1.1437292,-1.4959548,-1
1274,1275,1583938120844,-7.7567997,-1.2069,0.6423,1.5237082,0.7374906999999999,-1.0261166,-1
1275,1276,1583938120854,-8.100699,-1.4925,0.76519996,1.3404559999999999,0.3812335,-1.013073,-1
1276,1277,1583938120864,-8.026199,-1.5848999,0.8440000000000001,1.6775883000000003,0.20038511,-0.6902866999999999,-1
1277,1278,1583938120874,-7.4523997,-1.3682,1.2663,2.2663896,0.24834575,-0.21484609,-1
1278,1279,1583938120884,-7.0429997,-1.3762,1.6693,2.6641529,-0.02858677,0.29807812,-1
1279,1280,1583938120895,-6.8732,-1.515,1.8888999,2.7570574,-0.4376026,0.33835816,-1
1280,1281,1583938120905,-6.7953997,-1.8619,1.2817,3.075716,-1.1505288,-0.80987227,-1
1281,1282,1583938120915,-6.3883996,-2.1794,0.2656,3.5506968,-1.5698205,-1.488705,-1
1282,1283,1583938120925,-5.7411,-2.6146998,-0.4209,4.2212076,-2.3569098,-1.9265566000000003,-1
1283,1284,1583938120935,-5.1292,-3.159,-0.3297,4.77695,-2.9884232999999996,-1.5524195,-1
1284,1285,1583938120945,-4.6609,-3.4015,-0.0858,5.480462,-3.3537786,-1.3807361,-1
1285,1286,1583938120956,-3.9842,-3.1817,0.033,6.074454,-3.2358882,-0.94979894,-1
1286,1287,1583938120966,-3.5091,-2.9884999,0.6368,6.4152059999999995,-3.5657517999999997,0.23522553,-1
1287,1288,1583938120976,-3.2233999,-2.9902,1.9016998999999999,6.5831738,-3.7374922999999995,1.3673764,-1
1288,1289,1583938120986,-3.0753999,-3.1176,2.8262,6.725264500000001,-4.511289,2.0048566,-1
1289,1290,1583938120996,-2.8867998,-3.6460998,2.6934,7.2220902,-5.691592,0.98736876,-1
1290,1291,1583938121006,-2.0083,-4.3497,1.4659,8.467908,-6.5030730000000005,-0.10775823,-1
1291,1292,1583938121017,-0.42929998,-5.0836997,0.082899995,10.341084,-7.347010000000001,-1.3143017,-1
1292,1293,1583938121027,1.4853,-5.2609,-1.2107999,11.593672999999999,-7.410686500000001,-2.3163614,-1
1293,1294,1583938121037,2.4378,-4.9118,-2.2551,11.746528999999999,-7.452374000000001,-2.803227,-1
1294,1295,1583938121047,2.2481,-4.7299,-2.0898,11.262976,-7.3799734,-1.7799358,-1
1295,1296,1583938121057,1.8273,-4.3377,-0.9917,10.801872,-7.2567773,-0.6453426999999999,-1
1296,1297,1583938121067,1.2644,-4.0094,0.44009998,9.98749,-7.534542999999999,1.2696451000000002,-1
1297,1298,1583938121077,0.7096,-4.069,1.9562998999999999,9.724960000000001,-7.7582383,2.1906657000000003,-1
1298,1299,1583938121087,0.7671,-4.3903,2.9629998,10.341313000000001,-8.84285,3.1138413,-1
1299,1300,1583938121097,1.9433999,-5.1566,3.0981998,12.185317999999999,-9.810367,2.7036283,-1
1300,1301,1583938121107,3.7668998,-5.4867,2.2180998,13.540168,-10.093906,1.638898,-1
1301,1302,1583938121117,5.4930997,-5.5041,0.5703,14.85264,-9.941453,0.35275212,-1
1302,1303,1583938121128,6.4607,-4.8519,-0.24669999,14.646557999999999,-9.092651,0.538274,-1
1303,1304,1583938121138,6.1109,-3.8209,0.0412,13.313907,-9.002591,1.712582,-1
1304,1305,1583938121148,4.8364997,-3.7201998,1.4185,12.110552,-9.563754,3.5717084000000003,-1
1305,1306,1583938121158,3.8736,-4.1521,3.2215,11.735132,-10.340969,4.7299370000000005,-1
1306,1307,1583938121168,3.8432998999999994,-4.7592998,3.9749,12.464032000000001,-10.887814500000001,3.5301354,-1
1307,1308,1583938121179,5.0076,-5.0066,2.3006,14.46231,-10.925125,1.4392025,-1
1308,1309,1583938121189,7.2665997,-4.731,0.1338,16.052882999999998,-10.708527,0.19704281,-1
1309,1310,1583938121199,8.821199,-4.3665,-0.94839996,16.514426999999998,-10.673753,0.5275384,-1
1310,1311,1583938121209,9.152699,-4.2198,-0.3701,15.711623000000001,-10.871466999999999,1.9380008999999998,-1
1311,1312,1583938121219,8.3214,-4.3048997,1.0677,14.147461999999999,-11.258016,3.233695,-1
1312,1313,1583938121229,7.1285996,-4.4867,2.0964,13.403573999999999,-11.337522,3.7227635,-1
1313,1314,1583938121239,6.4631996,-4.4816,2.5867,13.402732,-11.353974000000001,3.596685,-1
1314,1315,1583938121249,6.5916,-4.4245,2.4342,13.601239000000001,-11.329075,3.5567973,-1
1315,1316,1583938121259,6.857,-4.2774,2.3687,13.399207,-11.089913000000001,3.1442572999999996,-1
1316,1317,1583938121269,6.6354,-3.9173,1.6638,12.848005,-10.591277999999999,1.8350790000000001,-1
1317,1318,1583938121279,6.1777997000000004,-3.2674,0.2615,12.436557,-9.709809,1.2127302,-1
1318,1319,1583938121290,5.9332,-2.4812999,-0.1853,11.85622,-9.313569000000001,1.5072458,-1
1319,1320,1583938121300,5.2125998,-2.0083,0.2015,10.81595,-9.156366,2.4917607000000004,-1
1320,1321,1583938121310,4.4094,-1.8565999,1.0472,10.369709,-9.009486,3.2444592,-1
1321,1322,1583938121320,3.9896998,-1.6708,1.8097,10.077894,-8.894996,3.0180445,-1
1322,1323,1583938121330,3.7317,-1.5390999,1.5895,9.919982000000001,-8.486277000000001,2.2064102,-1
1323,1324,1583938121340,3.5872998,-1.1183,0.7726,9.674251,-8.188294,1.7636935,-1
1324,1325,1583938121351,3.3701,-0.8003,0.32349998,9.232913,-7.9534135,1.7270718,-1
1325,1326,1583938121361,2.9420998,-0.55509996,0.2765,8.757291,-7.917261,1.9081501,-1
1326,1327,1583938121371,2.4713,-0.5092,0.4553,8.382866,-7.941873599999999,1.6833918999999997,-1
1327,1328,1583938121381,2.0918999,-0.47309998,-0.20359999,8.384016,-7.884834,1.2842114,-1
