,Seq,Time,ACCx,ACCy,ACCz,ADGx,ADGy,ADGz,Keydown
0,1,1582724985013,2.3231029999999997,0.059372306,-3.1414008,10.001,1.516,2.783,-1
1,2,1582724985023,2.3231029999999997,0.059372306,-3.1414008,3.0269999999999997,9.658999999999999,-0.122,-1
2,3,1582724985034,-0.18997765,0.65403175,0.78642434,2.608,10.044,1.199,-1
3,4,1582724985044,-0.63532376,1.0009794,1.8136964,2.133,10.395999999999999,2.3040000000000003,-1
4,5,1582724985055,-0.65936875,0.9116907,2.6659002,2.083,10.31,3.233,-1
5,6,1582724985065,-0.22290778,1.0348405999999999,3.0079756,2.5,10.435,3.635,-1
6,7,1582724985075,0.5898496999999999,1.0679893,2.6587281000000003,3.295,10.470999999999998,3.319,-1
7,8,1582724985086,1.2362068000000002,1.2098608,1.9158168000000002,3.918,10.619000000000002,2.5839999999999996,-1
8,9,1582724985096,1.8788135,1.4918221999999999,1.5002401,4.526,10.911,2.165,-1
9,10,1582724985106,1.6706305000000001,1.4340792,1.5960674,4.265,10.868,2.26,-1
10,11,1582724985116,0.36715603,1.1171111999999999,2.0625753000000002,2.885,10.571,2.737,-1
11,12,1582724985127,-1.2763811,0.6462116,2.895339,1.147,10.123,3.594,-1
12,13,1582724985137,-2.316217,0.16366673,3.8420606,0.006999999999999999,9.663,4.574,-1
13,14,1582724985147,-3.4096036,0.052558900000000006,4.401738,-1.18,9.572000000000001,5.162999999999999,-1
14,15,1582724985157,-3.682351,-0.25844002,4.3524184,-1.535,9.277999999999999,5.1370000000000005,-1
15,16,1582724985168,-3.0831656,-0.69599533,4.4174223,-1.032,8.859,5.233,-1
16,17,1582724985178,-2.7516465,-0.8000107,4.1746216,-0.73,8.76,5.005,-1
17,18,1582724985188,-2.517156,-1.1924696000000001,3.9131373999999997,-0.579,8.214,4.928,-1
18,19,1582724985198,-2.6824868,-1.6356030000000001,4.1993074,-0.787,7.941,5.13,-1
19,20,1582724985208,-2.9999952000000003,-2.2625002999999997,5.378094,-1.185,7.319,6.412999999999999,-1
20,21,1582724985218,-3.6564841,-2.8887186000000002,6.1108847,-2.43,6.284,7.422000000000001,-1
21,22,1582724985228,-4.581796,-3.6453633,6.355534,-2.943,5.944,7.5920000000000005,-1
22,23,1582724985239,-5.4442816,-4.425087,6.080619,-3.932,5.167999999999999,7.443,-1
23,24,1582724985249,-6.1698184000000005,-4.9147024,5.599178299999999,-4.775,4.6819999999999995,7.058,-1
24,25,1582724985259,-6.743169,-5.7010879999999995,5.012703,-5.405,3.8989999999999996,6.502000000000001,-1
25,26,1582724985270,-7.3571353,-6.308256,4.504144999999999,-6.045,3.293,6.0089999999999995,-1
26,27,1582724985280,-7.763947,-7.452547999999999,4.113641,-6.435,2.1430000000000002,5.64,-1
27,28,1582724985290,-7.2707869999999994,-8.218364999999999,3.928179,-5.8839999999999995,1.367,5.4670000000000005,-1
28,29,1582724985301,-7.0573425,-9.053077,3.9826834000000004,-5.587000000000001,0.517,5.539,-1
29,30,1582724985311,-6.936605999999999,-9.3989,3.9856352999999998,-5.417000000000001,0.162,5.551,-1
30,31,1582724985322,-6.914322,-10.520114999999999,3.592386,-5.218,-0.991,5.17,-1
31,32,1582724985332,-6.94331,-11.146402,3.1287591,-5.103,-1.642,4.694,-1
32,33,1582724985342,-7.023887599999999,-11.798541,2.4757667000000003,-5.0169999999999995,-2.323,4.011,-1
33,34,1582724985353,-6.90907,-12.528829,1.9411802,-4.711,-3.089,3.4339999999999997,-1
34,35,1582724985363,-6.586195,-13.094171000000001,1.2507756,-4.169,-3.7,2.6919999999999997,-1
35,36,1582724985373,-5.7397599999999995,-13.4459305,0.38817167,-2.483,-4.248,1.429,-1
36,37,1582724985384,-4.82929,-13.654431,-0.14200914,-1.875,-4.399,1.192,-1
37,38,1582724985394,-2.6376126,-13.517757000000001,-1.2202953,0.795,-4.421,0.059000000000000004,-1
38,39,1582724985404,-1.8022636000000003,-13.521614000000001,-1.567553,2.991,-4.526,-0.922,-1
39,40,1582724985415,0.28466177,-13.347414,-2.3789492,4.2410000000000005,-4.466,-1.099,-1
40,41,1582724985425,2.360312,-12.72568,-2.7392807,6.689,-4.026,-1.4169999999999998,-1
41,42,1582724985435,3.7254410000000004,-11.434317,-2.2239258,8.691,-3.0989999999999998,-0.797,-1
42,43,1582724985445,4.0015197,-10.5755625,-2.279921,9.529,-2.612,-0.797,-1
43,44,1582724985455,4.207635,-9.7769375,-2.5941384,10.2,-2.169,-1.051,-1
44,45,1582724985466,5.1881385,-9.118367999999998,-4.042369399999999,11.550999999999998,-1.834,-2.423,-1
45,46,1582724985476,6.619571700000001,-7.8030824999999995,-5.7140856,13.309000000000001,-0.845,-3.98,-1
46,47,1582724985486,9.271105,-6.767156,-7.1067247,16.257,-0.155,-5.197,-1
47,48,1582724985496,11.962856,-5.0129514,-7.7495259999999995,19.212,1.2309999999999999,-5.597,-1
48,49,1582724985506,13.725357,-3.4920163,-6.770492599999999,21.198,2.3680000000000003,-4.323,-1
49,50,1582724985517,13.895238,-2.3300827,-4.595941000000001,21.552,3.142,-1.839,-1
50,51,1582724985527,13.257523,-1.258162,-3.1074803,21.070999999999998,3.8339999999999996,-0.076,-1
51,52,1582724985537,13.200160999999998,-0.5384383,-3.739351,21.156999999999996,4.186,-0.493,-1
52,53,1582724985547,13.914585999999998,0.649302,-6.1669636,22.005,5.012,-2.7489999999999997,-1
53,54,1582724985557,16.000366,1.7210984,-7.848922999999999,24.206,5.7139999999999995,-4.258,-1
54,55,1582724985567,17.98501,3.0146492,-7.719386999999999,26.275,6.627000000000001,-3.925,-1
55,56,1582724985577,19.095432000000002,4.0033154,-5.7420645,27.436999999999998,7.235,-1.724,-1
56,57,1582724985587,19.682522,4.9146985999999995,-3.0587106,28.057,7.781000000000001,1.163,-1
57,58,1582724985597,19.884953,5.5041285,-0.9634396999999999,28.289,8.037,3.41,-1
58,59,1582724985607,19.357229999999998,5.848382,-0.3973813,27.794,8.09,4.071000000000001,-1
59,60,1582724985617,18.976547,6.4075403,-0.84939384,27.449,8.396,3.6710000000000003,-1
60,61,1582724985628,19.257635,7.3165307,-1.8001316000000003,27.77,9.079,2.739,-1
61,62,1582724985638,19.803703,8.317574,-2.3244305,28.359,9.872,2.21,-1
62,63,1582724985648,20.499922,9.310848,-1.7813041,29.096999999999998,10.675999999999998,2.735,-1
63,64,1582724985658,21.040504000000002,9.527082,-0.8253164000000001,29.676,10.729000000000001,3.6639999999999997,-1
64,65,1582724985669,21.02786,9.136254,1.2947459,29.695,10.212,5.755,-1
65,66,1582724985679,20.367801999999998,8.106616,4.028071,29.063000000000002,9.103,8.452,-1
66,67,1582724985689,18.867256,7.0104785000000005,7.130024400000001,27.596999999999998,7.982,11.491,-1
67,68,1582724985700,17.145172,6.281516000000001,9.292755,25.923000000000002,7.287999999999999,13.548,-1
68,69,1582724985709,15.814926000000002,5.9278526,10.797391000000001,24.654,7.024,14.901,-1
69,70,1582724985719,14.839031,5.6370544,12.206732,23.746,6.871,16.12,-1
70,71,1582724985729,13.662828,5.019881,14.15347,22.631999999999998,6.437,17.857,-1
71,72,1582724985739,12.09523,3.7273574000000003,15.837392000000001,21.112,5.372000000000001,19.325,-1
72,73,1582724985749,10.45562,2.2391822,16.745110999999998,19.5,4.15,20.019000000000002,-1
73,74,1582724985759,8.968164999999999,1.2176151000000002,16.992788,18.017,3.42,20.065,-1
74,75,1582724985769,6.952883,0.57562685,17.472673,15.979000000000001,3.082,20.374000000000002,-1
75,76,1582724985779,5.063350700000001,0.03750539,18.789505,14.039000000000001,2.852,21.561999999999998,-1
76,77,1582724985790,4.0542154,-0.76554394,20.632579999999997,12.959000000000001,2.356,23.303,-1
77,78,1582724985800,3.9361733999999995,-1.8338133,21.936768,12.758,1.597,24.500999999999998,-1
78,79,1582724985810,3.4523629999999996,-2.4043932,22.312746,12.181,1.3459999999999999,24.745,-1
79,80,1582724985820,3.1265507,-3.266879,21.4062,11.747,0.816,23.684,-1
80,81,1582724985831,2.4999657,-3.6269233,19.62246,10.99,0.799,21.744,-1
81,82,1582724985841,1.3531198999999998,-4.509003,17.506659,9.687000000000001,0.265,19.488,-1
82,83,1582724985851,0.16236782,-5.627438,16.209646,7.438,-0.725,17.426,-1
83,84,1582724985861,-1.1738205,-6.2538595,15.078507,6.785,-0.797,16.825,-1
84,85,1582724985871,-1.7791008999999998,-6.8587823000000006,14.056984,5.975,-1.084,15.699000000000002,-1
85,86,1582724985882,-2.0066638,-7.234682,12.692382,5.539,-1.166,14.243,-1
86,87,1582724985892,-2.4421767999999995,-7.712209700000001,10.32814,4.79,-1.254,11.797,-1
87,88,1582724985902,-3.4922712,-8.073443,8.868198,3.537,-1.405,10.382,-1
88,89,1582724985912,-3.9984934,-8.082971,8.127167,2.938,-1.348,9.769,-1
89,90,1582724985922,-4.621126,-8.251617,6.560414,2.121,-1.369,8.389,-1
90,91,1582724985933,-4.999812,-8.448534,5.5877295,1.537,-1.369,7.41,-1
91,92,1582724985943,-4.844770400000001,-8.480549,4.5235677,1.496,-1.216,6.31,-1
92,93,1582724985953,-4.0322523,-8.798437,2.2325804,2.035,-1.286,3.9419999999999997,-1
93,94,1582724985963,-3.9650059,-8.761312,0.76102436,1.93,-1.101,2.416,-1
94,95,1582724985973,-4.410330999999999,-8.610619,-0.64135593,1.319,-0.8140000000000001,0.958,-1
95,96,1582724985984,-4.944632,-8.194156,-1.6055784,0.627,-0.273,-0.062,-1
96,97,1582724985994,-5.5774300000000006,-8.116107000000001,-1.9473358,-0.153,-0.083,-0.45899999999999996,-1
97,98,1582724986004,-5.9432015,-7.846096000000001,-1.8741736,-0.6509999999999999,0.285,-0.44299999999999995,-1
98,99,1582724986014,-5.6302543,-7.368677000000001,-1.9607999,-0.45,0.845,-0.593,-1
99,100,1582724986024,-4.5295434000000006,-6.6416802,-2.5774255,0.56,1.64,-1.281,-1
100,101,1582724986035,-3.3957782,-5.8436193,-3.8015866000000003,1.619,2.495,-2.5810000000000004,-1
101,102,1582724986045,-2.5847467999999996,-5.1137333,-5.4232974,2.363,3.2760000000000002,-4.282,-1
102,103,1582724986055,-2.5830843,-4.532544000000001,-6.1164184,2.299,3.906,-5.055,-1
103,104,1582724986065,-3.062051,-4.2514944,-6.021986,1.7530000000000001,4.234,-5.031000000000001,-1
104,105,1582724986075,-3.5965936000000003,-3.9253697,-5.5902853,1.1540000000000001,4.603,-4.658,-1
105,106,1582724986086,-3.3889217000000005,-3.7346506,-5.302929,1.307,4.83,-4.428,-1
106,107,1582724986096,-2.885201,-3.3485346,-4.921398,1.7690000000000001,5.245,-4.109,-1
107,108,1582724986106,-1.991265,-3.0000505,-4.92351,2.634,5.6160000000000005,-4.188,-1
108,109,1582724986116,-1.255616,-2.585618,-5.0765150000000006,3.353,6.047000000000001,-4.437,-1
109,110,1582724986126,-0.83357525,-2.1075277000000003,-5.388475,3.7689999999999997,6.537999999999999,-4.897,-1
110,111,1582724986136,-0.79117584,-1.6258731000000002,-4.8303967000000005,3.8080000000000003,7.029,-4.497,-1
111,112,1582724986147,-0.741698,-1.3178821000000003,-4.4489035999999995,3.8510000000000004,7.345,-4.27,-1
112,113,1582724986157,-0.47092056,-1.0422554,-3.8646812000000006,4.117,7.625,-3.872,-1
113,114,1582724986167,-0.21906328,-0.6221638,-2.9312732000000006,4.37,8.042,-3.139,-1
114,115,1582724986177,-0.02875042,-0.36485100000000004,-1.9615145,4.564,8.289,-2.395,-1
115,116,1582724986187,0.23921489999999998,-0.19046688,-1.1612266000000002,4.845,8.449,-1.724,-1
116,117,1582724986198,0.22441578,-0.07760048,-0.4525321,4.837,8.555,-1.063,-1
117,118,1582724986208,-0.28489256,-0.1862154,0.10934436,4.311,8.454,-0.519,-1
118,119,1582724986218,-0.64792085,-0.36950109999999997,0.23992255,3.925,8.281,-0.414,-1
119,120,1582724986228,-0.8197190999999999,-0.086304665,-0.069472075,3.7260000000000004,8.576,-0.7559999999999999,-1
120,121,1582724986238,-0.73582673,-0.18836308,-0.32315755,3.793,8.48,-1.044,-1
121,122,1582724986249,-0.5150893,0.12577343,-0.58710295,3.997,8.799,-1.3530000000000002,-1
122,123,1582724986259,0.038353443,0.5735388000000001,-0.8934687,4.555,9.242,-1.686,-1
123,124,1582724986269,0.28268528,0.76627064,-0.5911803000000001,4.816,9.426,-1.3840000000000001,-1
124,125,1582724986279,0.57980967,0.9224348,0.10913479,5.13,9.575,-0.665,d
125,126,1582724986290,0.6674762,1.0587692,0.37159738,5.23,9.707,-0.37799999999999995,-1
126,127,1582724986300,0.55243826,0.8480530000000001,0.7026674,5.12,9.496,-0.019,-1
127,128,1582724986310,0.34893465,0.7697792,0.69150937,4.67,9.277999999999999,0.009000000000000001,-1
128,129,1582724986320,-0.14700794,0.599885,0.74129844,4.399,9.263,0.067,-1
129,130,1582724986330,-0.74256873,0.7054166999999999,0.98199725,3.767,9.39,0.34,-1
130,131,1582724986341,-1.0435023,0.5335083,0.6791411999999999,3.3810000000000002,9.266,0.098,-1
131,132,1582724986351,-0.8391434999999999,0.51957893,0.55065036,3.5439999999999996,9.275,0.002,-1
132,133,1582724986361,-0.46191835,0.6097832,0.7361127,3.9130000000000003,9.371,0.215,-1
133,134,1582724986371,-0.15794134,0.70275116,0.51394933,4.2219999999999995,9.462,0.002,-1
134,135,1582724986381,0.44448566,0.9556713,0.4912427,4.849,9.704,0.004,-1
135,136,1582724986391,0.67345667,0.87502575,0.44086394,5.093999999999999,9.616,-0.033,-1
136,137,1582724986401,0.6017045999999999,0.9926881999999999,0.42148852,5.031000000000001,9.73,-0.038,-1
137,138,1582724986411,0.23889112,0.8792763000000001,0.5148251,4.667,9.618,0.071,-1
138,139,1582724986421,0.08208847,0.92015743,0.71889096,4.507,9.661,0.285,-1
139,140,1582724986432,-0.21838760000000002,0.86979485,0.7990585,4.191,9.62,0.397,-1
140,141,1582724986442,-0.47272134,0.90069485,0.8862752,3.923,9.658999999999999,0.512,-1
141,142,1582724986452,-0.49159336,1.0065584,0.67362213,3.8939999999999997,9.771,0.325,-1
142,143,1582724986462,0.037344933,1.0687399,0.27956605,4.425,9.833,-0.047,-1
143,144,1582724986472,0.3691473,1.1514168,0.14749482,4.766,9.912,-0.153,-1
144,145,1582724986483,0.42595482,1.2498026000000002,0.47929388,4.83,10.008,0.217,-1
145,146,1582724986493,0.3368368,1.2920141,1.1913268999999997,4.742,10.051,0.9790000000000001,-1
146,147,1582724986503,0.16990519,1.2728453000000002,1.6589171000000003,4.567,10.037,1.499,-1
147,148,1582724986513,-0.102386475,1.2252816999999998,1.9321311999999997,4.277,9.999,1.817,-1
148,149,1582724986523,-0.08320522,1.2904167,1.7488213,4.275,10.075,1.662,-1
149,150,1582724986534,-0.2596197,1.3666325000000001,1.4677913999999999,4.073,10.164,1.396,-1
150,151,1582724986544,-0.1429658,1.2939596000000002,1.2762864999999999,4.164,10.104,1.216,-1
151,152,1582724986554,-0.28806020000000004,1.330759,1.1396018,3.992,10.154,1.0959999999999999,-1
152,153,1582724986564,-0.28473902,1.2794618999999998,1.2771297,3.968,10.116,1.264,-1
153,154,1582724986574,-0.44955564,1.1015911,1.8083293000000003,3.772,9.953,1.8459999999999999,-1
154,155,1582724986584,-0.5831795,0.83985806,2.5307124,3.6039999999999996,9.707,2.639,-1
155,156,1582724986595,-0.33498263,0.7609005,3.2195077000000003,3.82,9.642000000000001,3.4,-1
156,157,1582724986605,-0.22666883,0.64634323,3.6629186000000002,3.8960000000000004,9.541,3.906,-1
157,158,1582724986615,-0.18140602,0.53455544,3.8553555,3.908,9.443,4.15,-1
158,159,1582724986625,-0.43470883,0.50656605,3.7824357,3.616,9.431000000000001,4.124,-1
159,160,1582724986636,-0.5369389,0.39775372,3.1743155,3.47,9.34,3.563,-1
160,161,1582724986646,-0.51809597,0.27104092,2.7281876,3.446,9.23,3.168,-1
161,162,1582724986656,-0.19876361,0.4331130999999999,2.1873307,3.733,9.405,2.653,-1
162,163,1582724986666,-0.055083275,0.27651596,1.375618,3.8510000000000004,9.259,1.8530000000000002,-1
163,164,1582724986676,-0.14256239,0.26948738,0.75508815,3.738,9.263,1.2329999999999999,-1
164,165,1582724986686,-0.30475759999999996,0.22482489999999997,0.38125503,3.5439999999999996,9.232000000000001,0.8590000000000001,-1
165,166,1582724986696,-0.19082284,0.11327362,0.18470812,3.6260000000000003,9.134,0.6629999999999999,-1
166,167,1582724986706,-0.02218914,0.14989853,0.23051175,3.779,9.177,0.713,-1
167,168,1582724986716,0.01093483,0.28938959999999997,0.39664429999999995,3.8,9.321,0.89,-1
168,169,1582724986726,0.26261353,0.12751102,0.5431734,4.047,9.16,1.056,-1
169,170,1582724986736,0.4574821,0.23036194,0.7549544,4.239,9.263,1.286,-1
170,171,1582724986747,0.4597528,0.19015121,0.83051974,4.239,9.222999999999999,1.374,-1
171,172,1582724986757,0.13690877,0.06684303,0.711654,3.911,9.101,1.2690000000000001,-1
172,173,1582724986767,0.0009560585,0.108854294,0.104880095,3.764,9.148,0.6559999999999999,-1
173,174,1582724986777,-0.13406706,0.06835747,-0.23964655,3.611,9.117,0.27699999999999997,-1
174,175,1582724986787,0.070067406,0.112371445,-0.46392894,3.81,9.165,0.019,-1
175,176,1582724986798,0.19877958,0.2264862,-0.36376179999999997,3.9389999999999996,9.28,0.1,-1
176,177,1582724986808,0.2008779,0.11505318,-0.29320204,3.944,9.168,0.158,-1
177,178,1582724986818,0.36879253,0.17756748,-0.32875429999999994,4.119,9.228,0.114,-1
178,179,1582724986828,0.6301,0.19783497,-0.31356764,4.3919999999999995,9.244,0.11699999999999999,-1
179,180,1582724986839,0.7443668999999999,0.29710388,-0.34787779999999996,4.521,9.338,0.064,-1
180,181,1582724986849,0.7100749,0.39124966,-0.31178740000000005,4.49,9.431000000000001,0.095,-1
181,182,1582724986859,0.5503191999999999,0.10620594,0.24848667,4.342,9.141,0.6559999999999999,-1
182,183,1582724986869,0.37059546,0.14337349,0.5807685,4.164,9.177,0.998,-1
183,184,1582724986880,0.239892,0.14390755,0.9480804,4.035,9.175,1.403,-1
184,185,1582724986889,0.3080275,0.13022614,0.9445773000000001,4.105,9.16,1.41,-1
185,186,1582724986899,0.28924584,0.21118449999999997,0.52055913,4.09,9.238999999999999,0.993,-1
186,187,1582724986909,0.19936872,0.23932838,0.0729838,4.004,9.266,0.536,-1
187,188,1582724986919,0.31537104,0.34985924,-0.47791812,4.124,9.376,-0.038,-1
188,189,1582724986929,0.36424947,0.32894993,-0.39208078,4.178999999999999,9.354,0.016,-1
189,190,1582724986940,0.33281493,0.35338688,-0.23476204,4.15,9.378,0.16,-1
190,191,1582724986950,0.29782557,0.3677578,-0.00014510751,4.114,9.392999999999999,0.39,-1
191,192,1582724986960,0.16137743,0.35472488,0.12077889,3.975,9.381,0.512,-1
192,193,1582724986970,-0.031192302999999998,0.27466488,0.60246444,3.7739999999999996,9.304,1.005,-1
193,194,1582724986981,-0.2824223,0.38961983,0.77203363,3.503,9.426,1.202,-1
194,195,1582724986991,-0.3434763,0.49258900000000005,0.40212998,3.429,9.533999999999999,0.84,-1
195,196,1582724987001,-0.22698092,0.56760883,-0.34267065,3.537,9.613,0.086,-1
196,197,1582724987011,-0.03979087,0.5169649000000001,-0.609563,3.7239999999999998,9.562999999999999,-0.193,-1
197,198,1582724987022,-0.0007302761,0.44522858,-0.49681450000000005,3.764,9.491,-0.083,-1
198,199,1582724987032,-0.033894062,0.5377369000000001,0.10912576,3.733,9.582,0.536,-1
199,200,1582724987042,0.10132003,0.42044735,0.69876665,3.872,9.462,1.149,-1
200,201,1582724987052,0.18861365,0.49297905,0.79643595,3.963,9.532,1.266,-1
201,202,1582724987062,0.0071513653,0.69414234,0.7870057,3.781,9.732999999999999,1.264,-1
202,203,1582724987073,0.15431213,0.6714363,0.47721457,3.927,9.711,0.95,-1
203,204,1582724987083,0.012621641000000001,0.7199621,0.06935915,3.781,9.762,0.529,-1
204,205,1582724987093,-0.2769115,0.7395076999999999,0.014657438,3.4819999999999998,9.786,0.46399999999999997,-1
205,206,1582724987104,-0.18932867,0.6609354000000001,0.06228441,3.5660000000000003,9.709,0.51,-1
206,207,1582724987114,0.007792949699999999,0.6689949000000001,0.13622063,3.76,9.718,0.591,d
207,208,1582724987124,0.30589175,0.7336645,0.20600629,4.061,9.781,0.67,-1
208,209,1582724987134,0.5876395999999999,0.7184906,0.3098322,4.346,9.764,0.7829999999999999,-1
209,210,1582724987145,0.49544740000000004,0.8496351000000001,0.4569308,4.251,9.896,0.9359999999999999,-1
210,211,1582724987155,0.06484103,0.7075243,0.37244007,3.8080000000000003,9.759,0.852,-1
211,212,1582724987165,-0.24139905,0.778141,0.30798662,3.4819999999999998,9.838,0.7829999999999999,-1
212,213,1582724987175,-0.23886633,0.53923416,0.2876568,3.463,9.607999999999999,0.7609999999999999,-1
213,214,1582724987185,-0.30648828,0.5725937,0.46295375,3.3760000000000003,9.649,0.941,-1
214,215,1582724987196,-0.25802970000000003,0.490386,0.29483837,3.41,9.572000000000001,0.785,-1
215,216,1582724987206,0.06255674,0.49893950000000004,0.6079225,3.7239999999999998,9.582,1.12,-1
216,217,1582724987216,0.48693633,0.63289833,0.68426526,4.2989999999999995,9.711,1.099,-1
217,218,1582724987226,0.68550634,0.5990257,0.62612545,4.351,9.677999999999999,1.18,-1
218,219,1582724987236,0.31167293,0.7119627,0.6579793,3.968,9.793,1.238,-1
219,220,1582724987247,0.08993839999999999,0.57339,0.70124966,3.733,9.658999999999999,1.2930000000000001,-1
220,221,1582724987257,-0.0016946793,0.6682215,0.6914246999999999,3.508,9.745,1.3259999999999998,-1
221,222,1582724987267,-0.11990094,0.6657219,0.67650145,3.4960000000000004,9.762,1.271,-1
222,223,1582724987277,-0.12306023,0.69152546,0.33585685,3.465,9.8,0.912,-1
223,224,1582724987288,-0.08404398,0.730793,0.21611345,3.4960000000000004,9.843,0.7829999999999999,-1
224,225,1582724987298,0.19264197,0.88894844,-0.36409524,3.752,10.011000000000001,0.174,-1
225,226,1582724987308,0.5500698,0.9186754,-0.30665907,4.102,10.044,0.225,-1
226,227,1582724987318,0.6427729,1.0993823999999999,-0.046161145,4.191,10.226,0.488,-1
227,228,1582724987329,0.7042413000000001,1.0874166,0.28681946,4.203,10.248,0.9740000000000001,-1
228,229,1582724987339,0.53975105,1.0915442,0.37963504,4.064,10.226,0.938,-1
229,230,1582724987349,0.5827892,1.1093407,0.28587740000000006,4.09,10.25,0.85,-1
230,231,1582724987359,0.37215662,0.96522045,0.29410428,3.858,10.113999999999999,0.8590000000000001,-1
231,232,1582724987370,0.26930094,0.9042406,0.29088014,3.717,10.068,0.847,-1
232,233,1582724987380,0.36754227,0.91878414,0.40003932,3.7910000000000004,10.092,0.95,-1
233,234,1582724987390,0.56899667,1.0420494,0.20853585,3.97,10.224,0.752,-1
234,235,1582724987401,0.77119136,0.9911356,-0.19166473,4.152,10.181000000000001,0.344,-1
235,236,1582724987411,0.9010596,0.9533328999999999,-0.29858842,4.272,10.147,0.23399999999999999,-1
236,237,1582724987421,1.0225608,0.80675125,-0.299029,4.373,10.008,0.23199999999999998,-1
237,238,1582724987432,0.9378488000000001,0.26649094,0.40536785,4.255,9.479,0.95,-1
238,239,1582724987442,0.6463084,0.21383858,0.63129175,3.949,9.431000000000001,1.185,-1
239,240,1582724987453,-0.017366648000000002,-0.51880074,0.83482176,3.233,8.715,1.42,-1
240,241,1582724987463,-0.25393462,-0.89900017,0.44426279999999996,2.9530000000000003,8.351,1.013,-1
241,242,1582724987473,-0.39146185,-1.3174186,-0.32155985,2.773,7.949,0.217,-1
242,243,1582724987483,-0.6994102,-1.9230232,-0.89977634,2.423,7.359,-0.385,-1
243,244,1582724987493,-1.0015788,-2.7193556,-1.0722587,2.081,6.5760000000000005,-0.5579999999999999,-1
244,245,1582724987503,-1.4295064,-3.5511332,-0.6656253000000001,1.6159999999999999,5.755,-0.126,-1
245,246,1582724987513,-1.9648433,-4.545037000000001,0.38792664,1.046,4.77,0.9670000000000001,-1
246,247,1582724987523,-2.4380465,-5.800235,1.225256,0.541,3.523,1.8359999999999999,-1
247,248,1582724987533,-2.7415515999999998,-7.148297299999999,0.9385495,0.20800000000000002,2.184,1.554,-1
248,249,1582724987544,-3.5846720000000003,-8.299035,-0.20765236,-0.665,1.044,0.387,-1
249,250,1582724987554,-4.9832773,-9.367921,-1.5024405,-2.093,-0.013999999999999999,-0.9359999999999999,-1
250,251,1582724987564,-6.779588700000001,-10.248368,-2.596915,-3.9130000000000003,-0.8859999999999999,-2.05,-1
251,252,1582724987575,-8.166685000000001,-10.629232,-3.3984761,-5.309,-1.264,-2.8539999999999996,-1
252,253,1582724987585,-9.332197,-11.152460000000001,-4.63239,-6.471,-1.7890000000000001,-4.0760000000000005,-1
253,254,1582724987595,-9.989691,-11.863945,-5.338754,-7.12,-2.505,-4.751,-1
254,255,1582724987606,-9.879046,-12.115387,-5.1805487,-6.992999999999999,-2.763,-4.569,-1
255,256,1582724987616,-9.002882000000001,-12.759142,-4.381785,-5.968,-3.465,-3.6210000000000004,-1
256,257,1582724987626,-8.357094,-12.93586,-4.1394687,-5.245,-3.673,-3.312,-1
257,258,1582724987637,-7.396116999999999,-13.115677,-4.254162,-4.109,-3.927,-3.2880000000000003,-1
258,259,1582724987647,-6.7000303,-12.948796000000002,-4.3812513,-3.123,-3.8939999999999997,-3.2039999999999997,-1
259,260,1582724987657,-6.9069899999999995,-13.255726000000001,-4.451473,-3.123,-4.306,-3.127,-1
260,261,1582724987667,-7.4021300000000005,-13.534289000000001,-3.8402748,-3.3960000000000004,-4.708,-2.351,-1
261,262,1582724987678,-7.7364364000000005,-13.583141,-3.5607214,-3.611,-4.828,-1.98,-1
262,263,1582724987687,-7.886974,-13.955379500000001,-2.4893913,-3.5010000000000003,-5.367000000000001,-0.708,-1
263,264,1582724987697,-7.4142923,-14.1025095,-1.4498422,-2.735,-5.718999999999999,0.5479999999999999,-1
264,265,1582724987708,-5.0739727,-13.906195,-0.57583785,0.105,-5.91,1.75,-1
265,266,1582724987718,-1.3129945,-12.904459,-0.9978895000000001,4.236000000000001,-5.228,1.5419999999999998,-1
266,267,1582724987728,2.5158896,-11.199736,-1.3152841,8.696,-4.114,1.472,-1
267,268,1582724987738,5.6883984000000005,-9.749671000000001,-0.22827053,12.26,-3.13,2.799,-1
268,269,1582724987749,7.694235000000001,-8.625328,1.5026378999999999,14.58,-2.457,4.775,-1
269,270,1582724987759,8.547771000000001,-7.9578466,3.7119038,15.706,-2.248,7.223,-1
270,271,1582724987769,9.07201,-7.988799,6.6814523,16.468,-2.7439999999999998,10.418,-1
271,272,1582724987780,9.018728999999999,-7.1795106,9.755524000000001,16.628,-2.4090000000000003,13.694,-1
272,273,1582724987790,10.428074,-5.545108,12.085135000000001,18.238,-1.271,16.197,-1
273,274,1582724987800,13.978466000000001,-2.9404356,13.359782999999998,21.974,0.809,17.624000000000002,-1
274,275,1582724987810,18.711716,0.53853583,13.11636,26.915,3.4960000000000004,17.602999999999998,-1
275,276,1582724987821,19.639812,1.2600498,12.700775,28.165,4.253,17.133,-1
276,277,1582724987831,18.832039,2.2949886000000004,12.434185000000001,27.136999999999997,4.3180000000000005,17.241,-1
277,278,1582724987841,16.834201999999998,2.4758997000000003,13.581164999999999,25.138,4.112,18.535,-1
278,279,1582724987851,14.165398000000001,3.4094309999999997,15.241592,22.458000000000002,4.711,20.312,-1
279,280,1582724987862,12.626560000000001,4.815154,15.9833555,20.908,5.824,21.138,-1
280,281,1582724987872,12.990414999999999,6.333797,14.107860999999998,21.26,7.086,19.325,-1
281,282,1582724987882,13.787635,7.3415985,10.176817,22.043000000000003,7.877000000000001,15.443,-1
282,283,1582724987893,13.456491,7.721753,6.895211,21.691,8.078,12.209000000000001,-1
283,284,1582724987902,12.419236999999999,7.587161,5.2029324,20.625,7.79,10.569,-1
284,285,1582724987912,10.739784,7.119144400000001,5.168073000000001,18.910999999999998,7.185,10.59,-1
285,286,1582724987922,9.155586,6.6804686,6.1944456,17.289,6.622000000000001,11.673,-1
286,287,1582724987932,8.045685,6.3376255,7.209039999999999,16.14,6.171,12.743,-1
287,288,1582724987942,6.971055000000001,5.9431553,7.1749353000000005,15.027999999999999,5.692,12.76,-1
288,289,1582724987953,5.8175097000000004,5.4815545,6.8595743,13.843,5.175,12.487,-1
289,290,1582724987963,4.7332,5.032343,5.587994999999999,12.739,4.7010000000000005,11.242,-1
290,291,1582724987973,3.8015943,4.525545,4.183433999999999,11.8,4.196000000000001,9.847999999999999,-1
291,292,1582724987983,3.2322621,4.3502126,3.553957,11.23,4.03,9.22,-1
292,293,1582724987993,1.7750216,3.818371,1.6798277,9.774,3.554,7.347,-1
293,294,1582724988004,1.1731815,3.5233748,0.93330383,9.172,3.3139999999999996,6.603,-1
294,295,1582724988014,1.226336,3.4779818,0.39225674,9.225,3.326,6.064,-1
295,296,1582724988024,1.7142587,3.2796776,-0.06029558,9.714,3.175,5.611000000000001,-1
296,297,1582724988034,2.2530490000000003,3.1413012000000005,-0.45693016,10.257,3.075,5.209,-1
297,298,1582724988045,2.2718277000000002,2.9677029,-0.63754225,10.289000000000001,2.943,5.01,-1
298,299,1582724988055,1.9375324,2.7329342,-0.4216137,9.975,2.759,5.197,-1
299,300,1582724988065,1.1285381,2.3454676,-0.22041750000000002,9.192,2.445,5.36,-1
300,301,1582724988075,0.7604350999999999,1.8924285,-0.28517866,8.854,2.086,5.249,-1
301,302,1582724988086,0.5434885,1.8192582,-0.44748783,8.655,2.0709999999999997,5.058,-1
302,303,1582724988096,-0.18110561,1.1997316,-0.77876997,7.984,1.626,4.636,-1
303,304,1582724988107,-0.7814230999999999,1.0032637,-0.33285046,7.393,1.4869999999999999,5.063,-1
304,305,1582724988117,-0.9955806999999999,0.7510701,0.23442554,7.17,1.274,5.64,-1
305,306,1582724988127,-0.81197834,0.60406435,0.7831311,7.316,1.168,6.2410000000000005,-1
306,307,1582724988138,-0.31230068,0.3381874,1.2146358,7.774,0.922,6.732,-1
307,308,1582724988148,0.35058022,0.14181173,1.0870242,8.423,0.732,6.624,-1
308,309,1582724988158,0.5632944000000001,0.16131818,0.8897871999999999,8.636000000000001,0.764,6.425,-1
309,310,1582724988168,0.6356993000000001,0.06561792,0.79464006,8.684,0.735,6.071000000000001,-1
310,311,1582724988178,0.39974022,0.04808235,0.5463948000000001,8.495,0.708,6.042000000000001,-1
311,312,1582724988189,0.07301998,-0.058097363,0.4759183,8.169,0.622,5.968,-1
312,313,1582724988199,-0.10176897,0.044632316,0.5725231,7.989,0.735,6.071000000000001,-1
313,314,1582724988209,-0.10252237,0.0062682630000000005,0.7023668000000001,7.962999999999999,0.711,6.236000000000001,-1
314,315,1582724988219,-0.24324799,0.05337131,0.81615543,7.8,0.759,6.382000000000001,-1
315,316,1582724988229,-0.16668653,0.012024045,1.0812883,7.855,0.711,6.678999999999999,-1
316,317,1582724988240,0.13229561,0.20167315,0.97260475,8.14,0.895,6.591,-1
317,318,1582724988250,0.38181257,0.16898555,0.78841305,8.38,0.857,6.421,-1
318,319,1582724988260,0.84564924,0.596643,0.5365181,8.837,1.2830000000000001,6.178999999999999,d
319,320,1582724988271,1.1363535,0.8403860000000001,0.087843895,9.122,1.53,5.7379999999999995,-1
320,321,1582724988281,1.6575265,1.1236126,-0.5805888000000001,9.639,1.817,5.075,-1
321,322,1582724988291,1.6714497,1.1593611000000001,-0.5482931,9.647,1.858,5.115,-1
322,323,1582724988301,1.383368,1.0164242,0.17319775,9.347000000000001,1.7169999999999999,5.853,-1
323,324,1582724988311,1.4463911,0.9931614,1.2629471,9.392999999999999,1.69,6.9670000000000005,-1
324,325,1582724988322,1.4780396999999998,1.0100806999999998,2.0130763,9.405,1.702,7.745,-1
325,326,1582724988332,1.8666811,1.1141124,2.5996366,9.776,1.805,8.356,-1
326,327,1582724988342,2.5325327,1.5261673999999998,2.9262217999999995,10.43,2.224,8.698,-1
327,328,1582724988352,3.2433195,1.9929307,2.623157,11.136,2.7110000000000003,8.399,-1
328,329,1582724988362,3.6519999999999997,2.468371,1.9852618999999998,11.543,3.221,7.7589999999999995,-1
329,330,1582724988373,3.8183559999999996,2.4662482999999997,1.9914579,11.706,3.262,7.763999999999999,-1
330,331,1582724988383,3.8606086000000004,2.5762607999999996,2.454733,11.742,3.42,8.229,-1
331,332,1582724988393,4.0390440000000005,2.473132,3.3490790999999995,11.912,3.3689999999999998,9.127,-1
332,333,1582724988404,4.0424476,2.5224813999999998,4.5573879999999996,11.908,3.477,10.335999999999999,-1
333,334,1582724988414,4.269591,2.6344652,5.268466,12.133,3.659,11.038,-1
334,335,1582724988424,4.737895,2.9398844,5.977429,12.604000000000001,4.047,11.728,-1
335,336,1582724988434,5.213954,3.2399464,5.811446,13.081,4.445,11.540999999999999,-1
336,337,1582724988444,5.5431275,3.6872892,5.4977956,13.404000000000002,5.005,11.210999999999999,-1
337,338,1582724988455,5.771511599999999,3.920031,5.419793599999999,13.62,5.362,11.12,-1
338,339,1582724988465,6.6072197,3.8039412000000006,5.54905,14.439,5.379,11.237,-1
339,340,1582724988475,7.2069106,3.5548062000000007,6.8361472999999995,15.009,5.352,12.499,-1
340,341,1582724988485,7.16755,3.3488045,7.672611999999999,14.947000000000001,5.319,13.309000000000001,-1
341,342,1582724988495,6.75445,2.8114636,8.051638,14.509,4.981,13.649000000000001,-1
342,343,1582724988506,6.4534693,2.4885650000000004,7.935351400000001,13.802,4.675,13.115,-1
343,344,1582724988516,5.9710526,2.0181918000000003,6.919314999999999,13.67,4.66,12.389000000000001,-1
344,345,1582724988526,5.6208715,1.5704596000000002,6.001128,13.285,4.471,11.388,-1
345,346,1582724988536,5.474279,1.1817691000000001,5.9008183,13.093,4.346,11.203,-1
346,347,1582724988547,5.3052855,0.77892923,6.242088,12.866,4.208,11.462,-1
347,348,1582724988557,5.3920603,0.29041886,6.5032760000000005,12.882,3.987,11.642000000000001,-1
348,349,1582724988567,5.1251774,-0.1596539,6.681214999999999,12.533,3.812,11.732999999999999,-1
349,350,1582724988577,4.457167,-0.4692135,6.2922970000000005,11.773,3.7910000000000004,11.242,-1
350,351,1582724988587,3.742939,-0.7958932,5.602349299999999,10.959000000000001,3.764,10.43,-1
351,352,1582724988598,3.5049787000000006,-1.1249094,5.237312999999999,10.669,3.5869999999999997,9.996,-1
352,353,1582724988608,2.3412504000000003,-2.2237248,3.8508153,9.34,2.9410000000000003,8.38,-1
353,354,1582724988618,1.5627851000000001,-2.972934,3.0255547000000003,8.449,2.469,7.4,-1
354,355,1582724988628,0.6709919,-3.1583933999999996,2.1664404999999998,7.46,2.4859999999999998,6.435,-1
355,356,1582724988638,-0.23353815,-2.7501402,1.535306,6.459,3.0580000000000003,5.736000000000001,-1
356,357,1582724988649,-1.0011921,-2.2812653,1.9478946,5.551,3.755,6.047000000000001,-1
357,358,1582724988659,-1.6145649,-1.9202723999999998,3.0933867000000004,4.749,4.301,7.212999999999999,-1
358,359,1582724988669,-1.6585898000000001,-2.2358341,3.5385817999999998,4.466,4.112,7.824,-1
359,360,1582724988679,-1.2194409,-3.2454174,3.7395400000000003,4.727,3.202,8.126,-1
360,361,1582724988690,-0.96031475,-3.7055687999999996,3.0300426,4.849,2.862,7.422000000000001,-1
361,362,1582724988700,-0.68135786,-4.0681142999999995,0.9282503000000001,5.012,2.713,5.144,-1
362,363,1582724988710,-1.0410351999999998,-3.9424248,-1.1145649,4.533,3.065,2.885,-1
363,364,1582724988720,-1.9073374,-3.7811513,-2.3875990000000002,3.542,3.4410000000000003,1.396,-1
364,365,1582724988731,-2.4786577000000003,-3.9529836000000005,-3.2426677,2.842,3.463,0.344,-1
365,366,1582724988741,-2.7697911,-4.383893,-3.8026466,2.421,3.202,-0.385,-1
366,367,1582724988751,-2.857726,-5.0540695,-3.6117306000000005,2.205,2.677,-0.33,-1
367,368,1582724988761,-3.0502634,-5.8019953,-2.6572902000000003,1.889,2.052,0.519,-1
368,369,1582724988771,-3.0090220000000003,-6.3684993,-1.8091375,1.8130000000000002,1.5919999999999999,1.281,-1
369,370,1582724988782,-3.2613595,-7.0755405,-1.1773548,1.4509999999999998,0.981,1.8319999999999999,-1
370,371,1582724988792,-3.5369483999999995,-7.3938265,-1.0073203000000002,1.075,0.752,1.916,-1
371,372,1582724988802,-3.571391,-7.199296,-1.5566202,0.953,1.0290000000000001,1.271,-1
372,373,1582724988812,-3.1077614,-6.847263000000001,-2.2576756000000002,1.341,1.456,0.469,-1
373,374,1582724988822,-3.6451273,-6.436152,-3.8219773999999997,0.6990000000000001,1.966,-1.2329999999999999,-1
374,375,1582724988833,-3.88784,-6.45742,-4.1374617,0.423,1.973,-1.585,-1
375,376,1582724988843,-4.1714519999999995,-6.4950247,-4.588425,-0.031,2.241,-1.8130000000000002,-1
376,377,1582724988853,-4.1400175,-6.1350574,-3.8884864,0.33,2.495,-0.965,-1
377,378,1582724988864,-3.1990533,-5.938763,-2.8181872,0.9790000000000001,2.5980000000000003,-0.402,-1
378,379,1582724988874,-1.7672575000000001,-5.0007486,-1.8859291,2.404,3.563,0.445,-1
379,380,1582724988884,-1.198508,-4.41144,-1.8664621,2.977,4.172,0.38299999999999995,-1
380,381,1582724988894,-0.66791415,-3.7665262000000004,-2.1808574,3.511,4.84,-0.027999999999999997,-1
381,382,1582724988905,-0.34240866,-3.2407894,-2.9402452,3.8360000000000003,5.391,-0.89,-1
382,383,1582724988915,-0.6790335,-3.1203904,-3.7822392,3.491,5.537000000000001,-1.825,-1
383,384,1582724988925,-1.1311624,-3.0883732000000004,-4.088781,3.0239999999999996,5.5920000000000005,-2.2030000000000003,-1
384,385,1582724988935,-1.388309,-2.91257,-3.977066,2.7560000000000002,5.7829999999999995,-2.138,-1
385,386,1582724988945,-0.69432235,-2.3107243,-3.4245504999999996,3.4560000000000004,6.388999999999999,-1.619,-1
386,387,1582724988955,0.49952078,-1.5594386999999998,-3.006075,4.6819999999999995,7.1339999999999995,-1.245,-1
387,388,1582724988965,1.3918982,-0.872282,-2.6259818,5.685,7.795,-1.008,-1
388,389,1582724988975,1.7517919999999998,-0.32809162,-2.1914415000000003,6.132999999999999,8.315,-0.684,-1
389,390,1582724988985,1.3392886999999998,-0.4236822,-2.0039077,5.7860000000000005,8.205,-0.61,-1
390,391,1582724988995,0.33493662,-0.5450468,-2.2270226,4.823,8.087,-0.996,-1
391,392,1582724989006,-0.40853357,-0.63811874,-1.8686798999999998,4.061,8.013,-0.706,-1
392,393,1582724989016,-0.9354825000000001,-0.57765675,-1.5347856000000002,3.508,8.092,-0.41100000000000003,-1
393,394,1582724989026,-0.8951993,-0.38923454,-1.3149663,3.525,8.296,-0.22,-1
394,395,1582724989036,-0.31343126,-0.0755434,-0.9771939000000001,4.095,8.619,0.091,-1
395,396,1582724989046,0.32078314,0.19091702,-0.8248548000000001,4.742,8.883,0.21,-1
396,397,1582724989057,0.2710395,0.45051575,-0.64464927,4.708,9.134,0.395,-1
397,398,1582724989067,0.44198132,0.6144533000000001,-0.40464467,4.897,9.287,0.649,-1
398,399,1582724989077,0.4227066,0.688159,-0.26300973,4.897,9.35,0.797,-1
399,400,1582724989087,0.36352729999999994,0.80135727,-0.1526506,4.852,9.457,0.898,-1
400,401,1582724989098,0.6713481,0.8777523000000002,-0.6454813,5.175,9.529,0.376,-1
401,402,1582724989108,1.1933022,0.9516468000000001,-1.1142595,5.7139999999999995,9.599,-0.136,-1
402,403,1582724989118,1.1122184,0.9361839,-1.3219778999999998,5.645,9.582,-0.387,-1
403,404,1582724989128,1.0426836,0.85705185,-1.4184088,5.582000000000001,9.503,-0.517,-1
404,405,1582724989138,0.7366519,0.8106041,-1.0688077,5.278,9.457,-0.182,-1
405,406,1582724989149,0.2491355,0.69321346,-0.47053075,4.785,9.342,0.42100000000000004,-1
406,407,1582724989159,-0.30934238,0.5657091,0.49848264,4.21,9.22,1.42,-1
407,408,1582724989169,-0.65910125,0.46139622,0.42125195,3.832,9.127,1.374,-1
408,409,1582724989180,-0.8101964,0.53044224,0.18025220000000003,3.65,9.211,1.1420000000000001,-1
409,410,1582724989190,-0.34584856,0.6486225,-0.64001644,4.107,9.338,0.275,-1
410,411,1582724989200,-0.26820087,0.55678177,-0.77638793,4.188,9.247,0.114,d
411,412,1582724989210,0.29323244,0.49291419999999997,-0.9337815,4.7780000000000005,9.175,-0.11,-1
412,413,1582724989220,0.5218524999999999,0.55470276,-0.92358714,5.019,9.232000000000001,-0.11699999999999999,-1
413,414,1582724989231,0.599885,0.5024433,-0.6275779,5.12,9.17,0.155,-1
414,415,1582724989241,0.253891,0.7058048000000001,-0.29545695,4.79,9.366,0.47600000000000003,-1
415,416,1582724989251,0.20074415,0.7483549,0.025552033999999998,4.749,9.402000000000001,0.799,-1
416,417,1582724989261,0.1788516,0.75831413,0.1307919,4.739,9.405,0.912,-1
417,418,1582724989272,-0.01929903,0.7158985,0.20966959,4.555,9.354,1.003,-1
418,419,1582724989281,0.15192270000000002,0.74721146,0.20760971,4.734,9.381,1.003,-1
419,420,1582724989291,0.42909480000000005,0.54162884,0.26905840000000003,5.031000000000001,9.165,1.063,-1
420,421,1582724989301,0.21908617,0.48298359999999996,0.22917795,4.849,9.093,1.005,-1
421,422,1582724989311,0.28483295,0.45395374,0.14545608,4.9239999999999995,9.06,0.91,-1
422,423,1582724989322,0.34093666,0.5159874,-0.15026492,4.998,9.115,0.584,-1
423,424,1582724989332,0.47316742,0.65821743,-0.5116955,5.156000000000001,9.247,0.177,-1
424,425,1582724989342,0.44777870000000003,0.6550206999999999,-0.6893710999999999,5.146,9.237,-0.021,-1
425,426,1582724989352,0.3485422,0.6015959,-0.6875352,5.06,9.177,-0.027999999999999997,-1
426,427,1582724989362,0.17394352,0.62303734,-0.6394189,4.89,9.196,0.019,-1
427,428,1582724989373,0.057976245999999995,0.51379967,-0.16637498,4.787,9.079,0.5,-1
428,429,1582724989383,-0.05281067,0.46370697,0.060898304,4.684,9.024,0.735,-1
429,430,1582724989394,-0.22007608,0.5191889000000001,0.27434915,4.521,9.077,0.95,-1
430,431,1582724989404,-0.32163048,0.6150732,0.11827499,4.423,9.172,0.78,-1
431,432,1582724989414,-0.24174738,0.55924416,0.017843068,4.507,9.115,0.665,-1
432,433,1582724989424,0.22384357,0.77076054,-0.6360210000000001,5.0,9.316,-0.055,-1
433,434,1582724989435,0.42528105,1.0839299999999998,-1.0864707,5.223,9.62,-0.55,-1
434,435,1582724989445,0.77154493,1.1063986000000001,-1.5177132,5.5920000000000005,9.632,-1.02,-1
435,436,1582724989455,0.5716934,1.0107555000000001,-1.5870856000000002,5.412000000000001,9.527000000000001,-1.123,-1
436,437,1582724989465,0.6073899,0.91692924,-1.7463638,5.4670000000000005,9.424,-1.317,-1
437,438,1582724989475,0.74434185,0.7932501000000001,-1.5565145,5.625,9.29,-1.163,-1
438,439,1582724989486,1.0350509,0.95896244,-1.1004219,5.937,9.445,-0.742,-1
439,440,1582724989496,1.6657046999999998,1.3239163999999999,-1.2599768999999998,6.591,9.798,-0.941,-1
440,441,1582724989506,2.4742126,1.4473610000000001,-1.9282408,7.422000000000001,9.91,-1.6569999999999998,-1
441,442,1582724989517,2.824154,1.6768856,-2.2597141,7.781000000000001,10.135,-2.0140000000000002,-1
442,443,1582724989527,2.9382906,1.6236668,-3.3267672,7.91,10.075,-3.161,-1
443,444,1582724989537,3.4257226000000003,1.3258208999999999,-3.8501682,8.401,9.776,-3.7430000000000003,-1
444,445,1582724989547,4.0178237,1.1481915,-3.8790190000000004,8.993,9.599,-3.8360000000000003,-1
445,446,1582724989557,4.386742,1.1472434999999999,-3.5307424,9.357000000000001,9.601,-3.5610000000000004,-1
446,447,1582724989567,5.1822143,1.411602,-3.7896097,10.145,9.869,-3.906,-1
447,448,1582724989577,6.3956,1.7531147,-4.606692,11.349,10.214,-4.825,-1
448,449,1582724989588,7.393860000000001,2.1173496,-5.898903,12.329,10.585,-6.236000000000001,-1
449,450,1582724989598,8.052223,2.14295,-7.6405807,12.954,10.624,-8.104,-1
450,451,1582724989608,8.508011,1.6744689999999998,-8.97505,13.359000000000002,10.177999999999999,-9.548,-1
451,452,1582724989618,8.422321,0.9684181000000001,-9.479907,13.206,9.505,-10.123,-1
452,453,1582724989629,8.423808,0.27140713,-8.984927,13.127,8.851,-9.649,-1
453,454,1582724989639,8.181401,-0.53318214,-7.484359700000001,12.794,8.097000000000001,-8.128,-1
454,455,1582724989649,7.529620599999999,-1.4179025,-5.802731,12.042,7.268,-6.406000000000001,-1
455,456,1582724989660,6.036011,-2.7957853999999998,-3.6006837,10.390999999999998,5.973,-4.16,-1
456,457,1582724989670,5.0491285,-3.667161,-3.3475992999999993,9.316,5.144,-3.92,-1
457,458,1582724989680,4.5038724000000006,-4.005146,-3.3422122000000005,8.746,4.816,-3.944,-1
458,459,1582724989690,2.5690150000000003,-5.2287846,-3.674857,6.797000000000001,3.585,-4.457,-1
459,460,1582724989701,2.0079541,-5.5525417,-3.621122,6.1739999999999995,3.29,-4.4110000000000005,-1
460,461,1582724989711,0.8479037,-6.696322,-3.1278603,4.809,2.244,-3.87,-1
461,462,1582724989721,0.48577666,-7.218546000000001,-2.3243947,4.378,1.755,-3.029,-1
462,463,1582724989732,-0.41189933,-7.898169,-0.37270838,3.345,1.14,-0.9790000000000001,-1
463,464,1582724989742,-2.1872982999999997,-8.923205000000001,2.8650634,1.374,0.203,2.418,-1
464,465,1582724989753,-3.459447,-9.360023,4.265523,-0.019,-0.184,3.8989999999999996,-1
465,466,1582724989762,-4.6924477,-9.291694,4.7842035,-1.36,-0.07400000000000001,4.468999999999999,-1
466,467,1582724989772,-5.546574,-9.546713,4.309519,-2.3040000000000003,-0.29600000000000004,4.026,-1
467,468,1582724989782,-6.55515,-9.846945,3.710607,-3.3789999999999996,-0.5720000000000001,3.47,-1
468,469,1582724989793,-7.475425,-10.352692999999999,4.0363536,-4.337,-1.063,3.887,-1
469,470,1582724989803,-7.8070545,-10.766380999999999,5.462144,-4.678999999999999,-1.472,5.475,-1
470,471,1582724989813,-7.874642,-10.951261500000001,6.3439736,-4.749,-1.6569999999999998,6.476,-1
471,472,1582724989823,-8.111166,-10.6382265,9.849857,-5.027,-1.357,10.569,-1
472,473,1582724989834,-8.291097,-10.359438,11.040532,-5.178,-1.099,11.890999999999998,-1
473,474,1582724989844,-9.585477000000001,-9.870609,12.638504,-6.346,-0.687,13.795,-1
474,475,1582724989854,-10.482754,-9.674771,13.307316,-7.132000000000001,-0.55,14.604000000000001,-1
475,476,1582724989864,-11.195243,-9.720644,13.810405,-7.711,-0.6609999999999999,15.208,-1
476,477,1582724989875,-11.108948,-10.0423355,14.047642999999999,-7.465,-1.058,15.522,-1
477,478,1582724989885,-10.403777999999999,-10.164031,14.031685000000001,-6.571000000000001,-1.271,15.579,-1
478,479,1582724989895,-8.905399000000001,-9.864482,13.708715,-4.857,-1.084,15.347000000000001,-1
479,480,1582724989905,-7.105181,-8.973625,13.968195999999999,-2.821,-0.33,15.73,-1
480,481,1582724989916,-4.705051,-7.271712299999999,16.425932,-0.052000000000000005,1.128,18.417,-1
481,482,1582724989926,-4.365419,-7.026712400000001,17.52861,0.409,1.286,19.596,-1
482,483,1582724989936,-4.12611,-6.4641779999999995,20.114320000000003,1.005,1.587,22.355,-1
483,484,1582724989947,-3.8306828,-6.6014247,19.509375,1.5390000000000001,1.278,21.801,-1
484,485,1582724989957,-2.8761767999999996,-6.4263334,17.124868,2.737,1.276,19.435,-1
485,486,1582724989967,-1.0020089,-5.853055,14.703256,4.859,1.652,17.047,-1
486,487,1582724989977,0.16479635,-5.2666129999999995,13.797466,6.15,2.129,16.175,-1
487,488,1582724989988,3.532928,-3.0969014,13.987839000000001,9.874,3.935,16.54,-1
488,489,1582724989998,5.8348510000000005,-1.7974944,14.638832999999998,12.390999999999998,4.974,17.347,-1
489,490,1582724990008,7.5877595,-1.0164313,15.020802,14.334000000000001,5.497999999999999,17.887999999999998,-1
490,491,1582724990018,8.2085,-1.179605,14.090054,15.117,5.096,17.1,-1
491,492,1582724990028,8.133635,-1.9225287,12.192496,15.177,4.138,15.328,-1
492,493,1582724990038,7.7272296,-2.0795987,10.955167999999999,14.882,3.781,14.216,-1
493,494,1582724990048,8.395966,-1.4489365,9.842494,15.645999999999999,4.21,13.245999999999999,-1
494,495,1582724990058,10.373051,-0.25485945,9.153203,17.708,5.192,12.717,-1
495,496,1582724990069,12.616817,0.8201513,8.563467,20.024,6.0520000000000005,12.296,-1
496,497,1582724990079,14.079638500000001,1.197897,7.506698599999999,21.538,6.227,11.412,-1
497,498,1582724990089,14.5155945,0.9029503000000001,6.134587000000001,21.998,5.755,10.214,-1
498,499,1582724990099,14.325268,0.43868208,4.8902345,21.805999999999997,5.144,9.141,-1
499,500,1582724990109,14.032079999999999,0.32405663,3.63124,21.491999999999997,4.907,8.049,-1
500,501,1582724990120,15.245204000000001,0.9382243,2.3742652,22.673000000000002,5.41,6.957000000000001,-1
501,502,1582724990130,17.017006,1.7979101999999998,0.941535,24.405,6.169,5.683,-1
502,503,1582724990140,18.347020999999998,2.4916492000000003,-0.6953969,25.688000000000002,6.785,4.188,-1
503,504,1582724990151,18.165492999999998,2.6314877999999995,-2.8252677999999998,25.454,6.882999999999999,2.1719999999999997,-1
504,505,1582724990161,16.674372,2.306498,-5.078326000000001,23.906999999999996,6.555,0.002,-1
505,506,1582724990171,14.761909,1.4961205,-6.861708,21.938000000000002,5.769,-1.722,-1
506,507,1582724990181,13.398695000000002,0.84976435,-8.078930999999999,20.518,5.1579999999999995,-2.89,-1
507,508,1582724990192,12.667565,0.41633415,-9.246201,19.73,4.756,-4.006,-1
508,509,1582724990202,12.545361999999999,0.39331484,-10.098509,19.531,4.768,-4.785,-1
509,510,1582724990212,12.380688000000001,0.39265300000000003,-10.379374,19.346,4.7780000000000005,-5.048,-1
510,511,1582724990223,11.4922695,0.1522646,-11.126481,18.417,4.5760000000000005,-5.774,-1
511,512,1582724990233,11.046139,0.10029316,-11.510843,17.773,4.423,-6.662000000000001,-1
512,513,1582724990243,10.672138,-0.012098788999999999,-12.894749000000001,17.593,4.4830000000000005,-7.597,-1
513,514,1582724990253,11.208786,0.057168484000000006,-13.844631,18.142,4.593,-8.597999999999999,-1
514,515,1582724990263,11.837005,-0.1727848,-15.102439000000002,18.788,4.406000000000001,-9.917,-1
515,516,1582724990274,11.605471000000001,-0.22027826,-15.760775,18.575,4.404,-10.640999999999998,-1
516,517,1582724990284,10.623974,-0.59777784,-15.400124,17.608,4.069,-10.339,-1
517,518,1582724990294,9.051464,-1.1034243000000001,-13.711264000000002,16.046,3.597,-8.696,-1
518,519,1582724990304,7.544624000000001,-1.7724373,-11.530693,14.554,2.95,-6.557,-1
519,520,1582724990314,6.555701700000001,-2.1693144,-9.795357000000001,13.594000000000001,2.5669999999999997,-4.876,-1
520,521,1582724990325,5.536654,-2.7059797999999997,-8.945967,12.624,2.04,-4.107,-1
521,522,1582724990334,5.173051999999999,-2.9504957000000003,-8.517374,12.293,1.798,-3.7289999999999996,-1
522,523,1582724990344,3.9259882000000004,-3.6017782999999994,-7.3226085,11.189,1.135,-2.742,-1
523,524,1582724990354,3.2572107000000003,-3.8256992999999997,-6.564911,10.669,0.8740000000000001,-2.189,-1
524,525,1582724990365,2.8248582000000004,-3.707844,-5.280015000000001,10.425,0.912,-1.149,-1
525,526,1582724990375,2.6345782000000004,-3.3970144,-4.284534,10.413,1.128,-0.387,-1
526,527,1582724990385,1.9709444,-3.2391872000000004,-3.5023904000000003,9.965,1.137,0.11900000000000001,-1
527,528,1582724990395,1.0350027,-3.081768,-2.6603394000000002,9.213,1.1520000000000001,0.711,-1
528,529,1582724990405,0.7681818,-3.0160437,-2.1761742,9.043,1.149,1.041,-1
529,530,1582724990416,0.92369556,-2.9049325,-1.5851262,9.323,1.14,1.4580000000000002,-1
530,531,1582724990426,1.0227757,-2.5761727999999997,-1.2627781999999999,9.529,1.334,1.6569999999999998,-1
531,532,1582724990436,2.435668,-2.0213356,-0.26610637,11.069,1.786,2.406,-1
532,533,1582724990446,2.5214128,-2.0382933999999997,0.4867432,11.215,1.7380000000000002,3.003,-1
533,534,1582724990457,2.51225,-2.2530193,1.1832147,11.255999999999998,1.499,3.5580000000000003,-1
534,535,1582724990467,2.6510067000000004,-2.5696275,2.4221717999999997,11.433,1.161,4.687,-1
535,536,1582724990477,2.8802204,-2.7477174,4.8134003,11.687000000000001,0.9670000000000001,7.007000000000001,-1
536,537,1582724990487,2.246891,-2.9248648,7.7258005,11.069,0.78,9.874,-1
537,538,1582724990497,1.2249708000000001,-2.6505202999999997,10.083981,10.059,1.053,12.185,-1
538,539,1582724990508,0.38552190000000003,-1.9458916000000002,10.839077,9.232000000000001,1.767,12.87,-1
539,540,1582724990518,-0.26818943,-1.5409055,9.298875,8.59,2.191,11.242,-1
540,541,1582724990528,-0.40250683,-1.4283834,8.140853,8.464,2.325,10.003,-1
541,542,1582724990538,-0.67565536,-1.537612,8.054696,8.193,2.2359999999999998,9.865,-1
542,543,1582724990549,-0.91214275,-1.7196016,9.198085,7.952999999999999,2.0709999999999997,10.99,-1
543,544,1582724990559,-0.9176636,-2.039374,11.501469,7.941,1.767,13.292,-1
544,545,1582724990570,-1.4136891000000003,-2.0631626,13.657745000000002,7.438,1.76,15.447000000000001,-1
545,546,1582724990579,-2.100515,-1.428597,15.067201999999998,6.746,2.416,16.836,-1
546,547,1582724990589,-2.4505357999999995,-0.9271915000000001,14.740731,6.394,2.943,16.463,-1
547,548,1582724990599,-2.627365,-0.30691599999999997,12.685236999999999,6.215,3.592,14.353,-1
548,549,1582724990610,-2.6316537999999996,0.042322636,11.045867,6.234,4.03,12.212,-1
549,550,1582724990620,-1.9032197,0.3398893,9.927599,6.919,4.301,11.555,-1
550,551,1582724990630,-1.4621124,0.39412618,9.632156,7.347,4.373,11.287,-1
551,552,1582724990640,-1.4783659,0.51326036,9.74178,7.3229999999999995,4.502,11.414000000000001,-1
552,553,1582724990651,-1.4676761999999999,0.674716,9.423492999999999,7.316,4.687,11.132,-1
553,554,1582724990660,-1.5695119,0.6018734,8.743286,7.194,4.643,10.487,-1
554,555,1582724990670,-2.2016625,0.597837,7.982039,6.5360000000000005,4.675,9.771,-1
555,556,1582724990680,-2.7206987999999996,0.5791812,6.9744163,5.98,4.699,8.844,-1
556,557,1582724990690,-2.5622048,0.581727,6.3222775,6.095,4.742,8.301,-1
557,558,1582724990700,-2.182342,0.6247176999999999,5.943302,6.433,4.8180000000000005,8.032,-1
558,559,1582724990711,-1.7230672999999999,0.66071606,5.2646112,6.852,4.883,7.457999999999999,-1
559,560,1582724990721,-0.89186287,0.7169199,3.73961,7.625,4.979,6.077999999999999,-1
560,561,1582724990731,-0.7636366,0.6407503999999999,3.2405744,7.733,4.916,5.627999999999999,-1
561,562,1582724990742,-0.6832113000000001,0.3909831,2.7009263,7.769,4.691,5.199,-1
562,563,1582724990752,-0.8356719000000001,0.16396046,2.545386,7.539,4.5,5.235,-1
563,564,1582724990762,-0.9817443000000001,-0.033872128,2.895193,7.337999999999999,4.3180000000000005,5.726,-1
564,565,1582724990773,-0.926949,-0.04177761,3.216407,7.345,4.325,6.162000000000001,-1
565,566,1582724990783,-0.74123335,0.06514025,2.9294189999999998,7.489,4.447,5.968,-1
566,567,1582724990793,-0.41755486,0.10540676,2.1615298,7.774,4.505,5.278,-1
567,568,1582724990803,-0.5552845000000001,0.13017082,1.5680666,7.5920000000000005,4.552,4.768,-1
568,569,1582724990813,-0.4243331,-0.014488697,0.6208041,7.672999999999999,4.435,3.908,-1
569,570,1582724990824,-0.55245924,-0.10293913,0.34048057,7.52,4.361000000000001,3.6689999999999996,-1
570,571,1582724990834,-0.46593190000000007,-0.20610905,0.31435847,7.587000000000001,4.263,3.6830000000000003,-1
571,572,1582724990844,-0.09959602,-0.20882273,0.65488315,7.934,4.246,4.088,-1
572,573,1582724990855,0.18944454,-0.0052952766,0.972476,8.21,4.437,4.452,-1
573,574,1582724990865,0.47826385,-0.027671337,1.4798136,8.492,4.402,4.9910000000000005,d
574,575,1582724990875,0.6911535,0.1421709,1.4656451000000001,8.703,4.564,4.9910000000000005,-1
575,576,1582724990885,0.90119934,0.2741356,1.0623477,8.914,4.694,4.588,-1
576,577,1582724990896,1.0228186,0.2000804,0.38457608,9.038,4.619,3.906,-1
577,578,1582724990906,0.87852097,0.12034941,0.21811438,8.892000000000001,4.538,3.745,-1
578,579,1582724990916,0.6156359,-0.07949591,0.34084749999999997,8.624,4.332,3.887,-1
579,580,1582724990926,0.30165958,-0.158813,0.8688965,8.298,4.243,4.454,-1
580,581,1582724990937,-0.032107353,-0.062062263,1.1542807,7.949,4.33,4.785,-1
581,582,1582724990947,-0.17680693,-0.03194189,0.8170998,7.79,4.351,4.49,-1
582,583,1582724990957,0.08705473,0.11421251,0.48207593,8.049,4.49,4.1739999999999995,-1
583,584,1582724990968,0.9839344000000001,0.46038485,0.21492767,8.954,4.828,3.8989999999999996,-1
584,585,1582724990978,1.5568395000000002,0.840292,0.32037044,9.533999999999999,5.197,4.002,-1
585,586,1582724990988,1.2950125,1.2138596000000001,0.56735563,9.266,5.57,4.263,-1
586,587,1582724990998,1.3388046999999998,1.3689508,0.7379532,9.304,5.726,4.445,-1
587,588,1582724991008,1.3147106000000002,1.4692774,1.5954403999999998,9.256,5.831,5.348,-1
588,589,1582724991018,1.028305,1.6492586,1.5829086,8.959,6.016,5.352,-1
589,590,1582724991029,0.85518694,1.6440801999999999,1.3391726000000002,8.753,6.035,5.149,-1
590,591,1582724991039,0.98651123,1.6586046000000003,1.3137982,8.875,6.059,5.132000000000001,-1
591,592,1582724991049,1.6831598,2.0746956,0.6145065,9.556000000000001,6.495,4.442,-1
592,593,1582724991059,4.013998,2.8012217999999995,1.0037382,11.852,7.247000000000001,4.873,-1
593,594,1582724991069,4.559496,2.6958427000000005,2.4200597000000004,12.350999999999999,7.162999999999999,6.358,-1
594,595,1582724991079,3.3429097999999997,2.8839264,3.9923272000000005,11.067,7.388,8.02,-1
595,596,1582724991090,2.5911388,2.9301909999999998,4.9280715,10.277000000000001,7.457999999999999,9.002,-1
596,597,1582724991100,0.20400620000000003,2.3056011,9.517246,7.781000000000001,6.916,13.700999999999999,-1
597,598,1582724991110,-0.71133995,2.2590369999999997,11.838047,6.813,6.935,16.044,-1
598,599,1582724991120,-0.064229965,2.393764,11.698869,7.4239999999999995,7.144,15.886,-1
599,600,1582724991131,1.0937953,2.6826186,10.1031475,8.552,7.513,14.252,-1
600,601,1582724991141,2.656323,3.2434978,8.36898,10.08,8.157,12.482000000000001,-1
601,602,1582724991151,4.1778507000000005,3.9232129999999996,6.7157135,11.558,8.923,10.802999999999999,-1
602,603,1582724991161,5.201169999999999,4.26582,6.4581394,12.527999999999999,9.359,10.526,-1
603,604,1582724991171,5.231928,4.60404,7.0008287,12.497,9.805,11.043,-1
604,605,1582724991181,5.0974727,4.1891384,7.979316000000001,12.296,9.517000000000001,11.975,-1
605,606,1582724991191,4.2889657,3.8965796999999998,8.568703,11.417,9.371,12.492,-1
606,607,1582724991201,3.5630226,3.8356504,8.313335,10.617,9.472000000000001,12.14,-1
607,608,1582724991211,3.6669172999999997,3.8495822,7.194364500000001,10.642999999999999,9.654,10.911,-1
608,609,1582724991222,4.381488,3.8227196000000006,6.0029807,11.275,9.795,9.606,-1
609,610,1582724991232,5.228688200000001,3.6646318,5.240743599999999,12.034,9.805,8.727,-1
610,611,1582724991242,5.515522499999999,3.2983742,4.844365,12.405999999999999,9.23,7.893,-1
611,612,1582724991253,5.58921,2.012486,3.7017638999999996,12.19,8.502,6.94,-1
612,613,1582724991263,4.8389025000000006,1.5223823,3.4596769999999997,11.318,8.195,6.569,-1
613,614,1582724991273,4.1152787,1.1910648000000001,3.0778527,10.463,8.049,6.0520000000000005,-1
614,615,1582724991283,3.8539046999999997,0.71218586,2.6618150000000003,10.066,7.752000000000001,5.494,-1
615,616,1582724991294,3.4934163000000003,0.2799511,2.5552213,9.565,7.496,5.245,-1
616,617,1582724991304,3.5892962999999996,-0.70155954,1.8186852999999998,9.52,6.678999999999999,4.373,-1
617,618,1582724991314,3.3300252,-1.7469254,0.7553158,9.132,5.776,3.187,-1
618,619,1582724991324,2.263648,-2.6788144,-0.30629182,8.017999999999999,4.914,2.019,-1
619,620,1582724991335,1.0937290000000002,-3.3640356,-0.9765290999999999,6.706,4.356,1.276,-1
620,621,1582724991345,0.21583128,-4.0771036,-0.6672369,5.659,3.772,1.554,-1
621,622,1582724991355,-0.6442404,-4.305784,0.36007524,4.627,3.661,2.577,-1
622,623,1582724991365,-1.3491011,-4.391822299999999,2.3638422,3.755,3.6830000000000003,4.581,-1
623,624,1582724991376,-1.2867022,-4.9838834,3.7730069999999998,3.6660000000000004,3.1919999999999997,5.962999999999999,-1
624,625,1582724991385,-1.0222304,-5.063343499999999,3.5721035000000003,3.798,3.218,5.659,-1
625,626,1582724991395,-0.41413069999999996,-5.159896,1.8361546000000002,4.287,3.238,3.719,-1
626,627,1582724991405,-0.59460735,-5.1537104000000005,-0.78480864,3.987,3.365,0.831,-1
627,628,1582724991415,-1.1591133999999998,-4.924483,-3.1134963,3.295,3.7089999999999996,-1.774,-1
628,629,1582724991426,-1.1402636,-4.922937,-4.3396745,3.185,3.81,-3.245,-1
629,630,1582724991436,-1.3114781,-4.8807160000000005,-4.2214127,2.888,3.935,-3.3169999999999997,-1
630,631,1582724991446,-1.7756624,-4.940283999999999,-3.109175,2.124,4.064,-1.5830000000000002,-1
631,632,1582724991456,-2.0566778,-4.7884316,-1.8159424,1.662,4.289,-0.934,-1
632,633,1582724991467,-2.1516642999999998,-4.500408,-1.5289763,1.693,4.505,-0.9890000000000001,-1
633,634,1582724991477,-1.3174925,-4.077197,-1.9307342,2.4659999999999997,4.96,-1.501,-1
634,635,1582724991487,-0.51374626,-3.5059628,-3.0026152,3.2230000000000003,5.556,-2.7060000000000004,-1
635,636,1582724991497,-0.044752598,-3.2310772,-3.9424953,3.6519999999999997,5.851,-3.8,-1
636,637,1582724991508,-0.010453224,-3.2841902000000003,-4.079899,3.6660000000000004,5.807,-4.013999999999999,-1
637,638,1582724991518,-0.43040276,-3.5259504,-3.6037169999999996,3.178,5.5920000000000005,-3.717,-1
638,639,1582724991528,-0.5638428000000001,-3.9364065999999998,-2.1314933,2.998,5.199,-2.299,-1
639,640,1582724991538,-0.6239562,-4.126228299999999,-1.5243121000000002,2.917,5.0169999999999995,-1.7069999999999999,-1
640,641,1582724991548,-1.0938625,-4.506703,-0.89314264,2.397,4.655,-1.111,-1
641,642,1582724991559,-1.0417519,-4.493556,-1.0329745000000001,2.438,4.672,-1.266,-1
642,643,1582724991569,-0.81914496,-4.3407345,-1.7811272,2.641,4.83,-2.09,-1
643,644,1582724991579,-1.0139687,-3.984921,-2.5835647999999996,2.435,5.187,-2.972,-1
644,645,1582724991590,-0.8821870999999999,-3.6516433,-2.8313580000000003,2.562,5.52,-3.266,-1
645,646,1582724991600,-0.01017499,-3.487886,-3.1434073,3.429,5.678,-3.717,-1
646,647,1582724991610,0.26913786,-3.0897017000000004,-2.8034825,3.7089999999999996,6.071000000000001,-3.451,-1
647,648,1582724991621,0.37816358,-3.133092,-2.175827,3.822,6.023,-2.866,-1
648,649,1582724991631,0.30732417,-3.1063537999999995,-1.6192231000000001,3.752,6.0489999999999995,-2.315,-1
649,650,1582724991641,-0.28464079999999997,-3.2285128,-0.8171305999999999,3.161,5.9270000000000005,-1.506,-1
650,651,1582724991652,-1.120091,-2.8617969,-0.17075759,2.3369999999999997,6.291,-0.838,-1
651,652,1582724991662,-0.5327177,-2.4282246,-0.38778490000000004,2.95,6.715,-1.053,-1
652,653,1582724991672,-0.080652475,-2.2191958,-0.5951776999999999,3.4219999999999997,6.916,-1.266,-1
653,654,1582724991682,1.5566168,-1.3886341999999998,-1.3986135,5.192,7.688,-2.153,-1
654,655,1582724991693,2.0709443,-1.0449614999999999,-1.6204953000000002,6.09,8.037,-2.488,-1
655,656,1582724991703,2.3538248999999998,-0.7713814,-1.5452962,6.218999999999999,8.195,-2.459,-1
656,657,1582724991713,1.6536634,-0.5025358,-0.8841439,5.5889999999999995,8.427999999999999,-1.848,-1
657,658,1582724991723,0.73167706,-0.52794456,-0.07886559,4.734,8.37,-1.068,-1
658,659,1582724991734,-0.45627403,-0.40512466,0.23212111,3.537,8.497,-0.7559999999999999,-1
659,660,1582724991744,-1.145338,-0.30883408,0.07202321,2.821,8.605,-0.919,d
660,661,1582724991754,-1.1087790000000002,-0.110767365,-0.10914289999999999,2.85,8.806000000000001,-1.104,-1
661,662,1582724991764,-0.3121395,0.40393353,-1.0426974,3.645,9.314,-2.102,-1
662,663,1582724991774,0.02020979,0.5273218000000001,-1.0871012,3.992,9.429,-2.162,-1
663,664,1582724991784,0.5733781,0.75908947,-1.2140578000000002,4.581,9.642000000000001,-2.311,-1
664,665,1582724991794,0.7383084,0.8253021,-0.85760534,4.7780000000000005,9.692,-1.9680000000000002,-1
665,666,1582724991804,0.47491932,0.7769375,-0.012742758,4.533,9.635,-1.125,-1
666,667,1582724991815,-0.07709408,0.91994095,0.21787548,3.98,9.777999999999999,-0.898,-1
667,668,1582724991825,-0.12591505,0.9272671,-0.1023314,3.927,9.786,-1.228,-1
668,669,1582724991835,-0.34263825,1.0673264999999998,-0.77678514,3.695,9.927,-1.949,-1
669,670,1582724991846,-0.52131224,1.0541076999999999,-0.6697681999999999,3.5060000000000002,9.915,-1.868,-1
670,671,1582724991856,-0.4528129,0.91346645,-0.21582091,3.57,9.776,-1.4169999999999998,-1
671,672,1582724991866,-1.0032032,0.8849144,0.7653038000000001,2.9930000000000003,9.764,-0.402,-1
672,673,1582724991877,-0.98769474,0.8606844000000001,0.95206547,3.0839999999999996,9.774,-0.316,-1
673,674,1582724991887,-0.5304992,1.0113926,0.65732014,3.451,9.902999999999999,-0.46399999999999997,-1
674,675,1582724991897,-0.16614866,1.0727348,0.32100308,4.232,10.025,-1.1440000000000001,-1
675,676,1582724991908,0.59458447,1.2185754999999998,-0.33579349999999997,4.61,10.092,-1.48,-1
676,677,1582724991918,1.1519284,1.349473,-0.6330899999999999,5.192,10.209,-1.798,-1
677,678,1582724991928,0.7772293,1.1825886,0.02428472,4.837,10.032,-1.149,-1
678,679,1582724991938,0.19304991,0.7992686999999999,0.75602156,4.253,9.651,-0.39899999999999997,-1
679,680,1582724991949,-0.13238192,0.59524345,1.1835288,3.92,9.455,0.064,-1
680,681,1582724991959,-0.40112996,0.5694256,1.1678111999999998,3.642,9.436,0.069,-1
681,682,1582724991969,-0.43895054,0.7048607,0.39169377,3.5780000000000003,9.587,-0.677,-1
682,683,1582724991980,-0.4570439,0.71066093,-0.08061504,3.556,9.594,-1.1540000000000001,-1
683,684,1582724991990,-0.05975294,0.8178091,0.33225203,3.9610000000000003,9.699,-0.73,-1
684,685,1582724992000,0.44918919999999996,0.80701923,0.5700066999999999,4.488,9.683,-0.467,-1
685,686,1582724992010,0.53238297,0.8130398,0.47282046,4.588,9.683,-0.55,-1
686,687,1582724992021,0.4122224,0.73879623,0.03862828,4.476,9.604,-0.993,-1
687,688,1582724992031,-0.03295374,0.7986574000000001,-0.6186553000000001,4.016,9.663,-1.714,-1
688,689,1582724992041,-0.1848774,0.75263596,-0.6586337,3.841,9.62,-1.8130000000000002,-1
689,690,1582724992051,-0.44635487,0.6738987,-1.2218117,3.554,9.544,-2.4419999999999997,-1
690,691,1582724992062,-0.3210547,0.6587324000000001,-2.038992,3.6639999999999997,9.527000000000001,-3.321,-1
691,692,1582724992072,0.30200577,0.7940569000000001,-2.4275136,4.294,9.654,-3.745,-1
692,693,1582724992082,0.7327595,0.809227,-1.9626458999999998,4.744,9.658999999999999,-3.29,-1
693,694,1582724992092,0.8518771999999999,0.8507643,-1.453741,4.885,9.69,-2.785,-1
694,695,1582724992102,1.3144946000000002,0.8465929,-1.5867393,5.369,9.673,-2.938,-1
695,696,1582724992113,2.0977316000000004,1.1175776000000002,-2.2073379,6.167000000000001,9.929,-3.611,-1
696,697,1582724992123,3.0885582,1.2870569,-3.4850411,7.1610000000000005,10.083,-4.974,-1
697,698,1582724992133,4.1660466,1.3813591,-5.1110163,8.229,10.164,-6.7010000000000005,-1
698,699,1582724992143,5.0392337,1.6483021,-6.652021400000001,9.081,10.423,-8.337,-1
699,700,1582724992153,5.3997827,1.8189726000000002,-7.9510303,9.414,10.593,-9.704,-1
700,701,1582724992164,5.1860714,1.5145683,-8.178689,9.168,10.298,-9.958,-1
701,702,1582724992174,4.6375303,0.73356724,-7.2389517,8.581,9.536,-9.01,-1
702,703,1582724992184,3.8284407,0.12900925,-6.0320487,7.728,8.954,-7.787999999999999,-1
703,704,1582724992194,3.4688160000000003,-0.18485832,-4.935446700000001,7.321000000000001,8.66,-6.696000000000001,-1
704,705,1582724992204,3.7933046999999998,0.10887051,-5.456663,7.593999999999999,8.969,-7.252000000000001,-1
705,706,1582724992215,4.9025625999999995,-0.07562733,-7.641325999999999,8.65,8.796,-9.491,-1
706,707,1582724992225,6.0696588,-0.22625256,-9.940406,9.757,8.66,-11.84,-1
707,708,1582724992235,6.793212400000001,-0.8220625,-11.251978,10.408,8.09,-13.17,-1
708,709,1582724992245,6.6506240000000005,-1.8107471000000002,-10.716636,10.176,7.144,-12.602,-1
709,710,1582724992256,5.4548874000000005,-3.2881384,-8.445971,8.875,5.724,-10.25,-1
710,711,1582724992266,3.861017,-4.530405,-5.097765,7.204,4.526,-6.8229999999999995,-1
711,712,1582724992276,2.3389587000000005,-5.544973400000001,-1.2975315,5.601,3.563,-2.9019999999999997,-1
712,713,1582724992286,0.8770304,-5.958971,1.7304468000000002,4.0089999999999995,3.221,0.285,-1
713,714,1582724992297,0.19367003,-6.339148000000001,3.1834745,3.197,2.9019999999999997,1.86,-1
714,715,1582724992307,-0.8404999,-7.319584,2.8429415000000002,1.973,1.995,1.621,-1
715,716,1582724992317,-1.3107966999999998,-7.716597999999999,2.372929,1.4409999999999998,1.619,1.171,-1
716,717,1582724992327,-2.1664047,-8.621734,1.5648685,0.47100000000000003,0.752,0.40399999999999997,-1
717,718,1582724992337,-3.0946267000000005,-9.115898,1.5273729999999999,-0.55,0.292,0.43799999999999994,-1
718,719,1582724992347,-4.1846747,-9.160142,4.276307599999999,-1.722,0.292,3.403,-1
719,720,1582724992358,-4.788261400000001,-9.533206,7.874034399999999,-2.354,-0.055,7.235,-1
720,721,1582724992368,-5.19851,-9.740859,9.412417,-2.89,-0.21,9.35,-1
721,722,1582724992378,-6.3118277,-10.209348,13.456370000000001,-4.0089999999999995,-0.684,13.824000000000002,-1
722,723,1582724992388,-6.2817025,-10.501424,14.241028,-3.966,-0.9840000000000001,14.717,-1
723,724,1582724992399,-7.0704365000000005,-10.470751,16.226879999999998,-4.684,-0.9890000000000001,16.983,-1
724,725,1582724992409,-7.630936999999999,-10.334841,17.128098,-5.954,-0.6609999999999999,19.121,-1
725,726,1582724992419,-9.25128,-9.96088,19.333755,-6.749,-0.534,20.355,-1
726,727,1582724992429,-10.951372000000001,-9.026017999999999,22.03818,-8.281,0.32299999999999995,23.316999999999997,-1
727,728,1582724992440,-10.662732,-8.803653,23.38165,-7.846,0.48100000000000004,24.807,-1
728,729,1582724992450,-9.644466,-8.293223,24.396025,-6.655,0.919,25.935,-1
729,730,1582724992460,-7.9947610000000005,-7.6945047,24.432425,-4.809,1.439,26.045,-1
730,731,1582724992470,-6.188695,-7.0101547,23.534788,-2.787,2.04,25.176,-1
731,732,1582724992480,-4.453269000000001,-5.9664,21.875376,-0.821,2.9960000000000004,23.504,-1
732,733,1582724992491,-3.0193906000000004,-4.9924355,19.852005,0.855,3.875,21.441999999999997,-1
733,734,1582724992501,-1.4692643,-3.7975974000000003,18.115004000000003,2.656,4.9639999999999995,19.66,-1
734,735,1582724992511,0.49554634,-3.050785,16.835419,4.878,5.5920000000000005,18.340999999999998,-1
735,736,1582724992521,2.511557,-2.084062,15.430171,7.153,6.428,16.904,-1
736,737,1582724992531,5.318072,-0.8053222,13.587673,10.219,7.565,15.033,-1
737,738,1582724992542,8.234135,0.56113243,11.116767999999999,13.392000000000001,8.78,12.537,-1
738,739,1582724992552,10.920378,1.5358572,8.031367,16.322,9.599,9.437999999999999,-1
739,740,1582724992562,12.186347999999999,2.1525521,5.880598,17.805999999999997,10.062999999999999,7.3,-1
740,741,1582724992573,12.43943,2.2841616,4.0127735,18.247,10.049,5.479,-1
741,742,1582724992583,12.111482,2.299839,3.4763498,18.08,9.927,5.0169999999999995,-1
742,743,1582724992593,12.684311,2.9550614,3.3174949000000002,18.796,10.449000000000002,4.948,-1
743,744,1582724992603,14.699292999999999,3.5532913,2.0934763,20.945999999999998,10.915999999999999,3.8080000000000003,-1
744,745,1582724992614,16.820578,4.1921873,0.19289923,24.144000000000002,11.397,0.402,-1
745,746,1582724992624,18.219185,4.314376,-2.9902322,24.701999999999998,11.455,-1.214,-1
746,747,1582724992634,18.400036,4.0639,-6.469722,24.97,11.134,-4.732,-1
747,748,1582724992644,17.611454000000002,3.6455832000000004,-9.29996,23.794,10.475,-8.71,-1
748,749,1582724992654,17.088242,3.3107547999999993,-11.431728,23.758000000000003,10.31,-9.79,-1
749,750,1582724992664,17.17894,3.151558,-13.204169,23.875,10.133,-11.594000000000001,-1
750,751,1582724992674,16.955017,2.9636793,-14.520423000000001,23.665,9.939,-12.942,-1
751,752,1582724992684,16.165974,2.6036339,-15.863889000000002,22.874000000000002,9.589,-14.322000000000001,-1
752,753,1582724992694,14.542504999999998,2.071094,-16.678192000000003,21.230999999999998,9.084,-15.177,-1
753,754,1582724992704,13.382606,1.5431418,-17.732706,20.041,8.595,-16.281,-1
754,755,1582724992714,12.62022,1.0303707,-18.502275,19.243,8.128,-17.112000000000002,-1
755,756,1582724992724,11.569157,0.37190723,-18.821707,18.149,7.522,-17.498,-1
756,757,1582724992735,10.048267999999998,-0.36021185,-18.455679999999997,16.575,6.849,-17.191,-1
757,758,1582724992745,8.373545,-1.241652,-17.622211,14.839,6.03,-16.401,-1
758,759,1582724992755,6.637892999999999,-2.0752316000000004,-16.314842000000002,13.038,5.2589999999999995,-15.124,-1
759,760,1582724992765,5.0125785,-2.927897,-15.036089000000002,11.349,4.466,-13.874,-1
760,761,1582724992776,3.7373328000000003,-3.6323833,-13.631529,10.017999999999999,3.815,-12.509,-1
761,762,1582724992785,2.906919,-4.46811,-12.028148,9.148,3.022,-10.970999999999998,-1
762,763,1582724992795,2.7770900000000003,-5.0441704000000005,-10.989968,8.998,2.476,-10.032,-1
763,764,1582724992805,2.8300414000000003,-5.319227,-9.637310000000001,9.05,2.217,-8.808,-1
764,765,1582724992815,2.6730232000000003,-5.520235,-8.245235000000001,8.914,2.0140000000000002,-7.57,-1
765,766,1582724992825,2.3185005000000003,-5.8164845000000005,-6.3592505,8.646,1.662,-5.906000000000001,-1
766,767,1582724992835,2.0635376,-5.922105,-4.105759,8.703,1.295,-4.069,-1
767,768,1582724992846,2.1189742000000003,-6.093704,-2.408468,8.825,0.716,-1.7380000000000002,-1
768,769,1582724992856,1.7137952,-6.540992,-0.80388117,8.55,0.41100000000000003,-0.402,-1
769,770,1582724992866,0.99854374,-6.6387625,0.53555316,7.829,0.395,0.332,-1
770,771,1582724992876,0.41800642,-6.381692,1.9579837,7.225,0.6729999999999999,1.7,-1
771,772,1582724992887,0.23150015,-6.081585,2.8521433,7.031000000000001,0.9790000000000001,2.56,-1
772,773,1582724992897,-0.15241194,-5.959366999999999,3.3978292999999997,6.643,1.104,3.0789999999999997,-1
773,774,1582724992907,-0.18955326,-5.9297414,3.8552867999999996,6.607,1.1320000000000001,3.525,-1
774,775,1582724992917,-0.35812855,-6.0643187,4.114211,6.44,0.996,3.786,-1
775,776,1582724992927,-1.3666372,-6.5379806,5.651549,5.439,0.517,5.367000000000001,-1
776,777,1582724992938,-2.6776671000000003,-6.5111904,6.8326235,4.133,0.541,6.605,-1
777,778,1582724992948,-3.8841455000000003,-6.595942,8.066606,2.943,0.44299999999999995,7.949,-1
778,779,1582724992958,-4.897573,-6.4759283,8.952624,1.973,0.519,9.144,-1
779,780,1582724992968,-5.063214,-6.3440905,8.963107,2.028,0.596,10.19,-1
780,781,1582724992979,-4.3956029999999995,-6.2843375,10.354697999999999,2.603,0.495,11.464,-1
781,782,1582724992989,-4.078374,-5.9378977,11.90184,2.998,0.74,13.127,-1
782,783,1582724992999,-3.6571013999999997,-5.6847449999999995,13.499313,3.503,0.883,14.829,-1
783,784,1582724993009,-4.2203093,-5.1797223,14.933660999999999,3.022,1.274,16.372,-1
784,785,1582724993019,-5.3665624,-4.688553,15.286003,1.954,1.65,16.836,-1
785,786,1582724993030,-6.596172999999999,-4.301901,14.631614,0.802,1.9180000000000001,16.29,-1
786,787,1582724993040,-6.4850129999999995,-4.3649225,14.249342,0.998,1.724,16.01,-1
787,788,1582724993050,-5.587119599999999,-4.330818,14.587685,1.992,1.609,16.444000000000003,-1
788,789,1582724993060,-4.927412,-4.075731299999999,15.639783,2.7539999999999996,1.7,17.590999999999998,-1
789,790,1582724993071,-4.6104080000000005,-3.7981544,16.114708,3.173,1.8030000000000002,18.168,-1
790,791,1582724993080,-4.2857733,-3.304299,16.288985999999998,3.597,2.114,18.451,-1
791,792,1582724993090,-4.4975595,-3.0467775,15.542311999999999,3.4789999999999996,2.181,17.826,-1
792,793,1582724993100,-4.449152,-2.7183002999999997,15.091254999999999,3.616,2.3080000000000003,17.512,-1
793,794,1582724993110,-3.1917047999999997,-2.4294553,14.044049,4.96,2.38,16.611,-1
794,795,1582724993121,-1.7306761999999998,-2.2476689999999997,12.751074000000001,6.504,2.332,15.469000000000001,-1
795,796,1582724993131,-0.23134708,-1.7529075,11.411724000000001,8.078,2.589,14.288,-1
796,797,1582724993141,1.3424721000000002,-1.1110339,10.299732,9.714,2.988,13.347000000000001,-1
797,798,1582724993152,2.4211054,-0.12983227,9.103419,10.842,3.7260000000000004,12.327,-1
798,799,1582724993162,3.3745766,0.88781667,8.168208,11.835999999999999,4.505,11.558,-1
799,800,1582724993172,4.0434093,1.6999018,7.1764307,12.537,5.087,10.72,-1
800,801,1582724993182,4.4183455,1.9742457999999998,6.219251,12.933,5.142,9.912,-1
801,802,1582724993193,4.4915970000000005,1.8436648999999998,5.4726815,13.012,4.803999999999999,9.321,-1
802,803,1582724993203,4.4479675,1.2882535,5.120213,12.959000000000001,4.052,9.132,-1
803,804,1582724993213,4.4515247,1.5271261,5.1815394999999995,12.927999999999999,4.0089999999999995,9.443,-1
804,805,1582724993224,4.903035,1.6925035,5.191172,13.364,4.081,9.536,-1
805,806,1582724993233,6.3519144,2.5215812,5.3024755,14.779000000000002,4.727,9.807,-1
806,807,1582724993243,8.040254,3.2135993999999997,4.547758,16.432000000000002,5.249,9.196,-1
807,808,1582724993253,9.404474,3.6430849999999997,2.644412,17.762999999999998,5.534,7.412000000000001,-1
808,809,1582724993263,8.815192,3.5278282,-0.19232321,17.121,5.261,4.725,-1
809,810,1582724993274,8.130596,3.3598117999999997,-0.5997863,16.415,5.051,4.368,-1
810,811,1582724993284,6.5436544,2.7898922,-0.2901101,14.777000000000001,4.404,4.787,-1
811,812,1582724993294,4.937508599999999,2.1853325,0.7035675,13.11,3.7239999999999998,5.901,-1
812,813,1582724993304,3.7600555,1.741177,2.2019072,11.864,3.2039999999999997,7.527,-1
813,814,1582724993314,3.7010946000000002,1.3213061000000001,2.5444684,11.704,2.68,8.047,-1
814,815,1582724993325,4.208254,1.2930605,1.6436558000000001,12.787,2.6919999999999997,6.107,-1
815,816,1582724993335,5.5725489999999995,1.6406406000000002,-0.805192,13.491,2.9189999999999996,4.837,-1
816,817,1582724993346,7.065784,1.993711,-3.7458668,14.908,3.216,2.0140000000000002,-1
817,818,1582724993356,7.001579799999999,1.9510272000000002,-4.240711,14.36,3.2039999999999997,1.037,-1
818,819,1582724993366,6.0729365,1.9649889999999999,-4.892967,13.85,3.161,0.96,-1
819,820,1582724993376,4.287060299999999,1.5678271000000001,-3.9000154,12.03,2.759,1.999,-1
820,821,1582724993386,3.3411932,1.6082952,-2.8538308,11.079,2.804,3.051,-1
821,822,1582724993396,3.321732,1.8929734,-2.5705023,11.062000000000001,3.0989999999999998,3.3289999999999997,-1
822,823,1582724993407,4.2895017,2.2068334,-3.755128,12.042,3.424,2.126,-1
823,824,1582724993417,5.2065454,2.5355062000000004,-5.164807,12.970999999999998,3.76,0.6990000000000001,-1
824,825,1582724993427,5.571191000000001,2.913671,-6.292967,13.345,4.145,-0.44299999999999995,-1
825,826,1582724993437,5.5845655999999995,3.0909944,-6.800489,13.360999999999999,4.327,-0.955,-1
826,827,1582724993447,5.034431,2.896071,-6.2378105999999995,12.81,4.136,-0.392,-1
827,828,1582724993457,4.1280575,2.5482364,-4.929798,11.91,3.8,0.905,-1
828,829,1582724993468,3.4209924,2.0808742,-3.7435443,11.22,3.353,2.064,-1
829,830,1582724993478,3.0881133,1.9625635,-2.8912527999999997,10.911,3.262,2.878,-1
830,831,1582724993488,2.9668097,1.7459156999999998,-2.8540783,10.823,3.0789999999999997,2.862,-1
831,832,1582724993498,2.6567925999999997,1.6699926999999999,-3.0684807000000003,10.554,3.0439999999999996,2.5810000000000004,-1
832,833,1582724993508,2.4122642999999995,1.8218039000000001,-3.1054182,10.350999999999999,3.242,2.474,-1
833,834,1582724993519,2.037499,1.56444,-2.8153234,10.023,3.034,2.6839999999999997,-1
834,835,1582724993529,1.6628332,1.5741729,-1.7602799,9.685,3.089,3.673,-1
835,836,1582724993539,1.7423058,1.3686306000000001,-1.2332869,9.788,2.912,4.157,-1
836,837,1582724993549,1.6700001,1.2766875,-1.0319953000000002,9.735,2.842,4.323,-1
837,838,1582724993560,1.4330187,1.2120458,-0.9383916999999999,9.517000000000001,2.804,4.38,-1
838,839,1582724993570,1.0996714,1.2301098,-1.0570760000000001,9.206,2.862,4.215,-1
839,840,1582724993580,0.65867996,1.1404877,-0.8404484,8.787,2.8280000000000003,4.38,-1
840,841,1582724993590,0.30231285,1.0923072,-0.3234377,8.442,2.847,4.857,-1
841,842,1582724993601,0.3629837,1.0068045,-0.048115253,8.509,2.8089999999999997,5.106,-1
842,843,1582724993611,0.39893627,1.0998065000000001,0.5733609000000001,8.547,2.931,5.7139999999999995,d
843,844,1582724993621,0.3170433,0.949674,0.9020771999999999,8.466000000000001,2.804,6.0329999999999995,-1
844,845,1582724993631,0.21918488,0.9840561,0.7981844,8.368,2.864,5.92,-1
845,846,1582724993641,0.10308552,0.80115104,0.7359991,8.246,2.7060000000000004,5.858,-1
846,847,1582724993651,0.08342934,0.85396934,0.60320663,8.217,2.783,5.731,-1
847,848,1582724993662,0.37242508,0.8778573000000001,0.38710259999999996,8.499,2.8280000000000003,5.518,-1
848,849,1582724993672,0.7032528,0.90486586,0.6276474,8.825,2.866,5.7620000000000005,-1
849,850,1582724993682,1.0665588,1.0556413999999998,1.0847545,9.184,3.0269999999999997,6.222,-1
850,851,1582724993692,1.314703,1.1348767,1.2930875,9.429,3.12,6.43,-1
851,852,1582724993703,1.1280203000000002,1.1891279,1.1201911,9.238999999999999,3.2110000000000003,6.247999999999999,-1
852,853,1582724993713,0.5963392,1.1192178999999998,0.88105345,8.703,3.178,6.001,-1
853,854,1582724993723,0.332592,1.0256906,0.82102346,8.435,3.1060000000000003,5.939,-1
854,855,1582724993733,0.2353468,0.7833979,0.32190228,8.32,2.929,5.441,-1
855,856,1582724993743,0.79845905,0.9145551,0.27696133,8.871,3.089,5.403,-1
856,857,1582724993753,1.5039844999999998,1.1569457,0.54977274,9.562999999999999,3.3480000000000003,5.69,-1
857,858,1582724993764,2.0887003,1.2552629,0.7166014,10.133,3.46,5.874,-1
858,859,1582724993774,2.3368043999999997,1.5819035,1.0544147,10.365,3.805,6.229,-1
859,860,1582724993784,2.9664992999999997,1.7510264,1.2479472,10.981,3.9989999999999997,6.433,-1
860,861,1582724993794,3.285203,1.9981499,1.1046367,11.29,4.282,6.289,-1
861,862,1582724993804,3.0657520000000003,2.251401,0.57915354,11.062000000000001,4.584,5.755,-1
862,863,1582724993815,3.0564404,2.3437471000000003,0.35399342,11.048,4.703,5.525,-1
863,864,1582724993825,3.7844405,2.7498097,0.62551785,11.757,5.18,5.792999999999999,-1
864,865,1582724993835,4.666108599999999,2.9903116,1.2560692,12.620999999999999,5.457999999999999,6.433,-1
865,866,1582724993845,5.63537,3.4202187000000004,1.3378072,13.57,5.925,6.528,-1
866,867,1582724993856,6.7767525,3.9810550000000005,1.8522177,14.690999999999999,6.528,7.053,-1
867,868,1582724993866,7.336530000000001,4.2938232,1.8977647000000002,15.241,6.8660000000000005,7.101,-1
868,869,1582724993876,8.308619,4.874243700000001,2.388928,16.185,7.551,7.582000000000001,-1
869,870,1582724993886,8.6301365,5.284546400000001,2.9767256,16.489,8.059,8.145,-1
870,871,1582724993897,8.771724,5.4673195,3.9622550000000003,16.616,8.363,9.086,-1
871,872,1582724993907,8.904924000000001,5.3528814,4.612679,16.741,8.396,9.663,-1
872,873,1582724993917,8.886308,5.102174,4.468552,16.722,8.32,9.41,-1
873,874,1582724993927,8.447936,4.979103,3.7979207,16.285999999999998,8.396,8.6,-1
874,875,1582724993937,8.236754,4.883114,3.3464297999999997,16.075,8.406,8.071,-1
875,876,1582724993948,7.181487599999999,5.364168599999999,2.8516793,15.007,9.22,7.331,-1
876,877,1582724993958,6.8224545,5.5185657,3.0641756,14.638,9.488999999999999,7.46,-1
877,878,1582724993968,6.0921373,5.1812816,3.9149294,13.864,9.505,8.047,-1
878,879,1582724993979,5.659292,4.22561,5.2703066,13.392000000000001,8.794,9.208,-1
879,880,1582724993988,5.044043,3.3281263999999995,6.260916,12.729000000000001,8.15,9.984,-1
880,881,1582724993998,3.9819129999999996,2.4163122,6.4370046,11.607999999999999,7.501,9.924,-1
881,882,1582724994008,3.1814732999999995,1.8765224999999999,5.6679335,10.735999999999999,7.23,8.899,-1
882,883,1582724994019,2.984179,1.4330411,4.4943027,10.454,7.055,7.455,-1
883,884,1582724994029,3.070375,0.8782796999999999,3.535796,10.442,6.763,6.218999999999999,-1
884,885,1582724994040,3.0809835999999997,0.4404831,3.1816603999999997,10.339,6.581,5.587000000000001,-1
885,886,1582724994049,2.425538,0.05591011,3.3621163,9.552999999999999,6.444,5.497999999999999,-1
886,887,1582724994059,1.4930377000000001,-0.29792738,3.5369794000000003,8.472999999999999,6.327000000000001,5.4239999999999995,-1
887,888,1582724994069,0.45006323,-0.81488705,3.5826491999999996,7.268,6.03,5.266,-1
888,889,1582724994080,-0.8666482,-1.3808503,3.158123,5.769,5.664,4.742,-1
889,890,1582724994090,-1.6866116999999998,-1.7780103999999999,2.7064705,4.766,5.475,4.095,-1
890,891,1582724994100,-1.382308,-2.3509702999999997,2.0020458999999997,4.895,5.091,3.178,-1
891,892,1582724994110,-0.9728527,-2.7108092,1.6131227,5.1339999999999995,4.9,2.589,-1
892,893,1582724994120,0.19335032,-2.644956,1.2270181,6.136,5.115,2.026,-1
893,894,1582724994130,1.548686,-2.4632049,0.75438434,7.359,5.41,1.405,-1
894,895,1582724994140,1.8313384,-2.55061,0.6306477,7.544,5.403,1.156,-1
895,896,1582724994150,0.7404814000000001,-3.0175332999999998,0.8387938,6.265,5.075,1.24,-1
896,897,1582724994160,-0.84450245,-3.6006174,1.3901734,4.452,4.648,1.669,-1
897,898,1582724994171,-2.7679243,-3.9587197,2.9643794999999997,2.289,4.442,3.125,-1
898,899,1582724994181,-3.9213476000000003,-4.1885242,4.0297866,0.9,4.351,4.069,-1
899,900,1582724994191,-3.759669,-4.7352834,2.7767417,0.747,3.9730000000000003,2.615,-1
900,901,1582724994201,-2.733457,-4.844932,0.24731295,1.597,3.949,-0.043,-1
901,902,1582724994211,-1.8816164,-4.718018,-1.0857128999999999,2.371,4.112,-1.4269999999999998,-1
902,903,1582724994221,-0.43070507,-4.920031,-2.346748,3.6830000000000003,3.9730000000000003,-2.7489999999999997,-1
903,904,1582724994231,0.06664634,-5.544586,-1.1388762,4.045,3.41,-1.537,-1
904,905,1582724994242,-1.7640395,-6.0675774,3.4218538,1.9869999999999999,2.988,3.111,-1
905,906,1582724994252,-2.6832397,-6.511043,4.88965,0.986,2.5789999999999997,4.61,-1
906,907,1582724994262,-4.3001904,-7.1520205,6.409129,-0.878,2.035,6.169,-1
907,908,1582724994272,-4.273196700000001,-7.1999655,5.4076943,-0.9259999999999999,2.0140000000000002,5.144,-1
908,909,1582724994283,-3.3829434000000003,-7.143698700000001,2.1469,-0.16699999999999998,2.114,1.796,-1
909,910,1582724994293,-0.9251518,-6.1700487,-1.582443,2.136,3.135,-2.0469999999999997,-1
910,911,1582724994303,0.10893965,-5.642404,-1.3521253999999998,3.0869999999999997,3.69,-1.808,-1
911,912,1582724994313,-0.08982468,-5.451251999999999,-0.28347838,2.847,3.8960000000000004,-0.701,-1
912,913,1582724994323,-1.703197,-5.300256299999999,4.325444,1.1059999999999999,4.093,4.112,-1
913,914,1582724994333,-2.7120104,-5.5471163,7.141369,0.006999999999999999,3.875,7.108,-1
914,915,1582724994343,-3.2899125,-5.53224,7.8123045,-0.629,3.906,7.91,-1
915,916,1582724994354,-2.7209847000000003,-4.788144,5.7140975,-0.201,4.684,6.028,-1
916,917,1582724994364,-1.7128709999999998,-4.2967143,2.3241136000000004,0.7709999999999999,5.187,2.569,-1
917,918,1582724994374,-1.1267539,-3.5715714,-0.69452995,1.334,5.92,-0.536,-1
918,919,1582724994385,-0.45732498,-3.0728765,-2.6806123,1.99,6.422999999999999,-2.5839999999999996,-1
919,920,1582724994395,0.03358245,-2.6842027,-2.1952205,2.476,6.813,-2.105,-1
920,921,1582724994405,-0.2513001,-2.4741707,0.40858346,2.184,7.024,0.565,-1
921,922,1582724994415,-0.6947645,-2.4389768,2.153609,1.729,7.06,2.4090000000000003,-1
922,923,1582724994426,-0.8762723,-2.0171142,3.4172566,1.5319999999999998,7.482,3.7880000000000003,-1
923,924,1582724994436,-0.33251595,-1.6306715,3.3962538,2.066,7.865,3.8960000000000004,-1
924,925,1582724994446,0.40830994,-1.122386,1.4215944999999999,2.818,8.368,1.966,-1
925,926,1582724994456,0.8555696,-0.800272,-0.6928519000000001,3.293,8.686,-0.203,-1
926,927,1582724994467,0.8138880999999999,-0.45079136,-1.6990318,3.3139999999999996,9.026,-1.367,-1
927,928,1582724994477,0.16274834,-0.5279093,-1.6180538999999998,2.6719999999999997,8.95,-1.41,-1
928,929,1582724994488,-0.42237353,-0.58989716,-0.71309286,2.062,8.895,-0.526,-1
929,930,1582724994497,-0.8491796,-0.538208,0.50590736,1.604,8.954,0.73,-1
930,931,1582724994507,-0.9846292999999999,-0.21179676,1.093842,1.422,9.29,1.401,-1
931,932,1582724994517,-0.6648538,0.0059366226,0.9926925999999999,1.6880000000000002,9.517000000000001,1.41,-1
932,933,1582724994528,-0.022679328999999998,0.38022327,0.1394215,2.325,9.891,0.591,-1
933,934,1582724994538,0.63742113,0.74816036,-0.77908623,3.005,10.255,-0.349,-1
934,935,1582724994548,1.1605326999999999,0.69968414,-1.0895786,3.551,10.202,-0.687,d
935,936,1582724994559,1.3799848999999997,0.8347129999999999,-0.7948606,3.786,10.334000000000001,-0.414,-1
936,937,1582724994569,0.8160045,0.97877216,-0.45826614,2.95,10.36,-0.04,-1
937,938,1582724994579,0.31507897,0.6866131,-0.47788358,2.696,10.193,-0.11699999999999999,-1
938,939,1582724994589,-0.45202434,0.7221575,-0.5306826,1.88,10.241,-0.179,-1
939,940,1582724994599,-0.49788678,0.43752956,-0.2937962,1.798,9.965,0.062,-1
940,941,1582724994609,-0.38144028,0.37673187,0.13598034,1.8869999999999998,9.91,0.512,-1
941,942,1582724994620,-0.21861863,0.5648116999999999,0.48274326,2.04,10.099,0.893,-1
942,943,1582724994630,0.23591566,0.77180195,0.5673651999999999,2.502,10.302999999999999,1.005,-1
943,944,1582724994640,0.6452985,1.0420713,0.5196787,2.926,10.569,0.9740000000000001,-1
944,945,1582724994650,1.1590084999999999,0.92133427,-0.2555002,3.458,10.444,0.196,-1
945,946,1582724994661,1.4323392,0.8520421999999999,-0.69960684,3.745,10.372,-0.261,-1
946,947,1582724994671,1.1591360000000002,0.69723606,-0.74172807,3.475,10.217,-0.316,-1
947,948,1582724994681,0.5551009,0.3405218,-0.08324006,2.864,9.862,0.342,-1
948,949,1582724994691,-0.21961284,-0.031845093,0.74063253,2.0540000000000003,9.496,1.2109999999999999,-1
949,950,1582724994702,-0.76659536,-0.28867912,1.0397588,1.4580000000000002,9.249,1.544,-1
950,951,1582724994712,-1.0879896999999998,-0.21383762,0.43856412,1.087,9.335,0.948,-1
951,952,1582724994722,-1.1177317,-0.3159666,-0.48906326,1.022,9.242,-0.002,-1
952,953,1582724994732,-0.9402081,-0.47721195,-0.8541752,1.18,9.086,-0.385,-1
953,954,1582724994743,-0.6797637,-0.5097666000000001,-0.64748627,1.432,9.055,-0.172,-1
954,955,1582724994753,-0.50815856,-0.72252655,0.22503775,1.604,8.84,0.742,-1
955,956,1582724994763,-0.39626908,-1.0787334,1.6202723999999997,1.714,8.48,2.21,-1
956,957,1582724994774,-0.63046026,-1.3988752,3.1727847999999996,1.47,8.155,3.867,-1
957,958,1582724994784,-1.5174686000000002,-1.7573613999999997,4.556312,0.541,7.792999999999999,5.407,-1
958,959,1582724994794,-2.4960923,-2.3071313,4.804139,-0.51,7.244,5.805,-1
959,960,1582724994804,-3.5895733999999995,-2.7871259999999998,4.303496,-1.662,6.77,5.36,-1
960,961,1582724994815,-4.2242165,-3.3767586000000005,3.1371813,-2.33,6.186,4.203,-1
961,962,1582724994825,-4.632136,-4.0533085,2.1080692,-2.747,5.51,3.185,-1
962,963,1582724994835,-4.8784504,-4.838676,2.7995949,-2.988,4.718,3.925,-1
963,964,1582724994845,-5.8041277000000004,-5.533011,4.499946,-4.394,3.6210000000000004,6.931,-1
964,965,1582724994856,-7.247183000000001,-6.54062,8.0187645,-5.462999999999999,2.972,9.599,-1
965,966,1582724994866,-7.4180946,-6.5665636,10.187225,-5.601,2.9189999999999996,11.888,-1
966,967,1582724994876,-6.4557199999999995,-6.632889,10.239774,-4.572,2.826,12.015,-1
967,968,1582724994886,-4.5927215,-6.260338,8.436099,-2.636,3.168,10.293,-1
968,969,1582724994897,-3.0649290000000002,-6.341501999999999,5.8466587,-1.1059999999999999,3.015,8.035,-1
969,970,1582724994907,-2.4864547000000004,-6.284665599999999,4.274582,-0.428,3.053,6.452000000000001,-1
970,971,1582724994917,-3.1348112,-6.1830273,3.6617336000000003,-0.9840000000000001,3.135,5.834,-1
971,972,1582724994927,-3.94611,-6.754098,4.2669277,-1.71,2.5380000000000003,6.4639999999999995,-1
972,973,1582724994937,-5.118499,-7.3206205,5.167528,-2.802,1.9369999999999998,7.426,-1
973,974,1582724994947,-5.8468275,-7.7624474,6.586823,-3.5610000000000004,1.4169999999999998,9.172,-1
974,975,1582724994958,-5.4949627,-7.925897999999999,7.1679955,-3.1510000000000002,1.178,9.96,-1
975,976,1582724994968,-2.8610675,-7.255571400000001,5.4490967,-0.395,1.7380000000000002,8.482999999999999,-1
976,977,1582724994978,-1.0147064000000001,-6.829135000000001,3.9751440000000002,1.5590000000000002,2.1430000000000002,6.983,-1
977,978,1582724994988,4.129133,-4.444713,-1.5315235,7.074,4.445,1.379,-1
978,979,1582724994998,6.5790796,-2.6076422000000004,-4.015716,9.898,6.167000000000001,-1.159,-1
979,980,1582724995008,6.892886999999999,-1.6240983,-3.7642492999999995,10.427,7.058,-0.883,-1
980,981,1582724995019,5.816063400000001,-1.739541,-1.7009938000000002,9.546,6.84,1.24,-1
981,982,1582724995029,5.2137127,-1.9789715,-1.2152565,9.048,6.545,1.7530000000000001,-1
982,983,1582724995039,4.827498,-2.1387110000000003,-1.8858080000000002,9.019,6.212000000000001,1.092,-1
983,984,1582724995049,6.649628599999999,-0.9576129999999999,-4.4525356,11.048,7.303999999999999,-1.525,-1
984,985,1582724995060,10.032568,-0.16687298,-7.8468227,14.630999999999998,8.001,-4.9639999999999995,-1
985,986,1582724995070,13.292728,1.1646795,-10.058133999999999,18.08,9.225,-7.18,-1
986,987,1582724995080,14.998937,1.9453343999999997,-10.703987,19.95,9.889,-7.779,-1
987,988,1582724995090,15.322393,2.4163241,-10.688207,20.405,10.245,-7.68,-1
988,989,1582724995100,15.306679,2.8111887,-10.305150999999999,20.494,10.533,-7.2010000000000005,-1
989,990,1582724995110,16.441682999999998,3.0407662,-10.97674,21.72,10.665,-7.7860000000000005,-1
990,991,1582724995121,18.018555,3.2927485,-12.553398,23.377,10.832,-9.295,-1
991,992,1582724995131,18.852013,3.6382957,-14.368359,24.275,11.107999999999999,-11.057,-1
992,993,1582724995141,18.357878,3.6888285000000005,-15.563776,23.825,11.105,-12.205,-1
993,994,1582724995151,16.638448999999998,3.3561834999999998,-15.815260999999998,22.127,10.732000000000001,-12.402999999999999,-1
994,995,1582724995161,14.702835,2.7265767999999997,-15.508522,20.194000000000003,10.068,-12.027000000000001,-1
995,996,1582724995172,13.319396,1.9069866999999998,-15.462489999999999,18.8,9.213,-11.890999999999998,-1
996,997,1582724995182,12.230013,0.9802704,-14.777557,17.694000000000003,8.246,-11.1,-1
997,998,1582724995192,11.771239999999999,0.08656788,-14.040713,17.22,7.307,-10.253,-1
998,999,1582724995202,11.1158695,-0.9831519000000001,-12.879764,16.555999999999997,6.191,-8.993,-1
999,1000,1582724995213,10.28727,-1.6253676000000001,-11.772397999999999,15.732000000000001,5.506,-7.814,-1
1000,1001,1582724995223,8.921492,-1.9296484,-11.352163000000001,14.386,5.166,-7.357,-1
1001,1002,1582724995233,6.415073400000001,-2.7191706,-10.598724,11.939,4.33,-6.603,-1
1002,1003,1582724995243,5.579786299999999,-2.9198136000000003,-10.361307,11.134,4.112,-6.377000000000001,-1
1003,1004,1582724995254,3.8683987,-3.5833538000000003,-9.227708999999999,9.572000000000001,3.372,-5.321000000000001,-1
1004,1005,1582724995264,3.7679725,-3.7997620000000003,-8.495745,9.551,3.115,-4.6339999999999995,-1
1005,1006,1582724995274,3.8171487,-3.8821197,-7.312769,9.881,2.8739999999999997,-3.6039999999999996,-1
1006,1007,1582724995285,4.3862760000000005,-3.7138612,-6.610182000000001,10.624,2.924,-2.977,-1
1007,1008,1582724995295,5.323925,-3.3238833,-5.843016,11.706,3.202,-2.258,-1
1008,1009,1582724995305,6.156581,-3.1320004,-4.9445233,12.669,3.2880000000000003,-1.403,-1
1009,1010,1582724995315,6.606382400000001,-2.86837,-3.9998796000000003,13.242,3.4530000000000003,-0.51,-1
1010,1011,1582724995325,6.5990868,-2.9167426,-3.1919367000000003,13.352,3.312,0.239,-1
1011,1012,1582724995336,6.1363754,-2.8346812999999997,-1.9243456,13.0,3.3,1.456,-1
1012,1013,1582724995346,5.4408,-2.7164620999999998,-0.36666012,12.405999999999999,3.3169999999999997,2.988,-1
1013,1014,1582724995356,5.287252,-2.6266347999999997,2.0631381999999996,12.343,3.3,5.419,-1
1014,1015,1582724995366,5.373857,-2.0933104,5.012894599999999,12.513,3.7289999999999996,8.375,-1
1015,1016,1582724995376,5.691266000000001,-1.2289691,7.088978,12.913,4.5,10.435,-1
1016,1017,1582724995387,5.7593190000000005,-0.6106949,8.157553,13.06,5.043,11.46,-1
1017,1018,1582724995397,5.663792,-0.24527979,8.633137,13.033,5.352,11.879000000000001,-1
1018,1019,1582724995407,5.478226,-0.115427494,9.410300999999999,12.899000000000001,5.439,12.612,-1
1019,1020,1582724995417,4.850156,-0.30357790000000007,11.0025625,12.302999999999999,5.216,14.19,-1
1020,1021,1582724995427,3.8489718,-0.27503777,13.032166,11.318,5.216,16.230999999999998,-1
1021,1022,1582724995438,3.510507,0.15132093,15.37405,10.99,5.621,18.585,-1
1022,1023,1582724995448,2.7071810000000003,0.60244846,17.860301999999997,10.197000000000001,6.064,21.061,-1
1023,1024,1582724995458,1.6086159,1.1635728,18.733432999999998,9.105,6.636,21.9,-1
1024,1025,1582724995468,0.84639406,1.4151878,18.332902999999998,8.339,6.912000000000001,21.465999999999998,-1
1025,1026,1582724995478,0.3280201,1.8614506999999998,17.674736,7.8020000000000005,7.388,20.8,-1
1026,1027,1582724995488,0.014853953999999999,2.402052,16.787556,7.455,7.961,19.936,-1
1027,1028,1582724995499,0.07570267,2.6651158,15.966007000000001,7.47,8.262,19.155,-1
1028,1029,1582724995509,-0.21805286,2.956615,15.808402,7.12,8.6,19.045,-1
1029,1030,1582724995519,-0.5429611,3.0252566,16.497591,6.73,8.725,19.782,-1
1030,1031,1582724995529,-1.1318754999999998,3.0857644,16.131868,6.068,8.856,19.454,-1
1031,1032,1582724995539,-1.6634803,3.055911,14.557419,5.457999999999999,8.911,17.9,-1
1032,1033,1582724995550,-1.7003913,3.0936828,12.48148,5.34,9.041,15.833,-1
1033,1034,1582724995560,-1.1142616,3.1248164000000003,10.960825,5.841,9.165,14.324000000000002,-1
1034,1035,1582724995570,-0.5094018,3.1306949,10.149947000000001,6.303,9.307,13.558,-1
1035,1036,1582724995580,-0.39620638,3.2717667,9.880083,6.313,9.541,13.323,-1
1036,1037,1582724995590,-0.10727215,3.3327150000000003,9.4399605,6.67,9.692,12.485,-1
1037,1038,1582724995601,0.13595676,3.1492758,7.597991,6.638,9.632,11.043,-1
1038,1039,1582724995611,0.038196087000000004,3.0912118,5.8309417,6.435,9.697000000000001,9.238999999999999,-1
1039,1040,1582724995621,0.6304445,3.0077834,4.394548,6.9239999999999995,9.735,7.757000000000001,-1
1040,1041,1582724995631,1.8348369999999998,3.4110332000000003,4.0024157,8.03,10.248,7.3260000000000005,-1
1041,1042,1582724995642,2.7185125,3.9863934999999997,4.2794056,8.866,10.873,7.5889999999999995,-1
1042,1043,1582724995651,4.7384567,4.251515,4.9411554,10.790999999999999,11.232000000000001,8.229,-1
1043,1044,1582724995661,6.292757,4.414735299999999,5.5107822,12.19,11.550999999999998,8.746,-1
1044,1045,1582724995671,6.369582,3.3956623,5.884137,12.149000000000001,10.657,9.052999999999999,-1
1045,1046,1582724995681,5.9697633,2.3131046000000004,5.0551558,11.62,9.716000000000001,8.128,-1
1046,1047,1582724995691,5.862279,1.9210324,4.445613,11.445,9.398,7.462000000000001,-1
1047,1048,1582724995701,6.187395599999999,0.8499317,3.0103153999999996,11.632,8.475,5.906000000000001,-1
1048,1049,1582724995711,6.1828456,0.1278472,1.8623953000000002,11.484000000000002,7.898,4.636,-1
1049,1050,1582724995721,5.528422,-0.2081151,1.3186707,10.372,7.357,3.832,-1
1050,1051,1582724995732,4.9155197,-1.0089731,1.2467532,9.915,7.031000000000001,3.803,-1
1051,1052,1582724995741,4.220484,-1.7368221000000001,1.0594108,9.081,6.417999999999999,3.5180000000000002,-1
1052,1053,1582724995751,3.759931,-2.6126666000000003,0.48275256,8.538,5.621,2.838,-1
1053,1054,1582724995761,3.2023492,-3.1849837000000005,-0.55953,8.078,5.034,1.642,-1
1054,1055,1582724995772,2.326755,-4.018959,-1.610986,7.079,4.311,0.43799999999999994,-1
1055,1056,1582724995782,1.6486029999999998,-4.7460154999999995,-2.70992,6.224,3.717,-0.809,-1
1056,1057,1582724995792,0.6805973000000001,-5.253821,-3.8639877,5.063,3.341,-2.105,-1
1057,1058,1582724995803,-0.57166076,-6.3578477,-5.00472,3.515,2.416,-3.427,-1
1058,1059,1582724995813,-0.8939178,-6.538164599999999,-5.2561235,3.096,2.289,-3.7289999999999996,-1
1059,1060,1582724995824,-2.0412436,-6.880952000000001,-5.6248336,1.669,2.088,-4.224,-1
1060,1061,1582724995834,-2.7073445,-6.9745502,-5.4113865,0.828,2.076,-4.085,-1
1061,1062,1582724995844,-3.5981980000000005,-7.146277,-5.329199299999999,-0.22699999999999998,1.9780000000000002,-4.083,-1
1062,1063,1582724995854,-4.3421845,-7.4146905,-5.8709383,-1.123,1.777,-4.7219999999999995,-1
1063,1064,1582724995864,-4.7445664,-7.700093300000001,-7.114942599999999,-1.666,1.554,-6.087999999999999,-1
1064,1065,1582724995875,-5.167614,-8.013833,-8.456336,-2.227,1.3019999999999998,-7.597,-1
1065,1066,1582724995885,-5.1385665000000005,-8.128263,-9.103396,-2.354,1.2570000000000001,-8.526,-1
1066,1067,1582724995895,-4.8615522,-8.384431,-8.806407,-2.222,1.056,-8.521,-1
1067,1068,1582724995905,-4.7088366,-8.380423,-7.4873033,-2.165,1.089,-7.316,-1
1068,1069,1582724995915,-5.037880400000001,-8.437880499999999,-6.422104,-2.565,1.051,-6.294,-1
1069,1070,1582724995925,-5.256115,-8.583022,-6.178186,-2.8139999999999996,0.914,-6.064,-1
1070,1071,1582724995935,-5.9247646,-8.962448,-5.634386,-3.542,0.55,-5.556,-1
1071,1072,1582724995945,-5.9776106,-9.256372,-6.022596,-3.65,0.27,-5.994,-1
1072,1073,1582724995955,-6.028407,-9.588689,-6.5574555,-3.7310000000000003,-0.055,-6.591,-1
1073,1074,1582724995965,-5.928821599999999,-9.677163,-7.092614,-3.657,-0.138,-7.209,-1
1074,1075,1582724995975,-6.0687169999999995,-9.831747,-6.7544537,-3.803,-0.292,-6.928,-1
1075,1076,1582724995986,-6.413875599999999,-10.059946,-5.8335557,-4.124,-0.526,-6.0089999999999995,-1
1076,1077,1582724995996,-6.5636779999999995,-10.133703,-5.325696,-4.251,-0.605,-5.486000000000001,-1
1077,1078,1582724996006,-6.804297999999999,-10.717112,-4.20809,-4.385,-1.214,-4.2989999999999995,-1
1078,1079,1582724996017,-6.8069916,-11.136773,-3.9045405,-4.289,-1.659,-3.949,-1
1079,1080,1582724996027,-6.121499,-11.46692,-4.314921400000001,-3.4789999999999996,-2.023,-4.315,-1
1080,1081,1582724996037,-5.507124,-11.574602,-4.23184,-2.715,-2.174,-4.176,-1
1081,1082,1582724996047,-5.6360497,-11.416982,-3.8574605,-2.675,-2.069,-3.7239999999999998,-1
1082,1083,1582724996058,-5.632869,-11.65116,-3.4830997000000004,-2.4859999999999998,-2.366,-3.252,-1
1083,1084,1582724996068,-5.5086355000000005,-11.910655,-3.0772963,-2.157,-2.701,-2.7319999999999998,-1
1084,1085,1582724996078,-5.7436676,-12.347858,-1.9273474,-2.169,-3.228,-1.4580000000000002,-1
1085,1086,1582724996088,-4.8244489999999995,-12.908086,-1.0259681,-1.003,-3.8960000000000004,-0.435,-1
1086,1087,1582724996098,-3.6852622000000004,-13.086803999999999,-0.36837563,0.40700000000000003,-4.203,0.34,-1
1087,1088,1582724996108,-2.7543217999999996,-12.658724000000001,0.27670676,1.6280000000000001,-3.925,1.1059999999999999,-1
1088,1089,1582724996119,-1.8884942999999998,-11.953298,0.6982923000000001,2.799,-3.3930000000000002,1.6569999999999998,-1
1089,1090,1582724996129,-1.5564761,-11.00431,0.32424796,3.446,-2.641,1.42,-1
1090,1091,1582724996139,-1.5593991000000003,-10.387461,-0.78482616,3.762,-2.244,0.455,-1
1091,1092,1582724996150,-1.2883924999999998,-10.305565,-1.5926018,4.3580000000000005,-2.411,-0.191,-1
1092,1093,1582724996160,-0.047437667999999995,-10.768547,-1.2759249,5.939,-3.1660000000000004,0.316,-1
1093,1094,1582724996170,1.7009444,-10.566727,0.6048800999999999,8.169,-3.432,2.457,-1
1094,1095,1582724996181,4.2812915,-9.423763000000001,3.3859718,11.182,-2.7939999999999996,5.53,-1
1095,1096,1582724996191,7.3488307,-7.499994999999999,5.878746,14.556,-1.286,8.248,-1
1096,1097,1582724996201,8.379717,-5.307996,6.9140186,15.859000000000002,0.493,9.479,-1
1097,1098,1582724996211,8.515707,-3.5844921999999997,5.923871,16.24,1.805,8.655,-1
1098,1099,1582724996221,8.069136,-2.4915795,3.121441,16.116,2.263,6.09,-1
1099,1100,1582724996231,7.944710000000001,-2.4996586,2.671739,16.087,2.033,5.726,-1
1100,1101,1582724996241,9.988737,-1.3517263000000002,3.7215437999999996,18.302,2.72,6.959,-1
1101,1102,1582724996251,12.932358,0.43920922,5.5157523,21.386999999999997,4.035,8.945,-1
1102,1103,1582724996262,14.747010999999999,2.2472939999999997,7.645962,23.313000000000002,5.374,11.254000000000001,-1
1103,1104,1582724996272,15.47601,3.5668693,8.688477,24.131999999999998,6.252999999999999,12.434000000000001,-1
1104,1105,1582724996282,15.330676,4.1084510000000005,7.820032,24.06,6.388999999999999,11.663,-1
1105,1106,1582724996292,14.233263,4.279539,7.3353470000000005,23.016,6.183,11.261,-1
1106,1107,1582724996303,11.617587,4.1222334,8.038998,20.436,5.494,12.104000000000001,-1
1107,1108,1582724996313,10.043305,4.4600945,9.414589,18.86,5.494,13.582,-1
1108,1109,1582724996323,10.123117,5.4397717000000005,10.695158000000001,18.927,6.152,14.956,-1
1109,1110,1582724996333,11.4587755,6.3707485,9.46866,20.245,6.792000000000001,13.804,-1
1110,1111,1582724996343,11.626911999999999,7.300382000000001,7.078278,20.395,7.474,11.467,-1
1111,1112,1582724996353,11.223563,7.744671,4.897867,19.976,7.711,9.321,-1
1112,1113,1582724996363,10.677631,7.8230495,3.2699714,19.416,7.6129999999999995,7.716,-1
1113,1114,1582724996373,9.60484,7.645383,2.0549082999999997,18.329,7.2829999999999995,6.519,-1
1114,1115,1582724996383,8.580693,7.1176476,1.5961303999999998,17.289,6.619,6.077999999999999,-1
1115,1116,1582724996394,7.941903999999999,7.0076656,2.4968310000000002,16.631,6.382000000000001,7.0,-1
1116,1117,1582724996404,7.4902515,6.594701299999999,3.5819563999999997,16.159000000000002,5.855,8.107000000000001,-1
1117,1118,1582724996414,7.137987,6.544601999999999,4.145757700000001,15.634,5.544,8.927999999999999,-1
1118,1119,1582724996424,6.6138477,6.2233124,4.2439733,15.255999999999998,5.35,8.796,-1
1119,1120,1582724996435,5.475239,6.030286,3.9454565,14.097000000000001,5.072,8.519,-1
1120,1121,1582724996445,5.241214,5.875908,3.8715696000000004,13.857000000000001,4.897,8.452,-1
1121,1122,1582724996455,4.759042,5.5693207000000005,3.2366862000000003,13.359000000000002,4.55,7.837999999999999,-1
1122,1123,1582724996465,4.698596,5.1888323,2.9719830000000003,13.289000000000001,4.16,7.5889999999999995,-1
1123,1124,1582724996476,4.3662167,5.088302,2.865055,12.952,4.061,7.4910000000000005,-1
1124,1125,1582724996486,3.1692305,4.5645094,1.8074331000000001,11.747,3.573,6.456,-1
1125,1126,1582724996496,2.5142612,4.3670874,1.1241541000000002,11.093,3.424,5.781000000000001,-1
1126,1127,1582724996507,1.8442744999999998,3.9399745000000004,0.79758406,10.427,3.063,5.46,-1
1127,1128,1582724996517,1.7682734,3.7303187999999996,0.43503714,10.356,2.924,5.101,-1
1128,1129,1582724996527,2.0205278,3.6133339999999996,0.7001170999999999,10.612,2.866,5.369,-1
1129,1130,1582724996538,2.2246075000000003,3.4162449999999995,1.1730528,10.818,2.718,5.846,-1
1130,1131,1582724996548,1.8068008000000002,2.8030849,1.3692966,10.2,2.102,5.917999999999999,-1
1131,1132,1582724996558,1.5580463,2.2824621,0.84413815,10.164,1.743,5.515,-1
1132,1133,1582724996569,1.5511416999999998,2.1429262000000002,0.7492571,10.164,1.6740000000000002,5.415,-1
1133,1134,1582724996579,1.2230729999999999,1.9446392,0.9217677,9.836,1.547,5.593999999999999,-1
1134,1135,1582724996589,1.0871038,1.8536970000000002,0.8687949,9.699,1.494,5.546,-1
1135,1136,1582724996599,0.79285717,1.8488650000000002,0.28173304,9.405,1.626,4.967,-1
1136,1137,1582724996610,0.8349905000000001,1.7959669999999999,-0.36436892,9.46,1.6780000000000002,4.301,-1
1137,1138,1582724996620,0.65748405,1.5760243,-0.6568916,9.304,1.5730000000000002,3.97,d
1138,1139,1582724996630,0.64965916,1.3371453000000002,-0.22197199,9.309,1.4269999999999998,4.38,-1
1139,1140,1582724996640,0.8210907,1.1793318000000002,0.58679676,9.479,1.3259999999999998,5.19,-1
1140,1141,1582724996650,1.4565896999999999,0.99413455,1.0386372,10.111,1.18,5.647,-1
1141,1142,1582724996661,1.5551805,0.8421597,1.560565,10.205,1.063,6.176,-1
1142,1143,1582724996671,1.1251459,0.8035966,2.0601830000000003,9.764,1.065,6.694,-1
1143,1144,1582724996681,0.63540554,0.7800614,2.2820735,9.256,1.087,6.947,-1
1144,1145,1582724996691,0.6778803000000001,0.8770062,2.3587408,9.277999999999999,1.2309999999999999,7.058,-1
1145,1146,1582724996702,1.0630751,1.0581207000000001,1.9403099999999998,9.647,1.463,6.665,-1
1146,1147,1582724996712,1.3733015,1.0940163,1.2949953,9.946,1.554,6.035,-1
1147,1148,1582724996722,1.4110336,1.1716615,0.73339987,9.977,1.695,5.479,-1
1148,1149,1582724996733,1.8227282,1.2225122,0.7044344,10.384,1.81,5.4510000000000005,-1
1149,1150,1582724996743,1.8992480999999999,1.1902903,0.9689288,10.454,1.841,5.718999999999999,-1
1150,1151,1582724996753,1.7172909,1.2247177,1.8811584,10.26,1.944,6.643,-1
1151,1152,1582724996763,2.4910069,1.4226258,2.2078452,11.024000000000001,2.2119999999999997,6.976,-1
1152,1153,1582724996774,2.8274603,1.6629293,1.9399810000000002,11.354000000000001,2.531,6.706,-1
1153,1154,1582724996784,3.1037703,1.8527924999999998,1.9374113000000002,11.62,2.804,6.706,-1
1154,1155,1582724996794,3.2884693,1.9289379,2.3153585999999997,11.783,2.96,7.106,-1
1155,1156,1582724996804,3.2554798,2.1233377,3.017736,11.714,3.23,7.855,-1
1156,1157,1582724996814,3.6777773000000002,3.0440829,4.902683000000001,12.058,4.255,9.85,-1
1157,1158,1582724996825,5.19316,3.7819385999999997,5.6609607,13.515,5.065,10.687999999999999,-1
1158,1159,1582724996835,6.631778,4.4805145,5.6944356,14.899000000000001,5.855,10.787,-1
1159,1160,1582724996845,7.7349052,4.976282599999999,4.9249926,15.953,6.471,10.062999999999999,-1
1160,1161,1582724996855,8.110365,5.105804,4.793233,16.305,6.67,9.948,-1
1161,1162,1582724996865,8.5398245,5.0031,5.297905999999999,16.666,6.806,10.482999999999999,-1
1162,1163,1582724996876,8.329477,5.1483555,6.0152116,16.408,7.1339999999999995,11.208,-1
1163,1164,1582724996886,8.497985,5.1526785,5.745277400000001,16.523,7.34,10.94,-1
1164,1165,1582724996896,8.440016,4.9081445,5.33036,16.403,7.316,10.523,-1
1165,1166,1582724996906,8.753046000000001,4.613442,5.2136335,16.647000000000002,7.2589999999999995,10.395999999999999,-1
1166,1167,1582724996917,8.791572,4.1615150000000005,4.9927993,16.611,7.065,10.15,-1
1167,1168,1582724996927,8.357363000000001,3.7031332999999997,4.605766,16.099,6.888,9.714,-1
1168,1169,1582724996937,7.715061,2.9161284,4.0815825,15.376,6.404,9.113,-1
1169,1170,1582724996947,7.318915400000001,2.1762457000000004,3.3040184999999997,14.894,5.982,8.234,-1
1170,1171,1582724996957,6.7895966,1.6205287,2.7076402,14.270999999999999,5.752000000000001,7.517,-1
1171,1172,1582724996967,6.2346525,0.8217244,1.7870192999999999,13.613,5.2829999999999995,6.459,-1
1172,1173,1582724996978,5.517569,0.10752201,1.4190159,12.784,4.897,5.939,-1
1173,1174,1582724996988,4.5563245000000006,-0.5872574,1.2934823,11.704,4.526,5.645,-1
1174,1175,1582724996998,3.6464796,-1.1116085,1.2379408,10.672,4.315,5.405,-1
1175,1176,1582724997008,2.7423267000000005,-1.8102057,1.391438,9.644,3.911,5.367000000000001,-1
1176,1177,1582724997018,1.7568202000000002,-2.3763359,1.3622112,8.543,3.602,5.154,-1
1177,1178,1582724997029,1.1149812,-3.0186408,1.0489306,7.848,3.108,4.696000000000001,-1
1178,1179,1582724997039,0.6157984999999999,-3.460631,0.5570488,7.237,2.9019999999999997,3.9989999999999997,-1
1179,1180,1582724997049,0.036004066,-3.5041585,-0.08339453,6.502000000000001,3.139,3.115,-1
1180,1181,1582724997059,-0.83157253,-3.2364167999999998,-0.43353820000000004,5.457999999999999,3.685,2.517,-1
1181,1182,1582724997070,-1.3735065,-3.1070580000000003,-0.06853938,4.727,4.0760000000000005,2.6439999999999997,-1
1182,1183,1582724997080,-1.9101907999999999,-3.2042336,1.0921371000000002,3.99,4.224,3.5780000000000003,-1
1183,1184,1582724997090,-2.5515765999999998,-3.5285629999999997,1.4872978000000001,3.139,4.133,3.7430000000000003,-1
1184,1185,1582724997100,-2.81872,-3.4721822999999996,0.43963218,2.66,4.4110000000000005,2.4419999999999997,-1
1185,1186,1582724997110,-2.266568,-3.6310873,-1.7186924,3.003,4.457,0.009000000000000001,-1
1186,1187,1582724997120,-1.5629392,-3.6729932,-3.4887652,3.4989999999999997,4.6,-2.0380000000000003,-1
1187,1188,1582724997130,-1.5284169,-3.3313565,-4.7441583,3.319,5.11,-3.554,-1
1188,1189,1582724997140,-2.1243717999999996,-3.7556324,-4.6372623,2.498,4.837,-3.6519999999999997,-1
1189,1190,1582724997150,-3.2516637000000004,-4.24333,-2.8252356,1.14,4.4830000000000005,-1.9680000000000002,-1
1190,1191,1582724997161,-4.3843575,-4.46778,-1.0412343000000002,-0.217,4.375,-0.261,-1
1191,1192,1582724997171,-4.9946294,-4.877819000000001,0.5855964,-1.034,4.064,1.3119999999999998,-1
1192,1193,1582724997181,-4.8589134000000005,-5.087934,1.0020661,-1.077,3.935,1.676,-1
1193,1194,1582724997191,-3.6255617,-4.714713,0.25957274,0.009000000000000001,4.373,0.871,-1
1194,1195,1582724997201,-1.2172909,-4.557367,-1.0463970999999999,2.299,4.581,-0.502,-1
1195,1196,1582724997212,0.19109726,-4.270430999999999,-1.7324328000000002,3.5989999999999998,4.912,-1.2429999999999999,-1
1196,1197,1582724997222,0.043347597,-5.008587,-0.9230299999999999,3.2689999999999997,4.2410000000000005,-0.46399999999999997,-1
1197,1198,1582724997232,-1.1543415000000001,-5.562361699999999,0.5621596999999999,1.935,3.733,1.034,-1
1198,1199,1582724997242,-2.5738957,-6.145815,1.9518307000000001,0.376,3.194,2.438,-1
1199,1200,1582724997253,-3.2927551,-6.5274285999999995,2.1884775000000003,-0.409,2.833,2.675,-1
1200,1201,1582724997263,-4.0991383,-6.7401276,1.8073288,-1.271,2.687,1.599,-1
1201,1202,1582724997273,-2.9706817,-6.457082,-0.13658774,-0.316,2.9739999999999998,0.285,-1
1202,1203,1582724997283,-1.1377304,-6.1289253,-0.9588878000000001,1.4769999999999999,3.3139999999999996,-0.5529999999999999,-1
1203,1204,1582724997293,0.2859676,-5.3090405,-1.1806146,2.8760000000000003,4.14,-0.759,-1
1204,1205,1582724997304,0.5726836,-4.9903207,-0.80780447,3.1510000000000002,4.461,-0.366,-1
1205,1206,1582724997314,-0.08122015,-4.806502,2.0363404999999997,2.4419999999999997,4.655,2.569,-1
1206,1207,1582724997324,-0.98170805,-4.694818499999999,3.5155377,1.4869999999999999,4.7780000000000005,4.1,-1
1207,1208,1582724997334,-2.1214097,-4.873229,3.2327569,0.285,4.615,3.827,-1
1208,1209,1582724997344,-2.6546748,-4.6762122999999995,1.798022,-0.304,4.828,2.359,-1
1209,1210,1582724997355,-2.4151785,-4.5772443,-0.3680603,-0.098,4.938,0.14300000000000002,-1
1210,1211,1582724997365,-1.64065,-3.8387379999999998,-2.2702537,0.67,5.68,-1.796,-1
1211,1212,1582724997375,-0.9401814000000001,-2.9518603999999997,-3.0308275,1.3840000000000001,6.564,-2.565,-1
1212,1213,1582724997385,-0.6193048000000001,-1.8885688999999999,-0.91401774,1.726,7.62,-0.40700000000000003,-1
1213,1214,1582724997396,-0.40927505,-1.6208067,2.278995,1.954,7.877000000000001,2.8930000000000002,-1
1214,1215,1582724997406,-0.22818732,-1.2754611999999999,3.8486483,2.141,8.183,4.895,-1
1215,1216,1582724997416,0.16987967,-1.3700571000000001,3.0486379,2.5669999999999997,8.03,4.485,-1
1216,1217,1582724997426,-0.006325245,-1.5171103000000001,0.18432915,2.397,7.886,1.59,-1
1217,1218,1582724997436,-0.26982403,-1.2248354,-2.6902044,2.129,8.195,-1.393,-1
1218,1219,1582724997447,-0.7941680999999999,-0.7152109,-3.5573678,1.587,8.729,-2.414,-1
1219,1220,1582724997457,-1.3715327,-0.124593735,-3.2904193,0.922,9.371,-2.428,-1
1220,1221,1582724997467,-1.4197786000000001,0.37091064,-1.4250283000000001,0.7559999999999999,9.908,-0.732,-1
1221,1222,1582724997477,-1.19421,0.15034294,0.30873305,0.862,9.711,1.041,-1
1222,1223,1582724997488,-0.5163479000000001,0.31397343,0.74386847,1.506,9.877,1.537,-1
1223,1224,1582724997498,0.7529316,0.56181145,0.5702568,2.804,10.118,1.3719999999999999,-1
1224,1225,1582724997508,2.063684,1.1385231000000002,0.038623273,4.155,10.687999999999999,0.816,-1
1225,1226,1582724997518,2.7992307999999997,1.8119144,-1.224766,4.916,11.359000000000002,-0.488,-1
1226,1227,1582724997528,2.8554487,2.0226202,-2.61501,4.976,11.572000000000001,-1.92,-1
1227,1228,1582724997539,2.068889,1.9348955,-3.0439252999999997,4.169,11.491,-2.38,-1
1228,1229,1582724997549,0.7086760999999999,1.3305844999999998,-2.632886,2.7680000000000002,10.897,-1.99,-1
1229,1230,1582724997559,-0.6057600000000001,0.87033176,-1.2181375,1.389,10.450999999999999,-0.584,d
1230,1231,1582724997570,-1.3677034,0.7535639000000001,0.95258147,0.5,10.356,1.642,-1
1231,1232,1582724997580,-0.8188852,0.9100313,1.3494408000000002,1.005,10.517999999999999,2.0780000000000003,-1
1232,1233,1582724997590,-0.014190078,0.97539806,0.98993343,1.796,10.585,1.7309999999999999,-1
1233,1234,1582724997600,0.7559624,0.97753716,-0.21511167,2.572,10.588,0.5,-1
1234,1235,1582724997611,1.0842032,1.0733451999999999,-1.2338226,2.907,10.686,-0.5670000000000001,-1
1235,1236,1582724997621,0.89702165,0.99071217,-1.2743531000000001,2.72,10.605,-0.632,-1
1236,1237,1582724997631,0.5259311,1.068286,-0.9419074000000001,2.3369999999999997,10.687999999999999,-0.349,-1
1237,1238,1582724997641,0.5693151,0.9825573000000001,-0.29032165,2.3680000000000003,10.605,0.29600000000000004,-1
1238,1239,1582724997651,0.83494854,1.0597428999999998,0.06395823,2.622,10.684000000000001,0.6559999999999999,-1
1239,1240,1582724997661,0.96123374,0.971776,0.24773091,2.742,10.597000000000001,0.843,-1
1240,1241,1582724997671,0.6724502,0.8659629999999999,-0.12685573,2.423,10.497,0.46399999999999997,-1
1241,1242,1582724997681,0.5935348000000001,0.7430277,-0.5785575,2.332,10.377,0.0,-1
1242,1243,1582724997691,0.36977184,0.45134926,-0.97236586,2.083,10.092,-0.431,-1
1243,1244,1582724997702,0.07325375,0.23729134,-1.075525,1.755,9.886000000000001,-0.581,-1
1244,1245,1582724997712,-0.20245862,-0.05573654,-0.16065869,1.4169999999999998,9.606,0.285,-1
1245,1246,1582724997722,0.013468385,-0.33213709999999996,0.58621705,1.6019999999999999,9.333,1.068,-1
1246,1247,1582724997732,0.25107205,-0.50968266,0.64453644,1.8130000000000002,9.158,1.161,-1
1247,1248,1582724997742,0.36898065,-0.7861328000000001,0.7491395000000001,1.901,8.885,1.29,-1
1248,1249,1582724997753,-0.14968693,-1.0486479,0.7269384,0.866,8.375,1.214,-1
1249,1250,1582724997763,-1.9459896,-2.0478596999999996,0.5455345,-0.536,7.64,1.1179999999999999,-1
1250,1251,1582724997773,-3.0155091,-2.6402354,1.31376,-1.671,7.055,1.9180000000000001,-1
1251,1252,1582724997783,-3.3997836,-3.1637616000000004,1.9917681,-2.11,6.5360000000000005,2.641,-1
1252,1253,1582724997793,-3.6558017999999994,-3.5779681000000005,2.9930816000000005,-2.411,6.124,3.695,-1
1253,1254,1582724997803,-3.8972564,-4.335829299999999,3.5869522000000003,-2.6889999999999996,5.367000000000001,4.3389999999999995,-1
1254,1255,1582724997813,-4.48524,-5.186548,3.5705066,-3.3089999999999997,4.5169999999999995,4.363,-1
1255,1256,1582724997823,-5.8356915,-6.3947325,3.5107536,-4.691,3.3089999999999997,4.346,-1
1256,1257,1582724997833,-6.980537400000001,-7.591696000000001,4.1837800000000005,-5.874,2.11,5.091,-1
1257,1258,1582724997843,-7.209156,-8.509165,5.64639,-6.191,1.185,6.722,-1
1258,1259,1582724997854,-7.3921356,-9.215688,7.248314,-6.526,0.455,8.626,-1
1259,1260,1582724997864,-7.3060303,-9.145007000000001,8.7619095,-6.412999999999999,0.505,10.262,-1
1260,1261,1582724997874,-6.9021463,-9.120141,9.625155,-5.932,0.51,11.203,-1
1261,1262,1582724997884,-5.977214,-9.322089,9.329443,-4.909,0.287,10.970999999999998,-1
1262,1263,1582724997894,-5.342792500000001,-9.312571,7.8691273,-4.196000000000001,0.265,9.637,-1
1263,1264,1582724997905,-4.3588834,-9.554427,5.6466045,-3.113,-0.006999999999999999,7.507999999999999,-1
1264,1265,1582724997915,-2.762579,-8.876596000000001,3.9850974000000003,-1.338,0.6579999999999999,5.7829999999999995,-1
1265,1266,1582724997925,-2.1271324000000003,-8.418806,3.2171721,-0.605,1.1079999999999999,4.976,-1
1266,1267,1582724997935,-0.42122865,-7.1934853,0.6428803000000001,1.41,2.299,2.289,-1
1267,1268,1582724997946,0.45178820000000003,-6.179291,0.7952846,2.498,3.278,2.39,-1
1268,1269,1582724997956,0.81017303,-5.546647,2.0478659,3.077,3.865,3.614,-1
1269,1270,1582724997966,0.86984515,-5.1539993,2.5586715,3.365,4.203,4.105,-1
1270,1271,1582724997976,1.0315678,-4.183356,1.8934147000000001,3.767,5.11,3.417,-1
1271,1272,1582724997987,2.4411452000000002,-3.5120692000000004,-0.77203125,5.446000000000001,5.704,0.713,-1
1272,1273,1582724997996,4.6431494,-2.1547627,-3.5895742999999993,8.02,6.945,-2.189,-1
1273,1274,1582724998006,7.493359,-0.30423832,-5.466648,11.175,8.681000000000001,-4.095,-1
1274,1275,1582724998016,10.063332,1.1017294,-5.1039143,14.025,9.965,-3.719,-1
1275,1276,1582724998026,11.1267,2.3724107999999995,-4.397067,15.337,11.115,-2.9789999999999996,-1
1276,1277,1582724998037,10.924083,3.601654,-3.7889199999999996,15.347000000000001,12.232999999999999,-2.3369999999999997,-1
1277,1278,1582724998047,11.064671,4.6552525000000005,-5.374025,15.675,13.184000000000001,-3.8989999999999996,-1
1278,1279,1582724998057,12.733041,6.0170164,-8.14703,17.519000000000002,14.446,-6.6579999999999995,-1
1279,1280,1582724998067,15.304666500000002,7.3557167,-10.674731,20.254,15.687000000000001,-9.17,-1
1280,1281,1582724998078,16.718779,8.069902,-11.75271,21.805999999999997,16.312,-10.217,-1
1281,1282,1582724998088,16.209309,8.511593,-10.606152,21.397,16.680999999999997,-9.019,-1
1282,1283,1582724998098,15.084131,8.536507,-8.545008000000001,20.338,16.652,-6.9,-1
1283,1284,1582724998108,14.595895,8.492208999999999,-8.4044895,19.893,16.570999999999998,-6.718,-1
1284,1285,1582724998119,15.355046,8.419478999999999,-9.701478999999999,20.68,16.477,-8.001,-1
1285,1286,1582724998129,16.168125,8.374285,-12.130975,21.504,16.427,-10.442,-1
1286,1287,1582724998139,15.545523000000001,7.9132633000000006,-14.037175,20.866999999999997,15.979000000000001,-12.365,-1
1287,1288,1582724998149,14.238922,7.077983000000001,-14.330754999999998,19.519000000000002,15.172,-12.664000000000001,-1
1288,1289,1582724998160,12.872988000000001,6.0004644,-13.414694,18.090999999999998,14.133,-11.74,-1
1289,1290,1582724998170,11.563896000000002,4.5694256,-11.981306,16.705,12.748,-10.293,-1
1290,1291,1582724998180,10.188295,2.4984045,-10.293393,15.194,10.755999999999998,-8.583,-1
1291,1292,1582724998190,9.5382595,1.7847490000000001,-9.965278999999999,14.494000000000002,10.071,-8.248,-1
1292,1293,1582724998201,8.082711999999999,0.42282390000000003,-9.015348,12.935,8.767999999999999,-7.287999999999999,-1
1293,1294,1582724998211,6.066400499999999,-1.3136792,-6.853718300000001,10.775,7.117000000000001,-5.144,-1
1294,1295,1582724998221,5.346880400000001,-1.7193952000000001,-6.06736,10.017999999999999,6.737,-4.382,-1
1295,1296,1582724998231,4.0684447,-2.8298612000000003,-5.075529599999999,8.693,5.683,-3.554,-1
1296,1297,1582724998242,2.911561,-3.5521312000000007,-5.701506,7.6160000000000005,4.9639999999999995,-4.471,-1
1297,1298,1582724998252,2.4594507,-3.8157977999999995,-5.407824,7.266,4.675,-4.421,-1
1298,1299,1582724998262,2.4650435,-4.4345264,-4.4264529999999995,7.345,4.0489999999999995,-3.805,-1
1299,1300,1582724998272,2.493145,-4.94083,-3.2456465,7.355,3.5610000000000004,-2.7439999999999998,-1
1300,1301,1582724998283,2.2414656,-5.429082,-1.8410918,7.047999999999999,3.108,-1.41,-1
1301,1302,1582724998293,1.4403496,-5.890629,-0.77213025,6.167000000000001,2.694,-0.40700000000000003,-1
1302,1303,1582724998303,0.9389671999999999,-6.1814322,-0.42650816,5.622999999999999,2.428,-0.098,-1
1303,1304,1582724998314,-0.25888062,-6.621567,-0.28622709999999996,4.303,2.057,-0.081,-1
1304,1305,1582724998324,-0.20204878,-6.758681299999999,-0.34893507,4.325,1.939,-0.18600000000000003,-1
1305,1306,1582724998334,0.28676890000000005,-6.937081,-0.2503449,4.734,1.8030000000000002,-0.191,-1
1306,1307,1582724998344,0.6395029999999999,-7.3023496,0.37723133,5.051,1.456,0.397,-1
1307,1308,1582724998354,0.63947487,-7.4799050000000005,1.4971886,5.022,1.2930000000000001,1.494,-1
1308,1309,1582724998365,0.20385551,-7.9160285,2.9415457000000003,4.562,0.8690000000000001,2.926,-1
1309,1310,1582724998375,-0.79590964,-8.174038000000001,4.3347197,3.5439999999999996,0.62,4.313,-1
1310,1311,1582724998385,-1.9312513,-8.257791000000001,5.1061015,2.399,0.541,5.082,-1
1311,1312,1582724998395,-2.9104607000000002,-8.48825,6.019414,1.425,0.308,6.006,-1
1312,1313,1582724998405,-3.2302003,-8.517992,7.147725599999999,1.1320000000000001,0.265,7.172999999999999,-1
1313,1314,1582724998415,-2.9192424,-8.395106,8.066892,1.499,0.359,8.19,-1
1314,1315,1582724998426,-2.7540077999999997,-8.359815,9.135267,1.791,0.306,9.781,-1
1315,1316,1582724998436,-4.4075894,-7.5885563,10.832671000000001,0.285,0.965,11.825999999999999,-1
1316,1317,1582724998446,-5.249199,-7.642833,12.31852,-0.447,0.838,13.407,-1
1317,1318,1582724998456,-5.69269,-7.524383500000001,12.563769,-0.831,0.917,13.694,-1
