,Seq,Time,ACCx,ACCy,ACCz,ADGx,ADGy,ADGz,Keydown
0,1,1582725150836,1.9796118999999999,0.25662065,-1.0645341999999998,8.806000000000001,1.6980000000000002,5.827000000000001,-1
1,2,1582725150847,1.9796118999999999,0.25662065,-1.0645341999999998,0.285,9.637,1.456,-1
2,3,1582725150857,-0.12588516,-0.22109795,0.45257592,0.349,9.323,2.656,-1
3,4,1582725150867,-0.5021589,-0.31032276,1.3560176000000002,-0.038,9.23,3.5780000000000003,-1
4,5,1582725150877,-0.6756276,-0.72942257,2.3784359,-0.222,8.808,4.615,-1
5,6,1582725150887,-0.80588484,-0.76926994,2.9030335,-0.361,8.767999999999999,5.142,-1
6,7,1582725150897,-1.0374731,-0.721117,2.246427,-0.603,8.82,4.471,-1
7,8,1582725150908,-0.9368969000000001,-0.7823906,1.1046786,-0.517,8.765,3.305,-1
8,9,1582725150918,-1.2683578000000002,-0.97591496,0.7441845,-1.183,8.382,2.95,-1
9,10,1582725150928,-1.8316554,-1.4119015,0.9637594,-1.465,8.14,3.154,-1
10,11,1582725150938,-2.6179626,-2.113346,1.5583661,-2.287,7.434,3.7739999999999996,-1
11,12,1582725150948,-3.7494342000000005,-2.8928776000000003,2.6089877999999995,-3.4560000000000004,6.646,4.8660000000000005,-1
12,13,1582725150958,-4.911558,-4.2814239999999995,4.9636154,-4.667,5.237,7.311,-1
13,14,1582725150969,-5.22813,-4.545336,5.449617400000001,-4.988,4.967,7.822,-1
14,15,1582725150979,-5.0208783,-5.061991,6.297327,-4.754,4.44,8.708,-1
15,16,1582725150989,-4.51826,-5.3573900000000005,5.8373218,-4.215,4.143,8.25,-1
16,17,1582725150999,-4.4765882,-5.850330400000001,4.619358,-4.126,3.654,7.01,-1
17,18,1582725151009,-4.290026999999999,-6.579682000000001,3.4319441,-3.877,2.9330000000000003,5.779,-1
18,19,1582725151020,-4.4085956,-7.0144577,2.9786856,-3.9610000000000003,2.502,5.303999999999999,-1
19,20,1582725151030,-4.199586,-8.290157,2.4474297000000003,-3.63,1.2329999999999999,4.718,-1
20,21,1582725151040,-3.8541565,-9.047875,2.0078197,-3.185,0.47600000000000003,4.248,-1
21,22,1582725151050,-3.5903354,-9.83958,1.1305969,-2.806,-0.318,3.343,-1
22,23,1582725151060,-3.3654838,-10.515885,0.34227967,-2.45,-1.001,2.533,-1
23,24,1582725151070,-3.274184,-10.795297999999999,0.012166261999999999,-2.287,-1.286,2.1959999999999997,-1
24,25,1582725151081,-3.2923989999999996,-11.561584,-0.48718333,-2.062,-2.081,1.6980000000000002,-1
25,26,1582725151090,-2.8386497000000004,-12.050232000000001,-0.38048267,-1.42,-2.6,1.8219999999999998,-1
26,27,1582725151100,-2.6481485,-12.030713,0.13287592,-1.022,-2.62,2.3609999999999998,-1
27,28,1582725151110,-2.2383137000000004,-12.222274,0.5274960999999999,-0.385,-2.859,2.778,-1
28,29,1582725151120,-2.0225263,-12.272789999999999,0.30344296,-0.047,-2.9360000000000004,2.56,-1
29,30,1582725151130,-0.8142805999999999,-12.400619,-1.4946604,1.561,-3.156,0.7559999999999999,-1
30,31,1582725151140,0.3563373,-12.682482,-3.9169663999999997,3.022,-3.515,-1.676,-1
31,32,1582725151150,2.462766,-12.445021,-6.096628,5.439,-3.3760000000000003,-3.846,-1
32,33,1582725151160,5.562645,-11.664122,-7.580342999999999,8.892000000000001,-2.727,-5.297000000000001,-1
33,34,1582725151170,6.401264,-11.114067,-7.825489999999999,9.896,-2.251,-5.501,-1
34,35,1582725151181,6.0290117,-9.461997,-6.797472999999999,9.994,-0.857,-4.2669999999999995,-1
35,36,1582725151191,4.57228,-8.620673,-4.718051,8.885,-0.237,-2.019,-1
36,37,1582725151201,4.221936,-8.413416,-3.0400584,8.83,-0.261,-0.129,-1
37,38,1582725151211,5.506278,-7.896520599999999,-2.8511176,10.454,-0.021,0.258,-1
38,39,1582725151221,7.8661156000000005,-6.633236,-4.4781949999999995,13.11,0.9690000000000001,-1.18,-1
39,40,1582725151231,9.882577000000001,-4.7662059999999995,-7.0241003,15.402000000000001,2.548,-3.53,-1
40,41,1582725151241,13.806519,-2.791369,-9.062489,19.581,4.208,-5.343,-1
41,42,1582725151252,17.702309,-1.3184185,-10.167748,23.701,5.337999999999999,-6.183,-1
42,43,1582725151262,18.69069,-0.45076179999999993,-9.593323,24.86,5.853,-5.307,-1
43,44,1582725151272,16.735770000000002,0.09893465,-7.451397999999999,23.018,6.0520000000000005,-2.84,-1
44,45,1582725151282,14.370464000000002,0.243752,-4.7101489999999995,20.730999999999998,5.848,0.22,-1
45,46,1582725151292,13.369910999999998,1.2401662,-1.9323354,19.809,6.492000000000001,3.2760000000000002,-1
46,47,1582725151302,14.340012,2.8479452000000003,0.062402725,20.881999999999998,7.747000000000001,5.482,-1
47,48,1582725151313,16.371225,3.9447160000000006,0.45605612,23.044,8.504,6.011,-1
48,49,1582725151323,18.956856,5.161803,-1.485465,25.765,9.405,4.155,-1
49,50,1582725151333,21.313579999999998,6.321531299999999,-3.963779,28.23,10.272,1.757,-1
50,51,1582725151343,22.025091,7.010257000000001,-4.9840837,29.015,10.684000000000001,0.831,-1
51,52,1582725151353,21.67501,7.018503,-4.5637197,28.694000000000003,10.557,1.3,-1
52,53,1582725151363,20.871674,6.924063,0.26979637,27.976,10.061,6.257999999999999,-1
53,54,1582725151374,20.117762,7.610711,4.012054,27.288,10.494000000000002,10.049,-1
54,55,1582725151384,19.752363,8.244988000000001,7.287615299999999,27.000999999999998,10.905999999999999,13.333,-1
55,56,1582725151394,19.718557,8.715836,9.354927,27.061,11.203,15.360999999999999,-1
56,57,1582725151404,19.198103,9.128974000000001,9.849866,26.644000000000002,11.505,15.773,-1
57,58,1582725151414,18.671715,9.154917999999999,9.425783000000001,26.226999999999997,11.485999999999999,15.227,-1
58,59,1582725151425,18.33738,8.563032000000002,8.995941,26.002,10.905999999999999,14.647,-1
59,60,1582725151434,17.314728,7.9306436,9.30442,25.078000000000003,10.332,14.794,-1
60,61,1582725151444,16.035454,7.500798,10.483478999999999,23.88,10.001,15.811,-1
61,62,1582725151454,14.306784,6.680752799999999,10.476623,22.213,9.318999999999999,15.644,-1
62,63,1582725151464,11.693267,5.6155715,13.074961,19.636,8.416,18.099,-1
63,64,1582725151475,10.200157,4.5870489999999995,14.826209,18.168,7.577000000000001,19.699,-1
64,65,1582725151485,9.025541,3.5960822,15.549669,17.009,6.809,20.252,-1
65,66,1582725151495,7.848555,2.9634185,15.435162,15.833,6.43,19.952,-1
66,67,1582725151505,6.476307,2.2829876000000002,14.757017999999999,14.440999999999999,6.025,19.085,-1
67,68,1582725151515,5.5863986,1.4928063999999999,13.886762,13.507,5.52,18.035999999999998,-1
68,69,1582725151525,4.715972,0.2992015,14.168508,12.569,4.612,18.156,-1
69,70,1582725151536,3.7996812000000006,-0.74607396,15.143103,11.565,3.8510000000000004,18.982,-1
70,71,1582725151546,2.8501039,-1.7492535,15.961776,10.511,3.135,19.653,-1
71,72,1582725151556,2.4124727000000004,-2.3002126,15.9959,9.953,2.878,19.531,-1
72,73,1582725151566,1.7817797999999998,-2.9443576,15.174643,9.182,2.536,18.547,-1
73,74,1582725151576,0.9372096,-3.8515322,13.946376,8.176,1.9369999999999998,17.15,-1
74,75,1582725151586,0.12368822,-4.716498400000001,12.464611,7.182,1.381,15.493,-1
75,76,1582725151597,-1.0944923999999998,-5.365026,10.831448,5.767,1.034,13.685,-1
76,77,1582725151607,-1.5166435,-5.5482526,9.072027,5.1370000000000005,1.1320000000000001,11.769,-1
77,78,1582725151617,-1.6281700000000001,-5.509253500000001,7.125903,4.811,1.4169999999999998,9.721,-1
78,79,1582725151627,-1.7481251,-5.477928599999999,5.863354,4.481,1.59,8.586,-1
79,80,1582725151637,-2.0961196,-6.0660653,5.2157288,3.911,1.195,7.928999999999999,-1
80,81,1582725151647,-2.6728845000000003,-6.401473,4.8546510000000005,2.725,0.9620000000000001,7.321000000000001,-1
81,82,1582725151658,-3.1321876,-6.9208584,4.354669,2.418,0.718,7.002999999999999,-1
82,83,1582725151668,-3.1564772,-7.293698,3.5098032999999997,2.169,0.519,6.112,-1
83,84,1582725151678,-3.2747667000000003,-7.1405306,2.5409763,1.8630000000000002,0.9359999999999999,4.811,-1
84,85,1582725151688,-2.911377,-7.221266,1.836128,1.985,0.905,4.3180000000000005,-1
85,86,1582725151698,-2.1091652,-7.227530499999999,0.6249044,2.488,1.104,2.9960000000000004,-1
86,87,1582725151708,-2.188987,-7.155377400000001,0.07401585599999999,2.311,1.24,2.406,-1
87,88,1582725151718,-2.9279866,-7.3443894,-0.88236153,1.381,1.171,1.374,-1
88,89,1582725151728,-3.7843489999999997,-7.3516693,-1.3273408000000002,0.342,1.271,0.862,-1
89,90,1582725151738,-4.1834745,-7.250269,-1.538893,-0.225,1.465,0.593,-1
90,91,1582725151748,-4.206629,-6.904088000000001,-1.794298,-0.395,1.889,0.285,-1
91,92,1582725151758,-3.4130256,-6.569408,-2.3442197,0.275,2.289,-0.32,-1
92,93,1582725151769,-2.493302,-6.2191696,-3.1509936,1.089,2.696,-1.187,-1
93,94,1582725151779,-1.8661549,-5.9155755,-3.758174,1.621,3.051,-1.858,-1
94,95,1582725151789,-1.6857826,-5.8155503,-4.074943,1.712,3.199,-2.241,-1
95,96,1582725151799,-1.5195530000000002,-5.559352400000001,-4.257784,2.0469999999999997,3.673,-2.596,-1
96,97,1582725151809,-1.0173961999999999,-5.2451476999999995,-4.386764,2.217,3.858,-2.701,-1
97,98,1582725151820,-1.1792111,-4.9621606,-4.7060876,1.98,4.181,-3.096,-1
98,99,1582725151830,-1.5560589,-4.509031299999999,-4.88762,1.53,4.67,-3.341,-1
99,100,1582725151840,-1.4843841,-4.33859,-5.204934,1.5390000000000001,4.869,-3.705,-1
100,101,1582725151850,-1.6383541000000001,-4.22783,-5.0123568,1.3359999999999999,5.0,-3.5389999999999997,-1
101,102,1582725151861,-1.5038468999999999,-3.7108587999999996,-4.763888,1.4369999999999998,5.53,-3.305,-1
102,103,1582725151871,-0.7608361,-3.3519287,-4.521195,2.165,5.896,-3.077,-1
103,104,1582725151881,0.107053995,-2.9061599,-4.500670400000001,3.032,6.346,-3.082,-1
104,105,1582725151891,1.1198099,-2.3294919999999997,-4.5578265,4.0569999999999995,6.926,-3.187,-1
105,106,1582725151902,1.8805435000000001,-1.8737835999999999,-4.62932,4.859,7.382999999999999,-3.36,-1
106,107,1582725151912,1.8643701000000001,-1.5348438999999998,-4.428918,4.948,7.716,-3.388,-1
107,108,1582725151922,0.98078465,-1.3012542999999999,-3.4914308,4.109,7.9510000000000005,-2.608,-1
108,109,1582725151932,0.62808037,-1.1627007,-3.00394,3.752,8.092,-2.131,-1
109,110,1582725151943,0.37673378,-1.0487652,-2.5333080000000003,3.491,8.21,-1.669,-1
110,111,1582725151953,0.19777441,-0.94443035,-2.4488368,3.307,8.317,-1.595,-1
111,112,1582725151963,0.1625669,-0.82316303,-2.5083203,3.273,8.44,-1.6780000000000002,-1
112,113,1582725151973,0.005026579000000001,-0.623827,-2.507917,3.12,8.641,-1.714,-1
113,114,1582725151983,0.3572085,-0.42792892,-2.4986897,3.4989999999999997,8.837,-1.82,-1
114,115,1582725151994,0.6285212,-0.21710491,-2.2165607999999994,3.786,9.045,-1.5730000000000002,-1
115,116,1582725152004,1.1060538,0.06853771,-1.4841316999999998,4.2989999999999995,9.321,-0.878,-1
116,117,1582725152014,0.76689935,0.2593603,-0.8474999,3.966,9.51,-0.24600000000000002,-1
117,118,1582725152024,-0.090031385,0.18242359,-0.5909251999999999,3.096,9.437999999999999,0.004,-1
118,119,1582725152034,-0.42009568,0.18257332,-0.79584616,2.737,9.45,-0.23199999999999998,-1
119,120,1582725152045,-0.55427814,0.039735794,-0.7606255000000001,2.593,9.311,-0.205,-1
120,121,1582725152055,-0.22044587,0.0016431807999999998,-0.8414215,2.917,9.277999999999999,-0.316,d
121,122,1582725152065,-0.08603358,0.123194695,-0.8382669,3.0580000000000003,9.398,-0.325,-1
122,123,1582725152076,0.42515159999999996,0.47405815,-1.0087347,3.6039999999999996,9.738,-0.514,-1
123,124,1582725152086,0.7799151,0.63143635,-1.4049302,3.987,9.886000000000001,-0.917,-1
124,125,1582725152096,0.9106934000000001,0.64538574,-1.3361363000000002,4.143,9.891,-0.845,-1
125,126,1582725152106,0.8450124,0.7437372,-0.72930133,4.095,9.982000000000001,-0.217,-1
126,127,1582725152116,0.89742637,0.6644869000000001,0.35956365,4.16,9.896,0.912,-1
127,128,1582725152126,0.7028996999999999,0.6396599000000001,1.6837852,3.9730000000000003,9.865,2.292,-1
128,129,1582725152136,0.5867274,0.6850033,2.227188,3.6689999999999996,9.91,3.202,-1
129,130,1582725152146,0.08584595,0.527606,2.4400067,3.355,9.747,3.137,-1
130,131,1582725152156,0.06681156,0.5021763,1.4606721,3.3360000000000003,9.721,2.165,-1
131,132,1582725152167,-0.11175895,0.42470646,0.7482465,3.159,9.644,1.439,-1
132,133,1582725152177,0.05522704,0.5160923,0.055915534,3.333,9.735,0.718,-1
133,134,1582725152187,0.3044176,0.7304468000000001,-0.40071127,3.597,9.946,0.23399999999999999,-1
134,135,1582725152197,0.5476594,0.917984,-0.24661815,3.858,10.128,0.376,-1
135,136,1582725152207,1.0551921999999998,0.8104429,0.17293632,4.385,10.013,0.802,-1
136,137,1582725152218,1.0325699000000002,0.92044544,0.69970274,4.378,10.116,1.348,-1
137,138,1582725152228,0.80199504,1.0538558999999998,1.1647134,4.155,10.245,1.8359999999999999,-1
138,139,1582725152238,0.77407146,1.0206879999999998,1.4428093000000002,4.131,10.209,2.133,-1
139,140,1582725152248,0.4789927,1.1751833,1.349582,3.714,10.363,2.05,-1
140,141,1582725152259,0.24702239,1.1046723999999999,1.1636108,3.602,10.293,1.8630000000000002,-1
141,142,1582725152269,0.24038029,1.1255693000000002,0.8026105,3.594,10.315,1.494,-1
142,143,1582725152279,0.30944562,1.0883512,0.17469662,3.6639999999999997,10.279000000000002,0.845,-1
143,144,1582725152289,0.27825809999999995,1.0619239999999999,0.19352847,3.633,10.253,0.857,-1
144,145,1582725152300,0.29733205,1.0891838,0.31543845,3.6519999999999997,10.280999999999999,0.9690000000000001,-1
145,146,1582725152310,0.42731620000000003,0.9264164,0.30856258,3.784,10.118,0.955,-1
146,147,1582725152320,0.5421293,0.83211803,0.34794617,3.9010000000000002,10.023,0.993,-1
147,148,1582725152330,0.7927203,0.8831462999999999,-0.22281402,4.162,10.071,0.41100000000000003,-1
148,149,1582725152341,1.1131055,0.8281431,-0.49859568,4.493,10.013,0.122,-1
149,150,1582725152351,1.1326082,0.83533573,-0.6445420000000001,4.521,10.017999999999999,-0.038,-1
150,151,1582725152361,0.7521627,0.6466713000000001,-0.36388174,4.143,9.829,0.23399999999999999,-1
151,152,1582725152371,0.70055985,0.5222378,-0.030471444,4.093,9.704,0.5670000000000001,-1
152,153,1582725152381,0.5030463,0.4317236,0.086978674,3.8960000000000004,9.613,0.6890000000000001,-1
153,154,1582725152392,0.55341387,0.31296825,0.27484667,3.949,9.493,0.8809999999999999,-1
154,155,1582725152402,0.47617579,0.21670818,-0.06511146,3.877,9.395,0.5379999999999999,-1
155,156,1582725152412,0.7019217,0.11928272,-0.4368884,4.112,9.295,0.153,-1
156,157,1582725152422,0.7766094,0.13437079999999998,-0.65316045,4.198,9.307,-0.081,-1
157,158,1582725152432,0.84632635,0.050655365,-0.7070161,4.279,9.22,-0.15,-1
158,159,1582725152443,0.85625124,-0.038912773,-0.5472714,4.2989999999999995,9.127,0.004,-1
159,160,1582725152453,0.58648896,-0.005777359,0.15982717,4.033,9.158,0.723,-1
160,161,1582725152463,0.50516844,-0.13920689,0.65285856,3.9539999999999997,9.022,1.2429999999999999,-1
161,162,1582725152473,0.30903554,-0.18582058,0.8834854,3.762,8.971,1.516,-1
162,163,1582725152483,0.18317628,-0.116230965,0.77951086,3.63,9.041,1.439,-1
163,164,1582725152494,-0.048871517,-0.24629402,0.42707163,3.384,8.916,1.089,-1
164,165,1582725152503,-0.2795241,-0.27361488,0.10549635,3.139,8.895,0.754,-1
165,166,1582725152513,-0.26868176,-0.29085445,-0.18826732,3.139,8.883,0.44299999999999995,-1
166,167,1582725152523,-0.32092452,-0.24476910000000002,-0.28599957,3.0789999999999997,8.933,0.33,-1
167,168,1582725152533,-0.005053282,-0.16393375,-0.040279686,3.3960000000000004,9.014,0.5670000000000001,-1
168,169,1582725152543,0.17791271,-0.021573067,0.29204398,3.5869999999999997,9.152999999999999,0.905,-1
169,170,1582725152554,0.6044524,0.060290337,0.23069942,4.026,9.23,0.847,-1
170,171,1582725152564,0.7808113,0.20555210000000002,-0.042370557999999996,4.215,9.371,0.5670000000000001,-1
171,172,1582725152574,0.69431114,0.27659702,-0.14759788,4.133,9.441,0.452,-1
172,173,1582725152584,0.3347683,0.38105965,0.44816852,3.767,9.548,1.046,-1
173,174,1582725152594,-0.28280377,0.37017632,0.92853427,3.13,9.544,1.5319999999999998,-1
174,175,1582725152605,-0.6162064,0.4060154,1.2116683000000001,2.7710000000000004,9.589,1.82,-1
175,176,1582725152615,-0.6832912,0.20103645,0.7572153,2.675,9.395,1.36,-1
176,177,1582725152625,-0.5184354999999999,0.03815651,0.040402352999999995,2.818,9.242,0.613,-1
177,178,1582725152635,-0.26111364,0.24316311,-0.7090545,3.068,9.453,-0.193,-1
178,179,1582725152645,0.060016155,0.29986286,-1.3326931,3.4389999999999996,9.577,-0.845,d
179,180,1582725152655,0.21213007,0.5351753,-1.2377511,3.5610000000000004,9.742,-0.802,-1
180,181,1582725152666,0.41699457,0.52656364,-0.6789723000000001,3.781,9.728,-0.24600000000000002,-1
181,182,1582725152676,0.33694172,0.6474055999999999,0.506826,3.719,9.841000000000001,0.965,-1
182,183,1582725152686,0.346169,0.59173775,0.87647104,3.733,9.783,1.3459999999999999,-1
183,184,1582725152696,0.03993392,0.4172392,1.0605813999999998,3.4360000000000004,9.604,1.551,-1
184,185,1582725152706,-0.09426689,0.37079144,0.6085694,3.307,9.556000000000001,1.092,-1
185,186,1582725152717,-0.16533852,0.36597633,0.25773555,3.238,9.551,0.73,-1
186,187,1582725152727,-0.032637596,0.55049324,-0.54457545,3.384,9.732999999999999,-0.122,-1
187,188,1582725152737,0.1622777,0.70379543,-0.73185295,3.5869999999999997,9.884,-0.325,-1
188,189,1582725152747,0.67492104,0.9180927,-0.69788015,4.119,10.092,-0.313,-1
189,190,1582725152757,1.2023184,1.2633809999999999,-0.21074843,4.675,10.427,0.162,-1
190,191,1582725152768,1.2214978,1.4099007,-0.03606677,4.7010000000000005,10.571,0.335,-1
191,192,1582725152778,1.1819785,1.6786766,0.25552955,4.67,10.837,0.615,-1
192,193,1582725152788,1.0256104,1.9402313000000002,0.0021749735,4.512,11.1,0.34,-1
193,194,1582725152798,1.0178620999999999,2.16187,-0.12286195,4.502,11.323,0.201,-1
194,195,1582725152809,1.2668266000000001,2.3580465,-0.42378855,4.742,11.524000000000001,-0.14300000000000002,-1
195,196,1582725152819,1.6255305,2.4848042,-0.57283133,5.093999999999999,11.654000000000002,-0.316,-1
196,197,1582725152829,2.2672725,2.7734194,-0.52188605,5.728,11.946,-0.282,-1
197,198,1582725152839,2.6873395,3.0056133,-0.52161247,6.136,12.183,-0.292,-1
198,199,1582725152849,2.8514720000000002,3.1121092,-0.47044790000000003,6.291,12.293,-0.244,-1
199,200,1582725152860,2.5979989,3.064721,0.45175475,5.994,12.262,0.67,-1
200,201,1582725152870,2.5568008,2.7668447,0.8157741999999999,5.912999999999999,11.979000000000001,1.022,-1
201,202,1582725152880,2.7093825000000002,2.3192873,0.9824113999999999,6.021,11.548,1.168,-1
202,203,1582725152890,2.7126584,2.0312328,0.8674315999999999,5.975,11.277999999999999,1.025,-1
203,204,1582725152901,2.8553479999999998,1.7339764,0.72655344,6.064,11.0,0.852,-1
204,205,1582725152911,3.0827105,1.3379211000000002,0.49876013,6.234,10.624,0.591,-1
205,206,1582725152921,3.0419042000000003,0.89979076,0.18951821,6.131,10.207,0.251,-1
206,207,1582725152931,2.5538719,0.22934914,0.073868364,5.577999999999999,9.558,0.11,-1
207,208,1582725152941,2.0757778,-0.38995934,0.016740121,5.043,8.957,0.035,-1
208,209,1582725152952,1.3921258,-1.0068092,0.115579374,4.325,8.351,0.124,-1
209,210,1582725152962,0.96128416,-1.5512528,0.15262218,3.815,7.831,0.15,-1
210,211,1582725152972,0.7806158000000001,-2.2087731,0.27734676,3.549,7.199,0.261,-1
211,212,1582725152982,0.4549911,-2.8481287999999996,-0.0051566474,3.1319999999999997,6.586,-0.04,-1
212,213,1582725152992,-0.26617098,-3.6442542,-0.35260382,2.313,5.817,-0.40700000000000003,-1
213,214,1582725153002,-1.0187113,-4.398968,-0.6342975000000001,1.46,5.0889999999999995,-0.7040000000000001,-1
214,215,1582725153012,-1.7888694,-5.1401959999999995,-0.9803488000000001,0.591,4.373,-1.056,-1
215,216,1582725153022,-2.6355345000000003,-5.8411026,-1.2109258,-0.349,3.695,-1.281,-1
216,217,1582725153032,-3.5660841,-6.8502893,-1.3415774999999999,-1.365,2.7060000000000004,-1.396,-1
217,218,1582725153042,-4.315487,-8.02626,-1.5370298999999998,-2.189,1.547,-1.571,-1
218,219,1582725153052,-5.2750379999999994,-9.3819685,-1.9327804,-3.2110000000000003,0.205,-1.9469999999999998,-1
219,220,1582725153063,-6.2900457,-10.447396000000001,-2.6292902999999996,-4.275,-0.85,-2.6289999999999996,-1
220,221,1582725153073,-7.277563000000001,-11.165564999999999,-3.4435692,-5.297000000000001,-1.561,-3.4339999999999997,-1
221,222,1582725153083,-8.23548,-11.596487,-4.1945440000000005,-6.279,-1.9869999999999999,-4.176,-1
222,223,1582725153093,-8.855491,-11.772052,-4.1579623,-6.912000000000001,-2.16,-4.117,-1
223,224,1582725153103,-9.307333,-11.97525,-3.3247921000000003,-7.352,-2.366,-3.228,-1
224,225,1582725153113,-9.439083,-12.336253999999998,-2.8068862,-7.441,-2.737,-2.627,-1
225,226,1582725153123,-9.262967999999999,-12.7169485,-2.4105554,-7.185,-3.137,-2.133,-1
226,227,1582725153133,-8.699562,-13.120232000000001,-2.3700776,-6.504,-3.57,-1.992,-1
227,228,1582725153143,-8.063272,-13.264854999999999,-2.661604,-5.716,-3.755,-2.189,-1
228,229,1582725153153,-7.597925,-13.384811,-3.0201863999999996,-5.075,-3.925,-2.457,-1
229,230,1582725153163,-7.507774400000001,-13.626517999999999,-3.0291665,-4.79,-4.227,-2.371,-1
230,231,1582725153174,-7.8106327,-13.9606085,-2.965494,-4.878,-4.6339999999999995,-2.201,-1
231,232,1582725153184,-7.9001865,-14.348894,-2.9270442,-4.725,-5.113,-2.04,-1
232,233,1582725153194,-7.6908827,-14.907148000000001,-2.3815274,-4.085,-5.855,-1.274,-1
233,234,1582725153204,-7.258423,-14.987473999999999,-2.1209043999999997,-2.878,-6.09,-0.385,-1
234,235,1582725153214,-6.294471700000001,-15.006095000000002,-1.1506068,-2.1719999999999997,-6.215,0.225,-1
235,236,1582725153225,-3.7649252,-14.923912,0.15951955,0.938,-6.483,1.834,-1
236,237,1582725153235,-1.0301652000000001,-14.545359,-0.33783197,4.088,-6.397,1.554,-1
237,238,1582725153245,1.3201485000000002,-13.7500725,-1.0198269,6.921,-5.992000000000001,1.128,-1
238,239,1582725153255,3.584478,-12.083394,-0.8646027000000001,9.735,-4.8469999999999995,1.58,-1
239,240,1582725153265,6.9033337,-10.592625,1.0774844,13.437999999999999,-3.815,3.822,-1
240,241,1582725153275,9.647766,-9.391612,4.392809400000001,16.528,-3.1010000000000004,7.436,-1
241,242,1582725153286,10.689997,-8.437844,8.174401,17.883,-2.653,11.485999999999999,-1
242,243,1582725153296,10.722858,-8.342628,9.477948,18.06,-2.8110000000000004,12.904000000000002,-1
243,244,1582725153306,10.728531,-8.124121,11.125114,18.456,-3.341,14.81,-1
244,245,1582725153316,11.696726,-7.013856,10.804488000000001,19.655,-2.727,14.607000000000001,-1
245,246,1582725153326,13.77479,-4.3760533,10.007328999999999,21.933000000000003,-0.598,13.924000000000001,-1
246,247,1582725153336,16.037708,-1.160126,9.459895,24.351999999999997,2.093,13.517000000000001,-1
247,248,1582725153347,17.401249,0.00021839142000000005,9.2449,25.775,2.988,13.383,-1
248,249,1582725153357,19.992256,2.1359487,9.657758,28.479,4.351,14.044,-1
249,250,1582725153367,18.68277,2.6283011000000003,10.121006,27.205,4.382,14.645,-1
250,251,1582725153377,16.482692999999998,2.5800376,10.267716,25.026999999999997,3.925,14.889000000000001,-1
251,252,1582725153387,14.248655,2.5902395,10.538775999999999,22.81,3.57,15.22,-1
252,253,1582725153397,12.431131,3.2224984,10.97385,21.004,3.867,15.692,-1
253,254,1582725153407,11.743179,4.4791636,11.154177,20.316,4.806,15.905,-1
254,255,1582725153418,12.512355,5.3272639999999996,10.516582000000001,21.070999999999998,5.352,15.304,-1
255,256,1582725153428,13.114492000000002,5.613951,8.3715925,21.643,5.362,13.206,-1
256,257,1582725153438,12.312515,5.8947053,6.622638,20.8,5.398,11.51,-1
257,258,1582725153448,11.429803999999999,5.710619,6.0183163,19.875999999999998,4.996,10.95,-1
258,259,1582725153458,10.696655,5.559293299999999,5.785004,19.107,4.651,10.745999999999999,-1
259,260,1582725153468,9.691294000000001,5.7082744000000005,5.792039,18.072,4.6339999999999995,10.77,-1
260,261,1582725153479,8.563566,5.5723720000000005,5.72772,16.92,4.361000000000001,10.715,-1
261,262,1582725153489,7.8258057,5.642174,5.042322,16.160999999999998,4.32,10.037,-1
262,263,1582725153499,6.758628,5.531068299999999,4.0368133,15.075999999999999,4.124,9.038,-1
263,264,1582725153509,6.0225325,5.353002,2.9987926,14.324000000000002,3.8819999999999997,8.008,-1
264,265,1582725153519,5.300641000000001,4.936135,1.9165033999999999,13.585999999999999,3.417,6.938,-1
265,266,1582725153529,4.268587,4.651342,1.3036809,12.537,3.096,6.3420000000000005,-1
266,267,1582725153540,3.8011760000000003,4.1253576,1.4001312,12.054,2.5380000000000003,6.454,-1
267,268,1582725153550,3.422472,3.8342059999999996,1.7415418999999999,11.663,2.217,6.806,-1
268,269,1582725153560,3.139288,3.6607795,1.7811188999999998,11.370999999999999,2.019,6.852,-1
269,270,1582725153570,3.2206688,3.6985106,1.6332426000000002,11.445,2.0380000000000003,6.71,-1
270,271,1582725153580,3.3092384,3.5430741,1.2393087999999999,11.529000000000002,1.8719999999999999,6.32,-1
271,272,1582725153590,3.136693,3.3995547,1.2040229,11.357000000000001,1.729,6.284,-1
272,273,1582725153600,2.525425,3.10542,1.2062492,10.751,1.4480000000000002,6.282,-1
273,274,1582725153611,1.718977,2.7751514999999998,0.9251908999999999,9.951,1.1440000000000001,5.999,-1
274,275,1582725153621,1.2962961000000002,2.4325972,0.6954894,9.532,0.835,5.774,-1
275,276,1582725153631,1.3154106,2.1270632999999997,0.5694175,9.551,0.5579999999999999,5.657,-1
276,277,1582725153641,1.4941883,1.9121011000000003,0.52812576,9.728,0.364,5.625,-1
277,278,1582725153651,1.9738512,2.096173,0.87222385,10.205,0.56,5.977,-1
278,279,1582725153662,2.0802402,2.0639205,1.1920152,10.31,0.541,6.303,-1
279,280,1582725153672,1.8769044999999998,1.812054,1.4313097,10.109,0.311,6.545,-1
280,281,1582725153682,1.6065788,1.7042238999999997,1.1296796999999998,9.845,0.237,6.242999999999999,-1
281,282,1582725153692,1.6347341999999998,1.5874324,0.6613435999999999,9.884,0.162,5.769,-1
282,283,1582725153702,1.8376646,1.2812991000000002,0.29827404,10.099,-0.102,5.398,-1
283,284,1582725153712,1.8150587,1.2310119,0.38192844,10.085,-0.11,5.479,-1
284,285,1582725153722,1.4872265,1.045577,0.7352748,9.762,-0.251,5.836,-1
285,286,1582725153733,0.9189205,0.83359015,1.2150578,9.193999999999999,-0.41600000000000004,6.327000000000001,-1
286,287,1582725153743,0.6329756,0.85399604,1.1472464,8.908999999999999,-0.344,6.27,-1
287,288,1582725153753,0.53932,0.8997795,0.6357111999999999,8.82,-0.24100000000000002,5.763999999999999,-1
288,289,1582725153763,0.79827404,0.86323285,-0.04116869,9.089,-0.217,5.084,-1
289,290,1582725153773,1.1410112,0.8733528,-0.8326311,9.455,-0.122,4.272,d
290,291,1582725153783,1.2149134,0.92155206,-0.7017894,9.532,-0.052000000000000005,4.402,-1
291,292,1582725153794,1.6971578999999999,0.876179,0.05823326,10.011000000000001,-0.067,5.172999999999999,-1
292,293,1582725153804,2.0398664,0.8384241,1.0830545,10.345999999999998,-0.079,6.215,-1
293,294,1582725153814,2.2988796000000002,0.6827978,2.1712894,10.602,-0.201,7.314,-1
294,295,1582725153824,2.4231814999999997,0.52372056,2.815061,10.751,-0.273,7.932,-1
295,296,1582725153834,1.3997498,0.68545765,1.8851828999999998,9.757,-0.023,6.9670000000000005,-1
296,297,1582725153844,1.0008820999999999,0.59576225,1.194828,9.371,-0.064,6.2620000000000005,-1
297,298,1582725153855,1.2520065,0.9745581,-0.050071715999999995,9.642000000000001,0.45,5.0,-1
298,299,1582725153865,2.3540611,1.2542418,-0.023316383,10.735999999999999,0.79,5.046,-1
299,300,1582725153875,3.2801867,1.7441818999999998,0.8659935,11.639000000000001,1.3219999999999998,5.977,-1
300,301,1582725153885,3.6880502999999996,1.8970653999999998,1.4423828,12.032,1.492,6.579,-1
301,302,1582725153895,4.9707594,2.4697516,3.4653354,13.267999999999999,2.119,8.681000000000001,-1
302,303,1582725153905,5.8700314,2.827219,4.941863,14.147,2.531,10.193,-1
303,304,1582725153915,6.1093254,2.9898968,5.3470807,14.382,2.7319999999999998,10.607000000000001,-1
304,305,1582725153925,6.3122370000000005,3.6926419999999998,5.253598,14.59,3.5989999999999998,10.511,-1
305,306,1582725153935,6.380825,4.0721,4.8665023000000005,14.664000000000001,4.119,10.116,-1
306,307,1582725153945,6.355425,4.3065023,4.8787519999999995,14.715,4.7219999999999995,10.447000000000001,-1
307,308,1582725153955,7.254428,4.7289157,6.216546,15.519,5.077,11.484000000000002,-1
308,309,1582725153966,7.9596424,4.990532,7.6765360000000005,16.202,5.496,12.966,-1
309,310,1582725153976,8.682784,5.181480400000001,8.727008999999999,16.901,5.865,14.034,-1
310,311,1582725153986,9.204094,5.0669227,8.699232,17.402,5.962999999999999,14.005999999999998,-1
311,312,1582725153996,9.267837,4.633519000000001,8.2123995,17.45,5.781000000000001,13.495,-1
312,313,1582725154006,8.895925,4.077792,7.312036999999999,17.062,5.513,12.549000000000001,-1
313,314,1582725154016,8.19535,3.4250769999999995,6.1303215,16.334,5.175,11.314,-1
314,315,1582725154027,7.422716,2.794985,5.7455254,15.514000000000001,4.873,10.882,-1
315,316,1582725154037,6.848261999999999,2.2061465,5.8447328,14.873,4.617,10.94,-1
316,317,1582725154047,6.2844872,1.4199812,6.123642,14.225999999999999,4.167,11.179,-1
317,318,1582725154057,5.98234,0.8095896,6.274852,13.828,3.8989999999999996,11.282,-1
318,319,1582725154067,5.476998,0.10073662,6.343253,13.218,3.5439999999999996,11.282,-1
319,320,1582725154077,4.608495,-0.93296933,6.4233418,12.24,2.8760000000000003,11.263,-1
320,321,1582725154088,3.8096476000000004,-2.0106237,6.5323544,11.328,2.174,11.237,-1
321,322,1582725154098,2.6745381,-2.6824942000000003,5.946450700000001,10.073,1.8840000000000001,10.482999999999999,-1
322,323,1582725154108,1.5432534,-3.1681986,4.6637197,8.811,1.774,9.014,-1
323,324,1582725154118,1.0014119000000001,-3.6042016,3.13695,8.131,1.681,7.309,-1
324,325,1582725154128,0.61977816,-3.8661837999999995,1.7898560000000001,7.652,1.6159999999999999,5.872000000000001,-1
325,326,1582725154138,0.17393255,-4.2043877,0.8663759,7.06,1.578,4.78,-1
326,327,1582725154149,-0.8378601000000001,-4.5919485,0.8525367,5.879,1.496,4.593,-1
327,328,1582725154159,-1.8426476000000003,-4.652577,1.2360541999999999,4.696000000000001,1.726,4.803999999999999,-1
328,329,1582725154169,-2.4133978,-4.8914184999999994,1.4755633,3.949,1.755,4.869,-1
329,330,1582725154179,-2.33192,-5.001415,1.6054366000000002,3.86,1.889,4.823,-1
330,331,1582725154189,-1.9132395,-5.1928477,1.7245891,4.114,1.92,4.766,-1
331,332,1582725154199,-1.9724605,-5.2136974,1.4448524,3.891,2.1069999999999998,4.308,-1
332,333,1582725154209,-1.8704662,-5.311062000000001,0.7826009,3.8289999999999997,2.205,3.465,-1
333,334,1582725154219,-2.1803305,-5.049459,-0.19511604,3.353,2.6510000000000002,2.306,-1
334,335,1582725154229,-2.0713181,-5.302987,-1.2498316999999999,3.295,2.569,1.075,-1
335,336,1582725154239,-2.6655482999999998,-5.7931414000000006,-1.9239608,2.533,2.2359999999999998,0.239,-1
336,337,1582725154250,-3.2208064,-6.045114,-1.3080508999999998,1.8130000000000002,2.124,0.716,-1
337,338,1582725154260,-3.6267414,-6.3776703,-0.20105278,1.252,1.913,1.705,-1
338,339,1582725154270,-4.043556,-6.665176400000001,0.9297278,0.6940000000000001,1.7309999999999999,2.727,-1
339,340,1582725154280,-4.2602234,-6.6564817,1.2947408,0.35200000000000004,1.8319999999999999,2.9810000000000003,-1
340,341,1582725154290,-4.287388,-6.73498,0.8956424999999999,0.217,1.834,2.4619999999999997,-1
341,342,1582725154301,-4.337907,-6.353149,-0.30280959999999996,0.076,2.2840000000000003,1.1420000000000001,-1
342,343,1582725154311,-3.8279066,-6.046913,-1.4415163999999998,0.514,2.6439999999999997,-0.105,-1
343,344,1582725154321,-3.0850754,-5.960026,-1.9532285,1.202,2.7710000000000004,-0.7040000000000001,-1
344,345,1582725154331,-2.1074972,-5.5019054,-1.8981175,2.138,3.259,-0.718,-1
345,346,1582725154341,-1.1049175,-5.363551,-1.8302261999999998,3.1060000000000003,3.4219999999999997,-0.711,-1
346,347,1582725154351,-0.8667133,-5.3000784,-1.4481263999999998,3.307,3.511,-0.392,-1
347,348,1582725154361,-0.89133096,-5.0348883,-0.8072215,3.24,3.805,0.172,-1
348,349,1582725154371,-0.97395945,-5.024186599999999,-0.51525563,3.111,3.8480000000000003,0.361,-1
349,350,1582725154381,-1.3041413,-4.902786,-0.6410387,2.7319999999999998,4.004,0.1,-1
350,351,1582725154391,-1.8797734,-4.573904,-0.90820265,2.105,4.368,-0.33,-1
351,352,1582725154401,-2.1000462000000004,-4.3547616,-1.9315338,1.834,4.619,-1.525,-1
352,353,1582725154411,-2.026733,-3.9300284,-2.899355,1.86,5.07,-2.648,-1
353,354,1582725154422,-2.0304685,-3.5571656000000003,-3.2454066000000004,1.815,5.462999999999999,-3.1060000000000003,-1
354,355,1582725154432,-1.7898154,-3.5154052000000005,-3.1497355,2.026,5.518,-3.063,-1
355,356,1582725154442,-1.496378,-3.3239045,-2.4054854,2.3040000000000003,5.716,-2.318,-1
356,357,1582725154452,-1.2176056,-2.9991379,-1.5934253,2.5789999999999997,6.042000000000001,-1.475,-1
357,358,1582725154462,-0.95166516,-2.9025216,-0.9792485000000001,2.85,6.136,-0.828,-1
358,359,1582725154472,-0.7348089,-2.4502200000000003,-0.759881,3.0789999999999997,6.582999999999999,-0.598,-1
359,360,1582725154483,-0.5297797,-1.9888009999999998,-0.73257065,3.3,7.037999999999999,-0.591,-1
360,361,1582725154493,-0.25580883,-1.6337781,-0.78331804,3.592,7.386,-0.6920000000000001,-1
361,362,1582725154503,-0.26812243,-1.091896,-2.0030587,3.6060000000000003,7.917000000000001,-2.04,-1
362,363,1582725154513,-0.18790913,-0.93673515,-2.222628,3.695,8.068,-2.313,-1
363,364,1582725154523,0.12551284,-0.6787052,-1.5189358999999998,4.045,8.308,-1.736,-1
364,365,1582725154534,-0.22717786,-0.6197796,-0.60326946,3.7119999999999997,8.357999999999999,-0.833,-1
365,366,1582725154544,-0.5437279,-0.5758466999999999,0.112684496,3.41,8.396,-0.098,-1
366,367,1582725154554,-0.51581097,-0.4383210999999999,0.49090183,3.4560000000000004,8.526,0.301,-1
367,368,1582725154564,-0.4610598,-0.2547388,0.27023159999999996,3.53,8.701,0.079,-1
368,369,1582725154574,-0.2703669,-0.119874,-0.11709081,3.733,8.83,-0.325,-1
369,370,1582725154585,0.26915312,0.36875248,-1.268779,4.323,9.292,-1.604,-1
370,371,1582725154595,0.5716896,0.47230434,-1.9533923,4.66,9.376,-2.378,-1
371,372,1582725154605,0.47081327,0.42227268,-2.3184204,4.586,9.309,-2.83,-1
372,373,1582725154615,0.26232624,0.43611145,-2.2604002999999997,4.399,9.309,-2.835,-1
373,374,1582725154625,0.12360954,0.4420004,-2.060894,4.27,9.309,-2.656,d
374,375,1582725154636,-0.26185584,0.3546238,-0.8163001,3.911,9.208,-1.429,-1
375,376,1582725154646,-0.05978203,0.41082668,-0.1546225,4.138,9.254,-0.7440000000000001,-1
376,377,1582725154656,0.04700327,0.52598286,-0.00040775537000000003,4.279,9.354,-0.5720000000000001,-1
377,378,1582725154666,0.08713293,0.6010313,-0.25562876,4.354,9.412,-0.831,-1
378,379,1582725154676,0.31618118,0.72824,-0.8000741,4.619,9.52,-1.401,-1
379,380,1582725154687,0.82596445,0.76391697,-1.1273634,5.167999999999999,9.533999999999999,-1.7619999999999998,-1
380,381,1582725154697,1.2736902,1.0201063,-1.4845676,5.654,9.769,-2.148,-1
381,382,1582725154707,1.4451017,1.0214834000000002,-1.1338723,5.86,9.752,-1.81,-1
382,383,1582725154717,1.3879104,1.0426598,-0.61864525,5.831,9.759,-1.2930000000000001,-1
383,384,1582725154727,1.3233428,0.88780403,-0.21710646,5.791,9.592,-0.8859999999999999,-1
384,385,1582725154737,1.0361924,0.94868183,0.08473748,5.525,9.642000000000001,-0.584,-1
385,386,1582725154747,0.7849970000000001,1.0143261000000001,-0.29952140000000005,5.292000000000001,9.697000000000001,-0.9840000000000001,-1
386,387,1582725154757,0.76396227,1.1966562,-0.8105095999999999,5.29,9.867,-1.525,-1
387,388,1582725154768,0.98387,1.2661095,-1.2983677,5.532,9.922,-2.0469999999999997,-1
388,389,1582725154778,1.3430833999999998,1.4635773,-1.5022948,5.915,10.104,-2.2840000000000003,-1
389,390,1582725154788,2.0658765,1.6323098999999999,-1.7801199,6.662000000000001,10.257,-2.593,-1
390,391,1582725154798,2.8340688,1.7128648999999998,-2.0462456,7.45,10.324000000000002,-2.89,-1
391,392,1582725154808,3.089385,1.7698116000000002,-2.4861004,7.716,10.372,-3.362,-1
392,393,1582725154819,3.3229842000000005,1.8439264,-2.6046944,7.9510000000000005,10.442,-3.513,-1
393,394,1582725154829,3.222118,1.7271748,-2.414416,7.846,10.324000000000002,-3.355,-1
394,395,1582725154839,2.856216,1.7367115000000002,-2.0995288,7.472,10.334000000000001,-3.075,-1
395,396,1582725154849,2.795704,1.5862341,-2.1227546000000004,7.403,10.183,-3.142,-1
396,397,1582725154859,3.1501683999999996,1.6384048,-2.2535777,7.752000000000001,10.231,-3.3310000000000004,-1
397,398,1582725154870,4.1552620000000005,1.70537,-3.1089458,8.756,10.289000000000001,-4.26,-1
398,399,1582725154880,5.8105755,1.7245921999999998,-4.412505,10.413,10.296,-5.645,-1
399,400,1582725154890,7.0064936,1.9642495999999998,-5.686804,11.606,10.526,-6.995,-1
400,401,1582725154900,7.430790400000001,1.8752688999999998,-6.240342,12.013,10.437000000000001,-7.608,-1
401,402,1582725154911,7.0342283,1.4740562,-5.6648197,11.579,10.049,-7.074,-1
402,403,1582725154921,5.8417315,0.25581074,-4.2077904,10.293,8.871,-5.669,-1
403,404,1582725154931,5.431177,-0.102864265,-3.711854,9.56,8.135,-4.854,-1
404,405,1582725154942,5.052948000000001,-0.7912607,-2.9416742,9.388,7.87,-4.478,-1
405,406,1582725154952,4.770857299999999,-1.4884066999999999,-2.192915,8.978,7.212999999999999,-3.853,-1
406,407,1582725154962,4.2552970000000006,-1.9294896000000001,-2.8622637,8.368,6.794,-4.638999999999999,-1
407,408,1582725154972,3.3564404999999997,-2.3360906000000004,-3.3826907,7.371,6.404,-5.297000000000001,-1
408,409,1582725154983,2.2330782000000005,-2.7697453,-3.5445337,6.164,5.968,-5.635,-1
409,410,1582725154993,1.5082407,-3.3713822,-3.2810771,5.398,5.319,-5.63,-1
410,411,1582725155003,0.7007127,-4.1031194,-2.887648,4.461,4.619,-5.327999999999999,-1
411,412,1582725155013,0.06723666,-4.7758709999999995,-1.9261133999999998,3.688,3.9939999999999998,-4.406000000000001,-1
412,413,1582725155023,-0.4967978,-5.188710700000001,-0.67221785,2.988,3.633,-3.1630000000000003,-1
413,414,1582725155033,-0.9029485999999999,-5.619113,0.47978044,2.454,3.2539999999999996,-2.004,-1
414,415,1582725155043,-1.3870174,-5.925171,1.3538548000000001,1.8530000000000002,2.9960000000000004,-1.113,-1
415,416,1582725155053,-1.6769288,-5.8392669999999995,1.9437779999999998,1.46,3.125,-0.5,-1
416,417,1582725155063,-1.3100785,-5.906892,2.4432343999999997,1.7409999999999999,3.096,0.033,-1
417,418,1582725155073,-0.96053386,-5.9802480000000005,2.9094791,2.0540000000000003,3.0410000000000004,0.522,-1
418,419,1582725155084,-0.81582046,-6.149000599999999,3.5902352,2.11,2.926,1.298,-1
419,420,1582725155094,-1.1279158999999999,-6.281608599999999,3.8421220000000003,1.7530000000000001,2.83,1.64,-1
420,421,1582725155104,-1.8870203,-6.5254636,4.4471927,0.96,2.6239999999999997,2.3609999999999998,-1
421,422,1582725155114,-2.759001,-6.7979080000000005,5.671101999999999,0.064,2.39,3.7260000000000004,-1
422,423,1582725155125,-3.0234878,-7.0465946,6.7780337,-0.20800000000000002,2.16,4.912,-1
423,424,1582725155135,-3.3857763,-7.6233435,9.371966,-0.57,1.635,7.7829999999999995,-1
424,425,1582725155145,-3.3586898,-7.2755003,10.672906,-0.541,2.059,9.625,-1
425,426,1582725155155,-3.4690432999999996,-6.766462,11.41045,-0.617,2.5860000000000003,10.657,-1
426,427,1582725155165,-4.1653185,-5.812455,11.166275,-1.2690000000000001,3.542,10.640999999999998,-1
427,428,1582725155176,-4.546999,-5.655311,11.409716,-1.5919999999999999,3.69,11.088,-1
428,429,1582725155186,-4.4698176,-6.1965685,12.407639,-1.432,3.127,12.293,-1
429,430,1582725155196,-4.437936,-6.661166000000001,13.928267499999999,-1.2930000000000001,2.627,14.027000000000001,-1
430,431,1582725155207,-4.692221599999999,-6.5540313999999995,15.633335,-1.425,2.687,15.948,-1
431,432,1582725155217,-4.940685299999999,-5.9206123,16.650265,-1.537,3.262,17.165,-1
432,433,1582725155227,-5.0164504,-4.9797654,16.363453,-1.465,4.136,17.042,-1
433,434,1582725155237,-5.1182313,-4.1980224,15.829016000000001,-1.41,4.845,16.631,-1
434,435,1582725155247,-4.7136507000000005,-3.909554,15.806466,-0.84,5.055,16.702,-1
435,436,1582725155258,-4.322133,-4.1093383,15.817117999999999,-0.275,4.77,16.791,-1
436,437,1582725155268,-3.9028342000000005,-4.30305,15.5256405,0.325,4.4830000000000005,16.575,-1
437,438,1582725155278,-3.3894644,-4.35231,14.748419,1.0270000000000001,4.33,15.880999999999998,-1
438,439,1582725155288,-2.6857642999999998,-4.2820973,13.795238500000002,1.9269999999999998,4.284,15.026,-1
439,440,1582725155298,-2.1419272,-3.5992745999999998,12.828789,2.6719999999999997,4.837,14.18,-1
440,441,1582725155309,-1.7274203000000001,-2.5529127000000003,12.672864,3.29,5.74,14.164000000000001,-1
441,442,1582725155319,0.28610992,-1.4318376,13.907534,5.6160000000000005,6.622000000000001,15.61,-1
442,443,1582725155329,1.019177,-1.2764688,14.420979,6.454,6.694,16.183,-1
443,444,1582725155339,2.3858566000000003,-1.3127356000000001,14.686942000000002,8.027999999999999,6.492000000000001,16.537,-1
444,445,1582725155349,3.8512492,-1.6867843,13.12331,10.588,5.652,13.819,-1
445,446,1582725155360,5.426032,-1.9089369999999999,10.421415,11.462,5.5729999999999995,12.36,-1
446,447,1582725155370,7.9041877000000005,-1.2582412,5.8684444000000004,14.202,5.973,7.922000000000001,-1
447,448,1582725155380,9.054803999999999,0.117096424,4.3999405,15.502,7.172999999999999,6.595,-1
448,449,1582725155390,9.398683,0.5362234,4.341205599999999,15.912,7.502999999999999,6.624,-1
449,450,1582725155401,9.69096,1.1176996000000001,5.6918050000000004,16.374000000000002,7.822,8.253,-1
450,451,1582725155411,9.861088,0.39984035,6.116642,16.64,6.947,8.828,-1
451,452,1582725155421,9.302819,-0.40385532,5.103640599999999,16.168,6.0089999999999995,7.917000000000001,-1
452,453,1582725155431,9.302089,-0.251626,3.475022,16.247,6.042000000000001,6.361000000000001,-1
453,454,1582725155441,10.481036999999999,0.26090765,0.80503035,17.5,6.435,3.7689999999999997,-1
454,455,1582725155451,12.181045,1.4719643999999998,-1.5710624,19.262999999999998,7.52,1.501,-1
455,456,1582725155462,14.151299,2.2560458,-3.26457,21.281999999999996,8.174,-0.055,-1
456,457,1582725155472,15.210081,2.6753325,-4.742971400000001,22.374000000000002,8.472999999999999,-1.391,-1
457,458,1582725155482,15.279013,2.5792975,-6.5907029999999995,22.46,8.281,-3.113,-1
458,459,1582725155492,13.958889000000001,2.353109,-8.150124,21.14,7.989,-4.567,-1
459,460,1582725155502,11.801563,1.7204542,-8.567571000000001,18.968,7.316,-4.893,-1
460,461,1582725155512,10.514199000000001,1.5438762,-8.295983,16.726,6.938,-4.181,-1
461,462,1582725155523,9.162135000000001,1.3027868,-7.626303699999999,16.288,6.8420000000000005,-3.7910000000000004,-1
462,463,1582725155533,9.711439,1.623457,-8.486094,16.827,7.132000000000001,-4.588,-1
463,464,1582725155543,10.063381,1.6618876,-9.134933,17.177,7.156000000000001,-5.212999999999999,-1
464,465,1582725155554,10.942471000000001,1.2277546,-10.801141000000001,18.058,6.689,-6.837000000000001,-1
465,466,1582725155563,11.054161,1.1517601,-11.138059,18.197,6.471,-7.606,-1
466,467,1582725155573,11.105902,0.7838645000000001,-11.969857000000001,18.223,6.236000000000001,-7.996,-1
467,468,1582725155583,9.606963,0.287138,-12.2910795,16.712,5.757000000000001,-8.32,-1
468,469,1582725155594,8.3689995,-0.30899143,-11.855558,15.459000000000001,5.18,-7.8839999999999995,-1
469,470,1582725155604,7.3559446,-0.7104683,-11.18244,14.434000000000001,4.794,-7.211,-1
470,471,1582725155614,6.943086,-1.1002783999999999,-10.937425,14.017999999999999,4.414,-6.974,-1
471,472,1582725155624,6.8366284,-1.1579309,-10.902577,13.919,4.361000000000001,-6.959,-1
472,473,1582725155635,6.854833,-1.3126707,-11.077622,13.953,4.208,-7.165,-1
473,474,1582725155644,6.7276564,-1.4692983999999998,-11.111212,13.835999999999999,4.052,-7.218,-1
474,475,1582725155654,5.796607,-2.1476336,-11.021305,12.942,3.3739999999999997,-7.197,-1
475,476,1582725155664,5.791601999999999,-2.562078,-10.759274000000001,12.966,2.955,-6.983,-1
476,477,1582725155674,5.7510114,-2.905338,-10.351374,12.954,2.603,-6.617000000000001,-1
477,478,1582725155685,5.1488547,-3.4550443,-9.294467,12.382,2.04,-5.599,-1
478,479,1582725155695,4.4818907,-4.0929604,-7.646047599999999,11.761,1.3769999999999998,-4.004,-1
479,480,1582725155705,3.5218797,-4.4943230000000005,-6.426532,10.885,0.929,-2.885,-1
480,481,1582725155715,2.704022,-4.658862,-5.7368927,10.212,0.677,-2.371,-1
481,482,1582725155726,2.1911302000000004,-4.8583083,-5.32075,9.917,0.325,-2.22,-1
482,483,1582725155736,2.486392,-4.6008086,-4.5260878,10.387,0.44,-1.6380000000000001,-1
483,484,1582725155746,3.2978324999999997,-4.5005307,-3.96268,11.314,0.433,-1.2109999999999999,-1
484,485,1582725155756,4.7406597,-4.122589,-2.9268682,12.842,0.723,-0.27,-1
485,486,1582725155767,5.3956356,-3.653749,-1.5105084,13.567,1.1159999999999999,1.068,-1
486,487,1582725155777,4.7766113,-3.3263216,0.17914104,13.009,1.381,2.677,-1
487,488,1582725155787,3.5618305,-3.1712863,1.5005431,11.852,1.484,3.903,-1
488,489,1582725155797,2.5765247000000002,-2.9095325,2.5566394,10.925999999999998,1.695,4.849,-1
489,490,1582725155808,2.09056,-2.909959,3.2085717000000002,10.502,1.642,5.376,-1
490,491,1582725155818,1.7639542000000001,-2.6938419999999996,3.4565022000000005,10.241,1.796,5.494,-1
491,492,1582725155828,1.651598,-2.0665092,3.934248,10.193,2.354,5.851,-1
492,493,1582725155838,2.3284626,-1.6298656,5.1149244000000005,10.93,2.718,6.926,-1
493,494,1582725155849,3.5506553999999997,-1.2097504,7.822489699999999,12.228,3.036,9.51,-1
494,495,1582725155858,3.5079029999999998,-1.0674542999999999,8.694042999999999,12.205,3.1510000000000002,10.347999999999999,-1
495,496,1582725155868,3.1457014,-0.9330291999999999,10.375998,11.874,3.245,11.967,-1
496,497,1582725155878,2.358657,-0.9694607,11.808716,11.11,3.187,13.328,-1
497,498,1582725155888,1.2974748999999999,-0.8780594,12.811962,10.068,3.2710000000000004,14.238,-1
498,499,1582725155899,0.39907646,-0.8959801,12.556019000000001,9.187000000000001,3.252,13.874,-1
499,500,1582725155909,-0.24135876,-0.5733504,11.2208395,8.562000000000001,3.573,12.437000000000001,-1
500,501,1582725155919,-0.0457716,0.047590732999999996,9.3762665,8.777000000000001,4.178999999999999,10.499,-1
501,502,1582725155929,0.46205235,0.24973822,8.999716000000001,9.295,4.363,10.109,-1
502,503,1582725155940,0.7571888000000001,0.30243683,9.003597000000001,9.594,4.406000000000001,10.118,-1
503,504,1582725155950,1.309433,0.6472678000000001,9.627289999999999,10.152000000000001,4.732,10.765,-1
504,505,1582725155960,1.1757536,0.7309456,9.666944500000001,10.017999999999999,4.816,10.806,-1
505,506,1582725155970,0.09613514,0.83518267,9.399813,8.931000000000001,4.9430000000000005,10.514000000000001,-1
506,507,1582725155980,-0.21190166,0.86457586,8.836327,8.619,4.984,9.939,-1
507,508,1582725155990,-0.6620845999999999,0.7228631999999999,8.000645,8.158999999999999,4.8660000000000005,9.093,-1
508,509,1582725156000,-1.0620117,0.49266052,7.032724000000001,7.74,4.665,8.167,-1
509,510,1582725156010,-0.809361,0.40147352,6.979262400000001,7.987,4.579,8.138,-1
510,511,1582725156020,-0.49342823,0.23570059999999998,6.9074917000000005,8.293,4.418,8.123,-1
511,512,1582725156031,0.39626598,0.18176079,6.2407207,9.17,4.368,7.532,-1
512,513,1582725156041,0.20845795,0.34416485,5.5996222,8.971,4.54,6.935,-1
513,514,1582725156051,0.0026502609999999997,0.32026768,4.8172517,8.751,4.531000000000001,6.1979999999999995,-1
514,515,1582725156061,-0.5933236999999999,0.32716799999999996,4.228494,8.135,4.5569999999999995,5.676,-1
515,516,1582725156071,-0.81208515,0.41676712,3.9598007000000006,7.903,4.658,5.452999999999999,-1
516,517,1582725156082,-1.1391453999999999,0.07903099,3.5294669,7.527,4.346,5.221,-1
517,518,1582725156092,-1.2648749,-0.027338027999999997,3.5054839999999996,7.357,4.248,5.391,-1
518,519,1582725156102,-0.9646181999999999,-0.11705732,3.3898792,7.627999999999999,4.15,5.422000000000001,-1
519,520,1582725156112,-0.7429414000000001,-0.009804726,3.139875,7.831,4.243,5.278,-1
520,521,1582725156122,-0.095786095,0.2161498,2.1514222999999997,8.471,4.452,4.351,-1
521,522,1582725156133,0.6590414000000001,0.61727905,1.1879916000000001,9.228,4.837,3.41,-1
522,523,1582725156142,1.2825127,0.9838853000000001,0.40553045,9.857000000000001,5.19,2.6319999999999997,-1
523,524,1582725156152,1.5745916000000002,0.82021856,0.03111267,10.154,5.015,2.26,-1
524,525,1582725156162,1.416112,0.5536236999999999,0.4710803,9.999,4.737,2.708,-1
525,526,1582725156172,1.3281755,0.5094199,0.76086044,9.892999999999999,4.678999999999999,3.096,d
526,527,1582725156183,1.3340998,1.1639891000000002,0.6408794,9.922,5.324,2.9019999999999997,-1
527,528,1582725156193,2.322507,1.8096123,-0.56989086,10.915999999999999,5.956,1.695,-1
528,529,1582725156203,3.4299774,1.7997793999999998,-1.4610971000000001,12.03,5.9270000000000005,0.8140000000000001,-1
529,530,1582725156213,3.7750168,1.6722082999999999,-1.071436,12.375,5.7860000000000005,1.228,-1
530,531,1582725156223,2.671198,0.83462715,1.0100837,11.261,4.948,3.3480000000000003,-1
531,532,1582725156234,0.38200474,0.25359774,3.2387064,8.95,4.38,5.632999999999999,-1
532,533,1582725156244,-1.2640953000000001,-0.24494171,4.947266,7.273,3.9010000000000002,7.417000000000001,-1
533,534,1582725156254,-2.2761287999999995,-0.38678193,5.527527,6.229,3.779,8.073,-1
534,535,1582725156264,-2.1788316,-0.15280437,4.5297294,6.294,4.033,7.149,-1
535,536,1582725156274,-0.8158307,0.45745087,2.1437151,7.627999999999999,4.667,4.8180000000000005,-1
536,537,1582725156284,0.7946825,1.4075036,-0.060201883,9.249,5.63,2.56,-1
537,538,1582725156295,2.3925467,2.0923057000000003,-1.3016082,10.866,6.313,1.2590000000000001,-1
538,539,1582725156305,4.015911,2.9351797000000004,-1.3911893,12.504000000000001,7.149,1.1320000000000001,-1
539,540,1582725156315,4.6387787000000005,3.1401953999999996,-0.37962413,13.130999999999998,7.352,2.133,-1
540,541,1582725156325,4.3915489999999995,3.3129296000000004,1.159997,12.875,7.532,3.69,-1
541,542,1582725156335,3.8367089999999995,3.9265976,2.8851478,12.3,8.158999999999999,5.46,-1
542,543,1582725156346,3.6877918,4.3546404999999995,4.954274,12.123,8.6,7.599,-1
543,544,1582725156355,4.004878,4.5508489999999995,6.8371944000000004,12.405999999999999,8.808,9.57,-1
544,545,1582725156365,4.6448975,4.6169853,8.5119,13.007,8.892000000000001,11.335,-1
545,546,1582725156375,5.323509,4.6512400000000005,8.963367,13.642000000000001,8.962,11.86,-1
546,547,1582725156385,5.972293,4.505443,8.425044,14.24,8.88,11.370999999999999,-1
547,548,1582725156395,6.310304599999999,4.3373775000000006,7.7440169999999995,14.515999999999998,8.806000000000001,10.722000000000001,-1
548,549,1582725156406,6.097543,4.0577626,7.3832320000000005,14.225999999999999,8.646,10.390999999999998,-1
549,550,1582725156416,5.153842,4.182905,7.7272234,13.189,8.908999999999999,10.772,-1
550,551,1582725156426,4.661318,3.9889536,7.768422,12.59,8.866,10.854000000000001,-1
551,552,1582725156436,4.316363,4.1244555,7.4156130000000005,12.128,9.163,10.54,-1
552,553,1582725156446,4.0870695,3.8386544999999996,6.792121000000001,11.773,9.048,9.948,-1
553,554,1582725156456,3.8144339999999994,3.5592922999999996,6.339432700000001,11.369000000000002,8.947000000000001,9.513,-1
554,555,1582725156467,3.663733,3.1740394,5.959730599999999,11.084000000000001,8.746,9.132,-1
555,556,1582725156477,3.7746557999999997,2.5813627,5.8762803,11.06,8.341000000000001,9.026,-1
556,557,1582725156487,3.8832626000000006,1.9487281000000003,5.4290465999999995,11.033,7.901,8.531,-1
557,558,1582725156497,4.334886,1.4539547,3.4915936000000003,11.28,7.707000000000001,6.4639999999999995,-1
558,559,1582725156507,4.6555800000000005,1.1513662,1.6700897000000001,11.464,7.608,4.521,-1
559,560,1582725156518,4.864393700000001,1.139399,0.20094538,11.532,7.8,2.912,-1
560,561,1582725156528,4.6782184,0.9371690999999999,-0.3815961,11.112,7.723,1.6880000000000002,-1
561,562,1582725156538,3.8236732000000004,0.34785748,-1.2874233999999998,10.187999999999999,7.407,1.128,-1
562,563,1582725156548,2.761271,-0.34649515,-0.8395771000000001,8.966000000000001,6.9,1.432,-1
563,564,1582725156558,1.4378567,-0.88333416,-0.20533179999999998,7.497999999999999,6.526,1.9269999999999998,-1
564,565,1582725156569,0.95922804,-1.0216856,0.050429344,6.959,6.454,2.121,-1
565,566,1582725156579,0.7225003000000001,-1.5889463,0.08430052,6.497000000000001,6.109,1.973,-1
566,567,1582725156589,1.1340294,-1.6070403999999998,-0.5435711,6.773,6.222,1.2109999999999999,-1
567,568,1582725156599,1.5000038,-1.8091359,-0.80858403,7.024,6.131,0.807,-1
568,569,1582725156609,1.5260477,-2.3479123,-1.1085368,6.926,5.702000000000001,0.37799999999999995,-1
569,570,1582725156619,1.2430615,-2.3924117000000003,-1.1382885,6.571000000000001,5.716,0.289,-1
570,571,1582725156630,-0.11477423,-2.6799345000000003,-1.4924332,4.9719999999999995,5.609,-0.23199999999999998,-1
571,572,1582725156640,-0.5925398000000001,-3.0440345,-2.0640645,4.33,5.36,-0.919,-1
572,573,1582725156650,-0.9662068000000001,-3.226368,-2.7789154,3.8,5.2829999999999995,-1.757,-1
573,574,1582725156660,-0.47040606,-3.4444351,-3.2544827,4.152,5.1579999999999995,-2.359,-1
574,575,1582725156670,-0.14091349,-3.8490925000000002,-3.5320443999999998,4.349,4.835,-2.759,-1
575,576,1582725156680,-0.17211246,-3.9244727999999998,-3.5155334000000003,4.191,4.833,-2.852,-1
576,577,1582725156691,-0.39317608,-4.043323,-3.3899949,3.8480000000000003,4.78,-2.8139999999999996,-1
577,578,1582725156701,-0.5007384,-3.8554273,-2.7703762000000003,3.623,5.027,-2.253,-1
578,579,1582725156711,0.17495823,-4.2195480000000005,-2.0196346999999997,4.188,4.715,-1.53,-1
579,580,1582725156721,-0.13253379,-4.379538,-1.1208813,3.772,4.603,-0.632,-1
580,581,1582725156731,-0.2257886,-4.496087999999999,-0.054288298,3.573,4.531000000000001,0.447,-1
581,582,1582725156741,0.17764163,-4.845186,0.702572,3.8789999999999996,4.2219999999999995,1.209,-1
582,583,1582725156752,0.41001534,-4.8994922999999995,0.9357206,4.021,4.205,1.425,-1
583,584,1582725156762,0.32349920000000004,-4.9667635,0.9326812,3.8480000000000003,4.1739999999999995,1.374,-1
584,585,1582725156772,0.18073082,-5.0585,0.42452395,3.623,4.117,0.787,-1
585,586,1582725156782,0.008561373,-5.1004309999999995,0.08927354,3.3739999999999997,4.107,0.349,-1
586,587,1582725156792,-0.23723197,-4.9443220000000005,-0.3257532,3.0580000000000003,4.291,-0.182,-1
587,588,1582725156802,-0.06694507599999999,-4.7083797,-0.9415621999999999,3.1660000000000004,4.55,-0.912,-1
588,589,1582725156812,0.17033577,-4.3816447,-1.2144816999999999,3.35,4.895,-1.278,-1
589,590,1582725156823,0.21367407,-4.0465279999999995,-0.49903703,3.3480000000000003,5.245,-0.617,-1
590,591,1582725156833,0.54634714,-3.9272294000000003,0.6657039,3.645,5.376,0.529,-1
591,592,1582725156843,0.47254372,-3.7151650999999997,1.5568429,3.5439999999999996,5.597,1.415,-1
592,593,1582725156853,0.49986887,-3.6815643,1.5482326000000002,3.551,5.6370000000000005,1.389,-1
593,594,1582725156863,0.4933269,-3.6703324,0.7177473000000001,3.53,5.652,0.51,-1
594,595,1582725156874,0.30961895,-3.4944262999999998,-0.48824522,3.3360000000000003,5.829,-0.78,-1
595,596,1582725156883,0.20734596,-3.3179220000000003,-1.6661736,3.2260000000000004,6.004,-2.066,-1
596,597,1582725156893,0.26858425,-2.7790136000000003,-2.4423470000000003,3.285,6.537999999999999,-2.957,-1
597,598,1582725156903,0.64924026,-2.385754,-3.1057425,3.676,6.921,-3.733,-1
598,599,1582725156913,0.80398965,-2.2194562,-2.8359537,3.853,7.074,-3.5469999999999997,-1
599,600,1582725156923,0.66051817,-2.1571865000000003,-1.869168,3.733,7.127000000000001,-2.6,-1
600,601,1582725156933,0.1803639,-1.9228224999999999,-0.6833458,3.273,7.357,-1.3840000000000001,-1
601,602,1582725156943,-0.033851624,-1.7506223,0.34571385,3.082,7.525,-0.306,-1
602,603,1582725156953,0.03494382,-1.6795973999999998,0.74601936,3.18,7.5889999999999995,0.136,-1
603,604,1582725156963,0.17229629,-1.4083695,0.45295924,3.35,7.85,-0.14300000000000002,-1
604,605,1582725156973,0.35810328,-1.2151251,-0.27208787,3.57,8.03,-0.89,-1
605,606,1582725156983,0.5034708999999999,-1.0302029000000001,-1.0214474,3.752,8.198,-1.6980000000000002,-1
606,607,1582725156994,0.59033847,-0.7956114000000001,-1.5933226,3.884,8.408,-2.378,-1
607,608,1582725157004,0.7665503,-0.63171864,-1.8882318,4.124,8.533,-2.84,-1
608,609,1582725157014,0.998569,-0.6677704000000001,-1.5880888000000002,4.428,8.456,-2.668,-1
609,610,1582725157024,0.5627949000000001,-0.5063839,-1.1016716999999998,4.053999999999999,8.583,-2.27,-1
610,611,1582725157034,-0.076037884,-0.46731186,-0.87741506,3.444,8.607000000000001,-2.076,-1
611,612,1582725157044,-0.43859506,-0.22585392,-1.1619229,3.0989999999999998,8.837,-2.395,-1
612,613,1582725157055,-0.26735377,0.12232399,-1.5719396,3.2880000000000003,9.17,-2.864,-1
613,614,1582725157065,0.08227134,0.45407772,-1.8253887,3.6710000000000003,9.484,-3.1489999999999996,-1
614,615,1582725157075,0.6111548000000001,0.50862694,-1.9336919,4.236000000000001,9.52,-3.285,-1
615,616,1582725157085,1.0245347,0.40109253,-1.4075171999999998,4.6819999999999995,9.395,-2.787,-1
616,617,1582725157095,1.0662386000000001,0.16791344,-0.8434360000000001,4.751,9.146,-2.253,-1
617,618,1582725157106,0.7655034000000001,0.04252529,-0.42150176,4.471,9.007,-1.8630000000000002,-1
618,619,1582725157116,0.14576483,0.14054012,-0.31834006,3.86,9.096,-1.7930000000000001,-1
619,620,1582725157126,-0.28450418,0.31723118,-0.69331896,3.429,9.267999999999999,-2.198,-1
620,621,1582725157136,-0.68114114,0.57240486,-0.81071067,3.032,9.52,-2.335,-1
621,622,1582725157146,-0.6420486,0.5152149,-0.94222414,3.082,9.457,-2.474,-1
622,623,1582725157156,-0.39882708,0.7335005,-0.7415861,3.3480000000000003,9.666,-2.272,d
623,624,1582725157167,0.16640878,0.7850523,-0.6641433000000001,3.946,9.704,-2.193,-1
624,625,1582725157176,0.6710571999999999,0.72121716,-0.60489047,4.488,9.623,-2.141,-1
625,626,1582725157186,1.2598655,0.82920265,-0.84051585,5.1080000000000005,9.714,-2.397,-1
626,627,1582725157196,1.3189971,0.9736594999999999,-1.1583700000000001,5.185,9.845,-2.747,-1
627,628,1582725157206,1.0296204,1.0433006,-1.6255363,4.902,9.905,-3.252,-1
628,629,1582725157216,0.5059738,1.0363235,-1.9305816000000002,4.378,9.892999999999999,-3.585,-1
629,630,1582725157227,0.2765386,0.8737792999999999,-1.5974897,4.152,9.728,-3.2569999999999997,-1
630,631,1582725157237,0.23477125,0.98427963,-0.75514746,4.121,9.838,-2.392,-1
631,632,1582725157247,0.34212947,0.83184433,0.17243469,4.246,9.685,-1.425,-1
632,633,1582725157257,0.50823975,1.0529041000000001,0.51683617,4.433,9.902999999999999,-1.046,-1
633,634,1582725157267,1.0030415000000001,1.0202608,-0.19071472,4.948,9.862,-1.75,-1
634,635,1582725157277,1.6394525000000002,1.017973,-1.387609,5.597,9.847999999999999,-2.9810000000000003,-1
635,636,1582725157288,2.2927132,1.1800518,-2.4931679,6.251,9.999,-4.145,-1
636,637,1582725157298,2.7816904,1.1831198,-3.63315,6.722,9.992,-5.379,-1
637,638,1582725157308,2.8332834,1.2466011000000001,-3.6875080000000002,6.914,10.174,-5.597,-1
638,639,1582725157318,3.1806919999999996,1.274828,-3.4727547,7.0889999999999995,10.08,-5.307,-1
639,640,1582725157328,3.4131703,1.2404203,-3.1178756,7.309,10.044,-4.986000000000001,-1
640,641,1582725157339,3.6708519999999996,0.9521885,-3.4961910000000005,7.553,9.752,-5.41,-1
641,642,1582725157348,3.6753795,0.8880520000000001,-3.877993,7.5489999999999995,9.685,-5.822,-1
642,643,1582725157358,4.348534,0.6125735999999999,-4.574274,8.202,9.402000000000001,-6.591,-1
643,644,1582725157368,5.4984875,0.7236843000000001,-6.070880000000001,9.328,9.505,-8.167,-1
644,645,1582725157378,6.6913176,0.5721215999999999,-7.148280000000001,10.487,9.35,-9.318999999999999,-1
645,646,1582725157388,6.9533377000000005,0.17919922,-7.377483,10.59,8.586,-9.465,-1
646,647,1582725157399,6.4435863,-0.5534611,-6.886644,10.118,8.25,-9.16,-1
647,648,1582725157409,5.617510299999999,-1.3942595,-5.958561,9.206,7.436,-8.265,-1
648,649,1582725157419,4.817551,-2.4059567000000004,-4.766160500000001,8.315,6.452000000000001,-7.106,-1
649,650,1582725157429,2.9838934,-3.9362807,-3.3611093,6.422999999999999,4.905,-5.846,-1
650,651,1582725157439,2.4603665,-4.073546,-3.0730453,5.827000000000001,4.569,-5.07,-1
651,652,1582725157449,2.6077797,-4.34725,-2.1335096,5.962999999999999,4.488,-4.751,-1
652,653,1582725157460,2.4896643,-4.568206299999999,-1.6924376,5.726,4.275,-4.43,-1
653,654,1582725157470,2.4440901000000004,-4.8123407,-1.8187718000000002,5.5889999999999995,4.035,-4.648,-1
654,655,1582725157480,1.9861476000000002,-5.0417404,-2.5807192000000003,5.031000000000001,3.812,-5.497999999999999,-1
655,656,1582725157490,1.0974145,-5.6387863,-2.9870212000000005,4.04,3.233,-5.954,-1
656,657,1582725157500,0.65404224,-5.755309,-3.0076144,3.549,3.1319999999999997,-5.975,-1
657,658,1582725157510,-0.58509827,-6.190901,-1.2168105,2.2030000000000003,2.7680000000000002,-4.069,-1
658,659,1582725157521,-0.8873892,-6.279771,1.8538036,1.865,2.739,-0.84,-1
659,660,1582725157531,-0.6882324000000001,-6.327789,5.0548673,2.05,2.7489999999999997,2.548,-1
660,661,1582725157541,-0.3035903,-5.876793,7.413036,2.428,3.25,5.087,-1
661,662,1582725157551,0.046483755,-5.917186,8.69159,2.7680000000000002,3.252,6.526,-1
662,663,1582725157561,-0.21325278,-5.8258285999999995,8.753881,2.488,3.3789999999999996,6.718,-1
663,664,1582725157572,-1.2253566,-5.5518575,8.475131,1.444,3.685,6.545,-1
664,665,1582725157582,-1.9092963,-5.3653830000000005,8.834352,0.737,3.906,7.042999999999999,-1
665,666,1582725157592,-2.561207,-5.1358213,10.05156,0.076,4.2,8.617,-1
666,667,1582725157602,-3.7472837,-4.9545884000000004,12.422309,-1.0959999999999999,4.421,11.309000000000001,-1
667,668,1582725157612,-4.7182198,-5.2138214000000005,14.984029000000001,-2.026,4.178999999999999,14.149000000000001,-1
668,669,1582725157622,-5.0502133,-5.218145,16.899946,-2.294,4.176,16.331,-1
669,670,1582725157633,-5.0268273,-4.959335,18.010804999999998,-2.186,4.421,17.68,-1
670,671,1582725157643,-5.187076599999999,-4.459968,18.898542000000003,-2.248,4.895,18.769000000000002,-1
671,672,1582725157653,-5.702904,-3.7828956,19.599424,-2.658,5.539,19.634,-1
672,673,1582725157663,-6.47164,-3.5826707000000004,20.233309,-3.319,5.702000000000001,20.395,-1
673,674,1582725157673,-7.2514460000000005,-3.5078419999999997,20.051672,-3.987,5.736000000000001,20.307000000000002,-1
674,675,1582725157683,-6.4671383,-3.4873847999999996,18.581331,-3.072,5.707000000000001,18.908,-1
675,676,1582725157694,-4.8702345000000005,-2.979753,16.832027,-1.317,6.152,17.227,-1
676,677,1582725157704,-3.348796,-2.2072562999999996,15.856138,0.38299999999999995,6.849,16.334,-1
677,678,1582725157714,-2.2956624,-1.8272618999999999,16.227737,1.6230000000000002,7.144,16.803,-1
678,679,1582725157724,-2.1221223,-1.0579915000000002,17.40381,1.98,7.824,18.077,-1
679,680,1582725157734,-2.0555343999999995,-0.948565,18.096779,2.224,7.843,18.848,-1
680,681,1582725157744,-1.2820313,-1.1254387,17.231125,3.173,7.575,18.022000000000002,-1
681,682,1582725157755,-0.34015083,-0.92268133,14.480845,4.291,7.685,15.275,-1
682,683,1582725157765,1.362948,-0.46506596,11.263611000000001,6.1739999999999995,8.044,12.050999999999998,-1
683,684,1582725157775,3.873353,0.1673193,7.852455,8.873,8.566,8.65,-1
684,685,1582725157785,5.5435276,0.8934726999999999,5.413768,10.732000000000001,9.172,6.26,-1
685,686,1582725157795,6.589663000000001,1.5912161,4.4906483,11.955,9.745,5.439,-1
686,687,1582725157805,7.1842429999999995,1.6333503999999999,4.6906614,12.71,9.661,5.7829999999999995,-1
687,688,1582725157816,7.1256127000000005,2.0408463,5.4926786,12.794,9.946,6.737,-1
688,689,1582725157826,7.9545903,2.2614349999999996,5.6122055,13.754000000000001,10.051,6.976,-1
689,690,1582725157836,9.924297,2.4643216,3.522213,15.85,10.147,4.948,-1
690,691,1582725157846,11.864897000000001,2.9568338,0.27910100000000004,17.909000000000002,10.545,1.714,-1
691,692,1582725157856,13.097517,3.2713895,-3.3280410000000002,19.246,10.779000000000002,-1.913,-1
692,693,1582725157867,13.686632000000001,3.5437297999999995,-6.379385,19.919,10.985,-4.981,-1
693,694,1582725157877,13.247898000000001,3.4497008,-7.8964467,19.54,10.839,-6.49,-1
694,695,1582725157887,12.188601,3.183106,-8.397053,17.817999999999998,10.253,-6.8420000000000005,-1
695,696,1582725157897,10.694410000000001,2.8683734,-8.162485,17.045,10.187999999999999,-6.6579999999999995,-1
696,697,1582725157907,10.048458,2.8062348,-7.970234,16.415,10.099,-6.404,-1
697,698,1582725157917,10.168664999999999,2.876842,-8.061299,16.555999999999997,10.142000000000001,-6.452000000000001,-1
698,699,1582725157928,11.424498,2.8705444,-9.936625999999999,17.859,10.095,-8.332,-1
699,700,1582725157938,11.975425999999999,2.9998522000000003,-11.74164,18.444000000000003,10.205,-10.187999999999999,-1
700,701,1582725157948,12.27846,2.7879509999999996,-12.84714,18.762,9.987,-11.328,-1
701,702,1582725157958,12.449522,2.1658292,-15.317955,18.958,9.363999999999999,-13.905,-1
702,703,1582725157969,11.955763000000001,1.8431249,-15.526212,17.96,8.72,-14.231,-1
703,704,1582725157979,9.964964,0.46215439999999997,-14.647174,16.444000000000003,7.704,-13.325,-1
704,705,1582725157989,8.315555999999999,-0.3415408,-13.146907,14.765,6.933,-11.86,-1
705,706,1582725157999,7.675836,-0.6689143,-12.215545,14.110999999999999,6.622000000000001,-10.95,-1
706,707,1582725158009,6.193496700000001,-1.6886014999999999,-9.67983,12.597000000000001,5.647,-8.516,-1
707,708,1582725158020,5.5367823,-2.1266022,-9.043776,11.929,5.235,-7.987,-1
708,709,1582725158029,4.9786386,-2.6841880000000002,-8.943512,11.364,4.7010000000000005,-8.017999999999999,-1
709,710,1582725158039,4.527777700000001,-3.3677057999999995,-9.567953,10.905999999999999,4.04,-8.783999999999999,-1
710,711,1582725158049,3.862342,-3.9104424,-10.525585000000001,10.229,3.52,-9.874,-1
711,712,1582725158059,2.9560307999999997,-4.779299,-10.077008,9.311,2.67,-9.536,-1
712,713,1582725158069,1.6174598,-5.629703500000001,-7.5541363,7.994,1.81,-7.153,-1
713,714,1582725158080,0.82235765,-6.2407517,-3.839984,7.261,1.1520000000000001,-3.592,-1
714,715,1582725158090,0.5830002,-6.478665400000001,-0.6953928,7.026,0.912,-0.505,-1
715,716,1582725158100,0.90904,-6.640653599999999,0.09853506,7.369,0.737,0.196,-1
716,717,1582725158110,1.8559603999999998,-6.2154875,-0.88754666,8.361,1.123,-0.9259999999999999,-1
717,718,1582725158120,2.5659819,-5.562862,-2.284657,9.309,1.551,-2.593,-1
718,719,1582725158130,2.962967,-5.283285,-2.9896974999999997,9.814,1.714,-3.511,-1
719,720,1582725158140,2.5122112999999997,-5.225937999999999,-2.207831,9.486,1.633,-2.909,-1
720,721,1582725158150,1.5304383999999998,-5.429014,-0.5191898,8.562000000000001,1.3619999999999999,-1.3,-1
721,722,1582725158160,0.44974422,-5.6430473,1.9844990000000002,7.479,1.149,1.192,-1
722,723,1582725158170,-0.35987090000000005,-5.840987,4.668775,6.667000000000001,0.955,3.889,-1
723,724,1582725158180,-0.65046406,-5.9607553,5.857104,6.382000000000001,0.831,5.091,-1
724,725,1582725158190,-1.0597496000000002,-5.740489,7.151006,6.0329999999999995,0.996,6.456,-1
725,726,1582725158200,-1.327148,-5.109707,6.303749,5.797999999999999,1.59,5.585,-1
726,727,1582725158211,-1.584835,-4.6239204,5.2635464999999995,5.566,2.042,4.488,-1
727,728,1582725158221,-1.3712006,-4.2095814,5.3900986,5.815,2.416,4.596,-1
728,729,1582725158231,-1.2988133,-4.2174044,6.8069205,5.946000000000001,2.354,6.1,-1
729,730,1582725158241,-1.6866078000000002,-4.425477,9.780294,5.685,2.035,9.477,-1
730,731,1582725158252,-2.0928712,-4.7767024000000005,13.745581,5.336,1.6230000000000002,13.584000000000001,-1
731,732,1582725158262,-3.5016993999999997,-4.9776305999999995,17.529345000000003,3.98,1.3619999999999999,17.469,-1
732,733,1582725158272,-4.9229374,-4.869947,19.818376999999998,2.615,1.403,19.811,-1
733,734,1582725158282,-5.843741400000001,-4.4255652,20.073147,1.7619999999999998,1.765,20.075,-1
734,735,1582725158292,-5.433038,-3.6847867999999995,18.683096,2.256,2.4019999999999997,18.673,-1
735,736,1582725158303,-4.7172413,-2.7642345,16.626856,3.068,3.199,16.611,-1
736,737,1582725158313,-4.053963700000001,-2.1979837000000004,15.430114000000001,3.8360000000000003,3.6260000000000003,15.44,-1
737,738,1582725158323,-3.4587277999999997,-1.815871,15.212385000000001,4.543,3.853,15.294,-1
738,739,1582725158333,-2.7490650000000003,-1.7070603,15.938170000000001,5.369,3.7910000000000004,16.135,-1
739,740,1582725158344,-2.6158276000000003,-1.4148116000000002,17.26148,5.617999999999999,3.9010000000000002,17.602999999999998,-1
740,741,1582725158354,-2.7540236,-1.0594816,18.321299,5.5920000000000005,4.066,18.815,-1
741,742,1582725158364,-2.8489522999999997,-0.49270153,18.569023,5.606,4.435,19.203,-1
742,743,1582725158374,-2.2757516,-0.17010641,17.504988,6.2860000000000005,4.552,18.259,-1
743,744,1582725158385,-1.0252805,0.16705084,15.236648,7.64,4.677,16.099,-1
744,745,1582725158395,0.3931465,0.39439250000000003,12.965098,9.156,4.687,13.943,-1
745,746,1582725158405,1.3033772,0.37936354,11.368737,10.154,4.452,12.487,-1
746,747,1582725158415,1.9545259999999998,0.25347805,10.3559,10.88,4.105,11.649000000000001,-1
747,748,1582725158425,2.4979047999999997,0.32335806,10.126432000000001,11.484000000000002,3.951,11.63,-1
748,749,1582725158436,2.739647,0.61772513,10.814525999999999,11.770999999999999,4.018,12.559000000000001,-1
749,750,1582725158446,3.0425987,0.8800533000000001,11.954956,12.104000000000001,4.052,13.955,-1
750,751,1582725158456,3.456437,0.95716214,12.276785,12.535,3.906,14.525,-1
751,752,1582725158466,3.6967964,0.8950021,11.745111,12.784,3.635,14.212,-1
752,753,1582725158476,4.0236483,0.54405856,10.176186,13.117,3.094,12.818,-1
753,754,1582725158487,5.055108000000001,0.24960017,7.706979799999999,14.504000000000001,2.33,9.165,-1
754,755,1582725158497,6.3116845999999995,0.17640662,3.5869956,15.407,2.32,6.562,-1
755,756,1582725158507,7.203346300000001,0.62543,1.4396498,16.281,2.622,4.567,-1
756,757,1582725158517,8.299744,1.4927896,0.3422637,17.344,3.345,3.65,-1
757,758,1582725158527,9.346474,2.1069279,-0.525893,18.343,3.82,2.9810000000000003,-1
758,759,1582725158538,9.454595,2.3802571,-0.8538344000000001,18.393,3.97,2.8539999999999996,-1
759,760,1582725158548,9.151511,2.4372036,-1.0817146,18.027,3.927,2.8139999999999996,-1
760,761,1582725158558,8.638081,2.5194879,-1.1907492,17.452,3.935,2.8689999999999998,-1
761,762,1582725158568,8.812775,2.925784,-1.9180651000000002,17.569000000000003,4.289,2.282,-1
762,763,1582725158579,9.571175,3.2348406,-3.7093244,18.274,4.567,0.61,-1
763,764,1582725158589,10.341478,3.5988421,-5.9413347000000005,18.994,4.9239999999999995,-1.52,-1
764,765,1582725158599,9.989087,3.6437587999999996,-7.604871000000001,18.59,4.986000000000001,-3.089,-1
765,766,1582725158609,8.396469999999999,3.208541,-8.553436999999999,16.942,4.586,-3.944,-1
766,767,1582725158619,6.455842,2.677228,-8.526502,14.94,4.095,-3.8169999999999997,-1
767,768,1582725158629,4.646779,1.9482707,-7.393771000000001,13.067,3.4,-2.5810000000000004,-1
768,769,1582725158640,2.9690304,1.3346944,-5.17554,11.333,2.8110000000000004,-0.273,-1
769,770,1582725158650,2.1380806,0.8009421999999999,-2.9811182,10.454,2.289,1.999,-1
770,771,1582725158660,2.0815248,0.7004353,-1.8810278999999999,10.347999999999999,2.191,3.18,-1
771,772,1582725158670,2.7015027999999996,0.6254581,-2.4922686,10.933,2.121,2.6239999999999997,-1
772,773,1582725158680,3.643733,0.82426536,-3.5076587,11.86,2.3369999999999997,1.6280000000000001,-1
773,774,1582725158690,4.574107,1.2122735,-4.7128309999999995,12.787,2.7560000000000002,0.419,-1
774,775,1582725158701,3.8437099999999997,1.1207557,-5.5708720000000005,12.065999999999999,2.713,-0.469,-1
775,776,1582725158711,2.4572115,0.9940778,-5.760536,10.71,2.648,-0.728,-1
776,777,1582725158721,1.1767626,0.7254156,-4.9033203,9.548,2.469,-0.102,-1
777,778,1582725158731,0.28422737,0.31466722,-3.5846415,8.681000000000001,2.093,1.159,-1
778,779,1582725158742,-0.25437737,0.31948042,-2.059263,8.135,2.1069999999999998,2.694,-1
779,780,1582725158752,-0.33844376,0.39841533,-0.72999954,8.035,2.184,4.052,-1
780,781,1582725158762,-0.16231823,0.50088775,0.14480591,8.186,2.296,4.967,-1
781,782,1582725158772,0.40726090000000004,0.7341291999999999,0.16421318,8.744,2.533,5.005,-1
782,783,1582725158782,1.0181111999999999,1.0815434,-0.46687029999999996,9.362,2.89,4.3580000000000005,-1
783,784,1582725158793,1.4297714,1.4139456,-1.3993287,9.795,3.242,3.3810000000000002,-1
784,785,1582725158803,1.220501,1.5413176000000002,-1.7861586,9.613,3.403,2.9330000000000003,-1
785,786,1582725158813,0.6500759,1.3932546000000001,-1.4818277,9.068999999999999,3.302,3.1710000000000003,-1
786,787,1582725158824,0.2616291,1.3348023999999998,-0.79606223,8.696,3.3,3.805,-1
787,788,1582725158834,-0.062360764000000006,1.269773,0.13975286,8.365,3.2689999999999997,4.739,-1
788,789,1582725158844,-0.08559418,1.4532604,0.9843540000000001,8.327,3.463,5.606,-1
789,790,1582725158854,-0.038012505,1.6132486000000001,1.2638912,8.361,3.628,5.9079999999999995,-1
790,791,1582725158864,0.37243748,1.8382113000000002,0.7514291000000001,8.765,3.858,5.405,-1
791,792,1582725158875,1.2419376,2.0794525,-0.06693792,9.639,4.105,4.5760000000000005,-1
792,793,1582725158885,2.6331043,2.6580842000000002,-0.73023486,11.045,4.699,3.8789999999999996,-1
793,794,1582725158895,2.7376642,2.7367647,-0.9178097,11.152999999999999,4.787,3.681,d
794,795,1582725158905,1.8926163,2.36592,-0.6489768,10.305,4.461,3.935,-1
795,796,1582725158915,1.3835506000000002,2.2851043,0.31823683,9.781,4.414,4.914,-1
796,797,1582725158925,1.0931778,1.9980683000000001,1.386919,9.469,4.155,6.0089999999999995,-1
797,798,1582725158936,1.0156783999999999,1.9679286,2.2810287000000002,9.369,4.152,6.931,-1
798,799,1582725158946,0.92917156,1.9709444,2.5237498,9.263,4.186,7.194,-1
799,800,1582725158956,1.3468646999999998,2.3517196,2.4704432,9.668,4.603,7.146,-1
800,801,1582725158966,2.29346,2.6739433,1.8248005,10.609000000000002,4.967,6.49,-1
801,802,1582725158976,3.2094888999999998,3.0958759999999996,0.6699023000000001,11.524000000000001,5.439,5.312,-1
802,803,1582725158987,4.268914,3.3332605,-0.19984913,12.583,5.733,4.414,-1
803,804,1582725158997,4.8460282999999995,3.925293,-0.7080445,13.152999999999999,6.385,3.887,-1
804,805,1582725159007,5.750201000000001,4.4418807000000005,-0.21586466,14.039000000000001,6.957000000000001,4.382,-1
805,806,1582725159017,6.989861500000001,5.03514,0.43144129999999997,15.251,7.601,5.051,-1
806,807,1582725159027,7.73543,5.8691225,1.7867408,15.962,8.49,6.437,-1
807,808,1582725159038,8.067658,6.376894,2.9551377,16.259,9.067,7.627999999999999,-1
808,809,1582725159048,8.070922,7.009733,4.0735154,16.233,9.788,8.746,-1
809,810,1582725159058,8.746831,7.574233,4.776414,16.889,10.459000000000001,9.419,-1
810,811,1582725159068,9.990689999999999,7.894218400000001,4.530911,18.12,10.905999999999999,9.115,-1
811,812,1582725159078,10.885671,7.628729300000001,3.9150424,19.002,10.794,8.418,-1
812,813,1582725159088,11.173972000000001,7.2122784,3.6777105000000003,19.27,10.559000000000001,8.085,-1
813,814,1582725159098,10.452639,6.6226707,3.4979214999999995,18.52,10.177999999999999,7.792999999999999,-1
814,815,1582725159108,9.252791,6.081002,3.715129,17.284000000000002,9.869,7.877000000000001,-1
815,816,1582725159118,8.705925,5.433192,3.8838396,16.695,9.469,7.891,-1
816,817,1582725159128,8.131599000000001,4.807749299999999,4.410693,16.072,9.103,8.241,-1
817,818,1582725159139,7.50017,3.9724827000000005,4.8125480000000005,15.383,8.538,8.443999999999999,-1
818,819,1582725159148,6.4001225999999996,3.072061,5.0542126,14.214,7.917000000000001,8.466000000000001,-1
819,820,1582725159158,5.3404435999999995,2.1048397999999997,4.9249019999999994,13.072000000000001,7.235,8.099,-1
820,821,1582725159168,4.205808,1.6105042,4.919927599999999,11.84,7.026,7.846,-1
821,822,1582725159178,3.6524744,1.5133739,5.006092,11.232000000000001,7.07,7.807,-1
822,823,1582725159189,3.5058703,1.0458931999999999,5.1042510000000005,10.966,6.876,7.659,-1
823,824,1582725159199,3.4503436,0.32548714,5.5796776,10.703,6.555,7.7620000000000005,-1
824,825,1582725159210,2.8460941,-0.33606290000000005,6.2014213,9.936,6.155,8.142999999999999,-1
825,826,1582725159220,2.6632338,-1.3293061000000002,6.964149000000001,9.572000000000001,5.419,8.667,-1
826,827,1582725159230,2.4018669999999998,-1.7554483,7.289623,9.213,5.12,8.873,-1
827,828,1582725159240,1.2169595,-1.8091292,8.404154,7.704,5.443,9.627,-1
828,829,1582725159251,1.3868216999999998,-1.9835086,8.539987,7.757000000000001,5.391,9.639,-1
829,830,1582725159261,0.7632121999999999,-2.935556,7.7512584,6.757999999999999,4.79,8.492,-1
830,831,1582725159271,-0.47722435,-3.368462,6.29603,5.276,4.54,7.022,-1
831,832,1582725159282,-1.7605581000000001,-3.783018,5.1354370000000005,3.7119999999999997,4.337,5.671,-1
832,833,1582725159292,-3.189012,-4.1082925999999995,5.108958,1.995,4.21,5.428999999999999,-1
833,834,1582725159302,-3.7767209999999998,-4.4478817,5.464032,1.13,4.042,5.5920000000000005,-1
834,835,1582725159312,-3.202438,-3.9399357000000004,5.586007,1.444,4.696000000000001,5.546,-1
835,836,1582725159323,-1.799618,-3.8608584,4.992396,2.603,4.9,4.806,-1
836,837,1582725159333,-1.4731623999999999,-4.3810434,4.7533197,2.6889999999999996,4.493,4.44,-1
837,838,1582725159344,-0.9158542,-4.3738017,4.6234117,3.01,4.603,4.205,-1
838,839,1582725159354,-0.792573,-4.6155972,4.1387324,2.9019999999999997,4.454,3.6260000000000003,-1
839,840,1582725159364,-1.3670038999999998,-5.16124,3.5194209,2.095,3.9939999999999998,2.9139999999999997,-1
840,841,1582725159375,-2.9171298,-5.6543339999999995,3.004736,-0.555,3.451,2.3369999999999997,-1
841,842,1582725159385,-4.6913675999999995,-6.741505999999999,3.5765371,-1.774,2.5860000000000003,2.766,-1
842,843,1582725159396,-4.644677,-7.1716869999999995,3.601825,-1.82,2.181,2.7539999999999996,-1
843,844,1582725159406,-4.8677779999999995,-7.480595599999999,3.6244172999999997,-2.208,1.913,2.699,-1
844,845,1582725159416,-4.2391877000000004,-7.6577554,2.4942625,-1.7169999999999999,1.765,1.484,-1
845,846,1582725159426,-2.8246615000000004,-7.800097,-0.14549088,-0.46399999999999997,1.652,-1.266,-1
846,847,1582725159437,-2.1904702,-7.758762,-0.47153234,0.126,1.702,-1.611,-1
847,848,1582725159447,-2.0900788,-7.850933599999999,0.19413989999999998,0.114,1.64,-0.917,-1
848,849,1582725159457,-2.992665,-7.826508500000001,1.75857,-0.852,1.6880000000000002,0.728,-1
849,850,1582725159468,-3.7024736000000003,-7.632221,3.4412727,-1.614,1.9040000000000001,2.509,-1
850,851,1582725159478,-3.9353769999999995,-7.4572363,3.9728837,-1.868,2.088,3.0869999999999997,-1
851,852,1582725159488,-4.194927,-6.859714,4.902699500000001,-2.16,2.699,4.09,-1
852,853,1582725159498,-3.4420282999999996,-6.1413717000000005,4.126405,-1.4269999999999998,3.424,3.343,-1
853,854,1582725159509,-2.6511605,-5.819456,3.4976904,0.332,4.083,1.966,-1
854,855,1582725159519,-0.008714199,-4.6930947,0.9599257,2.004,4.864,0.076,-1
855,856,1582725159529,-0.0048962829999999995,-4.146643,-0.69767386,1.992,5.407,-1.652,-1
856,857,1582725159539,-0.037773013,-3.6937032,-1.7664449,1.896,6.028,-2.7030000000000003,-1
857,858,1582725159549,-0.22329521,-3.5012502999999997,-1.3258272,1.714,6.057,-2.354,-1
858,859,1582725159560,-0.9371874,-3.4699267999999996,0.38792205,0.965,6.097,-0.625,-1
859,860,1582725159570,-1.9359967,-3.0523825,2.1612468,-0.083,6.528,1.185,-1
860,861,1582725159580,-1.795697,-2.3458357000000003,2.3065142999999995,0.033,7.24,1.338,-1
861,862,1582725159590,-0.83361906,-1.5791701999999999,1.1987016000000001,0.981,8.008,0.217,-1
862,863,1582725159600,0.38136208,-0.88540363,-0.23920882,2.1959999999999997,8.698,-1.2570000000000001,-1
863,864,1582725159611,1.1286521999999999,-0.5880642,-1.2478095,2.9960000000000004,8.974,-2.366,-1
864,865,1582725159621,1.0298947,-0.5794153000000001,-1.6037384,2.957,8.954,-2.8569999999999998,-1
865,866,1582725159631,0.5214647,-0.6959057,-0.9369433000000001,2.452,8.83,-2.241,-1
866,867,1582725159641,-0.5821010999999999,-0.68166924,0.23448908,1.307,8.856,-1.044,-1
867,868,1582725159652,-1.7846732,-0.5816307,1.3698875,0.047,8.974,0.14300000000000002,d
868,869,1582725159662,-2.3719769,-0.44079685,2.2739507999999997,-0.61,9.137,1.12,-1
869,870,1582725159672,-1.9795188000000001,-0.13423729,2.2060876,-0.285,9.465,1.1320000000000001,-1
870,871,1582725159682,-0.8103680999999999,0.34236336,1.4434017,0.838,9.958,0.447,-1
871,872,1582725159692,0.59603953,0.6693554,0.29660797,2.2680000000000002,10.280999999999999,-0.6990000000000001,-1
872,873,1582725159702,1.6273483999999998,0.91918087,-0.7548348000000001,3.3310000000000004,10.523,-1.7719999999999998,-1
873,874,1582725159713,1.8754137,1.0860108999999998,-0.9948517,3.594,10.686,-2.023,-1
874,875,1582725159723,0.87894523,0.7772522,-0.17046154,2.589,10.38,-1.187,-1
875,876,1582725159733,-0.5246006,0.5080842999999999,0.7887455,1.1420000000000001,10.123,-0.184,-1
876,877,1582725159743,-1.478241,0.35116386,1.6057540000000001,0.1,9.988999999999999,0.716,-1
877,878,1582725159753,-1.6104108999999998,0.23051453,1.8758296000000003,-0.134,9.892999999999999,1.084,-1
878,879,1582725159763,-1.3224516000000002,0.42099667,1.7251375,0.09300000000000001,10.097000000000001,0.9890000000000001,-1
879,880,1582725159774,-0.7252556,0.41637325,1.1137451999999999,0.6579999999999999,10.099,0.40399999999999997,-1
880,881,1582725159784,-0.28000855,0.48991966,0.34575188,1.092,10.174,-0.366,-1
881,882,1582725159794,0.083488464,0.4541893,0.15645117,1.456,10.138,-0.5579999999999999,-1
882,883,1582725159804,-0.059618473,0.46513176,0.17656589,1.31,10.15,-0.529,-1
883,884,1582725159814,-0.32334256,0.34608078,0.5589466,1.034,10.035,-0.114,-1
884,885,1582725159824,-0.47985804,0.14869785,1.0534843999999999,0.855,9.845,0.445,-1
885,886,1582725159835,-0.574806,0.020410538,1.2365327,0.72,9.728,0.73,-1
886,887,1582725159845,-0.6089097,-0.31890488,1.6139466999999998,0.6629999999999999,9.395,1.175,-1
887,888,1582725159855,-0.836095,-0.6420498,2.1343706,0.414,9.077,1.75,-1
888,889,1582725159865,-1.1085551000000002,-0.86053276,2.3042147,0.11900000000000001,8.863,1.963,-1
889,890,1582725159875,-1.2231889,-1.0360117,2.3988528,-0.013999999999999999,8.691,2.093,-1
890,891,1582725159886,-1.5312136,-1.1198291999999999,2.239345,-0.337,8.61,1.966,-1
891,892,1582725159896,-2.001937,-1.2715311000000002,2.3485503,-0.821,8.461,2.117,-1
892,893,1582725159906,-2.351283,-1.5757351000000002,2.9785564,-1.178,8.158999999999999,2.8089999999999997,-1
893,894,1582725159916,-2.4771786,-2.1845402999999997,3.7496462,-1.3019999999999998,7.551,3.657,-1
894,895,1582725159926,-2.3638306,-2.6506847999999996,4.2878737000000005,-1.178,7.084,4.277,-1
895,896,1582725159936,-1.9979491000000003,-3.199008,4.389928,-0.792,6.5329999999999995,4.454,-1
896,897,1582725159947,-1.7878063000000002,-3.3825697999999997,4.6203556,-0.56,6.346,4.754,-1
897,898,1582725159956,-1.9046253,-3.9492846,5.172535,-0.6609999999999999,5.776,5.379,-1
898,899,1582725159966,-3.1695125,-4.6029654,5.761184,-1.923,5.12,6.045,-1
899,900,1582725159976,-4.4683886,-5.312761,6.373629,-3.238,4.409,6.752999999999999,-1
900,901,1582725159986,-5.507619,-6.2199845,6.643464999999999,-4.315,3.5010000000000003,7.144,-1
901,902,1582725159997,-6.3313637,-7.142188000000001,6.530622,-5.185,2.577,7.1579999999999995,-1
902,903,1582725160007,-6.5601387,-8.175373,6.3621172999999995,-5.441,1.5390000000000001,7.103,-1
903,904,1582725160017,-6.2921457,-8.739861999999999,6.2449994,-5.146,0.965,7.065,-1
904,905,1582725160027,-6.098620400000001,-8.36675,6.559769999999999,-4.9,1.324,7.4670000000000005,-1
905,906,1582725160037,-4.352918,-7.977582000000001,6.813475,-3.003,1.681,7.843,-1
906,907,1582725160048,-2.9834810000000003,-7.8303323,6.6220675,-1.556,1.815,7.671,-1
907,908,1582725160058,-1.191076,-7.357548700000001,5.704509,0.402,2.26,6.77,-1
908,909,1582725160068,-1.1286973999999999,-7.112615600000001,4.886468,0.6990000000000001,2.464,5.944,-1
909,910,1582725160078,-1.6064352,-6.5803204,4.506119,0.373,2.969,5.537000000000001,-1
910,911,1582725160088,-1.5985036,-5.927517,2.8301525,0.546,3.592,3.805,-1
911,912,1582725160098,-0.30223703,-4.8454328,0.40489995,2.035,4.636,1.305,-1
912,913,1582725160109,0.96252275,-4.299509,-0.9894306,3.408,5.1579999999999995,-0.126,-1
913,914,1582725160119,3.2925947,-3.3534284,-3.5444758000000003,6.124,6.004,-2.775,-1
914,915,1582725160129,3.6737114999999996,-3.023303,-3.6099004999999997,6.895,6.215,-2.9410000000000003,-1
915,916,1582725160139,4.0834007,-2.559658,-2.6795788,7.68,6.54,-2.023,-1
916,917,1582725160150,4.700564,-1.5194558999999999,-1.5159770000000001,8.571,7.46,-0.768,-1
917,918,1582725160160,6.189488,-0.72085094,-0.7691529,10.302999999999999,8.14,0.08800000000000001,-1
918,919,1582725160170,7.875621000000001,0.45992374,-1.2781694,12.219000000000001,9.201,-0.33,-1
919,920,1582725160180,9.269623,1.4248066000000001,-3.0919437000000003,13.831,10.047,-2.081,-1
920,921,1582725160190,9.529082,1.8282003,-5.4124446,14.290999999999999,10.335999999999999,-4.3580000000000005,-1
921,922,1582725160200,9.643047,2.0863066000000003,-7.582758,14.585,10.485,-6.483,-1
922,923,1582725160210,9.072744,2.4260206,-8.813478,14.173,10.72,-7.644,-1
923,924,1582725160220,8.970819,2.6473082999999997,-8.556469,14.212,10.837,-7.28,-1
924,925,1582725160230,9.662517,3.1311102,-7.730638000000001,15.035,11.213,-6.32,-1
925,926,1582725160241,10.809107000000001,3.5919852,-7.188097999999999,16.305,11.565,-5.64,-1
926,927,1582725160251,11.944807,3.6482352999999996,-7.679935,17.555,11.517000000000001,-6.013,-1
927,928,1582725160261,12.270662,3.8142476000000003,-7.894853599999999,17.933,11.635,-6.178999999999999,-1
928,929,1582725160271,11.704426,3.2761211,-9.283192,17.498,10.975999999999999,-7.462000000000001,-1
929,930,1582725160281,11.297709,3.0455002999999996,-10.406654,17.16,10.681,-8.535,-1
930,931,1582725160292,10.732472,2.6692562,-11.169677,16.65,10.248,-9.242,-1
931,932,1582725160302,10.296158,2.4391804,-11.335194,16.257,9.965,-9.335,-1
932,933,1582725160312,9.546858,2.2950597000000004,-10.851053,15.540999999999999,9.769,-8.758,-1
933,934,1582725160323,9.3423195,2.0293503,-10.014845,15.364,9.45,-7.814,-1
934,935,1582725160333,9.137352,1.7743238999999997,-9.18396,15.184000000000001,9.141,-6.872999999999999,-1
935,936,1582725160343,9.201376,1.5929246000000001,-8.634406,15.273,8.907,-6.224,-1
936,937,1582725160353,9.687911999999999,1.3585606000000001,-8.145847,15.785,8.624,-5.654,-1
937,938,1582725160364,9.703189,1.0002513000000002,-7.598858,15.823,8.226,-5.048,-1
938,939,1582725160374,9.458382,0.31297493,-7.2992477,15.597999999999999,7.51,-4.715,-1
939,940,1582725160384,9.011161,0.13035774,-7.501758000000001,15.167,7.309,-4.905,-1
940,941,1582725160394,7.8461046,-0.35790253,-7.301939999999999,14.013,6.809,-4.699,-1
941,942,1582725160404,6.3592434,-0.9074620999999999,-6.5271306,12.537,6.246,-3.9130000000000003,-1
942,943,1582725160414,5.361763,-1.2424068000000001,-5.326604,11.558,5.888999999999999,-2.696,-1
943,944,1582725160425,4.8417544,-1.7105856,-4.146066,11.074000000000002,5.3839999999999995,-1.501,-1
944,945,1582725160435,4.814123599999999,-1.8548188,-3.3911697999999997,11.5,5.034,-0.39899999999999997,-1
945,946,1582725160445,5.7170190000000005,-1.8099851999999998,-2.7564135,12.068,5.178,-0.11,-1
946,947,1582725160455,7.404706,-1.7051206,-2.2048132000000003,13.824000000000002,5.228,0.42100000000000004,-1
947,948,1582725160465,7.999799,-1.2026958,-1.0225799999999998,14.482000000000001,5.685,1.568,-1
948,949,1582725160476,7.024744500000001,-1.2866568999999999,0.78874683,13.558,5.57,3.333,-1
949,950,1582725160486,5.684658,-1.6268486999999998,3.5781112,12.279000000000002,5.197,6.0520000000000005,-1
950,951,1582725160496,5.310318,-1.6616306,4.4485225999999995,11.922,5.151,6.907,-1
951,952,1582725160506,4.48567,-1.3144627,6.4890695,11.127,5.472,8.94,-1
952,953,1582725160516,3.7160125,-0.82818365,9.941692999999999,10.401,5.906000000000001,12.418,-1
953,954,1582725160526,3.7808657,-0.63409567,11.159506,10.482999999999999,6.08,13.644,-1
954,955,1582725160536,4.999688,0.31526232,14.85189,11.761,6.974,17.325,-1
955,956,1582725160546,5.414582,0.7232156,15.382417000000002,12.195,7.369,17.838,-1
956,957,1582725160556,5.6580133,1.489768,15.714125,12.466,8.123,18.127,-1
957,958,1582725160566,4.5178075,2.1053,16.652779000000002,11.333,8.744,19.03,-1
958,959,1582725160577,2.4201398,2.5779523999999996,18.974464,9.211,9.251,21.325,-1
959,960,1582725160587,1.6708951,2.7773293999999997,20.467136,8.432,9.486,22.802,-1
960,961,1582725160597,1.5346045,2.7730136,20.863813,8.26,9.527000000000001,23.171,-1
961,962,1582725160607,1.6753855,3.1435103,19.932980999999998,8.357999999999999,9.953,22.201,-1
962,963,1582725160617,2.27568,3.3883642999999997,18.661339,8.907,10.262,20.886,-1
963,964,1582725160628,2.4342966,3.4031892,17.080788000000002,9.0,10.353,19.262999999999998,-1
964,965,1582725160638,2.0705723999999996,3.308186,15.462648999999999,8.552,10.347999999999999,17.608,-1
965,966,1582725160648,1.92098,3.0616383999999996,14.243169,8.301,10.202,16.36,-1
966,967,1582725160658,1.754879,2.651033,13.35875,8.017999999999999,9.901,15.452,-1
967,968,1582725160669,1.4262719,2.1509085,12.396898,7.558,9.52,14.463,-1
968,969,1582725160679,0.9693226999999999,1.6288508999999998,11.095774,6.957000000000001,9.125,13.127,-1
969,970,1582725160689,0.22238731,1.0248537,9.509492999999999,6.053999999999999,8.652999999999999,11.503,-1
970,971,1582725160699,-0.6345314999999999,0.7343611999999999,8.220225,5.031000000000001,8.495,10.181000000000001,-1
971,972,1582725160709,-0.55199146,0.50510216,6.6394267000000005,4.945,8.392000000000001,8.576,-1
972,973,1582725160720,0.41652298,0.45607567,5.065297,5.75,8.459,6.983,-1
973,974,1582725160730,1.3590754999999999,0.6325741,3.5611410000000006,6.5329999999999995,8.744,5.46,-1
974,975,1582725160740,1.9141636000000002,0.65070534,2.0503186999999996,6.928,8.866,3.932,-1
975,976,1582725160750,2.1595072999999996,0.4075184,0.9830123,7.0120000000000005,8.722000000000001,2.852,-1
976,977,1582725160761,1.8149962,0.39828873,0.648734,6.5,8.808,2.519,-1
977,978,1582725160771,1.2484107,0.22961426,0.6708670999999999,5.76,8.729,2.562,-1
978,979,1582725160781,0.61747456,-0.08488846,1.6029226,4.952,8.495,3.5439999999999996,-1
979,980,1582725160791,0.26693487,-0.29237843,3.23414,4.418,8.363,5.24,-1
980,981,1582725160802,0.7460594,-0.372118,4.0113688,4.725,8.357999999999999,6.042000000000001,-1
981,982,1582725160812,1.604465,-0.7147598000000001,3.7741230000000003,5.428999999999999,8.09,5.779,-1
982,983,1582725160822,1.7495677,-0.9531745999999999,2.6314769,5.434,7.925,4.574,-1
983,984,1582725160832,2.0338995,-1.0284461999999999,1.2482523,5.606,7.915,3.0989999999999998,-1
984,985,1582725160842,1.7334585,-1.3724542,0.12415862,5.221,7.627999999999999,1.8559999999999999,-1
985,986,1582725160853,1.3919573,-1.6806086999999998,-0.08324695,4.734,7.398,1.5230000000000001,-1
986,987,1582725160863,0.96941066,-1.9029455000000002,0.31792605,4.15,7.252000000000001,1.815,-1
987,988,1582725160873,0.8522744000000001,-2.3371444,1.0278432,3.87,6.888,2.428,-1
988,989,1582725160883,0.93496704,-2.6221104,1.0291843,3.7960000000000003,6.667000000000001,2.332,-1
989,990,1582725160893,0.9515640999999999,-2.8806279999999997,0.7351260000000001,3.661,6.468,1.932,-1
990,991,1582725160903,1.1698937,-3.176898,0.12844992,3.733,6.227,1.209,-1
991,992,1582725160913,1.340198,-3.5845040999999997,-0.20393842,3.762,5.87,0.754,-1
992,993,1582725160923,1.7675078000000002,-4.0814424,-0.5265141,4.052,5.419,0.306,-1
993,994,1582725160934,1.4918694,-4.504001000000001,-0.9720163,3.638,5.039,-0.268,-1
994,995,1582725160944,0.88087535,-4.95279,-1.8394718,2.888,4.629,-1.264,-1
995,996,1582725160954,0.4273541,-5.130243,-2.6029205,2.301,4.485,-2.148,-1
996,997,1582725160964,-0.2708032,-5.361283,-3.0921977000000003,0.9840000000000001,4.196000000000001,-2.866,-1
997,998,1582725160975,-1.3862271000000002,-5.8282647,-3.4505148,0.191,3.8480000000000003,-3.221,-1
998,999,1582725160985,-1.8629852999999998,-6.351791,-2.696745,-0.38299999999999995,3.341,-2.524,-1
999,1000,1582725160995,-1.9027,-6.714778,-1.6873835,-0.505,2.991,-1.5659999999999998,-1
1000,1001,1582725161005,-1.5596492,-6.928229300000001,-1.5994191999999998,-0.198,2.783,-1.508,-1
1001,1002,1582725161016,-0.860498,-7.366002000000001,-2.6028137000000005,0.402,2.359,-2.6319999999999997,-1
1002,1003,1582725161026,-0.7094767,-7.5944667,-4.0470904999999995,0.488,2.138,-4.172,-1
1003,1004,1582725161036,-1.4911575000000001,-7.7709546000000005,-5.128685,-0.361,1.9680000000000002,-5.343,-1
1004,1005,1582725161046,-2.3708353,-8.032662,-5.2227334999999995,-1.307,1.712,-5.506,-1
1005,1006,1582725161056,-3.1801133,-8.147353,-4.8699355,-2.174,1.6019999999999999,-5.199,-1
1006,1007,1582725161067,-3.975741,-8.483875999999999,-4.526123999999999,-3.015,1.2690000000000001,-4.885,-1
1007,1008,1582725161077,-4.392542400000001,-8.634814,-4.2990584,-3.46,1.12,-4.678999999999999,-1
1008,1009,1582725161087,-4.4104705,-8.8859415,-4.2016344000000005,-3.487,0.8690000000000001,-4.6,-1
1009,1010,1582725161097,-4.136274299999999,-9.200258,-4.668423000000001,-3.2039999999999997,0.5529999999999999,-5.087,-1
1010,1011,1582725161108,-3.7104287000000005,-9.557172999999999,-5.4030485,-2.7560000000000002,0.193,-5.843,-1
1011,1012,1582725161118,-3.4549584,-9.947257,-6.088037,-2.469,-0.201,-6.545,-1
1012,1013,1582725161128,-4.1685634,-10.446285000000001,-6.7389600000000005,-3.1510000000000002,-0.7040000000000001,-7.211,-1
1013,1014,1582725161138,-5.0390625,-10.935932000000001,-6.544693,-3.99,-1.197,-7.017,-1
1014,1015,1582725161149,-5.392077,-11.525899,-5.4080234,-4.279,-1.791,-5.812,-1
1015,1016,1582725161159,-6.113497,-12.083677999999999,-3.9213032999999995,-4.905,-2.356,-4.208,-1
1016,1017,1582725161170,-6.3866396,-12.427593,-2.395633,-5.055,-2.713,-2.55,-1
1017,1018,1582725161180,-5.9367085,-12.751560000000001,-1.362288,-4.452,-3.0580000000000003,-1.393,-1
1018,1019,1582725161190,-5.2528615,-12.910879,-1.8458221000000001,-3.5869999999999997,-3.247,-1.777,-1
1019,1020,1582725161200,-4.4657116,-13.071627000000001,-3.1478407,-2.596,-3.446,-3.0,-1
1020,1021,1582725161210,-3.5266013,-13.430585,-4.6270074999999995,-1.432,-3.853,-4.397,-1
1021,1022,1582725161221,-3.1005757000000003,-13.782862,-5.015061,-0.764,-4.265,-4.667,-1
1022,1023,1582725161231,-4.237466,-13.952445999999998,-3.9503087999999997,-1.6469999999999998,-4.5089999999999995,-3.42,-1
1023,1024,1582725161241,-5.234619599999999,-14.448913000000001,-1.7543354,-2.373,-5.101,-0.981,-1
1024,1025,1582725161251,-5.649418,-14.071125,2.9157802999999998,-2.327,-4.921,4.102,-1
1025,1026,1582725161261,-4.2372274,-13.894326999999999,4.2967615,-0.5579999999999999,-4.919,5.7379999999999995,-1
1026,1027,1582725161272,-3.325914,-13.744167000000001,4.0755514999999995,0.5479999999999999,-4.869,5.622999999999999,-1
1027,1028,1582725161282,-0.60175943,-13.669375,0.63216794,3.8939999999999997,-5.1370000000000005,2.4090000000000003,-1
1028,1029,1582725161292,0.56154346,-13.457006,-0.9730678,6.5089999999999995,-4.773,-0.5429999999999999,-1
1029,1030,1582725161302,3.0555735,-11.376844,-3.7199621,8.638,-3.57,-1.705,-1
1030,1031,1582725161312,4.595207,-10.210476,-2.70017,10.751,-2.9019999999999997,-0.495,-1
1031,1032,1582725161323,6.198205000000001,-9.306044,0.19465518,12.77,-2.469,2.6919999999999997,-1
1032,1033,1582725161333,7.883791,-8.602638,4.974284,14.817,-2.2680000000000002,7.797999999999999,-1
1033,1034,1582725161343,10.919638,-7.59157,10.109463,18.19,-1.801,13.237,-1
1034,1035,1582725161353,14.240132999999998,-5.8885293,13.153398499999998,21.825,-0.6629999999999999,16.52,-1
1035,1036,1582725161363,16.540582999999998,-4.1356163,13.059113499999999,24.405,0.5429999999999999,16.585,-1
1036,1037,1582725161374,16.180515,-1.1574666999999998,11.098734,24.28,3.017,14.724,-1
1037,1038,1582725161384,15.75337,1.1094111999999998,9.186287,24.045,4.816,12.885,-1
1038,1039,1582725161394,15.419597,2.9352007,7.820662,23.866,6.193,11.591,-1
1039,1040,1582725161404,15.281220999999999,3.6105015,7.288713499999999,23.791999999999998,6.648,11.097999999999999,-1
1040,1041,1582725161414,16.138054,4.573682,5.805541000000001,24.798000000000002,6.952000000000001,9.745,-1
1041,1042,1582725161425,16.159817,5.2034139999999995,6.9304047,24.886,7.141,10.964,-1
1042,1043,1582725161434,15.317695,5.3773327,9.398563000000001,24.089000000000002,6.885,13.517000000000001,-1
1043,1044,1582725161444,15.432182999999998,6.336485,11.276123,24.237,7.443,15.45,-1
1044,1045,1582725161454,15.738995999999998,7.0680985,11.663029,24.558000000000003,7.989,15.852,-1
1045,1046,1582725161464,16.035164,8.673852,9.580025,24.884,9.125,13.783,-1
1046,1047,1582725161474,15.116626,9.34643,7.2004447,23.976,9.56,11.4,-1
1047,1048,1582725161485,14.193677,9.48232,5.3536167,23.059,9.501,9.546,-1
1048,1049,1582725161495,12.900003,9.393427,4.1327243,21.768,9.249,8.317,-1
1049,1050,1582725161505,12.351366,9.345772,3.6540790000000003,21.219,9.129,7.836,-1
1050,1051,1582725161515,10.357128,8.716743,3.3322148,19.212,8.31,7.527,-1
1051,1052,1582725161526,8.576269,8.245026,4.873914,17.414,7.731,9.093,-1
1052,1053,1582725161536,7.627150500000001,7.510491,6.2226205000000006,16.444000000000003,6.904,10.472999999999999,-1
1053,1054,1582725161546,6.7228449999999995,6.837670299999999,5.9301953,15.517000000000001,6.162000000000001,10.217,-1
1054,1055,1582725161556,6.3815374,6.5932174,5.2910843000000005,15.165,5.894,9.596,-1
1055,1056,1582725161567,5.445239,5.8701434,3.1138396,14.207,5.142,7.457999999999999,-1
1056,1057,1582725161576,5.1270055999999995,5.505599,2.5258374,13.886,4.78,6.876,-1
1057,1058,1582725161586,4.127034,4.7360086,0.9375558,12.889000000000001,4.0489999999999995,5.287999999999999,-1
1058,1059,1582725161596,3.1808843999999996,4.1235876000000005,0.17075872,11.950999999999999,3.484,4.512,-1
1059,1060,1582725161606,2.555151,3.9162292,0.108956814,11.33,3.307,4.445,-1
1060,1061,1582725161617,0.92185307,2.9655267999999997,0.25027752,9.709,2.471,4.5760000000000005,-1
1061,1062,1582725161627,0.21470737,2.3324416,0.69293594,8.998,1.93,5.0360000000000005,-1
1062,1063,1582725161637,-0.044944763,1.9535446,0.9287629000000001,8.722000000000001,1.64,5.312,-1
1063,1064,1582725161647,0.0011310577,1.6912183999999997,1.0543022,8.746,1.4509999999999998,5.486000000000001,-1
1064,1065,1582725161657,0.5682421,1.4798783000000002,1.1353087,9.299,1.286,5.597,-1
1065,1066,1582725161668,1.018753,1.162196,0.68978596,9.747,1.01,5.1579999999999995,-1
1066,1067,1582725161678,0.840785,1.0281603000000001,-0.24333286,9.58,0.934,4.205,-1
1067,1068,1582725161688,0.6616820999999999,0.9305475000000001,-1.0666802,9.433,0.917,3.319,-1
1068,1069,1582725161698,0.24699116,0.7863401,-0.9554148000000001,9.062000000000001,0.8690000000000001,3.341,-1
1069,1070,1582725161708,-0.26996517,0.5144813,-0.56863093,8.557,0.644,3.702,-1
1070,1071,1582725161718,-0.72013664,0.420601,0.4032688,8.099,0.581,4.689,-1
1071,1072,1582725161728,-0.64350414,0.27497786,1.0917573,8.131,0.46399999999999997,5.4670000000000005,-1
1072,1073,1582725161738,-0.5557213000000001,0.29309914,1.2366343000000002,8.2,0.49,5.649,-1
1073,1074,1582725161748,0.15185165,0.34277856,1.4640613,8.873,0.5479999999999999,5.944,-1
1074,1075,1582725161759,0.69419,0.5259142,1.0126028,9.402000000000001,0.74,5.518,-1
1075,1076,1582725161769,0.82600784,0.69631386,0.28322363,9.529,0.929,4.797,-1
1076,1077,1582725161779,0.7932625,0.70412725,-0.6278343000000001,9.501,0.9690000000000001,3.875,-1
1077,1078,1582725161789,0.67069626,0.66404134,-0.8361194,9.39,0.965,3.642,-1
1078,1079,1582725161800,0.6111021,0.6916952,-0.6630027,9.338,1.025,3.798,-1
1079,1080,1582725161810,0.70280075,0.7349258000000001,0.10530329,9.424,1.087,4.5760000000000005,-1
1080,1081,1582725161820,0.76624966,0.9432271999999999,1.1629361999999999,9.474,1.305,5.659,-1
1081,1082,1582725161830,0.8160248000000001,1.1042608999999999,1.6450839,9.51,1.475,6.167000000000001,-1
1082,1083,1582725161840,1.0752039,1.201689,1.4806075,9.759,1.585,6.021,-1
1083,1084,1582725161851,1.4092216,1.1970702,1.298737,10.085,1.597,5.853,-1
1084,1085,1582725161861,1.6725464,1.1635064,1.0237694,10.447000000000001,1.5419999999999998,5.372000000000001,-1
1085,1086,1582725161871,1.7767754,1.1813879999999999,0.8118472,10.43,1.6230000000000002,5.405,d
1086,1087,1582725161881,1.9937267,1.229444,0.9996166,10.619000000000002,1.702,5.642,-1
1087,1088,1582725161892,2.4417438999999996,1.4806312,1.8187695,11.045,1.9709999999999999,6.5,-1
1088,1089,1582725161902,2.6545172000000004,1.6051348,2.2070255000000003,11.247,2.105,6.907,-1
1089,1090,1582725161912,3.2345676,2.058189,3.0111232000000006,11.802,2.6,7.752000000000001,-1
1090,1091,1582725161923,3.5397089999999998,2.275368,3.0681567000000003,12.097000000000001,2.862,7.822,-1
1091,1092,1582725161933,4.0653095,2.2920563,3.0679731,12.616,2.938,7.8260000000000005,-1
1092,1093,1582725161943,4.314081,2.544493,2.8170595,12.857999999999999,3.262,7.577000000000001,-1
1093,1094,1582725161953,4.643695,3.0792747000000005,2.7928796,13.175,3.875,7.563,-1
1094,1095,1582725161964,4.8790483,3.8487525000000002,3.3435884,13.388,4.7219999999999995,8.14,-1
1095,1096,1582725161973,5.798394,4.5044355000000005,4.1029544,14.276,5.455,8.94,-1
1096,1097,1582725161983,6.751515400000001,5.0920334,4.598075,15.190999999999999,6.127999999999999,9.484,-1
1097,1098,1582725161993,7.870061,5.475011,4.7039,16.269000000000002,6.612,9.637,-1
1098,1099,1582725162003,8.319055,5.555889,4.690678599999999,16.698,6.751,9.644,-1
1099,1100,1582725162013,9.152173,5.7778816,5.510811,17.474,7.187,10.504000000000001,-1
1100,1101,1582725162024,9.406452999999999,5.7730017,5.5271163,17.692,7.364,10.526,-1
1101,1102,1582725162034,9.195555,5.470712000000001,5.1216707,17.445,7.28,10.106,-1
1102,1103,1582725162044,8.259215,5.2132688,4.190148000000001,16.47,7.273,9.141,-1
1103,1104,1582725162054,7.260294999999999,4.9515386,3.295899,15.423,7.28,8.207,-1
1104,1105,1582725162065,6.800828999999999,4.5032252999999995,2.8596,14.901,7.103,7.7379999999999995,-1
1105,1106,1582725162075,6.671367599999999,3.987454,2.8073262999999997,14.693,6.854,7.666,-1
1106,1107,1582725162085,6.975046000000001,3.5828697999999997,3.5831422999999996,14.905999999999999,6.712999999999999,8.427999999999999,-1
1107,1108,1582725162095,7.611936599999999,3.0206435000000003,5.0701942,15.447000000000001,6.417999999999999,9.891,-1
1108,1109,1582725162105,7.9801020000000005,2.3632815,6.061115,15.72,6.047000000000001,10.825,-1
1109,1110,1582725162116,7.744235499999999,1.4956274,6.2890690000000005,15.388,5.497999999999999,10.95,-1
1110,1111,1582725162126,7.1808033,0.84994936,5.0325956,14.719000000000001,5.206,9.546,-1
1111,1112,1582725162136,6.1037300000000005,0.29618835,2.7660560000000003,13.519,5.031000000000001,7.098,-1
1112,1113,1582725162146,5.1869044,-0.38421488,0.8979311,12.460999999999999,4.732,5.031000000000001,-1
1113,1114,1582725162157,4.216810700000001,-0.8792529,0.2781546,11.333,4.603,4.212,-1
1114,1115,1582725162167,3.1289768,-1.1314301000000002,0.7416351,10.073,4.691,4.49,-1
1115,1116,1582725162177,2.3353796,-0.99674416,1.9442494,9.093,5.138999999999999,5.53,-1
1116,1117,1582725162187,2.0820602999999998,-1.3581681,2.9774317999999997,8.642999999999999,5.07,6.412999999999999,-1
1117,1118,1582725162198,1.7642179,-2.4462947999999995,3.1359236,8.032,4.382,6.3389999999999995,-1
1118,1119,1582725162208,1.5706548999999999,-2.5772576000000003,2.741098,7.747000000000001,4.37,5.865,-1
1119,1120,1582725162218,0.65667963,-2.8311447999999997,1.7733919999999999,6.662000000000001,4.33,4.744,-1
1120,1121,1582725162228,0.0009784697999999999,-2.9780335,1.046634,5.8,4.437,3.7960000000000003,-1
1121,1122,1582725162238,-0.36842585,-3.0143871,0.28175116,5.212999999999999,4.646,2.799,-1
1122,1123,1582725162248,-0.4161439,-3.4283934,-0.6853875,4.828,4.56,1.518,-1
1123,1124,1582725162258,-0.7049321999999999,-3.5899034,-0.6628221,4.423,4.497,1.453,-1
1124,1125,1582725162268,-1.3560731000000001,-4.098123,-0.3445145,3.537,4.169,1.626,-1
1125,1126,1582725162278,-2.0973153,-4.289822,0.2406137,2.565,4.136,2.095,-1
1126,1127,1582725162288,-2.8010973999999997,-4.5842304,0.5117911,1.64,3.9819999999999998,2.263,-1
1127,1128,1582725162298,-2.8919048,-5.072491599999999,1.2673867,1.3430000000000002,3.6180000000000003,2.9139999999999997,-1
1128,1129,1582725162309,-3.0716228,-5.577088400000001,1.7581513,0.972,3.2260000000000004,3.283,-1
1129,1130,1582725162319,-3.3753312000000006,-6.227705,1.7150025000000002,0.49,2.68,3.0869999999999997,-1
1130,1131,1582725162329,-3.5021057,-6.293329,1.0008479,0.196,2.7110000000000003,2.191,-1
1131,1132,1582725162339,-1.8532766,-6.335644,-1.0768726999999998,1.611,2.7939999999999996,-0.172,-1
1132,1133,1582725162349,-1.4933903999999998,-6.4066343,-1.9023815,1.817,2.7939999999999996,-1.1540000000000001,-1
1133,1134,1582725162360,-1.8194805,-6.4430190000000005,-1.9066349999999999,1.413,2.79,-1.219,-1
1134,1135,1582725162370,-2.5549352,-6.800320599999999,-0.711001,0.45,2.517,-0.138,-1
1135,1136,1582725162380,-3.1212177000000003,-6.7765822,0.26041210000000004,-0.253,2.5860000000000003,0.795,-1
1136,1137,1582725162390,-3.4367647000000003,-6.5307059999999995,1.3122806999999999,-0.687,2.8689999999999998,1.817,-1
1137,1138,1582725162400,-3.390836,-6.611330000000001,1.5978896999999999,-0.6920000000000001,2.804,2.086,-1
1138,1139,1582725162411,-2.6220376,-6.056756,1.6120762,-0.045,3.3960000000000004,2.03,-1
1139,1140,1582725162421,-0.7854531,-5.611706,0.5949091,1.7309999999999999,3.86,0.948,-1
1140,1141,1582725162431,0.37551045,-5.357983,-0.47275847,2.835,4.131,-0.18899999999999997,-1
1141,1142,1582725162441,0.34423709999999996,-5.0916276,-1.0548275,2.737,4.416,-0.831,-1
1142,1143,1582725162451,0.022767782,-5.042402,-1.1065774,2.339,4.485,-0.922,-1
1143,1144,1582725162461,-0.40768445,-5.162134,-0.5217668,1.827,4.385,-0.35200000000000004,-1
1144,1145,1582725162472,-1.3435997,-4.9964547,0.41728127,0.8109999999999999,4.569,0.591,-1
1145,1146,1582725162482,-1.8456317,-4.664808,1.6218853000000002,0.239,4.916,1.8030000000000002,-1
1146,1147,1582725162492,-1.4239962,-4.1062927,1.9717301999999999,0.608,5.486000000000001,2.1430000000000002,-1
1147,1148,1582725162502,-0.7485932,-3.4679723,1.2112483,1.245,6.132999999999999,1.3430000000000002,-1
1148,1149,1582725162513,-0.5524861999999999,-2.938448,-0.28107750000000004,1.4080000000000001,6.67,-0.213,-1
1149,1150,1582725162523,0.016847372,-2.516827,-1.6716769,1.9469999999999998,7.098,-1.676,-1
1150,1151,1582725162533,0.5609354999999999,-2.4089417,-2.7802446,2.464,7.211,-2.8539999999999996,-1
1151,1152,1582725162543,0.36124122,-2.1997847999999998,-2.8810740000000004,2.2319999999999998,7.426,-3.003,-1
1152,1153,1582725162554,0.005216837,-2.108767,-1.8106529999999998,1.834,7.525,-1.939,-1
1153,1154,1582725162563,-0.4780451,-2.0901933,-0.39885232,1.3019999999999998,7.553,-0.502,-1
1154,1155,1582725162573,-1.1619841999999998,-1.5751162,0.07966191,0.565,8.078,0.006999999999999999,-1
1155,1156,1582725162583,-1.2971358,-1.2277241,0.048757777,0.376,8.435,-0.004,-1
1156,1157,1582725162593,-0.8049957,-0.8984833000000001,0.25890905,0.823,8.772,0.217,d
1157,1158,1582725162604,-0.050652265999999994,-0.51052284,-0.0996971,1.547,9.165,-0.146,-1
1158,1159,1582725162614,0.7408439,-0.21799755,-0.7593981,2.351,9.455,-0.8640000000000001,-1
1159,1160,1582725162624,1.0175684999999999,-0.053907394000000004,-1.1643546,2.641,9.616,-1.331,-1
1160,1161,1582725162634,0.5395857,0.08420086,-0.87998515,2.141,9.757,-1.087,-1
1161,1162,1582725162644,-0.010901451000000001,-0.23129845,-0.2645989,1.537,9.45,-0.48100000000000004,-1
1162,1163,1582725162655,-0.7495582,-0.39489746,0.28876072,0.72,9.299,0.091,-1
1163,1164,1582725162665,-1.3440638,-0.36169434,0.6396214,0.027999999999999997,9.347000000000001,0.469,-1
1164,1165,1582725162675,-1.43117,-0.5411949,0.4451880999999999,-0.14800000000000002,9.18,0.29600000000000004,-1
1165,1166,1582725162685,-1.2666357,-0.58678246,0.09798809,-0.057,9.144,-0.04,-1
1166,1167,1582725162695,-1.1556442,-0.39442348,0.2595849,-0.016,9.345,0.136,-1
1167,1168,1582725162705,-1.0829521,-0.6001681999999999,0.624945,0.0,9.146,0.526,-1
1168,1169,1582725162715,-1.1317458,-0.85319805,0.7385288000000001,-0.102,8.899,0.67,-1
1169,1170,1582725162725,-1.5462577,-1.1288757,1.2146778999999999,-0.57,8.629,1.18,-1
1170,1171,1582725162736,-2.0045133,-1.2286329,1.6582293999999997,-1.087,8.535,1.666,-1
1171,1172,1582725162746,-2.4478111,-1.5330706,2.4120543,-1.5919999999999999,8.236,2.469,-1
1172,1173,1582725162756,-2.8613749,-1.7819904999999998,3.0190916000000003,-2.069,7.992000000000001,3.127,-1
1173,1174,1582725162766,-2.6534758,-1.9296241000000003,2.9971229999999998,-1.913,7.848,3.139,-1
1174,1175,1582725162777,-2.5031555,-2.3580522999999998,2.1973214,-1.796,7.422000000000001,2.342,-1
1175,1176,1582725162787,-2.5342588,-2.6187115000000003,1.2014871,-1.848,7.162999999999999,1.334,-1
1176,1177,1582725162797,-2.8805110000000003,-3.0095357999999997,0.61014706,-2.205,6.773,0.737,-1
1177,1178,1582725162807,-3.4537406,-3.55542,0.5289738,-2.78,6.227,0.6729999999999999,-1
1178,1179,1582725162818,-3.712906,-3.9707197999999995,1.0994338,-3.0269999999999997,5.81,1.2930000000000001,-1
1179,1180,1582725162828,-3.9160771,-4.7330403,2.866925,-3.187,5.041,3.194,-1
1180,1181,1582725162838,-3.7448894999999998,-5.146529699999999,3.7024602999999994,-2.9960000000000004,4.624,4.085,-1
1181,1182,1582725162848,-3.7788013999999994,-6.167268,5.8399095999999995,-2.969,3.59,6.397,-1
1182,1183,1582725162858,-4.0009274,-7.0538883000000006,6.289772,-3.1510000000000002,2.694,6.943,-1
1183,1184,1582725162868,-4.988914,-7.548814,6.228478400000001,-4.1,2.191,6.947,-1
1184,1185,1582725162879,-6.168197599999999,-7.9926759999999994,5.509583,-5.245,1.7409999999999999,6.267,-1
1185,1186,1582725162889,-7.009314,-8.341566,4.6312604,-6.035,1.386,5.403,-1
1186,1187,1582725162899,-7.2546729999999995,-8.447311000000001,4.29974,-6.242999999999999,1.276,5.077,-1
1187,1188,1582725162909,-7.200162,-8.752661999999999,4.718357,-6.03,0.948,5.553999999999999,-1
1188,1189,1582725162919,-6.3941245,-8.818411,5.490542400000001,-5.065,0.855,6.401,-1
1189,1190,1582725162930,-5.6600589999999995,-8.263098,6.0013094,-4.133,1.3719999999999999,7.002999999999999,-1
1190,1191,1582725162940,-3.8040042,-7.6210184000000005,6.4024779999999994,-2.033,1.963,7.489,-1
1191,1192,1582725162950,-1.8386846000000001,-6.6222449999999995,6.6489806,0.21,2.897,7.814,-1
1192,1193,1582725162960,0.785954,-5.855392500000001,5.7978864,3.142,3.585,7.022,-1
1193,1194,1582725162970,2.44119,-5.325806,3.7659674,5.113,4.03,4.9910000000000005,-1
1194,1195,1582725162981,3.1192849,-4.4108977,1.2527016000000002,6.097,4.857,2.44,-1
1195,1196,1582725162991,3.7794830000000004,-3.0318422000000003,-0.33970982,7.122000000000001,6.1160000000000005,0.807,-1
1196,1197,1582725163001,4.564366000000001,-1.6227688999999998,-1.660289,8.274,7.388,-0.5579999999999999,-1
1197,1198,1582725163011,5.574502,-0.27245235,-2.1017810000000003,9.584,8.61,-1.008,-1
1198,1199,1582725163021,6.8021617,0.6404009,-1.6453453999999998,11.097999999999999,9.386000000000001,-0.536,-1
1199,1200,1582725163031,7.689342,0.882185,-1.3009495,12.262,9.484,-0.174,-1
1200,1201,1582725163041,8.69232,1.9337548999999998,-2.5079145,13.529000000000002,10.389000000000001,-1.374,-1
1201,1202,1582725163051,11.270298,3.0455952,-5.016501,16.362000000000002,11.349,-3.877,-1
1202,1203,1582725163061,13.928509,4.5154915,-7.1717759999999995,19.26,12.664000000000001,-6.011,-1
1203,1204,1582725163071,15.860697,5.7918406,-8.246931,21.406,13.79,-7.042999999999999,-1
1204,1205,1582725163081,16.502551999999998,6.8192509999999995,-7.7851458,22.225,14.683,-6.526,-1
1205,1206,1582725163091,15.843466000000001,6.861296,-6.6781607,21.703000000000003,14.616,-5.374,-1
1206,1207,1582725163101,14.180076000000001,6.619306,-6.406201,20.142,14.293,-5.087,-1
1207,1208,1582725163111,13.537737,6.44797,-7.6774306,19.581,14.061,-6.377000000000001,-1
1208,1209,1582725163121,14.007387,6.493017,-9.293258,20.122,14.056,-8.035,-1
1209,1210,1582725163131,14.626913,6.425841,-10.417698,20.774,13.967,-9.187000000000001,-1
1210,1211,1582725163142,15.220631,6.087503,-13.037068,21.441999999999997,13.582,-11.898,-1
1211,1212,1582725163152,14.653992,5.5066323,-13.761188500000001,20.898000000000003,12.99,-12.674000000000001,-1
1212,1213,1582725163162,13.512620000000002,4.796684,-13.723154000000001,19.756,12.286,-12.674000000000001,-1
1213,1214,1582725163172,13.034883500000001,4.246853400000001,-13.496128,19.27,11.745,-12.460999999999999,-1
1214,1215,1582725163183,11.4821,2.610777,-12.482631,17.663,10.157,-11.472000000000001,-1
1215,1216,1582725163193,9.962742,1.3321867,-11.223108,16.084,8.927999999999999,-10.221,-1
1216,1217,1582725163203,8.645909,-0.18633270000000002,-10.075791,14.693,7.47,-9.084,-1
1217,1218,1582725163213,7.249943300000001,-1.6564417000000002,-8.705286,13.213,6.068,-7.733,-1
1218,1219,1582725163224,5.902137799999999,-3.0102037999999998,-7.7057967000000005,11.777999999999999,4.785,-6.768,-1
1219,1220,1582725163234,4.7786098,-4.2544723,-6.756564599999999,10.575999999999999,3.6060000000000003,-5.877000000000001,-1
1220,1221,1582725163244,3.6167207,-5.5215254,-6.3015504,9.366,2.385,-5.525,-1
1221,1222,1582725163254,2.4592118,-6.344759,-6.0360923,8.267000000000001,1.5390000000000001,-5.501,-1
1222,1223,1582725163265,1.2780061000000003,-7.2997065,-5.786486599999999,7.115,0.574,-5.462999999999999,-1
1223,1224,1582725163275,0.40175295,-8.126344,-5.123622,6.164,-0.196,-4.8469999999999995,-1
1224,1225,1582725163286,-0.45344734,-8.892102000000001,-3.9896773999999997,5.225,-0.902,-3.7,-1
1225,1226,1582725163296,-1.4829588,-9.252317,-1.9154565,4.117,-1.209,-1.575,-1
1226,1227,1582725163306,-2.4452662,-9.353477999999999,0.14631477,2.8089999999999997,-1.14,1.393,-1
1227,1228,1582725163316,-2.9832752,-9.218026,1.5374141000000001,2.509,-1.1059999999999999,1.985,-1
1228,1229,1582725163326,-3.0025133999999998,-9.0800905,2.0041,2.4659999999999997,-0.953,2.469,-1
1229,1230,1582725163337,-3.1468315,-9.324125,1.450672,2.315,-1.192,1.906,-1
1230,1231,1582725163347,-2.8449438,-9.590365,0.8308719999999999,2.636,-1.47,1.266,-1
1231,1232,1582725163357,-2.6529326,-9.815855,0.9669781999999999,2.842,-1.705,1.403,-1
1232,1233,1582725163368,-3.118484,-10.004456,2.0628011,1.966,-1.9040000000000001,3.216,-1
1233,1234,1582725163378,-4.2041035,-9.9610405,3.6960566,1.379,-1.913,4.1739999999999995,-1
1234,1235,1582725163388,-5.7913375,-9.624566999999999,5.578258,-0.141,-1.626,6.095,-1
1235,1236,1582725163399,-7.4982,-9.136343,7.510603,-1.765,-1.204,8.126,-1
1236,1237,1582725163409,-8.788214,-9.89085,10.239984,-2.9139999999999997,-2.112,11.314,-1
1237,1238,1582725163419,-7.7553444,-10.453991,13.294444,-1.712,-2.833,14.547,-1
1238,1239,1582725163429,-5.6209416,-10.698933,17.27055,0.627,-3.278,18.707,-1
1239,1240,1582725163439,-3.0284590000000002,-10.259514,21.319218,3.446,-3.072,22.929000000000002,-1
1240,1241,1582725163450,-2.1745343,-9.696173,22.656929,4.416,-2.6319999999999997,24.34,-1
1241,1242,1582725163460,-2.1175349999999997,-7.027289,24.162731,4.811,-0.332,25.99,-1
1242,1243,1582725163470,-3.3886716,-5.768599,22.920448,3.752,0.687,24.793000000000003,-1
1243,1244,1582725163480,-3.6291462999999995,-4.735973400000001,20.97211,3.719,1.472,22.879,-1
1244,1245,1582725163491,-2.4597802000000004,-4.2664375,20.190561,5.096,1.669,22.153000000000002,-1
1245,1246,1582725163501,0.07673359,-3.8074169999999996,20.064342,7.836,1.827,22.118000000000002,-1
1246,1247,1582725163511,2.1319049999999997,-2.242632,19.994888,10.08,3.072,22.175,-1
1247,1248,1582725163521,3.9513521000000003,-0.7226776999999999,19.522621,12.065999999999999,4.2669999999999995,21.851999999999997,-1
1248,1249,1582725163532,5.292657,0.8599129000000001,17.648771,13.548,5.532,20.137,-1
1249,1250,1582725163542,6.470606,2.5951366,15.91888,14.839,6.962000000000001,18.578,-1
1250,1251,1582725163552,6.8811016,3.1757592999999997,15.159842499999998,15.296,7.395,17.909000000000002,-1
1251,1252,1582725163563,7.693388000000001,4.2893014,14.498292999999999,16.209,8.09,17.533,-1
1252,1253,1582725163573,8.630881,4.918539,14.379953,17.184,8.461,17.615,-1
1253,1254,1582725163583,9.670553,5.841282,13.599798000000002,18.24,9.148,17.035,-1
1254,1255,1582725163594,11.598599,6.763474499999999,12.163063000000001,20.166,9.862,15.792,-1
1255,1256,1582725163604,13.480264000000002,7.9726550000000005,10.304117,22.019000000000002,10.832,14.187999999999999,-1
1256,1257,1582725163614,13.644017999999999,8.077889,9.247105,22.168000000000003,10.882,13.203,-1
1257,1258,1582725163625,13.412486,7.846799000000001,7.1995897,21.88,10.557,11.338,-1
1258,1259,1582725163635,13.234582000000001,7.621819,6.714197,21.679000000000002,10.322000000000001,10.905999999999999,-1
1259,1260,1582725163645,12.953533,7.9573917000000005,4.6817145,21.313000000000002,10.675999999999998,9.029,-1
1260,1261,1582725163656,14.594937,8.447641,2.267538,22.884,11.208,6.722,-1
1261,1262,1582725163666,15.470522,8.576307,0.88532305,23.721999999999998,11.366,5.391,-1
1262,1263,1582725163676,17.076317,8.162075999999999,-1.3499217,25.214000000000002,11.085999999999999,3.2760000000000002,-1
1263,1264,1582725163686,17.154766,7.721768400000001,-1.5607805000000001,25.051,10.425,3.1510000000000002,-1
1264,1265,1582725163697,16.025702,6.574774000000001,-1.0956266000000001,24.011999999999997,9.805,3.59,-1
1265,1266,1582725163707,14.875414000000001,5.781904,-0.8913648000000001,22.781,9.222999999999999,3.781,-1
1266,1267,1582725163717,13.127501,5.342497,-1.3555403,20.945999999999998,9.029,3.2760000000000002,-1
1267,1268,1582725163728,11.555268,4.6953278,-2.3583114,19.279,8.652999999999999,2.208,-1
1268,1269,1582725163738,10.781578999999999,3.9225788,-3.3767110000000002,18.403,8.164,1.1059999999999999,-1
1269,1270,1582725163749,9.889755000000001,3.039156,-4.3036947,17.402,7.57,0.079,-1
1270,1271,1582725163759,8.591797,2.302813,-4.2659445,15.318,6.782,0.067,-1
1271,1272,1582725163769,7.184810000000001,1.2482448,-3.7746146,14.465,6.361000000000001,0.35200000000000004,-1
1272,1273,1582725163779,5.5374765,0.50821257,-2.7832793999999996,12.703,5.9079999999999995,1.175,-1
1273,1274,1582725163789,4.651591000000001,-0.42092276,-2.2592452,11.347000000000001,4.931,1.245,-1
1274,1275,1582725163800,3.9466615,-1.710288,-2.9503713,10.863,4.3660000000000005,0.428,-1
1275,1276,1582725163810,3.8599486000000005,-2.5731175,-3.9318027,10.7,3.741,-0.847,-1
1276,1277,1582725163820,3.6383447999999996,-3.2540722,-4.417202,10.413,3.2689999999999997,-1.6380000000000001,-1
1277,1278,1582725163830,3.3691760000000004,-3.6577044,-4.483173000000001,10.123,2.9530000000000003,-1.865,-1
1278,1279,1582725163840,2.1947412,-4.503209,-4.071954,9.033999999999999,2.2319999999999998,-2.064,-1
1279,1280,1582725163850,1.3440584999999998,-4.990122,-4.027965,8.104,1.899,-2.292,-1
1280,1281,1582725163861,0.25663376,-5.374816,-4.080667,6.895,1.6880000000000002,-2.591,-1
1281,1282,1582725163871,-0.50133705,-5.618581,-4.652505400000001,6.0089999999999995,1.611,-3.42,-1
1282,1283,1582725163881,-0.6938409999999999,-6.006067,-6.1394095,5.7,1.369,-5.192,-1
1283,1284,1582725163891,-0.7228136,-6.0696993,-7.661696000000001,5.597,1.4080000000000001,-7.101,-1
1284,1285,1582725163902,-0.41514015,-6.3067164,-8.974566000000001,5.901,1.195,-9.007,-1
1285,1286,1582725163912,0.05200243,-6.6374207,-9.429811,6.294,0.919,-9.759,-1
1286,1287,1582725163922,0.427238,-6.717571700000001,-8.848317,6.6,0.8809999999999999,-9.422,-1
1287,1288,1582725163932,0.7552724000000001,-7.088617299999999,-7.486296,6.89,0.517,-8.317,-1
1288,1289,1582725163942,0.27914095,-6.953651,-6.4940276,6.437,0.579,-7.723,-1
1289,1290,1582725163952,0.38822603,-6.5861135,-6.415118,6.5520000000000005,0.8590000000000001,-8.073,-1
1290,1291,1582725163963,3.1084947999999994,-6.1496487,-8.48762,9.199,1.295,-10.399000000000001,-1
1291,1292,1582725163973,6.508812,-5.7548513,-11.957198,12.502,1.702,-14.113,-1
1292,1293,1582725163983,7.6288576,-5.5809865,-15.2100525,13.5,1.906,-17.586,-1
1293,1294,1582725163993,6.6880994000000005,-5.921792,-16.220382999999998,12.415,1.6280000000000001,-18.745,-1
1294,1295,1582725164003,4.9440885,-6.979552,-14.3014555,10.515999999999998,0.665,-16.887,-1
1295,1296,1582725164013,3.1460242000000003,-7.72885,-11.002577,8.562000000000001,0.026000000000000002,-13.591,-1
1296,1297,1582725164024,2.1414876,-8.145251,-7.5950913,7.417000000000001,-0.294,-10.183,-1
1297,1298,1582725164034,2.530641,-7.7496405,-5.270364,7.716,0.146,-7.905,-1
1298,1299,1582725164044,3.7635555,-7.351864999999999,-4.543648,8.883,0.57,-7.228,-1
1299,1300,1582725164054,4.3464584,-6.7293806,-4.787344999999999,9.378,1.238,-7.502999999999999,-1
1300,1301,1582725164064,4.1957293,-6.3820157,-4.891106,9.134,1.6380000000000001,-7.622999999999999,-1
1301,1302,1582725164075,4.102317299999999,-6.498542,-3.9067247000000003,8.969,1.5659999999999998,-6.636,-1
1302,1303,1582725164085,3.5250902,-6.4858839999999995,-2.3059747,8.48,1.518,-5.055,-1
1303,1304,1582725164095,2.8118090000000002,-6.7377496,-0.26135516,7.721,1.317,-2.943,-1
1304,1305,1582725164105,2.2142396,-6.6635756,3.1775177,7.0120000000000005,1.492,0.601,-1
1305,1306,1582725164115,1.8624082,-6.3561115,6.8786893,6.567,1.892,4.428,-1
1306,1307,1582725164125,2.0335946,-5.49125,8.889738000000001,6.847,2.787,6.775,-1
1307,1308,1582725164136,3.0636282,-5.0332555999999995,9.787139999999999,7.874,3.2880000000000003,7.841,-1
