,Seq,Time,ACCx,ACCy,ACCz,ADGx,ADGy,ADGz,Keydown
0,1,1582725278865,1.5529041000000001,-0.6363114000000001,-2.3523002,8.04,1.889,4.555,-1
1,2,1582725278875,1.5529041000000001,-0.6363114000000001,-2.3523002,1.784,10.047,0.728,-1
2,3,1582725278885,0.13769925,0.47979546,0.030936956,1.757,10.138,0.5479999999999999,-1
3,4,1582725278896,0.10457814,0.14761066,0.57892466,1.702,9.807,1.14,-1
4,5,1582725278906,0.2782966,0.36487007,1.125608,1.8530000000000002,10.025,1.736,-1
5,6,1582725278916,0.5749364,0.27906513,1.1576738000000002,2.131,9.939,1.817,-1
6,7,1582725278926,0.9582136999999998,0.22495842,1.4152132,2.498,9.884,2.124,-1
7,8,1582725278937,0.99833095,0.1193943,1.7639656000000004,2.459,9.999,2.802,-1
8,9,1582725278947,0.77438545,0.57164097,2.3513598,2.2680000000000002,10.231,3.1489999999999996,-1
9,10,1582725278957,0.641538,0.5448513,2.4271617,2.102,10.207,3.252,-1
10,11,1582725278967,0.31922174,0.42846203,2.1831702999999996,1.7409999999999999,10.095,3.0239999999999996,-1
11,12,1582725278978,-0.09397364,0.33910942,1.9811035,1.286,10.011000000000001,2.83,-1
12,13,1582725278988,-0.25146437,0.31443024,1.9505665,1.1079999999999999,9.988999999999999,2.802,-1
13,14,1582725278998,-0.35162777,0.2953844,1.8368659999999999,0.953,9.977,2.694,-1
14,15,1582725279008,-0.53609884,0.3107891,2.1051865000000003,0.735,9.996,2.972,-1
15,16,1582725279019,-0.8640511000000001,0.47388744,2.1264979999999998,0.373,10.162,3.01,-1
16,17,1582725279029,-1.087083,0.37069035,2.1353072999999996,0.114,10.061,3.0439999999999996,-1
17,18,1582725279039,-1.2836363000000002,0.21343613,2.45016,-0.122,9.905,3.3960000000000004,-1
18,19,1582725279049,-1.4666454,0.050383568,3.3717312999999995,-0.344,9.742,4.363,-1
19,20,1582725279060,-1.7482402,-0.27434158,4.2552156,-0.665,9.417,5.292000000000001,-1
20,21,1582725279070,-2.1297655,-0.67269135,4.694693,-1.087,9.019,5.769,-1
21,22,1582725279080,-2.5041451,-0.9088001,4.7791295,-1.499,8.783999999999999,5.879,-1
22,23,1582725279090,-2.4585414,-1.0750561,4.6021686,-1.4869999999999999,8.619,5.721,-1
23,24,1582725279100,-2.2315054,-1.1925173,4.3002253,-1.2930000000000001,8.502,5.443,-1
24,25,1582725279110,-2.0919967,-1.3754654,4.0425777,-1.1420000000000001,7.992000000000001,5.436,-1
25,26,1582725279120,-1.9527518,-1.863491,4.09773,-1.092,7.8260000000000005,5.34,-1
26,27,1582725279131,-2.1011467,-2.3195930000000002,4.3091173,-1.262,7.369,5.5729999999999995,-1
27,28,1582725279141,-2.3203366,-2.8429337,4.7746673,-1.501,6.843999999999999,6.064,-1
28,29,1582725279151,-2.773756,-3.392263,4.696130999999999,-1.9680000000000002,6.294,5.999,-1
29,30,1582725279161,-3.5130663,-4.5159693,4.895687000000001,-2.7110000000000003,5.17,6.202999999999999,-1
30,31,1582725279172,-3.7916641,-4.9319434,4.876945,-2.984,4.754,6.181,-1
31,32,1582725279182,-4.446145,-5.933896,4.880056400000001,-3.614,3.752,6.169,-1
32,33,1582725279192,-4.811518,-7.051342,5.085563700000001,-3.935,2.634,6.349,-1
33,34,1582725279203,-5.1988554,-7.9031944,5.439624299999999,-4.258,1.781,6.665,-1
34,35,1582725279212,-5.5822,-9.265838,4.88402,-4.502,0.41600000000000004,6.0089999999999995,-1
35,36,1582725279222,-5.7081304,-9.756324000000001,4.506057299999999,-4.569,-0.076,5.585,-1
36,37,1582725279233,-5.6420392999999995,-10.487834,3.4976025,-4.363,-0.8140000000000001,4.473,-1
37,38,1582725279243,-5.0843697,-11.163895,2.629425,-3.635,-1.504,3.4989999999999997,-1
38,39,1582725279254,-4.4402323,-11.840094,1.8582503000000001,-2.6839999999999997,-2.22,2.593,-1
39,40,1582725279264,-4.1217184,-11.9332075,1.8036953999999998,-2.251,-2.332,2.502,-1
40,41,1582725279274,-3.51369,-12.214587,1.7323009999999999,-0.914,-2.778,2.141,-1
41,42,1582725279285,-2.9553277000000002,-12.603742,0.8782143,-0.43799999999999994,-3.142,1.4340000000000002,-1
42,43,1582725279295,-2.6346218999999995,-12.744131,-0.2685949,0.174,-3.362,0.239,-1
43,44,1582725279305,-1.6987984,-12.809149,-1.068732,1.425,-3.525,-0.603,-1
44,45,1582725279315,-0.024546146,-12.545150999999999,-2.1718278,3.4389999999999996,-3.3810000000000002,-1.733,-1
45,46,1582725279326,1.9085157,-11.560411,-2.928363,5.733,-2.541,-2.488,-1
46,47,1582725279336,4.2248983,-10.449021,-3.6232586,8.691,-1.733,-3.1180000000000003,-1
47,48,1582725279346,4.6151266,-9.482785,-3.8439522000000004,9.63,-1.075,-3.2689999999999997,-1
48,49,1582725279356,4.949006,-8.514600999999999,-3.444053,10.382,-0.385,-2.694,-1
49,50,1582725279367,4.991206,-8.038697,-3.3234867999999995,10.614,-0.05,-2.4659999999999997,-1
50,51,1582725279376,5.509076,-7.1049055999999995,-3.2444172000000004,11.876,0.8590000000000001,-2.181,-1
51,52,1582725279386,5.962585400000001,-6.3637233,-3.6898720000000003,12.228,1.06,-2.347,-1
52,53,1582725279396,8.041876,-4.9289646,-5.250083999999999,14.705,2.059,-3.535,-1
53,54,1582725279406,9.022713000000001,-3.7238245,-6.1467547,15.917,2.967,-4.178999999999999,-1
54,55,1582725279417,9.403841,-3.1545951,-6.5092764,16.403,3.386,-4.4110000000000005,-1
55,56,1582725279427,9.451976,-2.078547,-7.2737484,16.719,4.006,-4.756,-1
56,57,1582725279437,9.346680000000001,-1.5791545,-7.462262,16.753,4.1930000000000005,-4.6339999999999995,-1
57,58,1582725279447,9.406630999999999,-1.0440817,-7.436723,16.923,4.406000000000001,-4.279,-1
58,59,1582725279458,9.317447999999999,-0.08189726,-6.8278003,16.92,5.0360000000000005,-3.338,-1
59,60,1582725279468,10.114925,0.729012,-5.457257299999999,17.792,5.502999999999999,-1.6569999999999998,-1
60,61,1582725279478,11.883174,1.9437461,-4.53561,19.634,6.367999999999999,-0.47100000000000003,-1
61,62,1582725279488,14.933725,3.1603951,-4.3885464999999995,22.761999999999997,7.242000000000001,-0.11900000000000001,-1
62,63,1582725279498,17.48059,3.5959287000000004,-5.1596394,25.381999999999998,7.359,-0.735,-1
63,64,1582725279509,17.635654000000002,3.7299123,-6.2756,25.59,7.211,-1.7169999999999999,-1
64,65,1582725279519,16.35999,3.8887904000000004,-6.530311,24.342,7.117000000000001,-1.8359999999999999,-1
65,66,1582725279529,15.478913,3.7447032999999994,-5.299576,23.473000000000003,6.725,-0.46399999999999997,-1
66,67,1582725279539,15.136398999999999,3.8937385,-2.1908827,23.138,6.615,2.783,-1
67,68,1582725279549,15.401720000000001,4.583825,1.4774041,23.416,7.041,6.567,-1
68,69,1582725279560,15.937922,5.49046,4.658649400000001,23.978,7.699,9.821,-1
69,70,1582725279570,16.515244,6.709415400000001,6.5343366,24.599,8.708,11.714,-1
70,71,1582725279580,17.077137,7.46085,7.58873,25.224,9.304,12.727,-1
71,72,1582725279591,16.949303,8.112722,7.791001,25.176,9.862,12.834000000000001,-1
72,73,1582725279601,16.775501000000002,8.302655999999999,7.324458,25.092,10.015,12.231,-1
73,74,1582725279611,16.448414,8.126339999999999,6.324831,24.855,9.847999999999999,11.072000000000001,-1
74,75,1582725279621,15.664125,7.7246504,5.731104,24.151,9.488999999999999,10.317,-1
75,76,1582725279631,14.719751,6.9318610000000005,6.2338166,23.274,8.76,10.667,-1
76,77,1582725279642,13.998026999999999,6.1513944,8.129168,22.608,8.056000000000001,12.42,-1
77,78,1582725279652,12.878028,5.4663763,11.343039,21.531,7.46,15.505,-1
78,79,1582725279662,11.748109,4.813526599999999,14.250129999999999,20.430999999999997,6.919,18.293,-1
79,80,1582725279673,10.878086,4.006272,16.299736,19.579,6.255,20.225,-1
80,81,1582725279683,9.977745,3.2612238,17.175434,18.683,5.69,20.982,-1
81,82,1582725279693,8.031887,2.2935615,15.978905,16.712,5.067,19.602999999999998,-1
82,83,1582725279703,7.342022,2.0215614,15.253054,16.005,4.926,18.815,-1
83,84,1582725279713,6.497633,1.3009579,14.200417499999999,14.630999999999998,4.21,17.325,-1
84,85,1582725279724,5.4139919999999995,0.42013407,13.963222,13.967,3.8960000000000004,17.27,-1
85,86,1582725279734,4.166649,-0.56763816,14.342035000000001,12.638,3.214,17.521,-1
86,87,1582725279744,2.7212037999999996,-1.2650795,14.457479000000001,10.514000000000001,2.739,17.423,-1
87,88,1582725279754,1.3670483,-1.9807653000000003,14.069185000000001,9.558,2.572,16.959,-1
88,89,1582725279764,0.92988014,-2.399866,13.430578,8.982999999999999,2.447,16.227999999999998,-1
89,90,1582725279775,0.5400362,-2.7687057999999998,12.537456,8.443999999999999,2.363,15.251,-1
90,91,1582725279785,0.17709112,-3.177335,11.678295,7.922000000000001,2.2319999999999998,14.31,-1
91,92,1582725279795,-0.0024170876000000003,-3.6340046000000004,10.902552,7.575,2.0469999999999997,13.448,-1
92,93,1582725279805,-0.12243557,-4.1155386,10.301281,7.28,1.8319999999999999,12.751,-1
93,94,1582725279816,-0.29722118,-4.1959524,9.811939,7.015,1.882,12.212,-1
94,95,1582725279826,-0.51701117,-4.4867735,8.410304,6.516,1.9609999999999999,10.675999999999998,-1
95,96,1582725279836,-0.62334585,-5.042171499999999,7.290286999999999,6.222,1.619,9.513,-1
96,97,1582725279846,-1.0684485000000001,-5.4410515,6.060521,5.606,1.355,8.392000000000001,-1
97,98,1582725279856,-1.7844919999999997,-5.6497774000000005,5.137062,4.708,1.288,7.563,-1
98,99,1582725279867,-2.3763638,-5.947316000000001,4.5347347000000005,3.915,1.178,6.947,-1
99,100,1582725279877,-2.7980165,-6.06962,4.455209,3.29,1.2329999999999999,6.859,-1
100,101,1582725279887,-2.9830587000000004,-6.220951,4.605628,2.905,1.2429999999999999,7.0120000000000005,-1
101,102,1582725279897,-3.2236693,-6.388363,4.9422398,2.469,1.2229999999999999,7.357,-1
102,103,1582725279908,-3.6143184,-6.6974583,5.070716,1.889,1.053,7.482,-1
103,104,1582725279918,-3.9271808,-6.9276576,4.4232244000000005,1.396,0.9620000000000001,6.787000000000001,-1
104,105,1582725279928,-3.9340347999999996,-6.7031083,3.1396472,1.2229999999999999,1.324,5.407,-1
105,106,1582725279939,-3.5609144999999995,-6.4994106,1.5398645,1.446,1.6540000000000001,3.69,-1
106,107,1582725279948,-3.047001,-6.2450514,0.18837714,1.8219999999999998,2.021,2.222,-1
107,108,1582725279958,-2.4788373,-6.215362,-0.9194998999999999,2.26,2.15,1.013,-1
108,109,1582725279968,-2.5228455000000003,-6.292756,-1.355523,2.09,2.16,0.5,-1
109,110,1582725279978,-3.1750755,-5.971118499999999,-1.1986194,1.314,2.56,0.601,-1
110,111,1582725279988,-3.7992013,-6.1004,-0.90276253,0.57,2.502,0.852,-1
111,112,1582725279998,-4.2204904999999995,-6.2285547,-0.6117033000000001,0.04,2.438,1.094,-1
112,113,1582725280008,-4.2351413,-5.989283599999999,-0.7432544,-0.067,2.735,0.895,-1
113,114,1582725280018,-3.7701397000000005,-5.7830449999999995,-1.5554312,0.32299999999999995,2.9930000000000003,-0.006999999999999999,-1
114,115,1582725280028,-3.2692504000000002,-5.447038,-2.7125687999999997,0.764,3.3739999999999997,-1.266,-1
115,116,1582725280038,-2.4492137,-5.048198,-4.133401999999999,1.537,3.81,-2.787,-1
116,117,1582725280048,-1.7222528000000001,-4.685819599999999,-5.3645115,2.224,4.203,-4.105,-1
117,118,1582725280058,-1.6540584999999999,-4.5619707,-5.8063154,2.251,4.354,-4.612,-1
118,119,1582725280068,-2.1824812999999996,-4.6588216,-5.266403700000001,1.676,4.282,-4.107,-1
119,120,1582725280078,-2.9177394,-4.493517,-4.383108,0.895,4.468999999999999,-3.24,-1
120,121,1582725280089,-3.155538,-4.1248035000000005,-3.6770551,0.625,4.854,-2.555,-1
121,122,1582725280099,-2.59931,-3.76018,-3.7006223,1.171,5.228,-2.62,-1
122,123,1582725280109,-1.7616209999999999,-3.2174443999999998,-4.054504,2.019,5.774,-3.0389999999999997,-1
123,124,1582725280120,-0.71914196,-2.7108436,-4.4065733,3.089,6.279,-3.484,-1
124,125,1582725280130,0.675972,-2.3115034,-4.911174,4.548,6.667000000000001,-4.16,-1
125,126,1582725280140,1.6486311000000002,-1.7510265999999999,-4.996934400000001,5.702000000000001,7.172999999999999,-4.677,-1
126,127,1582725280150,2.0324478,-1.4130601999999999,-4.8385834999999995,6.169,7.477,-4.677,-1
127,128,1582725280160,1.696938,-1.4014358999999998,-4.1230035,5.9079999999999995,7.455,-4.093,-1
128,129,1582725280171,0.53289366,-1.1212133999999998,-2.9097392999999996,4.811,7.702000000000001,-3.048,-1
129,130,1582725280181,-0.50055695,-0.9374193999999999,-1.8606102,3.7760000000000002,7.886,-2.03,-1
130,131,1582725280191,-1.0813568,-0.4234867,-1.222601,3.182,8.406,-1.4080000000000001,-1
131,132,1582725280201,-0.54833245,0.10696697,-1.1231732,3.693,8.945,-1.389,-1
132,133,1582725280212,0.5463834,0.49553204,-1.7211009999999998,4.813,9.318999999999999,-2.057,-1
133,134,1582725280222,1.3351383,0.8136244,-2.2930502999999995,5.64,9.616,-2.6889999999999996,-1
134,135,1582725280232,2.1577687,1.0338345,-2.9316957,6.497000000000001,9.817,-3.3760000000000003,-1
135,136,1582725280242,2.6112266,1.0907459,-3.1766667,6.976,9.86,-3.645,-1
136,137,1582725280252,1.8828945,1.0173502,-2.2239335,6.26,9.781,-2.682,-1
137,138,1582725280262,0.8048878,0.9612074,-0.7170969,5.18,9.728,-1.1320000000000001,-1
138,139,1582725280273,-0.03308773,0.94844437,0.7570956999999999,4.323,9.728,0.419,-1
139,140,1582725280283,-0.6190306999999999,0.92331123,2.2784426,3.695,9.728,2.086,-1
140,141,1582725280293,-0.78758955,1.0376911,2.285699,3.4989999999999997,9.857000000000001,2.162,-1
141,142,1582725280303,-0.58403397,0.9858655999999999,1.4057895,3.685,9.814,1.307,-1
142,143,1582725280313,-0.43439007,0.9111862,0.7781351,3.8289999999999997,9.742,0.675,-1
143,144,1582725280324,-0.10467243,1.2833605,-0.76754415,4.157,10.113999999999999,-0.9359999999999999,-1
144,145,1582725280334,0.06536293,1.4332666,-1.1132718000000001,4.33,10.262,-1.305,-1
145,146,1582725280344,0.6746478,1.4201393,-1.0449306999999999,5.0889999999999995,10.382,-0.878,d
146,147,1582725280354,0.9213071,1.5697536,0.18452236,5.209,10.387,-0.021,-1
147,148,1582725280364,0.26322937,1.3499098,1.2908801,4.545,10.171,1.1320000000000001,-1
148,149,1582725280375,-0.2957964,1.1412935,2.4130042,3.968,9.972000000000001,2.318,-1
149,150,1582725280385,-0.6373179,0.9330654,2.6445653,3.602,9.776,2.612,-1
150,151,1582725280395,-0.7605133000000001,0.90168285,2.2735397999999996,3.4530000000000003,9.757,2.282,-1
151,152,1582725280406,-0.5496948,1.0657082,1.3945739,3.647,9.929,1.4080000000000001,-1
152,153,1582725280416,-0.13665676,1.3762674,0.6969795,4.0569999999999995,10.241,0.684,-1
153,154,1582725280426,0.282022,1.4838953000000001,0.0058383197,4.481,10.345999999999998,-0.04,-1
154,155,1582725280436,0.830472,1.5555658,-0.31942433,5.039,10.413,-0.387,-1
155,156,1582725280447,1.1351733,1.5234947,0.021983054,5.352,10.377,-0.043,-1
156,157,1582725280457,1.2091565,1.4147968,0.5890779,5.428999999999999,10.267000000000001,0.546,-1
157,158,1582725280467,0.9394068999999999,1.235198,1.1639278,5.154,10.09,1.1540000000000001,-1
158,159,1582725280477,0.4903326,1.2436628,1.658864,4.689,10.106,1.683,-1
159,160,1582725280487,-0.08041811,1.0168896,1.7569075,4.093,9.891,1.8130000000000002,-1
160,161,1582725280497,-0.55866337,0.8108797,1.4810024,3.5780000000000003,9.702,1.561,-1
161,162,1582725280508,-0.5526674,0.8226776,0.8423579999999999,3.549,9.73,0.922,-1
162,163,1582725280518,-0.20490003,0.73215294,0.12717792,3.872,9.651,0.18600000000000003,-1
163,164,1582725280528,0.19391727,0.79007626,-0.27179549999999997,4.26,9.714,-0.24100000000000002,-1
164,165,1582725280538,0.58681774,0.7101630999999999,-0.5443587,4.651,9.635,-0.534,-1
165,166,1582725280549,0.5311732,0.80908585,-0.48029888,4.593,9.735,-0.474,-1
166,167,1582725280559,0.18047714,0.55115604,0.038356416000000004,4.227,9.484,0.057,-1
167,168,1582725280569,-0.09010887,0.42161274,0.54959524,3.935,9.363999999999999,0.601,-1
168,169,1582725280579,-0.37975597,0.46596336,0.98835236,3.614,9.422,1.087,-1
169,170,1582725280589,-0.2272234,0.39514828,1.1785916,3.741,9.362,1.317,-1
170,171,1582725280600,-0.1360519,0.26682663,0.9600893,3.812,9.242,1.1320000000000001,-1
171,172,1582725280610,-0.052777052000000005,0.12299538,0.48558897,3.846,9.105,0.634,-1
172,173,1582725280620,-0.036943912999999995,-0.05710411,0.0022778362,3.877,8.933,0.174,-1
173,174,1582725280630,-0.07390427599999999,0.0081243515,-0.1425316,3.832,9.002,0.013999999999999999,-1
174,175,1582725280640,-0.2115705,0.07703781,-0.26540866,3.661,9.086,-0.155,-1
175,176,1582725280651,-0.26732898,-0.07984066,-0.25023863,3.585,8.937999999999999,-0.158,-1
176,177,1582725280661,-0.45684958,0.015148163000000001,-0.11845389,3.372,9.043,-0.027999999999999997,-1
177,178,1582725280671,-0.363796,-0.038645743999999996,-0.03866826,3.444,8.998,0.062,-1
178,179,1582725280681,-0.34332514,0.010891913999999999,0.1914092,3.446,9.055,0.316,-1
179,180,1582725280692,-0.26987982,-0.080062866,0.6309205,3.5060000000000002,8.969,0.797,-1
180,181,1582725280702,-0.20362687,-0.005539894,0.95265496,3.5580000000000003,9.048,1.185,-1
181,182,1582725280712,-0.0850904,-0.0779953,1.0430839,3.673,8.976,1.3119999999999998,-1
182,183,1582725280722,-0.040153265,-0.028065681000000002,0.8450106,3.7119999999999997,9.026,1.185,-1
183,184,1582725280732,-0.07305503,-0.14806747,0.23476583,3.6710000000000003,8.908999999999999,0.584,-1
184,185,1582725280743,-0.09190345,0.08361435,-0.064249575,3.64,9.146,0.27699999999999997,-1
185,186,1582725280753,-0.5119662,-0.010354996,-0.2620819,3.197,9.062000000000001,0.064,-1
186,187,1582725280763,-0.527169,0.02415371,-0.24277586,3.1710000000000003,9.101,0.081,-1
187,188,1582725280774,-0.5965252,0.04978752,-0.053934872,3.075,9.137,0.282,-1
188,189,1582725280784,-0.39821124,-0.021427155,0.59640557,3.262,9.068999999999999,0.9670000000000001,-1
189,190,1582725280794,-0.1359756,-0.004187584,0.9223738000000001,3.523,9.084,1.355,-1
190,191,1582725280804,-0.006017685,0.154603,1.1041796999999998,3.657,9.238999999999999,1.58,-1
191,192,1582725280815,0.07129574,0.2015934,1.0352808,3.738,9.283,1.5390000000000001,-1
192,193,1582725280825,0.02531743,0.3215723,0.7928826,3.693,9.402000000000001,1.307,-1
193,194,1582725280835,-0.13713670000000003,0.28205776,0.49536264,3.5269999999999997,9.363999999999999,1.008,-1
194,195,1582725280845,-0.35267997,0.35461807,0.17363328,3.302,9.441,0.675,-1
195,196,1582725280856,-0.49079943,0.29592228,0.07825702400000001,3.1510000000000002,9.388,0.57,-1
196,197,1582725280866,-0.38572574,0.38664149999999997,-0.1475707,3.252,9.481,0.332,-1
197,198,1582725280876,-0.10239339,0.5950546,-0.21166839999999998,3.542,9.687000000000001,0.263,-1
198,199,1582725280886,0.29811954,0.7621565,-0.27436537,3.958,9.847999999999999,0.198,-1
199,200,1582725280896,0.6839725999999999,0.8579396999999999,-0.10727209,4.363,9.936,0.366,d
200,201,1582725280907,0.7883246,1.0582905,-0.13614863,4.4830000000000005,10.13,0.337,-1
201,202,1582725280917,0.7995837,1.0916299999999999,-0.022291064,4.505,10.158999999999999,0.45,-1
202,203,1582725280927,0.601424,1.1432152,0.010917783,4.311,10.209,0.48100000000000004,-1
203,204,1582725280937,0.25503278,1.1194133999999998,0.30566275,3.963,10.186,0.773,-1
204,205,1582725280947,0.34645152,1.1580667,0.41367608,4.052,10.226,0.8740000000000001,-1
205,206,1582725280958,0.45350385,1.5003805000000001,-0.029672563,4.16,10.569,0.409,-1
206,207,1582725280968,1.05088,1.7530631999999997,-0.4257219,4.763,10.82,0.0,-1
207,208,1582725280978,1.30843,1.9583073,-0.47706062,5.024,11.024000000000001,-0.055,-1
208,209,1582725280988,1.4164223999999999,2.3193235,-0.13624176,5.1370000000000005,11.383,0.285,-1
209,210,1582725280999,1.4016764,2.4143772,0.07418558,5.12,11.479000000000001,0.495,-1
210,211,1582725281009,1.3403141,2.686778,0.339457,5.053,11.754000000000001,0.754,-1
211,212,1582725281019,1.4652576000000002,3.0828362,0.031893045,5.17,12.154000000000002,0.431,-1
212,213,1582725281029,2.0244534,3.1725244999999997,-0.22342196,5.721,12.248,0.153,-1
213,214,1582725281039,2.7861632999999997,3.5866451,-0.47221009999999997,6.473,12.667,-0.11900000000000001,-1
214,215,1582725281050,3.5992646,3.859889,-0.30338174,7.271,12.947000000000001,0.033,-1
215,216,1582725281060,3.680508,3.9640807999999996,0.23037058,7.3260000000000005,13.062000000000001,0.56,-1
216,217,1582725281070,3.2013412,3.791789,1.2103753000000002,6.806,12.905999999999999,1.5390000000000001,-1
217,218,1582725281080,2.9229493,3.4363690000000005,1.8843310000000002,6.476,12.571,2.208,-1
218,219,1582725281090,2.8475474999999997,3.0661554,2.021894,6.3420000000000005,12.224,2.327,-1
219,220,1582725281101,2.9218450000000002,2.7441988,1.4715486,6.353,11.927,1.743,-1
220,221,1582725281111,2.942442,2.3151015999999998,1.1076616000000001,6.306,11.524000000000001,1.338,-1
221,222,1582725281121,2.947007,1.9003676999999999,0.76957697,6.239,11.136,0.96,-1
222,223,1582725281131,2.9035137000000004,1.2995253,0.9247793,6.121,10.562000000000001,1.082,-1
223,224,1582725281142,2.7688715,0.6589689000000001,1.1022694,5.91,9.948,1.235,-1
224,225,1582725281152,2.4161909,0.05532074,1.2333428,5.484,9.369,1.3530000000000002,-1
225,226,1582725281162,2.0809474,-0.67140865,1.3505763000000002,5.093999999999999,8.66,1.48,-1
226,227,1582725281173,1.4481015,-1.4227466999999998,1.3439025,4.409,7.925,1.496,-1
227,228,1582725281182,1.0044155000000001,-1.9092636000000003,1.2166162,3.9130000000000003,7.455,1.3619999999999999,-1
228,229,1582725281192,-0.09322548,-2.926259,0.7949878,2.6439999999999997,6.49,0.905,-1
229,230,1582725281202,-0.45987153,-3.7903485,0.48754309999999995,2.162,5.659,0.565,-1
230,231,1582725281213,-0.7166840999999999,-4.096165,0.0845187,1.848,5.369,0.14300000000000002,-1
231,232,1582725281223,-1.3959776000000002,-4.992955,-0.62313646,0.998,4.5169999999999995,-0.627,-1
232,233,1582725281233,-2.2429006,-5.5848675000000005,-1.2865299,0.095,3.9389999999999996,-1.31,-1
233,234,1582725281244,-2.8946922,-6.283825,-1.8485333,-0.718,3.278,-1.911,-1
234,235,1582725281254,-3.6525192000000004,-6.9324303,-2.2726843,-1.5730000000000002,2.6510000000000002,-2.335,-1
235,236,1582725281265,-4.343579,-7.642607000000001,-2.1493456,-2.349,1.959,-2.184,-1
236,237,1582725281274,-4.9930377,-8.3022375,-1.7175880000000001,-3.07,1.314,-1.7,-1
237,238,1582725281284,-5.441416,-8.724198,-1.4064173,-3.549,0.898,-1.357,-1
238,239,1582725281295,-6.452241000000001,-9.818976,-1.0489045,-4.631,-0.184,-0.905,-1
239,240,1582725281305,-6.917453,-10.441578,-1.4848796999999998,-5.125,-0.802,-1.295,-1
240,241,1582725281316,-7.164772500000001,-10.905535,-2.4372119999999997,-5.386,-1.264,-2.22,-1
241,242,1582725281326,-7.4769197,-11.1479645,-3.9022634,-5.702000000000001,-1.506,-3.673,-1
242,243,1582725281336,-7.676582300000001,-11.499719,-4.8254733,-5.901,-1.858,-4.591,-1
243,244,1582725281347,-8.028888,-12.19401,-5.037853,-6.251,-2.553,-4.792,-1
244,245,1582725281357,-8.731775,-13.219693,-4.0397444,-6.962000000000001,-3.5780000000000003,-3.764,-1
245,246,1582725281367,-9.539307,-13.654728,-2.5174086,-7.792999999999999,-4.011,-2.1719999999999997,-1
246,247,1582725281377,-9.62888,-14.43181,-1.0717636000000001,-7.999,-4.775,-0.562,-1
247,248,1582725281388,-9.247514,-14.507033999999999,-1.2381855,-7.587000000000001,-4.859,-0.665,-1
248,249,1582725281398,-8.114355,-14.822702,-2.308475,-6.297999999999999,-5.211,-1.611,-1
249,250,1582725281408,-6.5990405,-15.068821,-3.3678546000000003,-4.425,-5.5489999999999995,-2.464,-1
250,251,1582725281418,-5.843982700000001,-15.118936999999999,-3.0162928,-3.391,-5.685,-1.942,-1
251,252,1582725281429,-5.7082734,-15.096912,-2.3724372000000002,-3.108,-5.7139999999999995,-1.202,-1
252,253,1582725281439,-6.6979313,-15.117196,-0.9093884,-3.635,-5.92,0.574,-1
253,254,1582725281449,-6.672002,-15.39642,-0.88041806,-3.273,-6.356,0.8190000000000001,-1
254,255,1582725281459,-5.899679,-15.393689000000002,-1.5975337,-2.129,-6.547000000000001,0.32299999999999995,-1
255,256,1582725281470,-4.188611,-15.045085999999998,-1.7931185,-0.011000000000000001,-6.44,0.368,-1
256,257,1582725281480,-1.9061587,-14.199813,-0.9784398999999999,2.7060000000000004,-5.894,1.453,-1
257,258,1582725281490,2.1204267000000003,-12.888192,0.6835885,7.391,-5.113,3.5010000000000003,-1
258,259,1582725281501,6.800204300000001,-11.447797999999999,3.3146608,12.545,-4.136,6.43,-1
259,260,1582725281511,9.869261,-10.301328999999999,5.481984,16.025,-3.451,8.851,-1
260,261,1582725281521,11.154306,-9.142408,6.0690084,17.668,-2.7489999999999997,9.656,-1
261,262,1582725281531,11.478401,-8.274271,5.644223,18.3,-2.33,9.426,-1
262,263,1582725281542,11.866304,-6.544014,6.396294,18.963,-1.058,10.36,-1
263,264,1582725281552,13.358395000000002,-4.209808,9.056709,21.986,1.585,14.592,-1
264,265,1582725281562,15.773373000000001,-2.3903577,11.537288,23.346,2.1069999999999998,15.85,-1
265,266,1582725281572,18.138245,-0.85568166,12.158491,25.894000000000002,3.1439999999999997,16.633,-1
266,267,1582725281583,17.81614,-0.15526891,9.518409,25.744,3.161,14.243,-1
267,268,1582725281593,16.800915,0.0076692104,8.762048,24.759,3.115,13.577,-1
268,269,1582725281603,13.695314000000002,0.64816236,7.6051807,21.695999999999998,3.1630000000000003,12.687999999999999,-1
269,270,1582725281613,12.787728,1.2936666,7.861494500000001,20.795,3.6180000000000003,13.024000000000001,-1
270,271,1582725281624,12.384428,3.1340783,9.934178,20.41,4.897,15.287,-1
271,272,1582725281634,13.384341000000001,3.9644449999999996,11.065088000000001,21.418000000000003,5.369,16.511,-1
272,273,1582725281644,13.87991,4.376579,11.262102,21.914,5.6129999999999995,16.748,-1
273,274,1582725281655,13.588188,4.112138,9.911436,21.612,4.909,15.493,-1
274,275,1582725281665,12.314204,3.8082550000000004,8.360903,20.328,4.363,13.985999999999999,-1
275,276,1582725281675,11.215411999999999,3.6306415000000003,7.5722704,19.217,3.966,13.232000000000001,-1
276,277,1582725281686,10.416141,3.7162979,7.1918397,18.4,3.844,12.885,-1
277,278,1582725281696,9.9646225,3.8010855,7.2286663,17.924,3.7310000000000003,12.957,-1
278,279,1582725281706,9.528271,4.045831,7.450188000000001,17.459,3.793,13.213,-1
279,280,1582725281717,8.730675,4.2789125,7.329419000000001,16.633,3.867,13.122,-1
280,281,1582725281727,7.797992999999999,4.483974,6.768694,15.675,3.9419999999999997,12.585,-1
281,282,1582725281737,6.839664999999999,4.5178413,5.384688,14.204,3.7760000000000002,10.675999999999998,-1
282,283,1582725281748,5.8861246,4.334085,4.063663,13.722999999999999,3.616,9.915,-1
283,284,1582725281758,5.200542400000001,4.0024457,2.9589062000000004,13.020999999999999,3.228,8.825,-1
284,285,1582725281768,4.3929524,3.805193,2.3098536,12.2,2.988,8.187999999999999,-1
285,286,1582725281778,4.0389624,3.5422337,1.8532624,11.623,2.682,7.5889999999999995,-1
286,287,1582725281789,3.6539697999999996,3.4335756,1.6758738000000002,11.443,2.548,7.568,-1
287,288,1582725281798,3.5644336,3.3094897000000003,1.553133,11.352,2.416,7.446000000000001,-1
288,289,1582725281808,3.3241777000000003,3.2727115,1.2930793999999999,11.11,2.371,7.187,-1
289,290,1582725281818,2.9381174999999997,2.9701414,0.9217677,10.724,2.0709999999999997,6.816,-1
290,291,1582725281828,2.4069752999999996,2.8264356,0.9481815999999998,9.936,1.7890000000000001,6.768,-1
291,292,1582725281838,1.8408213,2.4833248,0.8477545,9.625,1.6159999999999999,6.749,-1
292,293,1582725281849,1.42486,2.213519,0.7544626999999999,9.201,1.386,6.672000000000001,-1
293,294,1582725281859,1.3278427,2.0600511999999997,0.71954155,9.101,1.247,6.643,-1
294,295,1582725281869,1.4884787,1.8637533,0.7928729,9.663,1.185,6.7989999999999995,-1
295,296,1582725281879,2.152482,1.9016035,0.7576890000000001,9.917,1.13,6.6979999999999995,-1
296,297,1582725281889,2.5505996,1.778029,0.5862589,10.317,1.037,6.528,-1
297,298,1582725281899,2.4806519000000002,1.7234258999999998,0.41318703,10.25,0.998,6.353,-1
298,299,1582725281909,2.3085504,1.5485954,0.19848776,10.087,0.862,6.131,-1
299,300,1582725281919,2.1371632000000003,1.2474489,0.009075165,9.932,0.605,5.925,-1
300,301,1582725281929,1.7821822,1.0721947,0.10498189999999999,9.599,0.479,5.997000000000001,-1
301,302,1582725281939,1.5210624,0.98905945,0.6088600000000001,9.357000000000001,0.44299999999999995,6.48,-1
302,303,1582725281950,1.3003506999999999,0.8009702,0.9295783000000001,9.134,0.217,7.151,-1
303,304,1582725281960,1.2733898000000001,0.6833809000000001,1.337688,9.122,0.22,7.199,d
304,305,1582725281970,1.6046042,0.74366695,1.1245275,9.45,0.318,6.992999999999999,-1
305,306,1582725281980,2.0872612,0.4601005,0.85469055,9.929,0.09300000000000001,6.732,-1
306,307,1582725281991,2.3241806,0.5643828000000001,0.7954235,10.166,0.22,6.6739999999999995,-1
307,308,1582725282001,2.5350718,0.4756403,0.43424606,10.382,0.20800000000000002,6.31,-1
308,309,1582725282011,2.5460963,0.48093778,0.26002502,10.231,0.22899999999999998,6.337000000000001,-1
309,310,1582725282021,2.0440502,0.74208224,0.8008031999999999,9.896,0.591,6.6739999999999995,-1
310,311,1582725282032,1.8541265,0.7352768,1.0563188000000001,9.704,0.615,6.933,-1
311,312,1582725282042,1.6914186000000002,0.84580463,1.4196528999999998,9.533999999999999,0.787,7.307,-1
312,313,1582725282053,2.272911,1.1161726,1.5645351,10.099,1.147,7.474,-1
313,314,1582725282063,2.9101763,1.2754828999999999,1.7596082999999998,10.72,1.3619999999999999,7.69,-1
314,315,1582725282073,3.8383464999999997,1.6273338,2.1378392999999996,11.627,1.767,8.095,-1
315,316,1582725282084,4.820547599999999,2.0080373,3.0198097,12.585,2.201,9.007,-1
316,317,1582725282094,5.6253505,2.391972,3.6674218,13.366,2.648,9.683,-1
317,318,1582725282104,5.570708,2.549474,4.042934,13.289000000000001,2.89,10.083,-1
318,319,1582725282115,4.7834177,2.761956,4.3001237,12.482000000000001,3.214,10.357999999999999,-1
319,320,1582725282125,4.0140332999999995,2.969871,4.0716,11.697000000000001,3.554,10.138,-1
320,321,1582725282135,3.8808532,3.028645,3.6587389999999997,11.550999999999998,3.755,9.726,-1
321,322,1582725282145,3.8689207999999997,2.9506354,3.6638741,11.527000000000001,3.8169999999999997,9.728,-1
322,323,1582725282155,4.417555,2.9815145,4.391398000000001,12.061,3.978,10.454,-1
323,324,1582725282166,5.212353,3.2977197,5.460198999999999,12.834000000000001,4.416,11.529000000000002,-1
324,325,1582725282176,6.0952535,3.3169343000000002,6.769517,13.685,4.56,12.854000000000001,-1
325,326,1582725282186,6.663003,3.0679877,7.750173599999999,14.192,4.54,13.859000000000002,-1
326,327,1582725282197,6.5865655,2.8734639,7.4101458,14.094000000000001,4.44,13.522,-1
327,328,1582725282207,6.2382235999999995,2.4260235,6.3597255,13.704,4.21,12.463,-1
328,329,1582725282217,5.443011299999999,1.5265336,5.0336669999999994,12.856,3.688,11.079,-1
329,330,1582725282227,4.5293636,1.2053733,4.7905927,11.915,3.633,10.767999999999999,-1
330,331,1582725282238,3.5801163000000003,0.7626643,5.1036367,10.937999999999999,3.458,11.0,-1
331,332,1582725282248,2.3764070999999998,0.118252754,4.9886,9.699,3.0789999999999997,10.800999999999998,-1
332,333,1582725282258,1.9995127000000001,-0.10971522,5.034322,9.299,2.9810000000000003,10.808,-1
333,334,1582725282268,1.3458819,-0.3178408,5.0020356,8.555,3.147,10.675999999999998,-1
334,335,1582725282278,1.8208871,-0.47612380000000004,4.704765,8.959,3.228,10.317,-1
335,336,1582725282289,2.5095148,-0.64356136,4.2833223,9.575,3.2969999999999997,9.826,-1
336,337,1582725282299,2.9634805,-0.80270433,3.6138267999999996,9.956,3.3760000000000003,9.074,-1
337,338,1582725282309,3.177157,-1.0706148000000002,3.0114002,10.095,3.3480000000000003,8.377,-1
338,339,1582725282319,3.0296001,-1.3209617,2.72715,9.869,3.338,7.989,-1
339,340,1582725282330,2.5341058,-1.6207818999999999,2.666348,9.29,3.2760000000000002,7.819,-1
340,341,1582725282340,2.057681,-2.1644678,2.4148245,8.729,2.9619999999999997,7.452999999999999,-1
341,342,1582725282350,1.4974642,-2.3654416,1.8813095000000002,8.09,2.969,6.806,-1
342,343,1582725282360,0.8663831,-2.422327,1.2777114,7.403,3.0580000000000003,6.1160000000000005,-1
343,344,1582725282370,0.41384983,-2.417846,0.794322,6.916,3.161,5.566,-1
344,345,1582725282380,0.09987116,-2.5885484,0.38509893,6.516,3.194,5.029,-1
345,346,1582725282390,-0.58146715,-3.0064867000000004,-0.18834782,5.728,2.998,4.3180000000000005,-1
346,347,1582725282400,-1.2659621,-3.2246456,-0.47033405,4.9239999999999995,3.0,3.9010000000000002,-1
347,348,1582725282410,-1.7009473000000002,-3.4454211999999997,-0.95385146,4.363,2.986,3.293,-1
348,349,1582725282420,-1.4439621,-3.3355843999999997,-1.3160951,4.493,3.285,2.818,-1
349,350,1582725282430,-1.1929092,-3.4517112,-1.438273,4.619,3.341,2.593,-1
350,351,1582725282440,-1.1807961,-3.5420873,-1.0065696,4.5089999999999995,3.41,2.926,-1
351,352,1582725282451,-1.4849496000000002,-3.565843,-0.35341907,4.088,3.5389999999999997,3.472,-1
352,353,1582725282461,-1.7752423,-3.7782546999999997,0.26967525,3.69,3.477,3.966,-1
353,354,1582725282471,-2.4692962000000005,-3.8156524,0.07347345,2.897,3.592,3.609,-1
354,355,1582725282481,-2.7134433,-3.8584425,-0.63377714,2.56,3.702,2.713,-1
355,356,1582725282491,-3.0233833999999997,-3.977665,-1.4460520000000001,2.16,3.7289999999999996,1.702,-1
356,357,1582725282502,-3.2652955,-4.0255675,-1.7170333999999998,1.829,3.815,1.24,-1
357,358,1582725282512,-3.2788587,-4.566773400000001,-1.7659603,1.729,3.3930000000000002,1.015,-1
358,359,1582725282522,-3.2449906000000004,-4.836379,-1.9032247,1.681,3.228,0.718,-1
359,360,1582725282532,-3.6369216,-4.6075735,-1.9042810000000001,1.214,3.5469999999999997,0.574,-1
360,361,1582725282542,-3.8769364,-4.273986,-1.9521964,0.907,3.9560000000000004,0.40399999999999997,-1
361,362,1582725282552,-3.6872497,-3.74395,-1.1489531000000002,1.041,4.545,1.111,-1
362,363,1582725282563,-3.3680252999999998,-3.0089927000000003,-0.029814959,1.317,5.324,2.157,-1
363,364,1582725282573,-2.9344634999999997,-3.103097,0.65995,1.719,5.263999999999999,2.783,-1
364,365,1582725282583,-2.8113985,-3.147575,1.0812053999999998,1.82,5.249,3.135,-1
365,366,1582725282593,-2.6521516,-3.562561,1.3715302,1.966,4.861000000000001,3.343,-1
366,367,1582725282603,-2.3568206000000003,-3.7186550000000005,0.8147627,2.5669999999999997,4.813,1.949,-1
367,368,1582725282614,-1.6365916999999999,-3.6547449999999997,-0.41027927,3.384,4.749,0.622,-1
368,369,1582725282624,-1.0938222,-3.6798239,-1.611716,3.537,4.809,0.021,-1
369,370,1582725282634,-0.29895592,-3.3026023,-2.8245144,4.351,5.204,-1.3459999999999999,-1
370,371,1582725282644,-0.069767475,-3.1146626,-2.9867067000000005,4.588,5.395,-1.551,-1
371,372,1582725282654,0.036798000000000004,-2.9829687999999996,-2.6809893,4.708,5.53,-1.31,-1
372,373,1582725282665,-0.32207632,-2.6984448,-1.9416196,4.356,5.817,-0.61,-1
373,374,1582725282675,-1.1126611000000002,-2.7356691000000004,-0.7029597,3.5610000000000004,5.787999999999999,0.591,-1
374,375,1582725282685,-1.3903344,-2.89459,-0.20843112,2.998,5.611000000000001,1.266,-1
375,376,1582725282695,-1.6929476000000003,-2.815518,-0.004591584,2.977,5.721,1.216,-1
376,377,1582725282705,-0.8448491,-2.7525573,-0.6942006,3.8339999999999996,5.791,0.44,-1
377,378,1582725282716,0.60176516,-2.2828321,-1.8635598000000002,5.319,6.26,-0.895,-1
378,379,1582725282726,1.2112178999999998,-1.8527707999999998,-2.632441,5.989,6.672000000000001,-1.8130000000000002,-1
379,380,1582725282736,0.68569803,-1.5672622,-3.0476341000000002,5.518,6.94,-2.38,-1
380,381,1582725282746,-0.29380178,-1.6353826999999999,-2.5711486,4.545,6.872999999999999,-1.9680000000000002,-1
381,382,1582725282757,-0.71259594,-1.6624823,-2.2221740000000003,4.121,6.849,-1.621,-1
382,383,1582725282767,-1.5182781,-1.7097335,-0.34721878,3.302,6.806,0.299,-1
383,384,1582725282778,-1.2946284,-1.4249043,0.37235457,3.53,7.086,1.0490000000000002,-1
384,385,1582725282788,-0.5002260000000001,-1.1367021000000002,0.3991366,4.343999999999999,7.362,1.089,-1
385,386,1582725282798,0.33719109999999997,-0.5594864,0.21133262,5.228,7.912999999999999,0.895,-1
386,387,1582725282809,1.0481261999999998,-0.0013189316,-0.5734188,6.0089999999999995,8.435,0.05,-1
387,388,1582725282818,1.1631559999999999,0.18607426,-1.0974814,6.167000000000001,8.602,-0.546,-1
388,389,1582725282828,0.5918850999999999,0.15604687,-1.4962853,5.621,8.562000000000001,-1.0290000000000001,-1
389,390,1582725282838,0.30111265,0.0074625015000000005,-1.3030796,5.35,8.406,-0.924,-1
390,391,1582725282849,-0.4002986,0.051859855999999996,-0.6655426999999999,4.643,8.456,-0.34,-1
391,392,1582725282859,-1.121253,0.11259174,0.3189343,3.9010000000000002,8.527999999999999,0.677,-1
392,393,1582725282869,-1.1079063,0.25663185,0.70725954,3.887,8.686,1.1159999999999999,-1
393,394,1582725282879,-0.29281902,0.62041473,0.53128624,4.699,9.05,0.972,-1
394,395,1582725282890,0.82756233,1.0480719,-0.22850843,5.86,9.455,0.182,d
395,396,1582725282900,2.513268,1.4504738000000001,-1.1354586000000002,7.597,9.829,-0.78,-1
396,397,1582725282910,3.4500427000000005,1.6518582999999998,-1.7965268,8.574,10.008,-1.496,-1
397,398,1582725282920,3.0462097999999997,1.7123289000000002,-1.7838491,8.187999999999999,10.059,-1.528,-1
398,399,1582725282930,2.0709987,1.367424,-1.4561362,7.211,9.716000000000001,-1.228,-1
399,400,1582725282940,0.80194616,0.9630642,-0.69565433,5.9270000000000005,9.321,-0.474,-1
400,401,1582725282950,-0.37224913,1.0184773999999999,-0.227911,4.7219999999999995,9.395,0.002,-1
401,402,1582725282960,-0.58761215,1.0703764,0.12003641,4.476,9.465,0.366,-1
402,403,1582725282970,0.23139334,1.1894331,0.06488937,5.295,9.584,0.313,-1
403,404,1582725282981,1.5602578999999999,1.5582198999999999,-0.72364384,6.648,9.939,-0.505,-1
404,405,1582725282991,2.9874997000000003,1.8095818,-1.5523357,8.104,10.174,-1.3840000000000001,-1
405,406,1582725283001,4.0385585,2.0559397,-2.4884169999999997,9.172,10.411,-2.383,-1
406,407,1582725283011,4.1286125,1.9864874,-2.856944,9.259,10.344000000000001,-2.818,-1
407,408,1582725283021,3.47476,1.6998758000000003,-2.4750957000000002,8.583,10.071,-2.498,-1
408,409,1582725283031,3.0728077999999996,1.5273398999999999,-2.3685136000000004,8.15,9.917,-2.447,-1
409,410,1582725283041,3.3567996,1.5090723,-2.5590878,8.406,9.915,-2.687,-1
410,411,1582725283051,4.2311893,1.5892038,-3.455861,9.261000000000001,10.006,-3.6260000000000003,-1
411,412,1582725283061,5.245721,1.6129913,-4.681586299999999,10.262,10.037,-4.89,-1
412,413,1582725283072,6.352213,1.4334354,-5.722478400000001,11.354000000000001,9.865,-5.97,-1
413,414,1582725283082,6.942725,1.0893726000000001,-6.2317624,11.92,9.533999999999999,-6.524,-1
414,415,1582725283092,7.12212,0.75801086,-6.077829,12.032,9.238999999999999,-6.447,-1
415,416,1582725283102,7.144072,0.3003006,-5.555807,11.989,8.816,-5.98,-1
416,417,1582725283113,7.114135000000001,0.01635933,-5.5760440000000004,11.879000000000001,8.574,-6.059,-1
417,418,1582725283123,6.911191499999999,-0.44380474,-6.3887089999999995,11.582,8.162,-6.931,-1
418,419,1582725283133,6.3220267,-1.3789935,-7.2896410000000005,10.887,7.28,-7.8839999999999995,-1
419,420,1582725283143,5.302632,-2.1533827999999997,-7.7922635,9.754,6.562,-8.423,-1
420,421,1582725283153,4.470669,-3.0220585,-7.687489500000001,8.811,5.747999999999999,-8.334,-1
421,422,1582725283164,4.101827,-3.7283235,-7.12898,8.346,5.0889999999999995,-7.771,-1
422,423,1582725283174,4.097601,-4.456861,-5.5294547,8.281,4.39,-6.164,-1
423,424,1582725283184,3.7011657,-5.2419557999999995,-3.000249,7.962999999999999,3.563,-3.693,-1
424,425,1582725283194,2.8704042000000003,-6.0073013,-0.31823647,7.042999999999999,2.845,-0.948,-1
425,426,1582725283204,2.1077442000000004,-6.6286335,1.6048288,6.15,2.287,1.02,-1
426,427,1582725283215,1.2221115,-7.2614784,2.6076102000000003,5.12,1.719,2.035,-1
427,428,1582725283225,-0.1603322,-7.696738000000001,2.6812810000000002,3.585,1.348,2.102,-1
428,429,1582725283235,-1.6010773999999999,-7.965017,2.3697507,1.995,1.14,1.7890000000000001,-1
429,430,1582725283245,-2.7459016,-8.378455,3.0122542,0.716,0.78,2.457,-1
430,431,1582725283256,-3.7628567000000004,-8.7516985,4.688475599999999,-0.414,0.452,4.191,-1
431,432,1582725283266,-4.4487705,-9.302273,6.869116,-1.19,-0.062,6.459,-1
432,433,1582725283276,-4.901636,-9.474774,7.8648095,-1.6469999999999998,-0.23199999999999998,7.479,-1
433,434,1582725283286,-5.4364085,-9.592202,8.941755,-2.351,-0.285,9.105,-1
434,435,1582725283297,-4.875556,-9.398947999999999,8.286308,-1.827,-0.091,8.775,-1
435,436,1582725283307,-4.7442794,-9.232509,7.975516000000001,-1.525,0.102,8.6,-1
436,437,1582725283317,-4.7878475,-8.634295,8.243895,-1.712,0.613,9.338,-1
437,438,1582725283327,-5.551006,-8.5653515,10.399429,-2.435,0.627,11.8,-1
438,439,1582725283338,-7.079300999999999,-9.002427,13.798896,-3.884,0.136,15.364,-1
439,440,1582725283348,-9.052273,-9.569306,16.676733,-5.763999999999999,-0.488,18.375999999999998,-1
440,441,1582725283358,-10.657646000000002,-10.159923,18.04495,-7.256,-1.14,19.845,-1
441,442,1582725283368,-10.3460245,-10.442696,17.908333,-6.797000000000001,-1.494,19.778,-1
442,443,1582725283379,-9.580935,-9.893171,17.358383,-5.846,-1.032,19.282,-1
443,444,1582725283389,-7.8646746,-9.19868,16.933142,-3.911,-0.445,18.910999999999998,-1
444,445,1582725283400,-6.2136755,-8.124862,16.712267,-2.019,0.502,18.75,-1
445,446,1582725283410,-5.2094417,-7.160692,17.099838000000002,-0.7659999999999999,1.3259999999999998,19.198,-1
446,447,1582725283420,-4.634890599999999,-6.4544239999999995,18.049902,0.67,1.932,20.424,-1
447,448,1582725283431,-3.571732,-6.065827,17.977398,1.367,2.117,20.173,-1
448,449,1582725283440,-1.7437983,-5.6318054,16.341670999999998,3.4410000000000003,2.385,18.582,-1
449,450,1582725283450,0.24253225,-4.742696,14.742360999999999,5.671,3.094,17.042,-1
450,451,1582725283460,2.5265470000000003,-3.5357222999999998,12.7912655,8.195,4.105,15.17,-1
451,452,1582725283471,4.4887122999999995,-2.13055,11.26255,10.387,5.3020000000000005,13.74,-1
452,453,1582725283481,6.1886206,-1.0003084999999998,10.432260000000001,12.99,6.372999999999999,12.905999999999999,-1
453,454,1582725283491,7.211228,-0.3253641,10.255637,13.505,6.684,12.981,-1
454,455,1582725283501,7.4167175,-0.32287025,9.834896,13.929,6.394,12.775,-1
455,456,1582725283512,7.177837400000001,-0.4352045,9.116094,13.749,6.191,12.13,-1
456,457,1582725283522,6.523796,-0.3544345,7.789811,13.196,6.097,10.957,-1
457,458,1582725283532,7.634997,0.35333059999999994,6.1707654000000005,14.434000000000001,6.5360000000000005,9.594,-1
458,459,1582725283543,8.777124,0.8093629,5.7751,15.615,6.897,9.29,-1
459,460,1582725283553,13.207939000000001,2.1817159999999998,4.449172,20.142,7.98,8.253,-1
460,461,1582725283563,14.014327,2.310123,3.872547,20.968000000000004,8.017999999999999,7.776,-1
461,462,1582725283573,14.628712,2.2086287000000002,3.1371002,21.598000000000003,7.7589999999999995,7.235,-1
462,463,1582725283584,11.989086,1.4568887,2.4587717000000002,18.927,6.837000000000001,6.827999999999999,-1
463,464,1582725283594,9.882060000000001,1.1086559,1.6288776000000003,16.774,6.404,6.171,-1
464,465,1582725283604,9.406067,2.1258082000000003,1.0307732,16.247,7.337999999999999,5.742999999999999,-1
465,466,1582725283614,12.257772000000001,3.3181663,-0.68131304,19.057000000000002,8.435,4.1930000000000005,-1
466,467,1582725283625,14.030510000000001,3.6725296999999997,-1.7830284,20.811999999999998,8.738999999999999,3.168,-1
467,468,1582725283635,16.922929999999997,4.031805,-4.2690114999999995,23.643,8.971,0.89,-1
468,469,1582725283646,17.006876000000002,3.83505,-5.991497,23.674,8.727,-0.72,-1
469,470,1582725283656,16.69321,3.3507074999999995,-6.956600999999999,23.329,8.231,-1.635,-1
470,471,1582725283666,14.377939000000001,1.9832276999999998,-8.201794,20.903000000000002,6.867999999999999,-2.7489999999999997,-1
471,472,1582725283676,12.829899000000001,1.6473273999999998,-8.894159,19.279,6.555,-3.372,-1
472,473,1582725283687,12.743274000000001,1.4637079,-10.163749000000001,19.129,6.397,-4.591,-1
473,474,1582725283697,13.279055,0.9929061,-11.821003999999999,19.598,5.962999999999999,-6.205,-1
474,475,1582725283707,12.988794,0.7958503,-12.159237,19.291,5.779,-6.5360000000000005,-1
475,476,1582725283717,12.147949,0.39242792,-12.680351,18.422,5.403,-7.05,-1
476,477,1582725283728,11.496887,0.004670143,-13.107992000000001,17.747,5.041,-7.474,-1
477,478,1582725283738,10.808067999999999,-0.44799232,-13.04025,17.035,4.61,-7.4,-1
478,479,1582725283748,10.050869,-0.7159443,-12.660948,15.843,4.176,-6.847,-1
479,480,1582725283758,9.006468,-1.0563569,-12.251026,15.213,4.0489999999999995,-6.631,-1
480,481,1582725283769,8.876942,-1.1179688,-12.442724,15.093,3.997,-6.8420000000000005,-1
481,482,1582725283779,8.402895,-1.4533403,-12.938549,14.674000000000001,3.688,-7.4239999999999995,-1
482,483,1582725283789,8.174978,-1.7139268,-12.955052,14.47,3.4339999999999997,-7.474,-1
483,484,1582725283799,6.9638539999999995,-2.5363862999999998,-12.438787,13.342,2.615,-7.058,-1
484,485,1582725283810,6.262887,-3.1212611,-11.664589,12.71,2.0140000000000002,-6.351,-1
485,486,1582725283820,6.0969367,-3.36556,-11.147267,12.612,1.42,-5.212999999999999,-1
486,487,1582725283830,5.953546,-4.1567663999999995,-9.357996,12.573,0.893,-4.176,-1
487,488,1582725283840,5.451834,-4.8747253,-8.158989,12.181,0.107,-3.053,-1
488,489,1582725283850,4.642077,-5.2853699999999995,-6.1618485,11.517000000000001,-0.402,-1.156,-1
489,490,1582725283861,3.871756,-5.6076865,-3.916111,10.935,-0.871,0.9670000000000001,-1
490,491,1582725283870,3.3617272000000002,-5.7022324,-2.9628148,10.535,-1.063,1.8530000000000002,-1
491,492,1582725283880,2.0748686999999997,-5.569537,-1.1592135000000001,9.618,-1.314,3.4410000000000003,-1
492,493,1582725283890,2.2609334,-5.3624363,-1.1871129999999999,10.025,-1.334,3.247,-1
493,494,1582725283900,3.1299777,-5.095498,-1.0602999,11.055,-1.207,3.2110000000000003,-1
494,495,1582725283911,4.254199,-4.580573,0.021939754,12.3,-0.792,4.155,-1
495,496,1582725283921,4.595522,-4.049201999999999,2.0032997,12.743,-0.342,6.0089999999999995,-1
496,497,1582725283931,3.8921957000000003,-3.432654,3.8225849999999997,12.137,0.213,7.683,-1
497,498,1582725283941,2.4905033,-3.0044498,5.523895700000001,10.83,0.603,9.213,-1
498,499,1582725283951,1.1606969999999999,-3.1275036,6.3168983,9.589,0.455,9.824,-1
499,500,1582725283961,0.21970081,-2.8658528,6.358361,8.725,0.6890000000000001,9.704,-1
500,501,1582725283972,0.52204514,-2.8994067,6.1604233,9.093,0.613,9.381,-1
501,502,1582725283982,1.4329413999999998,-2.8643042999999997,6.615725500000001,10.059,0.589,9.752,-1
502,503,1582725283992,2.0539732,-2.3028362,8.528073,10.722000000000001,1.082,11.623,-1
503,504,1582725284002,3.0319689999999997,-1.6098461000000002,10.7521305,11.732999999999999,1.7069999999999999,13.828,-1
504,505,1582725284012,3.2742310000000003,-0.8560568999999999,12.778984,12.005999999999998,2.4090000000000003,15.823,-1
505,506,1582725284023,2.3907947999999997,-0.14495492,14.075778,11.152999999999999,3.1010000000000004,17.052,-1
506,507,1582725284033,1.3548002000000001,0.053381205,13.917043,10.145,3.3139999999999996,16.793,-1
507,508,1582725284043,0.07396889,0.09258795,12.816939999999999,8.885,3.391,15.584000000000001,-1
508,509,1582725284053,-0.98730993,0.148031,11.68014,7.836,3.491,14.353,-1
509,510,1582725284063,-1.4473672,0.2745781,10.911325999999999,7.381,3.657,13.517000000000001,-1
510,511,1582725284074,-1.6263819,0.3966422,9.853598,7.2010000000000005,3.81,12.422,-1
511,512,1582725284084,-1.3907008,0.52532005,8.82286,7.431,3.9610000000000003,11.380999999999998,-1
512,513,1582725284094,-0.9364271000000001,0.8315326999999999,8.670944,7.877000000000001,4.284,11.235,-1
513,514,1582725284104,-0.5134715999999999,0.8607683,8.568976,8.396,4.361000000000001,11.235,-1
514,515,1582725284114,-0.5109215,0.83810663,8.691706,8.277000000000001,4.332,11.287,-1
515,516,1582725284125,-1.4428291000000002,0.6076956,8.462446,7.316,4.162,11.074000000000002,-1
516,517,1582725284135,-1.7657394,0.5634968000000001,8.353346,6.981,4.143,10.970999999999998,-1
517,518,1582725284145,-2.442968,0.57696056,7.4810705,6.272,4.212,10.128,-1
518,519,1582725284155,-2.7590075,0.43568683,6.3373537,5.9079999999999995,4.129,9.06,-1
519,520,1582725284165,-2.8224611,0.5308168000000001,4.4525156,5.707000000000001,4.33,7.45,-1
520,521,1582725284176,-2.3204083,0.56058383,3.913185,6.526,4.44,6.73,-1
521,522,1582725284185,-1.5777721000000002,0.5715064999999999,3.0924172000000003,6.821000000000001,4.452,6.343999999999999,-1
522,523,1582725284195,-1.312026,0.5736196,2.5270717,7.0120000000000005,4.5,5.912999999999999,-1
523,524,1582725284205,-0.9093938,0.4210596,2.3753202,7.357,4.38,5.8629999999999995,-1
524,525,1582725284216,-0.54462385,0.29477978,2.2748055,7.68,4.277,5.834,-1
525,526,1582725284226,-0.5617675999999999,0.15244341,2.3473966,7.505,4.078,5.791,-1
526,527,1582725284236,-0.8275833,0.07458687,2.0150695,7.3020000000000005,4.102,5.7379999999999995,-1
527,528,1582725284246,-1.0779562,-0.19703579,1.3463206,6.981,3.855,5.194,-1
528,529,1582725284257,-0.8270601999999999,-0.10076547,1.2683258,7.144,3.97,5.276,-1
529,530,1582725284267,-0.58894825,-0.052288532,1.1736053999999998,7.35,4.018,5.245,-1
530,531,1582725284278,-0.24969960000000002,0.34534025,1.2312183,7.632000000000001,4.416,5.412000000000001,-1
531,532,1582725284288,-0.10141182,0.48157358,0.9566889000000001,7.769,4.555,5.156000000000001,d
532,533,1582725284298,1.0039907,0.86968327,-0.24749494,8.866,4.955,3.9560000000000004,-1
533,534,1582725284308,1.7012658,0.93923473,-1.0994687,9.568,5.0360000000000005,3.0839999999999996,-1
534,535,1582725284319,1.9063740000000002,0.87795544,-1.1876296999999998,9.774,4.981,2.988,-1
535,536,1582725284329,1.239584,0.5425482,-0.8656838,9.096,4.67,3.307,-1
536,537,1582725284339,0.652998,0.33180046,0.23622894,8.485,4.468999999999999,4.445,-1
537,538,1582725284349,-0.03245592,0.46347857,1.7262449,7.757000000000001,4.603,6.011,-1
538,539,1582725284360,-0.5066757000000001,0.6664028000000001,2.9967928,7.235,4.802,7.371,-1
539,540,1582725284370,-0.069215775,1.2392292,3.5808730000000004,7.635,5.367000000000001,8.027999999999999,-1
540,541,1582725284380,1.0550642,1.9264216,3.043723,8.737,6.0489999999999995,7.534,-1
541,542,1582725284390,2.1948133,2.3212671,1.9313979,9.865,6.449,6.437,-1
542,543,1582725284400,3.4939952000000005,2.827785,1.1727528999999999,11.152999999999999,6.968999999999999,5.685,-1
543,544,1582725284411,4.1059136,3.162455,1.7797394,11.742,7.3229999999999995,6.313,-1
544,545,1582725284421,3.86306,3.26622,2.940144,11.46,7.455,7.513,-1
545,546,1582725284431,3.2665381,3.4642487,4.230407700000001,10.811,7.692,8.854,-1
546,547,1582725284441,2.5865150000000003,3.7557921000000003,5.315791,10.071,8.032,9.992,-1
547,548,1582725284452,2.2907028,4.277824400000001,6.383285,9.711,8.61,11.11,-1
548,549,1582725284462,2.4937549,4.7126083,7.023467999999999,9.847999999999999,9.11,11.793,-1
549,550,1582725284472,3.1334906000000005,5.1637205999999995,7.389056,10.42,9.639,12.19,-1
550,551,1582725284483,3.6999388,5.427333999999999,7.325496,10.914000000000001,9.999,12.145,-1
551,552,1582725284493,4.5379157,5.6010003,6.4664936,11.627,10.353,11.297,-1
552,553,1582725284503,4.952821299999999,5.6492023,6.227029,11.940999999999999,10.542,11.064,-1
553,554,1582725284513,5.0907792999999995,5.249212,5.7932,11.963,10.298,10.636,-1
554,555,1582725284523,5.150702,4.897151,5.6051908,11.895999999999999,10.118,10.444,-1
555,556,1582725284534,5.0233115999999995,4.6017427,5.630388,11.702,9.915,10.460999999999999,-1
556,557,1582725284544,4.1790404,3.7724260999999997,5.7002287,10.645,9.388,10.478,-1
557,558,1582725284554,3.6233687000000003,3.168798,5.6172585,9.936,9.002,10.339,-1
558,559,1582725284564,3.3932881,2.7856902999999997,4.928192,9.546,8.844,9.577,-1
559,560,1582725284574,3.3089828000000003,2.339552,4.2985168,9.299,8.626,8.856,-1
560,561,1582725284585,3.1749763,1.8908477,3.2771487,9.0,8.406,7.726,-1
561,562,1582725284595,2.6157812999999996,1.5862393,2.1200604,8.272,8.327,6.449,-1
562,563,1582725284605,2.396884,1.0196505,1.2723379,7.882000000000001,7.977,5.477,-1
563,564,1582725284616,2.430327,0.51507044,0.66468954,7.747000000000001,7.676,4.742,-1
564,565,1582725284626,3.0065717999999997,-0.016267300000000002,-0.11383557,8.164,7.335,3.827,-1
565,566,1582725284636,3.3603034,-0.6304498000000001,-0.023750782,8.365,6.897,3.779,-1
566,567,1582725284646,3.064633,-1.1535373,0.014907122,7.925,6.5360000000000005,3.678,-1
567,568,1582725284657,2.4035792000000002,-1.5200481000000001,0.271986,7.146,6.306,3.798,-1
568,569,1582725284667,1.6481414,-2.0191298,0.2294538,6.327000000000001,5.898,3.635,-1
569,570,1582725284677,1.0914965,-2.1748104,0.0045166016,5.609,5.894,3.2689999999999997,-1
570,571,1582725284687,0.7155957,-2.396834,-0.26506853,5.06,5.822,2.8569999999999998,-1
571,572,1582725284698,0.7797432,-2.5960464,-0.51165104,4.955,5.76,2.474,-1
572,573,1582725284708,0.90783787,-2.7278624,-0.84201765,4.921,5.752000000000001,2.0140000000000002,-1
573,574,1582725284718,1.1138046,-2.9314007999999996,-1.4404535,4.9719999999999995,5.6610000000000005,1.29,-1
574,575,1582725284729,1.1329738999999999,-3.1657376,-2.246075,4.84,5.53,0.364,-1
575,576,1582725284739,1.429945,-3.2440743,-2.7597737,4.9910000000000005,5.546,-0.265,-1
576,577,1582725284749,1.8134238999999999,-3.3580384,-2.7379723,5.233,5.518,-0.35200000000000004,-1
577,578,1582725284759,1.5695218999999998,-3.704249,-2.2867792000000002,4.842,5.254,-0.004,-1
578,579,1582725284770,1.1076778999999999,-3.6317902,-2.3832357,4.157,5.446000000000001,-0.27,-1
579,580,1582725284780,0.8971,-3.6216702000000005,-3.0936227,3.8,5.53,-1.0959999999999999,-1
580,581,1582725284790,0.5235827000000001,-3.4909945,-3.3490629999999997,3.281,5.726,-1.4480000000000002,-1
581,582,1582725284801,0.34100723,-3.5537305,-3.1084127,3.0269999999999997,5.692,-1.245,-1
582,583,1582725284811,0.100790024,-3.9332886,-1.9768429,2.5810000000000004,5.3839999999999995,-0.18600000000000003,-1
583,584,1582725284821,-0.30515623,-3.8698788,-0.706846,2.045,5.486000000000001,1.058,-1
584,585,1582725284831,-0.6169449,-4.117331500000001,0.57078195,1.611,5.273,2.311,-1
585,586,1582725284842,-0.1985749,-3.9576912,1.3155456,1.92,5.465,3.017,-1
586,587,1582725284852,0.6927406999999999,-3.7243527999999997,0.73050666,2.718,5.731,2.363,-1
587,588,1582725284862,1.8685421999999998,-3.8678993999999998,-0.8263206,3.812,5.621,0.708,-1
588,589,1582725284872,2.2581575000000003,-4.3440356,-2.2417507000000003,4.119,5.178,-0.8140000000000001,-1
589,590,1582725284882,1.5147095,-4.7033434000000005,-2.4172533,3.283,4.849,-1.077,-1
590,591,1582725284892,0.36756253,-4.8337226,-1.2994515,2.0380000000000003,4.744,-0.016,-1
591,592,1582725284903,-0.7483274000000001,-5.0654078,-0.17366338,0.831,4.533,1.07,-1
592,593,1582725284913,-1.3377351999999998,-4.8732114,0.5682299,0.16699999999999998,4.742,1.774,-1
593,594,1582725284923,-1.2180065,-4.614142,0.27067828,0.23399999999999999,5.015,1.429,-1
594,595,1582725284933,-0.57701546,-4.3317223,-0.69119,0.843,5.309,0.409,-1
595,596,1582725284943,0.16456378,-3.992972,-1.2396618000000001,1.568,5.657,-0.201,-1
596,597,1582725284954,1.0046898000000002,-3.7512407,-1.2665507,2.4019999999999997,5.906000000000001,-0.289,-1
597,598,1582725284964,1.6958663,-3.4705486000000003,-1.4408326,3.094,6.193,-0.529,-1
598,599,1582725284974,1.8535490000000001,-3.254106,-1.9415821,3.2539999999999996,6.416,-1.1059999999999999,-1
599,600,1582725284984,1.3849252,-3.2115139999999998,-2.4499,2.78,6.466,-1.695,-1
600,601,1582725284994,0.5950041,-3.1488605,-3.0351295,1.9780000000000002,6.5360000000000005,-2.356,-1
601,602,1582725285005,0.075598836,-3.1163945,-3.1310182,1.4480000000000002,6.574,-2.512,-1
602,603,1582725285015,-0.029912114,-2.846282,-2.7685769000000002,1.341,6.847,-2.193,-1
603,604,1582725285025,0.09562539999999999,-2.6456075,-2.26823,1.4769999999999999,7.047999999999999,-1.724,-1
604,605,1582725285035,0.387977,-2.1512065,-2.0069096,1.791,7.541,-1.494,-1
605,606,1582725285046,0.63943756,-1.6577778000000003,-1.8247408999999999,2.074,8.032,-1.355,-1
606,607,1582725285056,0.7348733000000001,-1.2997055,-2.100645,2.21,8.387,-1.6980000000000002,-1
607,608,1582725285066,0.8801049000000001,-1.1635027,-2.4829404,2.406,8.519,-2.181,-1
608,609,1582725285076,0.93262136,-0.90913105,-2.7626946,2.533,8.765,-2.62,-1
609,610,1582725285086,0.7130153,-0.6345930000000001,-2.7640986,2.416,9.022,-2.907,-1
610,611,1582725285097,0.46724296,-0.40386009999999994,-2.1511842999999997,2.263,9.228,-2.5669999999999997,-1
611,612,1582725285107,0.37873054,-0.28871346,-1.3115398999999999,2.246,9.323,-1.858,-1
612,613,1582725285117,0.22928035,-0.1558876,-0.29562163,2.153,9.443,-0.871,-1
613,614,1582725285127,0.2605728,-0.1973095,0.41223228,2.239,9.392999999999999,-0.11900000000000001,-1
614,615,1582725285137,0.12154436,-0.24073982,0.51108396,2.145,9.342,0.013999999999999999,-1
615,616,1582725285148,0.47856236,0.001783371,0.11953807,2.562,9.572000000000001,-0.371,-1
616,617,1582725285158,0.9500531999999999,0.14445019,-0.58079976,3.096,9.699,-1.1059999999999999,-1
617,618,1582725285168,1.2614257,0.3962183,-1.2742059,3.46,9.936,-1.848,d
618,619,1582725285178,0.93987966,0.5900631,-1.8548703000000002,3.178,10.118,-2.471,-1
619,620,1582725285188,0.76392865,0.6431998999999999,-1.7190029999999998,3.034,10.162,-2.359,-1
620,621,1582725285199,0.47362638,0.3336115,-0.7576073,2.775,9.845,-1.396,-1
621,622,1582725285209,-0.2629757,0.27886772,1.1296399,2.069,9.788,0.574,-1
622,623,1582725285219,-0.53849876,0.20087814,1.8291279999999999,1.798,9.714,1.369,-1
623,624,1582725285229,-0.34939337,0.26209829999999995,1.2053133999999999,2.002,9.774,0.799,-1
624,625,1582725285240,-0.018127918,0.64711285,0.23997705,2.366,10.15,-0.18600000000000003,-1
625,626,1582725285250,0.042495012,0.5468559000000001,-0.2818664,2.445,10.044,-0.732,-1
626,627,1582725285260,0.21098256,0.7930526999999999,-1.3089966,2.668,10.272,-1.841,-1
627,628,1582725285270,0.24251889999999998,0.90199375,-1.1581290000000002,2.718,10.375,-1.71,-1
628,629,1582725285280,0.61078763,0.94357014,-0.19805813,3.147,10.399000000000001,-0.775,-1
629,630,1582725285291,0.81092453,1.3243256,0.16800982,3.391,10.767999999999999,-0.40700000000000003,-1
630,631,1582725285301,0.79207087,1.5380735,0.22841460000000002,3.3930000000000002,10.975999999999999,-0.34700000000000003,-1
631,632,1582725285311,1.1931216999999998,1.8617887,-0.06512129,3.853,11.282,-0.6609999999999999,-1
632,633,1582725285321,0.9971032,2.0522566,-0.43362403,3.673,11.467,-1.044,-1
633,634,1582725285332,0.7344785,1.9544811000000002,-1.2524002,3.4360000000000004,11.359000000000002,-1.906,-1
634,635,1582725285342,0.67493033,2.0233335,-1.4786716,3.3960000000000004,11.419,-2.177,-1
635,636,1582725285352,1.0317805,1.8256740000000002,-1.6208367,3.7760000000000002,11.210999999999999,-2.366,-1
636,637,1582725285363,1.9198608,1.9903506999999998,-1.7264543,4.694,11.364,-2.5069999999999997,-1
637,638,1582725285373,2.9860158,2.2219782,-1.5776441,5.792999999999999,11.584000000000001,-2.38,-1
638,639,1582725285384,2.7361223999999997,2.5642214,-1.5740457,5.5729999999999995,11.915,-2.4019999999999997,-1
639,640,1582725285394,1.8324869,2.667879,-1.5944049,4.672,12.015,-2.454,-1
640,641,1582725285404,1.2690728,2.5541067,-2.0763523999999998,4.102,11.898,-2.991,-1
641,642,1582725285415,1.1160598,2.2574883,-2.9542022,3.9389999999999996,11.595999999999998,-3.951,-1
642,643,1582725285425,1.4064386,2.0797567,-3.9948002999999996,4.2219999999999995,11.409,-5.093999999999999,-1
643,644,1582725285435,2.7143836,2.226986,-5.242936,5.53,11.543,-6.449,-1
644,645,1582725285445,4.300289,2.5191470000000002,-6.132585,7.992000000000001,12.013,-7.702000000000001,-1
645,646,1582725285456,5.963667,2.8829298,-6.860530000000001,8.801,12.165999999999999,-8.255,-1
646,647,1582725285466,7.0213684999999995,3.3264312999999994,-7.701267999999999,9.865,12.595,-9.177,-1
647,648,1582725285476,7.814646700000001,3.0110207,-8.911905,10.630999999999998,12.269,-10.502,-1
648,649,1582725285487,8.189835,2.5878525000000003,-9.173967999999999,10.954,11.85,-10.83,-1
649,650,1582725285496,8.339347,2.1556406000000004,-8.824394,11.067,11.424000000000001,-10.505999999999998,-1
650,651,1582725285506,7.8134179999999995,1.3111476999999998,-7.3739686,10.449000000000002,10.6,-9.089,-1
651,652,1582725285516,7.174036,0.4423437,-5.57351,9.697000000000001,9.759,-7.307,-1
652,653,1582725285526,6.458494,-0.7880764,-3.3982943999999997,8.796,8.571,-5.162999999999999,-1
653,654,1582725285536,6.051115,-1.4834156,-2.342968,8.265,7.898,-4.148,-1
654,655,1582725285546,5.3394260000000004,-2.3009267,-2.3800442000000004,7.441,7.091,-4.263,-1
655,656,1582725285556,4.2085633,-3.2539124,-2.6282758999999998,6.306,6.1,-4.696000000000001,-1
656,657,1582725285566,3.6964383,-3.5671883,-3.0351220000000003,5.819,5.747999999999999,-5.247000000000001,-1
657,658,1582725285577,2.4952753,-4.919371,-2.8765306,4.38,4.4110000000000005,-5.235,-1
658,659,1582725285587,2.353168,-5.451896700000001,-2.2865990000000003,4.136,3.8989999999999996,-4.643,-1
659,660,1582725285597,1.9281749,-6.200122400000001,-0.6087239000000001,3.5060000000000002,3.199,-2.9189999999999996,-1
660,661,1582725285608,0.8552408000000001,-7.422839,2.3914862,2.141,2.0540000000000003,0.222,-1
661,662,1582725285618,-0.24005121,-7.6990113,4.696292400000001,0.8690000000000001,1.827,2.648,-1
662,663,1582725285628,-1.1358868,-7.837670299999999,6.1008058,-0.184,1.7309999999999999,4.176,-1
663,664,1582725285638,-1.7372496,-8.029204,6.5009440000000005,-0.922,1.575,4.694,-1
664,665,1582725285648,-2.3591197,-8.162707000000001,7.01998,-1.659,1.472,5.331,-1
665,666,1582725285658,-2.0963738000000003,-8.416628,7.360886,-1.4869999999999999,1.245,5.795,-1
666,667,1582725285669,-1.8331661,-8.61208,8.073976,-1.2930000000000001,1.075,6.646,-1
667,668,1582725285679,-1.7540764,-8.711948,8.623280000000001,-1.266,1.001,7.362,-1
668,669,1582725285689,-2.0184526000000003,-8.682696,9.061564,-1.571,1.058,8.017999999999999,-1
669,670,1582725285699,-2.8343263,-8.775117,10.305749,-2.476,1.01,9.764,-1
670,671,1582725285710,-4.337879,-8.900279,12.692524,-4.004,0.898,12.463,-1
671,672,1582725285720,-5.284392400000001,-8.917508999999999,13.992671,-4.95,0.883,13.9,-1
672,673,1582725285730,-7.44797,-9.289858,18.14888,-7.074,0.505,18.451,-1
673,674,1582725285740,-7.9137889999999995,-9.271952,20.278095,-7.474,0.51,20.816999999999997,-1
674,675,1582725285751,-7.634207000000001,-8.829902,21.446120999999998,-7.091,0.934,22.182,-1
675,676,1582725285762,-5.901057700000001,-7.4803157,21.071676,-5.132000000000001,2.251,22.01,-1
676,677,1582725285772,-4.206492400000001,-6.376322,20.349585,-3.2539999999999996,3.3310000000000004,21.365,-1
677,678,1582725285782,-3.5524974,-5.6618605,19.267633,-2.411,4.021,20.320999999999998,-1
678,679,1582725285792,-3.917582,-5.005993,18.449339000000002,-2.591,4.6530000000000005,19.505,-1
679,680,1582725285803,-4.080325,-4.583327,17.076393,-2.565,5.051,18.102999999999998,-1
680,681,1582725285813,-3.5858717,-4.047677999999999,16.49044,-1.9709999999999999,5.5729999999999995,17.493,-1
681,682,1582725285823,-0.9458661,-1.4930696,14.323888,0.998,8.076,15.232000000000001,-1
682,683,1582725285833,1.2430558,0.03419113,12.295625,3.427,9.558,13.130999999999998,-1
683,684,1582725285843,3.2698917,1.5657511,10.192848,5.7,11.036,10.954,-1
684,685,1582725285853,4.935642700000001,2.7198286,8.521914500000001,7.608,12.13,9.213,-1
685,686,1582725285864,5.541868,3.3525133,7.781913,8.44,12.7,8.411,-1
686,687,1582725285874,5.371551,3.9203644,7.291962599999999,8.472999999999999,13.206,7.865,-1
687,688,1582725285884,5.008332299999999,4.599349,7.105867999999999,8.296,13.824000000000002,7.622999999999999,-1
688,689,1582725285894,5.8822565,5.160451999999999,5.8341174,9.263,14.353,6.322,-1
689,690,1582725285904,8.068996,6.0344086,3.3707538,11.732999999999999,15.124,3.7239999999999998,-1
690,691,1582725285914,10.97737,6.734816599999999,-0.58176583,14.837,15.747,-0.349,-1
691,692,1582725285925,12.932222,6.945238000000001,-4.1341248,16.971,15.880999999999998,-4.03,-1
692,693,1582725285935,13.246694,6.5674314,-6.26406,17.428,15.437999999999999,-6.274,-1
693,694,1582725285945,11.548212,5.987006,-6.675221400000001,15.828,14.81,-6.768,-1
694,695,1582725285956,9.282108000000001,5.410554,-6.383919000000001,13.625,14.202,-6.526,-1
695,696,1582725285966,7.8449917000000005,5.3700437999999995,-6.410036,12.235999999999999,14.137,-6.582999999999999,-1
696,697,1582725285976,8.253457000000001,5.335848,-7.4380964999999994,12.698,14.075,-7.647,-1
697,698,1582725285986,10.169872,5.1115303,-10.286727,14.679,13.815999999999999,-10.552,-1
698,699,1582725285997,11.534258,4.718005000000001,-13.081736,16.101,13.39,-13.415999999999999,-1
699,700,1582725286007,11.410021,4.235006299999999,-14.624108999999999,16.01,12.887,-15.015999999999998,-1
700,701,1582725286017,10.288300999999999,3.3856048999999997,-15.411798999999998,14.892000000000001,12.034,-15.838,-1
701,702,1582725286028,8.324928,2.6290445,-15.056741,12.904000000000002,11.29,-15.493,-1
702,703,1582725286038,6.883665,1.8268471000000002,-14.392987,11.419,10.511,-14.825,-1
703,704,1582725286048,6.3411074,1.4974383999999998,-14.09939,10.850999999999999,10.195,-14.527999999999999,-1
704,705,1582725286059,5.637201999999999,0.5492134,-13.285116,10.062999999999999,9.29,-13.710999999999999,-1
705,706,1582725286069,5.3018923,-0.23342419,-12.514488,9.359,8.32,-12.449000000000002,-1
706,707,1582725286079,4.7791452,-0.9132805,-11.585094999999999,9.079,7.888999999999999,-12.034,-1
707,708,1582725286089,3.9426036,-1.9490561000000002,-10.28651,8.145,6.897,-10.794,-1
708,709,1582725286099,3.8098226000000004,-2.4818392000000005,-9.319191,7.9510000000000005,6.388999999999999,-9.892999999999999,-1
709,710,1582725286110,3.7049093,-3.1629887,-8.254824000000001,7.792999999999999,5.726,-8.921,-1
710,711,1582725286120,3.7601565999999997,-3.6554290000000003,-7.5079803,7.8020000000000005,5.245,-8.293,-1
711,712,1582725286130,3.7471227999999996,-3.7481269999999998,-7.299041000000001,7.81,4.9239999999999995,-8.104,-1
712,713,1582725286140,3.5450877999999997,-4.1449666,-6.785667,7.501,4.763,-7.867000000000001,-1
713,714,1582725286150,3.120857,-4.355599400000001,-6.528155,7.041,4.545,-7.7860000000000005,-1
714,715,1582725286160,3.0220673,-4.5159273,-6.128503299999999,6.914,4.37,-7.565,-1
715,716,1582725286170,3.129121,-4.5611777,-5.5598564,7.022,4.308,-7.093999999999999,-1
716,717,1582725286180,2.5919242000000002,-4.833366000000001,-3.3848364,6.706,3.8339999999999996,-5.415,-1
717,718,1582725286190,2.0429235,-5.182249,-2.5725327,6.112,3.484,-4.696000000000001,-1
718,719,1582725286200,1.5080853,-5.4850544999999995,-1.6502767,5.497999999999999,3.2089999999999996,-3.81,-1
719,720,1582725286211,1.2806151000000001,-5.794323,-0.4332838,5.185,2.9360000000000004,-2.603,-1
720,721,1582725286221,1.0014999,-6.050968,0.6005501999999999,4.823,2.715,-1.5730000000000002,-1
721,722,1582725286231,1.1494498,-6.310958,0.87511325,4.897,2.4859999999999998,-1.3019999999999998,-1
722,723,1582725286241,1.4796368999999998,-6.6375437,1.0235766,5.167999999999999,2.186,-1.147,-1
723,724,1582725286251,1.3667923999999998,-6.913818400000001,1.6816331000000002,5.007,1.9369999999999998,-0.45899999999999996,-1
724,725,1582725286261,1.2615895000000001,-6.928605999999999,2.1055374,4.881,1.9369999999999998,-0.009000000000000001,-1
725,726,1582725286272,0.43473100000000003,-6.979028,4.190689,4.004,1.935,2.198,-1
726,727,1582725286282,-0.60779357,-7.3155092999999995,6.557441000000001,2.9360000000000004,1.633,4.677,-1
727,728,1582725286292,-1.3703027,-7.473636,8.921695,2.165,1.508,7.189,-1
728,729,1582725286302,-2.0785801,-7.602834700000001,10.446891,1.506,1.42,9.065,-1
729,730,1582725286313,-2.7737689999999997,-7.7329216,10.877131,0.929,1.3259999999999998,10.248,-1
730,731,1582725286323,-3.0527563,-7.519893,11.188112,0.725,1.525,10.89,-1
731,732,1582725286333,-3.4506233,-7.037859399999999,11.494810000000001,0.414,1.975,11.436,-1
732,733,1582725286344,-3.443357,-6.670889,11.792202,0.529,2.294,11.939,-1
733,734,1582725286354,-3.0591497000000003,-6.654131,12.166378,1.044,2.246,12.515999999999998,-1
734,735,1582725286364,-2.179958,-6.244248000000001,13.538198999999999,2.076,2.574,14.082,-1
735,736,1582725286374,-1.3504686000000001,-5.8081116999999995,16.04423,3.072,2.9139999999999997,16.777,-1
736,737,1582725286385,-1.6245928,-5.327767400000001,18.715498,2.967,3.29,19.622,-1
737,738,1582725286395,-2.4898787000000002,-4.487156,20.227386,2.27,4.023,21.272,-1
738,739,1582725286405,-3.5073394999999996,-3.8464417,19.174201999999998,1.422,4.555,20.309,-1
739,740,1582725286415,-3.4649023999999997,-3.4565639999999997,16.724928,1.6380000000000001,4.833,17.914,-1
740,741,1582725286426,-2.133412,-2.744855,13.661857999999999,3.1510000000000002,5.422000000000001,14.905999999999999,-1
741,742,1582725286436,-0.44721603,-2.3998995,11.982307,5.022,5.63,13.315999999999999,-1
742,743,1582725286446,0.5640378,-2.2034792999999997,11.352617,6.212000000000001,5.678,12.82,-1
743,744,1582725286456,0.56060743,-1.5746903,11.507479,6.372999999999999,6.152,13.145999999999999,-1
744,745,1582725286466,0.055776596,-1.1752219,12.070114,6.018,6.392,13.902999999999999,-1
745,746,1582725286477,-0.744524,-0.8781071,12.2796955,5.357,6.524,14.317,-1
746,747,1582725286487,-1.514205,0.22070074,11.59355,4.785,7.364,13.931,-1
747,748,1582725286497,-1.1590023,0.512022,11.044407000000001,5.206,7.565,13.475999999999999,-1
748,749,1582725286507,1.3935227,1.2107272,8.140622,7.956,7.98,10.839,-1
749,750,1582725286518,3.4655924,1.3968549,5.590084,10.152000000000001,7.968,8.468,-1
750,751,1582725286528,4.4279447,1.6555833999999998,4.602311,11.17,8.126,7.577000000000001,-1
751,752,1582725286538,5.191512,2.4781842,4.362423000000001,12.058,8.646,7.676,-1
752,753,1582725286548,3.9089517999999996,2.8205342,5.9097147,10.82,8.794,9.477,-1
753,754,1582725286558,2.5208611000000003,2.6800408,7.084172,9.455,8.471,10.899000000000001,-1
754,755,1582725286569,1.7225046000000002,2.3791385,6.516445,8.672,8.001,10.55,-1
755,756,1582725286579,1.8244723999999999,2.2569642000000005,4.9407559999999995,8.792,7.721,9.156,-1
756,757,1582725286589,2.7120786,2.081532,2.6706790000000002,9.702,7.393,7.041,-1
757,758,1582725286600,3.7751980000000005,2.1711783,1.096118,10.789000000000001,7.327999999999999,5.611000000000001,-1
758,759,1582725286610,4.941339,2.4843453999999996,0.9553714,11.975,7.482,5.6160000000000005,-1
759,760,1582725286620,6.290457,3.1628942,1.1442075,13.34,8.004,5.944,-1
760,761,1582725286630,7.424732700000001,3.4911747,0.69813776,14.487,8.187999999999999,5.621,-1
761,762,1582725286641,7.5165752999999995,3.3390902999999996,-0.013631343999999998,14.585,7.912999999999999,5.015,-1
762,763,1582725286651,7.1870656,3.0631537,-0.9777708,14.257,7.537000000000001,4.138,-1
763,764,1582725286661,6.2278223,2.9992337000000004,-1.9854372,13.297,7.391,3.202,-1
764,765,1582725286672,5.7723546,3.2257872000000005,-2.9199232999999998,12.837,7.544,2.335,-1
765,766,1582725286682,6.047291,3.4087358,-3.7808342000000006,13.105,7.652,1.544,-1
766,767,1582725286692,7.0348067,3.9044913999999995,-4.4396415000000005,14.087,8.068,0.955,-1
767,768,1582725286702,7.978803599999999,4.014774299999999,-4.7542805999999995,15.027999999999999,8.097000000000001,0.706,-1
768,769,1582725286713,8.176909,3.7513504,-4.5294924000000005,15.222000000000001,7.7589999999999995,0.991,-1
769,770,1582725286723,6.5077333,3.1054466,-4.008847,13.536,7.026,1.595,-1
770,771,1582725286733,5.7510395,2.7809133999999998,-4.031626,11.802,6.444,1.82,-1
771,772,1582725286743,3.7499614,2.4692385,-3.4462996,10.758,6.33,2.224,-1
772,773,1582725286753,2.3604856,2.1407008,-2.0441298,9.354,5.954,3.676,-1
773,774,1582725286764,2.4284525,2.3568458999999997,-1.3885622,9.417,6.15,4.351,-1
774,775,1582725286774,3.9333972999999998,2.5502403,-0.70365715,10.918,6.277,5.084,-1
775,776,1582725286784,4.5457616,2.6546182999999997,-0.8590679,11.534,6.3629999999999995,4.936,-1
776,777,1582725286795,5.081167,2.765509,-1.8401535,12.09,6.452000000000001,3.944,-1
777,778,1582725286804,4.7336993,2.6592238,-2.3252838,11.752,6.351,3.444,-1
778,779,1582725286814,3.7455206,2.4044962000000005,-2.9229956,10.787,6.121,2.802,-1
779,780,1582725286824,2.2353257999999996,2.3293345000000003,-3.502762,9.323,6.112,2.121,-1
780,781,1582725286834,1.912682,2.2573836,-3.4912026,9.019,6.068,2.09,-1
781,782,1582725286844,1.4271068999999998,2.3579117999999997,-2.7219037999999998,8.564,6.222,2.783,-1
782,783,1582725286855,1.5905928999999999,2.6564522,-1.9925482,8.919,6.497000000000001,3.755,-1
783,784,1582725286865,2.2340703,2.6499328999999996,-1.3283749,9.402000000000001,6.5520000000000005,4.109,-1
784,785,1582725286875,2.3203682999999997,2.481353,-0.88591576,9.503,6.388999999999999,4.5280000000000005,-1
785,786,1582725286885,2.1123366000000003,2.5289967,-0.6119623000000001,9.311,6.454,4.768,-1
786,787,1582725286895,1.9638672,2.15543,-1.0885539,9.196,6.136,4.205,-1
787,788,1582725286906,1.9756174,2.065991,-1.4695413,9.235,6.097,3.748,-1
788,789,1582725286916,1.9687976999999999,2.0958930000000002,-1.9450662,9.256,6.186,3.187,-1
789,790,1582725286926,1.9647293000000001,2.186286,-2.0755022000000003,9.263,6.306,3.017,-1
790,791,1582725286936,2.0986495,2.1984619999999997,-2.171708,9.419,6.392,2.8280000000000003,-1
791,792,1582725286946,2.4248166,2.105206,-0.9294566999999999,9.742,6.32,4.0569999999999995,-1
792,793,1582725286957,2.3370676,1.9545288,0.080479145,9.637,6.178999999999999,5.084,d
793,794,1582725286967,2.512301,1.7193928,0.98161507,9.788,5.949,6.016,-1
794,795,1582725286977,2.6607418,1.7534113000000002,1.7701178,9.91,5.992000000000001,6.835,-1
795,796,1582725286987,2.8988566000000002,2.005579,2.0077443,10.123,6.265,7.091,-1
796,797,1582725286998,2.9781566,2.2278,1.8252238999999997,10.177999999999999,6.524,6.912000000000001,-1
797,798,1582725287008,2.929554,2.6776652000000003,1.5936451,10.104,7.026,6.672000000000001,-1
798,799,1582725287018,3.0726112999999997,2.9405818,1.5855937,10.221,7.35,6.648,-1
799,800,1582725287028,3.8972077000000005,3.3884964,1.4151931,11.020999999999999,7.862,6.456,-1
800,801,1582725287039,4.807525599999999,3.7802867999999994,1.4733067,11.905,8.32,6.492000000000001,-1
801,802,1582725287049,5.2463207,3.9607862999999996,1.7359066000000003,12.312000000000001,8.568999999999999,6.737,-1
802,803,1582725287059,5.176006,4.162815,2.2450080000000003,12.205,8.844,7.23,-1
803,804,1582725287069,4.4414444,4.516017,2.5010958,11.425999999999998,9.277999999999999,7.472,-1
804,805,1582725287080,3.9441852999999996,4.8623824,2.5928240000000002,10.878,9.711,7.551,-1
805,806,1582725287090,4.251692,5.570194,2.845107,11.134,10.509,7.7860000000000005,-1
806,807,1582725287100,4.8229747000000005,6.0856953,2.866167,11.655999999999999,11.12,7.779,-1
807,808,1582725287110,6.2774005,5.882671,1.2977056999999999,13.064,11.020999999999999,6.167000000000001,-1
808,809,1582725287121,6.806932000000001,6.0784726,2.1488452000000002,13.543,11.333,6.9639999999999995,-1
809,810,1582725287131,6.8224034,5.8419776,2.5612058999999996,13.503,11.227,7.309,-1
810,811,1582725287141,6.1754489999999995,5.136939,3.1997976,12.787,10.667,7.877000000000001,-1
811,812,1582725287151,4.793203,4.9917393,4.6129584,11.318,10.679,9.222999999999999,-1
812,813,1582725287161,3.9205102999999997,5.0028176,5.059528,10.290999999999999,10.95,9.556000000000001,-1
813,814,1582725287172,3.8181076000000003,4.385443,4.4701676,10.133,10.427,8.919,-1
814,815,1582725287182,3.5101394999999997,3.5798416,3.6380897000000005,9.644,9.915,7.928999999999999,-1
815,816,1582725287192,3.4425550000000005,3.411056,3.5832724999999996,9.513,9.845,7.817,-1
816,817,1582725287202,3.0688896,2.4543333,4.594807,8.94,9.187000000000001,8.641,-1
817,818,1582725287212,2.1921619999999997,1.7059932,5.633066,7.922000000000001,8.642999999999999,9.533999999999999,-1
818,819,1582725287222,1.7365417,1.3383975000000001,6.1891856,7.395,8.38,10.006,-1
819,820,1582725287232,1.1738066999999999,0.6224755999999999,6.4451694,6.689,7.877000000000001,10.068,-1
820,821,1582725287242,0.5879564,-0.132545,5.171554,5.956,7.335,8.576,-1
821,822,1582725287252,-0.86019325,-0.06475209999999999,5.407569400000001,4.342,7.6129999999999995,8.595,-1
822,823,1582725287263,-1.9859941000000003,-0.6977892,4.627468,2.917,7.278,7.546,-1
823,824,1582725287273,-1.6298122,-1.0010796,3.7304218000000002,3.034,7.141,6.581,-1
824,825,1582725287283,-0.77671146,-1.1665802,3.0589560000000002,3.6710000000000003,7.106,5.879,-1
825,826,1582725287293,-0.07805395,-1.9043903000000002,2.5981273999999996,4.22,6.483,5.309,-1
826,827,1582725287303,-0.21269274,-2.3628912,2.3454127000000002,3.935,6.167000000000001,4.837,-1
827,828,1582725287314,-0.61470366,-3.252863,1.4850802,3.362,5.428999999999999,3.717,-1
828,829,1582725287324,-1.5543182,-3.0924807,1.9205193999999999,2.2359999999999998,5.731,3.908,-1
829,830,1582725287334,-1.6753386000000001,-3.0202699,1.2456966999999999,1.92,5.937,2.9810000000000003,-1
830,831,1582725287344,-2.3254344,-3.4017606,-1.6664201,1.065,5.678,-0.172,-1
831,832,1582725287354,-5.2700872,-5.300753599999999,-6.986267999999999,-2.093,3.884,-5.676,-1
832,833,1582725287364,-5.4280024000000004,-2.2409658,-3.1407112999999995,-2.43,7.01,-1.875,-1
833,834,1582725287375,-4.1247606,-4.6136026,-0.6491286000000001,-1.178,4.651,0.637,-1
834,835,1582725287385,0.8163116,-1.122654,6.674686400000001,3.6519999999999997,8.15,8.14,-1
835,836,1582725287395,0.50420046,-2.988235,6.1132126,3.252,6.289,7.711,-1
836,837,1582725287405,1.2062526000000002,-4.9830613,2.261993,3.846,4.3389999999999995,3.779,-1
837,838,1582725287415,-0.39857984,-5.5628953,0.03287244,2.09,3.824,1.3980000000000001,-1
838,839,1582725287425,-2.3003597,-5.099125,-0.31206805,0.019,4.351,0.907,-1
839,840,1582725287436,-2.8299766,-4.949388,0.6087861999999999,-0.677,4.555,1.705,-1
840,841,1582725287446,-2.0170398,-4.327358,1.8086123,-0.009000000000000001,5.221,2.792,-1
841,842,1582725287456,-0.90392226,-4.0547767,2.3192499,0.981,5.53,3.185,-1
842,843,1582725287466,-0.65331876,-4.1482244,1.5539649,1.113,5.47,2.289,-1
843,844,1582725287476,-0.97873545,-4.048908,0.517219,0.6609999999999999,5.601,1.1179999999999999,-1
844,845,1582725287487,-1.9021816000000003,-4.096833,-0.8813825000000001,-0.397,5.582000000000001,-0.40700000000000003,-1
845,846,1582725287497,-2.8642612,-4.077681500000001,-2.0441597,-1.489,5.625,-1.6740000000000002,-1
846,847,1582725287507,-2.639255,-3.6320472,-1.8713677,-1.374,6.087999999999999,-1.571,-1
847,848,1582725287517,-1.8018199000000001,-3.1987638,-0.58482957,-0.622,6.5329999999999995,-0.318,-1
848,849,1582725287527,-1.1826185,-2.7905998,1.2771075,-0.076,6.95,1.535,-1
849,850,1582725287537,-0.26577032,-2.5374656000000004,2.4572651000000003,0.7709999999999999,7.211,2.708,-1
850,851,1582725287547,0.12342298,-2.4426593999999997,2.7243267999999996,1.089,7.314,2.938,-1
851,852,1582725287557,0.44819707,-2.214581,1.7109863999999997,1.3359999999999999,7.551,1.8359999999999999,-1
852,853,1582725287567,0.89896995,-2.3568792000000003,0.43976402,1.7,7.417000000000001,0.433,-1
853,854,1582725287577,0.40915219999999997,-2.2655472999999997,-1.0106647,1.1059999999999999,7.515,-1.171,-1
854,855,1582725287588,-0.86645555,-2.4899797,-2.0787575,-0.294,7.295,-2.39,-1
855,856,1582725287598,-2.821197,-2.8729339,-3.8764904000000002,-2.406,6.914,-4.3389999999999995,-1
856,857,1582725287608,-4.168598,-2.64007,-1.8426311999999998,-3.9130000000000003,7.149,-2.371,-1
857,858,1582725287619,-4.188692,-2.7556415000000003,-0.21845788,-4.047,7.0360000000000005,-0.742,-1
858,859,1582725287629,-1.9557593999999998,-2.296134,1.6051593000000002,-1.8559999999999999,7.497999999999999,1.12,-1
859,860,1582725287639,0.6238345999999999,-1.971643,2.2795186000000003,0.737,7.824,1.829,-1
860,861,1582725287649,2.4820330000000004,-1.2582693,1.9635541,2.66,8.538,1.5490000000000002,-1
861,862,1582725287659,2.3885984000000002,-1.0490751,1.1175114,2.648,8.746,0.718,-1
862,863,1582725287670,1.226801,-1.3538618,0.40149695,1.472,8.44,-0.035,-1
863,864,1582725287679,-0.05288039,-1.3799428999999999,0.20147642,0.134,8.413,-0.282,-1
864,865,1582725287689,-0.9994360000000001,-1.3635693000000002,0.084682316,-0.8859999999999999,8.427999999999999,-0.447,-1
865,866,1582725287699,-1.554207,-1.5081425,-0.3878283,-1.511,8.281,-0.972,-1
866,867,1582725287709,-2.0707259999999996,-1.2681589,-1.6243454,-2.11,8.516,-2.287,-1
867,868,1582725287720,-1.9714246,-1.3034620000000001,-2.6184509,-2.093,8.471,-3.403,-1
868,869,1582725287729,-1.0879729,-1.2271032,-2.5711577,-1.24,8.538,-3.46,-1
869,870,1582725287739,0.22612968,-0.80361366,-1.945171,0.11699999999999999,8.957,-2.888,-1
870,871,1582725287749,1.7524028000000003,-0.31542109999999995,-0.7223284000000001,1.82,9.445,-1.671,-1
871,872,1582725287759,3.1015022,-0.047444344000000006,0.7511253999999999,3.388,9.718,-0.1,-1
872,873,1582725287770,3.197581,-0.0052604675,1.7561772,3.5989999999999998,9.766,1.0270000000000001,-1
873,874,1582725287780,1.8952639,-0.05852127,1.8018881999999998,2.375,9.718,1.202,-1
874,875,1582725287790,0.57126015,-0.30715466,1.1236866,1.072,9.474,0.625,-1
875,876,1582725287800,-0.652233,-0.40364265,0.042967915999999995,-0.215,9.381,-0.447,-1
876,877,1582725287811,-1.0131023000000001,-0.44589424,-0.28724167,-0.617,9.34,-0.787,d
877,878,1582725287821,-0.82342994,-0.34347248,-0.95022106,-0.5429999999999999,9.443,-1.5130000000000001,-1
878,879,1582725287831,-0.58690417,-0.31990242,-0.99718237,-0.354,9.465,-1.607,-1
879,880,1582725287841,-0.29120052,-0.48299503,-1.8912034,-0.086,9.297,-2.5839999999999996,-1
880,881,1582725287852,-0.30730215,-0.38970375,-2.3428369,-0.131,9.381,-3.1630000000000003,-1
881,882,1582725287862,0.033703104,-0.17023945,-2.1794933999999997,0.201,9.596,-3.053,-1
882,883,1582725287872,0.5617499,-0.15816116,-1.3950984,0.742,9.606,-2.289,-1
883,884,1582725287882,0.5712221,-0.18444824,-0.12293726,0.768,9.584,-0.965,-1
884,885,1582725287892,0.35256416,-0.15799999,0.94144726,0.5429999999999999,9.62,0.217,-1
885,886,1582725287902,-0.23023915,-0.27447414,1.7670404999999998,-0.079,9.513,1.173,-1
886,887,1582725287912,-0.48780406,-0.59911346,2.3067522,-0.364,9.192,1.7690000000000001,-1
887,888,1582725287922,-1.948362,-1.1147203,2.4076378,-1.9709999999999999,8.684,2.0140000000000002,-1
888,889,1582725287933,-2.5675561,-1.2151623,0.91833705,-2.6719999999999997,8.583,0.524,-1
889,890,1582725287943,-2.6830692000000003,-1.5011892,0.01232484,-2.823,8.296,-0.395,-1
890,891,1582725287953,-2.7693992,-1.5058155,-1.2463427,-2.977,8.289,-1.681,-1
891,892,1582725287964,-2.3435972,-1.8905353999999999,-1.9914258999999999,-2.5980000000000003,7.903,-2.43,-1
892,893,1582725287974,-2.2195325,-2.3178196,-1.3199433999999999,-2.502,7.477,-1.71,-1
893,894,1582725287984,-2.4636907999999997,-2.9660406000000004,1.0094085,-2.763,6.832000000000001,0.728,-1
894,895,1582725287994,-3.2634254,-3.4015684,4.3788,-3.5869999999999997,6.399,4.258,-1
895,896,1582725288005,-4.2321377,-3.8001102999999996,7.575303,-4.678999999999999,5.994,7.79,-1
896,897,1582725288015,-4.6290874,-4.075191,9.766589,-5.0889999999999995,5.7139999999999995,10.128,-1
897,898,1582725288025,-4.609615,-4.3621492,9.440206,-5.065,5.4239999999999995,9.881,-1
898,899,1582725288035,-3.0614166000000003,-4.9137297,5.300717400000001,-3.57,4.861000000000001,5.906000000000001,-1
899,900,1582725288046,-2.5647192000000003,-5.177374400000001,4.0605826,-3.051,4.6,4.641,-1
900,901,1582725288056,-2.4534943,-5.9519462999999995,2.7999572999999995,-2.866,3.832,3.324,-1
901,902,1582725288066,-3.5720343999999997,-6.2908883,4.213899,-3.9389999999999996,3.4939999999999998,4.754,-1
902,903,1582725288076,-4.8221526,-6.713162,6.1170945,-5.185,3.065,6.77,-1
903,904,1582725288087,-6.0046725,-7.0934029999999995,7.7477818,-6.435,2.6630000000000003,8.641,-1
904,905,1582725288097,-6.283003,-7.506454,9.537673,-6.641,2.244,10.523,-1
905,906,1582725288108,-5.479352,-7.876487700000001,10.107258,-5.721,1.8719999999999999,11.145999999999999,-1
906,907,1582725288118,-3.720096,-8.352965,8.543488499999999,-3.844,1.386,9.687000000000001,-1
907,908,1582725288128,-1.867875,-8.0645685,5.964561499999999,-1.817,1.6740000000000002,7.117000000000001,-1
908,909,1582725288138,0.9149468000000001,-7.1515116999999995,3.0958805,1.187,2.593,4.164,-1
909,910,1582725288149,2.9314928,-5.710219400000001,0.36426353,3.4360000000000004,4.033,1.357,-1
910,911,1582725288159,3.2812542999999996,-4.696505999999999,-0.7321873999999999,4.011,5.0360000000000005,0.225,-1
911,912,1582725288170,2.223516,-4.439991,0.11968106,3.161,5.273,1.094,-1
912,913,1582725288180,1.3303664,-4.705504,1.866255,2.572,4.9639999999999995,2.929,-1
913,914,1582725288190,1.0368471,-4.6056094000000005,2.1493993,2.383,5.046,3.247,-1
914,915,1582725288200,2.0632591000000002,-2.9256816000000003,2.2822206,3.772,6.655,3.491,-1
915,916,1582725288211,4.810874,-1.4503841,1.2671477,6.919,8.037,2.577,-1
916,917,1582725288221,8.018353,0.19988537,-0.8713248,10.432,9.613,0.447,-1
917,918,1582725288231,10.38574,1.3216219,-3.8112288,13.074000000000002,10.662,-2.5069999999999997,-1
918,919,1582725288241,11.031383,1.6158304,-5.2497739999999995,13.843,10.921,-3.9539999999999997,-1
919,920,1582725288252,10.567427,1.8870058,-9.159543,13.689,11.093,-7.865,-1
920,921,1582725288262,9.526755,2.7550343999999996,-9.838485,12.818,11.895999999999999,-8.504,-1
921,922,1582725288272,10.0785675,3.5239123999999995,-9.887841,13.534,12.593,-8.48,-1
922,923,1582725288283,11.625164,4.2677325999999995,-10.003839,15.244000000000002,13.258,-8.504,-1
923,924,1582725288293,12.698259,5.372048400000001,-9.7765255,16.47,14.283,-8.183,-1
924,925,1582725288303,13.454474,5.670438,-9.425116000000001,17.361,14.509,-7.755,-1
925,926,1582725288313,13.561392999999999,5.634464299999999,-10.317143,17.579,14.415,-8.605,-1
926,927,1582725288324,12.812103,5.403721,-12.019634,16.916,14.142000000000001,-10.296,-1
927,928,1582725288334,12.971939,4.9990025000000005,-13.115967000000001,17.145,13.704,-11.39,-1
928,929,1582725288344,13.433123000000002,4.6302614,-14.231966,17.663,13.306,-12.497,-1
929,930,1582725288354,13.384617,3.9638786,-14.882988000000001,17.656,12.614,-13.122,-1
930,931,1582725288364,12.767933,3.2195406,-14.490369,17.062,11.847999999999999,-12.679,-1
931,932,1582725288375,11.356661,2.4741192,-13.161180499999999,15.658,11.084000000000001,-11.28,-1
932,933,1582725288385,9.907229,1.8447494999999998,-11.452802,14.207,10.439,-9.498,-1
933,934,1582725288395,8.710358,1.1268368,-10.029886,13.007,9.709,-8.016,-1
934,935,1582725288405,7.838303999999999,0.5047779,-9.481318,11.845,8.662,-7.622999999999999,-1
935,936,1582725288415,7.096492,-0.3451643,-9.591616,10.904000000000002,7.699,-7.457999999999999,-1
936,937,1582725288425,5.476897,-1.5598316,-8.668258,9.788,6.997999999999999,-6.582999999999999,-1
937,938,1582725288436,4.882567,-1.9589561999999998,-8.067883,8.885,6.26,-5.019,-1
938,939,1582725288446,4.334006,-2.6900377,-5.357339,8.78,5.807,-3.307,-1
939,940,1582725288456,4.19562,-2.756106,-4.320777,8.693,5.712000000000001,-1.528,-1
940,941,1582725288466,3.8200555,-2.6337466,-2.7439999999999998,8.612,5.709,-0.845,-1
941,942,1582725288476,3.1564302000000004,-2.5305022999999998,-2.5170612,8.186,5.707000000000001,-0.78,-1
942,943,1582725288487,2.5918527,-2.2983541,-2.8317957000000002,7.917000000000001,5.807,-1.3769999999999998,-1
943,944,1582725288497,2.2321491,-2.2840576,-3.1474981,7.831,5.69,-2.035,-1
944,945,1582725288507,2.3072686,-2.3464842,-3.4178915,7.989,5.585,-2.428,-1
945,946,1582725288518,2.6453547000000004,-2.5182605,-2.1219695,8.527999999999999,5.29,-1.35,-1
946,947,1582725288528,1.9721246,-2.3846498,0.26847023,8.042,5.281000000000001,1.02,-1
947,948,1582725288538,1.5240235,-2.2553558,1.7205567,7.664,5.348,2.533,-1
948,949,1582725288548,0.9988642,-1.5483823,6.079705000000001,7.244,5.9510000000000005,7.042999999999999,-1
949,950,1582725288559,1.4306903,-1.0273952,8.081027,7.728,6.425,9.068999999999999,-1
950,951,1582725288568,1.1983266000000001,-0.36368084,9.373034,7.546,7.046,10.36,-1
951,952,1582725288578,1.0021467,0.39641809999999994,9.837921000000001,7.395,7.769,10.811,-1
952,953,1582725288588,0.9677696,0.57782173,10.218924000000001,7.381,7.934,11.182,-1
953,954,1582725288598,0.58958673,1.454083,11.862175,7.053,8.77,12.796,-1
954,955,1582725288609,0.288702,1.9684906000000002,13.467263,6.777,9.263,14.395999999999999,-1
955,956,1582725288619,-0.07835913,2.7960582,15.356244,6.43,10.071,16.298,-1
956,957,1582725288629,-0.0034708977000000004,4.6380563,16.367008,6.526,11.890999999999998,17.332,-1
957,958,1582725288639,0.28421736,5.4618173,16.561363,6.825,12.703,17.538,-1
958,959,1582725288650,2.7309612999999997,7.2437572,16.581715,9.302,14.453,17.590999999999998,-1
959,960,1582725288659,4.198846,7.8623204,17.79025,10.775,15.064,18.82,-1
960,961,1582725288669,3.8774127999999997,8.097553,18.48317,10.432,15.318,19.519000000000002,-1
961,962,1582725288679,2.5192494,7.833527,17.41291,9.024,15.1,18.441,-1
962,963,1582725288689,1.9866085,7.5380720000000005,16.632288,8.459,14.834000000000001,17.656,-1
963,964,1582725288699,1.0040989,7.197032000000001,13.375497,7.364,14.59,14.408,-1
964,965,1582725288709,1.4743452,6.948521,11.643797,7.752000000000001,14.405999999999999,12.715,-1
965,966,1582725288720,1.7584267,6.476494000000001,10.847836000000001,7.944,14.001,11.984000000000002,-1
966,967,1582725288730,1.4789518999999998,5.737735,11.163915,7.558,13.337,12.375,-1
967,968,1582725288740,1.021349,5.1143074,12.210633999999999,6.981,12.798,13.481,-1
968,969,1582725288750,0.5183706,4.3299712999999995,12.556251,6.349,12.109000000000002,13.845,-1
969,970,1582725288760,-0.15805578,3.5571900000000003,11.41612,5.537000000000001,11.440999999999999,12.674000000000001,-1
970,971,1582725288770,-0.7144103,2.779903,9.175071,4.842,10.772,10.368,-1
971,972,1582725288780,-1.1224856,2.4397144,6.5700207,4.294,10.538,7.688,-1
972,973,1582725288790,-0.8138666,2.4320717,4.519381500000001,4.466,10.629000000000001,5.57,-1
973,974,1582725288800,-0.15276814,2.4158353999999997,3.3070104,5.0,10.7,4.303,-1
974,975,1582725288811,0.36112738,2.416153,2.6602627999999995,5.393,10.779000000000002,3.616,-1
975,976,1582725288821,0.7092571,2.3760537999999998,3.136932,5.621,10.812999999999999,4.066,-1
976,977,1582725288832,0.94743013,1.9622221000000002,3.8376017,5.7379999999999995,10.470999999999998,4.744,-1
977,978,1582725288842,0.78731394,1.4186287,4.126291999999999,5.4510000000000005,10.001,5.0,-1
978,979,1582725288852,0.39859915,0.5734272,3.5584335,4.931,9.23,4.39,-1
979,980,1582725288862,0.11455774,0.21669579,2.303989,4.513999999999999,8.945,3.0989999999999998,-1
980,981,1582725288873,0.70754194,0.20130157,0.85308343,4.9910000000000005,8.993,1.58,-1
981,982,1582725288883,1.1321039,-0.4460001,0.47508365,5.34,8.387,1.14,-1
982,983,1582725288893,1.0656776000000001,-1.0680608999999999,1.0485321,5.223,7.79,1.6980000000000002,-1
983,984,1582725288903,0.9914813,-1.6586537000000001,2.0469708,5.058,7.242000000000001,2.6889999999999996,-1
984,985,1582725288914,1.430563,-2.6397614,2.3508463,5.357,6.327000000000001,2.943,-1
985,986,1582725288923,1.4041364,-3.0588975,1.9460009999999999,5.271,5.937,2.4859999999999998,-1
986,987,1582725288933,0.5816536,-3.6693664,0.3221875,4.308,5.393,0.72,-1
987,988,1582725288943,-0.07126331,-4.4880085,-1.1511801000000002,3.503,4.641,-0.914,-1
988,989,1582725288954,-1.1696167,-5.1394777000000005,-2.1698244,2.248,4.052,-2.086,-1
989,990,1582725288964,-2.074534,-5.738506,-3.386446,1.192,3.508,-3.4339999999999997,-1
990,991,1582725288974,-2.4000587,-6.3178529999999995,-4.157369999999999,0.732,2.9739999999999998,-4.306,-1
991,992,1582725288984,-2.6273880000000003,-6.711435000000001,-4.2423267,0.39,2.617,-4.457,-1
992,993,1582725288994,-2.6274693,-6.901105,-3.440439,0.294,2.457,-3.688,-1
993,994,1582725289004,-1.9157672,-7.270683,-2.665807,0.924,2.112,-2.9330000000000003,-1
994,995,1582725289015,-1.3797128,-7.513337,-1.6716898999999998,1.338,1.9040000000000001,-1.985,-1
995,996,1582725289025,-2.0542599999999998,-7.8555603000000005,-1.9232714,0.5670000000000001,1.587,-2.294,-1
996,997,1582725289035,-2.6474488,-8.138575999999999,-2.4021652000000002,-0.079,1.317,-2.8089999999999997,-1
997,998,1582725289045,-4.252444000000001,-8.750832,-3.4998446000000003,-1.7930000000000001,0.73,-3.985,-1
998,999,1582725289055,-6.36808,-9.366892,-4.406984,-4.059,0.146,-4.993,-1
999,1000,1582725289066,-7.2624073000000005,-9.745544,-4.3432129999999995,-5.029,-0.217,-4.967,-1
1000,1001,1582725289076,-7.414566000000001,-9.81892,-4.032916999999999,-4.957,-0.32799999999999996,-4.294,-1
1001,1002,1582725289086,-6.640448599999999,-9.886932,-3.3529553,-4.445,-0.349,-3.968,-1
1002,1003,1582725289096,-5.0104365,-9.610196,-2.6077635,-2.7710000000000004,-0.079,-3.1660000000000004,-1
1003,1004,1582725289107,-4.533980000000001,-9.438975,-2.5069501,-2.272,0.08800000000000001,-3.0460000000000003,-1
1004,1005,1582725289116,-4.2544260000000005,-9.467699,-2.8832746,-1.925,0.045,-3.386,-1
1005,1006,1582725289126,-4.6125326,-9.498925,-3.2845292,-2.263,0.009000000000000001,-3.784,-1
1006,1007,1582725289136,-5.490775,-9.533225999999999,-3.9323794999999997,-3.103,-0.035,-4.435,-1
1007,1008,1582725289146,-6.706561,-9.973567999999998,-4.438640599999999,-4.251,-0.493,-4.948,-1
1008,1009,1582725289157,-7.132936,-9.978201,-4.4820785999999995,-4.648,-0.505,-4.986000000000001,-1
1009,1010,1582725289167,-7.426647999999999,-10.339486,-4.07458,-4.66,-1.053,-4.375,-1
1010,1011,1582725289177,-6.8743677,-10.891237,-3.9577436,-4.117,-1.4869999999999999,-4.315,-1
1011,1012,1582725289188,-6.83082,-11.137202,-4.329365,-3.9939999999999998,-1.755,-4.641,-1
1012,1013,1582725289198,-6.2684627,-11.549316000000001,-5.2182407,-3.156,-2.251,-5.374,-1
1013,1014,1582725289208,-5.0035940000000005,-11.963078,-5.6963563,-1.6740000000000002,-2.739,-5.721,-1
1014,1015,1582725289219,-4.2269373,-12.077992,-5.2346330000000005,-0.6629999999999999,-2.943,-5.091,-1
1015,1016,1582725289229,-4.421618,-12.4477415,-3.0252807,-0.62,-3.415,-2.668,-1
1016,1017,1582725289239,-4.897655,-12.688947,0.32147919999999996,-0.855,-3.7739999999999996,0.914,-1
1017,1018,1582725289250,-5.253411,-12.462358,3.08665,-0.96,-3.6830000000000003,3.8989999999999996,-1
1018,1019,1582725289260,-5.762726,-12.103014,4.0047144999999995,-1.202,-3.4789999999999996,5.003,-1
1019,1020,1582725289270,-4.7438397000000005,-11.522202,2.6372538,0.11199999999999999,-3.0789999999999997,3.779,-1
1020,1021,1582725289280,-3.1023482999999996,-10.803625,0.38272047,2.074,-2.572,1.6540000000000001,-1
1021,1022,1582725289291,-1.6794069,-10.169962,-1.7269900000000002,3.832,-2.184,-0.306,-1
1022,1023,1582725289301,-0.31089878,-9.752136,-2.8826814,5.546,-2.052,-1.278,-1
1023,1024,1582725289311,0.8126445,-9.472787,-2.165494,7.031000000000001,-2.114,-0.335,-1
1024,1025,1582725289322,2.6226034,-8.5823,1.6899593000000002,9.345,-1.781,3.863,-1
1025,1026,1582725289332,6.2332339999999995,-6.1955675999999995,7.724138000000001,13.433,-0.076,10.347999999999999,-1
1026,1027,1582725289342,8.364763,-4.073844,9.30205,15.835,1.6019999999999999,12.157,-1
1027,1028,1582725289352,10.266779,-2.0059636000000003,8.405926,17.980999999999998,3.235,11.437999999999999,-1
1028,1029,1582725289362,11.41325,-0.5825057,6.4849385999999996,19.342,4.236000000000001,9.661,-1
1029,1030,1582725289373,10.799141,0.30511189,5.4766316,18.908,4.711,8.794,-1
1030,1031,1582725289383,10.166417,0.74118185,5.861061,18.422,4.732,9.338,-1
1031,1032,1582725289393,9.990890499999999,1.4016666000000002,7.580623599999999,18.365,4.9639999999999995,11.235,-1
1032,1033,1582725289403,11.337053,2.9484977999999997,9.993224,19.805999999999997,6.066,13.831,-1
1033,1034,1582725289414,13.348671,4.686518700000001,11.118438000000001,21.89,7.357,15.129000000000001,-1
1034,1035,1582725289424,14.369798999999999,6.129904,10.433186,22.965,8.382,14.583,-1
1035,1036,1582725289434,14.665304,6.846442,8.567568,23.301,8.725,12.818,-1
1036,1037,1582725289444,13.651497,6.7230425,6.657932300000001,22.311999999999998,8.272,10.99,-1
1037,1038,1582725289454,11.753243,6.477084,6.329848999999999,20.422,7.728,10.741,-1
1038,1039,1582725289464,10.020141,6.778761,6.9390655,18.680999999999997,7.747000000000001,11.436,-1
1039,1040,1582725289474,8.894428,7.15437,8.0701065,17.533,7.846,12.66,-1
1040,1041,1582725289484,9.231845,7.620197,8.767236,17.838,8.04,13.45,-1
1041,1042,1582725289494,9.705774,7.863707000000001,8.640181,18.276,8.03,13.404000000000002,-1
1042,1043,1582725289504,9.746769,7.97135,7.702974,18.283,7.917000000000001,12.53,-1
1043,1044,1582725289514,8.892202000000001,7.9688845,6.116788,17.399,7.731,10.99,-1
1044,1045,1582725289525,8.250853999999999,7.729449300000001,4.876876,16.736,7.34,9.777999999999999,-1
1045,1046,1582725289534,8.215413,7.5846205,4.5465083,16.692999999999998,7.129,9.455,-1
1046,1047,1582725289544,7.5973196,7.8164215,4.7276416,16.063,7.199,9.639,-1
1047,1048,1582725289554,7.0833416,7.893427,4.612758,15.158,7.127000000000001,9.429,-1
1048,1049,1582725289564,5.9211254,7.6855116,3.6707916,14.37,6.938,8.593,-1
1049,1050,1582725289575,5.06913,7.399039999999999,3.0861964,13.505,6.615,8.025,-1
1050,1051,1582725289584,4.834037,7.110182000000001,2.7915167999999997,13.263,6.313,7.74,-1
1051,1052,1582725289594,3.8811940000000003,6.407275,2.5353407999999997,12.293,5.5920000000000005,7.51,-1
1052,1053,1582725289604,3.6036167000000003,6.1850385999999995,2.4725041,12.011,5.372000000000001,7.455,-1
1053,1054,1582725289615,2.9045810000000003,5.263675,1.9215726999999998,11.302,4.4830000000000005,6.926,-1
1054,1055,1582725289625,2.6391744999999998,5.0049825,1.2893763,11.033,4.265,6.306,-1
1055,1056,1582725289635,2.4893951000000003,4.7915160000000006,1.2257891,10.665,4.004,6.164,-1
1056,1057,1582725289645,2.1505432,4.729861,0.90979195,10.542,4.105,5.946000000000001,-1
1057,1058,1582725289656,2.4445124,4.581382,0.13737154,10.837,4.026,5.18,-1
1058,1059,1582725289666,2.161086,4.365342,-0.27614927,10.559000000000001,3.8939999999999997,4.766,-1
1059,1060,1582725289676,1.4808778999999999,3.9689636,-0.57331276,9.889,3.609,4.461,-1
1060,1061,1582725289686,0.68583775,3.4303904000000003,-0.9874076999999999,9.115,3.242,4.021,-1
1061,1062,1582725289696,0.24681664,2.741588,-1.0781822,8.717,2.847,3.863,-1
1062,1063,1582725289707,0.4378147,2.3266819,-0.8739939,8.933,2.627,4.016,-1
1063,1064,1582725289717,0.9139404000000001,2.2203470000000003,-0.15032434,9.41,2.608,4.732,-1
1064,1065,1582725289727,1.3083916000000002,1.9430678,0.46044397,9.798,2.378,5.35,-1
1065,1066,1582725289737,1.5894928,2.011968,0.9842204999999999,10.071,2.488,5.8839999999999995,-1
1066,1067,1582725289748,1.3571606,1.8297689,1.2900982,9.831,2.356,6.1979999999999995,-1
1067,1068,1582725289758,0.91589165,1.6721337,1.1708383999999998,9.383,2.263,6.082999999999999,-1
1068,1069,1582725289768,0.6767006,1.4785571000000002,0.8856702,9.141,2.145,5.792999999999999,-1
1069,1070,1582725289778,0.49105644,1.388463,0.88956785,8.952,2.136,5.791,d
1070,1071,1582725289789,0.29466438,1.1230007,0.46840096,8.751,1.956,5.364,-1
1071,1072,1582725289799,0.083127975,1.0791585,0.18184519,8.531,2.0069999999999997,5.075,-1
1072,1073,1582725289809,0.14476204,0.85931516,0.14877415,8.581,1.868,5.046,-1
1073,1074,1582725289820,0.35809517,0.8280904,0.31123829999999997,8.78,1.8940000000000001,5.221,-1
1074,1075,1582725289830,0.36013222,0.91445255,0.9005622999999999,8.76,2.021,5.8389999999999995,-1
1075,1076,1582725289840,0.8158188,0.88545275,1.5830274,9.192,2.021,6.555,-1
1076,1077,1582725289850,1.4634686000000001,1.2286536,2.0254502,9.817,2.392,7.029,-1
1077,1078,1582725289860,1.8370933999999997,1.3846216999999998,2.5722604,10.169,2.5810000000000004,7.604,-1
1078,1079,1582725289870,1.824048,1.2430894,3.3961362999999998,10.138,2.483,8.447000000000001,-1
1079,1080,1582725289880,1.6493521,1.5209877,3.799242,9.951,2.818,8.856,-1
1080,1081,1582725289890,1.4946127,1.6346629,3.9824889999999997,9.788,3.003,9.033999999999999,-1
1081,1082,1582725289900,1.0688334,1.7629873,3.6590805,9.354,3.214,8.701,-1
1082,1083,1582725289910,1.111475,2.1122456,2.9863915,9.383,3.65,8.025,-1
1083,1084,1582725289920,2.138977,2.4427849999999998,2.429707,10.389000000000001,4.059,7.479,-1
1084,1085,1582725289931,3.3813896,2.82813,2.8834004,11.599,4.507,7.965,-1
1085,1086,1582725289941,4.265836,3.0510787999999995,3.6649356,12.442,4.787,8.794,-1
1086,1087,1582725289951,4.923623,3.5814120000000003,4.604100700000001,13.057,5.3839999999999995,9.777999999999999,-1
1087,1088,1582725289961,5.1031055,4.004891000000001,4.8305883000000005,13.014000000000001,6.066,10.059,-1
1088,1089,1582725289972,4.411295,4.4852877,5.036807,12.449000000000002,6.55,10.262,-1
1089,1090,1582725289982,4.1056669999999995,4.746188,4.929708,12.109000000000002,6.952000000000001,10.15,-1
1090,1091,1582725289992,4.0510782999999995,5.012638,4.7670703,12.017999999999999,7.374,9.975,-1
1091,1092,1582725290002,4.362983,4.868623,4.794588,12.288,7.395,9.988999999999999,-1
1092,1093,1582725290012,4.1653547,4.797089,4.325258,12.037,7.497999999999999,9.513,-1
1093,1094,1582725290023,4.8486614,4.7492056,4.178239,12.655,7.627999999999999,9.369,-1
1094,1095,1582725290033,5.2130456,4.7198142999999995,4.331995,12.982999999999999,7.688,9.527000000000001,-1
1095,1096,1582725290043,5.597068,4.6920137,5.026845,13.249,7.941,10.229,-1
1096,1097,1582725290053,5.7949715,4.574726,5.606417700000001,13.366,8.03,10.794,-1
1097,1098,1582725290064,5.3661389999999995,4.307491000000001,5.6748414,12.857999999999999,7.994,10.818,-1
1098,1099,1582725290073,4.895766,3.8187523000000003,5.307385,12.31,7.7620000000000005,10.372,-1
1099,1100,1582725290083,4.8506684,3.6121025,5.0500875,12.225999999999999,7.692,10.062999999999999,-1
1100,1101,1582725290093,4.083709,2.5629797,3.4470343999999997,11.335,7.077000000000001,8.265,-1
1101,1102,1582725290104,3.8606943999999994,2.1242495,2.588355,11.017000000000001,6.933,7.261,-1
1102,1103,1582725290114,3.5844536,1.8563123,2.5077252,10.630999999999998,6.952000000000001,7.041,-1
1103,1104,1582725290124,3.0350412999999996,1.7160673,2.9211922,9.956,7.0889999999999995,7.3260000000000005,-1
1104,1105,1582725290134,2.8578224,1.2775421,3.1230707000000004,9.644,6.919,7.4,-1
1105,1106,1582725290144,2.5494485,0.8966860999999999,3.0048223,9.196,6.801,7.144,-1
1106,1107,1582725290155,2.181099,0.32490253,2.7812846,8.686,6.485,6.77,-1
1107,1108,1582725290165,1.3471255,-0.2908535,2.6022315,7.709,6.114,6.433,-1
1108,1109,1582725290175,0.83421516,-0.56375885,2.5234985,7.053,6.0729999999999995,6.191,-1
1109,1110,1582725290186,0.7906079,-0.97044754,2.042792,6.876,5.879,5.539,-1
1110,1111,1582725290196,0.70697784,-1.1643466999999998,0.8004534000000001,6.715,5.831,4.138,-1
1111,1112,1582725290206,0.4481802,-1.49793,-0.23095703,6.337000000000001,5.702000000000001,2.8760000000000003,-1
1112,1113,1582725290217,-0.31719398,-1.9135064999999998,-0.7764909000000001,5.417000000000001,5.501,2.1069999999999998,-1
1113,1114,1582725290227,-1.2643785,-2.4734597000000003,-0.89307714,4.2989999999999995,5.144,1.7890000000000001,-1
1114,1115,1582725290238,-2.208829,-2.708918,-0.64338386,3.178,5.093999999999999,1.86,-1
1115,1116,1582725290248,-2.8026116,-2.6684957000000002,-0.36544168,2.411,5.3,1.9780000000000002,-1
1116,1117,1582725290259,-2.8063571,-2.8298978999999997,0.5284138,2.167,5.352,2.648,-1
1117,1118,1582725290269,-2.3067507999999997,-3.413711,0.40432763,2.521,4.895,2.3609999999999998,-1
1118,1119,1582725290279,-2.1481093999999996,-3.6054602,-0.56904995,2.541,4.823,1.204,-1
1119,1120,1582725290289,-1.9133529999999999,-3.8091597999999998,-1.4725671,2.639,4.732,0.107,-1
1120,1121,1582725290299,-1.7875857,-3.895368,-1.7288178,2.747,4.9430000000000005,-0.517,-1
1121,1122,1582725290310,-1.0453103000000001,-3.5612388,-2.0766897,3.2260000000000004,5.18,-0.845,-1
1122,1123,1582725290320,-0.87815547,-3.6886773,-1.8362924999999999,3.319,5.098,-0.675,-1
1123,1124,1582725290330,-0.6388488,-4.5160317,-0.39014453,3.321,4.402,0.589,-1
1124,1125,1582725290340,-0.964298,-4.8736377,0.63495046,2.8280000000000003,4.129,1.496,-1
1125,1126,1582725290350,-1.4441428,-5.197003400000001,1.5241052,2.177,3.887,2.258,-1
1126,1127,1582725290361,-2.1808799999999997,-5.5336099999999995,1.492952,1.271,3.6260000000000003,2.09,-1
1127,1128,1582725290371,-2.8819478,-5.3636446,0.8497608,0.409,3.863,1.307,-1
1128,1129,1582725290381,-2.6185582000000003,-5.325203,-0.06694475,0.526,3.958,0.256,-1
1129,1130,1582725290391,-2.2957094,-5.1495824,-0.71464276,0.716,4.181,-0.514,-1
1130,1131,1582725290401,-1.9936752,-5.0437293,-1.2433991000000002,0.955,4.308,-1.099,-1
1131,1132,1582725290412,-1.770862,-5.2866464,-1.8294221999999998,0.998,4.121,-1.8319999999999999,-1
1132,1133,1582725290422,-2.1386093999999995,-5.1913540000000005,-2.0838666,0.519,4.248,-2.162,-1
1133,1134,1582725290432,-2.6120732,-5.064487000000001,-1.9731957999999998,-0.055,4.402,-2.105,-1
1134,1135,1582725290442,-2.660632,-5.0241,-1.8993485,-0.079,4.773,-1.76,-1
1135,1136,1582725290452,-2.1850650000000003,-4.379711,-0.9754197,0.251,5.118,-1.147,-1
1136,1137,1582725290463,-1.1088221999999999,-3.9889445,0.18487711,1.235,5.532,0.016,-1
1137,1138,1582725290473,-0.47086143,-3.7902822,0.50578034,1.815,5.745,0.35200000000000004,-1
1138,1139,1582725290483,-0.18071508,-3.7013955000000003,0.7836203,2.076,5.841,0.6409999999999999,-1
1139,1140,1582725290494,-0.6168524000000001,-3.5830598,2.0026245,1.544,5.982,1.899,-1
1140,1141,1582725290504,-1.5431275,-3.5531492,2.3307827000000003,0.546,6.028,2.244,-1
1141,1142,1582725290514,-1.9043758999999998,-3.2976449999999997,2.1847768,0.11699999999999999,6.297999999999999,2.095,-1
1142,1143,1582725290524,-1.9420121,-2.820063,1.5879159,0.023,6.787000000000001,1.472,-1
1143,1144,1582725290535,-1.8752606,-2.2828436,0.5229956,0.043,7.332999999999999,0.361,-1
1144,1145,1582725290545,-1.0932581000000001,-1.9332328,-0.46275508,0.792,7.688,-0.682,-1
1145,1146,1582725290555,-0.68112683,-1.7128525000000001,-0.8629713999999999,1.192,7.91,-1.113,-1
1146,1147,1582725290565,-0.051306605,-1.1834326000000002,-0.85294104,1.796,8.442,-1.183,-1
1147,1148,1582725290576,0.12968552,-0.79459953,-0.3516889,1.966,8.832,-0.708,-1
1148,1149,1582725290586,0.29802870000000004,-0.82207394,-0.06870198,2.126,8.806000000000001,-0.428,-1
1149,1150,1582725290596,-0.20271838,-0.76515865,0.35608846,1.6019999999999999,8.868,0.016,-1
1150,1151,1582725290606,-0.5628550999999999,-0.6389322,0.44690853,1.204,9.002,0.129,-1
1151,1152,1582725290617,-0.44136214,-0.4129076,0.16446194,1.288,9.235,-0.14800000000000002,-1
1152,1153,1582725290627,-0.27513468,0.08599758,-0.6300256,1.391,9.742,-1.025,-1
1153,1154,1582725290637,-0.33260286,0.21593952,-0.7809216999999999,1.295,10.109,-1.484,-1
1154,1155,1582725290647,-0.025911093,0.50208664,-0.94875336,1.59,10.162,-1.444,-1
1155,1156,1582725290658,0.33751714,0.55694485,-0.8843215,1.93,10.217,-1.4480000000000002,-1
1156,1157,1582725290668,0.4362985,0.71959305,-0.9626643,2.021,10.38,-1.5419999999999998,-1
1157,1158,1582725290678,0.38988078,0.4756174,-1.092206,1.9469999999999998,10.138,-1.712,-1
1158,1159,1582725290688,-0.013230801,0.6047344,-0.75833464,1.508,10.272,-1.391,d
1159,1160,1582725290699,-0.03265798,0.5892916,-0.3398556,1.4680000000000002,10.26,-0.9690000000000001,-1
1160,1161,1582725290709,-0.24369097,0.66352844,0.13488784,1.19,10.345999999999998,-0.469,-1
1161,1162,1582725290719,-0.2577374,0.75560284,0.25025558,1.1520000000000001,10.442,-0.34700000000000003,-1
1162,1163,1582725290730,0.019551635,0.6027994000000001,0.09370148,1.369,10.298,-0.5,-1
1163,1164,1582725290740,0.12082827,0.60373783,-0.5271897,1.432,10.302999999999999,-1.14,-1
1164,1165,1582725290750,0.18381953,0.5201349000000001,-0.8233526,1.475,10.221,-1.453,-1
1165,1166,1582725290760,0.036516428,0.059901237,-1.3143721000000002,1.2590000000000001,9.764,-2.026,-1
1166,1167,1582725290771,-0.08024478,-0.23835182,-1.1643511,1.111,9.467,-1.911,-1
1167,1168,1582725290781,-0.32855803,-0.69580746,-0.09508061400000001,0.7609999999999999,9.022,-0.835,-1
1168,1169,1582725290791,-0.5753795,-0.9728841999999999,1.1206316,0.43799999999999994,8.756,0.419,-1
1169,1170,1582725290802,-0.74427086,-1.0178089,1.7126304,0.22699999999999998,8.717,1.034,-1
1170,1171,1582725290812,-1.2448133999999997,-1.3208636999999999,1.9911294999999998,-0.41100000000000003,8.43,1.3619999999999999,-1
1171,1172,1582725290822,-1.7765307000000001,-1.6786518,1.0182707,-1.037,8.08,0.392,-1
1172,1173,1582725290833,-2.4932,-2.421782,-0.010150373,-1.844,7.343,-0.6409999999999999,-1
1173,1174,1582725290843,-3.4191839999999996,-2.9337082000000003,-0.89995164,-2.852,6.837000000000001,-1.518,-1
1174,1175,1582725290853,-3.7727144,-3.2598476,-1.0602113000000002,-3.609,6.195,-1.348,-1
1175,1176,1582725290864,-4.668006,-4.477379,1.0861813999999999,-4.2,5.307,0.62,-1
1176,1177,1582725290874,-5.480526,-5.8299947,6.21097,-5.072,3.966,6.006,-1
1177,1178,1582725290884,-5.7694983,-6.374378,7.987285000000001,-5.4479999999999995,3.427,7.984,-1
1178,1179,1582725290894,-6.711572599999999,-6.9964495,10.069783000000001,-6.409,2.804,10.243,-1
1179,1180,1582725290905,-7.430064999999999,-7.841446400000001,9.579257,-7.1129999999999995,1.956,9.862,-1
1180,1181,1582725290915,-7.3941936,-8.306076,7.832655,-7.079,1.4869999999999999,8.241,-1
1181,1182,1582725290925,-6.3012986,-9.251696,5.892188,-6.183,0.517,6.746,-1
1182,1183,1582725290935,-5.7471765999999995,-9.362589,6.300986,-5.611000000000001,0.385,7.367000000000001,-1
1183,1184,1582725290946,-4.945073000000001,-9.067839999999999,7.757240299999999,-4.802,0.634,9.18,-1
1184,1185,1582725290956,-4.0463934,-8.592896000000001,9.286537,-3.75,1.082,10.860999999999999,-1
1185,1186,1582725290966,-3.391364,-8.085377000000001,9.098968,-2.912,1.5630000000000002,10.787,-1
1186,1187,1582725290976,-2.1321554,-7.5508213,6.856229300000001,-1.4580000000000002,2.0469999999999997,8.753,-1
1187,1188,1582725290986,-0.8919440999999999,-7.077431699999999,4.4285917,0.013999999999999999,2.509,6.2860000000000005,-1
1188,1189,1582725290996,0.17739272,-6.6305312999999995,2.7583213,1.3219999999999998,2.9410000000000003,4.56,-1
1189,1190,1582725291006,0.6166465,-6.056319,2.3301067000000004,2.004,3.489,4.1,-1
1190,1191,1582725291016,0.841601,-4.9992027000000006,2.8993177000000006,2.478,4.507,4.667,-1
1191,1192,1582725291026,2.0353246,-3.685398,3.2189748,3.958,5.76,5.024,-1
1192,1193,1582725291036,3.8559163,-2.6425886000000003,1.4535776000000002,6.33,6.648,3.386,-1
1193,1194,1582725291047,6.0497847,-0.7991457,-0.77633226,8.861,8.404,1.113,-1
1194,1195,1582725291057,8.327865,0.60411644,-3.4111462,11.417,9.732999999999999,-1.597,-1
1195,1196,1582725291067,9.546238,1.5593443,-5.865235,12.882,10.614,-4.117,-1
1196,1197,1582725291077,9.371355,2.8029108,-6.863592,12.923,11.780999999999999,-5.146,-1
1197,1198,1582725291088,9.09502,3.8282279999999997,-6.5418367,12.842,12.724,-4.811,-1
1198,1199,1582725291098,9.913306,4.463643,-5.8350577,13.847999999999999,13.27,-4.064,-1
1199,1200,1582725291108,10.9170265,5.1185837,-5.632773,15.035,13.833,-3.824,-1
1200,1201,1582725291119,11.837109,5.589388,-6.2529273000000005,16.13,14.216,-4.43,-1
1201,1202,1582725291129,13.023158,5.895136,-7.0562773000000005,17.480999999999998,14.440999999999999,-5.249,-1
1202,1203,1582725291139,14.37314,6.565339999999999,-8.265222,18.982,15.04,-6.502000000000001,-1
1203,1204,1582725291149,15.728992000000002,6.7250137,-10.013838,20.467,15.140999999999998,-8.312999999999999,-1
1204,1205,1582725291159,15.54265,6.4990416,-11.8528805,20.375999999999998,14.873,-10.214,-1
1205,1206,1582725291170,14.3471365,5.7818365,-12.967322,19.239,14.13,-11.370999999999999,-1
1206,1207,1582725291180,12.685736,4.9675703,-13.362774,17.608,13.300999999999998,-11.783,-1
1207,1208,1582725291190,11.200288,4.2827980000000005,-12.14533,15.677,12.061,-9.68,-1
1208,1209,1582725291200,10.532488,3.3483267,-10.470047000000001,15.479000000000001,11.665999999999999,-8.883,-1
1209,1210,1582725291211,10.375586,2.6695718999999998,-9.686802,15.332,10.985,-8.119,-1
1210,1211,1582725291220,10.294039,1.8680009999999998,-10.346499,15.255999999999998,10.19,-8.832,-1
1211,1212,1582725291230,9.880816000000001,1.0004815999999999,-10.760943,14.837,9.34,-9.326,-1
1212,1213,1582725291240,8.699301,0.08435535400000001,-11.444265,12.875,8.073,-10.435,-1
1213,1214,1582725291250,6.681213400000001,-1.4059725,-11.865488000000001,11.555,7.017,-10.652999999999999,-1
1214,1215,1582725291260,5.945600499999999,-1.9524479,-11.613337,10.09,6.064,-10.02,-1
1215,1216,1582725291271,3.7994165,-3.541082,-9.81685,8.578,4.952,-8.72,-1
1216,1217,1582725291281,2.8194169999999996,-4.3533225,-7.856713,7.599,4.152,-6.864,-1
1217,1218,1582725291291,1.8407173,-5.170993,-6.0807166,6.737,3.295,-5.357,-1
1218,1219,1582725291301,1.6510738999999999,-5.4714565,-4.953795400000001,6.5520000000000005,2.998,-4.306,-1
1219,1220,1582725291311,1.6162504999999998,-5.743727,-4.619142,6.513999999999999,2.73,-4.004,-1
1220,1221,1582725291321,1.1349392,-6.3154917,-4.032474,6.0089999999999995,2.1790000000000003,-3.525,-1
1221,1222,1582725291332,0.7890334,-6.723105,-3.8013086000000005,5.64,1.7890000000000001,-3.3739999999999997,-1
1222,1223,1582725291342,0.042217255,-7.213808500000001,-3.8211522000000007,4.8660000000000005,1.317,-3.465,-1
1223,1224,1582725291352,-1.1306577,-7.9065027,-3.6963968,3.6660000000000004,0.6409999999999999,-3.3760000000000003,-1
1224,1225,1582725291362,-1.5930574,-8.421856,-3.4801135000000003,2.747,-0.16,-2.531,-1
1225,1226,1582725291372,-2.9303455,-9.320903,-1.1904259,1.86,-0.773,-0.795,-1
1226,1227,1582725291382,-3.1335087,-9.52886,-0.18920599,1.671,-0.991,0.249,-1
1227,1228,1582725291392,-4.001312,-9.510937,3.3357558,0.8859999999999999,-1.0290000000000001,3.92,-1
1228,1229,1582725291403,-3.7257507000000003,-9.305806,4.991246,1.247,-0.8809999999999999,5.672999999999999,-1
1229,1230,1582725291413,-3.476861,-9.127102,5.895928400000001,1.547,-0.737,6.629,-1
1230,1231,1582725291423,-3.5413937999999994,-9.195091,7.221731699999999,1.6640000000000001,-0.9359999999999999,8.15,-1
1231,1232,1582725291433,-4.319762,-9.261725,7.5104880000000005,1.025,-1.1159999999999999,8.629,-1
1232,1233,1582725291444,-5.347796400000001,-9.419108,7.7944664999999995,0.14300000000000002,-1.432,9.287,-1
1233,1234,1582725291454,-6.480753400000001,-9.25578,8.34416,-0.8740000000000001,-1.516,10.542,-1
1234,1235,1582725291464,-7.506978999999999,-8.644501,10.99864,-1.736,-1.111,13.470999999999998,-1
1235,1236,1582725291474,-6.9315752999999996,-7.869629,15.9858465,-0.9670000000000001,-0.581,18.719,-1
1236,1237,1582725291484,-4.8022614,-6.723377,20.964499,1.3769999999999998,0.287,23.938000000000002,-1
1237,1238,1582725291494,-1.9828138,-5.3151813,23.498023999999997,4.423,1.415,26.635,-1
1238,1239,1582725291505,-0.76213074,-4.3210554000000005,21.944859,5.867000000000001,2.155,25.151999999999997,-1
1239,1240,1582725291515,-0.8300481,-3.5841122000000003,18.263174,6.006,2.6630000000000003,21.49,-1
1240,1241,1582725291525,-1.0165849,-1.9989261999999999,15.659224499999999,6.004,4.018,18.927,-1
1241,1242,1582725291535,-0.98926115,-0.6146965,15.087494,6.191,5.149,18.463,-1
1242,1243,1582725291545,0.38038254,0.6822529,16.003082,7.699,6.162000000000001,19.55,-1
1243,1244,1582725291555,2.7864617999999997,2.2608347,17.522823000000002,10.226,7.436,21.27,-1
1244,1245,1582725291566,5.100349,3.5071821000000005,17.955574,12.642999999999999,8.384,21.892,-1
1245,1246,1582725291576,6.8245583,4.5539527,16.689833,14.449000000000002,9.163,20.788,-1
1246,1247,1582725291586,7.8739443,5.655797,14.672158999999999,15.56,10.037,18.903,-1
1247,1248,1582725291596,8.325884,6.973839999999999,12.356947,16.053,11.167,16.702,-1
1248,1249,1582725291607,9.052875,8.469024000000001,10.063599,16.798,12.505999999999998,14.523,-1
1249,1250,1582725291617,11.158368,9.724209,7.567348,18.896,13.625,12.159,-1
1250,1251,1582725291627,13.3083315,10.628544,5.665617500000001,21.013,14.415,10.405999999999999,-1
1251,1252,1582725291637,14.088010999999998,10.928721000000001,4.4464912000000005,21.737,14.635,9.338,-1
1252,1253,1582725291647,13.653948999999999,10.51735,4.0163717000000005,21.226999999999997,14.185,9.052999999999999,-1
1253,1254,1582725291658,12.264157,9.711335,4.5387010000000005,19.746,13.383,9.707,-1
1254,1255,1582725291668,11.155441,9.397155999999999,4.999167,18.537,13.11,10.280999999999999,-1
1255,1256,1582725291678,11.286932,9.058636,4.558577,18.566,12.845999999999998,9.929,-1
1256,1257,1582725291688,12.214375500000001,8.758514,2.749498,19.394000000000002,12.657,8.174,-1
1257,1258,1582725291698,12.813507000000001,8.776480000000001,0.19772339,19.895,12.82,5.645,-1
1258,1259,1582725291709,13.111666,8.454997,-2.1275702,20.087,12.667,3.3289999999999997,-1
1259,1260,1582725291719,13.079483,7.790039500000001,-3.6032364,19.825,11.929,1.8719999999999999,-1
1260,1261,1582725291729,12.979397,6.3918133,-1.9402711,19.624000000000002,11.062000000000001,3.556,-1
1261,1262,1582725291740,12.550131,5.454701,-0.4132223,19.045,10.322000000000001,5.091,-1
1262,1263,1582725291750,11.713263000000001,4.5305233,0.6716861999999999,18.058,9.62,6.15,-1
1263,1264,1582725291760,11.483611999999999,4.120376,0.45526218,17.339000000000002,9.107999999999999,5.292000000000001,-1
1264,1265,1582725291770,10.456309,3.031489,-1.9623971000000002,16.525,8.66,3.2969999999999997,-1
1265,1266,1582725291780,10.159676,2.687868,-2.9474277,16.163,8.466000000000001,2.224,-1
1266,1267,1582725291791,8.456488,1.0358976999999998,-5.5667934,14.262,7.268,-0.706,-1
1267,1268,1582725291801,7.4714265,0.35373259999999995,-6.279996400000001,13.139000000000001,6.872999999999999,-1.6380000000000001,-1
1268,1269,1582725291811,7.229934700000001,0.13000917,-6.398693,12.827,6.785,-1.865,-1
1269,1270,1582725291821,6.2937970000000005,-0.4657483,-6.40175,11.68,6.569,-2.198,-1
1270,1271,1582725291831,5.6689506,-1.2733812,-6.1987190000000005,10.925999999999998,5.994,-2.234,-1
1271,1272,1582725291842,4.73642,-1.9208741000000003,-5.605134,9.898,5.558,-1.9180000000000001,-1
1272,1273,1582725291852,4.048623,-2.448122,-5.25316,9.182,5.211,-1.913,-1
1273,1274,1582725291862,3.7609267,-2.9317827000000003,-5.143076000000001,8.923,4.876,-2.217,-1
1274,1275,1582725291872,4.0546203,-3.3298544999999997,-5.645334,9.225,4.615,-3.1319999999999997,-1
1275,1276,1582725291882,4.768382,-3.5923309999999997,-6.797337,9.884,4.493,-4.646,-1
1276,1277,1582725291893,5.094328,-3.9781823,-7.984990600000001,10.116,4.246,-6.164,-1
1277,1278,1582725291903,4.7600446,-4.451908,-8.36506,9.673,3.9010000000000002,-6.861000000000001,-1
1278,1279,1582725291913,3.7076144,-4.792279,-8.136446000000001,8.521,3.6710000000000003,-6.9639999999999995,-1
1279,1280,1582725291923,2.3502312,-5.101281,-7.2454042,7.146,3.424,-6.545,-1
1280,1281,1582725291933,1.2725959,-5.381526,-6.3608937,6.152,3.125,-6.332000000000001,-1
1281,1282,1582725291944,0.9353728000000001,-5.4873080000000005,-5.799745,5.724,3.065,-6.112,-1
1282,1283,1582725291954,1.0179319,-5.5167513,-6.446405400000001,5.843,2.967,-7.403,-1
1283,1284,1582725291964,1.5250496999999998,-5.6175623,-8.040792,6.265,2.866,-9.357000000000001,-1
1284,1285,1582725291974,2.55518,-5.6116695,-9.466035,7.1770000000000005,2.897,-11.019,-1
1285,1286,1582725291985,3.7430282,-5.9882480000000005,-9.600422,8.246,2.548,-11.34,-1
1286,1287,1582725291995,3.7125497000000003,-6.28523,-8.062982,8.099,2.2769999999999997,-9.965,-1
1287,1288,1582725292005,2.873682,-6.6770334,-6.127612999999999,7.18,1.88,-8.226,-1
1288,1289,1582725292015,1.8399710999999999,-6.663242299999999,-4.5713672999999995,6.202999999999999,1.76,-7.058,-1
1289,1290,1582725292026,1.4402059999999999,-6.469455,-4.324461,5.792999999999999,1.8559999999999999,-7.1370000000000005,-1
1290,1291,1582725292036,2.0134745,-6.3074017,-5.7527037000000005,6.3389999999999995,1.911,-8.902000000000001,-1
1291,1292,1582725292046,2.888348,-6.0910215,-7.5040026,7.11,2.102,-10.854000000000001,-1
1292,1293,1582725292056,4.1557889999999995,-5.7931204,-8.779301,8.583,2.452,-12.806,-1
1293,1294,1582725292066,5.2725824999999995,-5.511711599999999,-9.597778,9.177,2.6919999999999997,-13.289000000000001,-1
1294,1295,1582725292077,5.14126,-5.495744999999999,-8.998398,8.976,2.7230000000000003,-12.729000000000001,-1
1295,1296,1582725292087,4.6641693,-5.706268,-6.596752,8.293,2.572,-10.401,-1
1296,1297,1582725292097,3.9951875,-5.715022599999999,-5.362241,7.505,2.593,-9.213,-1
1297,1298,1582725292108,3.4087407999999995,-6.058912,-5.301931400000001,6.806,2.263,-9.222999999999999,-1
1298,1299,1582725292117,3.0433244999999998,-6.2043605,-5.726571,6.375,2.124,-9.69,-1
1299,1300,1582725292127,1.6390615000000002,-6.50225,-7.417304,4.803999999999999,1.8530000000000002,-11.46,-1
1300,1301,1582725292137,0.3788178,-6.8287296,-9.325711,3.295,1.611,-13.38,-1
1301,1302,1582725292147,1.3590176,-6.8802204,-7.588093300000001,4.191,1.635,-11.543,-1
1302,1303,1582725292158,3.7650339999999995,-6.5251503,-3.053368,6.872999999999999,1.925,-6.94,-1
1303,1304,1582725292168,6.876537299999999,-5.4236336,3.8727044999999998,10.435,3.005,0.342,-1
1304,1305,1582725292178,9.781094,-4.896993,11.188228,13.366,3.659,8.008,-1
1305,1306,1582725292188,10.629302000000001,-5.3312029999999995,16.559283999999998,14.159,3.355,13.685,-1
1306,1307,1582725292199,9.245492,-5.510008,21.088945000000002,12.675999999999998,3.3,18.484,-1
1307,1308,1582725292209,6.5081115,-5.3602877,23.984661,9.821,3.5610000000000004,21.616999999999997,-1
1308,1309,1582725292219,3.1471815,-4.7935987,24.918339000000003,6.346,4.22,22.752,-1
1309,1310,1582725292230,0.7273948,-3.8236837,23.486053,3.8339999999999996,5.2589999999999995,21.48,-1
