,Seq,Time,ACCx,ACCy,ACCz,ADGx,ADGy,ADGz,Keydown
0,1,1580693113360,-0.09999999400000001,0.3044,-0.5755,-0.72765535,-3.3312922,7.231198,-1
1,2,1580693113370,-0.36089998,0.61829996,-1.7487999,-0.9320052,2.9895150000000004,8.997592,-1
2,3,1580693113380,-0.36089998,0.61829996,-1.7487999,-1.1438633999999999,3.2257366000000003,8.851967,-1
3,4,1580693113391,0.04,-0.11009999,-0.3037,-1.253422,2.7467911,9.319429,-1
4,5,1580693113402,-0.0742,-0.7496,0.34719998,-2.0823617,2.1561413,10.222532000000001,-1
5,6,1580693113412,-1.3957,-1.0636,1.0624,-2.7074206000000003,2.2372189,10.224505,-1
6,7,1580693113423,-1.0117999,-0.97029996,0.6153,-2.2091873,2.3269917999999996,9.685945,-1
7,8,1580693113433,-0.26369998,-0.8886,0.2918,-1.54856,2.4240046000000004,9.40517,-1
8,9,1580693113443,0.0894,-0.6243,0.2075,-1.3083258999999998,2.6730973999999996,9.37149,-1
9,10,1580693113453,0.0894,-0.6243,0.2075,-1.1930020000000001,2.5602633999999997,9.620755,-1
10,11,1580693113463,-0.2547,-0.3418,0.706,-1.8832504,2.8198237,9.973612,-1
11,12,1580693113473,-0.92209995,-0.2729,1.2089,-2.628709,2.8505845,10.51202,-1
12,13,1580693113484,-1.6764,-0.3062,1.8692,-3.446252,2.791773,11.167228,-1
13,14,1580693113494,-2.2911,-0.324,2.4436,-4.094219,2.7661073,11.680083999999999,-1
14,15,1580693113504,-2.6238,-0.4434,2.5029,-4.385507,2.6386786,11.658095,-1
15,16,1580693113514,-2.855,-0.8746,2.0202,-4.790960299999999,2.1425137999999997,10.999891,-1
16,17,1580693113524,-3.3242,-1.4379,1.3484,-5.6475387,1.6377968,9.949048,-1
17,18,1580693113535,-4.2925997,-1.5077,-0.0316,-6.537999999999999,1.5064988000000001,8.536632,-1
18,19,1580693113546,-4.5236,-2.0231,-1.0149,-6.7028837,0.8920220999999999,7.827986200000001,-1
19,20,1580693113556,-4.5236,-2.0231,-1.0149,-6.9242992,0.47464570000000006,7.4028525,-1
20,21,1580693113566,-4.4586997,-3.0798,-1.6067,-7.194250599999999,0.3301604,7.0714855,-1
21,22,1580693113576,-4.9792,-2.399,-2.4061,-7.6095967,0.7577936,6.3390417,-1
22,23,1580693113587,-4.5394998,-2.648,-2.5326998,-7.2552449999999995,0.27031493,6.362044999999999,-1
23,24,1580693113597,-4.1864,-2.9016,-2.6554,-6.844515299999999,-0.3417292,6.283238,-1
24,25,1580693113607,-3.5863,-3.1494,-2.9325,-6.983925,0.08464939999999999,5.200694599999999,-1
25,26,1580693113617,-3.2193,-2.8077,-4.1642,-6.444808,-0.19162233,4.2436748,-1
26,27,1580693113627,-1.944,-3.3862997999999997,-4.462,-5.6423,-0.84547883,3.7648535000000005,-1
27,28,1580693113637,-0.62149996,-3.2326,-4.6404,-5.1264935,-0.9724673,3.3865983,-1
28,29,1580693113648,0.1602,-3.307,-4.7774,-4.5087895,-1.1396687,3.3101468,-1
29,30,1580693113658,0.835,-3.4529,-4.6707,-3.9965835,-1.2455595,3.7106583,-1
30,31,1580693113668,1.3170998999999999,-3.6455,-4.0741,-3.5519992999999994,-1.5481483,4.285611,-1
31,32,1580693113679,1.5895,-3.8964999,-3.5941,-3.4978809999999996,-1.5095154,4.6603136,-1
32,33,1580693113688,1.7686,-3.7389997999999998,-3.2633,-2.8957867999999998,-1.0889978,4.737541,-1
33,34,1580693113698,2.6392999,-3.1515,-3.4714,-1.9861531000000003,-0.23582888,4.151948,-1
34,35,1580693113708,3.5691998,-2.3228,-4.1459,-0.8207131999999999,0.49543694,3.4942703,-1
35,36,1580693113718,4.868,-1.8032,-4.7949,0.7986865,0.74214506,2.3080106,-1
36,37,1580693113729,6.0780997,-1.8304,-5.8405,1.2301121000000002,0.29680437,1.6983796000000002,-1
37,38,1580693113738,6.4697,-2.7098,-6.5622,1.247676,-0.86218077,1.2207556,-1
38,39,1580693113748,6.2797,-3.9290998,-6.8155,0.70471895,-1.9379914,1.5699548,-1
39,40,1580693113758,5.6389,-4.7492,-5.8675,0.37767097,-2.4209785,3.4080696,-1
40,41,1580693113768,5.7581,-5.0688,-4.085,1.4540274,-2.5788615000000004,4.0267887,-1
41,42,1580693113778,6.9514,-5.0017,-4.3039,2.3016419999999997,-1.9164053,3.515081,-1
42,43,1580693113789,7.4831,-4.0169,-4.495199700000001,2.8837585,-0.8499129000000001,3.7873015,-1
43,44,1580693113799,8.0692,-2.9868,-4.1816998,3.4677617999999995,0.017314866,3.8728800000000003,-1
44,45,1580693113809,8.6461,-2.3142,-4.0663,4.349977,0.1128914,3.7515224999999996,-1
45,46,1580693113819,9.4927,-2.464,-4.5432,5.082603,-0.52806515,2.6756162999999997,-1
46,47,1580693113829,10.3405,-3.0516999,-5.6341996,6.108796,-0.9333939,2.7310755,-1
47,48,1580693113840,11.277999999999999,-3.2905998,-5.3441997,7.091271000000001,-1.3016796,3.0949652000000003,-1
48,49,1580693113850,12.136399,-3.6792998,-4.8469,7.2857666,-1.7768712,4.494271,-1
49,50,1580693113860,12.032599000000001,-4.0120997,-3.491,6.7817583,-2.4865987,5.769479799999999,-1
50,51,1580693113870,11.464,-4.6625,-2.3964,6.7204,-3.3870866000000004,6.3676863,-1
51,52,1580693113880,11.5293,-5.3431,-1.9073999,7.126034700000001,-3.779621,7.040332,-1
52,53,1580693113890,11.9745,-5.4098,-1.1709,8.121151,-3.7445028,8.910041,-1
53,54,1580693113901,12.8862,-5.1182,0.4477,8.906766000000001,-3.2492572999999996,11.0039425,-1
54,55,1580693113911,13.7029,-4.3921,2.5277,9.475696000000001,-2.9751787,12.285099,-1
55,56,1580693113921,14.3792,-3.7875,4.0736,9.463963,-2.6673607999999995,13.473935,-1
56,57,1580693113931,14.2027,-3.1834998,5.172000000000001,8.786222,-2.5552740000000003,13.997202,-1
57,58,1580693113942,13.564098999999999,-2.9113,5.5727,7.783205000000001,-2.9070876,14.016145999999999,-1
58,59,1580693113952,12.5926,-3.4951,3.9821,7.5545974000000005,-3.6795626000000006,12.400577,-1
59,60,1580693113962,12.6508,-4.3283997,1.7116,7.5430093,-4.951324,9.886693,-1
60,61,1580693113972,12.481899,-4.9157,1.9194,7.512525999999999,-5.67941,10.724071,-1
61,62,1580693113983,12.481899,-4.9157,1.9194,7.756773,-5.565657,12.390445,-1
62,63,1580693113993,13.9857,-3.8858,7.718499700000001,9.184493,-5.1631339999999994,16.178656,-1
63,64,1580693114003,14.4443,-3.2596998,10.269,9.736097000000001,-4.832093,19.157234,-1
64,65,1580693114014,14.0224,-2.9133,12.195399,9.293141,-4.970669,20.971617000000002,-1
65,66,1580693114024,12.976999000000001,-2.9847999,13.718698999999999,8.368798,-5.5098142999999995,22.383287,-1
66,67,1580693114034,12.100999999999999,-3.2565,15.0789995,7.5500765,-6.102514,23.667469,-1
67,68,1580693114044,11.2359,-3.2138999,16.8281,6.830628999999999,-6.342001,25.55004,-1
68,69,1580693114054,10.7701,-2.8457,19.2045,6.645682000000001,-6.2820215,27.423954,-1
69,70,1580693114065,10.3012,-1.9275999,20.9215,6.341474,-5.6422615,29.099789,-1
70,71,1580693114075,9.5427,-1.1609,21.520899,5.6207523,-5.102053,29.674253000000004,-1
71,72,1580693114085,8.9129,-1.0843999,21.2179,5.318499,-5.2570825,29.343231,-1
72,73,1580693114095,7.9365997,-1.3077999,20.231699,4.404670200000001,-5.821109,28.091359999999998,-1
73,74,1580693114105,6.5579,-2.233,18.9496,2.9253313999999997,-6.894783500000001,26.82747,-1
74,75,1580693114115,6.5579,-2.233,18.9496,0.9764033000000001,-7.5062246,25.836117,-1
75,76,1580693114126,1.6818,-3.4134,16.5226,-1.6106081,-8.077979,24.484457,-1
76,77,1580693114136,0.3022,-3.8423998,15.5734,-2.7028909,-8.592063000000001,23.437166,-1
77,78,1580693114146,-1.1307,-4.2578,14.2631,-4.184538,-8.885208,22.07069,-1
78,79,1580693114156,-3.2094,-4.6554,12.614599,-6.074128,-9.216825,20.334146,-1
79,80,1580693114166,-4.8942,-4.8898,10.5678,-7.315090700000001,-9.060433999999999,18.375383,-1
80,81,1580693114177,-5.7418,-4.5481,8.5826,-7.6367563999999994,-8.487521000000001,16.61352,-1
81,82,1580693114187,-5.7281,-4.0373,7.0436997,-7.235775500000001,-7.663064,15.429729,-1
82,83,1580693114197,-5.1668997,-3.2108998,5.9955997000000005,-6.3271565,-6.7044063,14.461974,-1
83,84,1580693114207,-4.2832,-2.6378,4.865999700000001,-5.4330277,-6.008469,13.320784,-1
84,85,1580693114217,-3.9717,-2.4575999,3.9315998999999997,-5.4433994000000006,-5.793106,12.648922,-1
85,86,1580693114228,-4.3011,-2.5527,3.2588,-6.0353227,-5.9149423,12.112017999999999,-1
86,87,1580693114238,-5.2517,-2.9471998,2.7073998,-7.1589979999999995,-6.208232,11.891243,-1
87,88,1580693114248,-6.6143,-3.5075998,2.5404,-8.216622000000001,-6.4539247,11.892066,-1
88,89,1580693114258,-7.816,-3.9515,2.4449,-9.208368,-6.7216062999999995,11.811679,-1
89,90,1580693114268,-8.432099000000001,-4.3264,2.2858999,-9.4368515,-6.67197,11.560087,-1
90,91,1580693114278,-8.597899,-4.4537,1.7613,-8.9559145,-6.442088,10.756516,-1
91,92,1580693114289,-7.8299,-4.3550997,0.77089995,-7.737868300000001,-5.857089,9.877958999999999,-1
92,93,1580693114299,-6.4546,-3.9318,-0.107099995,-6.221314,-5.214341,9.153732000000002,-1
93,94,1580693114309,-5.0148,-3.5042,-0.68439996,-5.0848727,-4.659375,8.927232,-1
94,95,1580693114319,-4.2173,-3.2615,-0.74369997,-4.7190385,-4.371975,8.768744,-1
95,96,1580693114329,-4.0501,-3.3444,-1.1204,-4.95096,-4.4909763,8.190908,-1
96,97,1580693114340,-4.5927997000000005,-3.7937999,-1.7969998999999999,-6.156479,-4.8186088,7.649493700000001,-1
97,98,1580693114350,-5.6878,-4.2668,-2.1464999,-7.014991800000001,-5.0354276,7.4873199999999995,-1
98,99,1580693114360,-6.4558,-4.7156,-2.3746,-7.325740299999999,-5.0762444,6.96365,-1
99,100,1580693114371,-6.7331996,-4.8754,-2.9905,-7.0924773000000005,-4.730224,6.2571216,-1
100,101,1580693114381,-6.35,-4.7369,-3.6401,-6.100196400000001,-4.180841399999999,5.831452,-1
101,102,1580693114391,-5.2578,-4.3368998,-4.039,-4.679659,-3.4196190000000004,5.552862,-1
102,103,1580693114401,-3.7933,-3.7468,-4.2668,-3.3416352,-2.7271202000000003,5.53164,-1
103,104,1580693114413,-1.6984999,-2.7199,-4.0573,-2.341539,-1.9452698,5.700163,-1
104,105,1580693114423,-1.3196,-2.3946,-4.0238,-1.970993,-1.4534718999999998,5.721491,-1
105,106,1580693114434,-1.1498,-2.2612,-4.1362,-1.8720359,-1.1836742,5.548571599999999,-1
106,107,1580693114445,-0.9878,-2.1176999,-4.3946,-1.7114232,-0.90002835,5.2135754,-1
107,108,1580693114455,-0.8037,-2.0305,-4.6326,-1.5527258999999998,-0.73296094,5.0474562999999995,-1
108,109,1580693114465,-0.67219996,-1.9469,-4.5271,-1.4527537,-0.47944367,5.293379,-1
109,110,1580693114476,-0.44259998,-1.7854999,-4.1566997,-1.0519738,-0.22496876,5.596523,-1
110,111,1580693114486,0.17119999,-1.6171,-4.0411,-0.44003513,0.11089942,5.603562,-1
111,112,1580693114496,0.8129,-1.2885,-3.9840998999999995,0.15443559,0.56084657,5.669958,-1
112,113,1580693114506,1.2933999,-0.997,-4.0052,0.52733725,0.890892,5.505821,-1
113,114,1580693114516,1.6531,-0.8111,-4.2616,0.84970224,1.104723,5.28385,-1
114,115,1580693114527,1.8601999,-0.81729996,-4.2928,0.9886425,1.1413541999999999,5.4276743,-1
115,116,1580693114536,1.903,-0.8379,-3.8739998,1.0140879999999999,1.1634,5.939612400000001,-1
116,117,1580693114546,1.8979,-1.0318,-3.2696998,0.90528595,1.0337971,6.405007,-1
117,118,1580693114556,1.6814,-1.1583999,-3.1357,0.74542034,1.001552,6.348455400000001,-1
118,119,1580693114567,1.7156999,-1.2875999,-3.1871,0.96260315,0.9890926,6.327281500000001,-1
119,120,1580693114576,1.9511,-1.2768999,-3.1309998,1.1985565,1.1891136999999998,6.3846755,-1
120,121,1580693114586,2.3544,-0.97499996,-3.0563,1.7219098999999998,1.6081661,6.4946456,-1
121,122,1580693114596,2.8430998,-0.6232,-2.7477,2.135264,2.0128534,6.9090433,-1
122,123,1580693114606,3.1657,-0.35799998,-2.3230999,2.4164867,2.232641,7.1508199999999995,-1
123,124,1580693114617,3.2979998999999998,-0.22699999999999998,-2.4575999,2.461383,2.416688,6.763486,-1
124,125,1580693114628,3.2811,-0.1872,-2.8265998,2.5002935,2.452515,6.359977,-1
125,126,1580693114638,3.3983998,-0.15169999,-3.2149,2.662697,2.6475465,5.961055,-1
126,127,1580693114648,3.5468,0.0473,-3.5152,2.7984388,2.8878958,5.8217793,-1
127,128,1580693114658,3.6007,0.18959999,-3.5523,2.783106,3.0637546,5.9456553,-1
128,129,1580693114668,3.4569,0.2883,-3.3463,2.678173,3.166983,6.1701164,-1
129,130,1580693114678,3.2693,0.3265,-3.1325998,2.5051202999999997,3.1177582999999998,6.4179645,-1
130,131,1580693114689,3.0849,0.1989,-2.9115999,2.4398258,2.979038,6.525846499999999,-1
131,132,1580693114699,2.9357,0.0337,-2.7817,2.3484533,2.9638972000000003,6.7861256999999995,-1
132,133,1580693114709,2.8758,0.09559999400000001,-2.3706,2.6240832999999997,3.1538627,7.5569625,-1
133,134,1580693114719,3.1569,0.29600000000000004,-1.6389999,3.0316436,3.5297236000000005,8.487101,-1
134,135,1580693114729,3.4671,0.7105,-0.66459996,3.2436645,3.8387384,9.573493,-1
135,136,1580693114740,3.5958,0.9928,0.3773,3.1549258,3.9490826,10.225453,-1
136,137,1580693114749,3.3999998999999996,1.0857999,0.8716,2.9066183999999997,3.9876196000000004,10.080039,-1
137,138,1580693114759,3.1329,1.1195998999999999,0.5653,2.7223222000000002,3.9156785000000003,9.421078,-1
138,139,1580693114769,2.9055998,1.0228,-0.089899994,2.3516617,3.7503927000000004,8.921954,-1
139,140,1580693114779,2.4587,0.8193,-0.5464,1.8757803,3.4713051,8.429534,-1
140,141,1580693114790,1.9461,0.4931,-1.0406,1.3531357,3.2173279999999997,8.125413,d
141,142,1580693114800,1.3598,0.2557,-1.2307,0.9626223,3.037064,8.268912,-1
142,143,1580693114810,0.9916,0.0673,-1.0411999,0.86334914,2.9427516,8.708411,-1
143,144,1580693114820,0.92039996,-0.0165,-0.5525,1.2206788999999998,2.9891894,9.2890625,-1
144,145,1580693114830,1.2464,0.0717,-0.0879,1.6820991000000003,3.2802860000000003,9.446323,-1
145,146,1580693114840,1.6884999,0.3818,0.0609,1.8797452000000001,3.4220707000000004,9.6435,-1
146,147,1580693114850,1.9052999,0.5839,0.3277,1.7896273999999999,3.5023053,9.979588,-1
147,148,1580693114860,1.7153,0.6547,0.6447,1.5163628999999998,3.4491157999999995,10.180193,-1
148,149,1580693114870,1.3242999,0.5415,0.8365,1.061225,3.171465,10.19295,-1
149,150,1580693114880,0.9313,0.30179998,0.7467,0.7777324999999999,2.9528265,9.904889,-1
150,151,1580693114891,0.65489995,0.08249999599999999,0.4438,0.6360245,2.8458343,9.527975,-1
151,152,1580693114901,0.5336,-0.0061,0.044999998,0.62653387,2.7773027000000003,9.168873,-1
152,153,1580693114911,0.4897,-0.086899996,-0.255,0.5786880999999999,2.7060895,9.15197,-1
153,154,1580693114921,0.4394,-0.1522,-0.2429,0.5471708000000001,2.6932087000000005,9.302575,-1
154,155,1580693114931,0.4048,-0.16059999,-0.0274,0.517885,2.6705308,9.679421000000001,-1
155,156,1580693114941,0.3374,-0.191,0.37199998,0.37859035,2.6183276,9.979646,-1
156,157,1580693114952,0.039499998,-0.2374,0.6694,0.20305704,2.5898175,10.069992999999998,-1
157,158,1580693114962,0.0704,-0.261,0.4127,0.2354458,2.5591909999999998,9.807043,-1
158,159,1580693114972,0.0704,-0.261,0.4127,0.43363783,2.488294,9.441152,-1
159,160,1580693114982,0.2859,-0.21339999,-0.2634,0.45423752,2.605648,9.1445675,-1
160,161,1580693114992,0.2859,-0.21339999,-0.2634,0.4967777,2.6442617999999998,9.037326,-1
161,162,1580693115002,0.2945,-0.1582,-0.2622,0.47833276,2.665522,9.139089,-1
162,163,1580693115013,0.2945,-0.1582,-0.2622,0.4653562,2.7248697,9.160752,-1
163,164,1580693115023,0.3033,-0.037000000000000005,-0.2138,0.5040752000000001,2.7799556,9.1869545,-1
164,165,1580693115033,0.45659998,0.109799996,-0.2166,0.7191033,2.9671437999999997,9.208368,-1
165,166,1580693115043,0.45659998,0.109799996,-0.2166,1.0313933000000002,3.1550407000000003,9.459692,-1
166,167,1580693115053,1.0018,0.52709997,0.3514,1.2226422,3.3470078,9.83767,-1
167,168,1580693115063,1.0544,0.6422,0.6308,1.2486049,3.394164,10.0848465,-1
168,169,1580693115073,1.0544,0.6422,0.6308,1.1017828,3.2735825000000003,10.194491000000001,-1
169,170,1580693115083,0.5388,0.2922,0.7154,0.6576776,2.9935663,10.093973,-1
170,171,1580693115093,0.5388,0.2922,0.7154,0.41947374,2.797663,9.847983000000001,-1
171,172,1580693115103,0.0459,-0.022699999,0.2189,0.28083986,2.751024,9.621962,-1
172,173,1580693115113,0.19899999999999998,0.0805,0.19119999,0.49234363,2.874038,9.620084,-1
173,174,1580693115124,0.4522,0.1586,0.3092,0.732913,2.9413536,9.767882,-1
174,175,1580693115134,0.6407,0.2315,0.6024,0.9384121999999999,3.0163493,10.059804,-1
175,176,1580693115144,0.8329,0.21849999,0.84569997,1.1027597,2.9375994,10.313981,-1
176,177,1580693115154,0.7169,0.0888,0.9906,0.90049756,2.7955275,10.406168,-1
177,178,1580693115164,0.3811,-0.062299997,0.93969995,0.5461557,2.6485807999999995,10.356187,-1
178,179,1580693115174,0.0079,-0.1777,0.9388,0.16301641,2.5718226000000004,10.362249,-1
179,180,1580693115185,-0.33609998,-0.1696,0.792,-0.18484195,2.5675132,10.138515,-1
180,181,1580693115195,-0.38549998,-0.3033,0.4405,-0.15402378,2.4024088,9.807081,-1
181,182,1580693115205,-0.1687,-0.4384,0.20709999,0.08713937,2.3218489,9.603525999999999,-1
182,183,1580693115215,0.01,-0.36749998,0.0718,0.21905987,2.417914,9.416607,-1
183,184,1580693115225,-0.024699999,-0.3371,-0.1906,0.07098329,2.3965002999999996,9.058605,-1
184,185,1580693115235,-0.2554,-0.3881,-0.6483,-0.21299776,2.3935506,8.5766535,-1
185,186,1580693115245,-0.42319998,-0.41239998,-1.0266,-0.28849173,2.371543,8.3528805,-1
186,187,1580693115255,-0.46159998,-0.4348,-0.9934,-0.33617467,2.3637571,8.478759,-1
187,188,1580693115265,-0.4141,-0.4885,-0.5017,-0.20455101,2.2359544999999996,9.204939999999999,-1
188,189,1580693115275,-0.4182,-0.62839997,0.1138,-0.40073190000000003,2.2565734,9.534314,-1
189,190,1580693115285,-0.60569996,-0.37469998,-0.1273,-0.48828307,2.4469604,9.097823,-1
190,191,1580693115296,-0.5405,-0.2838,-0.5137,-0.47034570000000003,2.545544,8.781884,-1
191,192,1580693115306,-0.5369,-0.0777,-0.8797,-0.4611424,2.726038,8.477867999999999,-1
192,193,1580693115316,-0.3759,0.0705,-1.1154,-0.22379082,2.8864686,8.255666999999999,-1
193,194,1580693115326,-0.1227,0.2464,-1.1249,0.19982007,3.1122514999999997,8.586881,-1
194,195,1580693115336,0.3635,0.36339998,-0.4998,0.77428484,3.0780432,9.356972,-1
195,196,1580693115346,0.9755,0.32979998,0.70879996,1.0562643,3.1671457000000003,10.9128475,-1
196,197,1580693115357,0.8304,0.5237,1.9043,0.6300581000000001,3.1963072,11.751268,-1
197,198,1580693115367,0.33899999999999997,0.4499,2.375,0.12004527400000001,2.9943516,11.646009,-1
198,199,1580693115377,-0.3462,0.18869999,1.5081999,-0.6066045,2.7799842,10.36426,-1
199,200,1580693115387,-0.85969996,0.086899996,0.089899994,-0.9236926,2.8223805,8.928716,-1
200,201,1580693115398,-0.88549995,0.2356,-0.7945,-0.6512515999999999,3.0223253,8.484351,-1
201,202,1580693115408,-0.44,0.30969998,-0.90529996,-0.23334847,3.0287132000000003,8.601236,-1
202,203,1580693115418,-0.046099997999999996,0.3299,-0.7751,0.16367720000000002,2.9670959,8.812788000000001,-1
203,204,1580693115428,0.23600000000000002,0.1592,-0.4434,0.2692232,2.7287482999999995,9.349827000000001,-1
204,205,1580693115438,0.18069999,0.0268,-0.025999999,-0.0027198129999999997,2.7821965,9.526701,-1
205,206,1580693115449,-0.2825,0.2839,0.1274,-0.29917943,3.0943236,9.559186,-1
206,207,1580693115459,-0.2872,0.42549998,0.13599999,-0.27618550000000003,3.1181414000000003,9.678589,-1
207,208,1580693115469,-0.3301,0.42639998,0.2829,-0.44740927,3.0339134,9.690282,-1
208,209,1580693115479,-0.5427,0.2677,0.1462,-0.40607578,2.6603603,9.497204,-1
209,210,1580693115489,-0.39499998,-0.0893,0.069,-0.09196607,2.4592473999999998,9.518608,-1
210,211,1580693115499,-0.107,-0.2516,0.0609,0.11767023,2.4074942999999998,9.371001,-1
211,212,1580693115510,0.0222,-0.26749998,-0.093899995,0.30176517,2.5164400000000002,9.297346000000001,-1
212,213,1580693115520,0.1822,-0.1537,-0.13159999,0.49397168,2.6112217999999996,9.446389,-1
213,214,1580693115530,0.4957,-0.090399995,0.16149999,0.9265465,2.468872,9.939078,-1
214,215,1580693115540,0.75869995,-0.2251,0.5701,0.9161269000000001,2.4419037999999995,10.211557,-1
215,216,1580693115550,0.7323,-0.2112,0.79179996,1.0356072,2.5645444,10.327838999999999,-1
216,217,1580693115561,0.8429,-0.1034,0.8775,1.1993802,2.7293131,10.328586,-1
217,218,1580693115571,1.0016999,0.0679,0.8763,1.1391038,2.7930662999999996,10.208741999999999,-1
218,219,1580693115581,0.93009996,0.1379,0.7583,1.0785687,2.7434008,10.120443,-1
219,220,1580693115591,0.87799996,0.0883,0.6701,0.9841893,2.7975671,9.934586999999999,-1
220,221,1580693115601,0.7958,0.1451,0.484,0.7442041,2.8643656,9.605816,-1
221,222,1580693115611,0.584,0.19839999,0.16149999,0.46165955,3.0446009999999997,9.331344,-1
222,223,1580693115622,0.026899998999999997,0.74369997,-0.509,0.13458288,3.4370394,8.931637,-1
223,224,1580693115632,-0.14389999,0.8436,-1.1809,-0.08026321,3.545372,8.255993,-1
224,225,1580693115642,-0.3568,0.62729996,-1.9793999,-0.31102595,3.3521123,7.454212700000001,-1
225,226,1580693115652,-0.3568,0.62729996,-1.9793999,-0.5303923,3.0320075,6.826549000000001,-1
226,227,1580693115662,-0.4504,0.1908,-2.4529,-0.43452844,2.9444084,6.978121300000001,-1
227,228,1580693115673,-0.2297,0.19579999,-1.2509999,-0.18380764,2.954282,8.48846,-1
228,229,1580693115682,-0.10669999599999999,0.3812,0.1599,-0.10590033,3.0782921,9.598201,-1
229,230,1580693115692,-0.10669999599999999,0.3812,0.1599,0.044829033,3.1674425999999998,10.393612,-1
230,231,1580693115702,0.1122,0.5409,1.0964999,0.17297629,3.145598,11.137310000000001,-1
231,232,1580693115712,0.2365,0.55579996,1.6603999,-0.05473145,3.0541202999999997,11.5834255,-1
232,233,1580693115722,0.079399996,0.5021,2.1,-0.28593472,2.9445232999999997,11.477056,-1
233,234,1580693115733,-0.4023,0.20979999,1.1243,-0.58998877,2.7310947999999997,10.605098,-1
234,235,1580693115743,-0.6082,0.1583,0.17889999,-0.78846806,2.7016172000000003,9.6586685,-1
235,236,1580693115753,-0.6082,0.1583,0.17889999,-0.8024215,2.6806824000000002,8.995849,-1
236,237,1580693115763,-0.4739,-0.0232,-0.6724,-0.6392518,2.5684516,8.793941499999999,-1
237,238,1580693115773,-0.3049,-0.101399995,-0.2705,-0.46883258,2.4904583,9.193907000000001,-1
238,239,1580693115783,-0.1131,-0.0034999999,0.85179996,-0.25975174,2.5715928,10.325406,-1
239,240,1580693115793,0.0241,0.0279,1.9318999,-0.12518802,2.5714686,11.411081,-1
240,241,1580693115805,-0.077599995,0.050499998,2.5216,-0.23653755,2.5623035,12.013472,-1
241,242,1580693115815,-0.1961,0.0164,2.7310000000000003,-0.38518876,2.4846833,12.223127999999999,-1
242,243,1580693115825,-0.3154,-0.0793,2.5417,-0.49478573,2.3933685000000002,12.047564999999999,-1
243,244,1580693115836,-0.4001,-0.1113,2.0226,-0.5965201,2.3477829,11.234332,-1
244,245,1580693115846,-0.4414,-0.1259,1.3399,-0.63300776,2.3599741,10.673294,-1
245,246,1580693115856,-0.4398,-0.1457,1.041,-0.56122005,2.3697807999999996,10.565296,-1
246,247,1580693115866,-0.2559,-0.1255,1.2126,-0.25953147,2.4503791,10.839853,-1
247,248,1580693115876,0.0867,-0.072399996,1.5402,-0.047874457999999995,2.4719942,11.064047,-1
248,249,1580693115886,-0.0117999995,-0.1235,1.7002,-0.29949549999999997,2.3692636,11.134925,-1
249,250,1580693115897,-0.41,-0.32009998,1.4383999,-0.72618055,2.176157,10.686366,-1
250,251,1580693115907,-0.7866,-0.43789998,0.912,-1.1462097,2.1548293,10.212486,-1
251,252,1580693115917,-1.0232999,-0.4368,0.6992,-1.2937883,2.1262232999999995,10.118069,-1
252,253,1580693115927,-1.0993,-0.42659998,0.565,-1.2373905,2.2781692000000002,9.910156,-1
253,254,1580693115937,-0.863,-0.2742,0.3926,-0.80449003,2.4315896,9.799257,-1
254,255,1580693115947,-0.3166,-0.13679999,0.30969998,-0.19477311,2.6407757000000003,9.688606,-1
255,256,1580693115958,0.2498,0.1143,0.1786,0.49114653,2.961704,9.456379,-1
256,257,1580693115968,0.9902,0.39299998,-0.19699999999999998,1.1164258,3.1292312,8.886722,-1
257,258,1580693115978,1.3616999,0.4271,-0.6903,1.0300334999999998,3.0062458999999997,8.660862,-1
258,259,1580693115988,0.98279995,0.1625,-0.7633,0.33214283,2.7840927000000004,8.738061,-1
259,260,1580693115998,0.225,0.0016999998999999999,-0.6516,-0.27813920000000003,2.5911582,8.886703,-1
260,261,1580693116008,-0.1528,-0.1999,-0.5001,-0.48090893,2.4939346000000002,8.973133,-1
261,262,1580693116018,-0.3637,-0.2845,-0.4396,-0.6041624,2.4389637000000004,8.989749,-1
262,263,1580693116028,-0.4233,-0.3344,-0.4464,-0.47408065,2.4681349,8.928055,-1
263,264,1580693116038,-0.1371,-0.2944,-0.52239996,-0.0015897499,2.5004277000000004,8.802694,-1
264,265,1580693116048,0.33089998,-0.2807,-0.6678,0.40543409999999996,2.6154740000000003,8.752175999999999,-1
265,266,1580693116059,0.58919996,-0.12619999,-0.6376,0.5822986,2.7826942999999997,8.848903,-1
266,267,1580693116069,0.8605,0.07,-0.5002,0.82329893,2.9852822,9.026178,-1
267,268,1580693116079,1.0170000000000001,0.31669998,-0.324,0.9543288000000001,3.249104,8.95508,-1
268,269,1580693116089,1.1539,0.4931,-0.6768,0.9811629999999999,3.2395847,8.298323,-1
269,270,1580693116100,1.1467,0.44829997,-1.1654999,0.8518474,3.2398624,8.03812,-1
270,271,1580693116110,0.99149996,0.4412,-1.3694998999999999,0.75333077,3.159446,8.116823,-1
271,272,1580693116120,0.8692,0.34019998,-1.2512,0.4059417,3.1068406000000004,8.418166000000001,-1
272,273,1580693116130,0.46409997,0.2857,-0.89959997,-0.057116075999999995,2.9653049,8.986799000000001,-1
273,274,1580693116141,-0.0067999995999999995,0.1406,-0.2855,-0.5534628,2.989611,9.785304,-1
274,275,1580693116151,-0.41200000000000003,0.2233,0.3672,-0.53966266,3.0693857999999996,10.255726,-1
275,276,1580693116161,-0.42159998,0.3128,0.8246,-0.18313728,3.1131804,10.582602,-1
276,277,1580693116171,-0.092999995,0.36839998,1.1657,0.29058906,3.3145809999999996,10.749678999999999,-1
277,278,1580693116183,0.34399998,0.5686,1.3212,0.77174693,3.4344629999999996,11.004010000000001,-1
278,279,1580693116193,0.9884,0.87469995,1.9747,0.991506,3.6639426,11.529834,-1
279,280,1580693116203,1.0160999,1.1467,2.708,1.0192308,3.9161959000000004,12.284562,-1
280,281,1580693116213,1.0608,1.3363,3.3444998,1.0748719999999998,4.057262000000001,12.867915,-1
281,282,1580693116223,0.98429996,1.3416,3.7185,1.0074896999999998,4.0658330000000005,13.1529875,-1
282,283,1580693116233,0.98429996,1.3416,3.7185,0.9022118,3.9351099,13.47291,-1
283,284,1580693116243,0.8601,0.893,4.5011997,0.92383623,3.6453156000000004,13.925607000000001,-1
284,285,1580693116253,0.8601,0.893,4.5011997,1.0914973999999997,3.3768491999999997,14.243115,-1
285,286,1580693116263,0.91899997,0.3542,5.3589997,0.9554014000000001,3.159226,14.81826,-1
286,287,1580693116274,0.73219997,0.3861,5.4582996,0.82198685,3.2299025,14.881592000000001,-1
287,288,1580693116284,0.73219997,0.3861,5.4582996,0.74972034,3.3140924,15.062057000000001,-1
288,289,1580693116294,0.6938,0.24409999,5.5783997,0.8526040000000001,3.1243757999999997,14.842451,-1
289,290,1580693116304,0.92329997,-0.2014,4.8956,1.1077110000000001,2.721987,14.056683999999999,-1
290,291,1580693116315,1.109,-0.7169,4.0993,1.2181698,2.2667153,13.26743,-1
291,292,1580693116325,0.96699995,-1.3357999,3.4429,1.0295163,1.7611556000000002,12.618813000000001,-1
292,293,1580693116335,0.6554,-1.8206999,2.8278,0.6331131,1.3539115,11.816727,-1
293,294,1580693116345,0.34919998,-2.2112,2.3033,0.33361766,1.0607461999999999,11.386315,-1
294,295,1580693116355,0.0942,-2.5170999,1.8304,0.055037912,0.95818824,10.601046,-1
295,296,1580693116365,-0.0821,-2.5667,0.6658,-0.07140467,1.0489285,9.529852,-1
296,297,1580693116376,-0.0925,-2.5749,-0.5137,-0.07728483,1.1552788999999999,8.385845,-1
297,298,1580693116386,-0.1616,-2.5442998,-1.5148,-0.37182909999999997,1.4113915000000001,6.7743077000000005,-1
298,299,1580693116396,-0.49929997,-2.4603,-2.7022998,-0.6161718,1.4989233999999998,5.9168863,-1
299,300,1580693116406,-0.5959,-2.4549,-3.304,-0.63577545,1.6663069,5.647682700000001,-1
300,301,1580693116416,-0.4604,-2.1921,-3.0665,-0.47019246,2.1341147,6.000138,-1
301,302,1580693116426,-0.17729999,-1.8059,-2.8207998,-0.17545667,2.538639,5.999027,-1
302,303,1580693116436,-0.0064,-1.4887999,-2.9171999,-0.13248555,2.9944472,5.848412000000001,-1
303,304,1580693116446,0.1086,-1.1122,-3.1992,0.12160629,3.3979661,5.211009,-1
304,305,1580693116456,0.55469996,-0.9978,-4.2265997,0.58028746,3.5177525999999997,4.1133347,-1
305,306,1580693116466,0.92039996,-0.82559997,-4.865,0.8118354999999999,3.9032288,3.9432886,-1
306,307,1580693116477,1.0916,-0.40109998,-4.3348,0.9222178,4.322444,4.6770825,-1
307,308,1580693116487,1.0289999,-0.1669,-3.4101,0.6334579,4.484388,5.550841999999999,-1
308,309,1580693116497,0.5074,-0.16129999,-2.5181,-0.16723019,4.4851637,6.428537,-1
309,310,1580693116507,-0.027199998,-0.24679999,-2.1636999,-0.5066514,4.4194379999999995,6.2930345999999995,-1
310,311,1580693116517,-0.2056,-0.292,-2.4515998,-0.60603946,4.482041400000001,5.949591000000001,-1
311,312,1580693116527,-0.2527,-0.302,-2.8745,-0.64627165,4.4832673,5.5472884,-1
312,313,1580693116538,-0.2895,-0.36679998,-3.1128,-0.72243595,4.420558,5.47891,-1
313,314,1580693116548,-0.35119998,-0.42139998,-2.9150999,-0.8495681,4.477722,5.6956620000000004,-1
314,315,1580693116558,-0.5063,-0.3372,-2.6646,-1.1646641000000002,4.6261725,6.0634017,-1
315,316,1580693116568,-0.7345,-0.243,-2.2721999,-1.2191371000000002,4.783883,6.377751,-1
316,317,1580693116579,-0.6299,-0.0058,-2.1183,-1.0172197,5.0917873,6.280144,-1
317,318,1580693116589,-0.36499998,0.3004,-2.2003,-0.8847533000000001,5.373939,6.556406,-1
318,319,1580693116599,-0.3266,0.4698,-1.8418,-1.0086772,5.531889,6.9268465,-1
319,320,1580693116609,-0.4258,0.6078,-1.4731,-0.99924403,5.672151599999999,7.2752419999999995,-1
320,321,1580693116619,-0.3672,0.7511,-1.1317999,-0.8358061999999999,5.8107657,7.444176,-1
321,322,1580693116629,-0.1462,0.91889995,-1.0035,-0.4976875,5.977239,7.1087679999999995,-1
322,323,1580693116640,0.1542,0.97489995,-1.4455999,-0.28831935,5.891709,6.444636,-1
323,324,1580693116650,0.2934,0.82299995,-2.1134,-0.4379857,5.616912,5.912204,-1
324,325,1580693116660,0.107999995,0.5408,-2.5534,-0.7453916,5.4273295,5.984259,-1
325,326,1580693116670,-0.1809,0.359,-2.2942,-1.0262122999999999,5.3674935999999995,6.7484694,-1
326,327,1580693116680,-0.4495,0.34649998,-1.4932,-1.3342406999999998,5.3778367,7.6330695,-1
327,328,1580693116691,-0.6892,0.35009998,-0.7743,-1.526974,5.3264190000000005,8.182951,-1
328,329,1580693116701,-0.8721,0.3141,-0.2417,-1.6166703000000002,5.297909,8.150580999999999,-1
329,330,1580693116711,-0.94869995,0.3035,-0.2658,-1.4210353,5.1990666,7.512641,-1
330,331,1580693116721,-0.7423,0.1981,-0.9137,-1.1813565000000001,5.200436,7.2191505000000005,-1
331,332,1580693116731,-0.50229996,0.2078,-1.2074,-0.9429610999999999,5.1937995,7.331821400000001,-1
332,333,1580693116742,-0.2582,0.2003,-1.0912,-0.89121765,5.238887,7.429773,-1
333,334,1580693116752,-0.1716,0.2171,-0.6207,-0.85434693,5.192209200000001,7.823217,-1
334,335,1580693116762,-0.1716,0.2171,-0.6207,-0.91558105,5.218823400000001,8.115013000000001,-1
335,336,1580693116773,-0.2839,0.2068,-0.147,-0.9690196,5.158796,8.308444999999999,-1
336,337,1580693116783,-0.2839,0.2068,-0.147,-1.0788847,5.0318365,8.240786,-1
337,338,1580693116793,-0.5439,-0.0061,-0.1008,-1.2412117,4.9298625,8.364717500000001,-1
338,339,1580693116803,-0.6435,-0.0563,0.080299996,-1.3313101999999999,4.856906400000001,8.544054,-1
339,340,1580693116815,-0.6074,-0.089499995,0.0275,-1.3011336000000002,4.8193555,8.497424,-1
340,341,1580693116825,-0.5924,-0.1451,-0.1021,-1.2479154,4.746983999999999,8.257717,-1
341,342,1580693116835,-0.519,-0.16319999,-0.3682,-1.1550107,4.753429,8.042306,-1
342,343,1580693116846,-0.3962,-0.17029999,-0.4976,-1.0067331,4.7302914000000005,7.971953999999999,-1
343,344,1580693116856,-0.2729,-0.1837,-0.4623,-0.9184158000000001,4.709289599999999,8.065721,-1
344,345,1580693116866,-0.1997,-0.1358,-0.3696,-0.8768524,4.835828,8.143628,-1
345,346,1580693116876,-0.1969,0.011000000000000001,-0.2874,-0.81826156,4.894141,8.342931,-1
346,347,1580693116887,-0.1286,0.0117,0.0783,-0.72485894,4.89982,8.715029,-1
347,348,1580693116897,0.0448,0.0517,0.2969,-0.45409387,4.942158999999999,8.791451,-1
348,349,1580693116907,0.4172,0.2087,0.2807,-0.03673663,5.1458,8.910721,-1
349,350,1580693116917,0.7353,0.3191,0.6558,0.1694999,5.119177,9.358819,-1
350,351,1580693116927,0.6107,0.22569999,0.97139996,-0.22634782,5.018333,9.536928999999999,-1
351,352,1580693116938,0.0229,0.1193,1.0442,-0.9266327,4.7625459999999995,9.6032295,-1
352,353,1580693116948,-0.4865,-0.14989999,1.0322,-1.3772788999999999,4.565015,9.450144,-1
353,354,1580693116958,-0.83519995,-0.27089998,0.7696,-1.5033097,4.4700413,8.926532,d
354,355,1580693116968,-0.8391,-0.3504,0.28509998,-1.3280253,4.408932,8.444435,-1
355,356,1580693116978,-0.5922,-0.46069998,-0.2674,-1.093384,4.3767443,8.136053,-1
356,357,1580693116989,-0.2566,-0.4177,-0.3822,-0.73343974,4.448771499999999,8.36786,-1
357,358,1580693116999,-0.0257,-0.3542,0.0363,-0.5810248,4.5176096,8.737169999999999,-1
358,359,1580693117009,0.0841,-0.3019,0.44099998,-0.43814849999999994,4.626996,9.15607,-1
359,360,1580693117019,0.21939999,-0.1585,0.6483,-0.32812053,4.782954,9.244904,-1
360,361,1580693117029,0.3171,0.0022,0.6904,-0.3999083,4.7753214999999996,9.124025,-1
361,362,1580693117039,0.2374,-0.0196,0.5201,-0.5249144,4.699751,8.841691,-1
362,363,1580693117050,0.1043,-0.108799994,0.2365,-0.67662054,4.668377400000001,8.662202,-1
363,364,1580693117060,-0.0639,-0.1566,0.074499995,-0.81024575,4.58549,8.421642,-1
364,365,1580693117070,-0.1884,-0.2898,-0.30949998,-0.82892054,4.4399133,7.7763195000000005,-1
365,366,1580693117080,-0.1876,-0.4075,-0.84819996,-0.71478415,4.366171400000001,7.205819,-1
366,367,1580693117090,-0.0594,-0.5043,-1.4367,-0.5676269,4.251298,6.7094816999999995,-1
367,368,1580693117101,0.051599998,-0.6143,-1.8030000000000002,-0.44215158,4.2713513,6.682705400000001,-1
368,369,1580693117111,0.2034,-0.5972,-1.8019999,-0.4236109,4.241625,6.9997644,-1
369,370,1580693117121,0.18949999,-0.6207,-1.5212,-0.6446244999999999,4.332643,7.1387625,-1
370,371,1580693117131,-0.0678,-0.5022,-1.3802999,-0.68546957,4.3621974,7.1388583,-1
371,372,1580693117141,-0.0714,-0.4719,-1.3965,-0.6371354,4.3819733,6.939344999999999,-1
372,373,1580693117151,-0.0089,-0.4438,-1.7056999,-0.46748224,4.311373000000001,6.060423999999999,-1
373,374,1580693117162,0.1318,-0.5075,-2.4738,-0.23290795,4.1741470000000005,5.683825,-1
374,375,1580693117172,0.3496,-0.6502,-2.8495,-0.034869153,3.9488335,5.512553700000001,-1
375,376,1580693117182,0.87409997,-1.095,-3.3009,0.31706890000000004,3.7083788,5.2399497,-1
376,377,1580693117192,0.87409997,-1.095,-3.3009,0.6145437,3.5423555,4.946957,-1
377,378,1580693117202,1.5157,-1.78,-4.4400997,0.96660626,2.8816612,3.97064,-1
378,379,1580693117213,1.3206999,-2.3192,-5.258899700000001,0.75595486,2.451222,3.3073980000000005,-1
379,380,1580693117223,0.6595,-2.6523,-6.2539997000000005,-0.08426632,2.0494368,2.103067,-1
380,381,1580693117233,-0.2057,-2.9826999,-7.1327,-0.82679445,1.7638466,1.4373637,-1
381,382,1580693117243,-1.5788,-2.8155,-8.054399499999999,-2.4051576,1.9625654,0.36577654,-1
382,383,1580693117253,-2.0107,-2.8155,-8.637899,-2.611126,1.8351269000000001,-0.124804944,-1
383,384,1580693117263,-1.3548,-3.0212998,-9.0213995,-1.7839484,1.6081375,-0.54374236,-1
384,385,1580693117274,-0.2723,-3.1241,-9.6733,-0.5531659999999999,1.4110563,-1.2921506,-1
385,386,1580693117284,-0.2723,-3.1241,-9.6733,0.46922523,1.0516005,-1.8994831,-1
386,387,1580693117294,1.5238,-3.8411,-10.684000000000001,0.98358595,0.5182106,-1.9584091000000001,-1
387,388,1580693117304,1.4041,-4.2872,-10.5418,0.5836393,-0.08129752,-1.7159626000000001,-1
388,389,1580693117314,0.54399997,-4.6804,-10.419,-0.54734325,-0.55443007,-1.5580698,-1
389,390,1580693117324,0.54399997,-4.6804,-10.419,-1.3527143,-0.78017455,-1.4561248,-1
390,391,1580693117335,-1.9491999,-5.1099997,-10.2273,-2.866434,-1.0347548,-1.3185347,-1
391,392,1580693117345,-2.7454,-4.7053,-10.4772,-3.397583,-0.719381,-1.665081,-1
392,393,1580693117355,-2.9886,-4.3271,-11.638599000000001,-3.4022756000000003,-0.6372310999999999,-2.8112907000000003,-1
393,394,1580693117365,-2.3416,-4.7784,-12.319799,-2.645928,-1.3270389,-3.2543905,-1
394,395,1580693117375,-1.5529,-5.4976997,-12.3187,-1.6697737000000001,-2.2484236,-3.0663977000000004,-1
395,396,1580693117385,-0.54829997,-6.2669997,-11.5097,-0.34836593,-3.2815504,-1.7110976000000002,-1
396,397,1580693117395,0.27269998,-6.5478997,-10.0498,0.6660956,-3.6608110000000003,0.025234886,-1
397,398,1580693117405,1.3953999,-6.611799700000001,-8.2408,1.6730298,-3.8752644,1.5655302,-1
398,399,1580693117415,2.1064,-6.0757,-6.4034996,2.3210444,-3.517523,3.5224547,-1
399,400,1580693117425,2.1538,-5.446000000000001,-3.9275,2.3694648999999997,-3.38067,6.267464,-1
400,401,1580693117435,1.9502,-5.2783,-1.0623,2.213382,-3.6849252999999997,9.545213,-1
401,402,1580693117445,2.0300999,-5.331,1.0425999,2.4192834,-4.234816,11.215225,-1
402,403,1580693117455,2.3774,-6.0929,3.4206,2.8216624,-5.477656,13.682383999999999,-1
403,404,1580693117465,2.444,-7.0992,5.3957996,2.5737956000000004,-7.130698700000001,15.579932000000001,-1
404,405,1580693117475,1.2830000000000001,-7.9262996,6.0834,1.1883763,-8.023430000000001,16.100758,-1
405,406,1580693117486,-0.0508,-7.792000000000001,6.9414,0.33116599999999996,-7.735771000000001,17.454687,-1
406,407,1580693117496,-0.23359999,-6.7860000000000005,9.2722,0.86784065,-6.9885883,20.390268,-1
407,408,1580693117506,1.0876,-5.719599700000001,12.7226,2.5018833,-6.2656545999999995,23.687359,-1
408,409,1580693117516,2.5119998,-4.7511,15.448,3.5720532,-5.878847,25.953357999999998,-1
409,410,1580693117526,2.9438999,-4.4105,17.1229,3.5233552,-6.081301,26.998473999999998,-1
410,411,1580693117537,2.4527,-4.4298997,17.1264,2.4929867000000003,-6.540988,26.268271999999996,-1
411,412,1580693117546,0.6193,-4.6995,15.6296,0.06725791,-6.996269,24.293907,-1
412,413,1580693117556,-1.6754999,-4.7016,13.421,-1.8250233,-7.045972999999999,22.279089000000003,-1
413,414,1580693117566,-2.4034,-4.1296,12.421599,-1.6303172,-6.1692542999999995,21.989546,-1
414,415,1580693117576,-0.9420000000000001,-2.6592,12.9696,0.61920756,-4.5781355,22.861399,-1
415,416,1580693117586,0.81869996,-1.3798,13.6749,1.8603522000000001,-3.7830303,23.078888,-1
416,417,1580693117597,1.6480000000000001,-0.7021,13.477699,2.0103633000000003,-3.5467991999999997,22.301569,-1
417,418,1580693117607,1.5087999,-0.5241,12.6017,1.4425545,-3.6509373,21.281426999999997,-1
418,419,1580693117617,0.84279996,-0.5685,11.574599000000001,0.58498967,-3.8330976999999997,20.182957000000002,-1
419,420,1580693117627,0.0791,-0.6694,10.3341,-0.055267755,-3.9970237999999996,18.598312,-1
420,421,1580693117637,-0.36859998,-0.7542,8.6321,-0.38427895,-3.9636009,16.832233,-1
421,422,1580693117647,-0.5424,-0.55399996,7.0087,-0.39125085,-3.5439837,15.659257,-1
422,423,1580693117657,-0.4588,0.0023999998999999998,6.1643996,-0.11967178,-2.858562,15.143623000000002,-1
423,424,1580693117668,0.0637,0.7635,5.6040998,0.7621989,-2.0942178,14.462242000000002,-1
424,425,1580693117678,1.1956999,1.456,4.9193997000000005,2.0890749,-1.5061349,13.892392999999998,-1
425,426,1580693117689,2.3772,1.9966999,4.5734997,2.565847,-1.0978277,13.815567999999999,-1
426,427,1580693117699,2.4656,2.2536,4.5748,1.8019432,-1.3161788,13.549228,-1
427,428,1580693117709,1.5968,1.9506999,4.2132998,1.0745177,-1.6421255000000001,13.180042000000002,-1
428,429,1580693117720,0.3866,1.385,3.5648,-0.6471623000000001,-2.543571,12.307777,-1
429,430,1580693117730,-0.7646,0.7502,2.991,-1.6759794999999997,-3.0842776,11.632641,-1
430,431,1580693117740,-1.7012999,0.2402,2.2753,-2.0943806,-3.302811,10.972253,-1
431,432,1580693117750,-1.9915999,0.069,1.4267,-1.8719019000000001,-3.1788487,10.239224,-1
432,433,1580693117761,-1.6536,0.26139998,0.93759996,-1.0474056999999999,-2.6724846,9.789173,-1
433,434,1580693117771,-0.93189996,0.6694,0.5661,-0.04151546,-2.259389,9.490903,-1
434,435,1580693117781,0.0902,1.0763999,0.257,0.76192117,-1.9594433,9.411703,-1
435,436,1580693117791,1.0698999,1.4374,0.1783,1.3752582,-1.6941276,9.465457,d
436,437,1580693117801,1.7105,1.6794,0.2891,1.3472458999999999,-1.8209053,9.8006935,-1
437,438,1580693117811,1.4003999,1.4518,0.6552,0.18792568,-2.4067185,10.123728999999999,-1
438,439,1580693117822,-0.46799999999999997,0.3782,0.74189997,-0.68881184,-2.9601047,9.972242999999999,-1
439,440,1580693117832,-0.96459997,0.0106999995,0.22659999,-1.1774492,-3.3214184999999996,9.4697,-1
440,441,1580693117842,-1.0078,-0.14389999,-0.2013,-1.2126632,-3.4569782999999994,9.042850999999999,-1
441,442,1580693117852,-1.0078,-0.14389999,-0.2013,-0.85199106,-3.3193980000000005,8.810538000000001,-1
442,443,1580693117862,-0.63339996,-0.020299999,-0.44149998,-0.31623575,-3.1697507000000003,8.662002000000001,-1
443,444,1580693117872,0.2261,0.2351,-0.4344,0.0133979535,-3.046095,8.812022,-1
444,445,1580693117882,0.4297,0.4041,-0.28599998,0.19363345,-2.890491,8.959093,-1
445,446,1580693117893,0.5556,0.2909,-0.1467,0.2991124,-2.9979331,9.10398,-1
446,447,1580693117903,0.39339998,0.1882,0.1595,0.10204088,-3.1105275000000003,9.468388000000001,-1
447,448,1580693117913,0.3719,0.1232,0.5239,0.08970595,-3.2222218999999996,9.82837,-1
448,449,1580693117923,0.3852,-0.0033,0.7891,0.10700166,-3.3041803999999995,10.035976,-1
449,450,1580693117933,0.2504,-0.0946,0.6999,-0.05442499,-3.397353,9.943829,-1
450,451,1580693117943,0.1476,-0.19849999,0.41349998,-0.1593868,-3.4923455999999997,9.660996,-1
451,452,1580693117953,0.1095,-0.1648,0.0687,-0.20641848,-3.4310157,9.281564,-1
452,453,1580693117964,0.1935,-0.069,0.10759999599999999,-0.13542563,-3.3610284,9.356444,-1
453,454,1580693117974,0.505,0.0692,0.1969,0.2419676,-3.1695879000000002,9.463474,-1
454,455,1580693117984,0.80649996,0.30519998,0.3056,0.47566083,-2.9584669999999997,9.601256,-1
455,456,1580693117994,0.8192,0.3234,0.5214,0.45802036,-2.9780612,9.787956,-1
456,457,1580693118004,0.6989,0.2004,0.51,0.28798416,-3.1118972,9.728589999999999,-1
457,458,1580693118015,0.4364,0.024,0.3497,0.010515334,-3.2700292999999996,9.568418,-1
458,459,1580693118025,0.2607,-0.0453,0.15969999,-0.11331277,-3.2910983999999996,9.353677000000001,-1
459,460,1580693118035,0.3821,-0.0263,0.009099999000000001,0.044761993,-3.2199619999999998,9.280251,-1
460,461,1580693118046,0.51269996,0.088999994,0.19469999,0.15077725,-3.1335409,9.535779,-1
461,462,1580693118056,0.5843,0.1681,0.6168,0.21882047,-3.0628831,10.032616,-1
462,463,1580693118066,0.5854,0.2084,1.0781,0.18488024,-3.0239439999999997,10.495442,-1
463,464,1580693118076,0.51629996,0.1968,1.3716999,0.11346600000000001,-3.0998592,10.661888000000001,-1
464,465,1580693118086,0.4958,0.072299995,1.3693,0.10826580000000001,-3.2099729999999997,10.578301,-1
465,466,1580693118096,0.48479998,0.0029,1.3067,0.108840406,-3.2200767999999997,10.571214999999999,-1
466,467,1580693118106,0.5319,0.06,1.4104999,0.15826629999999997,-3.1258316,10.740839,-1
467,468,1580693118117,0.4994,0.067099996,1.5726999,0.021097707,-3.1405127,10.938715,-1
468,469,1580693118127,0.37759998,0.0831,1.7052,0.045997404000000006,-3.081194,11.050075,-1
469,470,1580693118137,0.4516,0.1383,1.8475,0.09314402,-2.9955964,11.330474,-1
470,471,1580693118147,0.4177,0.1554,2.2453,-0.012804191000000001,-3.0770376,11.8491535,-1
471,472,1580693118158,0.31689999,0.0667,2.781,-0.12768757,-3.0580084,12.384132000000001,-1
472,473,1580693118167,0.2226,0.0682,3.3372998,-0.18210298,-3.135351,12.88003,-1
473,474,1580693118178,0.08549999400000001,-0.0765,3.9824998,-0.44468945,-3.2551854,13.546671,-1
474,475,1580693118188,-0.2668,-0.1174,4.6361,-0.78934914,-3.180218,14.281232000000001,-1
475,476,1580693118198,-0.4078,0.0081,5.1489,-0.70589685,-2.9726696,14.822417000000002,-1
476,477,1580693118209,-0.2719,0.1204,5.5786,-0.7319361999999999,-2.9130251,14.990537,-1
477,478,1580693118219,-0.4183,0.1495,5.6308,-1.009539,-2.8255987,14.783803,-1
478,479,1580693118229,-0.66859996,0.1358,5.414,-1.2330233999999998,-2.7929895,14.913856,-1
479,480,1580693118239,-0.9242,0.105399996,5.5875998,-1.4371531000000002,-2.7697275,15.027935000000001,-1
480,481,1580693118249,-1.1101999,0.033299997000000005,5.6337,-1.5082608,-2.8488033,15.046735,-1
481,482,1580693118259,-1.2222998999999999,-0.14739999,5.7098,-1.5689203999999999,-2.8628428,15.291422,-1
482,483,1580693118270,-1.1954,-0.1529,6.031399700000001,-1.3424672,-2.760553,15.795717000000002,-1
483,484,1580693118280,-0.9921,-0.16239999,6.4016,-1.2894691,-2.7153313,16.017525,-1
484,485,1580693118291,-1.0052,-0.2155,6.5281997,-1.2253716000000001,-2.5952954,15.826391000000001,-1
485,486,1580693118301,-0.9105,-0.1653,6.246,-1.2302365,-2.5310256,15.540122,-1
486,487,1580693118311,-0.96669996,-0.21409999,5.9645,-1.3544382,-2.4117463,15.0233755,-1
487,488,1580693118321,-1.0581,-0.225,5.4564,-1.3002622,-2.2383487,14.113465,-1
488,489,1580693118331,-0.98969996,-0.1811,4.5154,-1.3230263,-2.0258583999999997,13.722559,-1
489,490,1580693118342,-1.0098,-0.059299998,4.045,-1.2134006000000002,-1.8134929,13.42653,-1
490,491,1580693118352,-0.7333,-0.1228,3.3536,-1.0598364,-1.7426533,13.030816,-1
491,492,1580693118362,-0.7333,-0.1228,3.3536,-0.8655901,-1.7969537,12.494056,-1
492,493,1580693118372,-0.5345,-0.3366,2.7898998,-1.0299950999999998,-1.8761731,11.859141000000001,-1
493,494,1580693118382,-0.8953,-0.7039,1.4333,-1.2115042999999999,-1.8391396,11.178968,-1
494,495,1580693118393,-0.8953,-0.7039,1.4333,-1.3233039,-1.8382009999999998,10.695914,-1
495,496,1580693118403,-1.2852,-0.9611,0.51949996,-1.6385916,-1.7830577,10.266758,-1
496,497,1580693118413,-1.5807999,-1.1891,0.3809,-1.9407686999999998,-1.8919077000000002,10.144683,-1
497,498,1580693118423,-1.8505,-1.3943,0.1472,-2.137658,-1.9560915,9.942995,-1
498,499,1580693118433,-2.0279,-1.4857999,-0.2602,-2.322165,-1.9380488,9.540616,-1
499,500,1580693118443,-2.0022,-1.423,-0.5476,-2.322893,-1.7312759999999998,9.198207,-1
500,501,1580693118454,-1.9942,-1.1697999,-0.8235,-2.3462987,-1.3093792,8.895598,-1
501,502,1580693118464,-1.8695998999999999,-0.7625,-1.0102,-2.1747777000000004,-0.8346283000000001,8.771407,-1
502,503,1580693118474,-1.4906,-0.35209998,-1.1771,-1.7337851999999998,-0.37783378,8.585224,-1
503,504,1580693118484,-0.7754,-0.11449999,-1.2455,-1.0515622,-0.13731226,8.550106,-1
504,505,1580693118494,0.0174,0.0011999999,-1.3626,-0.44949700000000004,-0.009346964000000001,8.440864,-1
505,506,1580693118504,0.4447,-0.0143,-1.7339,-0.04316267,0.05641697,8.066161,-1
506,507,1580693118515,0.39569998,-0.1716,-1.9576,-0.11879071,-0.08599973,7.844937,-1
507,508,1580693118525,0.3134,-0.4833,-2.191,-0.2299104,-0.37276763,7.618752000000001,-1
508,509,1580693118535,0.31489998,-0.63949996,-1.9444,-0.23715046,-0.47308469999999997,7.932163,-1
509,510,1580693118545,0.24100000000000002,-0.8093,-1.5119999999999998,-0.3652594,-0.6393380999999999,8.436860000000001,-1
510,511,1580693118555,-0.0252,-1.0826,-1.1676999,-0.76784927,-0.9043379,8.746441,-1
511,512,1580693118565,-0.5847,-1.462,-0.88159996,-1.2895936000000001,-1.2610357,8.921714999999999,-1
512,513,1580693118575,-0.92289996,-1.9113,-1.0453,-1.4851041,-1.5163246000000001,8.61316,-1
513,514,1580693118586,-0.98929995,-2.0518,-2.0605,-1.4044865,-1.4023893,7.1820974,-1
514,515,1580693118596,-0.4536,-1.8411,-3.3680000000000003,-0.59417385,-1.033644,5.9421787,-1
515,516,1580693118607,0.5717,-1.4653,-4.4978,0.5199057,-0.50488925,4.9447160000000006,-1
516,517,1580693118617,1.5261999,-1.16,-5.029,1.2030385000000001,-0.31201237,4.816521,-1
517,518,1580693118627,1.7107999,-1.321,-4.6587996,0.8944641999999999,-0.5620245,5.426783599999999,-1
518,519,1580693118637,1.1554999,-1.6665,-4.1127,0.25400564,-0.799242,5.890626999999999,-1
519,520,1580693118647,0.5122,-1.9267999,-3.714,-0.48718172,-0.9753116,6.1241283,-1
520,521,1580693118657,-0.29189998,-2.1343,-3.6287,-1.0982203000000001,-1.0452796999999998,6.0705276,-1
521,522,1580693118668,-0.9037,-2.2124999,-3.7686,-1.6710186999999999,-1.0929052,5.835407,-1
522,523,1580693118677,-1.2297,-2.3397,-3.9471998,-1.6747441000000003,-1.0490721,5.6342273,-1
523,524,1580693118687,-0.8172,-2.2728,-4.204,-0.67133415,-0.7321276999999999,5.3092093,-1
524,525,1580693118697,0.30339998,-1.9124,-4.4705,0.13882539,-0.3601071,5.1925254,-1
525,526,1580693118707,1.0426999,-1.4671999,-4.4728,0.72328836,0.13733141,5.277490599999999,-1
526,527,1580693118717,1.4143,-1.0519999,-4.3876,1.0558524999999999,0.65128994,5.2642370000000005,-1
527,528,1580693118727,1.6159999,-0.71599996,-4.3817,1.1004708,0.9418694,5.38185,-1
528,529,1580693118738,1.5555999,-0.4109,-4.1807,0.92063755,1.2260132,5.540833999999999,-1
529,530,1580693118747,1.3435999,-0.3466,-4.1275997,0.7364852,1.1928201,5.6071153,-1
530,531,1580693118757,1.0747,-0.4459,-3.8792998999999995,0.39918044,1.1076535,6.022739,-1
531,532,1580693118768,0.6446,-0.5388,-3.2694,-0.07799351,0.9802436,6.6525955,-1
532,533,1580693118778,0.35009998,-0.7267,-2.915,-0.2620119,0.7752329000000001,6.843653,-1
533,534,1580693118788,0.1865,-0.87079996,-2.7475,-0.44671974,0.7101298,7.0839925,-1
534,535,1580693118798,-0.0121,-0.92899996,-2.4622,-0.5917988000000001,0.7230106,7.340814,-1
535,536,1580693118808,-0.1228,-0.82369995,-2.2651,-0.49503472,0.92355853,7.497864,-1
536,537,1580693118818,0.2976,-0.51629996,-2.0284,0.28771599999999997,1.383456,7.7904353,-1
537,538,1580693118828,0.9411,-0.1108,-1.8506,0.9050273999999999,1.8367069999999999,7.788941400000001,-1
538,539,1580693118838,1.4662,0.28919998,-1.8691,1.3183625,2.0385766,7.9471407,-1
539,540,1580693118849,1.7696999,0.3638,-1.6041,1.3853042,2.0369582,8.235872,-1
540,541,1580693118859,1.6219999999999999,0.3259,-1.3592,0.9376843,1.8585517,8.44367,-1
541,542,1580693118869,0.9748,0.021599998999999998,-1.114,-0.017535133,1.3049453000000002,8.744994,-1
542,543,1580693118879,0.1832,-0.46449998,-0.8681,-0.82350004,1.0594341999999999,8.858728,-1
543,544,1580693118890,-0.5786,-0.664,-0.81729996,-1.166436,0.9604963,8.783685,-1
544,545,1580693118900,-0.858,-0.77199996,-0.8833,-1.1342195,1.0304261000000001,8.661014999999999,-1
545,546,1580693118910,-0.8084,-0.6766,-1.0274,-0.7868304,1.3735056,8.399214,-1
546,547,1580693118921,-0.5219,-0.3933,-1.25,-0.05958689,1.8276092000000002,8.334723,-1
547,548,1580693118931,0.1924,0.043899997999999996,-1.3166,0.6238524000000001,2.1501175999999997,8.595385,-1
548,549,1580693118941,1.0035,0.42369998,-0.96339995,1.1699985000000002,2.3636133999999998,9.119475,-1
549,550,1580693118951,1.4309,0.617,-0.45479998,1.2051071000000002,2.3820007000000003,9.582467,-1
550,551,1580693118961,1.4219998999999999,0.6171,-0.0742,0.92346275,2.1936827,9.907255000000001,-1
551,552,1580693118972,1.1363,0.43739998,0.2481,0.4694359,2.158842,9.955110000000001,-1
552,553,1580693118982,0.57989997,0.39679998,0.2678,-0.022179885,2.1012664,9.6410475,-1
553,554,1580693118992,0.1951,0.3277,-0.0149,-0.347504,2.0293252,9.6211195,-1
554,555,1580693119002,-0.15529999,0.24409999,-0.0321,-0.3750469,2.0130448,9.5132265,-1
555,556,1580693119012,-0.1511,0.1639,0.0334,-0.27467240000000004,1.9707824,9.725841,-1
556,557,1580693119022,-0.091699995,0.1149,0.2427,-0.20930111,1.9607172,9.888991,-1
557,558,1580693119033,0.1327,0.0986,0.2456,0.14952269,1.9632359000000001,9.851134,-1
558,559,1580693119043,0.4763,0.18429999,0.110599995,0.40799109999999994,2.0590613,9.747829,-1
559,560,1580693119053,0.6051,0.27539998,-0.0448,0.53517115,2.1787426,9.557319,-1
560,561,1580693119063,0.5721,0.3502,-0.2304,0.5050329000000001,2.2319803,9.408207,-1
561,562,1580693119073,0.5721,0.3502,-0.2304,0.3106333,2.2655373,9.418674000000001,-1
562,563,1580693119083,0.1969,0.359,-0.1321,0.06841671,2.2203732000000005,9.538931,-1
563,564,1580693119094,-0.1086,0.1857,0.17119999,-0.27336037,2.0177948,9.871236999999999,d
564,565,1580693119104,-0.49789998,-0.047599997000000005,0.4355,-0.6720906999999999,1.7780588,10.109096000000001,-1
565,566,1580693119114,-0.8258,-0.2778,0.52459997,-0.9479794,1.5668708999999998,10.149988,-1
566,567,1580693119124,-1.0476,-0.361,0.53709996,-1.0808575,1.5424788,10.146378,-1
567,568,1580693119134,-0.9008,-0.32799998,0.2774,-0.8313050999999999,1.6134812,9.785438000000001,-1
568,569,1580693119144,-0.4355,-0.2429,-0.3337,-0.16602352,1.7867161,9.133544,-1
569,570,1580693119155,0.0276,-0.13229999,-0.5045,0.19642988,1.8815456999999998,9.12934,-1
570,571,1580693119165,0.1832,0.0133,-0.25689998,0.26733655,2.0339606,9.444465,-1
571,572,1580693119175,-0.010199999,0.0647,0.3408,0.06960423,2.0819595,10.086111,-1
572,573,1580693119185,-0.18100000000000002,0.17,0.9474,-0.1846504,2.1746342,10.772654,-1
573,574,1580693119195,-0.46269998,0.124299996,1.4469,-0.47511497,2.0684848000000002,11.275215,-1
574,575,1580693119206,-0.775,0.0285,1.8507999,-0.6323757,2.0188484,11.43418,-1
575,576,1580693119216,-0.5765,0.0995,1.504,-0.09310571,2.2532215,10.755913,-1
576,577,1580693119226,0.25169998,0.3963,0.701,0.95490336,2.543169,10.106213,-1
577,578,1580693119236,1.2368,0.5099,0.33179998,1.8835471999999998,2.6538577,9.823544,-1
578,579,1580693119246,1.9111999,0.49139997,0.2661,2.7028525,2.7743146,10.109957000000001,-1
579,580,1580693119257,2.6262,0.6525,0.88409996,3.4879305,2.9101331000000004,11.006442,-1
580,581,1580693119269,3.2377,0.7305,1.8120999,3.7530167000000003,3.0376482000000005,11.843924000000001,-1
581,582,1580693119278,3.3048,0.87509996,2.5809,3.9521949999999997,3.198845,12.496077,-1
582,583,1580693119288,3.6666,1.0433,3.0569,4.5620556,3.4307760999999997,12.503116,-1
583,584,1580693119298,4.3697,1.1929,2.7575998,5.372397,3.382643,11.929378,-1
584,585,1580693119308,5.218,0.9007,2.1402,6.7102957,2.8717682,11.272389,-1
585,586,1580693119319,6.3985996,0.47100000000000003,1.7026,7.9431186,2.7584267000000002,11.372679,-1
586,587,1580693119329,7.5652,0.3698,1.9735999,9.003222000000001,2.8429327,12.0533695,-1
587,588,1580693119339,8.493899,0.3972,2.7647998,9.488536999999999,2.9232342,12.880326,-1
588,589,1580693119350,8.8012,0.47559997,3.4861998999999995,9.413263,3.1779485,12.6438465,-1
589,590,1580693119360,8.698299,0.6193,3.0298998,9.540511,3.0860302,11.713708,-1
590,591,1580693119371,8.8882,0.41329998,2.0734,9.652387,2.5606947,10.439744000000001,-1
591,592,1580693119381,9.005099000000001,-0.1226,1.0201,9.469269,1.9040032999999998,9.0825,-1
592,593,1580693119391,8.8593,-0.8538,-0.3242,9.216757000000001,1.4204511999999998,8.125882,-1
593,594,1580693119401,8.6475,-1.4131,-1.2541,9.146234,1.1439974,7.786192999999999,-1
594,595,1580693119411,8.5848,-1.8008,-1.6155,9.067015,1.0899267,7.6185985,-1
595,596,1580693119421,8.5451,-1.8836998999999999,-1.7247,8.93699,1.0549619,7.5050273,-1
596,597,1580693119431,8.4702,-1.9641998999999999,-1.8283,8.437750999999999,0.98297304,6.9930897,-1
597,598,1580693119442,8.029699,-2.0867,-2.3267,7.462467999999999,0.9776483,6.158222,-1
598,599,1580693119452,7.1235,-2.1282,-3.1494,6.7268834,0.8955655,5.618023,-1
599,600,1580693119462,5.4207997,-2.7008,-4.2966,5.5752435,0.48048756,4.996239,-1
600,601,1580693119472,4.7289,-3.0989999999999998,-5.2269,4.794293,0.12177868,4.045569,-1
601,602,1580693119483,4.1024,-3.5418,-6.2915998,3.9351193999999996,-0.40900627,2.7565787,-1
602,603,1580693119493,3.4406998,-4.0052,-7.5414996,3.1918634999999997,-0.7743519,1.4222611,-1
603,604,1580693119503,2.2849,-4.2581,-8.7044,1.8335370999999998,-0.98371047,0.42663717,-1
604,605,1580693119513,2.2849,-4.2581,-8.7044,0.7603698,-1.1065136999999998,0.43457633,-1
605,606,1580693119523,-1.178,-4.4905,-8.2293,-1.7821957999999998,-1.1740016000000002,1.1228136,-1
606,607,1580693119534,-2.9243999,-4.5748,-7.6805997,-3.549806,-1.3378226,1.5998726,-1
607,608,1580693119544,-4.2342,-4.7578,-7.7331,-4.805747,-1.5468458,1.462752,-1
608,609,1580693119554,-5.2007,-4.9245,-8.088799,-5.5890245,-1.721498,1.1698741000000001,-1
609,610,1580693119565,-6.2376,-5.2432,-8.7768,-6.8905606,-2.1360877,0.35283828,-1
610,611,1580693119575,-6.2376,-5.2432,-8.7768,-8.014045,-2.494088,-0.58445334,-1
611,612,1580693119585,-7.9733,-5.6646,-10.2135,-8.560803,-2.6059832999999997,-0.9017617,-1
612,613,1580693119595,-8.5952,-5.7548,-9.7633,-9.23682,-2.8060427000000003,-0.015667656000000002,-1
613,614,1580693119605,-9.622,-5.9624,-8.5178995,-10.487685,-3.1314433,1.4264558999999999,-1
614,615,1580693119617,-11.2499,-6.1224,-7.2110996,-12.221701,-3.4129536,2.5920587000000004,-1
615,616,1580693119626,-13.0033,-6.3342,-6.3192997,-13.723593,-3.7589445,3.4248672,-1
616,617,1580693119637,-13.9374,-6.4948997,-5.5759,-14.18914,-4.024787,4.240629,-1
617,618,1580693119647,-14.052898999999998,-6.6734,-4.2543,-14.094101,-4.4041147,5.9191655999999995,-1
618,619,1580693119657,-13.8966,-6.9217,-2.6279,-13.869898000000001,-4.8368425,7.6894765,-1
619,620,1580693119667,-13.869499,-6.9863,-1.5861,-13.923307000000001,-4.8966885,8.127357,-1
620,621,1580693119677,-14.0187,-6.8834995999999995,-1.5101999,-14.17965,-4.8352246,7.98495,-1
621,622,1580693119687,-14.0187,-6.8834995999999995,-1.5101999,-14.335772,-4.718454400000001,7.8288574,-1
622,623,1580693119697,-14.5715,-6.1042,-2.026,-14.385485000000001,-4.429119999999999,7.7515345,-1
623,624,1580693119708,-14.0799,-5.8279,-0.9931,-13.340357999999998,-4.373364,9.441448,-1
624,625,1580693119718,-12.570499,-5.7892,0.9334,-11.409309,-4.593429,11.801355000000001,-1
625,626,1580693119728,-11.3462,-5.7851,2.6776,-10.408916,-5.086500599999999,13.099597,-1
626,627,1580693119738,-10.694099000000001,-6.1082997,3.3672,-9.571894,-5.538947,13.034092,-1
627,628,1580693119748,-9.834499000000001,-6.3271,3.2559998,-8.746077,-5.582819000000001,13.00788,-1
628,629,1580693119759,-8.913199,-6.0221,3.1962,-7.970719,-5.1095233,13.043476,-1
629,630,1580693119769,-8.389299000000001,-5.3167995999999995,3.2953,-7.722545599999999,-4.6671133000000005,13.26179,-1
630,631,1580693119779,-8.0789995,-4.2843,3.7605,-7.053433,-3.73302,13.777204500000002,-1
631,632,1580693119789,-7.3009996,-3.6987,3.9749,-5.621585400000001,-4.1107774,13.816794,-1
632,633,1580693119799,-5.871299700000001,-4.0352,4.0460997,-4.836996,-4.8535066,14.014048,-1
633,634,1580693119810,-5.0673,-4.9000998,4.3463,-4.0168194999999995,-6.077068,14.156772,-1
634,635,1580693119820,-4.3908,-5.678499700000001,4.3455,-3.3400837999999995,-6.802415400000001,14.262959,-1
635,636,1580693119830,-3.8481,-6.1998997000000005,4.6611,-3.4632509,-7.258865400000001,15.3270855,-1
636,637,1580693119841,-4.0674,-6.4133,5.7738,-3.3255174,-7.2511077,16.23036,-1
637,638,1580693119851,-3.7498,-6.1426997000000005,6.6138,-1.8403845,-6.7730627000000005,16.626054999999997,-1
638,639,1580693119861,-1.9456999,-5.4695,6.9354,1.0296887,-6.19379,16.778833,-1
639,640,1580693119871,0.4861,-4.8206997000000005,7.071799799999999,2.2876885,-6.0207370000000004,16.879305,-1
640,641,1580693119881,1.9501,-4.499399700000001,7.2576,2.9478464,-6.061065,17.384039,-1
641,642,1580693119892,3.1641998,-5.0449,7.1461997,3.6009274,-6.7862115,16.797804,-1
642,643,1580693119903,2.9219,-5.4705997,6.6408997,3.3475822999999996,-7.296626600000001,16.27267,-1
643,644,1580693119913,3.069,-5.482,7.5193996,3.4602633000000003,-7.394070599999999,17.140196,-1
644,645,1580693119923,4.5204997,-4.7429,8.9978,4.8731103,-6.746496700000001,18.606253,-1
645,646,1580693119933,6.9256,-3.2279,10.0728,7.2239002999999995,-5.3060775,19.669804,-1
646,647,1580693119943,9.328,-2.08,9.8291,9.562863,-4.2249136,19.410845000000002,-1
647,648,1580693119953,10.6647,-1.6654999,7.8711996,10.967282,-3.797453,17.007603,-1
648,649,1580693119963,11.375299,-1.6268,5.789,11.450652,-3.7836719,15.368122,-1
649,650,1580693119974,11.892799,-1.6818999,4.3415,11.906232000000001,-3.7841603999999998,13.826898000000002,-1
650,651,1580693119984,11.9584,-1.4511,4.6307,11.888792,-3.5594117999999995,14.216558,-1
651,652,1580693119994,12.046599,-0.9752,5.9424,11.960818,-2.9878009999999997,15.742585,-1
652,653,1580693120005,12.412,-0.6089,6.312599700000001,12.212325,-2.6860356,15.9069605,-1
653,654,1580693120015,12.9612,-0.3488,5.218499700000001,12.8198,-2.3574362,14.489085999999999,-1
654,655,1580693120025,13.6556,-0.40109998,3.6506998999999998,13.471723,-2.4334092000000003,12.679348,-1
655,656,1580693120035,14.0791,-0.47579998,1.7677,13.811851999999998,-2.3917692,10.805981,-1
656,657,1580693120045,14.7912,-0.6174,-0.16489999,14.458134,-2.4346732999999996,8.927031,-1
657,658,1580693120055,15.4551,-0.5629,-1.3621,15.230542000000002,-2.3493056,7.974089599999999,-1
658,659,1580693120065,16.2572,-0.65489995,-2.0086,15.751644,-2.2841067,7.503849499999999,-1
659,660,1580693120076,15.8868,-0.364,-1.9559,14.921114999999999,-1.9593571,7.978409299999999,-1
660,661,1580693120086,15.0412,-0.39049998,-1.1927,14.159710999999998,-2.090588,8.7545805,-1
661,662,1580693120096,14.4976,-0.4208,-0.4759,13.700407,-2.0726988,9.463322,-1
662,663,1580693120106,14.149698999999998,-0.4103,0.20109999,13.439028,-2.0940741999999997,9.978056,-1
663,664,1580693120116,14.054,-0.47849998,0.21859999,13.411791000000001,-2.144793,9.804601,-1
664,665,1580693120126,14.040299,-0.5408,-0.29600000000000004,13.371569000000001,-2.1759079,9.226353999999999,-1
665,666,1580693120137,13.620199,-0.7212,-1.2343998999999999,12.8622265,-2.3889918,8.214257,-1
666,667,1580693120147,12.479899000000001,-1.2990999,-2.1933,10.794162,-3.3468833,7.040514,-1
667,668,1580693120157,10.5792,-2.1478999,-2.9947,8.917828,-4.092074,6.1639295,-1
668,669,1580693120167,8.7787,-2.8783,-3.7942998,8.246108999999999,-4.3695330000000006,5.8931837,-1
669,670,1580693120177,7.2921,-3.4938998,-4.0028,6.052149299999999,-5.1290309999999995,5.8637543,-1
670,671,1580693120188,6.1347,-3.6503,-3.6007,5.3007627,-5.142534700000001,6.348044,-1
671,672,1580693120198,5.202999999999999,-3.6778998,-2.9226,4.3751926,-5.142534700000001,7.00145,-1
672,673,1580693120208,4.2191,-3.4585,-2.3917,3.5570464,-4.8502316,7.553505400000001,-1
673,674,1580693120218,3.8207,-3.2419999,-1.8613,3.3590555,-4.7187795999999995,8.249566,-1
674,675,1580693120228,3.4726,-3.1355,-1.2329,2.9448106,-4.727035,8.535674,-1
675,676,1580693120238,2.8311,-3.197,-1.173,2.1134863,-5.0173559999999995,8.522601,-1
676,677,1580693120248,1.7801,-3.6411998,-1.0928,0.9912281999999999,-5.6539264000000005,8.823217,-1
677,678,1580693120259,0.48819998,-4.2334,-0.6299,-0.5328823,-6.029825700000001,9.405994999999999,-1
678,679,1580693120269,-1.3429999,-4.4242,-0.0699,-2.554048,-5.9155073,9.697503,-1
679,680,1580693120279,-3.6178,-4.0485,-0.1201,-4.624219,-5.157637,9.227742,-1
680,681,1580693120290,-5.58,-3.3344,-0.71099997,-5.852281,-4.6575937000000005,8.507019999999999,-1
681,682,1580693120300,-6.4245,-3.1093,-1.2404,-6.080803400000001,-4.70339,8.467611,-1
682,683,1580693120311,-6.7202997,-3.2459998,-0.9418,-6.273660700000001,-5.111046,9.994336,-1
683,684,1580693120321,-7.0747,-3.688,0.7245,-7.4987449999999995,-6.1404185,12.338681,-1
684,685,1580693120332,-10.1804,-5.3531,3.4738,-9.3708,-6.9877076,13.122955,-1
685,686,1580693120342,-11.8765,-5.4944997,3.1775,-11.024666999999999,-7.1535779999999995,12.8148775,-1
686,687,1580693120352,-12.4999,-4.9658,2.3976,-11.618323,-6.6349845,12.032511,-1
687,688,1580693120362,-11.399000000000001,-3.6109998,1.0471,-10.488997999999999,-5.2679043,10.680199,-1
688,689,1580693120372,-9.023399000000001,-2.0233,0.7168,-8.09448,-3.7051132000000004,10.3441105,-1
689,690,1580693120382,-6.7598,-0.9382,1.2619,-5.8254375,-2.63683,10.886187,-1
690,691,1580693120393,-5.502999999999999,-0.35099998,2.613,-4.559249400000001,-2.0902817,12.221241000000001,-1
691,692,1580693120403,-5.3334,-0.5068,3.5133997999999997,-4.3807764,-2.2830915000000003,13.127082000000001,-1
692,693,1580693120413,-5.9797997,-0.91889995,3.3323998,-5.323718,-2.8898206,12.807773,-1
693,694,1580693120423,-6.8839999999999995,-1.4814,2.9129999,-6.140907299999999,-3.4299622000000003,12.360134,-1
694,695,1580693120433,-7.3153,-1.7907,2.2166,-6.3796954,-3.6397612,11.523581,-1
695,696,1580693120443,-6.9701,-1.6888,1.1747999,-6.0472364,-3.5123034,10.780563,-1
696,697,1580693120454,-5.9853,-1.2860999,0.4068,-5.079979,-3.0997155,10.013241,-1
697,698,1580693120464,-4.7026,-0.91719997,0.12,-3.5916471,-2.659508,9.716455999999999,-1
698,699,1580693120474,-3.6717,-0.5509,0.1678,-2.6235662,-2.2956755,9.825842,-1
699,700,1580693120484,-2.8374999,-0.2773,0.5207,-1.8621718,-2.0790865000000003,10.214345,-1
700,701,1580693120494,-2.3388,-0.2474,0.8152,-1.4670231000000002,-2.108219,10.439917,-1
701,702,1580693120504,-2.2523,-0.3565,0.8251,-1.4355059,-2.22927,10.427341,-1
702,703,1580693120514,-2.1924999,-0.5255,0.8346,-1.4017188999999999,-2.3741574,10.443335000000001,-1
703,704,1580693120525,-2.0688999,-0.52739996,0.736,-1.2853607,-2.3561819,10.331383,-1
704,705,1580693120535,-1.8233999,-0.373,0.66639996,-1.0184264,-2.2075400000000003,10.2795725,-1
705,706,1580693120545,-1.4219998999999999,-0.16219999,0.6455,-0.5289271,-1.9015133000000002,10.185478999999999,-1
706,707,1580693120556,-0.8964,0.1513,0.39839998,0.011042058,-1.6266781000000001,9.856268,-1
707,708,1580693120566,-0.4121,0.33359998,0.0626,0.38226783,-1.5375851,9.570974,-1
708,709,1580693120576,-0.2519,0.27019998,-0.2634,0.34043634,-1.5980052,9.164899,-1
709,710,1580693120586,-0.3655,0.19849999,-0.6676,0.22347479,-1.7249553,8.855367999999999,-1
710,711,1580693120596,-0.39389998,0.0127,-0.8551,0.18744683,-1.904166,8.706275,-1
711,712,1580693120606,-0.4199,-0.0618,-0.8846,0.196382,-1.8950968000000001,8.852205999999999,-1
712,713,1580693120617,-0.3279,0.0050999997,-0.3832,0.32486445,-1.8361038,9.588625,-1
713,714,1580693120627,-0.2531,0.0953,0.5313,0.32419407,-1.7431511999999998,10.40612,-1
714,715,1580693120637,-0.188,0.2426,0.98459995,0.595821,-1.5549476999999998,10.519452000000001,-1
715,716,1580693120647,0.20719999,0.3942,0.7793,0.9968976999999999,-1.3965762,10.195936999999999,-1
716,717,1580693120657,0.77629995,0.6379,0.1704,1.6339853000000002,-1.1830038,9.303235,-1
717,718,1580693120667,1.1524,0.68149996,-0.5865,1.7649001,-1.2052219,8.78786,d
718,719,1580693120678,1.1261,0.6188,-0.93119997,1.5693226,-1.3127695,8.682447999999999,-1
719,720,1580693120688,0.81229997,0.4341,-0.77449995,1.1097508999999999,-1.5883708,9.114381,-1
720,721,1580693120698,0.4319,0.2341,-0.34199998,0.87075204,-1.7519715,9.392089,-1
721,722,1580693120709,0.1695,0.0037999998,-0.0954,0.5654720999999999,-1.9828587,9.714692999999999,-1
722,723,1580693120719,-0.0703,-0.1206,0.2197,0.48579308,-2.0911436,9.914216999999999,-1
723,724,1580693120729,-0.0771,-0.1689,0.2895,0.5579639,-2.0233302,9.882882,-1
724,725,1580693120740,0.117599994,-0.041899998,0.2214,1.0957112,-1.7796101999999998,9.650002,-1
725,726,1580693120750,0.5981,0.1856,-0.0232,1.5390791000000001,-1.5569972,9.442291,-1
726,727,1580693120760,1.0998,0.4172,-0.2091,1.7793708,-1.4573121999999998,9.439858000000001,-1
727,728,1580693120770,1.155,0.44689998,-0.0805,1.6236709999999999,-1.5043440000000001,9.675735000000001,-1
728,729,1580693120780,1.0419999,0.4192,0.0973,1.4676934,-1.5946245000000001,9.845867,-1
729,730,1580693120790,0.8429,0.31,0.2556,1.0147872,-1.7527664,9.898117999999998,-1
730,731,1580693120801,0.3594,0.1363,0.2759,0.5744265000000001,-1.9747375,9.826609,-1
731,732,1580693120811,-0.051599998,-0.08109999400000001,0.2074,0.3103843,-2.1272962000000004,9.732515,-1
732,733,1580693120821,-0.2556,-0.1918,0.12889999,0.29081887,-2.1568117,9.773524,-1
733,734,1580693120831,-0.28779998,-0.21229999,0.1779,0.40079895,-2.0752077,9.748586,-1
734,735,1580693120841,-0.1173,-0.1135,0.1092,0.6425846,-1.9913724999999998,9.58895,-1
735,736,1580693120851,0.1273,-0.0442,-0.0677,0.5829785,-2.0089076,9.255744,-1
736,737,1580693120862,-0.109799996,-0.1608,-0.8731,0.4304295999999999,-2.1038425,8.74034,-1
737,738,1580693120872,-0.1696,-0.2224,-1.0983,0.33868378,-2.1686582999999997,8.507058,-1
738,739,1580693120882,-0.2672,-0.3039,-0.7919,0.22255541,-2.2607298,8.818889,-1
739,740,1580693120892,-0.2672,-0.3039,-0.7919,-0.08486009,-2.3610086,9.603727000000001,-1
740,741,1580693120902,-0.9801,-0.5893,0.8545,-0.53384954,-2.6029186,10.450145,-1
741,742,1580693120915,-1.1876999,-0.5955,1.0828999,-0.7408905,-2.6186437999999996,10.711841,-1
742,743,1580693120925,-1.2236999,-0.47259998,1.1235,-0.71895003,-2.445859,10.698845,-1
743,744,1580693120935,-1.0672,-0.3321,1.0948,-0.5750489000000001,-2.3443544,10.690934,-1
744,745,1580693120945,-0.8788,-0.2559,1.0174,-0.43188524,-2.2946508,10.606831,-1
745,746,1580693120955,-0.98289996,-0.23179999,1.1173999,-0.68790203,-2.26706,10.883341999999999,-1
746,747,1580693120966,-1.2694,-0.1618,1.6895,-0.93406427,-2.2117922,11.581089,-1
747,748,1580693120976,-1.4613999,-0.0495,2.4782,-1.1563038,-2.1246912,12.231632000000001,-1
748,749,1580693120986,-1.8884,0.067999996,3.2763,-1.6924419999999998,-2.0620781999999998,13.142884,-1
749,750,1580693120997,-2.3455,-0.058599997,3.9454,-2.1783595,-2.275363,13.7751255,-1
750,751,1580693121007,-2.8195,-0.196,4.4456,-2.6235566,-2.3431861,14.095479999999998,-1
751,752,1580693121018,-3.1257,-0.2653,4.6787,-2.83281,-2.3786009999999997,14.449295000000001,-1
752,753,1580693121028,-3.2168,-0.28129998,4.9888,-2.8861717999999996,-2.3429465,14.728909,-1
753,754,1580693121038,-3.1961,-0.22199999,5.2388,-2.755477,-2.24579,15.047279999999999,-1
754,755,1580693121048,-2.9277,-0.1688,5.612,-2.5795128,-2.1881375,15.43946,-1
755,756,1580693121059,-2.8422,-0.1407,5.9328,-2.6090574,-2.2722027000000002,15.608825,-1
756,757,1580693121069,-2.8941998,-0.4143,6.0315,-2.8530168999999996,-2.652469,15.602601000000002,-1
757,758,1580693121079,-3.2559,-0.76309997,5.9115996,-3.6380184,-2.9556706000000004,15.168349,-1
758,759,1580693121089,-3.9227998,-1.1628,5.4252996,-4.1850166,-3.2123866000000003,14.554927,-1
759,760,1580693121099,-4.3631997,-1.4056,4.7304,-4.146039,-2.8111088,13.6716585,-1
760,761,1580693121109,-4.1366997,-1.0144,3.8184998,-3.4027543,-2.1171349999999998,12.824110000000001,-1
761,762,1580693121120,-3.3023998999999997,-0.45119998,2.9952998,-2.63163,-1.5277976,12.198353,-1
762,763,1580693121130,-2.5231,0.0067999995999999995,2.3406,-2.1090044999999997,-1.1290958999999998,11.329725999999999,-1
763,764,1580693121140,-2.0126,0.2549,1.4333,-1.8289403000000002,-0.95641655,10.758001,-1
764,765,1580693121150,-1.6344999,0.3673,0.84279996,-1.5396345,-0.90750784,10.300708,-1
765,766,1580693121160,-1.3449999,0.2498,0.5009,-1.6914460999999998,-0.9125068999999999,10.187826,-1
766,767,1580693121171,-1.4742,0.2039,0.46589997,-2.0484023000000002,-0.96310115,10.785237,-1
767,768,1580693121180,-1.7680999,0.048299998,1.2859,-2.2640147,-1.0428952,11.979092,-1
768,769,1580693121190,-1.9497,-0.0611,2.7919,-2.3732952999999997,-0.8947132,13.264289000000002,-1
769,770,1580693121200,-1.9097998999999999,0.0019999999,3.5398998,-2.0301874,-0.9765278000000001,13.004767,-1
770,771,1580693121210,-1.5272,-0.1977,3.0389,-1.5874419,-0.8377503000000001,11.929492999999999,-1
771,772,1580693121221,-1.1193,-0.1815,1.9094,-1.240005,-0.62753946,10.830036999999999,-1
772,773,1580693121231,-0.81119996,-0.0911,0.86079997,-1.1062743999999998,-0.3313192,10.273242,-1
773,774,1580693121241,-0.7025,0.17379999,0.336,-0.94194597,0.03507984,10.11624,-1
774,775,1580693121251,-0.491,0.2572,0.3442,-0.6289471999999999,0.042521022,10.36335,-1
775,776,1580693121261,-0.1629,0.1417,0.5603,-0.28704563,-0.088958964,10.240689999999999,-1
776,777,1580693121272,0.2162,-0.0585,0.4339,0.03502238,-0.13713029,10.021362,-1
777,778,1580693121282,0.528,-0.2042,0.21939999,0.37940437,-0.067593105,9.705422,-1
778,779,1580693121292,1.4689,0.1541,-0.74829996,0.97874963,0.44311884,9.059191,-1
779,780,1580693121303,1.8706,0.2731,-0.73609996,1.3962027,0.6761896,9.088658,-1
780,781,1580693121313,1.6597998999999999,0.2884,-0.65489995,1.1307718999999998,0.7119302,9.1374035,-1
781,782,1580693121324,1.3582,-0.0092,-0.74009997,0.82872903,0.42166679999999995,9.039691,-1
782,783,1580693121334,0.99289995,-0.5135,-0.6486,0.39646065,-0.045106757000000004,9.176803,-1
783,784,1580693121344,0.42569998,-0.9719,-0.46879998,-0.22514114,-0.4441819,9.385433,-1
784,785,1580693121355,0.115499996,-1.2439,-0.4651,-0.35755008,-0.6163154000000001,9.25109,-1
785,786,1580693121365,0.5221,-1.1874,-0.755,0.091573425,-0.4096862,8.936387,-1
786,787,1580693121375,1.0777,-0.8706,-1.1815,0.7660488,-0.05956774,8.393104,-1
787,788,1580693121385,1.7412,-0.745,-1.7837,1.4338203999999999,0.19508913,7.6704479999999995,-1
788,789,1580693121395,2.2725,-0.5079,-2.6204998,1.7603607,0.4155281,6.9732656,-1
789,790,1580693121406,2.4875,-0.5259,-3.2512,1.975542,0.4098585999999999,6.4384584,-1
790,791,1580693121416,2.6933,-0.7619,-3.2544,2.0546176,0.28018862,6.479026,-1
791,792,1580693121426,2.5293999,-0.8035,-3.4148998,1.8622387999999999,0.17939274,6.2154145,-1
792,793,1580693121436,2.4315999,-0.99549997,-3.5556997999999997,1.7513584999999998,0.15063359,6.190371,-1
793,794,1580693121447,2.3569,-0.955,-3.5008,1.7222642,0.22142535,6.2303543,-1
794,795,1580693121457,2.3876998,-0.98039997,-3.5147998,1.6584443,0.12266932,6.2022276,-1
795,796,1580693121467,2.1568,-1.2127,-3.4701,1.1698741000000001,-0.1550868,6.3492217,-1
796,797,1580693121477,1.6032,-1.5446,-3.3177998,0.62294257,-0.41479066,6.2175694,-1
797,798,1580693121487,1.2106999,-1.7317,-3.7343,0.59297675,-0.47522029999999993,5.6883264,-1
798,799,1580693121498,1.5601,-1.7394999,-4.3663,1.1673458,-0.25697446,5.0938463,-1
799,800,1580693121508,2.0516,-1.5365,-4.7244997,1.5548806999999998,-0.16439547,4.879114599999999,-1
800,801,1580693121518,2.3416,-1.5113,-4.8290997,1.5425075000000001,-0.23172042,4.9877067,-1
801,802,1580693121528,2.2422,-1.5985,-4.4941998,1.3646472,-0.29394093,5.5289583,-1
802,803,1580693121538,2.0685,-1.5912,-3.9062997999999998,1.1448498,-0.27031493,6.309392,-1
803,804,1580693121548,1.8393999,-1.6244999,-3.0456998,0.753551,-0.39451656,7.120777,-1
804,805,1580693121559,1.2373999,-1.7205,-2.3137,0.05838979,-0.5359755999999999,7.77065,-1
805,806,1580693121569,0.55759996,-1.8493998999999999,-1.6309999,-0.36771107,-0.57257813,8.471758,-1
806,807,1580693121579,0.39429998,-1.7858,-1.0655999,-0.063838996,-0.320258,8.660239,-1
807,808,1580693121589,0.87039995,-1.4542999,-1.1952,0.65805113,0.23671952,8.106652,-1
808,809,1580693121599,1.3598,-1.0222,-1.6373999,1.2449561000000002,0.5688526999999999,7.7322755,-1
809,810,1580693121609,1.9782,-0.6899,-2.0497,1.5428523,0.7293983,7.4803863,-1
810,811,1580693121620,2.1081998,-0.6088,-2.2171,1.2868643,0.5241960999999999,7.819961,-1
811,812,1580693121630,1.7764,-0.8835,-1.7677,0.92326164,0.15069106,8.54573,-1
812,813,1580693121640,1.3881999,-1.214,-0.9856,0.6501406999999999,-0.034466926,9.50274,-1
813,814,1580693121650,1.1086,-1.3406999,-0.076,0.41915768,0.037110128,9.8743105,-1
814,815,1580693121661,0.7782,-1.2484,0.1873,0.23036051,0.24362439,10.005082000000002,-1
815,816,1580693121671,0.6529,-1.0527999,0.26549998,0.45628697,0.5912242,9.675774,-1
816,817,1580693121681,0.8262,-0.7614,-0.0376,0.6204334,0.89274997,9.401561000000001,-1
817,818,1580693121691,1.0311999,-0.40219998,-0.34019998,0.69329375,1.0590128,9.200955,-1
818,819,1580693121701,1.0251,-0.2983,-0.564,0.60542655,1.0632553999999999,9.113835,-1
819,820,1580693121712,0.95309997,-0.3405,-0.5918,0.39856753,1.0393611999999999,9.26581,-1
820,821,1580693121722,0.67719996,-0.40129998,-0.1478,0.32926977,1.0098839,9.561244,-1
821,822,1580693121732,0.67719996,-0.40129998,-0.1478,0.34670913,1.1615517,9.693615,-1
822,823,1580693121742,0.6787,-0.26,-0.0089,0.44358809999999993,1.3194925,9.580197,-1
823,824,1580693121753,0.6012,-0.076,-0.2583,0.3394882,1.3998898000000002,9.4482565,-1
824,825,1580693121762,0.4858,-0.083299994,-0.4807,0.26172456,1.4263027,9.219534,-1
825,826,1580693121772,0.4858,-0.083299994,-0.4807,0.27198133,1.3213887,9.165291,-1
826,827,1580693121782,0.3647,-0.15349999,-0.3507,0.17576315,1.3787825,9.34183,-1
827,828,1580693121792,0.396,0.0492,0.0405,0.2095118,1.5631552,9.737055999999999,-1
828,829,1580693121803,0.6064,0.3926,0.43129998,0.45723507,1.9661089,10.189685,-1
829,830,1580693121813,0.78529996,0.6156,0.7048,0.59516025,2.1401193,10.445012,-1
830,831,1580693121823,0.70559996,0.5476,0.8322,0.44556093,2.0152953,10.521137,-1
831,832,1580693121833,0.3839,0.35209998,0.5883,0.14875655,1.815073,10.203935000000001,-1
832,833,1580693121843,0.1818,0.1661,0.2183,-0.024938006000000002,1.6949990000000001,9.852628,-1
833,834,1580693121854,0.1495,0.122099996,-0.16059999,-0.02192131,1.6778468999999998,9.457604,-1
834,835,1580693121864,0.1061,0.1369,-0.5493,-0.056780885999999996,1.731343,9.065061,-1
835,836,1580693121874,0.038599997999999996,0.2175,-0.72319996,-0.1485267,1.8746791,9.006402,-1
836,837,1580693121884,-0.0104,0.35889998,-0.5458,-0.109855555,1.9875418000000002,9.200094,d
837,838,1580693121894,0.074099995,0.5107,-0.1642,-0.042032602999999995,2.130763,9.631596,-1
838,839,1580693121904,0.1007,0.5403,0.4224,0.018521543999999997,2.1221917,10.227953,-1
839,840,1580693121914,0.0449,0.5002,0.98969996,-0.10780612,2.0824575000000003,10.808365,-1
840,841,1580693121924,-0.22479999,0.39399999999999996,1.4993,-0.3313288,1.9242773000000002,11.219832,-1
841,842,1580693121934,-0.3202,0.1372,1.4420998999999999,-0.37762308,1.7292743999999998,11.137405000000001,-1
842,843,1580693121944,-0.21319999,0.0313,0.9758,-0.17318699,1.6262566999999999,10.612136,-1
843,844,1580693121954,-0.037499998,-0.0231,0.7758,0.19982007,1.6626678,10.350191,-1
844,845,1580693121965,0.47509998,0.052899998,0.6344,0.81754327,1.7939657,10.341199000000001,-1
845,846,1580693121974,0.92029995,0.20799999,0.85429996,1.101352,1.9349459999999998,10.603,-1
846,847,1580693121984,0.92029995,0.20799999,0.85429996,1.3837911,2.0433075,11.103082,-1
847,848,1580693121994,1.7421999,0.38149998,1.9750999,2.0244317,2.1046758,11.836694,-1
848,849,1580693122005,2.2593,0.37539998,2.6629999,2.6539822,2.1991796000000003,12.5040245,-1
849,850,1580693122015,3.0971,0.629,3.2637,3.531074,2.4193217999999996,13.027033,-1
850,851,1580693122026,4.1446,0.8387,3.8162,4.680549,2.680328,13.61299,-1
851,852,1580693122036,4.7827,0.9747,4.0457997,5.030093,2.7455267999999995,13.696577,-1
852,853,1580693122046,5.0498,0.95589995,3.9039,5.3383517,2.7031492999999998,13.512022,-1
853,854,1580693122056,5.402199700000001,0.62979996,3.6176,5.942658,2.346308,13.065484,-1
854,855,1580693122067,6.2468996,0.2285,3.188,6.9173274000000005,2.004531,12.744029,-1
855,856,1580693122077,7.1429996,-0.20279999,3.1929,7.769539,1.4942978999999998,13.003186999999999,-1
856,857,1580693122088,7.4846997,-0.6949,3.5814998,7.8447356,1.2727864,13.271587,-1
857,858,1580693122097,7.4523997,-1.0286,4.029,7.7987766,0.997616,13.717770999999999,-1
858,859,1580693122107,7.2874,-1.2551999,4.0843997000000005,7.589294000000001,0.93379617,13.382074,-1
859,860,1580693122117,7.2826,-1.2832,3.2786998999999994,7.997917,1.0061777,12.295164,-1
860,861,1580693122127,7.8300996,-1.2603999,2.4656,8.503917,1.1697398,11.664158,-1
861,862,1580693122137,8.2198,-1.1939,2.0372,8.678301,1.2643013,11.436200999999999,-1
862,863,1580693122147,8.2771,-1.2583,1.8851,8.671014,1.2833974,11.166451,-1
863,864,1580693122158,8.243,-1.3457999,1.5189999,8.51404,1.1629691,10.566196000000001,-1
864,865,1580693122168,7.946799799999999,-1.6917,0.81119996,8.094126,0.86465156,9.851872,-1
865,866,1580693122178,7.3394,-2.1687,-0.2085,7.2846746,0.52406204,8.502777,-1
866,867,1580693122188,6.6864,-2.4840999,-1.2939999,6.5332975,0.36281732,7.556857000000001,-1
867,868,1580693122198,5.8557997,-2.7537,-2.0828,5.5624676,0.20237708,6.6736555,-1
868,869,1580693122208,4.928499700000001,-2.9847,-3.0855,4.679582,0.1465443,5.468165,-1
869,870,1580693122219,4.239,-3.1657999,-4.2439,4.1499653,0.09506896,4.3537693,-1
870,871,1580693122229,3.8711,-3.3128,-5.3924,3.8124886,0.011932701,2.9856365,-1
871,872,1580693122239,3.3799998999999996,-3.4938998,-6.6589,2.9618860000000002,-0.09180327,2.1051161,-1
872,873,1580693122249,2.3592,-3.7503,-7.1348,1.7274932,-0.40096176,1.9565895,-1
873,874,1580693122259,1.0806,-4.1631,-7.2156,0.028031313999999998,-0.8021246,1.6948553,-1
874,875,1580693122269,-0.2855,-4.5189,-7.4891996,-1.4751443000000002,-0.95541096,1.1842104,-1
875,876,1580693122279,-1.7472999,-4.6386,-8.0118,-2.7245154,-0.68942475,0.6134805999999999,-1
876,877,1580693122290,-2.8204,-4.3875,-8.5528,-3.4091324999999997,-0.32824504,0.051580682,-1
877,878,1580693122300,-3.4297998,-4.039,-9.1015,-4.0159764,0.14158352,-0.7730303000000001,-1
878,879,1580693122310,-4.0246,-3.6014,-10.0428,-4.6010237,0.42265323,-2.1133428,-1
879,880,1580693122320,-4.6319,-3.4196,-11.389899,-5.281494,0.21914607,-3.3020157999999995,-1
880,881,1580693122330,-5.252000000000001,-3.7224998,-12.5377,-5.9340285999999995,-0.3764068,-4.146317,-1
881,882,1580693122340,-5.9979,-4.3293,-13.2232,-7.038359,-1.1707263,-3.9407697,-1
882,883,1580693122351,-7.207000000000001,-5.0866,-12.811399,-9.11938,-2.3586237,-2.4603965,-1
883,884,1580693122361,-9.035399,-6.0397,-11.538799000000001,-11.733694999999999,-3.3935032,-0.98634404,-1
884,885,1580693122371,-11.6777,-6.9624996,-10.1008,-13.822722,-4.0256870000000005,0.3937025,-1
885,886,1580693122381,-14.216,-7.561899700000001,-8.4173,-15.300509,-4.431303,2.1300926,-1
886,887,1580693122391,-15.474098999999999,-7.7556,-6.7398,-16.001072,-4.5192857,4.4461856,-1
887,888,1580693122402,-16.0091,-7.6133,-4.857199700000001,-15.854346,-4.491867,5.979289,-1
888,889,1580693122412,-15.9129,-7.4266,-3.3845,-15.089619,-4.340745,6.7609577000000005,-1
889,890,1580693122422,-15.2182,-6.8241997,-2.1255,-15.093803,-4.255186,7.337424,-1
890,891,1580693122433,-15.656699,-6.6247,-1.476,-15.506592999999999,-4.237181700000001,8.042985,-1
891,892,1580693122443,-15.985498999999999,-6.4551,-0.1555,-15.801626,-4.2437797,9.411033,-1
892,893,1580693122453,-15.985498999999999,-6.4551,-0.1555,-15.676160000000001,-4.4377394,10.837008,-1
893,894,1580693122463,-15.8264,-6.5389,1.5218999,-14.657169,-4.749675,12.10041,-1
894,895,1580693122473,-13.7182,-6.2971,3.2624998,-13.307116500000001,-4.6269765,12.9219,-1
895,896,1580693122483,-12.3165,-5.7051,4.4605,-11.832135000000001,-4.2301807,14.148985,-1
896,897,1580693122493,-10.2809,-4.9343,5.9249997,-9.748519,-3.6582922999999994,15.642123999999999,-1
897,898,1580693122504,-8.4327,-4.1953998,7.450999700000001,-7.871867,-3.1244428,17.19443,-1
898,899,1580693122514,-6.9683,-3.8883997999999997,8.8923,-6.38705,-3.0265775,18.647057999999998,-1
899,900,1580693122524,-6.3887,-4.0859,9.9366,-5.758246400000001,-3.5403826,19.840147,-1
900,901,1580693122535,-6.2714,-4.5838,10.231,-5.591189,-4.384568700000001,19.882322,-1
901,902,1580693122545,-6.0200996,-5.1007,9.7353,-5.303971,-4.8290663,19.392143,-1
902,903,1580693122555,-5.2229,-5.2207,9.0071,-3.9764051,-4.989765,18.420864,-1
903,904,1580693122565,-3.5632,-5.1422,8.006,-2.1464592999999996,-5.077000599999999,17.418182,-1
904,905,1580693122575,-1.6061,-5.2215,7.5051,-0.5659702,-5.1808515,17.440228,-1
905,906,1580693122585,-1.6061,-5.2215,7.5051,2.0165691000000003,-4.9841914,19.391972,-1
906,907,1580693122596,2.7932,-4.6129,10.7612,4.273640599999999,-4.630050700000001,21.229789999999998,-1
907,908,1580693122606,4.5952,-4.0839,12.165,5.724776,-4.224501999999999,22.15121,-1
908,909,1580693122616,5.6249,-3.6892998,12.1265,6.2418947,-4.0522823,21.916264,-1
909,910,1580693122626,6.1024,-3.4108998999999995,10.3309,6.816847999999999,-3.7874260000000004,19.247715,-1
910,911,1580693122636,6.6278996,-3.3532998999999997,8.2591,7.2813134,-3.7777339999999997,17.687798,-1
911,912,1580693122646,7.7145996,-3.3601,6.3536,8.804246000000001,-3.6515887000000005,15.408555999999999,-1
912,913,1580693122656,9.4423,-2.9143,4.6640997,10.71298,-2.9588982999999995,14.074304999999999,-1
913,914,1580693122667,11.592999,-2.0807,3.9854998999999998,12.015234,-2.4046116,13.782960000000001,-1
914,915,1580693122677,13.6395,-1.2981,3.5821998,14.709812,-1.3120321000000001,13.235357,-1
915,916,1580693122687,15.0904,-0.68939996,3.2867,15.928068,-0.8034749,13.030462,-1
916,917,1580693122697,16.123998999999998,-0.38189998,3.148,16.708406,-0.5460791,12.885354,-1
917,918,1580693122707,16.621899,-0.089499995,2.9308999,17.23241,-0.13173856,12.740457000000001,-1
918,919,1580693122717,17.110899,0.32569999,3.0377998,17.582298,0.29174784,13.075991,-1
919,920,1580693122727,17.5532,0.83949995,3.6058,17.907488,0.8366969000000001,13.482669,-1
920,921,1580693122738,17.5979,1.1776999,3.4875,17.74043,1.1107947,12.753855999999999,-1
921,922,1580693122748,17.2873,1.2937,2.4768,17.485497,1.134028,11.806221,-1
922,923,1580693122758,17.0767,1.1036,1.2116,17.38516,1.0227549999999999,10.072494,-1
923,924,1580693122768,17.0042,0.9715,-0.4156,17.341652,0.99214756,8.7000885,-1
924,925,1580693122778,16.9502,0.80179995,-1.8951999,17.178387,0.956407,7.3260369999999995,-1
925,926,1580693122788,16.5702,0.7933,-2.6782,16.34894,1.0656208999999999,7.042754700000001,-1
926,927,1580693122798,15.4494,0.7443,-2.6963,15.153229000000001,0.8739601999999999,7.2572465,-1
927,928,1580693122809,13.6221,0.23600000000000002,-2.3026,12.831723,0.20495325,7.595250599999999,-1
928,929,1580693122819,11.678599,-0.392,-2.2514,10.724166,-0.5752404999999999,7.1945186,-1
929,930,1580693122829,9.9885,-1.0993998999999999,-2.7482998,9.35609,-1.1912398000000002,6.335527,-1
930,931,1580693122839,8.7232,-1.7665,-3.6559,8.588931,-1.651166,5.36871,-1
931,932,1580693122849,8.0053,-2.2770998,-4.611799700000001,8.131973,-1.9569439,4.679295,-1
932,933,1580693122859,7.3219,-2.7287,-5.3424997,7.3318977,-2.4078197,4.131865,-1
933,934,1580693122869,6.4094,-3.2612,-5.8192997,6.053978400000001,-3.0072036,3.7264120000000003,-1
934,935,1580693122880,5.2535,-3.7561,-6.0520000000000005,4.8893523000000005,-3.3996134,3.9581419999999996,-1
935,936,1580693122890,4.1307,-4.1347,-5.707000000000001,4.044285299999999,-3.6871471,4.7986699999999995,-1
936,937,1580693122900,3.3019,-4.3985,-4.7545,3.2687461,-3.8532949999999997,5.9874480000000005,-1
937,938,1580693122910,2.4703999,-4.5257998,-3.5760998999999996,2.551472,-3.9901,6.8437967,-1
938,939,1580693122920,1.709,-4.5951,-2.8674998,1.9670091,-3.8726114999999997,6.779661,-1
939,940,1580693122930,1.1331999,-4.427,-3.0895998,1.7721595,-3.5764199999999997,6.2871833,-1
940,941,1580693122941,0.91899997,-4.0924997,-3.7812997999999998,1.5142752,-3.4619966,5.3952475,-1
941,942,1580693122951,0.5122,-4.1105,-4.5599,0.5133073,-3.7617983999999995,4.3150887,-1
942,943,1580693122961,-0.76299995,-4.5165997,-5.6607,-1.2869601000000002,-4.4883904,3.2931763999999997,-1
943,944,1580693122971,-2.6687999,-5.2918997,-6.5745997,-3.1364810000000003,-5.26575,2.8325992,-1
944,945,1580693122981,-4.5478997,-6.0209,-6.9593,-5.0720205,-5.917557,3.101334,-1
945,946,1580693122991,-6.2117,-6.5115,-6.6306996,-6.802425,-6.441763,4.630989,-1
946,947,1580693123002,-8.0046,-6.9637,-5.0983996,-8.7394495,-6.7040424,6.726414,-1
947,948,1580693123012,-11.4206,-7.4486,-1.6484,-10.090133,-7.140372,8.071774000000001,-1
948,949,1580693123022,-11.4206,-7.4486,-1.6484,-11.216806,-7.4130516,8.824309,-1
949,950,1580693123032,-13.6158,-7.7078,-0.1986,-12.126536,-7.6072598,9.501543,-1
950,951,1580693123042,-13.6158,-7.7078,-0.1986,-12.921708,-7.524813000000001,10.268099000000001,-1
951,952,1580693123054,-14.471499,-7.5060997,0.5753,-13.895860999999998,-7.403111,10.65982,-1
952,953,1580693123064,-15.4794,-7.2661996,0.9745,-14.781993,-7.390058,10.614386999999999,-1
953,954,1580693123074,-16.5178,-6.9781,0.7716,-14.892269,-7.4054575,10.369163499999999,-1
954,955,1580693123085,-16.6083,-7.0407,0.6759,-15.060506,-7.6120577,10.409213000000001,-1
955,956,1580693123095,-16.9711,-7.124399700000001,0.9279999999999999,-15.259281,-7.816675699999999,10.541536,-1
956,957,1580693123105,-16.875999999999998,-7.1468,0.9069,-14.882731,-7.814512,10.674854,-1
957,958,1580693123115,-16.116498999999997,-6.7149997,1.6219999999999999,-13.725614000000002,-7.3251367,11.702436,-1
958,959,1580693123125,-14.5301,-5.7131,2.6825,-12.332993,-6.588288,12.393028999999999,-1
959,960,1580693123135,-12.727699000000001,-4.5775,3.1957998,-10.151684,-5.485317,12.964678999999999,-1
960,961,1580693123146,-10.7933,-3.8772998,3.6618,-8.149163,-5.2861485,13.316320000000001,-1
961,962,1580693123156,-9.1262,-3.862,3.9829998,-6.8787327000000005,-5.61289,13.590264000000001,-1
962,963,1580693123166,-8.4444,-4.2599,4.1688,-6.4830765999999995,-6.322617,13.71981,-1
963,964,1580693123176,-8.3626995,-5.0583,4.4735,-6.489014599999999,-7.31849,14.062344,-1
964,965,1580693123186,-8.243899,-5.9365,4.7198,-6.087986,-8.400124,14.20249,-1
965,966,1580693123197,-7.679199700000001,-6.3381,5.0334,-5.3296556,-8.398936,14.867857999999998,-1
966,967,1580693123207,-5.9175997,-5.7328997,6.4556,-2.9763088,-7.711896,16.503595,-1
967,968,1580693123217,-3.194,-4.7415,8.2221,-0.15967411,-6.668694500000001,18.401184,-1
968,969,1580693123227,-1.1305,-3.6773998999999997,9.476299000000001,1.3973038999999998,-5.939497,18.955633,-1
969,970,1580693123237,0.2306,-2.9468,9.5175,2.3047066000000003,-5.566318,18.092398,-1
970,971,1580693123248,1.1931,-2.5719,8.097199,3.15687,-5.339041,16.097711999999998,-1
971,972,1580693123258,2.122,-2.2712998,6.0007,3.7628421999999997,-5.1456947,14.187349,-1
972,973,1580693123268,2.7048,-2.1364,4.223,4.0846615,-5.20284,12.436728500000001,-1
973,974,1580693123278,3.1408,-2.1797,2.4730000000000003,4.464055999999999,-5.2159023,10.916775,-1
974,975,1580693123288,3.7854997999999997,-2.1111,1.3117,5.0200853,-5.127068,10.409348,-1
975,976,1580693123298,4.3985,-1.8786,1.2737,5.6228595,-4.5315533,11.394245,-1
976,977,1580693123309,5.0532,-1.2678,2.3706,6.1879005,-4.111936,12.257786,-1
977,978,1580693123319,5.9017,-0.6705,3.2066,6.933311,-3.5917527999999996,12.415678999999999,-1
978,979,1580693123329,6.6972,-0.1511,3.0116,7.4236245,-3.2659688,11.943753,-1
979,980,1580693123339,7.1165,0.057699997,2.4989998,7.287289,-3.2943256,11.366146,-1
980,981,1580693123349,6.888099700000001,0.0058999998,2.0513,6.766646000000001,-3.4294546,10.901682000000001,-1
981,982,1580693123359,6.4056997,-0.1476,1.5604999,6.360676,-3.4811692,10.450509,-1
982,983,1580693123370,6.1829996,-0.16569999,1.1446999,6.5832695999999995,-3.2856586,10.239503,-1
983,984,1580693123380,6.4877,0.0933,0.9817,6.927986,-2.9125080000000003,10.310898,-1
984,985,1580693123390,6.8269,0.41979998,1.1028,7.1396723,-2.5756917,10.461532,-1
985,986,1580693123400,7.0523,0.76909995,1.1859,7.1619196,-2.395236,10.222705,-1
986,987,1580693123410,7.0559997999999995,0.85899997,0.8786,6.7520704,-2.5117667,9.726722,-1
987,988,1580693123421,6.580899700000001,0.7283,0.3477,5.948231,-2.6455066,9.398228999999999,-1
988,989,1580693123431,5.869,0.5694,0.14119999,5.309056299999999,-2.9485936,9.293792999999999,-1
989,990,1580693123441,5.3882,0.3091,0.0317,4.974385,-3.0723355,9.204796,-1
990,991,1580693123451,4.9776,0.1286,-0.0905,4.6188173,-3.2583935,8.977203,-1
991,992,1580693123461,4.7166,-0.0501,-0.2942,4.7948866,-3.2505502999999996,8.7183895,-1
992,993,1580693123472,4.8894997,-0.0661,-0.5679,4.9966800000000005,-2.9827156,8.823485,-1
993,994,1580693123482,5.0808,0.18519999,-0.46799999999999997,4.785185299999999,-2.8799949000000002,8.990371000000001,-1
994,995,1580693123492,4.1015,0.040799998,-0.23179999,4.006275,-3.0947452,9.072147,-1
995,996,1580693123502,4.1015,0.040799998,-0.23179999,3.4105212999999996,-3.5075536,8.854792,-1
996,997,1580693123512,2.7872,-0.96059996,-0.3532,2.511575,-4.198827,9.0215435,-1
997,998,1580693123523,2.7872,-0.96059996,-0.3532,1.7725807,-4.509306400000001,9.450642,-1
998,999,1580693123533,1.1804,-1.642,0.5176,1.0558238000000002,-4.7649975,9.854697,-1
999,1000,1580693123543,1.1465,-1.4722998999999999,0.64269996,1.1961527,-4.5056767,9.961555,-1
1000,1001,1580693123553,1.6831,-0.9957,0.5008,1.746752,-4.013965,9.73649,-1
1001,1002,1580693123563,2.0472999,-0.6428,0.0137,2.0802355,-3.640757,9.123528,d
1002,1003,1580693123574,2.0472999,-0.6428,0.0137,2.225085,-3.4559822000000002,8.589591,-1
1003,1004,1580693123584,2.4141998,-0.20459999,-1.1769,2.3693595000000003,-3.2057595,8.176515,-1
1004,1005,1580693123594,2.3636,-0.098299995,-0.93539995,2.3198185000000002,-3.1222498,8.477657,-1
1005,1006,1580693123604,2.1446,-0.0645,-0.6038,2.0852635,-3.0813662999999996,8.783675,-1
1006,1007,1580693123614,1.9419999,-0.0694,-0.4877,1.8763455000000002,-3.112606,8.849152,-1
1007,1008,1580693123624,1.5958999,-0.2245,-0.5001,1.4944607,-3.2616975,8.859944,-1
1008,1009,1580693123635,1.0259,-0.37269998,-0.3761,0.86704576,-3.3940778,8.99808,-1
1009,1010,1580693123645,0.6083,-0.44509998,-0.36069998,0.57755804,-3.4279413,8.979933,-1
1010,1011,1580693123655,0.4666,-0.4297,-0.36499998,0.593513,-3.3296928,8.9938,-1
1011,1012,1580693123665,0.60609996,-0.2355,-0.47649997,0.8346186999999999,-3.059081,8.783167,-1
1012,1013,1580693123675,1.0792999,0.109799996,-0.675,1.4710549,-2.6638463,8.715717,-1
1013,1014,1580693123686,1.7731999,0.5099,-0.5089,2.0382893,-2.289125,9.055474,-1
1014,1015,1580693123696,1.9172,0.7175,-0.1651,1.7724563000000002,-2.3137279,9.411339,-1
1015,1016,1580693123706,1.429,0.5518,0.1392,1.1771811,-2.581026,9.598996000000001,-1
1016,1017,1580693123716,0.78819996,0.2157,0.2562,0.5207963,-2.9786167000000003,9.68084,-1
1017,1018,1580693123727,0.1331,-0.1735,0.3426,0.08779058599999999,-3.217874,9.7242985,-1
1018,1019,1580693123737,-0.22899999,-0.3502,0.3593,-0.15545073,-3.294364,9.728982,-1
1019,1020,1580693123747,-0.31419998,-0.34239998,0.3755,-0.1618576,-3.197418,9.768018,-1
1020,1021,1580693123757,-0.1943,-0.14639999,0.3432,0.21118775,-2.9315564999999997,9.577017999999999,-1
1021,1022,1580693123767,0.23529999,0.0646,0.11599999999999999,0.69379175,-2.676641,9.435865,-1
1022,1023,1580693123777,0.6972,0.33089998,0.057299998,0.995308,-2.4830265,9.493143,-1
1023,1024,1580693123788,0.93689996,0.47349998,0.18609999,1.1324191000000001,-2.4074466,9.703891,-1
1024,1025,1580693123798,1.0144,0.4877,0.40299999999999997,1.014634,-2.4538078,9.829605,-1
1025,1026,1580693123808,0.7874,0.4482,0.4518,0.6777889,-2.596301,9.805616,-1
1026,1027,1580693123818,0.4332,0.2268,0.38149998,0.29869103,-2.820657,9.726349,-1
1027,1028,1580693123828,0.15269999,0.0622,0.3497,0.14732958,-2.8841798,9.767653,-1
1028,1029,1580693123838,-0.019399998999999998,0.0083,0.49539998,0.13354857,-2.8948772000000003,10.098791,-1
1029,1030,1580693123849,0.0477,-0.0207,0.8387,0.30492553,-2.9925987999999997,10.369728,-1
1030,1031,1580693123859,0.22,-0.1043,1.046,0.32247025,-3.0072994,10.450968,-1
1031,1032,1580693123869,0.2722,-0.0676,1.1462,0.6598324000000001,-2.9596642999999996,10.71435,-1
1032,1033,1580693123879,0.672,-0.027999998999999998,1.3944,1.0998291999999998,-2.893201,10.97978,-1
1033,1034,1580693123889,1.1019,0.061699998,1.6724,1.3609886999999998,-2.8315456,11.378539,-1
1034,1035,1580693123899,1.3600999,0.13229999,2.1271,1.6053218,-2.7131956,12.101474000000001,-1
1035,1036,1580693123910,1.5927,0.3024,2.906,1.8152359,-2.4644668,13.022666000000001,-1
1036,1037,1580693123920,1.7952,0.5541,3.8819999999999997,1.8365155,-2.4665543999999997,14.252826,-1
1037,1038,1580693123930,1.8068999,0.5159,5.1339999999999995,1.8101124,-2.5597177,15.114739000000002,-1
1038,1039,1580693123940,1.8104,0.4191,5.8664,1.73888,-2.8446276000000004,15.578859,-1
1039,1040,1580693123950,1.7534,0.1251,6.3142,1.5444995000000001,-3.1573583999999997,15.8183365,-1
1040,1041,1580693123960,1.5547999,-0.1709,6.5067,1.0968795,-3.6273112000000003,15.735325,-1
1041,1042,1580693123970,1.2645,-0.5568,6.4150996,0.9312391,-3.7695844,15.679742000000001,-1
1042,1043,1580693123980,1.1735,-0.7047,6.4038997,0.95049804,-3.8182154,16.142023000000002,-1
1043,1044,1580693123990,1.3364999,-0.7102,7.0337,0.7411681999999999,-3.7743824,17.510578,-1
1044,1045,1580693124000,1.1790999,-0.63019997,8.5665,0.6568253000000001,-3.7028722999999997,18.923656,-1
1045,1046,1580693124010,1.295,-0.5463,9.776899,1.1145105,-3.5164502,18.812286,-1
1046,1047,1580693124020,1.7712,-0.4428,9.5085,1.3101742,-3.4519887000000002,18.058449,-1
1047,1048,1580693124030,2.0746999,-0.4969,8.163899,1.3486922,-3.5624957000000004,16.366198,-1
1048,1049,1580693124040,2.0248,-0.74899995,6.7416,0.9734153,-3.6059167000000003,15.170027,-1
1049,1050,1580693124050,1.6229999,-0.9472,5.5429,0.44983217,-3.6699089999999996,14.203697,-1
1050,1051,1580693124060,1.161,-1.1111,4.6110997000000005,0.16581284,-3.5688257000000005,13.634548,-1
1051,1052,1580693124070,0.95269996,-1.1381999,4.026,0.008437166999999999,-3.2892117999999995,12.941253999999999,-1
1052,1053,1580693124081,0.8965,-1.0586,3.4243,-0.017353173,-2.9693465,12.040411,-1
1053,1054,1580693124091,0.94699997,-0.90569997,2.4909,0.040548198,-2.5634048,10.945323,-1
1054,1055,1580693124101,1.0163,-0.66099995,1.3621,-0.14858416,-2.3296924,10.001394,-1
1055,1056,1580693124111,0.87329996,-0.6053,0.3911,-0.58973974,-2.2888665,9.136569999999999,-1
1056,1057,1580693124121,0.4375,-0.73469996,-0.4998,-1.2602216,-2.1462102,8.899296000000001,-1
1057,1058,1580693124131,-0.2408,-0.74909997,-0.7609999999999999,-1.7674955,-2.0531907,9.326373,-1
1058,1059,1580693124141,-0.77639997,-0.8017,-0.3624,-1.9782522,-1.8899925,9.61317,-1
1059,1060,1580693124152,-1.0504999,-0.73649997,-0.029199999,-1.9460741999999998,-1.5645341999999998,9.933361,-1
1060,1061,1580693124162,-0.51519996,-0.3432,0.1293,-1.448856,-1.1915653999999998,9.86594,-1
1061,1062,1580693124172,0.1566,-0.016999999,-0.2217,-0.7929022,-0.75518864,9.526777000000001,-1
1062,1063,1580693124182,0.6529,0.009699999,-0.49159998,-0.31987494,-0.6134805999999999,9.259355000000001,-1
1063,1064,1580693124193,0.5986,0.0849,-0.96629995,-0.43387723,-0.38960367,8.66023,-1
1064,1065,1580693124203,0.4236,0.125,-1.5295,-0.63041246,-0.28058130000000003,8.134665,-1
1065,1066,1580693124213,-0.0296,0.0026,-1.9467,-1.0321021000000001,-0.27735390000000004,7.820564,-1
1066,1067,1580693124223,-0.5706,-0.24669999,-2.0799,-1.5406879999999998,-0.399621,7.6846976,-1
1067,1068,1580693124234,-0.96349996,-0.5669,-1.7414999,-1.8879046000000002,-0.6049286,8.029751,-1
1068,1069,1580693124244,-1.1583999,-0.857,-1.5094,-2.0583909,-0.79075694,8.27168,-1
1069,1070,1580693124254,-1.2840999,-1.2171,-1.5205,-2.1677103,-1.0531709999999999,8.22756,-1
1070,1071,1580693124264,-1.3095,-1.1893,-1.6082,-2.132975,-0.94115114,8.155101,-1
1071,1072,1580693124274,-1.1412,-1.2068,-1.7239,-1.9006897,-0.8018948,7.9241853,-1
1072,1073,1580693124284,-1.1412,-1.2068,-1.7239,-1.5925943,-0.5347018,7.7939215,-1
1073,1074,1580693124295,-0.2844,-0.7787,-1.757,-1.0521846000000001,-0.21617725,8.133266,-1
1074,1075,1580693124305,0.0116,-0.6461,-1.3419,-0.70152986,-0.106628165,8.37735,-1
1075,1076,1580693124315,0.2728,-0.96519995,-1.7003,-0.49144343,-0.33348358,7.957522,-1
1076,1077,1580693124325,0.159,-1.1366,-1.9887999,-0.8312285,-0.41170690000000004,7.7455587,-1
1077,1078,1580693124335,-0.36339998,-1.3151,-2.1295,-1.3034705,-0.490457,7.480645,-1
1078,1079,1580693124345,-0.65419996,-1.2912999,-2.4459999,-1.4706911,-0.2496482,7.196797999999999,-1
1079,1080,1580693124355,-0.6217,-1.1553,-2.6441998,-1.3000706,-0.19256085,7.0220785,-1
1080,1081,1580693124366,-0.6195,-1.4986999,-2.9301,-1.5049569999999999,-0.58143663,6.632513,-1
1081,1082,1580693124376,-1.021,-2.0226,-3.1662,-1.8968971999999997,-0.9646526,6.617803,-1
1082,1083,1580693124386,-1.3388,-2.2928998,-3.0002,-2.1837993,-1.0525485,6.7346406000000005,-1
1083,1084,1580693124396,-1.5762999,-2.4262,-3.0302,-2.487547,-1.080417,6.525176,-1
1084,1085,1580693124407,-1.8646,-2.3827999,-3.2756,-2.734686,-0.8611943000000001,6.3148985,-1
1085,1086,1580693124417,-1.944,-2.2028,-3.4032,-2.4814944,-0.587901,6.0381384,-1
1086,1087,1580693124427,-1.2968,-1.8044,-3.9329,-1.7487824,0.032829292,5.442672,-1
1087,1088,1580693124438,-0.1955,-0.98539996,-4.4037,-0.56572115,0.7508600000000001,5.312092,-1
1088,1089,1580693124448,0.90639997,-0.6617,-4.1502,0.3480882,0.95443416,5.566423400000001,-1
1089,1090,1580693124458,1.3302,-0.72569996,-4.2307997,0.33157778,0.66734064,5.182278,-1
1090,1091,1580693124469,0.9654,-1.1678,-4.4782,-0.5737178,0.13198754,5.384233999999999,-1
1091,1092,1580693124478,-0.0525,-1.736,-4.0011,-1.745986,-0.3707182,5.9758415000000005,-1
1092,1093,1580693124488,-1.2269,-2.0695,-3.4861998999999995,-2.8731282000000005,-0.38920140000000003,6.290832,-1
1093,1094,1580693124498,-2.1453,-1.9672999,-3.1778,-3.3568432,-0.24248475,6.6135125,-1
1094,1095,1580693124508,-2.347,-1.6551,-2.7816,-3.3464715,0.16318879,6.850797,-1
1095,1096,1580693124518,-1.8736,-1.2651,-2.905,-2.6326928,0.5551961999999999,6.569316000000001,-1
1096,1097,1580693124528,-0.7284,-0.9367,-3.1854,-1.0089933,0.8430271999999999,6.3836985,-1
1097,1098,1580693124538,0.6455,-0.7238,-3.1432,-0.0377805,1.0597694,6.7122399999999995,-1
1098,1099,1580693124549,1.2754999,-0.5615,-2.6316,0.14931199,1.1195575,7.408867,-1
1099,1100,1580693124559,1.2142998999999999,-0.5473,-1.9441998999999999,-0.41316260000000005,1.0856938,8.092908999999999,-1
1100,1101,1580693124569,0.68119997,-0.5622,-1.4237,-0.8978448,1.0405966999999998,8.395191,-1
1101,1102,1580693124580,0.17889999,-0.6234,-1.0991,-1.4305642,1.0399933000000001,8.587608,-1
1102,1103,1580693124590,-0.2695,-0.5794,-0.99009997,-1.8136363999999998,1.034659,8.725438,-1
1103,1104,1580693124600,-0.6369,-0.61719996,-0.8515,-1.9400023999999998,1.0633799,8.774902,-1
1104,1105,1580693124610,-0.7109,-0.6153,-0.8499,-1.7425575,1.1075386,8.531125,-1
1105,1106,1580693124620,-0.3838,-0.52059996,-1.2102,-1.1832049999999998,1.3376405,8.133907,-1
1106,1107,1580693124630,0.096999995,-0.36569998,-1.5009999,-0.674801,1.4796933,7.8847284,-1
1107,1108,1580693124641,0.54039997,-0.2914,-1.7134,-0.8023736,1.4278923000000001,8.098464,-1
1108,1109,1580693124651,-0.0909,-0.40469998,-1.2772,-1.271053,1.3883113999999999,8.307056,-1
1109,1110,1580693124662,-0.0909,-0.40469998,-1.2772,-1.563749,1.2817597,8.904209,-1
1110,1111,1580693124672,-0.3803,-0.509,-0.6778,-1.8998468999999998,1.4522845,9.436238000000001,-1
1111,1112,1580693124682,-0.7071,-0.3288,-0.1481,-1.7902308999999998,1.6045365,9.508955,-1
1112,1113,1580693124692,-0.2566,-0.0689,-0.12709999,-1.4409742,1.7258171000000002,9.453381,-1
1113,1114,1580693124702,-0.2566,-0.0689,-0.12709999,-1.0543394,1.8487451000000001,9.217992,-1
1114,1115,1580693124713,0.58809996,0.0804,-0.58489996,-0.47523950000000004,1.9319292000000001,8.987785,-1
1115,1116,1580693124723,0.7833,0.11800000000000001,-0.47529998,-0.32609984,1.9737415,9.103837,-1
1116,1117,1580693124733,0.5405,0.13669999,-0.1995,-0.69618595,2.0098363999999997,9.43529,-1
1117,1118,1580693124743,0.1354,0.1635,-0.0021,-1.0690781,2.0260119999999997,9.632572,-1
1118,1119,1580693124753,-0.147,0.055999997999999995,0.205,-1.3487017,1.8845334999999999,9.785792,-1
1119,1120,1580693124763,-0.3351,-0.064899996,0.1282,-1.4775767,1.7860936,9.659847000000001,-1
1120,1121,1580693124774,-0.31469998,-0.1239,-0.1541,-1.4353334999999998,1.7933337999999999,9.358293,-1
1121,1122,1580693124784,-0.31469998,-0.1239,-0.1541,-1.3455701,1.8238453999999997,9.24047,-1
1122,1123,1580693124794,-0.073199995,-0.1158,-0.22909999,-1.2048771,1.8029392,9.344685,-1
1123,1124,1580693124804,-0.3139,-0.1118,-0.19829999,-1.4702122,1.8467818,9.357058,-1
1124,1125,1580693124815,-0.4183,-0.0743,-0.3339,-1.4744068000000001,1.879343,9.23365,-1
1125,1126,1580693124824,-0.2872,0.038599997999999996,-0.2149,-1.3646757999999999,2.0600765,9.387224,-1
1126,1127,1580693124834,-0.09999999400000001,0.3443,0.0016,-1.1225263,2.3278630000000002,9.602818,-1
1127,1128,1580693124844,0.2368,0.5143,0.0809,-0.7981215,2.5030612999999997,9.528827,-1
1128,1129,1580693124854,0.3845,0.5627,-0.2314,-0.7496149999999999,2.5249345,9.265512,-1
1129,1130,1580693124864,0.2313,0.4694,-0.4359,-0.9053530000000001,2.4219842000000003,9.122003999999999,-1
1130,1131,1580693124874,-0.1621,0.20699999,-0.7385,-1.3626263,2.1282058,8.7388935,-1
1131,1132,1580693124885,-0.4317,0.0512,-1.1295998999999999,-1.5229422,1.9552392,8.392509,-1
1132,1133,1580693124895,-0.3155,-0.0628,-0.95309997,-1.3556353,1.9481618000000003,8.89197,-1
1133,1134,1580693124905,-0.1366,0.0742,-0.14109999,-1.1600099,2.0637827,9.785945,-1
1134,1135,1580693124915,-0.042999998,0.13849999,0.7485,-1.1578072,2.1321228,10.582533999999999,-1
1135,1136,1580693124926,-0.1453,0.166,1.2759,-1.2718669,2.0877917,10.889116,-1
1136,1137,1580693124936,-0.2616,0.0648,1.2562,-1.4023415000000001,2.0223918000000003,10.654187,d
1137,1138,1580693124946,-0.35799998,0.1443,0.7485,-1.513327,2.1477618,10.010052,-1
1138,1139,1580693124956,-0.3669,0.23349999,-0.0415,-1.5049186,2.2269235000000003,8.939442,-1
1139,1140,1580693124967,-0.40299999999999997,0.2641,-0.958,-1.6189878999999998,2.1961439,8.075365,-1
1140,1141,1580693124976,-0.5394,0.1103,-1.8252,-1.8491857,1.9941018,7.2872509999999995,-1
1141,1142,1580693124986,-1.0900999,-0.2631,-2.8792999,-2.5282388,1.614755,6.357726,-1
1142,1143,1580693124996,-1.8259999999999998,-0.6917,-3.3662998999999996,-3.2600312000000002,1.2454541000000001,6.276668,-1
1143,1144,1580693125006,-2.5967999,-1.0285,-2.9545,-4.0293263999999995,0.95362014,6.825294500000001,-1
1144,1145,1580693125016,-3.5203,-1.2609999,-2.3593,-4.885024,0.6500258000000001,7.3969245,-1
1145,1146,1580693125027,-3.9893,-1.4811,-2.0791,-5.261392,0.45175713,7.5464473,-1
1146,1147,1580693125037,-4.3279,-1.6945,-1.9851999,-5.5527477,0.12776418,7.467830999999999,-1
1147,1148,1580693125047,-4.5912,-2.0072,-2.2335,-5.751131,-0.13227485,7.0782466,-1
1148,1149,1580693125057,-4.6569,-2.3283,-2.9505,-5.732762999999999,-0.6842628000000001,6.1319623,-1
1149,1150,1580693125067,-4.6851,-2.8957999,-3.7438998,-6.0440474,-1.2391813999999999,5.219273599999999,-1
1150,1151,1580693125077,-5.1737,-3.4431998999999998,-4.8392,-6.705249,-1.7446165,3.7914004,-1
1151,1152,1580693125088,-5.8636,-3.9582,-6.4228997,-7.495709,-2.1919682000000003,2.1980686,-1
1152,1153,1580693125099,-6.7475996,-4.3672,-7.898,-8.5042515,-2.5486276,0.77132565,-1
1153,1154,1580693125109,-7.7618,-4.6538997,-9.3547,-9.128305000000001,-2.6215935,-0.13396037,-1
1154,1155,1580693125119,-8.5288,-4.499399700000001,-10.981199,-9.712060000000001,-2.536743,-2.4506759999999996,-1
1155,1156,1580693125129,-8.4772,-4.6605,-12.064099,-9.361635,-2.9693942000000004,-2.4993742,-1
1156,1157,1580693125139,-7.8742,-5.2524,-11.8032,-8.056662,-3.6119597000000003,-1.2567548000000002,-1
1157,1158,1580693125149,-6.6867,-5.5622,-10.4243,-6.7729669999999995,-3.7805977,0.53075624,-1
1158,1159,1580693125159,-5.1568,-5.6259,-7.964299700000001,-5.246835,-4.0122705000000005,3.2523793999999997,-1
1159,1160,1580693125169,-3.7805,-5.5301,-5.330899700000001,-3.8946669999999997,-3.0761087000000003,6.238763,-1
1160,1161,1580693125181,-2.8133,-4.212,-3.0584998,-2.803476,-1.5493166,7.8114758,-1
1161,1162,1580693125191,-1.7048999,-2.5913,-1.6444,-1.4743207,-0.5100607,8.20175,-1
1162,1163,1580693125201,-0.6573,-1.6324999,-1.5192,-1.0281851,-0.5964052,6.967012400000001,-1
1163,1164,1580693125212,-0.2465,-1.5871998999999999,-2.7719998,-0.72534734,-1.2968049,7.591870299999999,-1
1164,1165,1580693125223,0.8347,-2.6496,-0.33429998,0.4121187,-1.9566375,9.768506,-1
1165,1166,1580693125233,1.7005,-2.6482,1.17,1.399727,-2.045309,11.256789,-1
1166,1167,1580693125243,2.8197,-2.6116,2.6485,2.6245334,-2.112117,12.670556,-1
1167,1168,1580693125253,3.5026998999999996,-1.9366,3.0818,3.2395082000000004,-1.5209694,12.84246,-1
1168,1169,1580693125264,4.3879,-1.3838999,3.2062,4.2301235,-1.225496,13.147538,-1
1169,1170,1580693125274,5.7963,-0.7639,4.3054,5.6751485,-0.71825093,14.406448000000001,-1
1170,1171,1580693125284,5.7963,-0.7639,4.3054,7.0836190000000006,-0.48244122,15.602993,-1
1171,1172,1580693125294,9.311399,0.1003,7.1099997,8.854179,-0.32144552,16.908197,-1
1172,1173,1580693125304,11.1925,0.313,7.9806,11.367182000000001,-0.4101459,18.042887,-1
1173,1174,1580693125314,12.535999,0.0773,8.559999000000001,12.449705,-0.7898566999999999,18.395504000000003,-1
1174,1175,1580693125325,13.5436,-0.0087,8.8188,13.196504999999998,-0.8675055,18.639292,-1
1175,1176,1580693125335,14.214298999999999,0.2285,9.158199,13.680201,-0.73884106,18.97648,-1
1176,1177,1580693125345,14.1374,0.27359998,9.4495,13.191821,-0.9311721,19.204667999999998,-1
1177,1178,1580693125355,13.505999999999998,0.0784,9.3764,12.678198,-1.1779568,18.983595,-1
1178,1179,1580693125365,13.1557,-0.2164,8.485499,12.347693,-1.5685756000000002,17.894398000000002,-1
1179,1180,1580693125375,13.007299,-0.78029996,6.7756,12.194378,-2.4141787999999997,15.632882999999998,-1
1180,1181,1580693125385,13.1536,-1.6531,4.601,12.39213,-3.260558,13.426051000000001,-1
1181,1182,1580693125396,13.395999999999999,-2.2979998999999998,2.6705,12.581664,-3.6206076,12.08887,-1
1182,1183,1580693125406,13.5927,-2.3715,1.8403,12.755999999999998,-3.5124376000000006,11.598452,-1
1183,1184,1580693125416,13.6689,-1.8628,2.2691998,12.7049265,-3.031902,12.119075,-1
1184,1185,1580693125426,13.4753,-1.2477,3.074,12.386277999999999,-2.5094779,12.938725,-1
1185,1186,1580693125437,13.0822,-1.1615,3.3788,11.801825,-2.6626682,12.906443,-1
1186,1187,1580693125447,12.4653,-1.515,2.7184,11.208302,-3.215777,11.874397,-1
1187,1188,1580693125457,11.8841,-2.1406,1.3455,10.63376,-3.8085809999999998,10.306215,-1
1188,1189,1580693125467,11.3805,-2.7779999,-0.42499998,10.126755000000001,-4.4009833,8.207438,-1
1189,1190,1580693125477,10.9473,-3.0203,-2.0599,9.892488,-4.3459644,7.164677,-1
1190,1191,1580693125487,10.8364,-2.9341998,-2.8483999,9.844019,-4.232364,6.748153,-1
1191,1192,1580693125497,10.6616,-2.9082,-2.8567,9.224668,-4.3405629999999995,7.07907,-1
1192,1193,1580693125508,9.7408,-2.9937,-2.3602,8.16237,-4.6914096,7.712432000000001,-1
1193,1194,1580693125518,8.6525,-3.4190998,-1.6664,7.111267599999999,-5.262637000000001,8.359404,-1
1194,1195,1580693125528,7.4255,-4.0491,-1.0525,5.6604195,-6.1236690000000005,8.703325,-1
1195,1196,1580693125538,5.8855996,-4.901,-1.0490000000000002,4.0721064,-7.0258713,8.179608,-1
1196,1197,1580693125548,4.4207997,-5.625,-1.8419,3.3591415999999996,-7.299059,7.268700599999999,-1
1197,1198,1580693125559,4.0613,-5.5969996,-2.4396,3.365108,-7.0927940000000005,7.317274,-1
1198,1199,1580693125569,3.9159,-5.3519998,-2.1812,2.8127944,-7.1682973,8.213883000000001,-1
1199,1200,1580693125579,2.9552,-5.5301,-0.7819,1.1231008999999998,-7.7581716,10.288852,-1
1200,1201,1580693125589,1.2451999,-6.0084995999999995,1.0066,-0.8814301,-8.456703,11.911536,-1
1201,1202,1580693125599,-0.8491,-6.6123,2.5325,-3.0973308,-8.968172000000001,12.530467,-1
1202,1203,1580693125609,-3.1195998,-6.9978,2.9675,-4.6968303,-9.174782,12.439382,-1
1203,1204,1580693125620,-4.9645,-7.0958,2.4559,-6.248608,-8.998933000000001,11.066441000000001,-1
1204,1205,1580693125630,-6.1691,-6.8395996,1.2813,-6.989029400000001,-8.762482,10.230557000000001,-1
1205,1206,1580693125640,-6.9217997,-6.5831,0.5144,-7.6807814,-8.504588,9.82996,-1
1206,1207,1580693125650,-7.7948,-6.3385,0.2286,-8.479745,-8.353389,10.132089,-1
1207,1208,1580693125661,-8.6389,-6.1966,0.74189997,-8.954181,-8.357161999999999,11.499782000000002,-1
1208,1209,1580693125671,-9.2436,-6.1916,2.2609,-9.829051,-8.191253999999999,13.181401999999999,-1
1209,1210,1580693125681,-10.2677,-5.9308996,3.9401,-11.005963000000001,-7.9765415,14.604679,-1
1210,1211,1580693125691,-11.6195,-5.7247996,5.2362,-12.5727005,-7.951478999999999,15.156073000000001,-1
1211,1212,1580693125702,-13.2969,-5.647599700000001,5.5671,-14.030088000000001,-7.673627000000001,14.366168,-1
1212,1213,1580693125712,-14.512099,-5.4237,4.8231997,-14.3564,-7.3202715,13.389085000000001,-1
1213,1214,1580693125722,-14.927,-5.1043,3.8495998,-14.035615,-6.872114999999999,12.764916,-1
1214,1215,1580693125732,-14.6821995,-4.6896996,3.2089,-13.185051000000001,-6.1810246,12.3989105,-1
1215,1216,1580693125742,-13.6198,-3.4217,3.5298,-12.802313999999999,-5.4481015,13.279766,-1
1216,1217,1580693125753,-13.0583,-2.8107,4.2651,-12.203045,-4.8392754,13.844048999999998,-1
1217,1218,1580693125763,-12.6325,-2.4153,4.3019,-11.867388,-4.510915799999999,13.835479000000001,-1
1218,1219,1580693125773,-12.712199,-2.3126,4.1993,-11.969266000000001,-4.3950744,13.711057,-1
1219,1220,1580693125783,-12.6734,-2.3413,3.9773,-11.913126,-4.4126287,13.547216,-1
1220,1221,1580693125793,-12.498099,-2.4023,3.911,-11.67158,-4.411901,13.475544000000001,-1
1221,1222,1580693125803,-11.968699,-2.2934,3.8923997999999997,-11.030853,-4.200608,13.430638,-1
1222,1223,1580693125814,-10.780999999999999,-1.7120999,3.4406998,-9.762779,-3.5493753,12.874953999999999,-1
1223,1224,1580693125824,-9.320499,-1.402,2.4773998,-8.336782000000001,-3.2437985,11.900284,-1
1224,1225,1580693125834,-8.0175,-1.0433,1.9059999,-7.066812,-2.8245068,11.497703999999999,-1
1225,1226,1580693125844,-6.6341996,-0.8365,1.8751999,-5.972987,-2.6393009999999997,11.505288,-1
1226,1227,1580693125854,-5.6264997,-0.7036,2.336,-4.8319683,-2.436991,12.134532,-1
1227,1228,1580693125864,-4.8992,-0.72529995,3.2784998,-4.2900553,-2.4381112999999996,12.928450999999999,-1
1228,1229,1580693125874,-4.3903,-0.66139996,3.8579998,-3.7073543,-2.3180757,13.555864000000001,-1
1229,1230,1580693125885,-3.9016,-0.7057,3.9262,-3.207215,-2.3623972,13.5948515,-1
1230,1231,1580693125895,-3.3372998,-0.9375,3.9146998,-2.6737102999999998,-2.5476892,13.612369000000001,-1
1231,1232,1580693125905,-2.7851999,-1.3335999,4.0692997,-1.9595776000000003,-2.882571,13.834807999999999,-1
1232,1233,1580693125915,-2.0368,-1.5583999,4.2925,-1.1862694999999999,-2.9689922,14.139322,-1
1233,1234,1580693125925,-0.9716,-1.6395998999999999,4.8196,-0.10571837,-2.97696,14.742766,-1
1234,1235,1580693125935,-0.23399999999999999,-1.7655,5.1503997,0.47417644,-3.0329366,14.876133,-1
1235,1236,1580693125945,0.21609999,-1.9893999,5.0489999999999995,0.8596334000000001,-3.1727195,14.702504999999999,-1
1236,1237,1580693125956,0.5434,-2.1943998,4.8002,1.0613688000000001,-3.260242,14.423437,-1
1237,1238,1580693125966,0.63449997,-2.4401999,4.5125,1.0375608,-3.379885,14.250096,-1
1238,1239,1580693125976,0.62369996,-2.6773999,4.2159,1.0165206,-3.4612112,13.998207999999998,-1
1239,1240,1580693125986,0.7583,-2.8471,3.5770998,1.1989492,-3.5430260000000002,13.160371,-1
1240,1241,1580693125996,1.0085,-3.0936,3.097,1.4745504999999999,-3.6228487,12.6794815,-1
1241,1242,1580693126006,1.3248,-3.2967,2.5897,1.7245243000000001,-3.5831623,12.306063,-1
1242,1243,1580693126017,1.5440999,-3.3151,2.4575,1.9819488999999997,-3.4094387999999998,12.21945,-1
1243,1244,1580693126027,1.9523,-3.1485999,2.21,2.5752704,-2.863312,11.649946,-1
1244,1245,1580693126038,2.5086,-2.6928,1.671,2.9055457000000002,-2.1695776,11.370733999999999,-1
1245,1246,1580693126048,2.8219,-2.2784,1.3406999,3.2083163,-1.7618356,10.6641,-1
1246,1247,1580693126058,3.0425,-2.123,0.46409997,2.979469,-1.6077256000000002,9.638424,-1
1247,1248,1580693126068,2.7723,-2.247,-0.3207,2.7939662999999997,-1.6264098999999999,8.74307,-1
1248,1249,1580693126078,2.6719,-2.4429998,-1.2198,2.8938143,-1.4820875,7.921350500000001,-1
1249,1250,1580693126089,2.8562999,-2.405,-1.9683,3.1991897000000002,-1.1684375,7.455122500000001,-1
1250,1251,1580693126099,3.2336,-2.1452,-2.4886,3.4411,-0.64169395,6.863371400000001,-1
1251,1252,1580693126109,3.3727998999999995,-1.9030999,-2.9584,3.4197915,-0.48900133,6.4938703,-1
1252,1253,1580693126119,3.3448,-1.9612,-3.2414,2.9740965,-0.47856262,6.5602565,-1
1253,1254,1580693126129,2.8386,-2.0869,-3.1118999,2.4125223,-0.4882352,6.4633775,-1
1254,1255,1580693126139,2.3527,-2.2208,-3.1866,2.171158,-0.3903698,6.2565374,-1
1255,1256,1580693126149,2.2508,-2.2223,-3.5036,2.5836885,-0.04954082,5.551205599999999,-1
1256,1257,1580693126160,2.6957,-2.0316,-4.1510997000000005,2.944236,0.29717788,5.224616999999999,-1
1257,1258,1580693126170,2.9915,-1.8054999,-4.3761,3.1756787,0.6355265,5.108258999999999,-1
1258,1259,1580693126180,3.2405999,-1.5886999,-4.4544997,3.2209961,0.97567546,5.2697144,-1
1259,1260,1580693126190,3.2328,-1.3848,-4.2483,3.3967112999999998,1.315566,4.9682655,-1
1260,1261,1580693126201,3.4176,-1.1492,-4.6099997,3.5617389999999998,1.686581,4.5221395,-1
1261,1262,1580693126211,3.5749998,-0.8904,-5.000499700000001,3.699779,1.9943892,4.1574736,-1
1262,1263,1580693126221,3.6706998,-0.7112,-5.3529,3.7065787000000006,2.2617545,3.6491177,-1
1263,1264,1580693126231,3.6869,-0.5524,-5.8244,3.5296373,2.3593897999999998,3.3274998999999994,-1
1264,1265,1580693126241,3.5249,-0.5796,-6.0429997,3.2165334,2.2158048,3.059349,-1
1265,1266,1580693126251,3.174,-0.82269996,-6.3912997,2.7617595,2.1104697999999997,2.6218522,-1
1266,1267,1580693126261,2.8051,-0.9819,-6.7015,2.488859,2.2297297,2.451988,-1
1267,1268,1580693126272,2.5211,-0.88009995,-6.8954,2.6021044,2.6492607999999995,1.9020686999999998,-1
1268,1269,1580693126282,2.7417998,-0.4698,-7.5414,2.9680917,3.0384336,0.93695647,-1
1269,1270,1580693126292,3.0542,-0.24509999,-8.321,3.2184105,2.9775825,0.34023523,-1
1270,1271,1580693126302,3.3281998999999995,-0.34289998,-8.899,3.3420087999999994,2.7975097,0.09303868,-1
1271,1272,1580693126312,3.4429998,-0.5384,-9.143499,2.9007668,2.6051598,0.6540289,-1
1272,1273,1580693126322,2.9945,-0.7509,-8.5689,2.2362992999999998,2.617868,1.0902618999999998,-1
1273,1274,1580693126333,1.0511,-0.82,-7.8237,0.9794296,2.5391657000000003,1.3989034,-1
1274,1275,1580693126343,0.48959997,-0.5909,-8.3778,0.46210966,2.7410259999999997,0.7132231,-1
1275,1276,1580693126353,0.7844,-0.6277,-9.003699000000001,0.7446541999999999,2.6985620999999997,0.23313779,-1
1276,1277,1580693126363,1.1575999,-0.56049997,-8.811399,1.1472535,2.7237777999999997,0.44180682,-1
1277,1278,1580693126373,1.9237,-0.6303,-7.7823,1.9493494999999998,2.6026312999999996,1.4852191000000001,-1
1278,1279,1580693126383,2.7444,-0.8329,-6.7770996,2.8149395,2.3205464,2.5259786,-1
1279,1280,1580693126394,2.7444,-0.8329,-6.7770996,3.3203169999999997,1.9270164,3.4737375,-1
1280,1281,1580693126404,2.7549999,-1.4619,-5.6604,2.9124124,1.5363878999999998,3.6802137000000004,-1
1281,1282,1580693126414,1.1309999,-1.8154999,-5.7727,0.4889343,0.8657146000000001,3.7021349999999997,-1
1282,1283,1580693126424,-0.9041,-2.3197,-5.4939,-1.0887105,0.43193313,3.9670102999999997,-1
1283,1284,1580693126435,-2.2907999,-2.6029,-5.3728,-2.2000319999999998,0.06945100400000001,4.0513916,-1
1284,1285,1580693126445,-2.2382998,-2.5916997999999998,-5.3582997,-1.5817341999999999,0.16117766,4.0867014,-1
1285,1286,1580693126455,-0.9169,-2.2968,-5.5478997,0.23392308,0.3281014,3.5146017,-1
1286,1287,1580693126465,0.9686,-2.0994,-6.7170000000000005,1.9077668999999997,0.38300526,2.3360033,-1
1287,1288,1580693126475,1.9199,-2.0154,-7.7028,2.3639867000000003,0.35075054,1.585335,-1
1288,1289,1580693126485,1.6431999,-2.0504,-7.9989,1.7397227,0.02321418,1.7498837,-1
1289,1290,1580693126496,0.51629996,-2.2429,-7.1919,0.23642263,-0.29097209999999996,3.0078547,-1
1290,1291,1580693126505,-1.3254,-2.3472,-5.6205,-0.90450066,-0.4630482,3.9941223,-1
1291,1292,1580693126515,-2.5463,-2.6636,-4.1921,-2.1632955000000003,-1.0621828000000002,5.6843615,-1
1292,1293,1580693126525,-2.5799,-2.9020998,-3.1878,-1.7986773999999999,-1.4770117,6.7975984,-1
1293,1294,1580693126535,-1.9751999,-3.0447998,-2.8235,-1.0245651,-1.8872631000000002,6.5971365,-1
1294,1295,1580693126545,-1.4382,-3.4398,-3.9450998,-0.6896738,-2.416554,5.0171647,-1
1295,1296,1580693126555,-1.6840998999999999,-3.7893999,-5.7254996,-1.082476,-3.056543,3.675904,-1
1296,1297,1580693126566,-2.0083,-4.2654,-5.7158,-1.0810683,-3.4616325,4.725244,-1
1297,1298,1580693126576,-1.2899,-3.7319998999999995,-3.5881,-0.24465868,-3.0409236,6.7294307,-1
1298,1299,1580693126586,0.0379,-2.9557998,-0.7887,1.1686673,-2.4595635,10.039721,-1
1299,1300,1580693126596,0.89339995,-2.1438,1.6071,1.9244689,-2.0444471999999996,12.088488,-1
1300,1301,1580693126606,1.5899,-1.7385,2.9239,2.400848,-2.1727571,12.794298,-1
1301,1302,1580693126616,1.7306999,-2.2080998,2.9347,2.0919673,-3.2884934,12.667147,-1
1302,1303,1580693126626,0.7804,-3.0821,2.7754998,0.8353656999999999,-4.4060206,12.399617999999998,-1
1303,1304,1580693126636,-0.93969995,-3.8077,2.5621,-0.6810163,-4.9937496,12.30296,-1
1304,1305,1580693126646,-2.2679,-4.0172,3.1069,-1.4571973999999999,-5.376822,13.1387,-1
1305,1306,1580693126656,-1.6306,-3.7468,3.7238,-0.7081953000000001,-5.0565734,13.435877,-1
1306,1307,1580693126666,-0.77199996,-2.8307,4.0295997,0.38230613,-4.254688,13.854142999999999,-1
1307,1308,1580693126677,0.4822,-2.129,4.4179997,1.5969708,-3.8493495,14.099117999999999,-1
1308,1309,1580693126687,2.4392,-1.4157,4.753,3.8042714999999996,-3.4365987999999996,14.55824,-1
1309,1310,1580693126697,3.6622,-1.1614,5.486799700000001,4.2569194,-3.6942246,15.389268,-1
1310,1311,1580693126707,3.2954,-1.5324,5.9997997000000005,2.7872722000000003,-4.710285,15.584117,-1
1311,1312,1580693126717,1.52,-2.3655999,6.3848,1.1151521,-5.444329,16.262710000000002,-1
1312,1313,1580693126727,0.2287,-2.6655998,7.2075996,0.48502696,-5.570876599999999,16.857958,-1
1313,1314,1580693126737,-0.1414,-2.319,7.8004,0.56516564,-5.0686684,17.277517,-1
1314,1315,1580693126748,0.35700000000000004,-1.453,8.174,1.3774416,-4.193645500000001,17.436396,-1
1315,1316,1580693126758,0.9772,-0.87839997,8.045899,2.0402524,-4.1729116,16.949541,-1
1316,1317,1580693126768,1.5668,-0.97459996,7.4185,2.3121,-4.467331400000001,16.271368,-1
1317,1318,1580693126778,1.3952999,-1.4002,6.794699700000001,1.4003303,-5.2219167,16.067726,-1
1318,1319,1580693126788,0.3478,-1.8488,7.1485996,0.47367844,-5.597748999999999,16.497045999999997,-1
1319,1320,1580693126798,-0.50339997,-1.9913,7.6924,-0.2573192,-5.821644999999999,16.919458,-1
1320,1321,1580693126808,-0.7783,-1.956,7.9971,-0.21643583,-5.663761599999999,17.182104000000002,-1
1321,1322,1580693126819,-0.45729998,-1.4785999,8.3223,0.59499747,-4.9807153,17.384853,-1
1322,1323,1580693126829,0.49769998,-0.63699996,8.3136,1.4125694,-4.3221087,16.619734,-1
1323,1324,1580693126839,0.9331,-0.2085,7.4919,1.3513448000000001,-4.2340307,15.750563,-1
1324,1325,1580693126849,0.73759997,-0.1522,6.3613,1.1454531000000001,-4.279626,14.259148000000001,-1
