,Seq,Time,ACCx,ACCy,ACCz,ADGx,ADGy,ADGz,Keydown
0,1,1580694641059,0.0736,-0.82089996,-1.0246,0.71059906,1.2932807,7.373595,-1
1,2,1580694641069,-0.13759999,-1.5541999,-2.1538,-0.23790702,1.9433066000000003,9.273489999999999,-1
2,3,1580694641079,0.007999999,-0.068799995,-0.3302,0.15665741,2.375364,8.686374,-1
3,4,1580694641089,0.3812,0.3479,-0.9134,0.8932767,2.1717612999999996,8.658544000000001,-1
4,5,1580694641100,1.1055,0.11599999999999999,-0.93969995,1.2037281000000002,2.026165,8.693088000000001,-1
5,6,1580694641110,1.3922,-0.037299998,-0.90739995,1.0169995,2.0418133999999997,8.5316515,-1
6,7,1580694641120,0.6702,-0.1055,-1.0022,0.5345773,1.9821787,8.586977000000001,-1
7,8,1580694641130,0.39949998,-0.19669999,-0.80579996,0.2828414,1.8948574,8.784239999999999,-1
8,9,1580694641140,0.39949998,-0.19669999,-0.80579996,0.1320067,2.061331,8.805424,-1
9,10,1580694641150,0.2104,-0.0341,-0.7856,0.3032017,2.2366824,8.659895,-1
10,11,1580694641160,1.635,0.5945,-1.5328,1.6674082,2.7236533,8.054075,-1
11,12,1580694641170,1.635,0.5945,-1.5328,2.7832117000000003,2.9215293,7.9566984,-1
12,13,1580694641181,2.6520998,0.76,-1.6233,3.4893669999999997,3.1040153999999998,8.405516,-1
13,14,1580694641191,2.8427,0.87049997,-0.60179996,3.149879,3.0763004,9.044423,-1
14,15,1580694641201,1.9149,0.6504,-0.38509998,2.5086734,2.9318244,9.135536,-1
15,16,1580694641211,1.1222,0.4111,-0.37939999,2.0188196,2.7332015,9.085995,-1
16,17,1580694641221,0.72709996,0.2199,-0.49199998,1.8623441000000003,2.6187873,8.899707000000001,-1
17,18,1580694641232,0.72349995,0.1292,-0.70559996,2.1022432,2.6367437999999996,8.658553999999999,-1
18,19,1580694641242,1.1449,0.3437,-0.80359995,2.8059855,2.8792095,8.600126,-1
19,20,1580694641252,2.188,0.48979998,-0.4969,4.058536,3.0501650000000002,8.929568,-1
20,21,1580694641262,3.0789999999999997,0.6943,-0.1374,4.912825,3.2358499,9.169553,-1
21,22,1580694641272,3.4652998,0.59099996,0.4012,5.7470612999999995,3.1950717,9.589955999999999,-1
22,23,1580694641283,3.2663999,0.4262,1.1323,5.7048559999999995,3.011331,10.288650500000001,-1
23,24,1580694641293,2.7361,0.1087,2.3241,4.976961,2.4752502,12.045449000000001,-1
24,25,1580694641303,2.1311,-0.20639999,3.6618,4.520166400000001,2.2627217999999996,13.062046,-1
25,26,1580694641313,1.6724,-0.2747,4.4874997,4.0960383,2.2174234,13.758069,-1
26,27,1580694641323,1.4922999,-0.3102,4.5937,4.027258,2.0976557999999996,13.667568,-1
27,28,1580694641333,1.4482,-0.4298,4.4539,4.128609,1.9966397,13.605022,-1
28,29,1580694641344,1.4482,-0.4298,4.4539,4.206967,2.063936,13.714591,-1
29,30,1580694641354,2.0497,-0.3741,5.0708,4.82966,2.0383754,14.595715,-1
30,31,1580694641364,2.4289,-0.4838,6.1172,4.991068,1.8354333999999999,15.561947,-1
31,32,1580694641374,2.2382998,-0.9183,7.37,4.2639585,1.1895639,17.013323,-1
32,33,1580694641384,1.0809,-1.6523,8.422999,2.8291228,0.26446354,18.12201,-1
33,34,1580694641394,-0.4544,-2.6526,9.3539,1.1142136,-0.72725314,18.842875,-1
34,35,1580694641405,-1.9789,-3.5899,9.6518,-0.3702585,-1.6503615000000003,18.938326,-1
35,36,1580694641415,-3.2619998,-4.5109997,9.5275,-1.8930953999999998,-2.597498,18.524437,-1
36,37,1580694641425,-4.3679,-5.3662,8.9653,-3.0080655,-3.4210078999999998,17.657581,-1
37,38,1580694641435,-5.4761,-6.3037,7.916,-3.90343,-3.9913928999999997,16.68277,-1
38,39,1580694641445,-6.4474998,-6.9530997,6.7823,-4.9153438,-4.538449,15.549679999999999,-1
39,40,1580694641455,-7.0453997,-7.3609995999999995,6.0414,-5.6716337,-4.584034,14.974525,-1
40,41,1580694641465,-7.7071,-7.31,5.6061997,-6.399136,-4.4117284,14.683419,-1
41,42,1580694641476,-8.1966,-7.2665997,5.3332996,-6.7390265,-4.4240155,14.495187,-1
42,43,1580694641486,-8.4326,-7.3854,5.0502996,-7.2915606,-4.5107527,13.999710999999998,-1
43,44,1580694641496,-8.7455,-7.5573997,4.5062,-7.787686999999999,-4.797166000000001,13.4114275,-1
44,45,1580694641506,-9.1616,-7.9853997,3.8709998,-8.453371,-5.037294999999999,12.660807,-1
45,46,1580694641516,-9.7267,-8.144899,2.9705,-9.024080999999999,-5.0106335,11.337723,-1
46,47,1580694641527,-10.0316,-8.154799,1.5112,-9.310274,-4.680339,9.584363,-1
47,48,1580694641537,-10.1403,-7.9659996,0.0971,-9.411732,-4.549759,8.20787,-1
48,49,1580694641547,-10.1140995,-7.9254,-1.22,-9.492187,-4.342555,7.107168700000001,-1
49,50,1580694641557,-10.0301,-7.7857,-2.2103999,-9.429113000000001,-4.1584697,6.609481,-1
50,51,1580694641567,-9.7904,-7.5428,-2.6399,-9.288966,-3.6073532,6.3124948,-1
51,52,1580694641578,-9.5293,-7.1418,-2.8539,-9.146023,-3.0477326000000002,5.966207,-1
52,53,1580694641589,-9.3476,-6.6024,-3.1878,-9.115559,-2.2644262000000004,5.5845423,-1
53,54,1580694641599,-9.1381,-5.936899700000001,-3.5109,-8.511875,-1.7933146,5.31372,-1
54,55,1580694641609,-8.366899499999999,-5.5747,-3.7942,-7.9350452,-1.3899489999999999,4.630271,-1
55,56,1580694641619,-7.8033,-5.252000000000001,-4.5246,-7.3685484,-1.0474919,3.7979220999999996,-1
56,57,1580694641629,-7.2609997,-5.0695,-5.1544,-6.935763000000001,-0.8811906999999999,3.2013828999999996,-1
57,58,1580694641640,-6.6850996,-4.9238,-5.9117,-6.5069227,-0.62289464,2.2350925999999998,-1
58,59,1580694641649,-6.2366,-4.7433,-6.7978997,-6.023821400000001,-0.38790858,1.6104741000000002,-1
59,60,1580694641659,-5.7864,-4.6301,-7.2275,-5.7824373,-0.26135105,1.3972561000000001,-1
60,61,1580694641669,-5.3623,-4.4748,-7.5544996,-5.5089526,-0.11105265,1.0703901000000002,-1
61,62,1580694641679,-5.1605,-4.4351997,-7.7296,-5.7576528,-0.065218054,0.99896634,-1
62,63,1580694641690,-5.349,-4.4151,-7.7816,-6.1153755,-0.004309563,0.9246310999999999,-1
63,64,1580694641700,-5.6995,-4.388999999999999,-7.8852997,-5.932803,0.07922892,0.67125756,-1
64,65,1580694641710,-5.4386,-4.3431,-8.0779,-5.0822487,0.26388893,0.17224844,-1
65,66,1580694641721,-3.5802,-3.9857998,-9.0801,-4.061993,0.48973873,-0.36441666,-1
66,67,1580694641731,-3.5802,-3.9857998,-9.0801,-3.1899482999999997,0.7654263000000001,-0.6700604,-1
67,68,1580694641741,-2.4917998,-3.6831,-9.4436,-1.9842856,0.9291226,-0.96487284,-1
68,69,1580694641751,-0.5485,-3.3797,-9.7415,-0.8273212,1.1796902,-0.9836434000000001,-1
69,70,1580694641762,-0.13419999,-3.0395,-9.3944,-0.36219484,1.5071596,-0.5708734999999999,-1
70,71,1580694641771,0.3983,-2.7307,-8.9677,0.16465403,1.6982839,-0.22441332,-1
71,72,1580694641781,1.1251,-2.4168,-8.5675,1.2001176000000002,2.0225546000000003,0.30961818,-1
72,73,1580694641791,2.3388999,-2.0523999,-8.1423,2.6141042999999997,2.2605095,0.77968615,-1
73,74,1580694641801,2.3388999,-2.0523999,-8.1423,4.261669599999999,2.146488,1.1658614,-1
74,75,1580694641811,3.8787,-2.0086,-7.7697997,5.445612000000001,1.9045778999999998,1.4901031999999999,-1
75,76,1580694641821,5.2988,-2.2288,-7.416599799999999,6.363251999999999,1.5970954,2.1925619999999997,-1
76,77,1580694641832,6.2774997,-2.3269,-5.9687,6.626202,1.5891848999999998,3.0324097,-1
77,78,1580694641842,5.9193,-1.7932999,-5.1537,6.327224,2.1080083999999997,4.0672126,-1
78,79,1580694641852,5.9656,-1.135,-4.544699700000001,6.587282000000001,2.637692,4.595594,-1
79,80,1580694641862,6.4858,-0.5311,-4.7095,7.2833440000000005,3.0385675,4.358989,-1
80,81,1580694641872,7.6849,-0.68689996,-4.9518,8.773647,2.5406501,4.265825700000001,-1
81,82,1580694641883,9.3167,-1.3927,-4.605,10.399148,1.6732403999999999,4.76925,-1
82,83,1580694641893,10.484000000000002,-1.841,-3.4631,11.469913,1.2928977,6.2010016,-1
83,84,1580694641903,10.1361,-1.1827999,-1.3023,11.066958,2.0165881999999997,9.053099000000001,-1
84,85,1580694641913,10.2595,-0.1331,1.2196,11.82275,3.1608155,11.518073,-1
85,86,1580694641923,11.498199000000001,1.6058999,3.2315,13.322104000000001,4.638047,13.247729999999999,-1
86,87,1580694641933,13.1066,2.6804,4.5977,15.052489000000001,4.992897,14.669570000000002,-1
87,88,1580694641944,14.7353,2.8128,5.7627997,16.488876,4.8069344,15.425956,-1
88,89,1580694641954,15.5091,2.7974,5.6735997000000005,16.955853,4.699483,15.092386,-1
89,90,1580694641964,15.8181,2.8095,5.2653,17.161036,4.6223415999999995,14.804257999999999,-1
90,91,1580694641974,15.526998999999998,2.9389,5.4477997,17.010927,4.59047,15.1843815,-1
91,92,1580694641984,15.511498999999999,2.8997998,5.9789996,17.138021,4.4001410000000005,16.000164,-1
92,93,1580694641995,15.3544,2.8325,6.8034,16.776918,4.202188,16.820673,-1
93,94,1580694642005,14.3769,2.3704998,8.1813,15.5327,3.4159226,18.380192,-1
94,95,1580694642015,12.811299,1.5947,9.6335,13.873076999999999,2.5941558,19.700113,-1
95,96,1580694642025,11.1461,0.93719995,10.6953,12.386039,1.8674965000000001,20.509432,-1
96,97,1580694642035,9.9557,0.17819999,11.0568,11.184225999999999,0.9035046999999998,20.506998,-1
97,98,1580694642046,8.948,-0.5487,10.7471,10.193199,0.13649823,19.874948999999997,-1
98,99,1580694642055,7.8817997,-1.4374,9.9415,9.244904,-0.61762744,19.160269,-1
99,100,1580694642065,6.5246997,-2.3817,9.187799,7.87564,-1.4576954,18.493706,-1
100,101,1580694642075,5.1356997,-3.2229997999999997,8.5724,6.455591,-2.169434,17.875032,-1
101,102,1580694642085,3.5765998,-3.8439,8.0432,4.4004755,-2.6561177000000002,17.415041,-1
102,103,1580694642095,1.8054999,-4.2367,7.8528,2.5829127,-2.9087923,17.33835,-1
103,104,1580694642106,0.033,-4.4715,7.7279,1.2061031,-2.9816048,17.126337,-1
104,105,1580694642116,-1.5360999,-4.6830997000000005,7.4465,-0.562963,-3.186941,16.759804000000003,-1
105,106,1580694642126,-2.8641999,-4.8964,7.0018997,-1.9430096000000001,-3.089727,16.051006,-1
106,107,1580694642136,-4.0424,-4.7697997,6.2384996,-2.786305,-2.8913338,15.416704999999999,-1
107,108,1580694642146,-4.6881,-4.6618,5.7341,-3.3692546,-2.4196377,14.791359,-1
108,109,1580694642156,-5.1386,-4.1467,4.9578,-3.5743419999999997,-1.8276092000000002,13.971239,-1
109,110,1580694642166,-5.2609,-3.7807,4.2414,-3.838978,-1.4897201999999998,13.291352999999999,-1
110,111,1580694642176,-5.6267,-3.5625,3.6636998999999997,-4.4293494,-1.0745559999999998,12.833419000000001,-1
111,112,1580694642186,-6.1830997000000005,-3.2586,3.2556998999999998,-4.9213867,-0.74841785,12.367764999999999,-1
112,113,1580694642196,-6.5783,-3.1845,2.7533998,-5.213585,-0.74735487,11.728322,-1
113,114,1580694642207,-6.7489996,-3.4276998,2.0969,-5.2743206,-0.9477783000000001,10.980777,-1
114,115,1580694642217,-6.7099,-3.7308998,1.4028,-5.2195125,-0.97459334,10.4482,-1
115,116,1580694642227,-6.6663,-3.7877,1.1314,-5.3895493,-0.825061,10.306242999999998,-1
116,117,1580694642238,-6.8012,-3.7737,1.0266,-5.5046144,-0.5441446,10.087767999999999,-1
117,118,1580694642248,-6.8062,-3.5639999999999996,0.7751,-5.3628583,-0.2506729,9.370378500000001,-1
118,119,1580694642258,-6.5729,-3.4259,-0.0437,-5.3491545,-0.056733000000000006,8.0687475,-1
119,120,1580694642271,-6.5288997,-3.4942,-2.9398,-5.5012436,0.008504204,5.8707356,-1
120,121,1580694642282,-6.5186996,-3.5553,-4.3417,-5.541465799999999,0.10394666,4.475912,-1
121,122,1580694642292,-6.5169997,-3.4919998999999997,-5.3904,-5.6673436,0.31727,3.4403148,-1
122,123,1580694642302,-6.5169997,-3.4919998999999997,-5.3904,-5.703371499999999,0.54492986,2.66738,-1
123,124,1580694642312,-6.4865,-3.0953999,-7.0772,-5.825284,0.9578435,1.747298,-1
124,125,1580694642322,-6.4535,-2.8407,-7.7352,-5.8490157,1.2961346000000002,1.0271603999999999,-1
125,126,1580694642332,-6.4424,-2.7119999999999997,-8.435699000000001,-5.942265,1.4822693999999998,0.2915563,-1
126,127,1580694642342,-6.576699700000001,-2.5988998,-9.1999,-6.1613727,1.6855371,-0.55142295,-1
127,128,1580694642352,-6.5650997,-2.4408998,-10.019199,-6.183408999999999,1.9367751,-1.4916643,-1
128,129,1580694642362,-6.4147,-2.1897,-10.8934,-6.04829,2.2536812000000004,-2.2748937999999996,-1
129,130,1580694642373,-5.8877997,-1.8341999,-11.2348995,-5.262493599999999,2.6644688,-2.5138927000000004,-1
130,131,1580694642382,-4.2111998,-1.4821999,-11.495299000000001,-3.6085312000000007,2.9604304,-2.7760863,-1
131,132,1580694642392,-2.3177,-1.2211,-11.5480995,-1.8837099,3.1928115000000004,-2.7036377999999996,-1
132,133,1580694642402,-1.5098,-1.1376,-11.119599000000001,-1.3744823999999998,3.2028098,-2.3311767999999997,-1
133,134,1580694642412,-2.0098999,-1.4926,-10.6481,-2.1453962000000004,2.690125,-1.8084555,-1
134,135,1580694642422,-3.4724,-2.0414999,-10.706799499999999,-4.0564575,2.0194325,-2.0964491,-1
135,136,1580694642433,-4.9188,-2.5465999,-11.3805,-5.077412000000001,1.5635382,-2.7039635,-1
136,137,1580694642443,-5.5257,-3.2423,-12.2969,-5.4925284,0.61983967,-3.8501542,-1
137,138,1580694642453,-5.4358997,-4.0797,-13.3432,-5.241865,-0.26637888,-4.798899700000001,-1
138,139,1580694642463,-4.9209,-4.9733,-13.987599,-4.5146120000000005,-1.3123865,-5.0664754,-1
139,140,1580694642473,-4.0731,-5.8991,-13.6574,-3.5481017,-2.2568509999999997,-4.2794347,-1
140,141,1580694642483,-3.093,-6.5659,-12.383599,-2.8204653,-2.842741,-3.0553463,-1
141,142,1580694642493,-2.7312,-7.0548997,-10.7906,-2.646273,-3.5193903,-1.4086333999999998,-1
142,143,1580694642504,-3.4143,-7.2623997000000005,-9.3998995,-3.7128801,-3.746265,0.2819699,-1
143,144,1580694642514,-4.2207,-7.0084995999999995,-8.2133,-3.9936817000000002,-3.8704567,1.5393184,-1
144,145,1580694642524,-3.8644998,-7.1495,-7.1273,-3.5389559999999998,-4.1907053,2.3670419999999996,-1
145,146,1580694642534,-3.6729998999999998,-7.4447,-6.5814,-3.3616888999999994,-4.741668,2.9283287999999996,-1
146,147,1580694642544,-3.3797998,-8.1118,-5.7051997000000005,-2.5221574,-5.7831755,4.2779503,-1
147,148,1580694642554,-2.1926,-8.6627,-4.5032997,-0.96267015,-6.5900598,5.464277,-1
148,149,1580694642564,-0.6824,-9.1696,-3.3923,0.42269152,-7.2055416,6.667191000000001,-1
149,150,1580694642575,-0.059699997000000005,-9.2248,-2.1567,0.58634955,-7.380615,8.065597,-1
150,151,1580694642585,-0.2553,-8.7744,-0.5862,0.5384464,-7.196759700000001,9.475341,-1
151,152,1580694642595,0.24399999,-8.1582,1.7264999,1.2250172,-6.844228,12.550453,-1
152,153,1580694642605,0.77169997,-7.4014997000000005,4.3462,1.6734895,-6.490537000000001,15.014651,-1
153,154,1580694642615,1.2681,-6.8022,6.3736997,2.7285376,-6.435279,16.758675,-1
154,155,1580694642625,2.5574,-6.682699700000001,6.9254,4.0996776,-6.811714,15.954682,-1
155,156,1580694642636,3.6747,-6.7163997,5.5562997,5.0330043,-7.042103999999999,15.102835,-1
156,157,1580694642646,4.6025,-6.535,5.8332,5.960882,-6.703017699999999,17.107862,-1
157,158,1580694642656,5.3609,-5.4581,8.61,6.4821860000000004,-5.451693,20.19195,-1
158,159,1580694642666,5.8138,-3.8295,11.5335,6.7718463,-4.647691200000001,22.144854000000002,-1
159,160,1580694642676,6.1166,-2.935,13.4063,6.3689594000000005,-4.327903,23.209698,-1
160,161,1580694642687,5.5094,-2.5175998,13.4017,5.2590747,-4.340611,22.122463,-1
161,162,1580694642697,4.2064,-2.4607,11.7505,3.959215,-5.1770781999999995,19.66154,-1
162,163,1580694642707,3.3664,-3.0814998,9.636000000000001,2.8394275,-5.7220654,17.151142,-1
163,164,1580694642717,2.3186998,-3.3028998,7.2825,2.5686624,-5.6993012,16.495378,-1
164,165,1580694642727,2.4017,-3.04,7.2534,3.3449297,-5.096882,17.970217,-1
165,166,1580694642739,3.238,-2.1746,8.8765,4.0909057,-4.202935,19.426379999999998,-1
166,167,1580694642749,3.9494998,-1.1607,10.2676,4.428535500000001,-3.7715763999999994,20.089823000000003,-1
167,168,1580694642759,4.2163,-0.6735,10.7765,4.1141677,-3.7747370000000005,19.389116,-1
168,169,1580694642769,3.9615998,-0.57589996,10.1055,3.9601917,-3.8590699999999996,17.872332,-1
169,170,1580694642779,3.8876998,-0.5373,8.6356,3.92289,-3.880005,16.4689,-1
170,171,1580694642790,3.9248,-0.4658,7.259999799999999,3.776652,-3.7692492,15.315114000000001,-1
171,172,1580694642800,3.8469,-0.2598,6.1461997,3.9074904999999998,-3.4756339,14.725979,-1
172,173,1580694642810,4.271,0.5710000000000001,5.2567,4.1009417,-3.0856185000000003,14.368120999999999,-1
173,174,1580694642821,4.5139,1.2691,5.6977997,4.311478599999999,-2.4522847999999997,14.784607999999999,-1
174,175,1580694642831,4.6542997,1.7471,6.0098996,4.440737,-2.0430777,15.058782,-1
175,176,1580694642841,4.6542997,1.7471,6.0098996,4.3760166,-1.8424819,14.896569,-1
176,177,1580694642851,4.4554996,1.9287,5.3968997000000005,4.181483,-2.0012844,14.315975,-1
177,178,1580694642862,4.1363,1.7687998999999999,5.0692997,3.8363538,-2.2079612999999996,14.030003,-1
178,179,1580694642872,3.8820998999999996,1.5967,5.0009,3.6630328000000003,-2.3879194,13.967725,-1
179,180,1580694642882,3.8820998999999996,1.5967,5.0009,3.629629,-2.36301,13.836216,-1
180,181,1580694642892,3.5244,1.6954,4.5048,3.3719268,-2.2408384999999997,13.375706,-1
181,182,1580694642903,2.9568,1.6335,3.7056,2.725789,-2.3428605,12.335186,-1
182,183,1580694642913,2.3996,1.4944998999999999,2.7368,2.2973516,-2.4116697,11.413112,-1
183,184,1580694642923,1.912,1.3866999,1.9556999,1.8455273,-2.4460695,10.739383,-1
184,185,1580694642934,1.5093,1.3457,1.3648,1.6529089,-2.4640932,10.254951,-1
185,186,1580694642944,1.4556999,1.3246,1.1213,1.7435726000000003,-2.4709501,10.176276,-1
186,187,1580694642954,1.6085,1.2141,1.1754999,1.8753111,-2.6398373,10.344723,d
187,188,1580694642964,1.54,1.0866,1.4955,1.6935147000000002,-2.6781062999999996,10.6633625,-1
188,189,1580694642974,1.2457,0.96529996,1.6082,1.3209577,-2.9684652999999996,10.4962,-1
189,190,1580694642984,0.9106,0.62939996,1.1977,1.0148351,-3.1947843999999996,9.860797999999999,-1
190,191,1580694642995,0.57199997,0.4799,0.5383,0.724993,-3.2426112000000002,9.337042,-1
191,192,1580694643005,0.28800000000000003,0.3751,0.0442,0.53558296,-3.3327193,9.003328,-1
192,193,1580694643015,-0.036599997,0.23189999,-0.3118,0.19544347,-3.4226834999999998,8.666982,-1
193,194,1580694643025,-0.3762,0.1231,-0.64629996,-0.088585466,-3.5559068,8.384934,-1
194,195,1580694643035,-0.53999996,-0.025999999,-0.76199996,-0.14452359,-3.5872612,8.424152000000001,-1
195,196,1580694643046,-0.53999996,-0.025999999,-0.76199996,-0.045212105,-3.5608292,8.526232,-1
196,197,1580694643056,-0.3312,-0.0459,-0.4752,0.14368083,-3.6036375,8.732918,-1
197,198,1580694643066,-0.2016,0.0067999995999999995,-0.2619,0.2873138,-3.4891946000000003,8.935419,-1
198,199,1580694643076,0.0049,0.11699999999999999,-0.10789999,0.6097649,-3.3670714,9.039634,-1
199,200,1580694643086,0.2874,0.2234,-0.18079999,0.80856985,-3.1965272000000002,8.83787,-1
200,201,1580694643096,0.42279997,0.366,-0.4314,0.89071965,-3.122489,8.640472,-1
201,202,1580694643107,0.4526,0.35279998,-0.64239997,0.71803063,-3.2386174,8.341839,-1
202,203,1580694643117,0.2305,0.2355,-0.8717,0.33256418,-3.4073992,8.247431,-1
203,204,1580694643127,-0.1749,0.025899999,-0.90279996,-0.07236235,-3.6585796000000004,8.4511,-1
204,205,1580694643137,-0.5222,-0.20709999,-0.62759995,-0.30131507,-3.8197286,8.908441999999999,-1
205,206,1580694643147,-0.7267,-0.3296,-0.1453,-0.33419225,-3.8066657,9.329361,-1
206,207,1580694643157,-0.6397,-0.2566,0.32709998,0.08172847,-3.6106187999999997,9.6401,-1
207,208,1580694643168,-0.2254,-0.0583,0.49449998,0.5256422,-3.4099847999999997,9.661629,-1
208,209,1580694643178,0.2835,0.17819999,0.48479998,0.9425877,-3.2453692000000003,9.550136,-1
209,210,1580694643189,0.62149996,0.258,0.3572,1.2451477,-3.1413746,9.519049,-1
210,211,1580694643199,0.92969996,0.38689998,0.3768,1.3964611,-3.116877,9.612615,-1
211,212,1580694643209,1.0467,0.33929998,0.5045,1.1516013999999999,-3.2447562000000003,9.944806,-1
212,213,1580694643219,0.79679996,0.26319999,0.7798,0.9188276,-3.3443167000000003,10.280529,-1
213,214,1580694643229,0.5554,0.1689,1.1144999,0.76860577,-3.4351910000000005,10.5591955,-1
214,215,1580694643240,0.3821,0.0556,1.4691,0.63431984,-3.4738142,11.000418,-1
215,216,1580694643250,0.4556,0.008599999,2.2052,0.79756606,-3.5103307,11.362977,-1
216,217,1580694643261,0.6155,-0.0169,2.2518,0.9642312,-3.5260272000000006,11.406686,-1
217,218,1580694643271,0.8102,0.052899998,2.3560998,1.1464778999999998,-3.4546607000000003,11.526023,-1
218,219,1580694643281,1.2663,0.0845,2.6371,1.6958896,-3.4048707,11.855589,-1
219,220,1580694643291,1.7694,0.0975,2.8692,2.1404737999999996,-3.4179242,12.086993,-1
220,221,1580694643302,2.0042999,-0.0058,3.1801,2.2740605,-3.5191891,12.435646,-1
221,222,1580694643312,1.92,-0.2157,3.5602,2.1212437,-3.7618845000000003,12.825728,-1
222,223,1580694643322,1.7272999,-0.5645,3.8416997999999998,1.8680615000000003,-4.088616399999999,13.062046,-1
223,224,1580694643332,1.5094,-0.7306,4.2202,1.6655791000000002,-4.208499,13.528456,-1
224,225,1580694643342,1.5512999,-0.77959996,4.9319997,1.7529578999999997,-4.2545824,14.269538,-1
225,226,1580694643352,1.787,-0.8303,5.6433,2.0332997,-4.259591,15.122506,-1
226,227,1580694643362,2.1081998,-0.8175,6.3331,2.2555678,-4.243014,15.669294,-1
227,228,1580694643372,2.1647,-0.7866,6.8915,2.246652,-4.1671844,16.162891000000002,-1
228,229,1580694643382,1.9595,-0.73579997,6.9919996,2.0678816,-4.0893826,16.178923,-1
229,230,1580694643392,1.9799,-0.6613,6.6035,2.1450899,-3.8721328,15.752467999999999,-1
230,231,1580694643402,1.9540999,-0.3755,5.9234,2.1257349999999997,-3.5089517,15.072218,-1
231,232,1580694643412,1.7219,-0.3446,5.3464,1.9153613,-3.4055412000000005,14.598232999999999,-1
232,233,1580694643422,1.2793,-0.4723,5.1503,1.4467396000000001,-3.4266677000000003,14.500062,-1
233,234,1580694643432,0.4775,-0.6572,4.8459,0.6821272,-3.4654825,14.14954,-1
234,235,1580694643443,-0.1752,-0.7414,4.3749,0.17827226,-3.3780940000000004,13.746424,-1
235,236,1580694643453,-0.195,-0.75909996,4.0031,0.31129409999999996,-3.2190714,13.407070000000001,-1
236,237,1580694643463,0.1382,-0.6085,3.4861998999999995,0.6558102,-2.9018203999999996,12.900839999999999,-1
237,238,1580694643473,0.48409998,-0.29600000000000004,3.0305998,1.0625563,-2.3624162999999996,12.494162,-1
238,239,1580694643483,0.86579996,-0.0175,2.7639,1.3668402,-1.9985073,12.176316,-1
239,240,1580694643493,0.9774,0.0938,2.2244,1.2579040000000001,-1.8161553,11.576521000000001,-1
240,241,1580694643504,0.69119996,0.0822,1.6371,0.86712235,-1.6813425,11.09497,-1
241,242,1580694643514,0.29099998,0.0637,1.1984,0.44780192,-1.6090183999999998,10.720908999999999,-1
242,243,1580694643524,-0.1591,-0.020399999,0.8204,0.007192181999999999,-1.5304408,10.400661,-1
243,244,1580694643534,-0.5955,-0.098799996,0.6313,-0.401115,-1.4444793,10.387647,-1
244,245,1580694643544,-0.9138,-0.1573,0.6904,-0.53433794,-1.3581252000000001,10.368444,-1
245,246,1580694643554,-0.8203,-0.27359998,0.4678,-0.33532232,-1.3096666000000001,10.125127,-1
246,247,1580694643565,-0.75729996,-0.3096,0.2183,-0.29458258,-1.1791731,9.8411455,-1
247,248,1580694643575,-0.7513,-0.36319998,-0.2547,-0.26854324,-1.0587639,9.166566,-1
248,249,1580694643585,-0.664,-0.3554,-0.78459996,-0.13444879999999998,-0.8394646000000001,8.871935,-1
249,250,1580694643595,-0.5383,-0.2749,-0.9791,-0.10781569,-0.5831988,8.735685,-1
250,251,1580694643605,-0.53569996,-0.162,-1.1617,-0.10389877,-0.41922474,8.510727000000001,-1
251,252,1580694643616,-0.5133,-0.2253,-1.3421999,-0.12410584,-0.35807680000000003,8.37983,-1
252,253,1580694643626,-0.57339996,-0.3202,-1.5205,-0.24979186,-0.40168000000000004,8.051978,-1
253,254,1580694643637,-0.74619997,-0.6063,-2.0102,-0.36883157,-0.5889257,7.332625999999999,-1
254,255,1580694643647,-0.743,-0.87579995,-2.7819,-0.19113392,-0.558098,6.5806546,-1
255,256,1580694643657,-0.452,-0.87689996,-3.5124,0.19209158,-0.3476285,5.838184,-1
256,257,1580694643667,-0.1845,-0.8793,-4.0452,0.17675912,-0.28451738,5.4889660000000005,-1
257,258,1580694643677,-0.2668,-0.96989995,-4.3317,-0.055353942999999996,-0.31141862,5.373709,-1
258,259,1580694643687,-0.5376,-1.1516,-4.46,-0.3717908,-0.38151127,5.280153299999999,-1
259,260,1580694643698,-0.768,-1.3359999999999999,-4.495899700000001,-0.6180679,-0.30158323,5.188962999999999,-1
260,261,1580694643708,-1.0416,-1.3266,-4.5931997,-0.835155,-0.21470244,4.991834,-1
261,262,1580694643718,-1.2756,-1.4051,-4.8029,-1.0595683999999999,-0.26664704,4.691582,-1
262,263,1580694643729,-1.5315,-1.6027,-5.1082,-1.1215878000000001,-0.24397872,4.2288494000000005,-1
263,264,1580694643739,-1.5846,-1.6874,-5.5592,-0.9633789,-0.34066617,3.8716923999999997,-1
264,265,1580694643749,-1.4259,-1.8958,-5.8638,-0.7871273,-0.28694987,3.5421543,-1
265,266,1580694643759,-1.3177999,-1.8964,-6.1716,-0.8138754,-0.27750713,3.3668413,-1
266,267,1580694643770,-1.3658999,-1.9995999,-6.2585998,-1.1432313,-0.36258748,3.8422341,-1
267,268,1580694643780,-1.9366,-1.9545,-5.1159,-1.4479461999999999,-0.21420443,4.533487999999999,-1
268,269,1580694643790,-1.9366,-1.9545,-5.1159,-1.7080043999999999,-0.07808928,5.4097085,-1
269,270,1580694643800,-2.1613998,-1.8075999,-4.246299700000001,-1.87602,0.11507491,6.7369580000000004,-1
270,271,1580694643811,-2.0588999,-1.3347,-1.8258,-1.65877,0.35568259999999996,7.838539599999999,-1
271,272,1580694643821,-1.4485999,-1.1449,-1.36,-1.0672297,0.5277299,8.307603,-1
272,273,1580694643831,-0.7949,-0.8562,-1.4908999,-0.31176338,0.8182232,8.089309,-1
273,274,1580694643841,-0.7949,-0.8562,-1.4908999,0.13321339,0.7707797,7.626106699999999,-1
274,275,1580694643851,0.110599995,-0.9461,-2.6617,0.42467391,0.6877392,6.9526277,-1
275,276,1580694643861,0.1092,-1.1082,-2.7519,0.3099821,0.49378017,6.943731,-1
276,277,1580694643872,-0.3559,-1.3213999,-2.4606,-0.28644228,0.28394276,7.344089500000001,-1
277,278,1580694643881,-1.0009999,-1.4185,-1.6998,-0.8250898000000001,0.19940826,7.985994,-1
278,279,1580694643892,-1.0009999,-1.4185,-1.6998,-1.3348345,0.15384182,8.747666,-1
279,280,1580694643902,-1.8993,-1.3239,-0.48209998,-1.8326369999999998,0.24203464,9.285596,-1
280,281,1580694643912,-2.1461,-1.2818999,-0.20969999,-2.0551827,0.26295996,9.470619000000001,-1
281,282,1580694643922,-2.1512,-1.2875999,-0.44579998,-1.9639925,0.2795853,9.112025,-1
282,283,1580694643933,-1.8399999,-1.2109,-0.88689995,-1.5818778,0.39385575,8.668629,-1
283,284,1580694643943,-1.3389,-1.0468,-1.3377,-1.1004611999999998,0.54353166,8.236369999999999,-1
284,285,1580694643953,-0.9127,-0.9083,-1.6126,-0.66830784,0.66645956,8.043493,-1
285,286,1580694643963,-0.5726,-0.82129997,-1.5945,-0.4619277,0.7643729,8.221544999999999,-1
286,287,1580694643973,-0.496,-0.6852,-1.1856999,-0.40148845,0.9258281999999999,8.72359,-1
287,288,1580694643983,-0.3514,-0.4635,-0.6602,-0.2768942,1.1015339,9.208003999999999,-1
288,289,1580694643994,-0.34829998,-0.27969998,-0.2917,-0.34675702,1.25596,9.572057000000001,-1
289,290,1580694644003,-0.4174,-0.1173,0.1261,-0.39361632,1.3456084,10.029359,-1
290,291,1580694644013,-0.4152,-0.0779,0.43699998,-0.35901532,1.3617454,10.151328999999999,-1
291,292,1580694644024,-0.30449998,-0.048499997999999996,0.37669998,-0.21979728,1.4004643,10.069139999999999,-1
292,293,1580694644034,0.0050999997,0.0025,0.2686,0.12514971,1.4244831,9.952294,-1
293,294,1580694644044,0.37449998,0.0407,0.0923,0.59857917,1.5066712,9.742064,-1
294,295,1580694644055,0.7309,0.1688,0.0039999996999999995,0.9029588,1.6515203999999999,9.737687,-1
295,296,1580694644065,0.958,0.3505,0.0915,1.0828208000000001,1.8411986,9.917415,-1
296,297,1580694644075,0.958,0.3505,0.0915,0.85404044,1.8450868000000002,10.075299000000001,-1
297,298,1580694644086,0.6511,0.4301,0.3532,0.55492806,1.8084171000000002,10.029923,-1
298,299,1580694644096,0.4789,0.38799998,0.313,0.50888276,1.7579379000000002,10.056528,-1
299,300,1580694644106,0.44799998,0.3354,0.4102,0.4909071,1.6871843,10.214919,-1
300,301,1580694644116,0.382,0.2615,0.5272,0.34744656,1.5694567,10.304826,-1
301,302,1580694644126,0.2243,0.1266,0.5956,0.26137978,1.4607695,10.28235,-1
302,303,1580694644136,0.20539999,0.069,0.5366,0.32294905,1.5266387,10.241610000000001,-1
303,304,1580694644146,0.29009998,0.1796,0.51669997,0.43854114,1.5737567,10.195957,-1
304,305,1580694644157,0.41059998,0.2038,0.42769998,0.5217732,1.6033585,10.093188,-1
305,306,1580694644167,0.47939998,0.2792,0.36789998,0.5968266,1.6559736,10.106011,-1
306,307,1580694644177,0.5236,0.28779998,0.39609998,0.38717115,1.5331702,10.117303,-1
307,308,1580694644187,0.2947,0.1595,0.3947,0.11109096,1.298117,10.126161999999999,-1
308,309,1580694644197,0.0252,-0.08779999599999999,0.3937,-0.11058339,1.1204385000000001,10.056068,-1
309,310,1580694644207,-0.1318,-0.2307,0.3049,-0.17175046,1.0756382,9.924866999999999,-1
310,311,1580694644217,-0.1681,-0.23079999,0.19699999999999998,-0.13215993,1.1191072,9.905713,-1
311,312,1580694644228,-0.1135,-0.1946,0.1582,-0.08473559,1.1946108,9.794258000000001,-1
312,313,1580694644238,-0.079799995,-0.1003,0.0018,-0.01946007,1.2873813,9.543728999999999,-1
313,314,1580694644248,-0.012999999,-0.0431,-0.2136,0.12518802,1.2928688999999998,9.536709,-1
314,315,1580694644259,0.1153,-0.0312,-0.16489999,0.18251479,1.2963262,9.628627,-1
315,316,1580694644269,0.1661,-0.0458,-0.12629999,0.20812316,1.2336746,9.458524,-1
316,317,1580694644279,0.18879999,-0.099599995,-0.2741,0.3287239,1.2197021000000001,9.540204,d
317,318,1580694644289,0.3213,-0.092099994,-0.18689999,0.5987133000000001,1.3084121000000002,9.556274,-1
318,319,1580694644299,0.6616,0.0256,-0.1784,0.8651687,1.4901223999999997,9.542081,-1
319,320,1580694644309,0.9044,0.20269999,-0.1994,1.1331662,1.5806328,9.54753,-1
320,321,1580694644320,1.3422999,0.4091,-0.2007,1.8939380000000001,2.122891,9.330453,-1
321,322,1580694644330,1.9037,0.8394,-0.39799999999999996,2.5127816000000003,2.5402958,8.812386,-1
322,323,1580694644340,2.5246,1.2702999,-0.91899997,3.0100862999999998,2.696714,8.518637,-1
323,324,1580694644350,3.5051,1.4455999,-1.4544,3.4551298999999998,2.6658192,8.29067,-1
324,325,1580694644360,3.5051,1.4455999,-1.4544,3.7070575,2.6861506,8.540422999999999,-1
325,326,1580694644370,3.7921998999999995,1.5072,-1.2042999,3.6988692000000003,2.682224,9.170347,-1
326,327,1580694644381,3.5653,1.5782,0.1576,3.4373267,2.654059,9.917349,-1
327,328,1580694644391,3.5653,1.5782,0.1576,3.2841837,2.6899526000000002,10.30745,-1
328,329,1580694644401,3.5621998,1.8536999,0.8846,3.4367997999999997,2.8528254,10.651679,-1
329,330,1580694644411,4.2285,2.0939999,0.9015,4.332221499999999,3.115728,10.614519999999999,-1
330,331,1580694644421,4.2285,2.0939999,0.9015,5.1276236,3.1532977000000004,10.19568,-1
331,332,1580694644431,5.7991,2.036,0.0047999997999999995,5.7220554,2.9731867000000003,9.776176,-1
332,333,1580694644441,5.7991,2.036,0.0047999997999999995,6.0491133,2.8348593999999996,10.013183999999999,-1
333,334,1580694644452,6.5653996,1.9332999,1.6918,6.453915599999999,2.7529106,11.477209,-1
334,335,1580694644462,6.5046,1.9575,3.6662998,6.234961,2.6511953,13.822569,-1
335,336,1580694644472,5.9925,1.8869999999999998,5.4165,5.7584667000000005,2.5209412999999996,15.216109,-1
336,337,1580694644482,5.4209,1.6201999,6.452999999999999,5.1299314,2.1741745,16.247664999999998,-1
337,338,1580694644492,4.5731997,1.1912999,6.7363,4.033368,1.591014,16.654125,-1
338,339,1580694644503,3.4905,0.3933,7.2068996,2.933146,0.70441246,17.086584,-1
339,340,1580694644513,2.1524,-0.6849,7.443,1.5338215,-0.36711732,17.208076000000002,-1
340,341,1580694644523,0.5613,-1.7745999,7.0920997,0.2873138,-1.1882518999999998,16.890660999999998,-1
341,342,1580694644533,-0.95559996,-2.8411999,6.4487996,-1.8134831999999999,-2.49472,15.994225,-1
342,343,1580694644543,-2.5618,-3.5795,5.9045,-3.3864355,-2.9915743,15.647239,-1
343,344,1580694644553,-3.8302,-3.8976998,6.0957,-4.5256066,-3.1512194,16.14486,-1
344,345,1580694644564,-4.7701,-3.9327,6.8845997,-5.4766307,-3.0642812000000004,17.073627,-1
345,346,1580694644574,-5.5334,-3.8539999,8.0562,-6.100091,-3.1094744,18.356306,-1
346,347,1580694644584,-5.8725,-4.2869,9.140699,-6.4254723,-3.6360069999999998,19.018963,-1
347,348,1580694644594,-6.1352,-4.862,9.0904,-6.7584195000000005,-3.9935381000000003,18.534979999999997,-1
348,349,1580694644605,-6.5127997,-5.1991,8.0542,-7.159199,-4.332452,16.879580999999998,-1
349,350,1580694644615,-6.7454,-5.6959,6.5530996,-7.2255573,-4.497393,15.661373999999999,-1
350,351,1580694644625,-6.9245,-5.9339,5.0387,-7.4772929999999995,-4.5508504,14.196764000000002,-1
351,352,1580694644635,-7.4045,-6.3949,3.7849,-8.191531,-4.8808675,13.049577000000001,-1
352,353,1580694644645,-8.3894,-6.7511997,2.9271998,-9.157285,-4.8780518,12.328453,-1
353,354,1580694644655,-8.9892,-6.7637997,2.445,-9.62107,-4.614441,11.861574000000001,-1
354,355,1580694644666,-9.283299000000001,-6.4862,1.9951999,-9.866964999999999,-4.0148273,11.310717,-1
355,356,1580694644676,-9.215799,-6.2107997,1.6768999,-9.512651,-3.6505157999999995,11.016525999999999,-1
356,357,1580694644686,-8.6421995,-6.0425,1.3541,-8.94086,-3.3724915999999996,10.307229,-1
357,358,1580694644696,-8.1708,-6.0446,0.43019998,-8.651534,-3.3016998999999996,9.074024,-1
358,359,1580694644706,-7.9023,-6.214299700000001,-0.75079995,-8.221832000000001,-3.236386,7.925851299999999,-1
359,360,1580694644716,-7.3831997000000005,-6.3775997,-1.6708,-7.616865,-3.1847958999999997,6.655871,-1
360,361,1580694644727,-6.8839999999999995,-6.518399700000001,-2.7925,-7.3359776,-2.9770844,5.7989483,-1
361,362,1580694644737,-6.5428,-6.3633,-3.5986998,-7.081809,-2.592365,5.387653,-1
362,363,1580694644747,-6.2517,-6.0039,-3.7105,-6.837217999999999,-2.0138876,5.3161044,-1
363,364,1580694644758,-6.0425,-5.8051996,-3.6675,-6.6151979999999995,-1.7807976000000003,5.2170806,-1
364,365,1580694644769,-5.7952,-5.815,-3.7124,-6.3339567,-1.7751759999999999,4.8746614,-1
365,366,1580694644779,-5.500099700000001,-6.013099700000001,-4.0775,-6.164006,-1.8912183,4.071982,-1
366,367,1580694644789,-5.3483,-6.3066998,-4.8682,-6.005041,-1.9446471999999997,3.0224497,-1
367,368,1580694644799,-5.1568,-6.5288997,-5.8490996,-5.549826599999999,-2.0188866,1.9689244,-1
368,369,1580694644809,-4.6842,-6.8068,-6.7679,-4.7897253,-1.9072019,0.6546225999999999,-1
369,370,1580694644820,-4.0983,-6.8163,-7.8115997,-4.341023000000001,-1.6053792,-0.07871178,-1
370,371,1580694644830,-3.0440998,-6.3205,-8.7392,-3.6093931000000006,-1.1111683,-0.46170740000000005,-1
371,372,1580694644840,-3.0440998,-6.3205,-8.7392,-3.1619650000000004,-1.0239905,-0.52314264,-1
372,373,1580694644851,-2.6889,-6.343999999999999,-8.725699,-2.8243728,-1.0244502,-0.52645624,-1
373,374,1580694644861,-2.123,-6.6721,-8.6765995,-2.3875554,-1.1495712,-0.5873647,-1
374,375,1580694644871,-1.1501,-6.7874,-8.8399,-1.3050888999999999,-1.2018796,-0.7903068,-1
375,376,1580694644881,-0.0346,-6.3898997,-8.9283,0.12344504,-0.6178571999999999,-0.94862103,-1
376,377,1580694644891,0.6548,-5.7446,-9.1283,0.90978706,0.016673221999999998,-1.1223252000000001,-1
377,378,1580694644901,0.6548,-5.7446,-9.1283,1.6202329,0.45318407,-0.74683774,-1
378,379,1580694644911,2.2495,-4.646,-8.2043,2.9065895,1.099111,-0.19898689,-1
379,380,1580694644922,3.4076,-4.245199700000001,-8.4215,4.3133745,1.454037,-0.52436846,-1
380,381,1580694644932,4.9158998,-3.9643998,-8.8435,6.048548,1.7041928,-0.88332635,-1
381,382,1580694644942,6.5283,-3.6866,-8.8285,7.926914699999999,1.928606,-0.75602186,-1
382,383,1580694644952,8.012899,-3.4118998,-8.325,9.252383,2.091977,-0.30346984,-1
383,384,1580694644963,8.7212,-3.0272,-7.5548997,10.242922,2.487413,0.7576212,-1
384,385,1580694644973,8.4208,-2.267,-6.0895,9.935621000000001,3.1017265,2.3915393,-1
385,386,1580694644983,8.0067,-1.885,-4.5301,9.958575999999999,3.1871996,4.161391,-1
386,387,1580694644993,8.5971,-1.7227999,-3.5082998,10.759197,3.278936,4.9174128,-1
387,388,1580694645003,9.9459,-1.2738,-2.8934999,12.374844,3.5759892,5.5222169999999995,-1
388,389,1580694645014,11.276999,-0.91529995,-2.4671,14.122429,3.8226303999999995,5.9893160000000005,-1
389,390,1580694645024,12.785,-0.6028,-2.3934999,15.9423,3.9836642999999996,5.9670877,-1
390,391,1580694645034,14.266298999999998,-0.18949999,-2.5967,17.260979000000003,4.3969607,5.708141,-1
391,392,1580694645044,14.7943,0.4179,-2.7517998,17.430994000000002,4.768358999999999,5.776193,-1
392,393,1580694645054,13.912498999999999,0.8484,-2.45,16.152328,4.981098,6.172079599999999,-1
393,394,1580694645065,12.7048,1.0352,-2.1834,15.373820000000002,4.8424263,6.369113,-1
394,395,1580694645075,12.4597,0.80329996,-2.362,15.440484,4.3939734,6.147304,-1
395,396,1580694645085,12.7515,0.6112,-2.4606,15.962573,4.1132865,6.419506,-1
396,397,1580694645095,13.3901,0.4852,-1.6460999,16.692259,3.8302057,7.5480657,-1
397,398,1580694645105,13.7838,0.3953,-0.5042,16.829935,3.6042504,8.894899,-1
398,399,1580694645115,13.509998999999999,0.31579998,0.6056,16.203909,3.3456287000000002,9.894432,-1
399,400,1580694645126,12.663,0.2182,1.2612,15.254157999999999,3.2641107999999996,9.832277000000001,-1
400,401,1580694645136,11.7237,0.3399,0.6895,14.233970000000001,3.1337419,8.921984,-1
401,402,1580694645146,10.5751,0.1043,-0.38509998,12.816142999999999,2.5371547000000003,7.8545523,-1
402,403,1580694645156,9.1595,-0.4737,-1.3829,11.442158000000001,1.8014740000000002,7.204852000000001,-1
403,404,1580694645166,7.9610996,-1.1435,-1.8328999,10.417076,0.9845245,7.147353,-1
404,405,1580694645176,7.0565996,-1.9016,-1.7286999,9.465889,0.17455646,7.576777000000001,-1
405,406,1580694645187,6.155999700000001,-2.5634,-1.2645,8.548565,-0.61084706,7.9280157,-1
406,407,1580694645197,5.1868,-3.2342,-1.2120999,7.669557000000001,-1.16408,7.5375314,-1
407,408,1580694645208,4.661299700000001,-3.4957,-1.7974,7.800539,-1.2142433000000001,7.029395599999999,-1
408,409,1580694645218,4.8671,-3.4146,-2.0864,7.449396000000001,-1.291691,7.1145043,-1
409,410,1580694645228,4.2873,-3.4498,-1.9224,6.168526,-1.6653588,7.733827000000001,-1
410,411,1580694645239,2.9538999,-3.7742,-1.2512,4.57576,-2.1801696,8.481929,-1
411,412,1580694645249,1.3987,-4.1783,-0.6268,2.9474921000000003,-2.690259,8.762012,-1
412,413,1580694645259,-0.1269,-4.5959,-0.46379998,1.6077831,-3.1760905,8.762874,-1
413,414,1580694645269,-1.3261,-5.0259,-0.56909996,0.25421634,-3.7739703999999996,7.6936812,-1
414,415,1580694645280,-3.4055,-5.3374,-3.2089999,-0.7827699,-3.7419648000000003,6.102418,-1
415,416,1580694645290,-3.4055,-5.3374,-3.2089999,-1.3865589,-3.601071,5.2263412,-1
416,417,1580694645300,-4.0028,-5.017299700000001,-4.5688,-2.0235984,-3.5357091,4.6988792,-1
417,418,1580694645311,-4.5332,-5.017299700000001,-4.5688,-2.6800599999999997,-3.7340449999999996,4.7551239999999995,-1
418,419,1580694645321,-6.2830997,-5.7669,-3.6225,-3.651445,-4.498657,5.7469077,-1
419,420,1580694645331,-6.2830997,-5.7669,-3.6225,-5.1704125,-5.7390547,7.758315,-1
420,421,1580694645341,-10.309899,-7.9298997,0.5057,-8.332502,-7.235277000000001,10.30927,-1
421,422,1580694645351,-13.2328,-8.5007,1.9851999,-11.290566,-7.8397559999999995,11.617299000000001,-1
422,423,1580694645361,-15.6845,-8.140699,2.4886,-13.5366535,-7.5280023,11.990363,-1
423,424,1580694645372,-16.3971,-7.3525996,2.4592,-13.875414000000001,-6.948021000000001,11.984789,-1
424,425,1580694645382,-15.1754,-6.5537,2.4752,-12.793973,-6.4510713,11.997881,-1
425,426,1580694645392,-13.842,-5.7525,2.6246,-11.311799,-5.7860000000000005,12.232358999999999,-1
426,427,1580694645402,-13.2507,-5.3876,3.2289999,-10.944873,-5.7131205000000005,12.991541999999999,-1
427,428,1580694645412,-13.7049,-5.3704,4.2394,-11.639517,-5.9650006,13.949318,-1
428,429,1580694645423,-14.921598999999999,-5.6783,5.0481,-13.250824,-6.714472,14.841196,-1
429,430,1580694645433,-16.270899,-6.2393,5.6071,-14.285186999999999,-7.319486,15.154635,-1
430,431,1580694645443,-17.031399,-6.4866,5.3554,-14.875692,-7.6691647,14.596212,-1
431,432,1580694645453,-16.6003,-6.3622,4.9572,-14.027254000000001,-7.5079193,14.507798999999999,-1
432,433,1580694645463,-15.209499,-5.5172,5.601,-12.364243,-6.7657175,15.774906,-1
433,434,1580694645474,-12.9811,-4.602999700000001,7.6629,-10.094165,-6.0842222999999995,17.95474,-1
434,435,1580694645484,-10.7536,-3.7222,9.5342,-8.093311,-5.513339,19.445784,-1
435,436,1580694645494,-8.8414,-3.1128,10.553699499999999,-6.5507464,-5.2809669999999995,20.040043,-1
436,437,1580694645504,-7.4234,-2.8091,10.383699,-5.280067,-5.197103,19.184786,-1
437,438,1580694645514,-6.3766,-2.7559,8.696899,-4.4509360000000004,-5.4517126,17.280909,-1
438,439,1580694645524,-5.2207,-3.0472999,7.016,-3.0673745,-5.8996673,15.736388,-1
439,440,1580694645535,-3.8744998,-3.1292999,6.4263,-1.9717592000000002,-5.908775,16.228282999999998,-1
440,441,1580694645545,-2.0505,-2.7819,8.641,-0.12730450000000001,-5.628309,19.38158,-1
441,442,1580694645555,-0.0242,-2.2726,12.2486,1.9004884999999998,-5.1602902,23.10509,-1
442,443,1580694645565,1.6288999,-1.6725,14.5499,3.2957144,-4.7685122,24.105234,-1
443,444,1580694645575,3.1931,-1.2974,14.7183,4.7019343000000005,-4.5885067,23.018535999999997,-1
444,445,1580694645585,4.6671,-1.1357,12.9344,6.052896,-4.520042,20.608636999999998,-1
445,446,1580694645596,6.1057997,-1.1349,10.397699000000001,7.2409186000000005,-4.595660700000001,18.29691,-1
446,447,1580694645606,7.2654,-1.3204,8.489699,8.222980999999999,-4.605735299999999,17.418402,-1
447,448,1580694645616,8.366799,-1.2008,8.3751,9.475494,-4.20236,18.374205,-1
448,449,1580694645626,9.735499,-0.8401,9.683,10.756765,-3.7391300000000003,19.719202,-1
449,450,1580694645636,10.9368,-0.428,10.712,11.875643,-3.0628542999999997,20.07135,-1
450,451,1580694645647,11.7994995,0.0361,10.6159,12.531376,-2.7153215,19.423822,-1
451,452,1580694645657,12.5576,0.24939999,9.5329,13.256743,-2.2793758,17.736227,-1
452,453,1580694645668,13.1285,0.5014,8.0148,13.6653185,-1.8361995,16.478497,-1
453,454,1580694645678,13.510098999999999,0.7611,6.7904,13.833017000000002,-1.3938947,15.539873000000002,-1
454,455,1580694645688,13.637799,1.0231,5.8519998,13.700312,-1.0357889999999998,14.938842000000001,-1
455,456,1580694645699,13.474998999999999,1.1694,5.2391996,13.390482,-0.85566854,14.27922,-1
456,457,1580694645710,13.1157,1.1093998999999999,4.4714,12.651661,-0.9074599,12.818489,-1
457,458,1580694645720,12.4809,0.84,3.1564999,11.866286,-1.0244309999999999,11.336439,-1
458,459,1580694645730,10.9063,0.116299994,-0.0309,11.129398,-1.1694719,9.698049000000001,-1
459,460,1580694645740,10.9063,0.116299994,-0.0309,10.287579,-1.254782,8.361357,-1
460,461,1580694645750,9.3629,-0.4069,-2.1756,9.649447,-1.2666093,7.5957103,-1
461,462,1580694645760,9.3629,-0.4069,-2.1756,9.218864,-1.2805053,7.3479967,-1
462,463,1580694645771,8.7752,-0.7163,-2.4930000000000003,9.1221,-1.2053847,7.3048244,-1
463,464,1580694645781,9.0131,-0.67249995,-2.8909,9.378825,-1.005354,6.908220299999999,-1
464,465,1580694645791,9.0131,-0.67249995,-2.8909,10.079905499999999,-0.70668215,6.987813,-1
465,466,1580694645801,9.5596,-0.60649997,-2.8938,10.493585000000001,-0.61551094,7.6335387,-1
466,467,1580694645811,9.7563,-0.8502,-1.892,10.030316000000001,-0.82684237,7.937593,-1
467,468,1580694645822,8.6067,-1.3905,-1.7126,8.796278,-1.3033938,8.135553999999999,-1
468,469,1580694645832,7.085,-2.1064,-1.5416,7.2404394,-1.87602,8.294023,-1
469,470,1580694645842,5.3924,-2.7078,-1.4374,5.601953,-2.3650596,8.314287,-1
470,471,1580694645852,4.0256,-3.199,-1.8603,4.372789,-2.6691325,7.782678,-1
471,472,1580694645863,3.1906998,-3.3625,-2.5844998,3.7855775,-2.6529477000000004,7.1842136,-1
472,473,1580694645872,2.875,-3.3653,-3.1697998,3.478057,-2.4866946,6.516615,-1
473,474,1580694645882,2.9055998,-3.1504998,-3.372,3.6384013,-2.1066293999999997,6.362601000000001,-1
474,475,1580694645892,3.0834,-2.8804,-3.3200998,3.7822258,-1.7410157,6.454758,-1
475,476,1580694645902,2.7691,-2.8284,-2.9468,3.2245684,-1.7243903000000003,7.000014,-1
476,477,1580694645912,1.6494,-3.1831,-2.2621,1.9521457999999998,-2.142188,7.585779,-1
477,478,1580694645923,0.071499996,-3.7917,-1.9401,0.37792954,-2.6104267000000005,7.7910580000000005,-1
478,479,1580694645933,-1.8436999,-4.3025,-1.9388,-1.8258948,-3.085695,7.6823993,-1
479,480,1580694645943,-3.4327,-4.6008997,-2.1487,-3.2443252,-3.131884,7.442165400000001,-1
480,481,1580694645953,-4.5959997,-4.5347,-2.2561998,-4.092773,-2.9117131,7.416585400000001,-1
481,482,1580694645963,-5.2079997,-4.4537,-2.2742,-4.559949,-2.71332,7.268192999999999,-1
482,483,1580694645974,-5.6309,-4.2894,-2.5202,-4.7584567,-2.4574757000000003,7.0508666,-1
483,484,1580694645984,-5.4261,-4.0657997,-2.5454,-4.254918,-2.1343732,7.1286016000000005,-1
484,485,1580694645994,-4.7023,-3.7515998,-2.3604,-3.5443665999999996,-1.8254735,7.303244,-1
485,486,1580694646004,-4.1947,-3.5658998,-2.1316,-3.2478592,-1.6889465,7.660976,-1
486,487,1580694646014,-4.1537,-3.5821998,-1.5832,-3.3624551,-1.7854807000000001,8.259163000000001,-1
487,488,1580694646024,-4.554199700000001,-3.6618998,-0.9181,-3.9112253,-1.7946266,8.938063,-1
488,489,1580694646035,-5.0783997,-3.6689999999999996,-0.28959998,-4.469113,-1.8010335,9.514510000000001,-1
489,490,1580694646045,-5.6933,-3.6488,0.1765,-5.1372867,-1.6803273999999997,9.909975,-1
490,491,1580694646055,-6.1745996,-3.4926,0.35209998,-5.260837,-1.3194348999999999,9.854506,-1
491,492,1580694646065,-6.0752,-3.0672998,0.1365,-4.851189,-0.89467484,9.337205,-1
492,493,1580694646075,-5.5572,-2.7278,-0.48299998,-4.2119083,-0.5304306,8.787142,-1
493,494,1580694646085,-4.8715,-2.399,-0.91029996,-3.5573049,-0.19424637,8.603736,-1
494,495,1580694646096,-4.2014,-2.0685,-0.9589,-2.8922818,0.12451764,8.720497,-1
495,496,1580694646106,-3.5328998999999994,-1.7774999,-0.7356,-2.3043714,0.44814667,8.956622,-1
496,497,1580694646116,-2.9879,-1.4516,-0.4746,-2.006925,0.73871654,9.326201,d
497,498,1580694646126,-2.7773,-1.2245,-0.10529999400000001,-1.9405388,0.92499506,9.544398,-1
498,499,1580694646136,-2.7221,-1.0352,-0.0962,-1.8660695999999999,1.1714159,9.160895,-1
499,500,1580694646147,-2.5881998999999998,-0.7955,-0.6904,-1.6996247,1.4418553,8.455976,-1
500,501,1580694646157,-2.3703,-0.5358,-1.3324,-1.4309186,1.6802795,8.046538,-1
501,502,1580694646167,-2.0691,-0.35999998,-1.5119,-1.015448,1.8786821,8.196052,-1
502,503,1580694646177,-1.7245,-0.2136,-1.3015,-0.7867634,2.057175,8.344023,-1
503,504,1580694646187,-1.4473,-0.0359,-1.1731,-0.54895216,2.225621,8.423395,-1
504,505,1580694646197,-1.2483,0.0918,-1.1063,-0.37731662,2.3312535,8.497088,-1
505,506,1580694646208,-1.0454999,0.21579999,-1.0313,-0.14809573,2.4286304,8.598498,-1
506,507,1580694646218,-0.78639996,0.3028,-0.96639997,0.13701539,2.5005328999999996,8.595193,-1
507,508,1580694646228,-0.48439997,0.37939999,-0.9596,0.5463281,2.5987337000000004,8.773916,-1
508,509,1580694646238,-0.0412,0.4854,-0.7366,0.8495681,2.6340432000000003,9.079991,-1
509,510,1580694646248,0.2034,0.5342,-0.41579998,0.857469,2.661768,9.3725815,-1
510,511,1580694646259,0.1759,0.564,-0.1638,0.7131273,2.6104267000000005,9.375244,-1
511,512,1580694646269,0.0257,0.48499998,-0.2356,0.3684772,2.286635,8.957063,-1
512,513,1580694646280,-0.2479,0.1972,-0.611,0.08162312,2.0355694,8.715977,-1
513,514,1580694646290,-0.525,-0.0438,-0.8581,0.06405926,1.8479598999999998,8.642694,-1
514,515,1580694646300,-0.53499997,-0.23519999,-0.9382,0.27157909999999996,1.8714421,8.752205,-1
515,516,1580694646310,-0.31489998,-0.1971,-0.83239996,0.46627557,1.9622302,9.198705,-1
516,517,1580694646320,0.0265,-0.0359,0.062,0.60753345,1.9926270000000001,9.653249,-1
517,518,1580694646330,0.2015,0.1396,0.2243,0.7700902,2.1572428,9.817635000000001,-1
518,519,1580694646341,0.2015,0.1396,0.2243,0.89620715,2.255903,9.670506,-1
519,520,1580694646351,0.33249998,0.1847,-0.253,0.8899630999999999,2.1758027,9.339819,-1
520,521,1580694646361,0.205,0.1039,-0.5493,0.7438880999999999,2.0970720000000003,9.059016999999999,-1
521,522,1580694646371,0.0423,-0.036399997999999996,-0.5607,0.5348071999999999,1.9230803,9.076409,-1
522,523,1580694646381,-0.15529999,-0.039,-0.415,0.3820763,1.9314696,9.184627,-1
523,524,1580694646391,-0.15529999,-0.039,-0.415,0.20614076,1.9210979,9.2201185,-1
524,525,1580694646402,-0.50119996,-0.0535,-0.4958,0.028337771,1.9090311999999998,9.089165,-1
525,526,1580694646412,-0.5352,-0.0026999997999999996,-0.5665,0.054712295999999994,1.9543101999999999,9.057811000000001,-1
526,527,1580694646422,-0.35999998,0.053799997999999995,-0.4816,0.24011928,1.9857125,9.148551,-1
527,528,1580694646432,-0.1328,0.1158,-0.3392,0.5028781,2.0406451,9.321144,-1
528,529,1580694646442,0.23439999,0.3099,-0.0211,0.8780878000000001,2.2491226,9.771302,-1
529,530,1580694646453,0.54499996,0.48619998,0.3454,1.1472343,2.3962896000000002,10.037815,-1
530,531,1580694646463,0.631,0.60139996,0.43799999999999994,1.1023862,2.43588,10.08252,-1
531,532,1580694646473,0.44099998,0.6038,0.42369998,0.9270156999999999,2.377021,10.053473,-1
532,533,1580694646483,0.1857,0.47349998,0.4402,0.6010404,2.2002234,10.085536,-1
533,534,1580694646494,-0.1453,0.41799998,0.44799998,0.31353506,2.1869403999999997,10.088821000000001,-1
534,535,1580694646504,-0.44009998,0.3725,0.54429996,0.028385654,2.1063992999999996,10.323405000000001,-1
535,536,1580694646514,-0.5949,0.36200000000000004,0.9826,-0.07311892,2.1157846,10.90897,-1
536,537,1580694646524,-0.61289996,0.37039998,1.7522,-0.09099882,2.0803027,11.756843,-1
537,538,1580694646534,-0.7549,0.40629998,2.5786998,-0.29623938,2.1647987,12.539776,-1
538,539,1580694646544,-0.85499996,0.69949996,3.2278,-0.39249584,2.4208446,13.079572,-1
539,540,1580694646554,-0.9059,0.9206,3.6222,-0.52835244,2.5702426,13.414176000000001,-1
540,541,1580694646565,-1.0776,1.0278,3.8411,-0.78477144,2.5727324,13.528522500000001,-1
541,542,1580694646575,-1.2669,0.92069995,3.7770998,-0.95322746,2.394623,13.429201999999998,-1
542,543,1580694646585,-1.3476,0.76379997,3.8133998,-1.051361,2.235878,13.794184,-1
543,544,1580694646595,-1.4123,0.648,4.3810997,-1.1638694,2.169865,14.251954999999999,-1
544,545,1580694646605,-1.7408999,0.5261,5.2541,-1.7588476999999998,2.0206392,15.414895000000001,-1
545,546,1580694646615,-2.2826,0.4856,5.9319997,-2.3775763999999997,2.1222205,15.719716,-1
546,547,1580694646625,-2.8474998,0.64269996,5.924299700000001,-2.7125924,2.2443342,15.524914,-1
547,548,1580694646635,-3.1701999,0.6015,5.3203,-3.1091293999999996,2.078799,14.491365,-1
548,549,1580694646645,-3.2996,0.332,4.3754,-3.256823,1.8072201,13.293660999999998,-1
549,550,1580694646657,-3.3981998,-0.0075,3.1094,-3.3752498999999996,1.6163063999999998,12.326882000000001,-1
550,551,1580694646667,-3.3616998,-0.22399999,2.2175,-3.1953688,1.5186995,11.741394999999999,-1
551,552,1580694646677,-3.0347998,-0.3074,2.1097999,-2.9624798,1.5503796,11.862034,-1
552,553,1580694646687,-2.8155,-0.26369998,2.3441,-2.740116,1.7044226000000002,12.23734,-1
553,554,1580694646697,-2.5462,-0.18509999,2.6464,-2.4839747,1.7370316000000003,12.275053,-1
554,555,1580694646708,-2.2287,-0.2051,2.6062,-2.2764359,1.7416573,11.968518,-1
555,556,1580694646718,-1.9799999,-0.24039999,2.1065,-2.1517456000000004,1.7789876,11.043610000000001,-1
556,557,1580694646728,-1.8115,-0.2514,1.2456,-1.9828491000000001,1.8243817,10.242874,-1
557,558,1580694646738,-1.6099,-0.2503,0.5417,-1.9355971999999997,1.8119988,9.772442,-1
558,559,1580694646748,-1.5186,-0.3281,0.1603,-1.9479895,1.7798783,9.855061,-1
559,560,1580694646759,-1.4542999,-0.3773,0.35619998,-1.673863,1.8051707,10.307048,-1
560,561,1580694646769,-1.1276,-0.37289998,0.7475,-1.6897604,1.8263353,10.113978999999999,-1
561,562,1580694646779,-1.1321,-0.361,0.4437,-2.0652863999999997,1.9554498,9.445336,-1
562,563,1580694646789,-1.4705,-0.23449999,-0.2601,-2.6309310000000004,2.079297,8.406377,-1
563,564,1580694646799,-2.0042999,-0.1467,-1.3648,-3.1302654999999997,2.3162751,7.260254,-1
564,565,1580694646810,-2.2828,0.060999997,-2.4076998,-3.1193767000000006,2.2871425,6.858851400000001,-1
565,566,1580694646821,-2.1650999,-0.013599999,-2.6341,-3.2991238,1.9358461999999999,7.068832400000001,-1
566,567,1580694646831,-2.0637999,-0.9141,-2.4541,-3.2188702,1.346614,7.0364437,-1
567,568,1580694646841,-1.5932,-1.4182,-2.3025,-2.8395903,0.6961668000000001,7.203607000000001,-1
568,569,1580694646851,-1.4438,-1.6183,-2.2786999,-2.848784,0.52806515,7.20172,-1
569,570,1580694646862,-1.2156999,-1.6599,-2.2745,-2.6647656000000004,0.4255933,7.2036166,-1
570,571,1580694646871,-1.2156999,-1.6599,-2.2745,-2.2362992999999998,0.3699425,7.2117667,-1
571,572,1580694646881,0.13509999,-1.5646,-2.1822999,-1.5081746999999999,0.45905465,7.286436999999999,-1
572,573,1580694646891,1.0258,-1.1743,-1.9296999,-0.41438842,0.9302335999999999,7.595624000000001,-1
573,574,1580694646901,2.0979,-0.5956,-1.7968998999999999,0.7124953,1.5088258999999997,7.6624603,-1
574,575,1580694646912,3.0212,-0.2278,-1.8607,1.5804988000000002,1.811319,7.615965400000001,-1
575,576,1580694646922,3.2893999,-0.1924,-2.0511,1.7835845000000001,1.8421563000000003,7.4385257,-1
576,577,1580694646932,3.1188998,-0.50659996,-2.8962998,1.6176089,1.4705473,6.426152,-1
577,578,1580694646942,2.7261,-0.96019995,-3.495,1.2615336000000001,1.0822846000000002,5.937965,-1
578,579,1580694646953,2.3746998,-1.2369,-3.5454,0.94625556,0.8613284,5.9388556,-1
579,580,1580694646963,2.0126998,-1.2681,-3.6165,0.73020273,0.9267859,5.8744326,-1
580,581,1580694646973,2.1448,-1.1401,-3.4431,1.0957017,1.1396591999999999,6.1311007,-1
581,582,1580694646983,2.355,-0.9174,-3.3295,1.296853,1.3796155,6.133935,-1
582,583,1580694646993,2.4902,-0.69439995,-3.3925,1.5613066999999998,1.5990586000000002,6.1702886,-1
583,584,1580694647004,2.885,-0.5083,-3.1329,2.0357513,1.7938221999999997,6.5217480000000005,-1
584,585,1580694647014,3.2361,-0.33359998,-2.9429998,2.4254127,1.8889868000000003,6.572303999999999,-1
585,586,1580694647024,3.6374998,-0.3324,-2.8025,2.84639,1.8554583999999998,6.8684955,-1
586,587,1580694647034,3.9016,-0.4052,-2.3195999,3.0332812999999996,1.727043,7.448927,-1
587,588,1580694647045,3.7877998,-0.47309998,-1.749,2.7696892999999996,1.7268226999999998,7.9578667,-1
588,589,1580694647055,3.3307,-0.3712,-1.4232,2.2659972,1.7998938999999998,8.23431,-1
589,590,1580694647065,2.9791,-0.32799998,-1.3025,2.0622218,1.7419254000000002,8.269333,-1
590,591,1580694647075,2.7703,-0.43649998,-1.2889999,1.7980359000000001,1.5779798999999999,8.213471,-1
591,592,1580694647085,2.4694998,-0.5622,-1.4024,1.6328934,1.4507808999999998,8.121458,-1
592,593,1580694647095,2.2315,-0.713,-1.4175999,1.4097058999999998,1.3538348999999998,8.313108,-1
593,594,1580694647106,2.0144,-0.7157,-1.1391,1.3397186,1.4381107,8.616261999999999,-1
594,595,1580694647116,1.9563999,-0.5657,-0.81219995,1.4116883,1.5995948,9.102889,-1
595,596,1580694647126,1.9438,-0.35,-0.25079998,1.3060466,1.9313067,9.605576,-1
596,597,1580694647136,1.7574999,0.0696,0.1628,1.4027437,2.2607586,9.991922,-1
597,598,1580694647146,2.0672998,0.299,0.5175,1.8185397,2.269751,10.197517,-1
598,599,1580694647156,2.4233,0.2926,0.58849996,2.0471861000000002,2.2377453,10.215991,-1
599,600,1580694647167,2.4914,0.2803,0.7096,2.0127861,2.1166756,10.6172695,-1
600,601,1580694647177,2.3576999,0.1415,1.1947,1.7971835999999999,1.9932400000000001,11.036791000000001,-1
601,602,1580694647187,2.0537,0.09999999400000001,1.4756,1.4822693999999998,1.9706866000000003,11.079934,-1
602,603,1580694647198,1.7026,0.0492,1.4145,1.2290204,1.9044534,10.798281,-1
603,604,1580694647208,1.4643999,0.0173,1.1103,1.147809,2.0123553,10.554416999999999,-1
604,605,1580694647218,1.3701,0.1408,0.9141,1.1400328000000002,2.1519084,10.540262,-1
605,606,1580694647228,1.3227999,0.2583,0.9331,0.9877326999999999,2.1710717999999996,10.572297,-1
606,607,1580694647238,1.117,0.2519,0.932,0.71655583,2.0469275000000002,10.468809,-1
607,608,1580694647248,0.8408,0.1103,0.81299996,0.5130391,1.8943401999999998,10.299042,-1
608,609,1580694647258,0.6268,-0.021,0.6254,0.29282042,1.7597287,10.190508,-1
609,610,1580694647268,0.3909,-0.1538,0.56549996,0.08948568,1.6328839,10.249874,-1
610,611,1580694647278,0.1767,-0.2595,0.6335,-0.11657847,1.5976987,10.418609,-1
611,612,1580694647289,-0.0371,-0.2708,0.84919995,-0.32093796,1.627224,10.652885000000001,-1
612,613,1580694647298,-0.2206,-0.2566,1.0264,-0.05308424,1.6509075,10.568810000000001,d
613,614,1580694647308,0.0554,-0.2258,0.90029997,0.43179908,1.8867842000000001,10.384255,-1
614,615,1580694647318,0.5275,0.042799998,0.7445,0.7321852,2.0632463,10.43395,-1
615,616,1580694647329,0.7977,0.1802,0.86219996,0.81703573,2.2305722,10.632028,-1
616,617,1580694647339,0.8071,0.34219998,1.0181,0.8140956,2.2395650000000002,10.600117,-1
617,618,1580694647349,0.7854,0.327,0.92899996,0.48166549999999997,2.0377817,10.288,-1
618,619,1580694647359,0.4781,0.13939999,0.65459996,0.09845915400000001,1.8757994999999998,10.24522,-1
619,620,1580694647370,0.0945,-0.0348,0.6071,-0.051657297000000005,1.8231751,10.153780000000001,-1
620,621,1580694647380,-0.0431,-0.0971,0.5312,-0.11812992,1.8498368000000003,10.040153,-1
621,622,1580694647390,-0.1283,-0.08549999400000001,0.4172,-0.15496232,1.8554488,9.883724,-1
622,623,1580694647400,-0.1862,-0.1055,0.2643,-0.0871681,1.8605150000000001,9.714837,-1
623,624,1580694647410,-0.084,-0.1248,0.0526,0.31883106,1.8123053,9.521262,-1
624,625,1580694647421,0.70849997,-0.0177,0.059000000000000004,0.7864760999999999,1.9914777,9.672527,-1
625,626,1580694647431,1.3395,0.2888,0.51159996,1.4299418,2.2987592,10.113213,-1
626,627,1580694647441,1.3395,0.2888,0.51159996,2.0099226999999997,2.370202,10.635859,-1
627,628,1580694647451,1.9186,0.3561,1.0218999,2.1502995,2.253059,10.8433485,-1
628,629,1580694647461,2.0572,0.32459998,1.5615,2.1925333,2.4188332999999997,11.300286999999999,-1
629,630,1580694647472,2.4359,0.6412,1.9355999,2.693381,2.8400786,11.583291000000001,-1
630,631,1580694647481,3.0354,1.2429999,1.8605,3.3430239999999998,3.4746666,11.378778,-1
631,632,1580694647491,4.1612,1.6175,1.2878,4.546368599999999,3.6397324,10.678685,-1
632,633,1580694647501,5.5227,1.115,0.1201,5.597079,3.2187742999999998,9.705433,-1
633,634,1580694647511,6.2439,0.4693,-0.8007,6.4749746,2.5036072999999996,8.733645,-1
634,635,1580694647522,6.818,-0.0081,-0.1841,7.077039999999999,2.1894305,9.738482000000001,-1
635,636,1580694647532,7.2756996,0.19699999999999998,1.986,7.5129665999999995,2.4786692,11.995918,-1
636,637,1580694647542,7.5091,0.5286,3.7594,7.727966,2.7699957000000004,13.535294,-1
637,638,1580694647552,7.7039,0.5972,4.3943,7.903135300000001,2.7708,13.963463,-1
638,639,1580694647562,8.013599000000001,0.4064,3.9045,8.330060000000001,2.5392234,12.937586,-1
639,640,1580694647573,8.6609,0.2472,2.4012,8.916343,2.434434,11.639297000000001,-1
640,641,1580694647583,9.3918,-0.1753,0.7971,9.559855,2.0431066,10.103234,-1
641,642,1580694647593,9.5159,-0.4477,0.021499999,9.651516,1.9459019,9.484285,-1
642,643,1580694647603,9.5549,-0.3884,0.0711,9.666244500000001,2.1327453,9.759666000000001,-1
643,644,1580694647614,9.1964,-0.2611,0.6289,9.056988,2.2546005,10.358054,-1
644,645,1580694647624,8.3714,-0.47419998,1.0756,8.289482000000001,1.9226685000000001,10.455919,-1
645,646,1580694647634,7.773,-0.97319996,0.6469,7.756753999999999,1.4496412,9.810261,-1
646,647,1580694647644,7.2942995999999996,-1.4696,-0.106,7.2705107,1.0599036,9.067022999999999,-1
647,648,1580694647654,6.9649,-1.8222,-0.81839997,6.9193,0.74757516,8.284349,-1
648,649,1580694647665,6.5958,-2.1715999,-1.6459999,6.5250998,0.5354297,7.561780000000001,-1
649,650,1580694647676,6.4282,-2.2821999,-1.8044,6.4837856,0.55992717,7.936731,-1
650,651,1580694647686,6.4726,-2.3037999,-1.1582999,6.504825599999999,0.64808166,8.654666,-1
651,652,1580694647696,6.2683,-2.2914,-0.5719,5.938961,0.5506281,8.842812,-1
652,653,1580694647706,5.4544997,-2.5263,-0.5272,4.911092,0.25124753,8.65275,-1
653,654,1580694647716,4.4276,-2.9053,-0.87869996,3.7660506000000002,-0.13025415,8.153176,-1
654,655,1580694647727,3.2354,-3.3786,-1.3914,2.0454814,-0.70477635,7.711666,-1
655,656,1580694647737,1.8217,-3.8335,-1.5924,1.1317583,-0.92977387,7.920488400000001,-1
656,657,1580694647748,0.4531,-4.1135,-0.83449996,-0.51058745,-1.1869303,9.112715,-1
657,658,1580694647758,-0.82049996,-4.3554,0.0975,-2.2000509999999998,-1.7047578,9.776425,-1
658,659,1580694647768,-2.1462998,-4.8492,0.4899,-3.4813898,-2.253279,9.770536,-1
659,660,1580694647778,-3.2807998999999994,-5.3705,0.4025,-4.6339296999999995,-2.6737967,9.449703,-1
660,661,1580694647788,-4.3882,-5.7429,0.0418,-6.2226834,-3.0697400000000004,8.890619000000001,-1
661,662,1580694647799,-5.9523,-6.1422,-0.53319997,-8.099881,-3.2884550000000004,8.609138,-1
662,663,1580694647809,-7.6562996,-6.2999,-0.69449997,-9.721599000000001,-3.3647633000000003,8.770163,-1
663,664,1580694647819,-8.8404,-6.3345,-0.54399997,-10.275138,-3.2994876000000004,8.662978,-1
664,665,1580694647829,-9.2782,-6.2485,-0.6472,-10.781185,-3.0977905,8.697005,-1
665,666,1580694647839,-9.689799,-6.0323997,-0.6035,-11.597849,-3.0219326,8.786405,-1
666,667,1580694647850,-10.4114,-5.9289,-0.5107,-12.521512,-2.8025472000000002,8.685666000000001,-1
667,668,1580694647860,-11.2308,-5.6888,-0.61259997,-12.966115,-2.5095735,8.51404,-1
668,669,1580694647870,-11.3502,-4.8705997000000005,-1.1057,-12.532449,-1.8068081999999999,8.064083,-1
669,670,1580694647881,-11.3502,-4.8705997000000005,-1.1057,-11.7624445,-1.29556,7.974061,-1
670,671,1580694647891,-10.293099,-4.1765,-1.2923,-10.598614999999999,-0.5397201,8.086003999999999,-1
671,672,1580694647901,-8.498899,-2.9127998,-1.2534,-9.933236,0.10970233,7.961697,-1
672,673,1580694647911,-8.146299,-2.4184,-1.4671999,-9.750319500000002,0.5996996,7.682504700000001,-1
673,674,1580694647922,-8.1461,-2.0658,-2.0321,-9.829654,0.91467124,7.028581599999999,-1
674,675,1580694647933,-8.1023,-1.9109,-2.9194,-9.804457000000001,1.0947343999999999,5.8604407,-1
675,676,1580694647942,-8.024799,-1.7987,-3.9931997999999997,-9.694582,1.2362604,4.993682,-1
676,677,1580694647952,-7.5081997000000005,-1.7615,-4.9217,-9.085258,1.2726332,4.104323,-1
677,678,1580694647962,-6.7067,-1.8905,-5.5301,-8.412057,1.1814619,3.6342642,-1
678,679,1580694647972,-6.1919,-1.8402,-5.6724997,-7.7760797,1.2879368999999998,3.4634519999999998,-1
679,680,1580694647982,-6.1919,-1.8402,-5.6724997,-7.5090113,1.2652973,3.387173,-1
680,681,1580694647992,-6.0158,-2.1784,-6.0947,-7.627984,0.94959784,2.9564369,-1
681,682,1580694648003,-6.2609,-2.4182,-6.705899700000001,-7.7053259999999995,0.7201566999999999,2.3565266,-1
682,683,1580694648013,-5.9932,-2.682,-7.1825,-7.378317,0.4836862,1.8658970000000001,-1
683,684,1580694648023,-5.832000000000001,-2.8077998,-7.7991,-7.1784587,0.36208948,1.2684289,-1
684,685,1580694648034,-5.6361,-2.8851,-8.2711,-6.9103174,0.32413658,0.9286055000000001,-1
685,686,1580694648044,-4.8315997,-2.7363,-8.3829,-5.497039,0.5118229000000001,0.6981588000000001,-1
686,687,1580694648054,-3.7651,-2.6424,-8.7617,-4.2267137,0.5673491999999999,0.60403794,-1
687,688,1580694648064,-2.3529,-2.5989999999999998,-8.3595,-2.7459004,0.71821266,0.8685206,-1
688,689,1580694648075,-1.6071999,-2.3507,-8.4134,-2.1739542000000003,0.64068836,0.9921189,-1
689,690,1580694648085,-1.6194998999999999,-2.9213998,-7.8272996,-2.5780764,-0.11633905,1.8535718,-1
690,691,1580694648095,-2.6726,-3.5026,-7.0021,-3.7594042,-0.78396696,2.5404298,-1
691,692,1580694648105,-3.9338,-4.1268,-6.6577,-5.0414133,-1.856579,2.8710501,-1
692,693,1580694648115,-4.8387,-4.9894,-6.437,-5.5676203,-2.5746286,3.027066,-1
693,694,1580694648125,-5.5104,-5.8325,-6.6124997,-5.844802,-3.52302,2.573403,-1
694,695,1580694648136,-5.3739,-6.5811996,-7.0664,-4.749445,-4.158221,2.1865861,-1
695,696,1580694648146,-4.1836,-6.706,-7.2826996,-3.1986535,-4.140283,2.4221467999999997,-1
696,697,1580694648156,-2.9823,-6.5467,-6.7472,-2.3104717999999997,-4.0571566,3.5148318,-1
697,698,1580694648166,-2.5245,-6.4045997,-5.4832,-1.8812103999999998,-4.3127713,4.699138,-1
698,699,1580694648176,-2.2337,-6.6211,-4.567,-1.6101485,-4.812087,5.346606700000001,-1
699,700,1580694648186,-2.1011999,-7.0042,-4.0924,-0.8620275,-5.985341,5.4613466,-1
700,701,1580694648197,-1.395,-7.9954996,-4.2030997,-0.24434265,-7.0171466,5.4089613,-1
701,702,1580694648207,-0.8359,-8.7867,-4.2591,0.28744784,-7.320836999999999,5.762125,-1
702,703,1580694648217,-0.4786,-8.5433,-3.7027997999999998,1.6565481,-6.8753815000000005,7.425463000000001,-1
703,704,1580694648227,0.8983,-7.7661,-1.7912999,2.723979,-6.1097345,10.310514,-1
704,705,1580694648238,1.7552999,-6.705899700000001,1.2212,3.5610974000000004,-5.566289,13.306934,-1
705,706,1580694648248,2.5103,-5.8327,4.0614,4.099333000000001,-5.3148313,14.936007,-1
706,707,1580694648258,2.9886,-5.416,5.343999999999999,4.5735765,-5.775983,14.808454000000001,-1
707,708,1580694648268,3.3369,-5.8578,4.8282,4.512169999999999,-7.303866999999999,13.479729999999998,-1
708,709,1580694648278,3.2087998,-7.1317,3.5823,4.430499,-8.013221000000001,13.398872,-1
709,710,1580694648288,3.1761,-7.2934,3.8716,4.501444,-7.3895793,14.6960125,-1
710,711,1580694648298,3.2459998,-6.1832,5.3132,4.8829837,-5.948682,16.202175,-1
711,712,1580694648308,3.8414,-4.4101,6.867799799999999,5.7743454000000005,-4.6238832,18.004034,-1
712,713,1580694648318,4.8129,-2.9457998,8.7331,6.3641233,-4.2383785000000005,19.441885,-1
713,714,1580694648328,5.3901997,-2.4459,9.9965,6.766282,-4.448819,19.553082,-1
714,715,1580694648339,5.9248,-2.5086,9.8302,7.100828599999999,-5.034518,18.489271,-1
715,716,1580694648349,6.2296,-2.8989,8.7709,7.048414999999999,-5.517543,17.816154,-1
716,717,1580694648359,6.2545,-3.128,8.3306,6.470521499999999,-5.5382767,18.212664,-1
717,718,1580694648369,5.7867,-2.9053,8.7767,5.4280767,-5.137363400000001,19.11093,-1
718,719,1580694648379,4.8659,-2.3028,9.7286,4.766721700000001,-4.7936034,20.169569,-1
719,720,1580694648390,4.2553997,-1.6135,11.1173,4.7830496,-3.760314,21.454872,-1
720,721,1580694648400,4.5116997,-0.5448,12.181399,5.069846599999999,-3.4148690000000004,21.063986,-1
721,722,1580694648410,4.9118,-0.070199996,11.832999000000001,4.7730618,-3.4153192000000003,19.317694,-1
722,723,1580694648420,4.8816,-0.0681,7.7338996,4.885473999999999,-3.5204150000000003,16.923970999999998,-1
723,724,1580694648430,5.495899700000001,0.0969,5.6580997,5.462917,-3.3685940000000003,14.844759,-1
724,725,1580694648441,5.495899700000001,0.0969,5.6580997,6.189567,-3.0250547,13.678754000000001,-1
725,726,1580694648450,6.2675,0.44869998,4.4946,6.259956400000001,-2.682109,13.716669,-1
726,727,1580694648460,6.3918,0.8077,4.5443,5.711042400000001,-2.5218412999999997,14.534863,-1
727,728,1580694648470,4.7749,1.036,6.0771,4.495018,-2.5588558,15.211178,-1
728,729,1580694648481,3.7684,0.91459996,5.7739997,3.4266292999999997,-2.7289877000000002,14.8860445,-1
729,730,1580694648491,3.7684,0.91459996,5.7739997,1.7282879,-3.3095052000000003,14.087473999999998,-1
730,731,1580694648501,1.0921,-0.0186,4.1616,0.42661800000000005,-3.7465043,12.994577,-1
731,732,1580694648511,1.0921,-0.0186,4.1616,-0.1468699,-3.9712910000000003,11.724961,-1
732,733,1580694648521,0.0853,-0.60389996,0.9942,-0.39122215,-4.212617400000001,9.850186,-1
733,734,1580694648531,0.8461,-0.3915,0.0903,0.6052159,-3.8228123,9.157064,-1
734,735,1580694648542,2.7372,0.5895,0.094299994,2.6042018,-2.7339196,9.301244,-1
735,736,1580694648552,4.6001,1.6597998999999999,0.5484,4.2527246,-1.7528526000000002,9.775986,-1
736,737,1580694648562,5.5478997,2.0729,1.148,4.9272575,-1.5213907,10.324353,-1
737,738,1580694648572,5.1749,1.9459,1.5058999,4.440315200000001,-1.7021817,10.83494,-1
738,739,1580694648582,4.9686,1.7982999,2.7937,4.1923428,-1.9074031000000002,12.144464,-1
739,740,1580694648593,4.0429997,1.3641,3.4671,2.6645644,-2.5600526,12.226767,-1
740,741,1580694648603,2.1857,0.6016,2.1581,0.82538664,-3.4077535000000005,10.632727000000001,-1
741,742,1580694648613,0.6853,-0.18069999,0.88839996,-0.23149057,-3.9185898,9.737411,-1
742,743,1580694648623,0.1476,-0.3144,0.4973,-0.3970161,-3.7523844,9.591201,-1
743,744,1580694648633,0.375,0.0822,0.3132,0.13223654,-3.3200011,9.301406,d
744,745,1580694648644,0.91679996,0.3204,-0.0524,0.6814281,-3.160126,8.970298,-1
745,746,1580694648654,1.406,0.4059,-0.4701,1.0947726999999998,-3.1319413,8.607825,-1
746,747,1580694648664,1.6097,0.36949998,-0.43969998,1.1549629,-3.1785421,8.986692999999999,-1
747,748,1580694648674,1.4739,0.2555,0.3107,0.9573646,-3.3216388,9.71568,-1
748,749,1580694648684,1.0568,0.1222,0.8258,0.26339093,-3.5528708,10.094031,-1
749,750,1580694648695,0.38329998,-0.13759999,0.96419996,-0.5256135000000001,-3.8298989999999997,10.0679245,-1
750,751,1580694648705,-0.44759998,-0.3706,0.8229,-1.1692513999999998,-3.9759262000000004,9.761505,-1
751,752,1580694648715,-0.92999995,-0.4091,0.44169998,-1.2779578999999999,-3.8203894999999997,9.314143,-1
752,753,1580694648725,-0.84919995,-0.22819999,-0.0689,-1.0037643,-3.6162598,8.884557000000001,-1
753,754,1580694648735,-0.4515,0.0128999995,-0.6177,-0.51025224,-3.318651,8.288103,-1
754,755,1580694648745,-0.0267,0.2049,-1.0151,-0.09589256,-3.18153,8.149422,-1
755,756,1580694648756,0.38299999999999995,0.28329998,-0.9165,0.28446950000000004,-3.1471492999999997,8.563858,-1
756,757,1580694648766,0.68869996,0.38169998,-0.4019,0.28929618,-3.0320650000000002,9.093197,-1
757,758,1580694648776,0.5198,0.4249,0.0844,-0.10946289999999999,-3.2316743999999997,9.433355,-1
758,759,1580694648786,0.0285,0.131,0.3436,-0.6707691,-3.4762660000000003,9.5516,-1
759,760,1580694648796,-0.4402,-0.051099997,0.37469998,-1.036019,-3.6240935,9.502683,-1
760,761,1580694648806,-0.7302,-0.1598,0.2961,-1.1431643,-3.6170928,9.426766,-1
761,762,1580694648817,-0.70309997,-0.0914,0.2669,-0.93371,-3.5049102,9.438595,-1
762,763,1580694648827,-0.3746,0.077599995,0.2394,-0.38946956,-3.264178,9.306262,-1
763,764,1580694648837,0.18239999,0.2599,0.1061,0.2174797,-3.1242799999999997,9.149873,-1
764,765,1580694648847,0.8089,0.447,-0.0148,0.61880535,-2.9270264999999998,9.188544,-1
765,766,1580694648858,1.2143999,0.62939996,0.102,0.7588949,-2.9136572,9.464030000000001,-1
766,767,1580694648868,1.3686999,0.6078,0.46469998,0.5844342,-2.994543,9.762463,-1
767,768,1580694648878,1.1179999999999999,0.55259997,0.6684,0.11472057,-3.1557492999999996,9.89242,-1
768,769,1580694648888,0.65389997,0.3617,0.7794,-0.2627397,-3.327385,9.850617,-1
769,770,1580694648898,0.3293,0.20969999,0.6892,-0.512905,-3.4230669000000002,9.732171000000001,-1
770,771,1580694648908,0.0334,0.108399995,0.55579996,-0.64825404,-3.4829410000000003,9.631231,-1
771,772,1580694648919,-0.0707,-0.0064,0.47959998,-0.7401244,-3.6469245000000003,9.568810000000001,-1
772,773,1580694648929,-0.1138,-0.1408,0.3938,-0.5920765,-3.6315062000000005,9.45769,-1
773,774,1580694648939,0.0782,-0.1343,0.2708,-0.26018268,-3.5727332,9.499005,-1
774,775,1580694648949,0.44059998,-0.061899997000000005,0.3868,0.06947015,-3.4000826,9.750012,-1
775,776,1580694648959,0.6825,0.0947,0.60359997,0.21820755,-3.3287256000000003,9.7752285,-1
776,777,1580694648969,0.8939,0.1831,0.60469997,0.29186276,-3.2952739999999996,9.764292,-1
777,778,1580694648979,0.9309999999999999,0.20019999,0.6141,0.32145512,-3.2726054,9.853663000000001,-1
778,779,1580694648990,0.9594,0.2153,0.6907,0.29916987,-3.2648099999999998,9.978717,-1
779,780,1580694649000,0.9334,0.22,0.81579995,0.22721931,-3.4126663,10.126631,-1
780,781,1580694649010,0.847,0.06839999599999999,0.9705,0.066070385,-3.5084440000000003,10.465401,-1
781,782,1580694649020,0.552,-0.15439999,1.6632999,-0.077620015,-3.6202435,10.831062,-1
782,783,1580694649030,0.552,-0.15439999,1.6632999,-0.08273403,-3.6916387000000004,10.814121,-1
783,784,1580694649040,0.5538,-0.22019999,1.6509999,-0.022448035,-3.7933156,10.576808,-1
784,785,1580694649051,0.6209,-0.33949998,1.4118998999999999,0.3024643,-3.7059559999999996,10.566253999999999,-1
785,786,1580694649061,1.4476,-0.091,1.7077,0.79535383,-3.5225027,10.887977000000001,-1
786,787,1580694649071,2.0268,0.13319999,2.2828999,1.3732566000000002,-3.2866737999999995,11.465161,-1
787,788,1580694649082,2.4085999,0.3576,2.9169,1.7468096000000002,-3.0462196,12.098659,-1
788,789,1580694649092,2.4085999,0.3576,2.9169,1.7524695,-3.0192797000000002,12.32356,-1
789,790,1580694649102,1.9232999,0.0284,3.4634,1.1385865,-3.4030989999999997,12.702121,-1
790,791,1580694649112,1.4749999,-0.25439999,3.5704,0.76523477,-3.6167002,12.801452000000001,-1
791,792,1580694649122,1.311,-0.39699998,3.6848,0.64406896,-3.7060997,12.956089,-1
792,793,1580694649133,1.3580999,-0.41439998,4.0246,0.7406798000000001,-3.677111,13.341851,-1
793,794,1580694649143,1.7277,-0.3435,4.4239999999999995,1.1467556,-3.5202809999999998,13.750005999999999,-1
794,795,1580694649153,2.2134,-0.0376,4.8436,1.6403921000000001,-3.1780060000000003,14.187072,-1
795,796,1580694649163,2.6255,0.051,5.3025,1.9610906000000004,-3.1200855,14.743514000000001,-1
796,797,1580694649173,2.6455998,-0.0317,5.6228,1.8991287000000001,-3.1589002999999996,14.854613,-1
797,798,1580694649183,2.5537,-0.1928,5.5476,1.7586943,-3.3232480000000004,14.8489065,-1
798,799,1580694649194,2.3534,-0.4238,5.5369,1.5282573,-3.4692078,14.832576999999999,-1
799,800,1580694649204,2.1778,-0.66819996,5.3841,1.3827186000000002,-3.6717572,14.644613,-1
800,801,1580694649214,1.9764999,-0.858,5.1678,1.2277563,-3.6355762,14.511362,-1
801,802,1580694649224,1.8604,-0.8231,5.0759,1.1878114,-3.5233169,14.483848000000002,-1
802,803,1580694649234,1.7954999,-0.89449996,4.9729,1.0712424999999999,-3.390276,14.179727,-1
803,804,1580694649245,1.5275999,-0.8247,4.468,0.86226696,-3.2924583,13.707235,-1
804,805,1580694649255,1.3388,-0.9228,3.8377,0.78774023,-3.3364735,13.053082,-1
805,806,1580694649265,1.3684,-1.0282,3.0535,0.85966206,-3.2630383999999997,12.287809,-1
806,807,1580694649275,1.3780999,-1.0509,2.3801,0.8694687,-3.1661017000000005,11.761209,-1
807,808,1580694649286,1.3866999,-1.0979999,2.0621,0.8284608,-3.0147595000000003,11.401093,-1
808,809,1580694649295,1.25,-0.9363,1.6279,0.6694667,-2.7881052000000004,11.096119,-1
809,810,1580694649305,0.9453,-0.8405,1.3810999,0.3885215,-2.655505,10.965358,-1
810,811,1580694649315,0.6433,-0.9,1.2822,0.11919294,-2.6417813,10.925585,-1
811,812,1580694649325,0.31469998,-0.95949996,1.2918,-0.29586586,-2.5903153,11.111212,-1
812,813,1580694649335,-0.184,-1.0002,1.5867,-0.7981024,-2.4732008,11.5002985,-1
813,814,1580694649346,-0.69729996,-0.90529996,1.8731999,-0.87897843,-2.110939,11.641652,-1
814,815,1580694649356,-0.7635,-0.6665,1.9354999,-0.94171613,-1.8563585999999999,11.619636,-1
815,816,1580694649366,-0.96599996,-0.53929996,1.7931999,-1.2245958000000001,-1.7170928,11.297031,-1
816,817,1580694649376,-1.3183,-0.5518,1.26,-1.5726266000000002,-1.7080618000000003,10.624452999999999,-1
817,818,1580694649386,-1.7552999,-0.7581,0.64019996,-1.8678700000000001,-1.8636944,10.049844,-1
818,819,1580694649397,-1.9916999,-1.0052999,0.0616,-2.0647595,-2.0502314999999998,9.600873,-1
819,820,1580694649407,-2.052,-1.2621,-0.2503,-2.077985,-2.0563703,9.540827,-1
820,821,1580694649417,-1.9899999,-1.1977,-0.21759999,-1.7647372,-1.6846942999999999,9.6831,-1
821,822,1580694649427,-1.4913,-0.80719995,0.0611,-1.0913153999999998,-0.9601994,10.323702,-1
822,823,1580694649437,-0.90569997,-0.24100000000000002,0.6738,-0.5381974,-0.46846867,10.924033,-1
823,824,1580694649447,-0.1893,0.17300000000000001,1.2968,0.42685740000000005,-0.057901375,11.24796,-1
824,825,1580694649458,0.6763,0.3915,1.4397,1.2760711999999999,0.15225208,11.336421000000001,-1
825,826,1580694649468,1.4008,0.42299998,1.5733,1.4771745,0.021643582999999997,11.411186,-1
826,827,1580694649478,1.5206,0.1487,1.5609,1.2470535,-0.37869567,11.049969,-1
827,828,1580694649489,1.2052,-0.42839998,1.1379,0.637959,-0.8162695,10.444714999999999,-1
828,829,1580694649499,0.5252,-1.0169,0.4619,-0.19227354,-1.2542936000000002,9.6262045,-1
829,830,1580694649509,-0.2897,-1.6208,-0.3287,-1.0931638000000001,-1.4785249,9.085067,-1
830,831,1580694649519,-1.2103,-1.9346,-0.7827,-1.9956342,-1.3673861,8.841778,-1
831,832,1580694649529,-2.0936,-1.9705,-0.9885,-2.6354507999999996,-1.1986427,8.545911,-1
832,833,1580694649539,-2.6462,-1.9747,-1.3189,-2.7849066000000002,-1.0600184,8.142096,-1
833,834,1580694649550,-2.4036999,-2.0253,-1.8036,-2.4837255000000003,-0.8792658000000001,7.94037,-1
834,835,1580694649560,-2.4036999,-2.0253,-1.8036,-1.9269779999999999,-0.6823475,7.808679,-1
835,836,1580694649571,-1.8607999,-2.0156,-1.9182999,-1.1609676000000002,-0.6942611,6.990207000000001,-1
836,837,1580694649581,-0.5845,-2.3453,-3.5911998999999994,-0.66027296,-0.6479093,5.980448,-1
837,838,1580694649591,-0.7179,-2.2676,-3.8205998,-0.94971275,-0.41026083,5.860211,-1
838,839,1580694649601,-1.0954,-2.1945999,-3.3755,-1.415816,-0.23768677,6.3784790000000005,-1
839,840,1580694649612,-1.5073,-2.0392,-2.7646,-1.9083511999999998,0.043086052,6.907856,-1
840,841,1580694649622,-1.9144,-1.8429999,-2.4858,-2.2836279999999998,0.29344293,7.0960116,-1
841,842,1580694649632,-1.9427999,-1.703,-2.4594,-2.3147428,0.56987745,7.079003299999999,-1
842,843,1580694649642,-1.53,-1.7011,-2.5964,-1.9496464,0.67210984,6.835311999999999,-1
843,844,1580694649652,-1.2586,-1.7772,-3.0045998,-1.6727808999999998,0.69259465,6.43391,-1
844,845,1580694649662,-0.7721,-2.0154998,-3.1355,-1.2193956,0.5790137,6.250274,-1
845,846,1580694649672,-0.46499997,-2.1375,-3.7152998,-0.93766516,0.6433603,5.486055,-1
846,847,1580694649683,-0.25759998,-2.1341999,-4.7945,-0.79325646,0.7450277,4.421851,-1
847,848,1580694649693,-0.1621,-2.149,-5.0923,-0.83809507,0.9920136,4.314045,-1
848,849,1580694649703,-0.313,-1.6571,-4.9546,-1.0380589,1.5223196,4.3531566,-1
849,850,1580694649713,-0.22039999,-1.2636,-4.7918,-0.89207953,1.901906,4.6416583,-1
850,851,1580694649723,0.033299997000000005,-1.3659999,-4.3389997000000005,-0.8893214,1.7289392,5.10824,-1
851,852,1580694649733,-0.1884,-1.4035,-3.9966998,-1.234163,1.7633104,5.2854114,-1
852,853,1580694649744,-0.4184,-1.5791998999999999,-3.7533998,-1.5026008999999998,1.5705004999999999,5.7150264,-1
853,854,1580694649754,-0.8359,-1.8734,-3.237,-2.0767019,1.3509233999999999,6.074664599999999,-1
854,855,1580694649764,-1.4499999,-2.0014,-3.0644,-2.6218424,1.3061711999999999,6.106929,-1
855,856,1580694649775,-1.7581999,-1.9009,-3.0886998,-2.7929223,1.570989,6.1217155,-1
856,857,1580694649785,-1.7213999,-1.624,-2.8992999,-2.7689805,1.812516,6.4187684,-1
857,858,1580694649795,-1.6894,-1.4326,-2.4968998,-2.6812186000000002,2.0988912999999996,6.890005,-1
858,859,1580694649805,-1.4294,-1.1848,-2.1238,-2.2919788,2.3875265,7.160655499999999,-1
859,860,1580694649815,-0.8639,-0.93259996,-1.9208,-1.6500742,2.6083581000000002,7.3742366,-1
860,861,1580694649826,-0.2704,-0.7331,-1.6759,-1.3050888999999999,2.7317936,7.5374546,-1
861,862,1580694649838,0.0369,-0.6389,-1.6356,-1.1929444,2.9448872,7.3054466,-1
862,863,1580694649848,0.1669,-0.4294,-1.8090998999999999,-0.75949824,3.3680863,7.406175599999999,-1
863,864,1580694649858,0.6063,-0.0223,-1.61,-0.6896545999999999,3.4538946000000004,7.488287,-1
864,865,1580694649869,0.6301,0.1477,-1.2356,-1.0201789,3.3990097,7.927824,-1
865,866,1580694649879,0.25579998,-0.1496,-1.1460999,-1.4494976000000002,2.9651804,7.7511325,-1
866,867,1580694649889,-0.1727,-0.6066,-1.3024,-1.9354631999999998,2.5456111,7.421652000000001,-1
867,868,1580694649899,-0.6455,-1.0461,-1.6362,-2.281138,2.451452,7.60953,-1
868,869,1580694649909,-0.9637,-1.1436,-1.4327999,-2.4125319,2.6235470000000003,8.196750999999999,-1
869,870,1580694649920,-1.0666,-0.97919995,-0.8497,-2.3441725,3.138291,8.823419,-1
870,871,1580694649930,-0.5007,0.2591,0.37449998,-1.8856636999999998,3.8610620000000004,9.400286999999999,-1
871,872,1580694649940,-0.5007,0.2591,0.37449998,-1.491013,4.051497,9.42853,-1
872,873,1580694649951,-0.028299998,0.4597,0.34309998,-1.1178431999999998,4.057281,8.702482,-1
873,874,1580694649961,0.5682,0.23629999,-0.9123,-0.7629842,3.9315279999999997,7.9363665999999995,-1
874,875,1580694649971,0.6258,0.1829,-1.6205,-0.7248972,3.9468415,7.255139999999999,-1
875,876,1580694649981,0.58709997,0.2905,-1.7722,-0.7191033,4.0924760000000004,7.1834383,-1
876,877,1580694649994,0.4982,0.4669,-1.3101,-0.8515504999999999,4.3642755,7.874022,-1
877,878,1580694650004,0.4982,0.4669,-1.3101,-0.9610325000000001,4.393513,8.666416,-1
878,879,1580694650014,0.2923,0.5256,0.2927,-0.9677555,4.3654532,9.547319,-1
879,880,1580694650025,0.2321,0.50769997,0.88019997,-1.0454329,4.3626666,9.860903,-1
880,881,1580694650035,0.1599,0.428,0.7933,-1.1037365,4.247984400000001,9.675858999999999,-1
881,882,1580694650045,0.1505,0.2262,0.5324,-1.1025011999999998,4.0349383,9.40294,-1
882,883,1580694650055,0.19699999999999998,0.18789999,0.4784,-1.0063021,4.114005000000001,9.466348,-1
883,884,1580694650065,0.4042,0.3529,0.65029997,-0.69813967,4.369801,9.649849,-1
884,885,1580694650076,0.696,0.54469997,0.71489996,-0.2533736,4.539981,9.555566,-1
885,886,1580694650086,1.2307,0.7029,0.5893,0.18021636,4.72398,9.459759,-1
886,887,1580694650097,1.5237,0.83769995,0.4376,0.31903216,4.811589,9.059046,-1
887,888,1580694650107,1.5849999,0.8402,-0.0643,0.18887378,4.6763453,8.545567,-1
888,889,1580694650117,1.2921,0.5773,-0.4667,-0.23840503,4.303999,8.355899,-1
889,890,1580694650127,0.8771,0.1847,-0.4696,-0.5621586,4.049955000000001,8.558927,-1
890,891,1580694650137,0.7438,0.0525,-0.24,-0.48337018,4.0305715,8.722661,-1
891,892,1580694650148,0.8998,0.0995,-0.022000000000000002,-0.46746309999999996,4.283859,9.264833,-1
892,893,1580694650158,0.79639995,0.33399999999999996,0.4791,-0.5682590000000001,4.441924,9.537801,-1
893,894,1580694650168,0.7109,0.5085,0.706,-0.8078324,4.712315599999999,9.782449,-1
894,895,1580694650178,0.4443,0.7608,1.0123,-1.2223454,4.700603,10.592437,-1
895,896,1580694650189,0.067999996,0.67039996,1.8689,-1.4440005,4.6119699999999995,10.867242999999998,-1
896,897,1580694650198,-0.1153,0.5846,1.9933,-1.4650024,4.362887000000001,10.589659,-1
897,898,1580694650208,-0.032899998,0.2821,1.6227,-1.1627296999999999,4.2109510000000006,9.985746,-1
898,899,1580694650218,0.3215,0.16589999,1.0699999,-0.8230594999999999,4.3114877,9.63444,-1
899,900,1580694650229,0.7040000000000001,0.27179998,0.7345,-0.43757388,4.592242,9.121755,-1
900,901,1580694650239,1.0425999,0.5478,0.2122,-0.5311201,4.807691,8.825842,-1
901,902,1580694650250,0.9605,0.6863,0.0404,-0.9466003000000001,4.740481,9.105552000000001,d
902,903,1580694650260,0.4513,0.5615,0.42319998,-1.580537,4.4836693,9.697331,-1
903,904,1580694650270,-0.2789,0.18859999,1.3887999,-1.8600839,4.332126000000001,10.1504,-1
904,905,1580694650280,-0.5302,0.1011,1.2610999,-2.1200464,4.267004,10.016555,-1
905,906,1580694650291,-0.5302,0.1011,1.2610999,-2.2741182,4.176934200000001,9.536977,-1
906,907,1580694650301,-0.9629,-0.0207,0.1322,-2.5786414,4.226312,8.723964,-1
907,908,1580694650311,-1.0137,-0.0339,-0.1757,-2.5630217,4.2135267,8.518244000000001,-1
908,909,1580694650321,-0.9438,-0.0906,-0.1915,-2.5246186,4.199994599999999,8.495566,-1
909,910,1580694650331,-0.9438,-0.0906,-0.1915,-2.6513004000000002,4.185965,8.489773,-1
910,911,1580694650341,-1.101,-0.2881,-0.2561,-2.7311711,3.9706972,8.386600999999999,-1
911,912,1580694650352,-1.4117,-0.6346,-0.48079997,-3.1409435,3.6811042,8.106278,-1
912,913,1580694650362,-1.9576,-0.7823,-0.7636,-3.7272741999999996,3.5594692,7.8615627,-1
913,914,1580694650372,-2.4543998,-0.8538,-0.80969995,-4.261775,3.4744272000000005,7.819769,-1
914,915,1580694650382,-3.0760999,-1.1299,-0.92149997,-4.7804737,3.2497745,7.6931925,-1
915,916,1580694650392,-3.6497,-1.4886999,-1.5282999,-5.4630127,2.8767962000000002,6.892696000000001,-1
916,917,1580694650403,-3.9675,-1.8716999,-2.5017998,-5.747415,2.5277886,5.8238864,-1
917,918,1580694650413,-4.3947,-2.3892,-3.8049,-6.2569013,2.039448,4.468978400000001,-1
918,919,1580694650423,-5.0018,-2.9139,-5.1664,-6.955003,1.5450741000000001,2.8851757,-1
919,920,1580694650433,-5.3978,-3.2508,-6.0520997,-7.270912599999999,1.3014113999999999,2.2791266,-1
920,921,1580694650443,-5.659,-3.3083,-6.2791,-7.557316999999999,1.4365018999999999,2.2241560000000002,-1
921,922,1580694650454,-5.9842,-3.0965998,-6.1619,-7.93969,1.6459179,2.3069859,-1
922,923,1580694650464,-6.4059,-2.9645,-6.1688,-8.35427,1.6955162,2.271944,-1
923,924,1580694650474,-6.7938,-3.0269999999999997,-6.2876997,-8.665784,1.5483207,2.0831947,-1
924,925,1580694650484,-7.0369997,-3.3097,-6.437999700000001,-8.8352165,1.1783687,2.0408654,-1
925,926,1580694650494,-7.1538997,-3.8718998,-6.5797,-8.772967,0.5039123999999999,1.5566524,-1
926,927,1580694650504,-7.0973,-4.7609997,-7.604099799999999,-8.590616,-0.46909115,0.46599784,-1
927,928,1580694650515,-6.7785997,-5.7156,-8.239699,-7.9949384000000006,-1.2208321000000002,0.31219435,-1
928,929,1580694650525,-5.9967,-6.1944,-7.9049997,-7.0058174,-1.5579454,0.84573734,-1
929,930,1580694650535,-5.1377,-6.2511997,-7.1698,-6.0500135,-1.5180292,1.7594606,-1
930,931,1580694650545,-4.116699700000001,-6.1126,-6.179199700000001,-4.3578209999999995,-1.4705761999999998,2.8897437999999998,-1
931,932,1580694650556,-2.6204998,-6.032099700000001,-5.5362,-2.7674098,-1.3358784,3.2051466,-1
932,933,1580694650566,-1.3405,-5.8714,-5.3919997,-1.5665548999999999,-1.3895468,3.0878978,-1
933,934,1580694650576,-0.2726,-5.8928,-5.8701,-0.6745137,-1.5144284,2.0755908,-1
934,935,1580694650586,0.0585,-6.093999999999999,-7.2219996,-0.78697413,-1.8846581000000002,0.8896183000000001,-1
935,936,1580694650597,-0.4292,-6.8459,-8.7824,-1.3404177,-3.0285787999999996,-1.2369691,-1
936,937,1580694650608,-1.1358,-7.8739996,-10.7526,-1.8442057,-4.272787999999999,-2.8975777999999996,-1
937,938,1580694650618,-1.5674,-8.8958,-11.7192,-1.4320104,-5.242191,-2.5757587,-1
938,939,1580694650628,-1.1420000000000001,-9.6339,-11.1525,-0.15995182,-5.435757,-1.1185806,-1
939,940,1580694650639,0.1358,-9.5735,-9.5767,2.316888,-5.0922565,1.2638512,-1
940,941,1580694650649,2.6499999,-8.9791,-7.1310997,4.743737,-4.545114,3.4936192000000004,-1
941,942,1580694650659,5.3255,-7.759299799999999,-4.7324,7.225988,-3.0350432,5.412562,-1
942,943,1580694650669,6.7451,-6.4803996,-3.7603,7.6448584,-3.1939895000000003,5.8682365,-1
943,944,1580694650679,7.3546996,-6.6503,-3.1241,8.064342,-3.8558904999999997,6.3680687,-1
944,945,1580694650690,7.46,-6.8433,-3.0291997999999998,7.7165313,-4.6568274,6.152686599999999,-1
945,946,1580694650700,7.0381,-7.2981997000000005,-3.2789998,7.309736999999999,-5.461021,5.957875,-1
946,947,1580694650710,6.5288997,-7.9392996,-3.5015,6.665428599999999,-5.7147484,5.663187000000001,-1
947,948,1580694650720,6.1840997,-7.4691,-3.5332,7.2400947,-5.448494,6.012884,-1
948,949,1580694650731,6.1840997,-7.4691,-3.5332,8.806362,-4.918945,6.724795299999999,-1
949,950,1580694650741,8.1588,-6.4589,-2.5993,10.528741,-4.3262844000000005,8.219515,-1
950,951,1580694650751,11.699599000000001,-4.9825,2.0226998,12.763059,-4.0342199999999995,12.153313,-1
951,952,1580694650761,11.699599000000001,-4.9825,2.0226998,12.685678,-4.21844,13.622596,-1
952,953,1580694650771,11.0919,-5.0738997,5.7521996,11.715835,-4.9674510000000005,15.807516,-1
953,954,1580694650784,11.0919,-5.0738997,5.7521996,10.861402,-4.682398,16.108515,-1
954,955,1580694650794,9.418,-4.0519,5.937599700000001,10.141503,-4.5276556,15.372585,-1
955,956,1580694650805,9.408899,-3.6819,4.9876,10.510553999999999,-4.340639599999999,14.362491,-1
956,957,1580694650815,10.170199,-3.2844,4.4775,11.336267,-4.353214299999999,14.3979435,-1
957,958,1580694650825,11.126699,-3.2651,5.2858996,12.544955999999999,-4.688498,16.057623,-1
958,959,1580694650836,12.107599,-2.9898999,7.4024997,12.996034,-4.4003224,18.65352,-1
959,960,1580694650846,12.1126995,-2.2999,10.093699,12.513908,-4.3130107,20.64657,-1
960,961,1580694650856,11.322000000000001,-2.0149,12.496099000000001,11.324277,-4.1271152,23.24429,-1
961,962,1580694650866,10.373199000000001,-1.1733999,14.557699,10.819848,-3.7545583,24.31241,-1
962,963,1580694650877,9.921599,-0.3096,16.2242,10.316614999999999,-3.2259092000000003,26.555853000000003,-1
963,964,1580694650888,9.7423,0.084199995,17.498998999999998,10.487255000000001,-3.2784282999999994,27.107899,-1
964,965,1580694650898,9.967199,0.2862,18.0227,10.730458,-3.3055498999999995,27.171497,-1
965,966,1580694650908,10.078899,0.43719998,18.0865,10.427197999999999,-3.0265584,27.233528000000003,-1
966,967,1580694650918,9.6081,1.0353,18.327799,9.9570055,-2.1696255,27.793894,-1
967,968,1580694650929,9.203199,2.0946,19.020899,9.892497,-1.3526187,28.297195000000002,-1
968,969,1580694650939,8.9986,3.1113,19.5646,9.505297,-0.835155,28.30317,-1
969,970,1580694650950,8.5124,3.3616,19.3853,8.535300999999999,-1.3916058999999998,27.600271000000003,-1
970,971,1580694650960,7.2991996,2.6629,18.6068,6.286580000000001,-2.7298975,26.122989999999998,-1
971,972,1580694650970,2.7666,0.013499998999999999,15.288098999999999,3.9036023999999996,-4.1210146,24.12888,-1
972,973,1580694650980,0.1417,-1.4563,13.3497,1.3989223999999998,-5.455581,22.232364999999998,-1
973,974,1580694650990,0.1417,-1.4563,13.3497,-1.1244319999999999,-6.663475,20.345083,-1
974,975,1580694651001,-2.5070999,-2.8411,11.4091,-3.6885931000000003,-7.5604005,18.536158,-1
975,976,1580694651011,-5.2139,-3.9580998,9.5302,-6.2131453,-8.276361999999999,17.011751,-1
976,977,1580694651021,-10.2162,-5.8296,6.6396,-9.009458,-9.061603999999999,15.473706,-1
977,978,1580694651031,-10.2162,-5.8296,6.6396,-10.030336,-9.204116,15.028154999999998,-1
978,979,1580694651041,-12.3966,-6.3998,5.6752,-11.391306,-9.415658,13.966021,-1
979,980,1580694651051,-13.743198999999999,-7.0081997000000005,4.094599700000001,-11.467585,-9.319372999999999,13.353794,-1
980,981,1580694651062,-13.743198999999999,-7.0081997000000005,4.094599700000001,-11.57586,-8.827584,13.469845999999999,-1
981,982,1580694651072,-14.561399,-6.7792997,4.4818,-12.136802000000001,-8.639994,13.763634,-1
982,983,1580694651082,-15.0174,-7.2914996,4.0769997,-12.5111685,-8.930334,13.297406,-1
983,984,1580694651092,-15.5734,-7.9574,3.3205,-13.059968,-9.345986,12.490215,-1
984,985,1580694651102,-16.152898999999998,-8.4426,2.0661,-13.462089,-9.516358,11.449044,-1
985,986,1580694651112,-16.1374,-8.7127,0.3927,-13.292024,-9.459175,9.455899,-1
986,987,1580694651123,-15.2316,-8.462299,-1.2091,-12.206301,-8.878226,7.8899193,-1
987,988,1580694651133,-13.688298999999999,-7.8299,-2.633,-10.649936,-7.9610558000000005,6.537999999999999,-1
988,989,1580694651143,-12.2864,-7.1172,-3.7417,-9.299922,-7.0838394000000005,5.4968476,-1
989,990,1580694651153,-10.7845,-6.6292995999999995,-4.7708,-7.542186,-6.319074,4.2623878,-1
990,991,1580694651163,-9.472099,-6.2514997,-5.7885,-6.573500999999999,-5.9084970000000006,3.4290333,-1
991,992,1580694651173,-8.0852995,-5.9139,-6.883899700000001,-4.8648934,-5.3212566,2.1605182000000003,-1
992,993,1580694651184,-6.3956,-5.5028996,-7.7548,-3.0952432,-4.6844563,1.5571218,-1
993,994,1580694651194,-4.3663,-4.7889,-8.0486,-1.0494552,-3.7896763999999994,1.3382056,-1
994,995,1580694651204,-2.3451998,-3.9810000000000003,-8.245299000000001,0.8242949,-2.952424,1.2586318,-1
995,996,1580694651214,-0.6591,-3.1919,-8.0794,2.2093215,-2.1058154,1.5865418,-1
996,997,1580694651224,0.4238,-2.5047998,-7.707000000000001,3.0039860000000003,-1.5092665,1.9132066000000003,-1
997,998,1580694651234,0.9439,-2.0821,-7.4518,3.3113627,-1.1421012,2.0964875,-1
998,999,1580694651244,1.2718999,-1.7972,-7.3525996,3.8005940000000002,-0.81340605,2.2695404999999997,-1
999,1000,1580694651255,2.1692998,-1.3728,-7.0462,4.852280599999999,-0.31788293,2.6469336,-1
1000,1001,1580694651264,3.4060998,-0.84279996,-6.5931997,5.8246427,0.051561527,3.0638888,-1
1001,1002,1580694651274,4.5112,-0.5064,-6.0453,7.024942,0.39444953,3.6556492,-1
1002,1003,1580694651284,5.4193997000000005,-0.2803,-5.5228996,7.82994,0.5658361,4.481495400000001,-1
1003,1004,1580694651294,6.3697,0.1328,-4.1143,8.609108,0.9151021999999999,5.8583913,-1
1004,1005,1580694651304,7.531399700000001,0.87369996,-2.1692998,9.741049,1.6556671000000003,8.221469,-1
1005,1006,1580694651315,7.9571996,1.4047999,-0.2534,9.679911,1.8691053,9.732267,-1
1006,1007,1580694651325,7.1948,1.3824999,1.1656,8.487819,1.5417031,11.096992,-1
1007,1008,1580694651335,6.2556996,0.9845,1.4143,7.5111756,1.082773,10.858538000000001,-1
1008,1009,1580694651345,5.3644,0.6565,0.5618,6.753880499999999,0.82959086,10.010760000000001,-1
1009,1010,1580694651355,4.5524,0.532,-0.4732,5.9650006,0.7492798,8.916343,-1
1010,1011,1580694651365,4.4722,0.5995,-1.0972998999999999,6.076551,0.82520473,8.544379,-1
1011,1012,1580694651375,4.6308,0.74039996,-0.9307,6.065144999999999,0.9404041,9.112437,-1
1012,1013,1580694651386,4.6892,0.8084,-0.0014,6.116448,0.8196405999999999,10.427764,-1
1013,1014,1580694651396,4.8127,0.8165,0.7823,6.1612480000000005,0.8242374,10.952314,-1
1014,1015,1580694651406,4.8972,0.8847,1.3148,5.9814725,0.7234703,11.196006,-1
1015,1016,1580694651416,4.5264997000000005,0.7395,1.5074999,5.3211129999999995,0.53475934,11.244464,-1
1016,1017,1580694651426,3.753,0.606,1.5261999,4.4645543,0.37546828,11.273961,-1
1017,1018,1580694651437,2.9845998,0.5173,1.5073,3.9201126000000004,0.3752959,11.122015,-1
1018,1019,1580694651447,2.5776,0.57379997,1.2935,3.6782696,0.37576517,10.906096,-1
1019,1020,1580694651457,2.3309,0.48549998,1.0117999,3.2996792999999998,0.18235198,10.447606,-1
1020,1021,1580694651467,1.8826,0.24839999,0.4746,2.946295,-0.13323253,9.879185000000001,-1
1021,1022,1580694651478,1.6532999,0.0379,0.122099996,2.8543386,-0.24893951,9.958979,-1
1022,1023,1580694651489,1.5759999999999998,-0.061499998,0.24859999,2.7255783,-0.2981547,10.086283,-1
1023,1024,1580694651499,1.4376,-0.054899998,0.3743,2.4760642,-0.30691752,10.342338999999999,d
1024,1025,1580694651509,1.2078999,-0.047599997000000005,0.66719997,2.314762,-0.17035224,10.568064,-1
1025,1026,1580694651519,1.0962,0.12109999,0.83379996,2.2746737,-0.07162494,10.306598,-1
1026,1027,1580694651529,1.0524,0.23169999,0.5699,2.4815612000000002,0.039082948,9.842486,-1
1027,1028,1580694651539,1.2456,0.324,0.100899994,2.9831464,0.21339041,9.804266,-1
1028,1029,1580694651550,1.8153,0.5609,0.0837,3.0495617000000004,0.3121177,9.792869999999999,-1
1029,1030,1580694651560,1.1837,0.30679998,0.057699997,2.4677324,0.018799273000000002,9.783666,-1
1030,1031,1580694651570,0.7353,0.2026,0.2147,2.0102005000000003,-0.12591586,9.947563,-1
1031,1032,1580694651580,0.41,0.16139999,0.5182,1.6763914,-0.18722658,10.256655,-1
1032,1033,1580694651590,0.41,0.16139999,0.5182,1.4419799,-0.2252848,10.522602000000001,-1
1033,1034,1580694651600,0.0473,0.134,0.9287,1.3003388999999999,-0.24351904,10.66275,-1
1034,1035,1580694651610,-0.12879999,0.16129999,0.8002,1.1103925,-0.22889526,10.528378,-1
1035,1036,1580694651620,-0.12879999,0.16129999,0.8002,1.2200947,-0.16143623,10.098225999999999,-1
1036,1037,1580694651630,0.26909998,0.3354,-0.0647,1.4934646999999999,-0.051781796,9.668427000000001,-1
1037,1038,1580694651640,0.26909998,0.3354,-0.0647,1.9238751,0.14740620000000001,9.335222,-1
1038,1039,1580694651650,1.1262,0.6842,-0.43919998,2.3303914,0.320009,9.295067,-1
1039,1040,1580694651660,1.1262,0.6842,-0.43919998,2.3168404,0.3101736,9.353907000000001,-1
1040,1041,1580694651670,1.1165999,0.6791,-0.3814,1.8433244999999998,0.07249643,9.480952,-1
1041,1042,1580694651681,0.023899998999999998,0.18079999,0.07719999599999999,1.1937872,-0.22267991,9.809657000000001,-1
1042,1043,1580694651691,0.023899998999999998,0.18079999,0.07719999599999999,0.74689513,-0.42378327,10.176536,-1
1043,1044,1580694651701,-0.7195,-0.0967,0.6544,0.43394428,-0.5327960999999999,10.399713,-1
1044,1045,1580694651711,-0.6914,-0.0783,0.6832,0.45096225,-0.5184308,10.424114999999999,-1
1045,1046,1580694651721,-0.6914,-0.0783,0.6832,0.9411799000000001,-0.24152707,10.273137,-1
1046,1047,1580694651731,0.1708,0.3597,0.2792,1.3386651000000003,-0.07613561,9.943033,-1
1047,1048,1580694651741,0.3004,0.3908,0.07200000000000001,1.440754,-0.06617574,9.81322,-1
1048,1049,1580694651752,0.4748,0.4172,0.0801,1.5648215,-0.047156196,9.827853,-1
1049,1050,1580694651762,0.60859996,0.4409,0.1466,1.6983508999999999,-0.039035062999999995,9.918871000000001,-1
1050,1051,1580694651772,0.60859996,0.4409,0.1466,1.7055144,-0.013388377,10.10603,-1
1051,1052,1580694651782,0.66899997,0.5072,0.76909995,1.6655505000000002,-0.01298615,10.583271,-1
1052,1053,1580694651792,0.6745,0.5031,1.0122,1.6142762,-0.045566447,10.810222999999999,-1
1053,1054,1580694651803,0.6336,0.5089,1.1865,1.5582327,-0.11204864,11.093437,-1
1054,1055,1580694651814,0.64489996,0.4631,1.5971999,1.5450549,-0.09479123,11.51318,-1
1055,1056,1580694651824,0.68619996,0.5317,1.939,1.6410625,-0.07488105,11.743119,-1
1056,1057,1580694651834,0.88199997,0.5244,2.0159,1.8207234,-0.050958185999999996,11.784107,-1
1057,1058,1580694651844,1.0732,0.6416,2.0823998,1.9682924,0.10468408,11.882835,-1
1058,1059,1580694651854,1.1962,0.63299996,2.1483,1.9939293999999999,0.04180276,11.923335,-1
1059,1060,1580694651864,1.2718999,0.6083,2.2036998,2.06588,0.0983538,12.006491,-1
1060,1061,1580694651875,1.4462,0.7359,2.3571,2.2260714,0.13524367,12.304607,-1
1061,1062,1580694651885,1.5673,0.7497,2.6675,2.1427243,0.15962622,12.773937,-1
1062,1063,1580694651895,1.5396999,0.7831,3.2825,2.1509027,0.15063359,13.554725,-1
1063,1064,1580694651906,1.6475999,0.7506,4.1138,2.211591,0.07387549,14.3704195,-1
1064,1065,1580694651916,1.7279999,0.6543,4.8863997,2.2658055,-0.028807035,15.093297,-1
1065,1066,1580694651926,1.7867,0.5959,5.5214996,2.1993327000000003,-0.018464083,15.458891,-1
1066,1067,1580694651936,1.6144999,0.5363,5.7051997000000005,2.0226982,-0.0009481038400000001,15.481588,-1
1067,1068,1580694651946,1.4808999,0.52669996,5.7117,1.9122298,0.18294574,15.457541,-1
1068,1069,1580694651956,1.4416,0.6364,5.638999999999999,1.8244487,0.30065426,15.447303,-1
1069,1070,1580694651967,1.3991,0.7496,5.683399700000001,1.7686447,0.4556549,15.549948,-1
1070,1071,1580694651977,1.3939999,0.821,5.7379,1.6505914000000002,0.61773276,15.594728,-1
1071,1072,1580694651987,1.3016,0.95909995,5.7734,1.4986743999999999,0.8935735,15.467576999999999,-1
1072,1073,1580694651997,1.1702,1.1000999,5.4863,1.2079514,0.92476517,14.910523000000001,-1
1073,1074,1580694652007,0.90999997,0.9683,4.9551997000000005,0.8136647,1.0009199,14.123157,-1
1074,1075,1580694652017,0.4951,0.99009997,4.1314,0.51177496,1.2295853,13.350222,-1
1075,1076,1580694652028,0.19299999,1.0648,3.4271,0.12914324,1.2008646,12.995114,-1
1076,1077,1580694652038,-0.267,0.8792,3.1462,-0.19096154,1.0583329,12.850169000000001,-1
1077,1078,1580694652048,-0.4594,0.6204,3.072,0.26977867,0.9568761999999998,13.179160999999999,-1
1078,1079,1580694652058,0.112399995,0.53029996,3.4975,1.0958643999999997,1.3553864,13.699267,-1
1079,1080,1580694652068,0.89419997,0.89479995,3.9506997999999998,1.2603269,1.4769447,13.753720999999999,-1
1080,1081,1580694652078,0.9867,0.8813,3.9219999999999997,0.8268519,1.4425545,13.254875,-1
1081,1082,1580694652089,0.6811,0.8208,3.4619999999999997,0.6504088000000001,1.5078874,12.669435499999999,-1
1082,1083,1580694652099,0.59029996,0.83889997,2.8760998,0.37857115,1.4400166,12.331671,-1
1083,1084,1580694652109,0.28129998,0.6541,2.4493,-0.31420544,0.9352135,11.630582,-1
1084,1085,1580694652120,-0.2593,0.104899995,1.8484,-0.72487813,0.6643048,11.276125,-1
1085,1086,1580694652130,-0.93299997,-0.3454,1.2597,-1.4212268999999997,0.52299905,10.257794,-1
1086,1087,1580694652140,-1.4003999,-0.5317,0.4967,-1.4959738,0.35449508,9.551591,-1
1087,1088,1580694652150,-0.9598,-0.90169996,-0.7908,-0.7452575,0.39705440000000003,8.854208,-1
1088,1089,1580694652160,-0.9598,-0.90169996,-0.7908,0.11979628,0.46168828,8.50227,-1
1089,1090,1580694652171,1.0315,-0.87009996,-1.4656999,1.0056796000000001,0.56204367,8.248236,-1
1090,1091,1580694652181,1.4160999,-0.6574,-1.6732,1.3781025,0.90936565,7.9738983999999995,-1
1091,1092,1580694652191,1.5033,-0.5534,-1.6947,1.2646747999999999,0.96290004,8.048865,-1
1092,1093,1580694652201,1.5033,-0.5534,-1.6947,0.97007304,0.8252813,8.083983,-1
1093,1094,1580694652211,0.8135,-1.1883,-1.7727,0.38361818,0.32518047,7.863928,-1
1094,1095,1580694652221,0.33929998,-1.7974,-1.9646,-0.20950224,-0.22141577,7.628721700000001,-1
1095,1096,1580694652232,-0.3032,-2.1901999,-2.5455,-0.9112715,-0.46557647,6.9110546,-1
1096,1097,1580694652242,-1.0752,-2.3047,-3.5542998,-1.6946734,-0.42371625,5.8550873,-1
1097,1098,1580694652252,-1.6869999,-2.3072,-4.5415,-2.1748354,-0.3287143,5.064522,-1
1098,1099,1580694652262,-1.986,-2.3336,-5.2539,-2.5337357999999996,-0.28473762,4.220633,-1
1099,1100,1580694652272,-2.0837998,-2.8065,-5.5857,-2.6500556,-0.7486669,3.930858,-1
1100,1101,1580694652282,-2.1187,-3.3414,-5.7927,-2.6685197,-1.1477323999999998,3.7217483999999996,-1
1101,1102,1580694652292,-2.1032999,-3.3799,-5.8655996,-2.760438,-0.86363643,3.7833557,-1
1102,1103,1580694652303,-2.2666,-2.7758,-5.6085,-2.8690197,-0.43800482,3.9019551,-1
1103,1104,1580694652313,-1.6428,-2.0535,-5.1972,-2.0675175,0.44067675,4.413183999999999,-1
1104,1105,1580694652323,-0.72639996,-1.6880000000000002,-4.5527,-1.1771236999999999,0.7822623000000001,5.1010766,-1
1105,1106,1580694652333,0.0638,-1.3744,-3.8595998,-0.35565388,1.143758,5.756341,-1
1106,1107,1580694652343,1.2351999,-0.90529996,-3.1548,1.3380044,1.9229845,6.552757700000001,-1
1107,1108,1580694652353,2.6694,-0.0077,-2.7019,2.5910435,2.8994357999999996,6.823417699999999,-1
1108,1109,1580694652364,3.488,0.57839996,-2.6576998,3.188186,3.136835,6.7618384,-1
1109,1110,1580694652373,3.6327,0.0844,-2.7782,2.9489381000000003,2.4070632,6.405208,-1
1110,1111,1580694652383,2.7668998,-0.812,-3.5247998,2.0228705000000002,1.7935827000000002,5.780254,-1
1111,1112,1580694652393,1.3962,-1.5309,-3.7315998,0.33618423,1.0240864,5.720064,-1
1112,1113,1580694652403,-0.21609999,-2.0096,-3.4984,-1.4770789,0.9274946,6.0007980000000005,-1
1113,1114,1580694652413,-1.9132999,-1.8359999999999999,-3.1001,-2.809414,1.089065,6.525866000000001,-1
1114,1115,1580694652424,-2.5990999,-1.9409,-2.4780998,-3.1354659,0.9508907,7.008412400000001,-1
1115,1116,1580694652434,-2.4873,-2.1599998,-2.3968,-2.6404788,0.7433709,6.837811500000001,-1
1116,1117,1580694652444,-1.4508,-2.2805998,-2.5509999,-1.3629806999999998,0.8855386000000001,6.808525599999999,-1
1117,1118,1580694652455,-0.3617,-1.7597,-2.4222,-0.46055824,1.6150613999999999,7.0323644,-1
1118,1119,1580694652464,0.3707,-1.2674999,-1.8844999,0.27935547,1.9000384999999997,7.667919599999999,-1
1119,1120,1580694652474,0.81399995,-1.0281,-1.3794999,0.2600103,2.3248465,8.028247,-1
1120,1121,1580694652484,0.2487,-0.43609998,-0.965,-0.41311473,2.7809515,8.692427,-1
1121,1122,1580694652494,-0.24769999,-0.4563,0.0069999998,-0.8144979,2.5580707,9.661897,-1
1122,1123,1580694652504,-0.55579996,-0.65889996,0.6179,-1.0730046,2.4677997000000005,9.854994,-1
1123,1124,1580694652514,-0.69619995,-0.6652,0.2342,-1.1219611999999999,2.4622066000000005,9.321451,-1
1124,1125,1580694652525,-0.6307,-0.8858,-0.20269999,-0.93347055,2.1639082000000003,8.798921,-1
1125,1126,1580694652535,-0.5051,-1.1036999,-0.68649995,-0.8150341,2.2205932,8.32349,-1
1126,1127,1580694652545,-0.3726,-1.0042,-0.97459996,-0.67405397,2.4617755,8.363875,-1
1127,1128,1580694652555,-0.40899998,-0.7344,-0.7665,-0.9634171999999999,2.819297,8.6442175,-1
1128,1129,1580694652565,-0.7256,-0.4292,-0.48459998,-1.1636203999999999,3.0213006,8.813774,-1
1129,1130,1580694652576,-0.79929996,-0.20179999,-0.3626,-1.132965,3.2886467000000006,8.788435,-1
1130,1131,1580694652586,-0.634,-0.050699997999999996,-0.5549,-1.097732,3.3497657999999997,8.51177,-1
1131,1132,1580694652596,-0.6356,-0.020299999,-0.6778,-1.0395049,3.285879,8.75075,-1
1132,1133,1580694652606,-0.4292,-0.1393,-0.2613,-0.65181667,3.2733812,9.210695,-1
1133,1134,1580694652616,-0.0191,-0.015199998999999999,0.16499999,-0.28714138,3.6461873,9.491697,-1
1134,1135,1580694652627,0.2481,0.2562,0.2974,-0.08686164,3.72442,9.443277,-1
1135,1136,1580694652637,0.48439997,0.37489998,0.2233,0.08537724,4.139699,9.379916999999999,-1
1136,1137,1580694652647,0.6635,0.7748,0.1774,0.15516342,4.3849616,9.119428,-1
1137,1138,1580694652657,0.71379995,1.0037,-0.1338,-0.095174305,4.4718995,8.87407,-1
1138,1139,1580694652667,0.5766,1.0685999,-0.39609998,-0.02401863,4.4411097,8.486603,-1
1139,1140,1580694652677,0.72929996,0.97599995,-0.8542,-0.12006443,4.099582,8.357009,-1
1140,1141,1580694652688,0.5755,0.5794,-0.7734,-0.76350135,3.5300588999999998,8.558294,-1
1141,1142,1580694652698,-0.06839999599999999,0.0437,-0.5758,-1.2182752000000001,3.3050422999999993,8.810126,-1
1142,1143,1580694652708,-0.4543,-0.1249,-0.1823,-1.2739833999999999,3.2208047000000004,9.414891,-1
1143,1144,1580694652718,-0.45189998,-0.2005,0.3384,-1.2528953999999999,3.141365,9.746833,-1
1144,1145,1580694652728,-0.4473,-0.2774,0.6139,-1.1001356000000002,3.1481166000000003,10.029713000000001,-1
1145,1146,1580694652738,-0.2767,-0.23269999,0.97709996,-0.83779824,3.4657888,10.825124,-1
1146,1147,1580694652748,-0.0075999996999999994,0.13409999,1.78,-0.7110013000000001,3.7131004,11.144578,-1
1147,1148,1580694652759,0.103999995,0.299,1.9564999,-0.7347805000000001,3.7217195,10.795905,-1
1148,1149,1580694652769,0.105,0.3401,1.4894999,-0.75928754,3.8080833,10.038696,-1
1149,1150,1580694652779,0.1751,0.3791,0.6940000000000001,-0.8111651,3.592308,9.152075,-1
1150,1151,1580694652789,0.1335,0.1601,0.0001,-1.1748252000000001,3.3986553999999995,8.873448,-1
1151,1152,1580694652799,-0.2144,-0.0861,-0.25759998,-1.2426864,3.3370192000000003,8.743586,-1
1152,1153,1580694652809,-0.2856,-0.18609999,-0.3804,-0.9005550999999999,3.3408307999999995,8.573981,-1
1153,1154,1580694652820,0.020399999,-0.2333,-0.52169997,-0.7747158000000001,3.3891459000000004,8.484188,-1
1154,1155,1580694652830,0.13329999,-0.2101,-0.61109996,-0.8128219,3.478938,8.531948,-1
1155,1156,1580694652840,0.0876,-0.1379,-0.5525,-0.93981034,3.6628509,8.979329,-1
1156,1157,1580694652850,-0.1409,0.1366,0.23359999,-1.0729471000000002,3.775503,9.304135,-1
1157,1158,1580694652860,-0.3548,0.050699997999999996,0.1025,-1.3286766,3.69772,9.165875999999999,-1
1158,1159,1580694652871,-0.7295,-0.0425,-0.18259999,-1.7310556000000001,3.6161542,8.874722,-1
1159,1160,1580694652881,-1.0014,-0.2445,-0.4847,-2.0044543999999997,3.43952,8.556761999999999,d
1160,1161,1580694652891,-1.087,-0.3398,-0.89229995,-2.0957310000000002,3.3822982,8.009418499999999,-1
1161,1162,1580694652901,-1.043,-0.4233,-1.5925,-1.9831363999999998,3.3289459999999997,7.3232307,-1
1162,1163,1580694652911,-0.9806,-0.4678,-1.9698,-1.8870044,3.3501682,6.984259599999999,-1
1163,1164,1580694652921,-0.82089996,-0.4553,-2.213,-1.7079852999999998,3.4314656,6.721951,-1
1164,1165,1580694652932,-0.7592,-0.3409,-2.4019,-1.6261513,3.5359870000000004,6.589533,-1
1165,1166,1580694652942,-0.87619996,-0.4046,-2.0869,-1.8020773,3.4286117999999997,7.018085000000001,-1
1166,1167,1580694652952,-1.1942999,-0.4718,-1.4734,-2.1388936000000003,3.385267,7.598516,-1
1167,1168,1580694652962,-1.5638,-0.5721,-1.2148,-2.5329982999999996,3.2338097,7.7975225,-1
1168,1169,1580694652972,-1.8735,-0.8118,-1.2689999,-2.87264,2.9219127,7.6359520000000005,-1
1169,1170,1580694652982,-2.2281,-1.0097,-1.6638,-3.2221452999999998,2.7804153,7.190171,-1
1170,1171,1580694652992,-2.5147998,-1.1765,-2.0367,-3.4479568,2.6080039,6.904609,-1
1171,1172,1580694653003,-2.7164,-1.3208,-2.4569,-3.6610312000000005,2.5267543999999997,6.4333444,-1
1172,1173,1580694653013,-2.9294,-1.1956999,-2.8562999,-3.7979894,2.6459377,6.1409645,-1
1173,1174,1580694653023,-2.7064,-1.2289,-2.6189999999999998,-3.4082131,2.645114,6.436418499999999,-1
1174,1175,1580694653033,-2.5039,-1.1747999,-2.7154999,-3.1674714,2.7388133999999997,6.0720496,-1
1175,1176,1580694653043,-2.2867,-1.1668999,-3.1164,-2.9609954,2.6317255,5.81272,-1
1176,1177,1580694653054,-2.3264,-1.4514999,-3.3442,-3.0360682,2.2956755,5.4419059999999995,-1
1177,1178,1580694653064,-2.3056,-1.8040999,-3.7022998,-2.9586396,1.9545113999999997,5.263164,-1
1178,1179,1580694653074,-2.4096,-2.1208,-3.7877,-3.3593812000000005,1.5206915,5.1022735,-1
1179,1180,1580694653084,-3.1832,-2.6058,-4.4307,-4.4017973,1.2069458,3.8389876000000003,-1
1180,1181,1580694653094,-4.5469,-2.6396,-6.3543997,-5.7343235,1.073493,2.1342967,-1
1181,1182,1580694653104,-5.5445,-3.2356,-7.1215997,-6.456597299999999,0.28563786,1.9540515999999999,-1
1182,1183,1580694653115,-6.3255,-3.8188,-6.795099700000001,-7.110309599999999,0.01712333,2.4169753,-1
1183,1184,1580694653125,-6.2738,-3.7154998999999997,-6.2454,-6.178113,0.16062221,3.0879933999999998,-1
1184,1185,1580694653135,-4.6236,-3.4831998,-5.4905996,-3.7792472999999998,0.587403,3.8378959000000004,-1
1185,1186,1580694653145,-2.8976,-3.1245,-5.1488,-2.5061066000000003,0.6798958,3.925878,-1
1186,1187,1580694653155,-1.8266,-3.3346998999999995,-5.2773,-1.6341959,-0.07880754,3.2288012999999998,-1
1187,1188,1580694653165,-1.8332,-4.1173,-6.3787,-2.3712459999999997,-0.9492722,2.0512466000000003,-1
1188,1189,1580694653175,-2.7958,-4.8972,-7.2907,-3.0062363,-1.4589882,1.7117106,-1
1189,1190,1580694653185,-3.6371,-4.9967,-7.7304997,-4.214484,-1.3887328,1.206965,-1
1190,1191,1580694653195,-4.6316,-4.89,-7.5975,-4.4533877,-1.6251745000000002,2.5263042,-1
1191,1192,1580694653205,-4.1823,-5.0162997,-4.8803,-3.0512952999999996,-1.5572175,5.7701125,-1
1192,1193,1580694653216,-2.6641,-4.4259,-3.0045998,-0.72246474,-0.8859408000000001,6.679870599999999,-1
1193,1194,1580694653225,-0.1143,-3.6102998,-2.3486,2.5841193,-0.40215886,7.4776087,-1
1194,1195,1580694653235,3.1252,-3.1088998,-1.7301999,4.8631697,-0.16995001,7.483489,-1
1195,1196,1580694653245,5.2908998,-2.5326998,-2.3702,6.759568700000001,0.41420648,7.1444125,-1
1196,1197,1580694653255,6.3605,-1.6372,-1.1638,7.202132000000001,1.0495318,10.139837,-1
1197,1198,1580694653265,5.9403996,-1.2186999,1.7919999,6.155962000000001,0.8931234,12.718592999999998,-1
1198,1199,1580694653276,4.7622,-1.1967,3.9185,5.2961655,0.7250217,14.546403,-1
1199,1200,1580694653286,4.2695,-1.1069,5.5274997,5.629161,0.594758,15.484796,-1
1200,1201,1580694653296,5.0439,-1.05,5.6507998,7.153233,0.51595044,14.852603,-1
1201,1202,1580694653306,6.9006,-0.8343,5.2558,9.794630999999999,0.91176945,15.6979475,-1
1202,1203,1580694653316,9.841000000000001,-0.0796,6.9319,13.288939000000001,1.9082363000000002,18.081692,-1
1203,1204,1580694653327,13.3841,1.3909,9.3785,16.446814,3.3068714,20.510733,-1
1204,1205,1580694653337,15.902698999999998,2.8897,11.741799,18.027314999999998,4.204075,22.552307,-1
1205,1206,1580694653347,16.8298,3.6227998999999995,13.3406,17.526370999999997,3.9585730000000003,23.131771,-1
1206,1207,1580694653357,15.975698999999999,3.2935,13.278298999999999,16.358439999999998,3.144104,22.459085,-1
1207,1208,1580694653367,14.841498999999999,2.5935,12.6553,15.68183,2.6764112,22.542942,-1
1208,1209,1580694653377,14.2752,2.3011,12.9214,15.511486999999999,2.6080997000000004,23.031760000000002,-1
1209,1210,1580694653387,14.109798999999999,2.3335,13.6121,15.360929500000001,2.6003041000000002,23.661253,-1
1210,1211,1580694653398,13.932898999999999,2.2905,13.880899,15.260010000000001,2.615857,22.743805,-1
1211,1212,1580694653408,13.848598999999998,2.2926,12.7268,15.409714000000001,2.5219467,21.002148000000002,-1
1212,1213,1580694653418,14.0413,2.1031,10.8859,15.557426000000001,2.3590834,18.926748,-1
1213,1214,1580694653428,14.168799,1.8262999,8.7898,15.485207999999998,2.0093386000000004,16.722148999999998,-1
1214,1215,1580694653438,14.026998999999998,1.3421,6.5857997,14.746166,1.4318858,14.610252,-1
1215,1216,1580694653449,13.148999,0.54609996,4.5204,13.251179,0.46740565,12.829444,-1
1216,1217,1580694653459,11.5831995,-0.5986,2.7624,11.404185,-0.5845011999999999,10.775143,-1
1217,1218,1580694653469,9.756,-1.7965,0.6265,9.105513,-1.7578516,8.218825,-1
1218,1219,1580694653479,7.8258,-2.9276,-1.4444,7.013364,-2.6207314,6.8832054000000005,-1
1219,1220,1580694653489,5.7297997,-3.9619,-2.7546,5.090657,-3.3197906,5.9888945,-1
1220,1221,1580694653499,3.7912,-4.8212,-3.6204998,3.7607257000000005,-3.7188082000000002,5.058345,-1
1221,1222,1580694653510,2.4457998,-5.3715,-4.526,3.1243757999999997,-3.8127470000000003,4.291185,-1
1222,1223,1580694653520,1.3866,-5.6693997000000005,-6.252999999999999,2.7014258,-3.7658877,3.2942011,-1
1223,1224,1580694653530,1.1245999,-5.7290998,-7.2383,2.4611435,-3.7204936,2.2789736,-1
1224,1225,1580694653541,0.51089996,-5.9119,-8.2794,1.7287285,-3.8368328000000003,0.96604127,-1
1225,1226,1580694653551,-0.4359,-6.0859,-9.5356,0.98428506,-3.875753,-0.09791327,-1
1226,1227,1580694653561,-0.4359,-6.0859,-9.5356,0.08712979400000001,-3.8685989999999997,-1.6276262,-1
1227,1228,1580694653571,-2.3548,-6.3452997,-12.0404,-0.8435729999999999,-3.983741,-2.6570182,-1
1228,1229,1580694653582,-3.6172998,-6.6566,-12.388499000000001,-2.2776422999999997,-4.308184,-3.0043688,-1
1229,1230,1580694653591,-3.6172998,-6.6566,-12.388499000000001,-3.5458894,-4.635155,-2.6074292999999997,-1
1230,1231,1580694653601,-6.8633,-7.5941997,-11.4102,-5.0678453,-5.1474667,-2.1017547000000003,-1
1231,1232,1580694653611,-6.8633,-7.5941997,-11.4102,-6.413750599999999,-5.558388,-1.9175161,-1
1232,1233,1580694653621,-10.8244,-8.5876,-11.7915,-8.755855,-6.17433,-2.5319257,-1
1233,1234,1580694653631,-12.3856,-9.170199,-12.462299,-10.180968,-6.801132000000001,-3.2150872,-1
1234,1235,1580694653641,-12.3856,-9.170199,-12.462299,-10.806345,-7.234780000000001,-2.7418782999999998,-1
1235,1236,1580694653651,-13.109098999999999,-9.4682,-10.220799000000001,-10.660394,-7.4126205,-0.32940385,-1
1236,1237,1580694653661,-12.6571,-9.2616,-6.9786,-10.051528999999999,-7.436094000000001,3.032582,-1
1237,1238,1580694653671,-12.2116995,-8.8123,-3.7691998,-9.637926,-7.3021044999999996,6.168881,-1
1238,1239,1580694653681,-12.2879,-8.6783,-1.1718,-9.780094,-7.558724400000001,8.670132,-1
1239,1240,1580694653691,-12.9189,-8.6498995,0.527,-10.448822999999999,-7.829087299999999,10.09656,-1
1240,1241,1580694653701,-13.951699,-8.7487,0.9659,-11.4855795,-8.304212,10.435597,-1
1241,1242,1580694653712,-15.350598999999999,-9.3098,1.2785,-12.805923,-9.176601,10.816917,-1
1242,1243,1580694653722,-16.5678,-9.6762,2.4225,-13.875960000000001,-9.818228999999999,12.150352999999999,-1
1243,1244,1580694653732,-17.1653,-10.0083,4.6026998,-14.200460000000001,-10.401399000000001,14.485754,-1
1244,1245,1580694653742,-17.1653,-10.0083,4.6026998,-13.792957999999999,-10.536717999999999,16.049273,-1
1245,1246,1580694653753,-14.9262,-9.4043,8.9962,-11.032156,-10.302729,18.749895000000002,-1
1246,1247,1580694653763,-12.878699000000001,-8.7739,9.82,-9.384619,-10.037576,19.081635000000002,-1
1247,1248,1580694653773,-11.827399,-8.172,9.8706,-8.609779,-9.806286,19.151995,-1
1248,1249,1580694653783,-10.4072,-7.6073,10.7028,-6.790128,-9.539333000000001,20.423958,-1
1249,1250,1580694653793,-8.6104,-6.962999999999999,12.2506,-5.2267337,-9.218069,22.111439,-1
1250,1251,1580694653804,-6.9129996,-6.3413,14.661598999999999,-3.6180217000000003,-9.134225,24.941385,-1
1251,1252,1580694653814,-5.0894,-6.0491,17.7593,-2.2396797999999998,-9.1123705,27.237713,-1
1252,1253,1580694653824,-3.5424,-5.5527997000000004,19.7253,-0.6073898,-8.731902,28.865368,-1
1253,1254,1580694653834,-2.0059,-4.9553,19.8091,0.9614539000000001,-8.562268,28.242146,-1
1254,1255,1580694653844,-0.4109,-4.8684,18.9265,2.1133235,-8.6439495,27.612108000000003,-1
1255,1256,1580694653855,1.0246,-4.5013,19.1105,3.8923113,-8.158645,28.685064,-1
1256,1257,1580694653866,2.3899,-3.905,20.8949,5.199746599999999,-7.630857000000001,31.232734999999998,-1
1257,1258,1580694653876,3.9404998,-3.2603,23.5518,6.4587135,-7.208989,33.01242,-1
1258,1259,1580694653886,5.565,-2.7668998,24.8151,7.865978,-6.9160824000000005,33.205040000000004,-1
1259,1260,1580694653897,6.6312,-2.7602,23.871199,8.521289,-7.171314,31.19865,-1
1260,1261,1580694653907,7.3399997,-3.1483,21.239898999999998,9.164966,-7.368280400000001,28.3903,-1
1261,1262,1580694653917,8.2036,-3.2791997999999998,18.4972,10.152660000000001,-6.832217999999999,25.527718,-1
1262,1263,1580694653927,9.203199,-2.8662,16.171799,11.183651,-6.0903606,23.942984,-1
1263,1264,1580694653937,10.2843,-2.4054,14.5852995,11.61705,-5.7035728,22.544657,-1
1264,1265,1580694653948,10.566299,-2.3789,13.055599,10.820806,-5.6709733,20.915909,-1
1265,1266,1580694653958,9.6046,-2.656,11.222799,9.548853,-5.6909220000000005,18.71377,-1
1266,1267,1580694653968,8.4545,-3.0470998,8.8445,8.498602,-5.7745942999999995,16.444785999999997,-1
1267,1268,1580694653978,7.4449,-3.3999,6.4937997,7.532617999999999,-5.548524,14.346525,-1
1268,1269,1580694653988,6.6282997,-3.5029,4.4291,7.317753,-5.183284,12.903856,-1
1269,1270,1580694653998,6.5692997,-3.4778,2.9961998,7.376104400000001,-4.783356700000001,11.539276,-1
1270,1271,1580694654009,6.5969996,-3.4578,1.5387,7.2996817,-4.319446,9.956288,-1
1271,1272,1580694654019,6.5508,-3.3516998,-0.1393,7.584017299999999,-3.8474437999999993,8.136397,-1
1272,1273,1580694654029,6.9714,-3.2489998,-2.0482,8.405831,-3.1770196,5.6315074,-1
1273,1274,1580694654039,7.6737,-3.0309,-4.1500998,8.823878,-2.7393498,4.195541400000001,-1
1274,1275,1580694654049,8.2347,-2.7765,-5.8683996,9.50453,-1.8287678,2.9932119999999998,-1
1275,1276,1580694654059,8.859,-2.2944999,-6.7931,10.167398,-0.98240805,2.6749074,-1
1276,1277,1580694654070,9.5629,-1.7156,-7.0926,10.453161,-0.35036746,3.1386642000000005,-1
1277,1278,1580694654080,9.864699,-1.3303,-6.6113,9.659005,-0.3814921,2.9557667000000003,-1
1278,1279,1580694654090,9.0736,-1.5878999,-6.7718997000000005,8.554837,-0.66403663,2.3280067000000004,-1
1279,1280,1580694654100,7.9782,-2.0897,-7.3602,7.585683,-1.0681875,1.8248606,-1
1280,1281,1580694654111,7.0113997,-2.6934,-7.8385,7.149307,-1.182841,1.431656,-1
1281,1282,1580694654121,6.5776997,-2.9919999,-8.1988,7.9287339999999995,-0.9267763000000001,1.4208821000000003,-1
1282,1283,1580694654131,8.434999000000001,-2.8253999,-7.7994,9.170022,-0.6997007,1.9180142,-1
1283,1284,1580694654141,9.5815,-2.5874,-7.0319,10.310754,-0.281357,2.6485043,-1
1284,1285,1580694654151,10.4803,-2.2461,-6.6397996,11.1540785,0.12538913,2.9225063,-1
1285,1286,1580694654161,11.0205,-2.302,-6.6403,11.521942,0.038795643,2.8221220000000002,-1
1286,1287,1580694654172,11.0205,-2.302,-6.6403,11.635811,-0.18842368,2.6035316,-1
1287,1288,1580694654182,11.4457,-3.1281,-7.075999700000001,11.82976,-0.6740348,2.406709,-1
1288,1289,1580694654192,10.9487,-3.7491,-6.6952,11.088238,-1.2390378,2.8773419999999996,-1
1289,1290,1580694654202,9.5769,-4.5611997,-6.0611,9.702033,-2.0115986,3.4804892999999995,-1
1290,1291,1580694654212,8.5601,-5.1159,-5.4965,8.738597,-2.3569098,4.049246299999999,-1
1291,1292,1580694654222,8.5601,-5.1159,-5.4965,7.9929466,-2.2022633999999996,4.9145010000000005,-1
1292,1293,1580694654233,6.9270000000000005,-4.7527,-3.4120998,7.1340509999999995,-1.8576131999999999,6.0825653,-1
1293,1294,1580694654243,6.8307,-4.3464,-3.3465998,7.2178955,-1.3753731000000002,5.9579997,-1
1294,1295,1580694654253,7.6755,-3.7039999999999997,-4.0133,8.380203999999999,-0.6154918,4.910977,-1
1295,1296,1580694654263,8.894199,-3.2638998,-5.2072997,9.411463000000001,-0.24760833,3.9313462,-1
1296,1297,1580694654274,10.0393,-2.9182,-6.2844996,10.662788,0.17467138,2.8252156000000004,-1
1297,1298,1580694654284,10.651199,-2.7505999,-6.6122,10.633272,0.17011282,2.804817,-1
1298,1299,1580694654294,9.4439,-3.0849,-6.145,8.660219999999999,-0.41222405,3.6228675999999997,-1
1299,1300,1580694654305,6.946799799999999,-3.8823,-4.9214997,6.167598,-1.2889329,5.04714,-1
1300,1301,1580694654316,4.9177,-4.3985,-3.389,3.8525484,-1.555283,7.1172147,-1
1301,1302,1580694654326,3.1313999,-4.3514,-1.6805999,2.6971064,-1.5186038999999998,8.179656,-1
1302,1303,1580694654336,2.1413999,-4.3828998,-0.9396,1.8627368000000002,-1.7051408,8.183994,-1
1303,1304,1580694654346,1.5004,-4.4686,-1.5766,1.1048379,-1.747997,7.367514,-1
1304,1305,1580694654356,0.6073,-4.5369,-2.2717,-0.019766528000000002,-1.9973961999999998,6.9425144,-1
1305,1306,1580694654366,-0.5801,-4.8026,-2.5112,-1.4824992000000001,-2.5060875,6.987822,-1
1306,1307,1580694654377,-2.1807,-5.481,-2.366,-3.2792997,-3.4771183,7.477092,-1
1307,1308,1580694654387,-3.9104997999999997,-6.285,-1.6299,-4.998432,-4.228457,8.695453,-1
1308,1309,1580694654397,-5.4214997,-6.897599700000001,-0.27989998,-6.38616,-4.9778423,10.051031,-1
1309,1310,1580694654407,-6.6679997,-7.3476996,0.9338,-7.664989,-5.1470456,11.181181,-1
1310,1311,1580694654417,-7.4793,-7.1937,1.7308999,-7.944018400000001,-5.011217,11.476721000000001,-1
1311,1312,1580694654427,-7.6356997,-6.9744997,1.857,-8.01753,-4.9371504999999996,11.4022045,-1
1312,1313,1580694654437,-7.7447996,-6.7753,1.8011999,-8.232376,-4.6760583,11.610471,-1
1313,1314,1580694654448,-8.0241995,-6.3912997,2.1008,-8.764416,-4.3592763,12.08142,-1
1314,1315,1580694654458,-8.5785,-6.0747,2.5003998,-8.961746,-4.172289,12.308141,-1
1315,1316,1580694654468,-8.7464,-5.7858,2.7057,-9.071477,-3.7579483999999996,12.3580265,-1
1316,1317,1580694654478,-8.8813,-5.3462996,2.6476998,-9.116017999999999,-3.3899214,12.060877,-1
1317,1318,1580694654489,-8.8934,-4.928999999999999,2.3161,-8.953683,-3.0777848,11.703461,-1
1318,1319,1580694654499,-8.6546,-4.5902,1.9753,-8.212236,-2.6773112,11.647705,-1
1319,1320,1580694654509,-7.7732997,-4.0966997,1.9785,-7.062167,-2.0935667000000002,11.903138,-1
1320,1321,1580694654519,-6.625499700000001,-3.4917998,2.267,-6.1923633,-1.5706441,12.163637,-1
1321,1322,1580694654529,-5.8968,-2.9643998,2.4685,-5.9472833,-1.2287043,12.038084,-1
1322,1323,1580694654539,-5.7303,-2.625,2.2698,-5.816665,-0.87094355,11.57178,-1
1323,1324,1580694654550,-5.6233997,-2.3165998,1.8669,-5.615418,-0.51256984,11.005887,-1
