,Seq,Time,ACCx,ACCy,ACCz,ADGx,ADGy,ADGz,Keydown
0,1,1580692523220,-0.5133,-0.40219998,-0.2289,-0.11361923,-1.6967611,5.409354,-1
1,2,1580692523231,-0.49359998,0.8994,-3.6557998999999994,-0.63431025,1.6715071,9.515813,-1
2,3,1580692523241,0.0084999995,-0.0243,-0.13849999,-0.48648265,1.6922888999999999,9.589544,-1
3,4,1580692523251,0.1715,-0.015199998999999999,-0.0486,-0.41929173,1.6173693999999998,9.502347,-1
4,5,1580692523261,0.183,-0.099599995,-0.1461,-0.47017333,1.7273207999999998,9.416836,-1
5,6,1580692523272,0.0528,0.16,-0.3514,-0.47338155,1.8431618000000003,9.473837,-1
6,7,1580692523282,0.15609999,0.1008,-0.0378,-0.50230354,1.8679656999999998,10.140009,-1
7,8,1580692523292,0.060399997999999996,0.1458,0.4908,-0.5765237,2.0003746,10.323777999999999,-1
8,9,1580692523302,-0.07369999599999999,0.3936,0.7553,-0.6749638000000001,2.0897646,10.668218,-1
9,10,1580692523313,-0.30679998,0.15789999,1.3040999,-0.89201254,1.8723998,10.949249,-1
10,11,1580692523323,-0.30679998,0.15789999,1.3040999,-1.2785611000000001,1.8516852,11.027032,-1
11,12,1580692523333,-1.0589,0.25759998,1.209,-1.7019039,1.9686754000000002,10.856067999999999,-1
12,13,1580692523343,-1.1532,0.37849998,1.1044999,-1.8223226000000003,2.1061697,10.751614,-1
13,14,1580692523353,-1.2955999,0.5592,0.9321,-2.0616279,2.3122818,10.581855000000001,-1
14,15,1580692523363,-1.3393999,0.44419998,1.3869,-2.1082861,2.099389,11.200459,-1
15,16,1580692523374,-1.3901,0.047599997000000005,2.1341,-2.3101652,1.6886879000000001,11.856948,-1
16,17,1580692523384,-1.9986,-0.2654,2.5191,-3.0757543999999997,1.3780164,12.181459,-1
17,18,1580692523394,-2.9231,-0.47219998,2.6408,-4.0487193999999995,1.1010838,12.320955,-1
18,19,1580692523405,-3.3622,-0.95949996,2.9989,-4.4466553,0.60925734,12.606152999999999,-1
19,20,1580692523415,-3.5535,-1.2045,2.8783998,-4.7468786,0.32620520000000003,12.280109,-1
20,21,1580692523425,-3.6611,-1.5540999,2.4469,-4.930495,0.05540183,11.805033,-1
21,22,1580692523435,-3.9408,-1.7519,1.7724999,-5.1926974999999995,-0.26775792,11.2239895,-1
22,23,1580692523446,-4.0522,-2.1246,1.5205,-5.351548,-0.44800302,10.890955,-1
23,24,1580692523456,-3.9378,-2.3147,1.1227,-5.2569675,-0.5517486,10.62519,-1
24,25,1580692523466,-4.0717,-2.2525,0.6972,-5.4512334000000005,-0.39436334,10.039318,-1
25,26,1580692523476,-3.9009,-2.2108,0.2741,-5.224942700000001,-0.31048006,9.572009,-1
26,27,1580692523487,-3.5219,-2.247,-0.20539999,-4.86859,-0.3602316,9.02323,-1
27,28,1580692523497,-3.3198998,-2.1392,-1.0823,-4.946239,-0.055689134,7.8370940000000004,-1
28,29,1580692523507,-3.2821,-1.9447999,-2.2282999,-5.014655,0.08891107,6.7578545,-1
29,30,1580692523517,-3.3042998,-1.9548999,-3.0769,-5.0729303,0.046734817000000005,5.9721446,-1
30,31,1580692523527,-3.0059,-2.2846,-4.1955,-4.943596,-0.29638302,4.6564255,-1
31,32,1580692523538,-2.6959999,-2.4505,-5.249399700000001,-4.7148824000000005,-0.33469024,3.3681053999999997,-1
32,33,1580692523548,-2.3207,-2.6691,-6.822,-5.0663800000000005,-0.6126092,1.6584731,-1
33,34,1580692523558,-2.5214999,-3.0239999999999996,-7.7317995999999996,-5.0106144,-1.292706,1.6198785,-1
34,35,1580692523568,-1.8586999,-3.3253,-7.4525,-4.836172599999999,-1.2687066999999999,1.8437268,-1
35,36,1580692523579,-1.2911999,-3.1306998999999998,-6.9740996,-4.782437,-0.88200474,2.113314,-1
36,37,1580692523589,-1.1919999,-2.7484999,-6.6383996,-4.38249,-0.74643546,2.6670833,-1
37,38,1580692523599,-0.35779998,-2.6813998,-5.7781,-3.1045517999999994,-0.5497086999999999,3.4469992999999994,-1
38,39,1580692523609,0.82379997,-2.3974,-5.5515,-1.9734447,-0.18146133,3.250665,-1
39,40,1580692523620,2.0551,-2.1662,-5.8961997,-0.38915354,-0.15511554,2.585757,-1
40,41,1580692523630,3.6978,-2.3772,-6.7249,1.575423,-0.69369596,1.7970113,-1
41,42,1580692523640,5.1344,-2.9224,-7.2159996,2.3598877999999996,-1.1094443999999999,2.2264066000000002,-1
42,43,1580692523651,5.5924,-3.2477999,-6.5189,1.572617,-1.1912973999999998,3.7200627,-1
43,44,1580692523661,4.5848,-3.3372998,-5.0259,0.617139,-1.6155498,4.919136,-1
44,45,1580692523671,3.6453998,-3.76,-3.9455,0.47061387,-2.0001736,5.7711754,-1
45,46,1580692523681,3.6037998,-3.9915998,-3.3148,1.5450933,-2.0824863999999996,5.373221,-1
46,47,1580692523692,4.6404,-4.0253997,-3.7312,2.9575,-2.1885877000000002,4.728108,-1
47,48,1580692523701,6.0078998,-4.0927,-4.3989,3.8386620000000002,-2.0668092000000002,4.7127852,-1
48,49,1580692523711,7.1046,-3.8999,-4.3894,4.9278708,-1.796245,5.1712365,-1
49,50,1580692523721,8.1259,-3.5312,-3.8702998,6.1038356,-1.5450263000000002,6.0090346,-1
50,51,1580692523731,9.286099,-3.2531,-2.9986,6.906725999999999,-1.3884263000000001,6.497624,-1
51,52,1580692523742,9.7807,-3.057,-3.3467998999999997,6.850261,-1.4252204,5.871243,-1
52,53,1580692523753,9.8227,-3.3655,-3.9192,6.855653,-1.8496741,5.193224400000001,-1
53,54,1580692523763,9.5996,-3.3936,-4.4974,6.6686273,-1.9027966,4.7500196,-1
54,55,1580692523773,9.5996,-3.3936,-4.4974,6.956324,-1.9246029999999998,4.520205000000001,-1
55,56,1580692523784,9.913099,-3.3121998,-4.7393,7.147611,-1.5815713,5.502000000000001,-1
56,57,1580692523794,10.3896,-2.5096998,-2.3281,7.415311999999999,-1.3990566,7.3387837,-1
57,58,1580692523804,10.908199,-2.1968,-0.7366,7.972634299999999,-1.2038236999999998,8.680532000000001,-1
58,59,1580692523814,11.4964,-1.5417999,-0.3996,8.532542,-0.6657126,8.846478999999999,-1
59,60,1580692523825,12.7383995,-1.0479,-0.6191,9.921935000000001,-0.46364194,8.5978365,-1
60,61,1580692523835,14.116098999999998,-1.0401,-1.0093,11.051741,-0.66025376,8.15671,-1
61,62,1580692523845,13.894898999999999,-0.8084,-1.939,9.911756,-0.46314394,7.472974300000001,-1
62,63,1580692523855,12.474,-0.58349997,-1.015,8.727516,-0.8403073,8.684574000000001,-1
63,64,1580692523865,11.221499,-0.95699996,-0.162,7.334522,-1.4372106000000002,9.214487,-1
64,65,1580692523876,10.2662,-1.2135,0.1866,6.683873700000001,-1.9519925999999999,9.279361,-1
65,66,1580692523886,10.1039,-1.5060999,-0.3906,6.650939,-2.387881,8.501322,-1
66,67,1580692523896,10.314199,-1.8448,-1.6883999,7.0256796,-3.1510757999999996,6.9897857000000005,-1
67,68,1580692523906,10.7105,-2.2503,-2.5340998,7.21893,-3.6625059999999996,6.3272433,-1
68,69,1580692523917,10.667,-1.9930999,-2.7770998,7.250284,-3.4578402,6.450056,-1
69,70,1580692523927,10.724199,-1.5166,-1.6176,7.114045,-3.6116532999999995,8.394712,-1
70,71,1580692523937,10.156099000000001,-1.6297,1.341,6.4038,-4.273755599999999,11.372917999999999,-1
71,72,1580692523947,9.443399000000001,-2.0672,4.0239,5.764126999999999,-5.2715819999999995,13.537592000000002,-1
72,73,1580692523957,8.9262,-2.7138,5.9235,5.471766000000001,-6.5667586,15.604773999999999,-1
73,74,1580692523968,8.5859995,-3.4122,7.7696,5.2669086,-7.4094415,16.981287,-1
74,75,1580692523978,8.1279,-3.9562,9.5001,5.080917400000001,-8.205006,19.040760000000002,-1
75,76,1580692523988,7.791,-4.0288,11.3654995,5.1247315,-8.399415,20.805172,-1
76,77,1580692523998,7.7955,-3.7849998,13.1887,5.6274752999999995,-8.376862,22.35492,-1
77,78,1580692524009,8.3069,-3.4029998999999997,14.910198999999999,6.4492803,-8.449291,24.169388,-1
78,79,1580692524019,8.7918,-3.3362,16.8175,6.903642,-9.050972999999999,25.754227,-1
79,80,1580692524029,8.9234,-3.6996,18.0443,6.5691724,-10.0130205,26.543978000000003,-1
80,81,1580692524039,8.155499,-4.5525,18.8801,5.0523596,-11.553115,27.288057000000002,-1
81,82,1580692524050,6.0245,-5.99,19.727299,3.0369873,-12.784127,27.7687,-1
82,83,1580692524060,3.1627,-7.3466997,20.0282,0.21643583,-14.103888000000001,27.187414,-1
83,84,1580692524070,0.5836,-8.2483,19.2435,-1.7786523999999997,-14.60578,25.929548,-1
84,85,1580692524082,-1.7376,-8.698999,17.853899,-3.6425288,-14.569446,24.117964,-1
85,86,1580692524092,-3.5744998,-8.7195,16.2293,-4.3699449999999995,-14.0576315,22.520905,-1
86,87,1580692524102,-4.6763,-7.4554,13.364699,-4.2289553,-13.038938,21.424457999999998,-1
87,88,1580692524112,-4.6763,-7.4554,13.364699,-3.4691407999999995,-11.9297905,20.80548,-1
88,89,1580692524122,-4.0999,-6.4831,12.66,-2.3966819999999998,-11.192107,20.31981,-1
89,90,1580692524133,-3.1783,-5.906399700000001,12.0786,-1.9645861,-10.871466999999999,19.970945,-1
90,91,1580692524143,-3.7412998999999996,-6.2244,11.1874,-2.6905558,-11.119927,19.639359,-1
91,92,1580692524153,-5.2409,-6.9174,10.9158,-4.0283785000000005,-11.571177,19.47844,-1
92,93,1580692524164,-6.5681,-7.391,10.53,-5.420971,-11.780622,19.133148000000002,-1
93,94,1580692524174,-6.5681,-7.391,10.53,-6.1944604000000005,-11.718574,18.579426,-1
94,95,1580692524184,-8.0903,-7.7787,8.102799000000001,-6.431123,-11.509972,17.030205,-1
95,96,1580692524194,-7.6952,-7.8566,6.0404,-5.8682075,-11.188189999999999,14.800601,-1
96,97,1580692524205,-7.3090997,-7.8335996,5.1552997000000005,-5.3714010000000005,-10.737095,14.318044,-1
97,98,1580692524215,-6.4542,-7.3725,5.1436996,-4.4464445,-9.870738000000001,14.437851,-1
98,99,1580692524225,-5.2839,-6.620899700000001,4.9519,-3.2345857999999996,-8.658228999999999,14.116204000000002,-1
99,100,1580692524235,-4.5308,-6.1288,4.2441,-2.8355105,-8.137212,13.478694,-1
100,101,1580692524245,-4.3680997,-5.9663,2.6296,-2.9482105,-7.615017,11.226355,-1
101,102,1580692524255,-4.6135,-6.0941997,0.0235,-3.4196765,-7.5653806,8.522496,-1
102,103,1580692524266,-5.200599700000001,-6.5471,-2.6562997999999998,-4.011849,-7.571011500000001,6.5848784,-1
103,104,1580692524276,-5.8577,-6.8318996,-4.3461,-4.7720747,-7.3736815,5.0981559999999995,-1
104,105,1580692524286,-6.2081,-6.9108,-4.6738,-5.0432806,-6.9864144,5.2756047,-1
105,106,1580692524296,-6.3086,-6.7257,-4.0861998,-5.18269,-6.3490779999999996,5.8640989999999995,-1
106,107,1580692524306,-6.2969,-6.3122997000000005,-3.7759,-5.233265,-5.6438804000000005,5.893002,-1
107,108,1580692524317,-6.1291,-5.9351997,-4.1577,-5.1124535,-4.801849,5.0960774,-1
108,109,1580692524327,-5.7836,-5.3838,-5.1903996,-4.875188400000001,-4.1370273,3.8401177000000004,-1
109,110,1580692524337,-5.1472,-4.8083,-7.0576,-4.0009985,-3.1028278,1.7404792000000002,-1
110,111,1580692524347,-4.0931997,-4.1872997000000005,-8.464499,-3.2632203,-2.5527458,0.84530646,-1
111,112,1580692524357,-3.2747998,-3.9122,-9.0808,-2.768741,-1.9311726000000002,0.8286045,-1
112,113,1580692524368,-3.0411,-3.5403,-8.4007,-2.6354797000000003,-1.3977158,1.9407591,-1
113,114,1580692524379,-2.8597999,-3.2824,-7.232199700000001,-2.757747,-1.2337896000000002,2.8087242000000003,-1
114,115,1580692524389,-2.9740999,-3.362,-6.723099700000001,-2.9752266,-1.1167227,3.1258507,-1
115,116,1580692524399,-3.0881,-3.3255,-6.3433,-2.7822635,-0.9300037,3.3455807999999996,-1
116,117,1580692524409,-2.6575,-3.2066998,-6.2002,-2.0876768,-0.58155155,3.1861653,-1
117,118,1580692524420,-1.9477999,-2.9605,-6.3424,-1.2742708,-0.17483418,3.2198279999999997,-1
118,119,1580692524429,-1.0534999,-2.6725,-6.197,-0.589893,0.08112513,3.4720904999999997,-1
119,120,1580692524439,-0.2113,-2.4489,-5.778,0.12120406,0.45988786,4.139805,-1
120,121,1580692524449,0.2665,-2.1924999,-5.1802,0.34211227,0.7615476999999999,4.688728,-1
121,122,1580692524459,0.4847,-1.9502,-4.6521,0.61854684,1.1428962,4.9154015,-1
122,123,1580692524469,0.8067,-1.5985999,-4.486799700000001,1.0633799,1.6042299999999998,4.796428700000001,-1
123,124,1580692524480,1.3089,-1.2087,-4.6151,1.5365222,1.8989084999999999,4.7627378,-1
124,125,1580692524490,1.8817999,-0.9934,-4.5769997,1.9637050999999999,1.9414678,4.9526453,-1
125,126,1580692524500,2.1174,-1.0856,-4.315,2.1469,1.8318324000000001,5.3209504999999995,-1
126,127,1580692524511,2.3409998,-1.2293999,-3.9373,2.5822997,1.8420892,5.800892,-1
127,128,1580692524521,2.7063,-1.252,-3.5214999,2.7698615,2.0499346000000003,6.025151999999999,-1
128,129,1580692524532,2.949,-1.0375,-3.2336,3.0612647999999996,2.3236972999999996,6.184759,-1
129,130,1580692524542,3.3267998999999997,-0.6576,-3.0037,3.2331681,2.5533874,6.2819257,-1
130,131,1580692524552,3.5767998999999997,-0.3678,-2.6914,3.4867334000000003,2.8687612999999996,6.582666000000001,-1
131,132,1580692524564,3.7245,-0.2358,-2.2252,3.6325786,3.014798,7.0412326,-1
132,133,1580692524573,3.6671,-0.12969999,-1.8484999,3.5791303999999995,3.145531,7.4899917,-1
133,134,1580692524583,3.7621998999999997,-0.0154,-1.5399,3.6745824999999996,3.2493722000000003,7.71612,-1
134,135,1580692524593,4.0083,0.20109999,-1.5235,3.974011,3.5563567000000003,7.694485,-1
135,136,1580692524604,4.2616997,0.46199998,-1.6329,4.254104,3.8297842000000006,7.6129966,-1
136,137,1580692524614,4.2616997,0.46199998,-1.6329,4.451798,4.1299305,7.71317,-1
137,138,1580692524624,4.4835,0.9546,-1.4592999,4.414755,4.343743,7.7807536,-1
138,139,1580692524634,4.2669,1.0899,-1.4123,4.203816000000001,4.481189,7.8144445000000005,-1
139,140,1580692524645,4.0091,1.0497,-1.3163999,3.9050867999999994,4.43025,7.9276233,-1
140,141,1580692524655,3.4650998,0.91349995,-0.986,3.210998,4.28383,8.349855,-1
141,142,1580692524665,2.8713,0.70059997,-0.764,2.7044040000000003,4.060413,8.384667,-1
142,143,1580692524675,2.4336,0.49629998,-0.9338,2.4049277,3.9356174,8.171382000000001,-1
143,144,1580692524685,2.316,0.5063,-1.1422,2.3788214,4.0228333,7.935189,-1
144,145,1580692524695,2.3707,0.6841,-1.4096999,2.449843,4.230478,7.7420053,-1
145,146,1580692524706,2.4631,0.8279,-1.4045,2.6597667,4.391818499999999,7.9025416,-1
146,147,1580692524716,2.6915998,0.99939996,-0.9806,2.8936515,4.6047106,8.357391,-1
147,148,1580692524726,2.8808,1.1866,-0.6177,3.0744423999999997,4.7144322,8.643001,-1
148,149,1580692524736,2.8467,1.1994,-0.4224,2.8810387000000004,4.659375,8.785801,-1
149,150,1580692524746,2.4422998,1.0547999,-0.4229,2.4472668,4.463807,8.691077,-1
150,151,1580692524756,1.9029,0.7809,-0.5796,1.7624198,4.0923996,8.538892,-1
151,152,1580692524767,1.3048999,0.4766,-0.61829996,1.3322871,3.8525195,8.599829,-1
152,153,1580692524777,0.86109996,0.23089999,-0.49989998,0.9615879999999999,3.6122087999999994,8.77815,-1
153,154,1580692524787,0.86109996,0.23089999,-0.49989998,0.72667855,3.4816482000000004,8.966343,-1
154,155,1580692524797,0.3755,-0.0523,-0.1652,0.64330286,3.4287648,9.013059,d
155,156,1580692524807,0.3229,-0.1003,-0.1648,0.7192469,3.4647737000000003,9.0066805,-1
156,157,1580692524817,0.4766,0.022599999,-0.1856,0.9967158000000002,3.626727,8.933867999999999,-1
157,158,1580692524827,0.7327,0.20809999,-0.2374,1.1893915000000002,3.7673721,8.94626,-1
158,159,1580692524837,0.8839,0.36769998,-0.163,1.3470162,3.8922248,9.126064,-1
159,160,1580692524847,0.9964,0.4606,0.028199999,1.4537114,3.9532866,9.302201,-1
160,161,1580692524857,1.0425,0.5159,0.19929999,1.4112575,3.8991778,9.551629,-1
161,162,1580692524867,0.9158,0.41579998,0.4775,1.2390663999999998,3.7952309,9.783301,-1
162,163,1580692524878,0.6362,0.31599998,0.7457,0.96521765,3.6910737,10.038563,-1
163,164,1580692524888,0.39,0.29279998,0.9163,0.66933256,3.6493762000000003,10.186217,-1
164,165,1580692524898,0.1281,0.23699999,1.0389,0.4450438,3.5908906000000003,10.277657000000001,-1
165,166,1580692524908,-0.1015,0.16759999,1.0059999,0.26723123,3.4850767,10.022167,-1
166,167,1580692524918,-0.1554,0.0824,0.6124,0.32058359999999997,3.4492114000000003,9.552616,-1
167,168,1580692524931,-0.0251,0.091299996,0.2007,0.5049659000000001,3.4571028,9.321978,-1
168,169,1580692524941,0.15339999,0.0819,0.1024,0.6040284,3.4311974000000003,9.336707,-1
169,170,1580692524951,0.1963,0.066,0.1205,0.6672353,3.4599376000000004,9.535387,-1
170,171,1580692524961,0.2592,0.1019,0.3141,0.8599398000000001,3.5609824999999997,9.789096,-1
171,172,1580692524972,0.4473,0.2069,0.5762,0.95014375,3.6465702000000006,10.001308,-1
172,173,1580692524982,0.54719996,0.3012,0.77989995,0.9100552,3.6476142,10.131323,-1
173,174,1580692524992,0.5114,0.3056,0.90569997,0.75997704,3.6053230000000003,10.100553,-1
174,175,1580692525002,0.1899,0.13849999,0.6994,0.58227944,3.4848466,9.930497,-1
175,176,1580692525012,0.1899,0.13849999,0.6994,0.38750634,3.4215440000000004,9.691595,-1
176,177,1580692525022,0.011899999,0.075399995,0.46519998,0.3027037,3.3640738,9.368646,-1
177,178,1580692525033,-0.085099995,-0.051799998,-0.15959999,0.2743851,3.3085568,9.060741,-1
178,179,1580692525043,-0.085099995,-0.051799998,-0.15959999,0.27551517,3.2755551,8.945159,-1
179,180,1580692525053,-0.013999999499999999,-0.060399997999999996,-0.2295,0.32349497,3.2994397000000006,8.997927,-1
180,181,1580692525063,0.015299999,0.0041,0.0916,0.33674926,3.3590841,9.309892,-1
181,182,1580692525073,0.0052,0.0513,0.3728,0.31940567,3.3912047999999997,9.629432000000001,-1
182,183,1580692525083,-0.032899998,0.058599997,0.4482,0.2686869,3.3905919,9.679939,-1
183,184,1580692525093,-0.078899994,0.0844,0.475,0.21142717,3.4127812000000004,9.702225,-1
184,185,1580692525104,-0.124299996,0.0199,0.3554,0.15831420000000002,3.3456192000000002,9.591345,-1
185,186,1580692525114,-0.2077,-0.046099997999999996,0.108899996,0.05929959,3.2673572999999996,9.346005,-1
186,187,1580692525124,-0.3268,-0.0625,-0.19659999,-0.12755350000000001,3.2317317,8.974847,-1
187,188,1580692525134,-0.4028,-0.14469999,-0.4249,-0.20927238,3.1743857999999996,8.819942,-1
188,189,1580692525144,-0.4484,-0.0761,-0.3504,-0.25757778,3.2211015,8.930985,-1
189,190,1580692525154,-0.3496,-0.0547,-0.109799996,-0.15068147,3.2407436,9.203561,-1
190,191,1580692525165,-0.1962,-0.0338,0.1801,-0.007402871700000001,3.2412702999999996,9.517316000000001,-1
191,192,1580692525176,-0.0169,-0.0546,0.42200000000000004,0.22331198,3.2222795,9.764647,-1
192,193,1580692525186,0.14029999,-0.039899997,0.63589996,0.30603644,3.2301037,9.908911,-1
193,194,1580692525196,0.1794,-0.0298,0.52779996,0.2902634,3.2271349999999996,9.709052999999999,-1
194,195,1580692525207,0.1016,-0.0633,0.1466,0.19032945,3.1774216,9.221803999999999,-1
195,196,1580692525217,0.0665,-0.1171,-0.3421,0.17644309,3.1340005,8.633357,-1
196,197,1580692525227,0.0665,-0.1171,-0.3421,0.11156022,3.1223166,8.530101,-1
197,198,1580692525237,-0.0448,-0.21899999999999997,-0.6157,-0.021768082,3.0116856,8.751095,-1
198,199,1580692525247,-0.1512,-0.3128,-0.2936,-0.17683575,2.9337494,9.118288,-1
199,200,1580692525258,-0.22919999,-0.3663,-0.040599998,-0.20184077,2.8822357999999997,9.312401,-1
200,201,1580692525268,-0.23169999,-0.38279998,0.1347,-0.23333889,2.9204855,9.331947,-1
201,202,1580692525278,-0.2438,-0.34329998,-0.012399998999999998,-0.1923789,2.9248526000000004,9.098944,-1
202,203,1580692525288,-0.18769999,-0.3259,-0.2764,-0.08814493,2.9625852000000004,8.8246155,-1
203,204,1580692525298,-0.015,-0.2992,-0.4912,0.086938255,2.9832616,8.742916000000001,-1
204,205,1580692525308,0.1175,-0.25079998,-0.5106,0.08403648,3.0671353,8.793826,-1
205,206,1580692525319,0.035299998,-0.18959999,-0.433,-0.06963296,3.0645015,8.926417,-1
206,207,1580692525329,-0.122999996,-0.2332,-0.278,-0.2573192,3.008573,9.033792,-1
207,208,1580692525339,-0.3103,-0.2559,-0.2411,-0.4244728,2.9748723999999998,8.983189,-1
208,209,1580692525349,-0.3809,-0.2595,-0.3022,-0.41950244,2.9989197,8.939423,-1
209,210,1580692525359,-0.3854,-0.19489999,-0.3139,-0.41916728,3.0780717999999996,8.968928,-1
210,211,1580692525370,-0.37359998,-0.15969999,-0.2865,-0.36954984,3.0699506000000003,9.041061000000001,-1
211,212,1580692525379,-0.3243,-0.1533,-0.2201,-0.30097032,3.1310892000000003,9.144816,-1
212,213,1580692525389,-0.2277,-0.0683,-0.11449999,-0.041429266,3.2604527,9.198514,-1
213,214,1580692525399,0.0229,0.0547,-0.07719999599999999,0.20467553,3.3372202000000004,9.182367,-1
214,215,1580692525409,0.243,0.1375,-0.0787,0.3482797,3.418336,9.317438000000001,-1
215,216,1580692525420,0.355,0.2007,0.0766,0.2569553,3.381714,9.438671000000001,-1
216,217,1580692525429,0.203,0.17559999,0.1731,0.09383355,3.3236883,9.487722999999999,-1
217,218,1580692525439,0.053,0.0722,0.2304,-0.08270530400000001,3.1891722999999996,9.502529,-1
218,219,1580692525449,-0.1138,-0.030299998999999998,0.20899999,-0.22940283,3.0925999,9.537158999999999,-1
219,220,1580692525459,-0.22989999,-0.122499995,0.2658,-0.26635015,3.0364895,9.631309,-1
220,221,1580692525469,-0.2481,-0.15529999,0.35189998,-0.23893175,3.064712,9.681721000000001,-1
221,222,1580692525480,-0.2074,-0.1099,0.4086,-0.07617392,3.148806,9.645032,-1
222,223,1580692525491,-0.03,0.0123,0.3384,-0.016194379,3.2689855,9.627621000000001,-1
223,224,1580692525500,0.0087,0.103199996,0.3473,0.100633085,3.3242724000000003,9.595214,-1
224,225,1580692525510,0.123799995,0.1627,0.29799998,0.18074307,3.3745027000000003,9.550269,-1
225,226,1580692525520,0.1677,0.2102,0.24949999,0.12273636,3.3899407,9.527361,-1
226,227,1580692525530,0.081999995,0.22699999999999998,0.2505,0.12020808,3.3775767999999995,9.520380000000001,-1
227,228,1580692525540,0.104499996,0.195,0.2122,0.080904864,3.3113341,9.478760000000001,-1
228,229,1580692525550,0.041699997999999995,0.1056,0.1831,-0.0043191398,3.2476964,9.499216,-1
229,230,1580692525560,-0.0178,0.0574,0.22209999,0.025388114,3.1884349999999997,9.56633,-1
230,231,1580692525570,0.0023,0.0103,0.2999,0.050249506,3.2086900000000003,9.617239999999999,-1
231,232,1580692525580,0.0338,0.042099997,0.34809998,0.00842759,3.1858397000000003,9.803423,-1
232,233,1580692525591,-0.0123,0.0143,0.5143,-0.06186617,3.2430804,9.844669999999999,-1
233,234,1580692525601,-0.0591,0.07279999599999999,0.5438,-0.028577192,3.3320105000000004,9.760385000000001,-1
234,235,1580692525611,-0.0188,0.1478,0.4763,0.07506301,3.3746655,9.709427,-1
235,236,1580692525622,0.0481,0.19039999,0.4197,0.17141527,3.393101,9.717347,-1
236,237,1580692525632,0.14729999,0.1829,0.30789998,0.18100165,3.3867898000000003,9.590760000000001,-1
237,238,1580692525642,0.1557,0.1647,0.1638,0.18500476,3.3761883000000004,9.4492445,-1
238,239,1580692525652,0.1584,0.1787,0.0088,0.18427692,3.3907356,9.289311,-1
239,240,1580692525662,0.1584,0.1787,0.0088,0.1837885,3.3845297999999997,9.256635000000001,-1
240,241,1580692525672,0.1554,0.1575,-0.010199999,0.09876561,3.3341462999999996,9.516117999999999,d
241,242,1580692525682,0.0047999997999999995,0.1326,0.49809998,-0.0026719290000000004,3.3492296,9.769492,-1
242,243,1580692525693,-0.055999997999999995,0.0755,0.6936,-0.082456306,3.2851605000000004,9.976274499999999,-1
243,244,1580692525703,-0.1566,0.0156,0.6940000000000001,-0.18335754,3.2185922000000002,9.9780655,-1
244,245,1580692525713,-0.1305,0.021,0.5876,-0.16456784,3.2321053,9.864417,-1
245,246,1580692525723,-0.1305,0.021,0.5876,-0.05913678,3.2301900000000003,9.753451,-1
246,247,1580692525733,0.0365,-0.0033,0.2986,0.004146757,3.2252963,9.573561,-1
247,248,1580692525743,0.0638,0.0095999995,0.1048,0.03512773,3.2436547000000004,9.373663,-1
248,249,1580692525754,0.045399997000000004,-0.042799998,0.1354,-0.025531767,3.1982129,9.400229,-1
249,250,1580692525764,-0.0196,-0.11229999,0.126,-0.09955089999999998,3.1232839,9.3896,-1
250,251,1580692525774,-0.1149,-0.2302,0.185,-0.24757960000000004,2.9856653,9.490317999999998,-1
251,252,1580692525784,-0.1149,-0.2302,0.185,-0.36123714,2.8682727999999997,9.671128999999999,-1
252,253,1580692525794,-0.2391,-0.44169998,0.4617,-0.3423038,2.796935,9.723993,-1
253,254,1580692525804,-0.1511,-0.4791,0.4743,-0.24899697,2.7766322999999997,9.738588,-1
254,255,1580692525815,-0.0646,-0.40129998,0.4191,-0.16528611,2.8616743,9.679575,-1
255,256,1580692525825,0.1305,-0.2662,0.3154,0.09123824,3.0371501,9.549072,-1
256,257,1580692525835,0.327,-0.1512,0.3297,0.23525426,3.1803236,9.639478,-1
257,258,1580692525845,0.261,-0.1244,0.5008,0.14894807,3.1523685,9.775975,-1
258,259,1580692525857,0.098699994,-0.25689998,0.565,-0.10482773,3.0039860000000003,9.687075,-1
259,260,1580692525867,-0.044299997,-0.3651,0.3663,-0.21067059,2.9350138,9.494284,-1
260,261,1580692525878,-0.11009999,-0.44829997,0.1692,-0.23968832,2.9454427000000005,9.212083999999999,-1
261,262,1580692525888,-0.1265,-0.4261,-0.1347,-0.24853729,3.0125472999999996,8.832134,-1
262,263,1580692525898,-0.1109,-0.38439998,-0.55619997,-0.21900241,3.0543694,8.398228,-1
263,264,1580692525908,-0.0716,-0.3597,-0.8314,-0.1819689,3.172729,8.342404,-1
264,265,1580692525918,-0.039699998,-0.24329999,-0.8724,-0.21315100000000003,3.1665137000000003,8.200925999999999,-1
265,266,1580692525929,-0.1136,-0.36049998,-1.0709,-0.36496252,3.0672982,7.982756599999999,-1
266,267,1580692525939,-0.1973,-0.44829997,-1.2300999,-0.36887947,3.0140127999999997,7.700278999999999,-1
267,268,1580692525949,-0.20279999,-0.527,-1.5459,-0.40846038,2.8938715,7.1625133000000005,-1
268,269,1580692525959,-0.1982,-0.67509997,-2.126,-0.38903862,2.825493,6.505774,-1
269,270,1580692525969,-0.1654,-0.7543,-2.7749,-0.31756693,2.689464,5.9478292,-1
270,271,1580692525980,-0.1082,-0.9112,-3.2868998,-0.2999839,2.6032345,5.437941,-1
271,272,1580692525989,-0.0479,-1.0281,-3.7991998,-0.102500565,2.4617374,4.9537373,-1
272,273,1580692525999,0.21249999,-1.1932,-4.2727,0.3113803,2.1647987,4.49407,-1
273,274,1580692526009,0.62079996,-1.5523,-4.9726,0.49093586,1.904482,3.4359474000000003,-1
274,275,1580692526019,0.7527,-1.9682,-6.1045,0.6189873,1.2104223,2.5349522,-1
275,276,1580692526029,0.8037,-2.7226999,-6.9340997,0.39009207,0.6125613,1.4700686,-1
276,277,1580692526040,0.524,-3.2472,-8.2751,0.13167152,-0.078319125,-0.65126115,-1
277,278,1580692526049,0.382,-3.8381,-10.097199,-0.076365456,-0.44430637,-1.9488419,-1
278,279,1580692526059,0.17009999,-4.2198,-11.6458,-0.12414415,-0.82903546,-3.4593532,-1
279,280,1580692526071,0.2837,-4.669699700000001,-13.057899,0.030645782000000003,-1.3585466,-4.5792265,-1
280,281,1580692526080,0.2925,-5.1815,-13.9895,-0.16057433,-1.9336914,-5.421593,-1
281,282,1580692526090,-0.0069999998,-5.6249,-14.823998999999999,-1.2125865,-1.9210979,-7.2190065,-1
282,283,1580692526100,-1.1068,-5.5786,-16.5935,-1.4462893,-2.2309172000000004,-8.788933,-1
283,284,1580692526110,-1.3471999,-5.9140997,-18.2374,-1.8030446,-2.554575,-10.527094,-1
284,285,1580692526121,-1.8106999,-6.1131997,-19.977498999999998,-2.2799408,-2.803208,-11.460948,-1
285,286,1580692526131,-2.3618,-6.3964996,-20.6414,-2.4098599999999997,-3.4451796999999997,-10.684650999999999,-1
286,287,1580692526141,-2.312,-6.6485,-19.7185,-2.2251327,-3.6254535000000003,-9.213989,-1
287,288,1580692526152,-2.0983999,-6.5428,-18.182000000000002,-1.7497783,-4.0240974000000005,-6.910384,-1
288,289,1580692526162,-1.6636,-6.6485,-15.865998999999999,-1.386195,-4.81519,-3.9255617,-1
289,290,1580692526172,-1.4336,-6.9704,-13.4772,-0.7621414000000001,-5.8019169999999995,-1.2365956,-1
290,291,1580692526182,-0.1179,-8.2407,-8.3296995,0.12104126,-6.9079904999999995,1.3935977,-1
291,292,1580692526192,0.3588,-8.6717,-6.2007,0.68950135,-7.7862024000000005,3.5708462999999995,-1
292,293,1580692526203,0.3588,-8.6717,-6.2007,0.8031302,-8.30401,4.7230415,-1
293,294,1580692526212,0.76559997,-8.445,-2.4415998,1.207281,-8.4991,7.3729057000000005,-1
294,295,1580692526222,0.76559997,-8.445,-2.4415998,1.9737511000000003,-8.317466,11.261281,-1
295,296,1580692526232,2.3925,-6.9505,6.114,2.9559102000000004,-8.017367,15.853589999999999,-1
296,297,1580692526242,4.0408,-6.7801,9.3124,4.6605815999999995,-8.348303999999999,18.98355,-1
297,298,1580692526253,5.492999999999999,-7.9529996,10.6355,6.161909,-9.969475,20.225594,-1
298,299,1580692526263,4.4256997,-9.7238,11.411099,5.114647,-12.161577000000001,20.904626999999998,-1
299,300,1580692526273,0.6734,-11.3845,11.6154995,0.6292824,-14.53222,20.943089,-1
300,301,1580692526283,-2.3546,-11.9927,11.3146,-1.8874737000000001,-15.077207000000001,20.60088,-1
301,302,1580692526293,-1.5166,-10.3094,12.7548,-0.21566011,-13.315648999999999,22.412735,-1
302,303,1580692526304,1.4454,-7.2584995999999995,15.055099499999999,2.8503928,-10.416395,24.326113,-1
303,304,1580692526314,4.6619997,-4.1324,16.2258,5.9732075,-7.7777367,25.393938000000002,-1
304,305,1580692526324,6.1629996,-2.6618,17.7923,7.112867,-6.977479499999999,26.734594,-1
305,306,1580692526334,5.0896,-2.6914,17.1309,5.134892,-7.3519807,25.20218,-1
306,307,1580692526344,2.6308,-3.6708998999999998,15.3264,2.9815376000000002,-8.795291,23.424603,-1
307,308,1580692526354,0.5387,-4.7314,14.1212,1.1403104,-9.644936999999999,22.50946,-1
308,309,1580692526364,-0.877,-5.0202,13.9991,0.04820007,-9.880985,22.607634,-1
309,310,1580692526374,-0.6798,-4.0041,15.470799,0.58170485,-8.697042999999999,24.163721,-1
310,311,1580692526384,0.7267,-2.2591,16.382599,1.7610886000000001,-7.380261,24.707117,-1
311,312,1580692526395,1.8032,-0.6454,14.4185,2.9872646,-5.625895,22.046959,-1
312,313,1580692526405,2.4787,0.13059999,11.069699,3.4985416,-5.017596,18.83894,-1
313,314,1580692526415,2.4641,0.5269,8.3973,2.9251015,-4.4995956,16.010592000000003,-1
314,315,1580692526425,1.6811999,0.5828,7.6003,2.324042,-4.8187237000000005,15.835901000000002,-1
315,316,1580692526435,0.78139997,0.3375,7.6842,1.6551116999999997,-4.9357805,15.924525,-1
316,317,1580692526446,-0.1944,0.2338,8.143599499999999,0.35476324,-5.089575,16.36206,-1
317,318,1580692526456,-0.6918,0.25779998,7.822499799999999,-0.009873686999999999,-5.041423,15.686810000000001,-1
318,319,1580692526467,-0.7614,0.3715,6.8037,0.08720641,-4.8821507,14.553586,-1
319,320,1580692526477,-0.47849998,0.55,5.7664,0.44126096,-4.6325603,13.416772,-1
320,321,1580692526487,-0.1723,0.8296,4.7834,0.7228861,-4.3059715999999995,12.438251,-1
321,322,1580692526498,0.1774,1.1445,3.9055,1.0467354,-3.8992162000000006,11.795092,-1
322,323,1580692526508,0.547,1.5062,3.2911,1.3672806999999998,-3.6436589,11.090622,-1
323,324,1580692526518,0.8339,1.6688,2.4205,1.5270985000000001,-3.5246288999999997,10.173164,-1
324,325,1580692526528,0.95089996,1.6990999,1.7245,1.463767,-3.4919910000000005,9.980564999999999,-1
325,326,1580692526538,0.8206,1.6777999,1.7052,1.3721361,-3.5420396,10.230644,-1
326,327,1580692526549,0.71639997,1.5689,2.0405,1.2168674,-3.7025563999999997,10.464883,-1
327,328,1580692526559,0.47779998,1.3067,2.0837,0.81803167,-4.052263,10.285299,-1
328,329,1580692526569,0.14649999,1.0102999,1.8937,0.67332613,-4.2749815,10.102631,-1
329,330,1580692526579,0.0178,0.7177,1.5871998999999999,0.55215085,-4.433717,9.665009,-1
330,331,1580692526590,-0.0154,0.6394,1.1814,0.61499375,-4.385143299999999,9.187327999999999,-1
331,332,1580692526600,0.0881,0.6738,0.67469996,0.7914177,-4.323009,8.538164,-1
332,333,1580692526610,0.3137,0.6827,-0.011399999,0.95212615,-4.308002,8.092536,-1
333,334,1580692526621,0.4219,0.6871,-0.3955,0.9611379000000001,-4.3128386,8.034969,-1
334,335,1580692526631,0.4193,0.6114,-0.4069,0.8212686,-4.4781629999999994,8.084826,-1
335,336,1580692526641,0.24049999,0.40829998,-0.3881,0.509467,-4.6870613,8.239511,-1
336,337,1580692526651,-0.1151,0.1107,-0.2297,0.008868123,-5.05574,8.573013000000001,-1
337,338,1580692526662,-0.54219997,-0.2008,0.059000000000000004,-0.09233957,-5.148443,8.677774000000001,-1
338,339,1580692526672,-0.615,-0.32209998,0.1436,0.049291823,-5.1296919999999995,8.325291,d
339,340,1580692526682,-0.4824,-0.3251,-0.22299999,0.23294625,-5.06683,7.9066887,-1
340,341,1580692526692,-0.046299997999999995,-0.1753,-0.96669996,0.45068455,-4.934919,7.612881,-1
341,342,1580692526702,0.1291,-0.0112,-1.1266999,0.6197822,-4.7416205,7.468779,-1
342,343,1580692526713,0.1291,-0.0112,-1.1266999,0.67542344,-4.718617,7.6253886,-1
343,344,1580692526723,0.083299994,-0.056399997,-0.8029999999999999,0.5278161,-4.774344999999999,7.8551839999999995,-1
344,345,1580692526733,-0.069299996,-0.1461,-0.6426,0.37772843,-4.877898,8.050311,-1
345,346,1580692526743,-0.25669998,-0.3112,-0.3926,0.15670529,-5.0249505,8.258434,-1
346,347,1580692526753,-0.52779996,-0.41689998,-0.3778,-0.13176729,-5.109351,8.230615,-1
347,348,1580692526763,-0.52779996,-0.41689998,-0.3778,-0.17606960000000002,-5.127585,8.035535000000001,-1
348,349,1580692526773,-0.4673,-0.3938,-1.0358,-0.025187002000000003,-5.04012,7.5122675999999995,-1
349,350,1580692526783,-0.4673,-0.3938,-1.0358,0.09314402,-5.0081625,7.273633,-1
350,351,1580692526793,-0.2057,-0.23889999,-1.3967999,0.17709431,-4.8830028,7.2450747,-1
351,352,1580692526803,0.050699997999999996,-0.0859,-1.0165,0.46421656,-4.7056217,7.723982,-1
352,353,1580692526814,0.13319999,-0.0002,-0.70379996,0.53363883,-4.643659599999999,7.984902000000001,-1
353,354,1580692526824,0.117699996,-0.079399996,-0.547,0.51097053,-4.7352620000000005,8.131397999999999,-1
354,355,1580692526834,0.0682,-0.155,-0.32,0.4591217000000001,-4.802941000000001,8.364403,-1
355,356,1580692526845,0.0154,-0.2279,-0.1309,0.3510187,-4.8733783,8.527074,-1
356,357,1580692526855,-0.0898,-0.2509,-0.19669999,0.24562594,-4.9410195,8.341149,-1
357,358,1580692526865,-0.1724,-0.3137,-0.45889997,0.13525324,-4.967068,8.074233999999999,-1
358,359,1580692526876,-0.22459999,-0.2683,-0.72099996,0.12844414,-4.9290959999999995,7.80662,-1
359,360,1580692526886,-0.2206,-0.2421,-0.95339996,0.0775434,-4.874604,7.635453999999999,-1
360,361,1580692526896,-0.3012,-0.1664,-0.9008,0.020159177,-4.8288082999999995,7.811294,-1
361,362,1580692526906,-0.2908,-0.1293,-0.71029997,0.051599834000000004,-4.7886524,7.9568615000000005,-1
362,363,1580692526916,-0.21609999,-0.023799999,-0.58849996,0.17690277,-4.6723228,8.086608,-1
363,364,1580692526926,-0.0349,0.0725,-0.4563,0.38601235,-4.606607,8.23093,-1
364,365,1580692526937,0.2153,0.1805,-0.2056,0.6885533,-4.491043599999999,8.593766,-1
365,366,1580692526947,0.51559997,0.33899999999999997,0.2911,0.8848874,-4.360827400000001,8.967684,-1
366,367,1580692526957,0.6525,0.4299,0.53319997,0.92776275,-4.415856,9.114745,-1
367,368,1580692526967,0.45859998,0.2647,0.5002,0.512091,-4.622016,9.111862,-1
368,369,1580692526977,0.0093,0.0298,0.54499996,0.19626707,-4.8915935,9.212534,-1
369,370,1580692526987,-0.1873,-0.1962,0.76589996,0.10643663,-5.067040400000001,9.600893,-1
370,371,1580692526997,-0.2483,-0.3741,1.2218,0.06355169,-5.220317400000001,9.995255,-1
371,372,1580692527007,-0.3789,-0.5342,1.6571,-0.17046717,-5.396502,10.422516,-1
372,373,1580692527017,-0.52059996,-0.6598,1.9916999,-0.211159,-5.4940705,10.74377,-1
373,374,1580692527027,-0.56439996,-0.7701,2.2946,-0.3337134,-5.6655335,11.089492,-1
374,375,1580692527038,-0.80179995,-0.95159996,2.7036998,-0.6823378999999999,-5.839975,11.649466499999999,-1
375,376,1580692527048,-1.1416,-1.1034,3.3286,-0.92096317,-5.8800344,12.382705999999999,-1
376,377,1580692527058,-1.2279999,-1.069,4.1492,-0.7292546999999999,-5.7507095,13.193152,-1
377,378,1580692527068,-0.85429996,-0.9205,4.8596997,-0.27352318,-5.5337567000000005,13.735756,-1
378,379,1580692527078,-0.3376,-0.6451,5.3387,0.34167174,-5.1172322999999995,14.227056,-1
379,380,1580692527088,0.34469998,-0.2375,5.7706,0.8742954,-4.719431,14.432266,-1
380,381,1580692527099,0.6886,0.0346,5.6636996,0.7685196,-4.5643444,13.864239000000001,-1
381,382,1580692527109,0.49519998,0.0144,5.1264,0.3575118,-4.608158,13.504705,-1
382,383,1580692527119,-0.13679999,-0.1529,4.7318997000000005,-0.39567536,-4.7321014,13.622223000000002,-1
383,384,1580692527129,-0.7145,-0.33299999999999996,4.9449997,-0.7211526999999999,-4.761253,14.013539999999999,-1
384,385,1580692527139,-0.9985,-0.3978,5.4129,-0.641081,-4.636755,14.462109,-1
385,386,1580692527149,-0.7784,-0.3308,5.6436996,-0.18398961,-4.3265715,14.592170999999999,-1
386,387,1580692527160,-0.22,-0.106,5.7145,0.6039613,-3.9286551,14.656823999999999,-1
387,388,1580692527171,0.5439,0.204,5.7121997,1.2618113000000002,-3.5630029999999997,14.522242000000002,-1
388,389,1580692527180,1.1532,0.38889998,5.4296,1.255778,-3.4016147000000005,14.031804000000001,-1
389,390,1580692527190,0.9378,0.3787,4.8378,0.7278852,-3.3794827000000005,13.256934,-1
390,391,1580692527200,0.4403,0.21849999,3.9301,0.43703756,-3.3254309999999996,12.290586,-1
391,392,1580692527210,0.1335,0.1356,2.9564998,0.09459012,-3.3115256,12.006002,-1
392,393,1580692527221,-0.22919999,-0.0315,2.8144,-0.30585450000000003,-3.3541616999999997,12.4032,-1
393,394,1580692527231,-0.5688,-0.2076,3.2110999,-0.36074874,-3.3311772000000004,13.092396,-1
394,395,1580692527241,-0.55799997,-0.28779998,3.7563998999999995,-0.2571181,-3.2679417,13.503718,-1
395,396,1580692527251,-0.4465,-0.37039998,4.1265,0.13002431,-3.0418142999999995,13.084121000000001,-1
396,397,1580692527262,-0.094299994,-0.28489998,3.6599998,0.4198472,-2.813503,12.455633,-1
397,398,1580692527271,0.17809999,-0.18769999,2.819,0.28677747,-2.6588566000000005,11.703749,-1
398,399,1580692527281,-0.0177,-0.226,2.0381,0.061406485999999996,-2.4755759999999998,11.025394,-1
399,400,1580692527291,-0.2923,-0.19229999,1.3793,-0.07487147,-2.158009,10.717022,-1
400,401,1580692527302,-0.42159998,-0.2163,1.1489999,-0.101705685,-2.1608818,10.773266,-1
401,402,1580692527312,-0.42159998,-0.2163,1.1489999,-0.09074024,-2.2127786,10.928142999999999,-1
402,403,1580692527322,-0.43359998,-0.4118,1.3311,-0.09374736,-2.3072062,11.350691000000001,-1
403,404,1580692527332,-0.7122,-0.9597,3.0881998999999998,-0.28157726,-2.5388593999999998,12.772501,-1
404,405,1580692527342,-0.7122,-0.9597,3.0881998999999998,-0.7217081,-2.8367457000000003,14.31205,-1
405,406,1580692527353,-1.7729,-1.6538999,5.3118,-1.1656792999999999,-2.9550099999999997,15.019382,-1
406,407,1580692527363,-1.5529,-1.6114998999999999,5.1398,-0.83007926,-2.7150345000000002,14.867417999999999,-1
407,408,1580692527373,-1.5529,-1.6114998999999999,5.1398,-0.018138472,-2.0286453,13.715195000000001,-1
408,409,1580692527383,0.1151,-0.583,3.1776,1.0924934,-1.2178441999999998,12.921411500000001,-1
409,410,1580692527394,0.85319996,-0.113,2.7230000000000003,2.0366802,-0.44365516,12.369394,-1
410,411,1580692527403,1.2033,-0.16749999,2.2917,2.3286197,-0.3432902,12.045085,-1
411,412,1580692527413,0.6538,-0.5126,2.3355,1.8385650000000002,-0.4634121,12.081965,-1
412,413,1580692527423,-0.15169999,-1.0466,2.3165,0.944254,-0.8280969000000001,11.994099,-1
413,414,1580692527433,-0.87549996,-1.5496,1.8925999,0.41997170000000006,-1.0255324000000001,11.6090145,-1
414,415,1580692527444,-0.87549996,-1.5496,1.8925999,0.00050757074,-1.1561503,10.722337,-1
415,416,1580692527454,-1.7757,-2.2365,0.35079998,-0.42433876,-1.2580668,10.017339999999999,-1
416,417,1580692527464,-1.8901999,-2.6562,0.8965,-0.43587878,-1.4452741000000002,10.657741999999999,-1
417,418,1580692527474,-1.9194,-2.8406,1.3967999,-0.44930547,-1.3382437,10.959717,-1
418,419,1580692527484,-2.0636,-2.9385,0.94,-0.5293389000000001,-1.2498882,10.482130999999999,-1
419,420,1580692527495,-2.0636,-2.9385,0.94,-0.49269795,-1.0291045,9.406578999999999,-1
420,421,1580692527505,-1.6259999,-2.7298,-1.4535999,0.061387334,-0.41353609999999996,7.466634299999999,-1
421,422,1580692527515,-1.2128,-2.4868,-3.2775998,0.43410709999999997,-0.0158975,5.439826999999999,-1
422,423,1580692527525,-1.0339999,-2.5786998,-4.7221,0.4527244000000001,-0.019029116000000002,4.25079,-1
423,424,1580692527536,-1.1535,-2.8264,-5.4726996,0.16645448,-0.16530527,3.553752,-1
424,425,1580692527546,-1.4404,-3.205,-6.1738,-0.11895351,-0.34814566,2.8550472,-1
425,426,1580692527556,-1.5414,-3.3944,-6.5101,-0.15463671,-0.2748831,2.7278287,-1
426,427,1580692527567,-1.6942999,-3.4231,-6.4526997,-0.45799163,-0.23060949999999997,2.5832193,-1
427,428,1580692527577,-2.1557999,-3.5962,-6.8072996,-0.8346379,-0.32898244,2.280611,-1
428,429,1580692527587,-2.4013999,-3.8708,-6.5466,-1.0632362,-0.5137574,2.843555,-1
429,430,1580692527597,-2.7317998,-4.0678997,-5.6531,-1.2971882,-0.53859,3.7637712999999997,-1
430,431,1580692527607,-2.7619998,-4.0757,-4.7728,-1.0353295,-0.37392643,4.464937,-1
431,432,1580692527618,-2.3890000000000002,-3.9294998999999997,-4.4533997,-0.44094490000000003,-0.10165781,4.505562,-1
432,433,1580692527628,-1.7991999,-3.7129998,-4.4969997,0.12233413,0.35024297,4.164934,-1
433,434,1580692527638,-1.2983999,-3.2721999,-4.9312,0.7529380999999999,0.8148809,3.6480165,-1
434,435,1580692527649,-0.722,-2.891,-5.5137997,1.3840784,1.4213992,2.703092,-1
435,436,1580692527658,-0.1165,-2.2579,-6.5276,2.1193185000000003,2.0906553,1.8693831000000003,-1
436,437,1580692527668,0.6033,-1.7601999,-6.9508996,2.8120856,2.474551,2.0588121,-1
437,438,1580692527678,1.0515,-1.5992,-6.3599,2.9312785,2.6123805,2.772227,-1
438,439,1580692527688,0.7594,-1.4721,-5.6068997000000005,2.709997,2.6965127,3.5224836,-1
439,440,1580692527698,0.48929998,-1.4918,-4.6189,2.6131563,2.9002402000000003,4.784745,-1
440,441,1580692527709,0.35599998,-1.1373999,-3.2417,2.8603334,3.4176269999999995,6.2785835,-1
441,442,1580692527719,0.557,-0.78069997,-2.0516,3.1633532000000004,3.5097656,7.040045,-1
442,443,1580692527729,0.86509997,-0.6964,-1.1817,3.337881,3.5176953999999996,7.5674779999999995,-1
443,444,1580692527739,0.9264,-0.7513,-1.0246998999999999,3.437528,3.4185657999999997,6.974500999999999,-1
444,445,1580692527750,1.064,-0.86109996,-1.7741,3.5814862,3.4520462,5.909493,-1
445,446,1580692527760,1.1746,-0.7632,-2.7477999,3.7412943999999997,3.7886995999999997,5.3850765,-1
446,447,1580692527770,1.3428999,-0.4861,-3.1359,3.8940062999999996,3.9188104,5.4523444,-1
447,448,1580692527781,1.4281,-0.4199,-2.9464,3.7580923999999998,3.9172876000000003,5.916503400000001,-1
448,449,1580692527791,1.2222998999999999,-0.4635,-2.3497999,3.4816097999999998,3.8406154999999997,6.7914786,-1
449,450,1580692527801,0.92399997,-0.5475,-1.4827,3.1848438,3.7957866,7.426728,-1
450,451,1580692527811,0.675,-0.5956,-0.9456,3.0771716000000002,3.6615197999999998,7.7122984,-1
451,452,1580692527821,0.5711,-0.72029996,-0.67649996,2.7488787,3.5408807,7.957838000000001,-1
452,453,1580692527831,0.302,-0.8285,-0.4944,2.5311213,3.4593148,7.9663520000000005,-1
453,454,1580692527842,0.084199995,-0.9156,-0.4824,2.6105417999999996,3.5106275,7.9257174,-1
454,455,1580692527852,0.3963,-0.6271,-0.5676,2.8756947999999998,3.7973857000000004,7.843605999999999,-1
455,456,1580692527862,0.3963,-0.6271,-0.5676,3.2303624,4.1104709999999995,7.7739534,-1
456,457,1580692527872,0.7313,-0.3407,-0.6234,3.4892235,4.411441,7.2801350000000005,-1
457,458,1580692527882,0.96059996,-0.0447,-1.1237,3.4137774,4.457448,7.278200599999999,-1
458,459,1580692527893,0.96059996,-0.0447,-1.1237,3.3172143,4.4710754999999995,7.4062905,-1
459,460,1580692527903,0.8161,0.0037999998,-0.9784,3.1627405,4.4141994,7.831960700000001,-1
460,461,1580692527913,0.3832,-0.0946,-0.2802,2.7686547999999997,4.300408,8.182797,-1
461,462,1580692527923,0.3832,-0.0946,-0.2802,2.5446055,4.152925,8.492519999999999,-1
462,463,1580692527933,-0.0747,-0.2733,0.40309998,2.349593,4.143415,8.838655000000001,-1
463,464,1580692527943,-0.12619999,-0.23789999,0.1635,2.3142736,4.1779776,8.594216000000001,-1
464,465,1580692527954,0.0361,-0.076,-0.114199996,2.4914446,4.3453135000000005,8.310083,d
465,466,1580692527964,0.1759,0.0047,-0.23099999,2.6922414,4.4476705,8.161958,-1
466,467,1580692527974,0.4542,0.09559999400000001,-0.2288,2.966818,4.510523,8.262371,-1
467,468,1580692527984,0.6534,0.108399995,0.16749999,3.0947547,4.4814,8.69688,-1
468,469,1580692527994,0.4761,0.14549999,0.4815,2.8247366,4.521488,9.000963,-1
469,470,1580692528005,0.1717,0.2697,0.747,2.5540385,4.631018,9.31601,-1
470,471,1580692528015,0.1568,0.3804,1.0943,2.5857666,4.7626514,9.585637,-1
471,472,1580692528025,0.264,0.6211,0.92719996,2.6996827000000003,4.9665989999999995,9.346044000000001,-1
472,473,1580692528035,0.45459998,0.68869996,0.7255,2.9250631,4.970956299999999,9.232156,-1
473,474,1580692528045,0.6224,0.7046,0.7123,3.0490158,5.0018797,9.272964,-1
474,475,1580692528056,0.6925,0.6904,0.83669996,3.0573667999999996,4.9532967,9.38437,-1
475,476,1580692528066,0.6587,0.5201,0.8713,3.0449743,4.749080999999999,9.287137,-1
476,477,1580692528076,0.68979996,0.45009997,0.6286,3.1189744,4.6888814000000005,9.135498,-1
477,478,1580692528087,0.9037,0.3663,0.6362,3.3724055,4.5776463,9.241322,-1
478,479,1580692528097,1.1609,0.36769998,0.8552,3.691131,4.609164,9.668371,-1
479,480,1580692528107,1.6358999,0.37359998,1.2775999,4.3315706,4.5328846,10.12079,-1
480,481,1580692528117,2.355,0.35979998,1.6219999999999999,5.1124825,4.607871,10.404282,-1
481,482,1580692528127,3.1692998,0.537,2.0188,5.9144635,4.847454,10.993724,-1
482,483,1580692528138,4.0175,0.81369996,2.4603999,6.722028,5.0568029999999995,10.94313,-1
483,484,1580692528148,4.7929,0.9478,2.116,7.3741316999999995,5.06864,10.256875,-1
484,485,1580692528158,5.2829999999999995,0.9285,1.1029999,7.7114267000000005,5.1178550000000005,8.837822000000001,-1
485,486,1580692528168,5.7999,0.92069995,-0.1629,8.509567,5.246682,8.146175,-1
486,487,1580692528178,6.7149,1.2226,-0.46199998,9.640962,5.7913156,8.141894,-1
487,488,1580692528188,7.7346997,1.5849999,-0.4251,10.639497,5.8772,8.445451,-1
488,489,1580692528199,8.7355995,1.879,-0.1308,11.005399,6.31577,8.811630000000001,-1
489,490,1580692528209,9.2829,2.0144,0.4007,11.984771,5.8226027,9.182214,-1
490,491,1580692528219,10.2556,1.3978,0.5086,12.542810000000001,5.236445,9.064208,-1
491,492,1580692528229,10.7265,0.9442,0.3719,13.088574000000001,4.710103500000001,8.977807,-1
492,493,1580692528240,11.323999,0.4139,0.2889,13.416159,4.3474874,8.9835615,-1
493,494,1580692528250,11.6744995,-0.057999999999999996,0.3687,13.079457000000001,3.6635977999999993,9.483682,-1
494,495,1580692528260,11.198199,-0.70559996,0.9325,12.200698,2.8729942000000004,10.104087,-1
495,496,1580692528270,10.363,-1.5695,1.4603,11.091723,1.925532,9.987852,-1
496,497,1580692528281,9.4871,-2.5012999,1.2217,9.458619,0.5742349,8.715957000000001,-1
497,498,1580692528291,8.0631,-3.7995,0.0326,7.8253045,-0.5167069999999999,6.952369,-1
498,499,1580692528301,6.5537996,-4.9133,-1.7228999,6.410954,-1.4793962999999999,5.53165,-1
499,500,1580692528311,5.3132,-5.946399700000001,-3.1362,5.02926,-2.3191387999999997,4.306556,-1
500,501,1580692528322,4.1215997,-6.837999999999999,-4.3589997,3.576832,-2.776728,2.7964756,-1
501,502,1580692528332,2.0495,-7.4277,-6.7125998,2.5697157,-2.8467824,1.9446471999999997,-1
502,503,1580692528342,2.0495,-7.4277,-6.7125998,2.012068,-2.6663267999999998,1.8352035,-1
503,504,1580692528352,1.5282999,-7.1983,-6.888999999999999,1.2587277,-2.5357373,1.2340482,-1
504,505,1580692528362,0.6164,-7.2216997,-8.246099000000001,0.70507324,-2.6114516,0.403672,-1
505,506,1580692528372,0.6164,-7.2216997,-8.246099000000001,-0.09182242,-2.7363236,-0.46977112,-1
506,507,1580692528383,-1.2551,-7.8008,-9.568999,-1.3460681,-3.165853,-0.9439763000000001,-1
507,508,1580692528393,-2.8494,-8.5001,-10.219299000000001,-2.9926082999999997,-3.8734352999999997,-1.5854787000000001,-1
508,509,1580692528403,-2.8494,-8.5001,-10.219299000000001,-4.318354599999999,-4.395333,-2.4015281,-1
509,510,1580692528414,-4.9839997,-9.1549,-11.5455,-5.1683536,-4.593525,-2.884716,-1
510,511,1580692528423,-4.9839997,-9.1549,-11.5455,-5.946967,-4.5724173,-2.33585,-1
511,512,1580692528433,-6.4221997,-8.9971,-9.5834,-6.5240273,-4.5872235,-0.85115784,-1
512,513,1580692528443,-7.0126995999999995,-8.8503,-8.5685,-7.0665917,-4.543419,0.24223575,-1
513,514,1580692528453,-7.6787996,-8.961599,-7.8046,-7.67017,-4.775580000000001,1.0666168,-1
514,515,1580692528463,-8.711599,-9.1988,-7.7495,-8.898117,-5.222836,1.104474,-1
515,516,1580692528473,-10.013599000000001,-9.2799,-8.3625,-10.205993,-5.381964,0.56189996,-1
516,517,1580692528484,-11.8083,-9.073,-8.4876995,-11.650138,-5.332730000000001,0.58162826,-1
517,518,1580692528494,-11.8083,-9.073,-8.4876995,-13.390473000000002,-5.138771,1.2214355,-1
518,519,1580692528505,-15.878098999999999,-8.5229,-7.018399700000001,-15.855045,-5.189125499999999,2.3312247000000004,-1
519,520,1580692528515,-17.1513,-8.7572,-6.4024,-16.953523999999998,-5.7498190000000005,3.0688877,-1
520,521,1580692528525,-17.8326,-9.5767,-5.3658,-17.415423999999998,-6.8901580000000004,4.207781,-1
521,522,1580692528535,-18.1358,-10.6924,-4.2023,-17.584492,-8.586096000000001,5.8921209999999995,-1
522,523,1580692528545,-18.391699,-11.868199,-2.3312,-17.974575,-10.111921,8.025747,-1
523,524,1580692528555,-19.4781,-13.0411,-0.33679998,-19.2861,-11.324794,10.00513,-1
524,525,1580692528565,-20.7788,-13.5227995,1.8337,-19.953267999999998,-11.931227,12.600626,-1
525,526,1580692528575,-20.4725,-13.4248,4.9551997000000005,-18.711605,-11.887547,16.05251,-1
526,527,1580692528585,-18.2713,-12.5882,8.625899,-16.583458,-11.403717,19.093404999999997,-1
527,528,1580692528595,-15.445298999999999,-11.526899,12.6129,-12.874475,-10.603785499999999,23.77833,-1
528,529,1580692528606,-12.0218,-10.579599,15.5737,-9.551294,-9.988782,25.718007999999998,-1
529,530,1580692528616,-9.641399,-9.8235,15.8282995,-7.9867506,-9.901605,24.973469,-1
530,531,1580692528626,-8.8998995,-10.073,13.833098999999999,-7.264142,-10.76344,22.417562,-1
531,532,1580692528636,-8.0661,-10.8551,11.172199,-6.4669685,-11.648223,20.234682,-1
532,533,1580692528646,-7.026,-11.2297,10.6136,-4.7605543,-11.938533,21.370720000000002,-1
533,534,1580692528656,-3.7728,-10.549399000000001,14.2301,-0.23084892,-10.831598,26.041376,-1
534,535,1580692528667,0.5015,-8.8611,17.776,3.5727714999999995,-9.265647,28.558077,-1
535,536,1580692528677,4.6914,-6.5508,19.890798999999998,7.3937163,-7.018085000000001,29.264767,-1
536,537,1580692528688,6.8694997,-5.0336,18.5262,8.177645,-6.7059484,25.325426,-1
537,538,1580692528698,7.1542997,-5.2643,13.6381,8.119916,-7.6520220000000005,20.343016,-1
538,539,1580692528708,7.4364,-6.3578,9.0569,9.077319000000001,-8.820843,16.879620000000003,-1
539,540,1580692528718,9.0475,-7.1513995999999995,6.9189,11.883944999999999,-8.177339,18.270220000000002,-1
540,541,1580692528729,11.8338995,-5.9347997,9.347799,14.588963,-6.611702999999999,20.863487,-1
541,542,1580692528739,15.3199,-3.7129998,12.2115,15.932023000000001,-5.679285500000001,21.808966,-1
542,543,1580692528749,17.8402,-1.4509,12.844000000000001,18.953592,-2.5682697,21.271572,-1
543,544,1580692528759,18.5894,-0.1537,10.4368,18.407867,-1.6243508999999998,16.939007,-1
544,545,1580692528769,17.8804,0.4468,6.5018,17.434002,-1.307148,13.761134,-1
545,546,1580692528779,16.8106,0.7066,2.7273998,16.268926999999998,-1.3202969,9.806439,-1
546,547,1580692528790,16.143,0.3964,-0.3987,15.819879,-1.7381618000000003,7.842524000000001,-1
547,548,1580692528800,15.819699,0.0422,-1.8869,15.763492000000001,-1.51394,8.183553999999999,-1
548,549,1580692528810,15.8705,0.3013,-1.3376,16.087973,-1.1387589,8.662701,-1
549,550,1580692528821,16.2864,0.6263,-0.983,16.65087,-0.6613934,8.455143,-1
550,551,1580692528831,16.813799,1.0521,-1.3535,16.638523,-0.40262812,7.661320699999999,-1
551,552,1580692528841,16.7874,1.207,-2.3212,16.998957,-0.46389094,5.7008815,-1
552,553,1580692528851,17.1273,1.1012,-3.9843998,17.12109,-0.22833979,4.807883,-1
553,554,1580692528861,17.254099,1.3084999,-4.8810997,17.094667,-0.26911786,5.171005999999999,-1
554,555,1580692528872,17.2278,1.2465998999999999,-4.5302,16.330553,-0.58417565,6.001622,-1
555,556,1580692528882,16.441599,0.94339997,-3.6968,15.497074,-0.991008,6.4341106,-1
556,557,1580692528892,14.5161,-0.0925,-3.2442,14.485878,-1.623939,6.449567299999999,-1
557,558,1580692528903,13.081099499999999,-0.9381,-3.6646998,13.100583,-2.4834769,6.0250087,-1
558,559,1580692528913,11.6472,-1.7218,-4.369,11.701785000000001,-3.2690813999999997,5.328717,-1
559,560,1580692528923,10.2759,-2.4183,-5.111000000000001,10.128153,-4.1304865,4.4565477,-1
560,561,1580692528933,9.3278,-3.0210998,-5.5267,9.460803,-4.629869,4.164455,-1
561,562,1580692528944,8.6971,-3.4401998999999996,-5.527199700000001,8.730677,-5.187412,4.252686499999999,-1
562,563,1580692528954,7.9918,-3.7561998,-4.6417,8.126878999999999,-5.5521536,5.2585955,-1
563,564,1580692528964,7.3552,-3.9838998,-3.6255,7.5302334,-5.837648000000001,6.1732574,-1
564,565,1580692528974,6.4971,-4.249399700000001,-2.9013,6.7018976,-6.1689476999999995,6.8201323,-1
565,566,1580692528984,5.315,-4.3788,-2.5578,5.8204765,-6.337471,7.0486164,-1
566,567,1580692528994,3.9238,-4.5062,-2.1432,4.277337,-6.571442,7.5497417,-1
567,568,1580692529005,2.9187,-4.4016,-1.4901999,3.5853745999999997,-6.461012,8.236677,-1
568,569,1580692529014,3.2675,-3.8765,-0.53999996,4.274483,-5.9909916,9.230184,-1
569,570,1580692529024,4.1586,-3.4926998999999994,0.7359,5.143368,-5.7951555,10.427495,-1
570,571,1580692529034,4.0085,-3.5498,1.2662,4.9725842,-5.9490742999999995,10.737123500000001,-1
571,572,1580692529044,2.2632,-4.1846,1.1953,2.9023470000000002,-6.812241,10.607894,-1
572,573,1580692529054,-0.2118,-4.9206,1.2211,0.11813949,-7.682821000000001,10.681386,-1
573,574,1580692529065,-3.4220998,-5.8224998,1.5037,-2.9590704,-8.564538,11.085604,-1
574,575,1580692529075,-6.2971,-6.4382997,2.4961,-5.4903355000000005,-9.054182,12.41906,-1
575,576,1580692529085,-8.058499000000001,-6.54,3.8049,-6.679277000000001,-9.031322,13.534239999999999,-1
576,577,1580692529095,-8.6691,-6.2504,4.808399700000001,-6.780934299999999,-8.66521,14.366168,-1
577,578,1580692529106,-8.4869995,-5.8436,5.0525,-6.343897,-8.363263,14.020704,-1
578,579,1580692529116,-7.9189,-5.6032,4.2504,-5.5782986,-8.143609,13.207882000000001,-1
579,580,1580692529126,-7.308799700000001,-5.4488,3.6402,-5.230018599999999,-8.176841,12.719206,-1
580,581,1580692529136,-7.6527996,-5.7135997000000005,3.4801,-5.910413,-8.486516,12.8561735,-1
581,582,1580692529146,-8.6797,-5.9198,4.0175,-6.8365755,-8.525542,13.426454000000001,-1
582,583,1580692529157,-9.5331,-5.723799700000001,4.4089,-7.4265550000000005,-8.222991,13.554580999999999,-1
583,584,1580692529167,-9.8137,-5.239,4.3672,-7.0875936,-7.335566,13.512645000000001,-1
584,585,1580692529177,-9.0743,-4.2894998,4.3514,-5.815631,-6.285104799999999,13.344994,-1
585,586,1580692529188,-7.7627997,-3.2912,4.0457,-4.55969,-5.3851533,12.895026,-1
586,587,1580692529198,-6.5597997,-2.396,3.6158997999999998,-3.3450828,-4.535384,12.425351,-1
587,588,1580692529208,-5.331,-1.6407,3.0142,-2.3698,-3.9941125,11.615163,-1
588,589,1580692529218,-4.5782,-1.1997,2.0653,-1.8282603,-3.5953631,10.502999,-1
589,590,1580692529228,-4.055,-0.9173,0.8592,-1.3800274,-3.4772716,9.418646,-1
590,591,1580692529238,-3.7252,-0.91429996,0.036199998,-1.4894041999999998,-3.5367913,9.159286999999999,-1
591,592,1580692529249,-4.0695,-1.0057,0.17719999,-1.8599787,-3.6268230000000004,9.8211775,-1
592,593,1580692529259,-4.3147,-1.1364,0.9582,-1.7766892,-3.7287392999999995,10.422410000000001,-1
593,594,1580692529269,-4.1466,-1.2106,1.2577,-1.6022188999999998,-3.7233572,10.281708,-1
594,595,1580692529279,-3.9276,-1.1853,1.0447,-1.2172792,-3.5640852,9.908672,-1
595,596,1580692529290,-3.4947998999999994,-1.0042,0.61359996,-0.8995781999999999,-3.2831113,9.4302435,-1
596,597,1580692529300,-3.1353998,-0.7172,0.121999994,-0.49778327,-3.007625,8.891328,-1
597,598,1580692529310,-2.7049,-0.45049998,-0.4191,-0.16951905,-2.7828476,8.597397,-1
598,599,1580692529320,-2.3233,-0.2608,-0.6559,0.16818789,-2.6481595,8.482503,-1
599,600,1580692529330,-1.9961,-0.1486,-0.78529996,0.36656186,-2.6630703999999996,8.368979,-1
600,601,1580692529340,-1.7857,-0.18079999,-0.88989997,0.6340229000000001,-2.5881032999999998,8.422802,-1
601,602,1580692529350,-1.4506999,-0.095,-0.768,0.9429133,-2.588381,8.707961,-1
602,603,1580692529360,-1.2200999,-0.1039,-0.4868,0.8672851999999999,-2.6678877,9.013824000000001,d
603,604,1580692529370,-1.2811999,-0.20529999,-0.1459,0.7988781,-2.7466473999999996,9.512144000000001,-1
604,605,1580692529380,-1.2851,-0.2225,0.3418,0.9347825000000001,-2.6986291000000002,9.72654,-1
605,606,1580692529391,-1.1221,-0.1585,0.4359,0.97658527,-2.624888,9.414728,-1
606,607,1580692529401,-1.0301,-0.0672,0.057299998,1.2033545,-2.4767442,8.783157000000001,-1
607,608,1580692529411,-0.7818,0.0689,-0.4887,1.1907322,-2.505896,8.618416999999999,-1
608,609,1580692529421,-0.7564,0.046099997999999996,-0.6709,1.0569539,-2.6871753,8.793807000000001,-1
609,610,1580692529431,-0.9183,-0.2024,-0.4095,0.7999314999999999,-3.004455,9.157333,-1
610,611,1580692529442,-1.1130999,-0.4429,-0.1261,0.81297517,-3.1273541000000002,9.306961,-1
611,612,1580692529452,-1.1031,-0.56839997,0.021399999,0.97777283,-3.2537298,9.339437,-1
612,613,1580692529462,-0.9385,-0.6925,0.062,1.0900418,-3.2591693,9.699342,-1
613,614,1580692529472,-0.8254,-0.69119996,0.41709998,1.3707571000000003,-3.0954444,10.348046,-1
614,615,1580692529482,-0.21100000000000002,-0.2897,1.6078999,1.6590668999999998,-2.9145193,10.887249,-1
615,616,1580692529493,0.0116,-0.0969,2.0004,1.8427691000000002,-2.7476912000000002,11.278701,-1
616,617,1580692529503,-0.0084999995,-0.0786,1.8412,1.7851647000000002,-2.7415526000000003,11.127616999999999,-1
617,618,1580692529513,-0.0084999995,-0.0786,1.8412,1.487891,-2.9067714,10.703164,-1
618,619,1580692529523,-0.2687,-0.22739999,1.4153,1.2360305,-3.0494757000000003,10.290949000000001,-1
619,620,1580692529533,-0.63049996,-0.53249997,0.9644,1.0804458000000001,-3.2038345,10.263579,-1
620,621,1580692529543,-0.7272,-0.6008,1.0784,0.9598642,-3.2781026,10.375464,-1
621,622,1580692529554,-0.6275,-0.5688,1.3597,1.0407115,-3.2425535,10.667959,-1
622,623,1580692529563,-0.6275,-0.5688,1.3597,1.1507204,-3.0247004,11.172868,-1
623,624,1580692529573,-0.5227,-0.1611,2.335,1.0599227,-2.8240566000000005,11.73745,-1
624,625,1580692529583,-0.5442,-0.07369999599999999,2.7628,1.0259441999999999,-2.7695837000000005,12.068864,-1
625,626,1580692529593,-0.6719,-0.1092,3.0123,0.86636585,-2.8083315,12.332647,-1
626,627,1580692529603,-1.0548999,-0.38819999,3.1323,0.44597274,-3.0927532,12.450528,-1
627,628,1580692529614,-1.5466,-0.78389996,3.0930998,-0.10550768,-3.4708069999999998,12.42855,-1
628,629,1580692529624,-1.9678999,-1.0286,2.9246,-0.62731916,-3.7058892,12.254186,-1
629,630,1580692529634,-2.0025,-1.0099,2.9907,-0.6494703000000001,-3.6495485,12.350404,-1
630,631,1580692529644,-1.6412,-0.67609996,3.4197998,-0.25855464,-3.1923327,12.880767,-1
631,632,1580692529654,-1.2069,-0.1077,3.7993998999999996,0.14373829999999999,-2.6101396,13.2593,-1
632,633,1580692529665,-0.8962,0.242,4.2662997,0.32528582,-2.3447661,13.661017000000001,-1
633,634,1580692529675,-1.0648999,0.1557,4.7517,-0.00019153613999999997,-2.4415207000000003,14.231806,-1
634,635,1580692529685,-1.5869,-0.2324,4.961,-0.8079185999999999,-2.9522135,14.491835,-1
635,636,1580692529695,-2.3664,-0.7582,5.2372,-1.5083278,-3.3167162000000006,14.725404000000001,-1
636,637,1580692529706,-2.8953998,-1.1193,5.4523997,-1.9172767,-3.5990405,15.017285000000001,-1
637,638,1580692529716,-2.6539,-1.2195,5.7046,-1.5212183000000001,-3.4854019999999997,15.300011999999999,-1
638,639,1580692529726,-2.1238,-1.0403,5.8859,-1.0566953000000001,-3.1615815,15.439853,-1
639,640,1580692529736,-1.7459999,-0.7597,5.9768,-0.8511770000000001,-2.7882874,15.463871,-1
640,641,1580692529746,-1.7422999,-0.6314,5.683399700000001,-0.95459694,-2.6221392000000003,15.052567000000002,-1
641,642,1580692529757,-1.8120999,-0.6419,5.133899700000001,-1.1087166000000002,-2.530154,14.557148000000002,-1
642,643,1580692529767,-1.9216,-0.75589997,4.6436,-1.1403486999999999,-2.5766782999999998,13.963270999999999,-1
643,644,1580692529777,-1.7901,-0.9111,4.2429,-1.0237032,-2.5417514,13.918729999999998,-1
644,645,1580692529787,-1.5234,-0.988,4.3297,-0.74335176,-2.4241770000000002,14.079438,-1
645,646,1580692529797,-1.2434,-0.9948,4.4578,-0.556968,-2.2980027,14.299129500000001,-1
646,647,1580692529807,-0.9964,-1.0605,4.8475,-0.43947008,-2.2801418,14.672023000000001,-1
647,648,1580692529818,-1.0426999,-1.2427,4.8171,-0.56862295,-2.3154612,14.363592,-1
648,649,1580692529828,-1.3215,-1.5274999,4.2787,-1.0071353,-2.380823,13.671686,-1
649,650,1580692529838,-2.0328999,-1.7353,3.1357,-1.6065764,-2.3157197999999997,12.046426,-1
650,651,1580692529848,-2.1132998,-1.7844,1.6635,-1.3820289,-1.9923012999999998,10.898166999999999,-1
651,652,1580692529858,-1.7378999,-1.4016,0.5783,-0.8755883,-1.1503469,10.388125,-1
652,653,1580692529868,-1.1640999,-0.8484,0.8308,-0.12128068,-0.3964032,11.158627000000001,-1
653,654,1580692529878,-0.3821,-0.2748,1.7337999,0.36622664,0.14791378,11.839395,-1
654,655,1580692529888,-0.13419999,0.010199999,2.3751,0.34043634,0.42838016,12.369193,-1
655,656,1580692529898,-0.30179998,-0.2138,2.6183999,0.047347732000000003,0.12829089999999999,12.340022,-1
656,657,1580692529908,-0.95839995,-0.9183,2.1513999,-0.8034079000000001,-0.62562406,11.216749,-1
657,658,1580692529918,-1.5746,-1.8519999999999999,0.8876,-1.2446018,-1.3544669,9.749773,-1
658,659,1580692529928,-2.0435,-2.6897,-0.5358,-1.6505435000000002,-1.6994331000000003,8.354739,-1
659,660,1580692529939,-2.3271,-3.0713,-1.4638,-1.4686223999999999,-1.5561928,7.966218,-1
660,661,1580692529949,-1.9484999,-2.9622,-1.7721,-0.47230896,-0.9352805000000001,8.019703999999999,-1
661,662,1580692529960,-1.0296,-2.5821,-1.5126,0.33282274,-0.43203850000000005,8.398746000000001,-1
662,663,1580692529970,-0.0611,-2.1111999,-1.0392,1.4758434,0.12134772,8.738319,-1
663,664,1580692529980,0.8114,-1.9260999,-0.8103,2.0839036,0.28685409999999995,8.3156185,-1
664,665,1580692529990,1.3041999,-1.9418999,-1.4008,2.397381,0.28867367,7.328699,-1
665,666,1580692530000,1.5747,-2.1413,-2.3099,2.5055513,0.0910467,6.645844500000001,-1
666,667,1580692530010,1.5359,-2.5170999,-2.9115,2.3317895,-0.014413094,6.1336765,-1
667,668,1580692530021,1.3978,-2.7115998,-3.3936,2.7046435,0.24106738,5.9051165999999995,-1
668,669,1580692530031,1.8208,-2.5621998,-3.4739999999999998,3.0451949000000003,0.4822018,5.6953654,-1
669,670,1580692530041,2.0091,-2.5180000000000002,-3.5962,3.0248249,0.55203587,5.590394,-1
670,671,1580692530051,1.9954,-2.5697,-3.6826,3.0758214,0.5552632,5.409123999999999,-1
671,672,1580692530061,2.0388,-2.6819,-3.8885998999999996,3.171944,0.44427764,4.6594515,-1
672,673,1580692530072,2.1243,-2.8989,-4.5162,3.3575422999999995,0.5137478,3.9794120000000004,-1
673,674,1580692530082,2.362,-2.8990998,-5.2893,3.8229942,0.73144776,3.4113832000000004,-1
674,675,1580692530092,2.7454998,-2.8177,-5.6784,4.0743566,0.9250429,3.375039,-1
675,676,1580692530103,3.3070998,-2.5058,-5.7318997000000005,4.4930644,1.2644066,3.2774419999999997,-1
676,677,1580692530113,3.2407,-2.5318,-5.5498,4.2855062,1.2699898,3.4833910000000006,-1
677,678,1580692530123,2.3153,-2.7714,-5.1538997,3.2577903,1.0273136,3.8805702000000006,-1
678,679,1580692530133,1.2465,-3.1376998,-4.9068,2.401863,0.7596611,4.0262523,-1
679,680,1580692530143,0.5423,-3.3047,-4.8431997,1.6177621000000002,0.61345196,4.0973315,-1
680,681,1580692530153,0.6642,-3.1531,-4.9866,1.8824555,0.85334134,3.8835866,-1
681,682,1580692530164,1.4142,-2.7862,-5.1569,2.5136724,1.1610729,3.764882,-1
682,683,1580692530174,2.0771,-2.3288,-4.8061,3.2825081,1.7129938999999998,4.2157583,-1
683,684,1580692530184,2.4651,-2.0827,-4.2792997,3.6328561,1.9260776999999998,4.743469,-1
684,685,1580692530195,2.6055999,-1.8715998999999999,-3.7444,3.815917,2.1638794,5.2405534000000005,-1
685,686,1580692530204,2.7308,-1.5967,-3.3788,3.8784629999999995,2.4527732999999996,5.5829816,-1
686,687,1580692530214,2.4459,-1.3542,-3.1255999,3.4646491999999998,2.691389,5.8606415,-1
687,688,1580692530224,1.9271,-1.1546999,-2.9159,2.9837785,2.8651795,6.0687175,-1
688,689,1580692530234,1.4706,-1.0302,-2.5512,2.5377197,2.8978555,6.48278,-1
689,690,1580692530246,0.86899996,-1.0646,-2.0767,1.9380871,2.86856,6.9761004,-1
690,691,1580692530256,0.7607,-1.0295,-1.7529,2.0715208,2.9651804,7.299777499999999,-1
691,692,1580692530266,0.95729995,-0.8185,-1.4807,2.3644369999999997,3.220613,7.483566000000001,-1
692,693,1580692530277,1.331,-0.6337,-1.3316,2.8153036,3.3534722,7.698776,-1
693,694,1580692530287,1.4899,-0.5588,-1.0917,2.776594,3.5038949999999995,7.903364999999999,-1
694,695,1580692530297,1.3335999,-0.3651,-0.93079996,2.6155505,3.6983714,8.080910000000001,-1
695,696,1580692530308,1.1389999,-0.2024,-0.74579996,2.390572,3.8072595999999996,8.155695,-1
696,697,1580692530318,0.84999996,-0.111899994,-0.72249997,2.1425805,3.8112720999999996,8.16531,-1
697,698,1580692530328,0.7481,-0.1284,-0.7193,2.1350915,3.7970986000000004,8.171353,-1
698,699,1580692530339,0.78679997,-0.087699994,-0.7242,2.1905797000000002,3.8738854,8.217694999999999,-1
699,700,1580692530349,0.7873,0.0197,-0.61899996,2.1402533,4.0003853,8.483959,-1
700,701,1580692530359,0.80009997,0.19579999,-0.21849999,2.3406386,4.2712655,9.13976,-1
701,702,1580692530370,0.9553,0.4398,0.3302,2.4655967,4.474112,9.403888,-1
702,703,1580692530381,1.0423,0.6214,0.498,2.5532340000000002,4.502909,9.363579,-1
703,704,1580692530391,1.087,0.613,0.431,2.3352372999999997,4.3818297,9.050791,-1
704,705,1580692530401,0.8081,0.4755,0.0592,1.9811827000000002,4.1868362,8.667145,-1
705,706,1580692530411,0.5256,0.308,-0.2349,1.6975465,4.067576399999999,8.801775,-1
706,707,1580692530421,0.2426,0.191,-0.0981,1.3754114,4.0150476,8.894459,-1
707,708,1580692530432,-0.29299998,0.0758,0.097799994,1.162021,3.9491494,9.002994000000001,-1
708,709,1580692530442,-0.29299998,0.0758,0.097799994,1.0687813,3.801236,8.996673,-1
709,710,1580692530452,-0.43899998,-0.0941,0.1749,1.0273424,3.776269,9.082653,-1
710,711,1580692530462,-0.2182,-0.029099998999999998,0.4279,1.2552607,3.8338065,9.333297,-1
711,712,1580692530472,-0.2182,-0.029099998999999998,0.4279,1.4313592,3.8536687000000005,9.488336,-1
712,713,1580692530483,0.182,0.0805,0.7779,1.6709421999999998,3.9332902,9.690407,d
713,714,1580692530493,0.1677,0.0828,0.8267,1.6351440000000002,3.9181972000000003,9.715823,-1
714,715,1580692530503,0.0099,0.0042999996999999995,0.61109996,1.5016241000000001,3.8539943999999995,9.523808500000001,-1
715,716,1580692530513,-0.2225,-0.0949,0.2777,1.2642628999999999,3.7567227,9.185135,-1
716,717,1580692530523,-0.2225,-0.0949,0.2777,0.86271703,3.6282690000000004,9.117828999999999,-1
717,718,1580692530533,-0.7553,-0.2619,0.1591,0.7236235,3.584886,9.072291,-1
718,719,1580692530543,-0.6252,-0.2543,0.2103,0.8662988000000001,3.5980252999999998,9.123403,-1
719,720,1580692530554,-0.4626,-0.2184,0.3513,1.0885669,3.6341013999999996,9.300526,-1
720,721,1580692530564,-0.2316,-0.20089999,0.5507,1.3327563999999998,3.6758084,9.498527000000001,-1
721,722,1580692530574,-0.0656,-0.122899994,0.7194,1.4927368,3.7864013,9.653106,-1
722,723,1580692530584,0.1048,0.0639,0.7791,1.6555808999999997,3.9566576,9.652866,-1
723,724,1580692530595,0.102,0.2297,0.62299997,1.6481493000000003,4.087189700000001,9.476394,-1
724,725,1580692530605,0.0694,0.18609999,0.4391,1.6114031,4.02246,9.25469,-1
725,726,1580692530615,0.0044,0.109799996,0.1003,1.5109233,3.9523292000000003,8.886089,-1
726,727,1580692530625,-0.14119999,0.0716,-0.090399995,1.3938947,3.935292,8.79168,-1
727,728,1580692530635,-0.2092,-0.0823,-0.056399997,1.2906088,3.7849648,8.831875,-1
728,729,1580692530645,-0.31689999,-0.0971,-0.0722,1.2679884,3.8487557999999997,8.837860000000001,-1
729,730,1580692530656,-0.28759998,-0.0021,0.127,1.3283701,3.9275154999999997,9.124522,-1
730,731,1580692530666,-0.1899,0.0357,0.2961,1.4205565,3.9393811000000003,9.122991,-1
731,732,1580692530676,-0.1498,0.0729,0.1907,1.4799421999999998,3.9970237999999996,9.030315,-1
732,733,1580692530687,-0.022699999,0.1283,0.0665,1.6775883000000003,4.024021,8.833618,-1
733,734,1580692530697,0.19119999,0.1041,-0.1548,1.8382298,4.0107474000000005,8.689908,-1
734,735,1580692530707,0.24759999,0.089999996,-0.17029999,1.8746216,4.0288,8.710767,-1
735,736,1580692530717,0.2271,0.1661,-0.12799999,1.8285093000000001,4.071953,8.725562,-1
736,737,1580692530727,0.14400000000000002,0.16319999,-0.0849,1.7824353,4.08469,8.816399,-1
737,738,1580692530737,0.1156,0.1612,-0.0725,1.8273792000000002,4.0758123,8.705863,-1
738,739,1580692530748,0.28149998,0.1347,-0.2618,2.191451,4.0180354,8.522697,-1
739,740,1580692530758,0.71599996,0.058599997,-0.3416,2.8398201000000003,4.005595,8.517258,-1
740,741,1580692530768,1.4519,0.15179999,-0.2651,3.8898787000000006,4.2136226,8.719337,-1
741,742,1580692530778,2.5994,0.3177,0.0155,4.9835405,4.3348074,9.00193,-1
742,743,1580692530788,3.4403,0.5663,0.3539,5.453091000000001,4.6584363,9.39208,-1
743,744,1580692530799,4.0312,0.90489995,1.0317,6.1971517,4.968639,10.328443,-1
744,745,1580692530808,4.5731,1.1572,1.7773999,6.791459599999999,5.2808814,10.983429,-1
745,746,1580692530818,5.2928,1.5019,2.3292,7.792696,5.609107,11.120329,-1
746,747,1580692530828,6.4744,1.7961999,2.1404998,9.277234,5.889554,10.506629,-1
747,748,1580692530838,8.0009,1.9598,1.4669999999999999,10.853519,5.8787036,9.938044,-1
748,749,1580692530849,9.5036,1.8119999,1.0115,11.999347,5.6151976999999995,9.846701,-1
749,750,1580692530859,10.389299000000001,1.3981999,1.2605,12.536242,5.017366,10.434764999999999,-1
750,751,1580692530870,10.7182,0.7594,2.0657,12.4776125,4.4362260000000004,11.532323,-1
751,752,1580692530881,10.5805,0.2748,2.9283,12.187119500000001,4.0019464,12.054594999999999,-1
752,753,1580692530891,10.311,-0.21859999,3.3507998,11.76708,3.5637980000000002,12.019955,-1
753,754,1580692530901,9.951099000000001,-0.6768,3.2080998,11.440281,3.1674043999999997,11.0770235,-1
754,755,1580692530911,9.7836,-1.0824,2.3748,11.273348,2.7888715,9.948024,-1
755,756,1580692530922,9.7083,-1.5422,1.2731,11.1966,2.4173777000000003,8.976044,-1
756,757,1580692530933,9.6832,-2.4141998,-0.98099995,11.046425,2.1345172000000003,7.622468,-1
757,758,1580692530943,9.4263,-2.8381,-2.5184999,10.6778145,1.8161935000000002,6.041452,-1
758,759,1580692530953,9.4263,-2.8381,-2.5184999,10.089176,1.2997068,4.504623400000001,-1
759,760,1580692530963,8.2021,-4.0095,-4.6465,8.998472,0.78588235,3.7786536,-1
760,761,1580692530974,7.2998996,-4.4009,-4.6165,7.886567599999999,0.4524275,3.8794112000000003,-1
761,762,1580692530985,6.1171,-4.9456,-4.3759,6.522217299999999,-0.016127342,4.000807,-1
762,763,1580692530994,4.8915997,-5.2716,-4.7223,5.011572,-0.2948603,3.551032,-1
763,764,1580692531004,3.4543,-5.3957,-5.062599700000001,3.4264379000000003,-0.2940846,3.1287045,-1
764,765,1580692531014,2.0421,-5.6108,-5.9768996,2.0814903,-0.52293193,2.0430584,-1
765,766,1580692531025,0.737,-6.1828,-7.5498,0.7170155,-1.0592906000000002,0.41274120000000003,-1
766,767,1580692531035,-0.4693,-6.8164,-9.0335,-0.6295026999999999,-1.6394823,-1.0432974,-1
767,768,1580692531045,-1.5848999,-7.2296,-10.1486,-1.7712782999999999,-1.9999244999999999,-2.0627005,-1
768,769,1580692531055,-2.4032,-7.4768996,-10.3201,-2.8827624,-2.2303522,-1.7596903000000002,-1
769,770,1580692531066,-3.4378998,-7.4979,-9.2844,-4.1457233,-2.2491035,-0.46714705,-1
770,771,1580692531076,-4.8041,-7.4653997,-7.9691997,-5.531631,-2.3186216,0.8760001000000001,-1
771,772,1580692531086,-6.1036,-7.5097,-6.7588,-7.137440700000001,-2.6385062,2.2412121,-1
772,773,1580692531096,-7.625,-7.8760996,-5.9708,-8.633961,-3.0441987999999998,2.4087967999999997,-1
773,774,1580692531107,-9.566199000000001,-8.467999,-6.0747,-10.430416000000001,-3.900011,2.4136425999999997,-1
774,775,1580692531117,-11.229000000000001,-9.4381,-6.0192,-12.03003,-4.9733505,2.5569978,-1
775,776,1580692531127,-12.9101,-10.348499,-5.7142,-13.983038,-6.217080999999999,3.5845317999999997,-1
776,777,1580692531137,-14.3921995,-11.2314,-4.3286,-15.378561,-7.202514999999999,5.672716,-1
777,778,1580692531147,-15.8933,-11.886399,-2.2003,-17.178877,-7.694648299999999,7.6904917,-1
778,779,1580692531158,-17.7106,-11.979000000000001,-0.5931,-18.651634,-7.792465700000001,9.095898,-1
779,780,1580692531168,-18.9601,-11.7265,0.75369996,-19.426551999999997,-7.6235695,10.388757,-1
780,781,1580692531178,-19.741298999999998,-11.2295,2.3123999,-19.876520000000003,-7.197621300000001,12.089962,-1
781,782,1580692531189,-19.804499,-10.6593,3.3299,-19.510637,-6.8517646999999995,12.797736,-1
782,783,1580692531199,-19.375,-10.1458,3.7379,-18.793966,-6.569957700000001,12.909364,-1
783,784,1580692531209,-18.5912,-9.6869,3.5156998999999995,-17.956963000000002,-6.2173877,12.577795,-1
784,785,1580692531219,-18.131899,-9.040299000000001,3.2680000000000002,-17.789253,-5.6187797,13.016077000000001,-1
785,786,1580692531229,-18.011098999999998,-8.3963995,3.7386,-16.927666000000002,-5.3342333,13.332685999999999,-1
786,787,1580692531239,-17.164099,-7.8170996,3.898,-16.018196,-5.0901303,13.541787,-1
787,788,1580692531250,-16.285999999999998,-7.5232,4.1142,-14.685688,-5.1213026,13.926229000000001,-1
788,789,1580692531260,-14.8371,-7.4495997,4.4648,-12.1729355,-5.3327203,14.219451000000001,-1
789,790,1580692531270,-12.3481,-7.4206996,4.726,-9.453525,-5.3452373,14.859259,-1
790,791,1580692531280,-9.7703,-7.252999999999999,5.5239,-6.355217,-5.489493,16.567646,-1
791,792,1580692531290,-6.679199700000001,-7.2072997,7.3939,-2.8147671,-5.320031,18.957415,-1
792,793,1580692531301,-3.3729,-6.6748,9.8446,-0.18044620000000003,-4.6427016,21.515867,-1
793,794,1580692531311,-1.0589,-5.7551,12.3566,1.9413049,-4.0324006,23.57714,-1
794,795,1580692531321,0.5621,-5.0875,13.912498999999999,3.1331290000000003,-3.8543775,23.491139999999998,-1
795,796,1580692531331,1.9642998999999999,-4.699,13.6193,4.9566584,-4.160471,21.343359,-1
796,797,1580692531342,5.4887,-5.3833,9.2237,6.973275,-4.7421284,18.908792000000002,-1
797,798,1580692531352,5.4887,-5.3833,9.2237,9.908978,-4.9583917,17.853563,-1
798,799,1580692531362,12.176399,-4.4807997,8.5626,13.700358999999999,-4.016235,18.250875,-1
799,800,1580692531372,12.176399,-4.4807997,8.5626,16.693735,-2.5591621,19.403194,-1
800,801,1580692531382,15.1465,-2.932,9.720799000000001,18.669687,-0.9353667,20.70133,-1
801,802,1580692531393,17.092499,-1.2287999,11.0166,19.33109,-0.13294524,20.128141,-1
802,803,1580692531403,17.7607,-0.6267,7.8672,19.343973000000002,-0.37147477,17.554237,-1
803,804,1580692531413,17.7607,-0.6267,7.8672,19.821548,-1.024182,14.118119,-1
804,805,1580692531423,18.1548,-1.1891,5.034,20.427789999999998,-1.1615133999999998,11.672385,-1
805,806,1580692531433,19.691599,-1.0408,1.3729,21.335499,-0.59315866,11.051606,-1
806,807,1580692531444,20.8338,-0.036000000000000004,1.7119,22.744362,0.7338324,11.43534,-1
807,808,1580692531454,21.4727,0.8397,1.5900999,23.285728,1.6077256000000002,11.022903999999999,-1
808,809,1580692531464,21.590999999999998,1.2943,-0.025799999,23.339252,2.095453,9.145411,-1
809,810,1580692531474,21.598799,1.3528999,-2.7135,23.372122,2.1887121,6.283247,-1
810,811,1580692531485,21.1476,1.1268,-5.6267,22.627092,2.0280325,3.4655400000000003,-1
811,812,1580692531495,20.0163,0.5365,-7.7627997,21.620514,1.4435695,1.554287,-1
812,813,1580692531505,19.1672,-0.3418,-8.7664995,20.267569,0.73575735,0.824994,-1
813,814,1580692531515,16.7771,-0.5624,-8.6286,18.038338,0.66793436,0.99983776,-1
814,815,1580692531525,14.2984,-1.2124,-8.1166,15.499324,-0.03894887,1.5153860000000001,-1
815,816,1580692531536,12.703199,-1.7515999,-8.0664,14.023212,-0.45735955,1.2061318,-1
816,817,1580692531546,11.224899,-2.2215,-8.8231,12.74854,-0.8891203000000001,0.30001265,-1
817,818,1580692531556,10.2876,-2.7047,-9.6037,11.961039,-1.2778141,-0.31297004,-1
818,819,1580692531566,9.3911,-3.1536,-9.763,10.948024,-1.8105335999999999,-0.13713029,-1
819,820,1580692531576,8.2189,-3.8219998,-9.251599,9.732364,-2.5554178,0.5500343000000001,-1
820,821,1580692531587,7.079,-4.6368,-8.3227,8.546122,-3.407332,1.5146389999999998,-1
821,822,1580692531596,5.5764,-5.5551996,-7.4157,6.8349094,-4.497987,2.4674547000000002,-1
822,823,1580692531606,3.5983,-6.8191,-6.5087,4.7344856,-5.821396,3.2370662999999995,-1
823,824,1580692531617,1.4154999,-7.98,-5.9143,2.602976,-6.970536,3.8403761,-1
824,825,1580692531627,-0.66679996,-9.0162,-5.1524997,0.15625517,-8.18793,4.881844,-1
825,826,1580692531637,-2.7319,-9.875199,-4.2049,-1.9589646,-8.933859,5.790894000000001,-1
826,827,1580692531648,-4.9193,-10.3702,-3.5340998,-4.125026999999999,-9.225368,5.952464599999999,-1
827,828,1580692531658,-7.0555,-10.4057,-3.7391,-6.1336956,-9.055033,5.3224444,-1
828,829,1580692531668,-8.8818,-9.9879,-4.5562997,-7.7523484,-8.635838,4.5545089999999995,-1
829,830,1580692531678,-10.325999999999999,-9.4767,-5.1047997,-9.033945,-8.279562,4.466182,-1
830,831,1580692531689,-11.4831,-8.9873,-4.9828997,-10.082011999999999,-8.177434,4.8140407,-1
831,832,1580692531699,-12.3248,-8.9005995,-4.6004,-10.834864999999999,-8.546208,5.4570084,-1
832,833,1580692531709,-13.0167,-9.1448,-3.668,-12.094242999999999,-8.996731,7.501962700000001,-1
833,834,1580692531719,-14.1454,-9.177,-1.6814,-13.705129000000001,-9.2608385,9.827288000000001,-1
834,835,1580692531729,-15.8013,-9.2048,0.5868,-16.20007,-9.444942999999999,11.632354,-1
835,836,1580692531740,-18.307299,-9.031,2.1957998,-18.575453,-9.112753,12.529509,-1
836,837,1580692531750,-20.3855,-8.3735,2.8988,-19.537346,-8.414633,12.2747555,-1
837,838,1580692531760,-20.8329,-7.3616996,2.3992999,-18.483179999999997,-7.297737,11.137433999999999,-1
838,839,1580692531770,-19.5825,-6.0978,1.3533,-17.308870000000002,-6.2840323,10.312104,-1
839,840,1580692531781,-18.1646,-4.8494997,0.47759998,-16.281271,-5.5625544,9.662902,-1
840,841,1580692531791,-16.8856,-3.8305998,-0.088999994,-15.118292000000002,-5.107541,9.323902,-1
841,842,1580692531801,-15.803498999999999,-3.3542,-0.3089,-14.381711,-4.8570695,8.934078,-1
842,843,1580692531812,-14.8741,-2.8732,-0.667,-13.443615,-4.805871499999999,9.159803,-1
843,844,1580692531822,-13.799399,-2.5883,-0.3985,-12.251207,-4.8906455,10.166267999999999,-1
844,845,1580692531832,-11.0603,-2.8039,2.0485,-10.838216000000001,-5.442346,11.505969,-1
845,846,1580692531842,-10.0615,-3.3969998,3.9894998,-9.848348,-6.241693499999999,13.386757999999999,-1
846,847,1580692531852,-9.1242,-4.1286,5.7976,-8.912761,-7.1699734,15.132609,-1
847,848,1580692531862,-9.1242,-4.1286,5.7976,-7.862194500000001,-7.8823056,16.327957,-1
848,849,1580692531873,-7.1271996,-5.0601,7.5669,-6.827382000000001,-8.587456,16.735020000000002,-1
849,850,1580692531883,-6.0006,-5.4024997,7.0611997,-5.9566207,-8.991377,16.200865,-1
850,851,1580692531893,-4.7207,-5.4227,6.5413,-4.756579400000001,-9.156222,15.621255999999999,-1
851,852,1580692531903,-3.0911999,-4.9976997,6.7046,-2.8470316,-8.771934,15.81693,-1
852,853,1580692531913,-1.044,-4.3606997000000005,7.2668996,-1.2359348999999997,-8.344463000000001,16.239841000000002,-1
853,854,1580692531923,0.6655,-3.7113998,8.245299000000001,0.67802835,-7.707136,17.308163,-1
854,855,1580692531934,1.8658999,-3.1583997999999998,8.624,1.7698991999999998,-7.214764,17.478937,-1
855,856,1580692531944,3.0688,-2.6313999,8.054999,2.9387773999999998,-6.749704400000001,16.67209,-1
856,857,1580692531954,4.0855,-2.5391,6.3138,3.773214,-6.7971287,14.793926,-1
857,858,1580692531964,4.6337,-2.7605999,4.6226997,4.1565447,-6.9379272,13.494515,-1
858,859,1580692531975,5.6124997,-2.5714998,3.7263,5.3302974999999995,-6.660382000000001,12.503910000000001,-1
859,860,1580692531985,6.9982,-2.2264,3.6299998999999996,6.8086886,-6.1819916,12.76235,-1
860,861,1580692531995,8.0557995,-1.5287,4.3826,7.5208,-5.5056389999999995,13.387906,-1
861,862,1580692532005,9.0301,-0.6932,4.9789,8.577217999999998,-4.5467900000000006,13.977216,-1
862,863,1580692532015,9.713799,0.0044,5.295099700000001,8.867663,-3.9508927000000003,14.203659,-1
863,864,1580692532025,9.5919,0.47169998,5.2398,8.539073,-3.5194477999999996,13.918520000000001,-1
864,865,1580692532036,9.2206,0.59139997,4.6962,8.096528999999999,-3.5247247,13.262057,-1
865,866,1580692532046,8.5862,0.33699998,3.7742998999999995,7.185583599999999,-3.9581134,12.203418,-1
866,867,1580692532056,7.3152,-0.51489997,2.5828,5.7783675,-4.849283,11.076822,-1
867,868,1580692532066,6.0768,-1.2768999,1.5924,4.9580855,-5.274819,10.400489,-1
868,869,1580692532076,5.611799700000001,-1.5809,1.0415,4.6305394,-5.3666415,9.919953,-1
869,870,1580692532087,5.5509,-1.4685,0.8953,4.6778874,-5.116294,9.90373,-1
870,871,1580692532097,5.8420000000000005,-1.1826,0.8516,5.0108633000000005,-4.746629,9.923402000000001,-1
871,872,1580692532107,6.2478,-0.7446,0.8207,5.511223,-4.0471683,9.765288,-1
872,873,1580692532117,6.5055,-0.2087,0.52529997,5.5401635,-3.5220814,9.230865,-1
873,874,1580692532127,6.4171996,0.18439999,-0.0771,5.422484,-3.2915199,8.883216000000001,-1
874,875,1580692532137,5.9912,0.38509998,-0.55649996,4.5759516,-2.9585726,8.047744999999999,-1
875,876,1580692532147,5.0213,0.5302,-1.4518,3.9910002,-2.9158888,7.5561485,-1
876,877,1580692532158,3.9796998999999995,0.3784,-2.1529,2.5682123,-2.9920819,6.636689,-1
877,878,1580692532168,2.9219,0.3023,-2.7426,1.9519543999999998,-3.0698645,6.495067,-1
878,879,1580692532178,2.4343998,0.117699996,-2.4901,1.7789494,-3.121407,7.225422999999999,-1
879,880,1580692532188,2.3911,0.2633,-1.3435999,2.099734,-2.7674768,8.362812,d
880,881,1580692532198,2.8567998,0.6113,-0.6904,2.6660202,-2.383744,8.827048,-1
881,882,1580692532209,3.2601,1.0028,-0.29009998,2.8691156,-2.0847846999999997,9.171832,-1
882,883,1580692532219,3.343,1.2149,-0.0382,2.9201026000000003,-1.9174776999999998,9.2225895,-1
883,884,1580692532229,3.2279,1.2638,-0.083,2.6106374,-2.0476077,9.149212,-1
884,885,1580692532239,2.3985999,0.81939995,-0.18779999,1.1232253,-2.9140213,9.077846000000001,-1
885,886,1580692532249,1.1826999,0.1204,-0.18439999,0.20899466,-3.4936480000000003,9.212726,-1
886,887,1580692532259,0.0143,-0.6167,0.055,-0.8484189,-4.118208999999999,9.59572,-1
887,888,1580692532269,-0.9658,-1.1388,0.5105,-1.4347492,-4.372234,10.05831,-1
888,889,1580692532279,-1.2815,-1.2020998999999999,0.7696,-1.2685629999999999,-4.314591,9.98203,-1
889,890,1580692532289,-1.0241,-1.1809,0.5473,-0.9151978999999999,-4.1713314,9.646535,-1
890,891,1580692532299,-0.6071,-0.8871,0.1972,0.07427771,-3.5618825,9.278183,-1
891,892,1580692532309,0.3326,-0.3654,-0.122499995,0.8520198,-3.113238,8.922644,-1
892,893,1580692532319,0.91899997,0.024,-0.44039997,0.7696784000000001,-2.8805692,8.925028,-1
893,894,1580692532329,0.79029995,0.2032,-0.3545,0.5713906,-2.8207145000000002,9.20743,-1
894,895,1580692532340,0.5094,0.2373,-0.0718,0.011702858,-2.9551439999999998,9.386966000000001,-1
895,896,1580692532350,-0.080699995,0.0442,0.0925,-0.6581182,-3.327519,9.462133,-1
896,897,1580692532360,-0.7629,-0.3489,0.088999994,-1.1764531999999999,-3.5800786,9.265734,-1
897,898,1580692532370,-1.2191,-0.58919996,-0.1021,-1.2895458,-3.7049122000000003,9.234714,-1
898,899,1580692532380,-1.2911999,-0.69409996,-0.0976,-1.2971785,-3.6533315,9.293966000000001,-1
899,900,1580692532390,-1.2925999,-0.6418,-0.0244,-1.1526071000000002,-3.5430639999999998,9.402805,-1
900,901,1580692532400,-1.1125,-0.5194,0.059000000000000004,-0.72217745,-3.2189946,9.415447,-1
901,902,1580692532411,-0.6005,-0.1883,0.0748,-0.18780118,-2.928128,9.478156,-1
902,903,1580692532421,-0.0614,0.0381,0.18959999,0.1372931,-2.4060099999999998,9.316528,-1
903,904,1580692532431,0.12969999,0.54039997,-0.0481,0.12708423,-2.5062312999999996,9.255303,-1
904,905,1580692532441,0.1326,0.4428,-0.109799996,-0.22862710000000003,-2.6040297000000003,9.086264,-1
905,906,1580692532451,-0.2746,0.27359998,-0.3294,-0.38813838,-2.8521261000000004,8.956958,-1
906,907,1580692532461,-0.3663,0.062099997000000004,-0.41259998,-0.49275544,-2.9800916,9.136954,-1
907,908,1580692532472,-0.47200000000000003,-0.0802,-0.24069999,-0.56160307,-3.087572,9.414135,-1
908,909,1580692532482,-0.5476,-0.2006,0.0299,-0.5889449000000001,-3.1812909,9.55252,-1
909,910,1580692532492,-0.5786,-0.309,0.16399999,-0.58788186,-3.1401296000000003,9.555489999999999,-1
910,911,1580692532502,-0.3551,-0.078499995,0.041899998,-0.38506424,-2.949398,9.440596000000001,-1
911,912,1580692532512,-0.3551,-0.078499995,0.041899998,-0.06278554,-2.7767951,9.312621,-1
912,913,1580692532522,0.009000000000000001,0.08549999400000001,-0.076299995,0.25045264,-2.5821753,9.194894,-1
913,914,1580692532533,0.46379998,0.3127,-0.30069998,0.34367329999999996,-2.5459366,9.092566,-1
914,915,1580692532543,0.46379998,0.3127,-0.30069998,0.30207166,-2.5770612,9.055292,-1
915,916,1580692532553,0.4488,0.2814,-0.3401,0.07929596,-2.7183384999999998,9.039213,-1
916,917,1580692532563,0.0219,-0.0253,-0.42209998,-0.21818839,-2.9115887000000003,8.97861,-1
917,918,1580692532573,0.0219,-0.0253,-0.42209998,-0.43316856,-2.9948783,9.142066999999999,-1
918,919,1580692532584,-0.3473,-0.2022,-0.00029999999,-0.5464239000000001,-3.0701807,9.442903999999999,-1
919,920,1580692532594,-0.35909998,-0.2427,0.2968,-0.57070106,-3.0985183999999997,9.684775,-1
920,921,1580692532604,-0.119799994,-0.1244,0.4279,-0.28036103,-2.9841905,9.833072999999999,-1
921,922,1580692532614,0.26909998,-0.0363,0.5492,0.11904929,-2.8805692,9.964476,-1
922,923,1580692532625,0.26909998,-0.0363,0.5492,0.50278234,-2.744914,10.092997,-1
923,924,1580692532635,0.93149996,0.2241,0.83989996,0.63680017,-2.6707513,10.250314999999999,-1
924,925,1580692532645,0.92179996,0.1828,0.96099997,0.5995081,-2.7336132999999996,10.378921499999999,-1
925,926,1580692532655,0.86249995,0.1603,1.0917,0.48410758,-2.7425866,10.507309,-1
926,927,1580692532665,0.7012,0.14639999,1.4670999,0.2139363,-2.787636,11.003445,-1
927,928,1580692532675,0.515,0.109299995,1.8019999,0.11777557400000001,-2.7996836,11.218453,-1
928,929,1580692532686,0.6288,0.028099999,2.0274,0.28370333,-2.9388153999999997,11.486499,-1
929,930,1580692532696,0.8512,-0.066,2.2812997999999998,0.61415106,-2.9612827,11.779731,-1
930,931,1580692532706,1.6692,-0.0809,2.4083997999999998,1.5632222,-2.8679757,11.959708000000001,-1
931,932,1580692532716,2.5119,0.30429998,3.3037,2.2838671,-2.4918373,13.238183,-1
932,933,1580692532726,3.0523,0.5812,4.6537,2.46575,-2.1560167999999997,14.601326,-1
933,934,1580692532737,2.9522998,0.7664,5.6112,2.202522,-2.1938646,15.267192999999999,-1
934,935,1580692532746,2.5214999,0.65999997,6.0239,1.6535698,-2.2924863999999996,15.19276,-1
935,936,1580692532757,2.1157,0.44739997,5.3877,1.3623486999999999,-2.50105,14.441519,-1
936,937,1580692532767,2.0254,0.2786,4.6252,1.2876973999999999,-2.5704916,13.792124,-1
937,938,1580692532777,1.9296999,0.1841,4.211,1.2728821000000001,-2.4970182999999997,13.635045999999999,-1
938,939,1580692532787,2.0572999,0.2746,4.3496,1.5449784,-2.178676,14.144656,-1
939,940,1580692532797,2.3904,0.52529997,4.9688,1.9854444,-1.8855583999999999,14.86759,-1
940,941,1580692532808,2.8595,0.7424,5.672999999999999,2.3376794,-1.6596317999999999,15.360575,-1
941,942,1580692532819,3.0702,0.7632,6.1429,2.2490362999999998,-1.731659,15.378465,-1
942,943,1580692532829,2.8265,0.58419997,5.7991,1.8439375,-1.9040607,15.198985999999998,-1
943,944,1580692532839,2.3077,0.213,5.5919,1.3311091999999998,-2.1943626,15.008723000000002,-1
944,945,1580692532849,1.851,-0.086899996,5.3638,1.0039366,-2.3289647,14.959701,-1
945,946,1580692532859,1.5685999,-0.2905,5.5158,0.8159821999999999,-2.374847,15.313659,-1
946,947,1580692532869,1.3845999,-0.40129998,5.8216996,0.7470675999999999,-2.2014299999999998,15.384153,-1
947,948,1580692532880,1.3090998999999999,-0.3653,5.6830997000000005,0.79186785,-1.9821692,14.948580999999999,-1
948,949,1580692532890,1.3022,-0.3179,5.1610000000000005,0.7744572,-1.9161563000000001,14.461610999999998,-1
949,950,1580692532900,1.1281999,-0.4175,4.5032,0.58183885,-1.7280293999999998,13.777214,-1
950,951,1580692532910,0.96,-0.39299998,3.9174,0.65196025,-1.6860543000000001,12.85624,-1
951,952,1580692532920,0.96629995,-0.5549,3.1095998,0.58715403,-1.588639,12.531903,-1
952,953,1580692532931,0.8516,-0.6048,2.6687,0.68063325,-1.3910983000000001,11.983295,-1
953,954,1580692532941,0.9386,-0.5606,2.0354,0.6381697,-1.3431567,11.177082,-1
954,955,1580692532951,0.7547,-0.6949,1.278,0.25527936,-1.4329488000000001,10.945236,-1
955,956,1580692532961,0.29549998,-0.9727,1.2103,-0.3763685,-1.8229547,11.604255,-1
956,957,1580692532971,-0.43219998,-1.5412999,1.9396,-1.3896233999999998,-2.2193674999999997,11.977847,-1
957,958,1580692532981,-1.5055,-2.0318,2.1704,-2.28765,-2.4308617000000003,12.116049,-1
958,959,1580692532992,-2.2809,-2.3177,2.3051,-2.7266607000000005,-2.2931855,11.917425999999999,-1
959,960,1580692533002,-2.7877,-2.1789,1.426,-2.6158664000000003,-1.9654098000000002,11.233891499999999,-1
960,961,1580692533012,-2.7877,-2.1789,1.426,-2.0311546000000003,-1.5816096000000002,10.531883,-1
961,962,1580692533022,-2.2916,-1.9677999,0.727,-1.1327063999999998,-1.0252163,10.185624,-1
962,963,1580692533032,-1.4518,-1.5703,0.39339998,-0.23609701,-0.40701428,10.134416,-1
963,964,1580692533042,-0.3601,-0.6892,0.30629998,0.033566706,0.22468145,10.048858000000001,-1
964,965,1580692533053,-0.4001,-0.5219,-0.0358,-0.07616434,0.4463654,9.722451,-1
965,966,1580692533064,-0.6286,-0.6924,-0.631,-0.31859165,0.39811742,9.125873,-1
966,967,1580692533074,-0.63199997,-0.8918,-1.0659,-0.34633562,0.3354085,8.568445,-1
967,968,1580692533084,-0.5379999999999999,-1.1336,-1.4570999,-0.19752164,0.23231418,8.220033,-1
968,969,1580692533094,-0.4076,-1.3277,-1.4314,-0.116291165,0.24785733,8.29677,-1
969,970,1580692533104,-0.74869996,-1.4406999,-1.4403,-0.38427895,0.28525475,8.226151,-1
970,971,1580692533115,-1.3313999,-1.6851,-1.8277999,-0.9392261999999999,0.21526745,7.7989874000000015,-1
971,972,1580692533124,-1.3313999,-1.6851,-1.8277999,-1.4125406999999999,0.20826681,7.162187599999999,-1
972,973,1580692533134,-1.9332,-1.8633,-3.5563998,-1.4447378999999998,0.4347965999999999,5.77944,-1
973,974,1580692533144,-1.4725,-1.8705,-4.2647,-0.9769396,0.50876784,5.118037,-1
974,975,1580692533155,-1.4286,-2.1369,-4.8210998,-1.0448296000000001,0.38352236,4.656722,-1
975,976,1580692533165,-1.8187,-2.4803998,-4.767299700000001,-1.6427575,0.041170694,4.8339124,-1
976,977,1580692533176,-2.0588999,-2.7050998,-4.4762,-1.9745555000000001,-0.013895946999999999,5.0305243,-1
977,978,1580692533186,-2.3657,-2.7343,-4.2778,-2.3647723,0.008207323,5.2455907,-1
978,979,1580692533196,-2.513,-2.7783,-4.0992,-2.5405354,0.06211517,5.236617,-1
979,980,1580692533206,-2.484,-2.5586,-4.4459,-2.1703153,0.42235634,4.66357,-1
980,981,1580692533217,-1.9253,-2.4724998,-4.8753,-1.7562426,0.43542868,4.3829694,-1
981,982,1580692533227,-1.4257,-2.4615998,-5.1452,-1.2142816,0.6075526,4.1162076,-1
982,983,1580692533237,-0.89779997,-2.3172,-5.2104,-0.6744465999999999,0.7804426999999999,4.2489324,-1
983,984,1580692533247,-0.5865,-2.3102999,-4.8107,-0.63547856,0.8065874,4.608589,-1
984,985,1580692533257,-0.98679996,-2.3374,-4.4486,-1.3306494,0.7272053,5.258692,-1
985,986,1580692533267,-1.4985,-2.4875,-3.7709,-1.8984966,0.623747,5.7961035,-1
986,987,1580692533278,-2.0346,-2.5344,-3.353,-2.369982,0.5992590999999999,6.2017674000000005,-1
987,988,1580692533288,-2.3265998,-2.4803998,-2.9062997999999998,-2.4313787999999996,0.74153215,6.6612625,-1
988,989,1580692533298,-2.1044,-2.2862,-2.5651,-1.8656291,1.0274382,6.7235026,-1
989,990,1580692533308,-1.3455,-1.9208,-2.6605,-1.0421098,1.4301237,6.5266705,-1
990,991,1580692533319,-0.5574,-1.5511999,-2.859,-0.41888952,1.7709432,6.326295,-1
991,992,1580692533329,-0.0376,-1.2505,-3.0934,0.15900372,2.0790002,6.077729,-1
992,993,1580692533339,0.46519998,-1.0121,-3.2775,0.5084231,2.3663332,6.058422,-1
993,994,1580692533349,0.5901,-0.83559996,-3.1497998,0.25294262,2.3442682999999995,6.47893,-1
994,995,1580692533359,0.22999999,-0.9389,-2.6936,-0.49549443,2.19216,6.874519,-1
995,996,1580692533370,-0.5344,-1.0876,-2.3202999,-1.0280128000000002,2.0564756,7.092286,-1
996,997,1580692533380,-1.0651,-1.3273,-2.0866,-1.4522556999999998,1.7433907,7.3314285,-1
997,998,1580692533390,-1.3636999,-1.5273,-1.9118998999999999,-1.5405252,1.6526695,7.4701580000000005,-1
998,999,1580692533400,-1.3675,-1.5837,-1.7753999,-1.2989024,1.7966952,7.570897,-1
999,1000,1580692533410,-1.0798,-1.3804,-1.6961,-0.7550737,2.1915758,7.570092,-1
1000,1001,1580692533421,-0.4698,-0.97529995,-1.6841999,0.009797073,2.654327,7.643393,-1
1001,1002,1580692533431,0.22209999,-0.5118,-1.5838,0.6299623000000001,3.0607476000000005,7.9429172999999995,-1
1002,1003,1580692533441,0.78639996,-0.1431,-1.2198,0.8434964,3.3959358,8.483442,-1
1003,1004,1580692533451,0.8878,0.1337,-0.7795,0.6964541,3.5002847000000004,8.76454,-1
1004,1005,1580692533462,0.6777,0.2686,-0.4585,0.37384024,3.5294077000000006,8.943444,-1
1005,1006,1580692533471,0.42819998,0.28669998,-0.324,0.16409859,3.510704,8.872309,-1
1006,1007,1580692533481,0.17909999,0.2604,-0.4231,0.018818427,3.4947877,8.679105999999999,-1
1007,1008,1580692533491,0.0718,0.2374,-0.6475,0.10109277,3.3743687000000007,8.461214,-1
1008,1009,1580692533501,0.1453,0.121999994,-0.80179995,0.12286086,3.4206053999999995,8.596831,-1
1009,1010,1580692533511,0.19229999,0.19229999,-0.5931,0.34427664,3.538046,9.054641,-1
1010,1011,1580692533522,0.3636,0.2746,-0.2086,0.6495661,3.7468013999999994,9.37464,d
1011,1012,1580692533532,0.8426,0.5925,0.43069997,0.84715474,3.8629870000000004,9.683588,-1
1012,1013,1580692533542,0.9511,0.6199,0.5491,0.9563782,3.8949544,9.802839,-1
1013,1014,1580692533553,0.9583,0.5463,0.2959,0.944254,3.8047407,9.512231,-1
1014,1015,1580692533564,0.86679995,0.5081,0.14209999,0.82134527,3.7962269999999996,9.373289999999999,-1
1015,1016,1580692533574,0.6814,0.5255,0.14639999,0.61853725,3.8165586000000005,9.40904,-1
1016,1017,1580692533584,0.37309998,0.4335,0.2689,0.27536193,3.7153796999999997,9.556907,-1
1017,1018,1580692533594,-0.0433,0.2444,0.4499,-0.15116033,3.5314953,9.7036705,-1
1018,1019,1580692533604,-0.32889998,0.018299998999999997,0.46339998,-0.37939477,3.3226923999999998,9.668936,-1
1019,1020,1580692533615,-0.3355,-0.0678,0.3584,-0.29772374,3.3038354,9.585704,-1
1020,1021,1580692533625,-0.024899999,0.1048,0.30089998,0.0049320552,3.4864937999999994,9.522027,-1
1021,1022,1580692533635,0.38869998,0.3116,0.23199999999999998,0.44430637,3.692558,9.466951,-1
1022,1023,1580692533645,0.74899995,0.445,0.3672,0.765388,3.822142,9.727018,-1
1023,1024,1580692533655,0.88629997,0.50299996,0.7172,0.8233659999999999,3.7840550000000004,10.098983,-1
1024,1025,1580692533665,0.78529996,0.3529,0.97959995,0.61314553,3.5699080000000003,10.258877,-1
1025,1026,1580692533676,0.53139997,0.0885,1.0777,0.321321,3.3110660000000003,10.332015,-1
1026,1027,1580692533686,0.19409999,-0.113199994,1.119,-0.044589613,3.1610932000000003,10.388411999999999,-1
1027,1028,1580692533696,-0.1761,-0.22199999,1.2209999999999999,-0.41747215,3.1298823,10.413225,-1
1028,1029,1580692533706,-0.46069998,-0.18859999,1.0598999,-0.6254611999999999,3.1700761,10.237558,-1
1029,1030,1580692533717,-0.5977,-0.23719999,0.90999997,-0.731352,3.1310029999999998,10.041885,-1
1030,1031,1580692533727,-0.59279996,-0.25689998,0.61329997,-0.6321555,3.1525507,9.613878999999999,-1
1031,1032,1580692533737,-0.3154,-0.2756,0.13,-0.2599241,3.0846322,9.092805,-1
1032,1033,1580692533747,-0.0034999999,-0.3904,-0.2263,-0.08152736,2.9895822999999995,8.841211999999999,-1
1033,1034,1580692533757,0.0734,-0.4556,-0.41599998,-0.11066,3.0203333,8.795981,-1
1034,1035,1580692533768,0.0792,-0.42339998,-0.331,-0.12810895,3.0411055,8.912942,-1
1035,1036,1580692533778,-0.102,-0.46159998,-0.1962,-0.6659807,2.9886722999999997,8.796546000000001,-1
1036,1037,1580692533788,-0.76769996,-0.5476,-0.5973,-1.4494784,2.8255220000000003,8.35404,-1
1037,1038,1580692533798,-1.4784,-0.7951,-0.8239,-2.2159294999999997,2.638391,8.405228999999999,-1
1038,1039,1580692533808,-2.3156,-0.9934,-0.7132,-3.0990546,2.5039902,8.350583,-1
1039,1040,1580692533819,-3.0797,-1.1029999,-0.9126,-3.5375957000000002,2.4556944,7.8504725,-1
1040,1041,1580692533828,-3.3411,-1.2447,-1.5972998999999999,-3.7326467000000005,2.3466432,6.834210400000001,-1
1041,1042,1580692533838,-3.5593,-1.3776,-2.7972,-3.9779375,2.3048884999999997,5.469717,-1
1042,1043,1580692533849,-3.8079998,-1.4937999,-4.0738,-4.331791,2.210509,4.280459,-1
1043,1044,1580692533859,-4.2887,-1.7493999,-5.3236,-5.085858999999999,1.8445984,2.5833150000000002,-1
1044,1045,1580692533869,-4.914,-2.0844998,-6.6591,-5.43909,1.7265354,1.6832675,-1
1045,1046,1580692533880,-5.2065997,-2.1982,-7.4361997,-5.830092,1.5074851999999999,1.1925136,-1
1046,1047,1580692533890,-5.5994997,-2.4659,-7.9386997,-6.3528996,1.0289321,0.61915976,-1
1047,1048,1580692533900,-6.1728997,-2.9654,-8.4866,-7.217512599999999,0.43515095,0.30477232,-1
1048,1049,1580692533910,-7.1454997,-3.5669999999999997,-8.7534,-8.355112,-0.49307147,0.37285382,-1
1049,1050,1580692533920,-8.3173,-4.5381,-8.610499,-8.97977,-1.6075053,0.72764575,-1
1050,1051,1580692533930,-8.8526,-5.5636997,-8.2635,-9.08048,-2.5672544999999998,0.9857599,-1
1051,1052,1580692533941,-8.9756,-6.4853,-8.0947,-8.48576,-3.5394442,1.1080940000000001,-1
1052,1053,1580692533951,-8.5511,-7.2198997,-7.9874997,-7.6637535,-3.8704379,1.5033001,-1
1053,1054,1580692533961,-7.6526,-7.5358,-7.4828997,-7.014810000000001,-3.874393,2.0935283,-1
1054,1055,1580692533971,-7.2675996,-7.3482,-6.9754996,-6.9120984,-3.8094049,2.5645347000000003,-1
1055,1056,1580692533981,-7.2576,-7.271,-6.506,-6.5259233,-4.2049365,3.2247791,-1
1056,1057,1580692533992,-6.9268,-7.5917997,-5.8757997,-6.1660843000000005,-5.025534599999999,4.0589094,-1
1057,1058,1580692534002,-4.8584,-8.2634,-3.0630999,-4.1231503,-5.309114,6.269332,-1
1058,1059,1580692534012,-1.4151,-7.6039,-0.5762,-0.47682923,-4.8253794,8.788397,-1
1059,1060,1580692534022,-1.4151,-7.6039,-0.5762,2.0113785,-3.9768937000000006,11.3326,-1
1060,1061,1580692534032,2.6264,-5.4476,4.187,3.9727373,-3.0610347,13.610041,-1
1061,1062,1580692534043,3.5465998999999995,-4.3427997000000005,4.8011,4.9845557000000005,-2.1840005000000002,14.260947,-1
1062,1063,1580692534053,2.8916,-4.0983,5.0453,4.341933,-2.1859062000000002,14.564935,-1
1063,1064,1580692534063,2.5751998,-4.1619997,5.9221,4.0748453,-2.43837,15.747335000000001,-1
1064,1065,1580692534073,3.197,-3.4675,7.4680995999999995,4.9390849999999995,-1.8758379,17.395866,-1
1065,1066,1580692534083,4.5153,-2.398,9.024799,6.319754,-0.9250142,18.894667000000002,-1
1066,1067,1580692534094,5.8002,-1.2674,9.9302,7.7959995,0.060965955,19.576555,-1
1067,1068,1580692534104,7.3696,-0.47239998,9.149799,9.506675999999999,0.54107046,18.23157,-1
1068,1069,1580692534114,7.3696,-0.47239998,9.149799,10.752312,0.778738,16.483362,-1
1069,1070,1580692534125,10.2379,0.3446,4.5617,11.909104,1.0704763000000002,14.0579,-1
1070,1071,1580692534135,10.7016,0.76629996,4.7086997,12.072972,1.381397,14.82935,-1
1071,1072,1580692534146,10.5033,1.1801,5.7612,11.504091,1.5281519,15.863626000000002,-1
1072,1073,1580692534156,9.652999999999999,1.2106999,6.4934998,10.501351,1.3522356000000002,16.217489999999998,-1
1073,1074,1580692534166,8.9112,1.0396,5.8957,10.042200999999999,0.9304921,14.969899,-1
1074,1075,1580692534176,9.078899,0.4739,3.9182,10.368741,0.21966322,12.830833,-1
1075,1076,1580692534186,9.667399000000001,-0.021599998999999998,2.276,11.116344999999999,-0.122506514,11.845591,-1
1076,1077,1580692534197,10.698299,-0.006,2.0375,12.196926,-0.02060929,11.851184,-1
1077,1078,1580692534207,11.9769,0.27199998,2.2503998,13.980557000000001,0.3552708,12.181411,-1
1078,1079,1580692534217,13.505799,0.64089996,2.4241998,14.844635,0.4219924,11.920175,-1
1079,1080,1580692534227,13.9396,0.5326,1.8232,14.806022,-0.14642939,10.9728565,-1
1080,1081,1580692534237,13.816298999999999,-0.16229999,0.6932,14.537170999999999,-1.054483,9.558974000000001,-1
1081,1082,1580692534248,13.5405,-1.0663999,-0.7877,14.432123,-1.661758,8.568014999999999,-1
1082,1083,1580692534258,13.489598999999998,-1.6169,-1.3945999,14.322756,-2.1467178,8.668475,-1
1083,1084,1580692534268,13.3048,-1.7533,-0.6763,14.003734,-2.1660151,9.864935000000001,-1
1084,1085,1580692534278,12.9291,-1.7104,0.5324,13.450864000000001,-2.2336082000000004,10.682879,-1
1085,1086,1580692534288,12.276199,-1.7091,1.0052,12.976439,-2.1176715,10.572718,-1
1086,1087,1580692534298,12.095799000000001,-1.4792,0.40829998,13.100095,-1.7894455000000002,9.248733999999999,-1
1087,1088,1580692534308,12.2704,-0.99329996,-1.2292,13.184965,-1.2611793,7.589705499999999,-1
1088,1089,1580692534318,12.3531,-0.6805,-2.7206,13.199645,-1.3197415000000001,6.2586827000000005,-1
1089,1090,1580692534328,12.1488,-0.76339996,-3.9376,12.456868,-1.4694557,5.453560400000001,-1
1090,1091,1580692534338,11.2049,-1.0587,-4.3402,11.212181,-2.1543312,5.562841400000001,-1
1091,1092,1580692534348,9.7637,-1.8029,-4.0843,9.671750999999999,-2.9503076,5.7230706,-1
1092,1093,1580692534359,8.2957,-2.5635998,-4.1012,8.270271000000001,-3.7660122000000005,5.5728397,-1
1093,1094,1580692534368,6.8343997000000005,-3.346,-4.224,6.7467647,-4.58277,5.5803385,-1
1094,1095,1580692534378,5.3058,-4.1057997,-4.0996,5.4508980000000005,-5.365042,5.6787114,-1
1095,1096,1580692534388,4.1513,-4.8752,-3.9831,4.6213455,-6.1112475,6.131071599999999,-1
1096,1097,1580692534398,3.3952,-5.4442,-3.1680999,4.054121,-6.653218300000001,7.351866,-1
1097,1098,1580692534408,2.8760000000000003,-5.81,-1.6839,3.3010870000000003,-7.089164299999999,9.559157,-1
1098,1099,1580692534418,2.0409,-6.0562,0.19389999,2.3182096000000003,-7.3676867,10.721455,-1
1099,1100,1580692534429,0.6138,-6.361000000000001,1.4347999,0.77143097,-7.7833295,11.592352,-1
1100,1101,1580692534439,-0.92509997,-6.6577997,2.1952999,-0.87643105,-8.293208,11.969399000000001,-1
1101,1102,1580692534449,-2.3504,-7.0207,2.2696,-1.8431427,-8.512977000000001,11.774522,-1
1102,1103,1580692534459,-4.0959997,-7.3131,1.9224,-4.4830856,-8.734661000000001,11.480149,-1
1103,1104,1580692534469,-6.2035,-7.2833,1.8514999,-5.8797283,-8.6029415,11.339734,-1
1104,1105,1580692534479,-7.6129999999999995,-6.8711,1.6748999,-5.5297728,-7.307639599999999,11.850617999999999,-1
1105,1106,1580692534490,-6.8026,-5.591,2.4215,-3.2908970999999996,-5.560428,13.510031,-1
1106,1107,1580692534500,-4.4372997000000005,-3.5957,4.3353,-2.400647,-4.4443283,15.174432000000001,-1
1107,1108,1580692534510,-4.071000000000001,-2.7457,5.9512997,-4.047292700000001,-5.122318,16.714575,-1
1108,1109,1580692534520,-6.1073,-3.5576,7.4567,-6.264065,-6.152227,17.542278,-1
1109,1110,1580692534530,-8.8763,-4.6798997,8.165999000000001,-9.740992,-7.0781410000000005,17.608414,-1
1110,1111,1580692534540,-11.9237995,-5.3023,8.0392,-12.538856,-7.733827000000001,17.374493,-1
1111,1112,1580692534551,-14.589298999999999,-5.9502997,7.8521,-14.314347,-8.059323,17.1704,-1
1112,1113,1580692534561,-16.3106,-6.2363,7.6236997,-15.360068,-7.995360000000001,16.961674,-1
1113,1114,1580692534571,-17.1597,-6.1025,7.5098996,-14.804488000000001,-7.300007300000001,17.600428,-1
1114,1115,1580692534581,-16.189498999999998,-5.2538,8.3543,-12.434431,-5.757624,18.972765,-1
1115,1116,1580692534591,-14.1767,-3.9311,9.4894,-11.147039,-4.884229,19.815773,-1
1116,1117,1580692534601,-12.8363,-3.0642998,10.3252,-10.736788,-4.481351999999999,19.897406,-1
1117,1118,1580692534612,-12.382199,-2.6710000000000003,10.3909,-10.8404665,-4.3749347,19.420128,-1
1118,1119,1580692534622,-12.4932995,-2.6164,9.6866,-11.072933,-4.5270042,17.488283,-1
1119,1120,1580692534633,-12.638,-2.8532,7.9491,-10.562242,-4.415051999999999,15.899548999999999,-1
1120,1121,1580692534643,-12.1075,-2.8697,6.3378,-9.379132,-3.9847848,14.891925,-1
1121,1122,1580692534653,-9.4491,-2.134,4.757,-7.931587700000001,-3.446846,14.374298999999999,-1
1122,1123,1580692534664,-7.7626,-1.6132,4.6408,-6.270673,-2.798343,14.264147,-1
1123,1124,1580692534674,-6.0583,-0.96889997,4.6726,-4.2425733,-1.9033042000000002,14.339822,-1
1124,1125,1580692534685,-4.2107,-0.3317,4.9504,-2.4252114,-1.1661006999999999,14.707982999999999,-1
1125,1126,1580692534695,-2.6578,0.1647,5.494,-1.0395433,-0.61368173,15.3025875,-1
1126,1127,1580692534705,-1.8489,0.3548,6.0197997,-0.30039570000000004,-0.38762125,15.765378,-1
1127,1128,1580692534716,-1.4907,0.0525,5.9761,-0.01094629,-0.64857966,15.541089000000001,-1
1128,1129,1580692534726,-1.1972,-0.5507,5.49,0.31863952,-1.2466799,15.076862,-1
1129,1130,1580692534736,-0.7201,-1.2448,5.4660997,1.1780238,-1.5702803,15.296133,-1
1130,1131,1580692534747,0.118999995,-1.4431,5.7509,2.1259937,-1.5486176,15.861547,-1
1131,1132,1580692534757,1.0526999,-1.7306999,6.5495,3.0994952000000002,-1.7209425999999999,16.913216000000002,-1
1132,1133,1580692534767,2.0233,-2.0180000000000002,7.5857,4.0897756,-1.7638755000000002,17.580614,-1
1133,1134,1580692534778,2.9679,-2.2164,7.8097997,4.8393807,-1.800095,16.936076999999997,-1
1134,1135,1580692534788,3.5279,-2.5669,6.7268996,4.93467,-2.017134,15.472404500000001,-1
1135,1136,1580692534799,3.2498,-3.1115,5.0908,4.14353,-2.563328,13.526501999999999,-1
1136,1137,1580692534809,2.2751,-3.9706,2.9942,3.0966702,-3.1140327,11.363207000000001,-1
1137,1138,1580692534819,1.4272,-4.671,0.9756,2.3399012000000003,-3.3693697,9.085555000000001,-1
1138,1139,1580692534829,0.912,-5.0305,-0.90389997,2.2341634999999997,-3.2096667,6.946738000000001,-1
1139,1140,1580692534839,0.97679996,-5.1387997,-2.9984999,2.825905,-2.663856,4.959895599999999,-1
1140,1141,1580692534849,1.6455,-4.7483997,-4.8504,3.6323678,-1.725118,3.4666986000000004,-1
1141,1142,1580692534860,2.4926999,-4.0344,-6.1401997,4.3055887,-0.9759532,2.8219306,-1
1142,1143,1580692534870,3.2233999,-3.4013,-6.6868,4.6837290000000005,-0.220822,2.4436178,-1
1143,1144,1580692534880,3.4355,-3.0937,-6.8856997,4.3936377,-0.021643582999999997,2.0485458,-1
1144,1145,1580692534890,3.0937997999999998,-3.1478999,-7.3057,3.7621144999999996,-0.15840039,1.2861651,-1
1145,1146,1580692534900,2.5511,-3.4973,-8.0595,3.2134112999999997,-0.27631962,0.3825168,-1
1146,1147,1580692534911,2.0946,-3.7877,-8.965799,2.7528148,-0.49494849999999996,-1.0185221,-1
1147,1148,1580692534921,1.7926999,-4.1795,-10.424000000000001,2.7459292,-0.60712165,-3.149467,-1
1148,1149,1580692534931,1.9272,-4.432699700000001,-12.543799,3.0124322999999995,-0.48093766,-5.078121,-1
1149,1150,1580692534941,2.1748,-4.464299700000001,-13.9883995,2.9713671,-0.29423782,-5.6658206,-1
1150,1151,1580692534951,2.169,-4.3671,-14.6194,2.882619,-0.14651556,-5.9163120000000005,-1
1151,1152,1580692534962,2.1153,-4.3486,-14.7274,2.5397117000000002,-0.11581232400000001,-5.0076838,-1
1152,1153,1580692534973,1.3314999,-4.4417,-12.3594,1.9153517,-0.17266025,-3.3710456,-1
1153,1154,1580692534983,1.122,-4.3329,-11.783899,1.7749080000000002,-0.07126102,-2.9940450000000003,-1
1154,1155,1580692534993,1.2147,-4.0347,-12.101399,1.891429,0.33333033,-3.4147252999999997,-1
1155,1156,1580692535003,1.5839,-3.4901998,-12.6241,2.3304107000000003,0.9052380999999999,-3.9677955999999996,-1
1156,1157,1580692535014,2.2210999,-2.9306997999999997,-13.344299,2.9899077000000003,1.3969784,-4.6326175,-1
1157,1158,1580692535024,2.7488,-2.702,-13.6675,3.5026596,1.5377383,-4.9262424000000005,-1
1158,1159,1580692535034,3.0614,-2.7605,-13.8605995,3.7607352999999994,1.3994396,-4.964837,-1
1159,1160,1580692535044,2.8084998,-3.013,-13.2785,3.3947577000000004,1.0414873,-4.210491,-1
1160,1161,1580692535055,2.0553,-3.5144,-12.3054,2.4549090000000002,0.25533682,-3.1147127,-1
1161,1162,1580692535065,1.0734999,-4.1671,-11.587999,1.539577,-0.6171581,-2.3169072,-1
1162,1163,1580692535075,0.33409998,-4.8939,-10.918799,0.91249734,-1.3953025,-1.7987349999999998,-1
1163,1164,1580692535086,-0.2554,-5.2574,-10.7262,0.34438196,-1.6142473999999998,-1.6103017,-1
1164,1165,1580692535096,-0.6185,-5.0916,-10.8518,0.23195025,-1.6437439999999999,-1.7288244,-1
1165,1166,1580692535106,-0.217,-5.053999999999999,-11.4607,0.8814589,-1.6822139999999999,-2.1731784,-1
1166,1167,1580692535116,0.5261,-4.4494,-10.8970995,1.8598255000000001,-1.265374,-1.1321892,-1
1167,1168,1580692535126,1.4189999,-3.9376998,-9.6714,2.4137287,-1.151477,-0.0069719153,-1
1168,1169,1580692535137,1.5209999,-3.7563998999999995,-7.8595,2.359725,-1.3684393999999998,2.4274142000000003,-1
1169,1170,1580692535147,1.2756,-3.6562,-6.0948997,1.9420423999999998,-1.6118723,3.9239528,-1
1170,1171,1580692535157,0.5173,-3.6898,-5.0294,1.0402806,-1.9959885,4.9136777,-1
1171,1172,1580692535167,-0.2897,-3.8369999999999997,-4.6303,0.17116627,-2.8186266,4.7521075999999995,-1
1172,1173,1580692535177,-0.81949997,-4.3984,-4.9937997,-0.10194511,-3.4236126000000002,4.772142,-1
1173,1174,1580692535187,-0.8534,-5.2035,-4.4523,0.12570517,-4.859674,5.755431,-1
1174,1175,1580692535197,0.0198,-5.9814997000000005,-2.7896,2.0266821,-5.5150723,9.014198,-1
1175,1176,1580692535208,2.1749,-5.4019,0.7202,3.9251788,-4.788192700000001,11.966211,-1
1176,1177,1580692535218,4.263499700000001,-3.9557998,4.1156,5.6913047,-3.7372627,15.489957999999998,-1
1177,1178,1580692535228,4.9585,-2.9642,6.7082,5.606205,-3.4609716,17.447823,-1
1178,1179,1580692535239,4.057699700000001,-2.7282999,9.1149,3.4289181000000006,-4.362877,19.9032,-1
1179,1180,1580692535248,1.7105999,-3.6639998,10.639299000000001,0.70207566,-6.0438843,20.413836,-1
1180,1181,1580692535258,-0.78239995,-5.1152,10.3474,-1.2713593,-7.453073,19.306076,-1
1181,1182,1580692535268,-2.7925,-6.3914,8.6758995,-3.5998642,-9.245937,17.300703,-1
1182,1183,1580692535278,-4.1263,-7.2728996,7.4851,-3.991594,-9.426029,16.856829,-1
1183,1184,1580692535289,-3.8219,-6.6471,7.1176,-2.655773,-8.068814,16.685957000000002,-1
1184,1185,1580692535299,-2.0699,-4.811899700000001,7.4860997000000005,-0.20412964,-5.6676116,17.826363,-1
1185,1186,1580692535309,0.0413,-2.5625,8.5942,1.5098794,-4.0513434,18.3662,-1
1186,1187,1580692535319,2.0462,-0.5779,8.9338,2.642959,-3.1562377999999995,18.120918,-1
1187,1188,1580692535329,2.441,-0.2012,8.8889,1.9122968,-3.737483,18.487835,-1
1188,1189,1580692535339,0.74189997,-1.272,9.743199,-0.5830743,-5.4316106,19.320833,-1
1189,1190,1580692535350,-1.3810999,-2.4889997999999998,10.2232,-2.9993793999999996,-6.8667526,19.266438,-1
1190,1191,1580692535360,-3.2282,-3.3974998,10.0363,-3.9174695,-7.3113365,18.457876000000002,-1
1191,1192,1580692535370,-3.84,-3.6381997999999998,8.6791,-3.3729036,-7.185938,16.638945,-1
1192,1193,1580692535381,-3.1834,-3.2215,7.4975996,-2.3715045,-6.1594095,16.610733,-1
1193,1194,1580692535391,-2.1065,-1.9828,7.665499700000001,-0.68194526,-4.849771499999999,17.099419,-1
1194,1195,1580692535402,-0.3929,-0.68619996,8.2262,1.2014486999999998,-3.7670562000000007,17.76853,-1
1195,1196,1580692535412,1.8541,0.7229,8.8252,1.9480756999999997,-3.3931489999999997,17.741936,-1
1196,1197,1580692535422,1.8541,0.7229,8.8252,1.6531771,-3.5364275000000003,17.709039999999998,-1
1197,1198,1580692535432,0.35709998,0.1681,8.646299,0.39800250000000004,-4.0843167000000005,17.491894,-1
1198,1199,1580692535442,-0.3432,-0.1365,7.8949,-0.34082898,-4.4384765999999996,16.720816,-1
1199,1200,1580692535453,-0.4558,-0.032199997,6.9171,-0.44382754,-4.327242,15.483791,-1
1200,1201,1580692535463,-0.292,0.2437,5.6821,-0.27591738,-4.037151000000001,14.278367999999999,-1
1201,1202,1580692535473,-0.17639999,0.5406,4.7619,-0.120648615,-3.7217388,13.4439125,-1
1202,1203,1580692535483,0.075399995,0.7499,4.0727,0.13451582,-3.5425472,12.906308000000001,-1
1203,1204,1580692535494,0.32029998,1.0172,3.7461,0.41792226,-3.2391922,12.588194999999999,-1
1204,1205,1580692535503,0.6592,1.2415,3.3929,0.7611263,-3.0051446,12.246801,-1
1205,1206,1580692535513,0.83019996,1.2671,3.2196999,0.92993665,-2.9653144,12.079628999999999,-1
1206,1207,1580692535523,0.83019996,1.2671,3.2196999,1.0294781,-2.8590214,12.019169999999999,-1
1207,1208,1580692535533,0.9145,1.3354,2.764,0.94526917,-2.8848693,11.518207,-1
1208,1209,1580692535543,0.6128,1.1592,1.9167999,0.61051184,-3.0774877,10.61228,-1
1209,1210,1580692535554,0.1252,0.77879995,1.0462999,0.09891884,-3.4346354,9.840322500000001,-1
1210,1211,1580692535564,-0.4292,0.426,0.67539996,-0.34963965,-3.6673614999999997,9.601189999999999,-1
1211,1212,1580692535574,-0.71279997,0.2021,0.58989996,-0.6213624,-3.8728510999999997,9.551542999999999,-1
1212,1213,1580692535585,-0.5448,0.17639999,0.77019995,-0.33861673,-3.7982,9.772078500000001,-1
1213,1214,1580692535594,-0.2834,0.25059998,0.76519996,-0.16142665,-3.7414476999999997,9.732296,-1
1214,1215,1580692535604,-0.2834,0.25059998,0.76519996,0.013991713999999999,-3.7464180000000002,9.665192,-1
1215,1216,1580692535614,-0.318,0.0707,0.5614,-0.23223756,-3.8903095999999997,9.572986,-1
1216,1217,1580692535624,-0.4094,-0.09219999599999999,0.5852,-0.26939556,-3.9831182999999997,9.572776,-1
1217,1218,1580692535635,-0.41369998,-0.1183,0.2895,-0.30748254,-3.9685616,9.237194,-1
1218,1219,1580692535645,-0.5549,-0.1652,-0.1577,-0.4816272,-4.024021,8.807339,-1
1219,1220,1580692535655,-0.65779996,-0.30159998,-0.625,-0.52026004,-4.082928,8.167378,-1
1220,1221,1580692535666,-0.5739,-0.3089,-1.111,-0.45316490000000004,-4.0114083,7.909992,-1
1221,1222,1580692535676,-0.47129998,-0.15359999,-1.1237999,-0.27948955,-3.8059475,8.012828,-1
1222,1223,1580692535686,-0.2128,-0.061499998,-0.9185,-0.039724596,-3.7423,8.338803,-1
1223,1224,1580692535696,-0.112399995,-0.0254,-0.6629999999999999,-0.09162131,-3.6572387,8.45882,-1
1224,1225,1580692535707,-0.21669999,-0.0479,-0.6132,-0.22006544,-3.7725148,8.565908,-1
1225,1226,1580692535717,-0.3709,-0.12979999,-0.57339996,-0.23313779,-3.7143357000000004,8.429305000000001,-1
1226,1227,1580692535727,-0.2192,-0.114999995,-0.8086,-0.08957188,-3.6916485,8.250563,-1
1227,1228,1580692535737,-0.15349999,-0.0705,-0.9162,-0.08093359,-3.6116629000000002,8.218231,-1
1228,1229,1580692535747,-0.117599994,-0.0537,-0.98389995,-0.05974012,-3.5896552,8.116947,d
1229,1230,1580692535757,-0.0927,-0.0444,-1.0309,-0.018339584,-3.573145,8.179608,-1
1230,1231,1580692535768,-0.087699994,-0.0602,-0.94879997,-0.06937439,-3.598131,8.335450999999999,-1
1231,1232,1580692535778,-0.17009999,-0.1206,-0.7766,-0.21765208,-3.6509757000000005,8.361577,-1
1232,1233,1580692535788,-0.3295,-0.17009999,-0.8688,-0.33157778,-3.693602,8.223192,-1
1233,1234,1580692535798,-0.39569998,-0.2453,-0.97919995,-0.3416813,-3.8009962999999996,8.298160000000001,-1
1234,1235,1580692535808,-0.44669998,-0.3011,-0.7659999999999999,-0.50021577,-3.7707336000000002,8.611436,-1
1235,1236,1580692535818,-0.5672,-0.3348,-0.4734,-0.5247036999999999,-3.871568,8.873678,-1
1236,1237,1580692535829,-0.5768,-0.38639998,-0.1704,-0.4571872,-3.7872437999999993,9.2185,-1
1237,1238,1580692535839,-0.3761,-0.21139999,0.0937,-0.06007531,-3.5771095999999996,9.287741,-1
1238,1239,1580692535849,-0.044299997,-0.0674,0.0925,0.01553358,-3.4784973,9.234378999999999,-1
1239,1240,1580692535859,-0.036000000000000004,-0.013499998999999999,0.0121,-0.124220766,-3.5288904000000003,9.042249,-1
1240,1241,1580692535869,-0.166,-0.0682,-0.18609999,-0.181854,-3.547297,8.928342,-1
1241,1242,1580692535879,-0.2087,-0.111899994,-0.2564,-0.29117325,-3.6046237999999997,8.989692,-1
1242,1243,1580692535890,-0.3329,-0.14400000000000002,-0.1986,-0.3275172,-3.5590764999999998,9.074580000000001,-1
1243,1244,1580692535900,-0.29459998,-0.1165,-0.11109999599999999,-0.14296257,-3.5319073,9.145027,-1
1244,1245,1580692535910,-0.1621,-0.0492,-0.013499998999999999,-0.15457924,-3.4228370000000004,9.5064945,-1
1245,1246,1580692535921,-0.1783,0.049399998,0.4084,-0.11365754,-3.370557,9.918642,-1
1246,1247,1580692535931,-0.1423,0.1118,0.7726,-0.071787745,-3.276532,10.055512,-1
1247,1248,1580692535941,-0.0605,0.1944,0.8721,0.086334914,-3.1986535,10.034157,-1
1248,1249,1580692535952,0.0651,0.2759,0.7363,0.21264341,-3.141892,9.924406,-1
1249,1250,1580692535961,0.19139999,0.3161,0.7363,0.21675186,-3.1191084,9.794986,-1
1250,1251,1580692535971,0.1977,0.34469998,0.6085,0.17581102,-3.194066,9.582103,-1
1251,1252,1580692535982,0.1635,0.265,0.39229998,0.14643896,-3.262684,9.691442,-1
1252,1253,1580692535992,-0.0459,0.1502,0.9131,-0.05936663,-3.3170227999999997,10.102296,-1
1253,1254,1580692536002,-0.112799995,0.1228,1.0806,-0.12698846,-3.3489614000000003,10.275905,-1
1254,1255,1580692536012,0.0064,0.18959999,1.0407,-0.015428236000000001,-3.269589,10.236706,-1
1255,1256,1580692536022,0.1354,0.3511,0.7838,0.14845966,-3.0920444,9.921849,-1
1256,1257,1580692536034,0.1672,0.3251,0.59499997,0.1703714,-3.1164843999999996,9.756094000000001,-1
1257,1258,1580692536044,0.1997,0.27109998,0.5147,0.20863074,-3.2216282000000005,9.680409,-1
1258,1259,1580692536054,0.14459999,0.2286,0.4351,0.12419203,-3.2469492,9.642791,-1
1259,1260,1580692536066,0.0879,0.1671,0.4145,-0.011760318999999998,-3.2989705000000002,9.524853,-1
1260,1261,1580692536076,-0.078899994,0.16409999,0.2074,-0.18493772,-3.2619083,9.351656,-1
1261,1262,1580692536086,-0.3265,0.0642,0.2557,-0.50976384,-3.4519982000000002,9.570725,-1
1262,1263,1580692536096,-0.7425,-0.0918,0.6189,-0.85418415,-3.5839474,10.037212,-1
1263,1264,1580692536106,-0.90529996,-0.2579,1.2075,-0.93795246,-3.733365,10.544371,-1
1264,1265,1580692536116,-0.8357,-0.3502,1.7061,-0.78814244,-3.752308,10.97978,-1
1265,1266,1580692536126,-0.551,-0.20600000000000002,1.7602999,-0.34507150000000003,-3.5587892999999995,10.836837,-1
1266,1267,1580692536136,-0.0493,-0.0598,1.3407999,0.071375936,-3.374158,10.346533,-1
1267,1268,1580692536146,0.103199996,0.17199999,0.91069996,0.19824947,-3.200933,10.059621,-1
1268,1269,1580692536157,0.1506,0.2102,0.7266,0.10578541,-3.0737240000000003,9.935938,-1
1269,1270,1580692536167,-0.015099999499999999,0.17369999,0.8382,-0.021126436000000002,-3.1964028,10.136552,-1
1270,1271,1580692536177,-0.19469999,-0.019299998999999998,1.0282999,-0.20651427,-3.4132025,10.296169,-1
1271,1272,1580692536187,-0.2341,-0.1494,1.0597,-0.13471693,-3.4902480000000002,10.18796,-1
1272,1273,1580692536197,-0.1831,-0.218,0.7944,-0.11564952,-3.4669383000000003,9.841941,-1
1273,1274,1580692536208,-0.1449,-0.23089999,0.42029998,0.02087744,-3.4831612,9.661782,-1
1274,1275,1580692536218,-0.047199998,-0.22129999,0.4396,0.16338989999999998,-3.311957,9.86435,-1
1275,1276,1580692536228,0.124,-0.0486,0.68659997,0.33040944,-3.159226,10.226086,-1
1276,1277,1580692536238,0.2534,0.021499999,1.1415,0.4591983,-3.161074,10.836224000000001,-1
1277,1278,1580692536248,0.41849998,0.0163,1.7837,0.6698881,-3.0772867,11.437082,-1
1278,1279,1580692536258,0.6092,0.058599997,2.3369999999999997,0.85915446,-3.1585076,11.873899,-1
1279,1280,1580692536269,0.8181,0.0049,2.6819,1.1065713,-2.9728322,12.067466,-1
1280,1281,1580692536279,1.1306,0.2164,2.7786,1.53227,-2.6275694,12.190710000000001,-1
1281,1282,1580692536289,1.4578999,0.47,2.8929,1.6946926,-2.3797118999999998,12.461905999999999,-1
1282,1283,1580692536299,1.5554999,0.6534,3.2226999,1.7319465,-2.1936827,12.904717999999999,-1
1283,1284,1580692536309,1.5821999,0.8203,3.7596,1.6435237,-2.2116966000000002,13.540666,-1
1284,1285,1580692536319,1.4498999,0.6779999999999999,4.2981997000000005,1.4932923,-2.4322696,14.386604,-1
1285,1286,1580692536330,1.2735,0.4145,5.3195996,1.4588447,-2.6861985,16.167679,-1
1286,1287,1580692536340,1.2499,0.1378,7.2355,1.485334,-3.0114076,18.447036999999998,-1
1287,1288,1580692536350,1.2629,-0.2676,9.5042,1.7030147,-3.3872495000000002,20.326629999999998,-1
1288,1289,1580692536360,1.5067999,-0.6116,11.1994,2.2164657,-3.4841094,21.269226,-1
1289,1290,1580692536371,2.0611,-0.7222,11.8953,3.0868154,-3.243693,21.075487,-1
1290,1291,1580692536381,2.9146,-0.5493,11.453,3.6407955000000003,-2.7946942000000004,20.172289000000003,-1
1291,1292,1580692536391,3.3107,-0.2481,10.512199,3.9512657999999994,-2.4344816000000002,19.272999,-1
1292,1293,1580692536401,3.5161998,-0.1418,9.7343,3.7493870000000005,-2.5211422000000003,18.653177,-1
1293,1294,1580692536411,3.2605,-0.41889998,9.0732,3.148222,-2.8245258,17.941582,-1
1294,1295,1580692536422,2.6111999,-0.94089997,8.324699,2.8060138,-3.0681982000000003,17.124814999999998,-1
1295,1296,1580692536432,2.2215,-1.4236,7.4707,2.684848,-2.98941,15.87645,-1
1296,1297,1580692536442,2.0349998,-1.6019999999999999,6.179199700000001,2.6519327,-2.6306147999999996,14.773249,-1
1297,1298,1580692536452,1.6952,-1.3542,4.2332,2.4811494,-2.1907330000000003,13.989223999999998,-1
1298,1299,1580692536462,1.1334,-1.4014,3.3853,1.9906063000000003,-1.9407014999999999,13.153198000000001,-1
1299,1300,1580692536473,1.1334,-1.4014,3.3853,1.4670041,-2.0593581000000003,12.205267,-1
1300,1301,1580692536483,0.1911,-2.3061,1.2257,1.1168855,-2.2462017999999997,10.733895,-1
1301,1302,1580692536493,-0.1118,-2.633,-0.0179,0.8415523000000001,-2.294555,9.470149000000001,-1
1302,1303,1580692536503,-0.8466,-2.9243999,-1.2455,0.03127785,-2.2535567000000003,8.294051,-1
1303,1304,1580692536513,-0.8466,-2.9243999,-1.2455,-0.6526307,-2.043183,7.515561999999999,-1
1304,1305,1580692536524,-2.1368,-2.8444,-2.7505,-1.0931541999999999,-1.6393863999999998,6.8920449999999995,-1
1305,1306,1580692536533,-2.0248,-2.5535,-2.9701998,-1.000125,-1.2119448999999998,6.696860000000001,-1
1306,1307,1580692536543,-1.6359999,-2.26,-3.3827,-0.6183456999999999,-0.72612303,6.262437,-1
1307,1308,1580692536553,-1.0081,-1.9409999999999998,-3.8885,0.04178361,-0.21955788,5.7120194,-1
1308,1309,1580692536563,-0.65,-1.7825999,-4.7527,0.42178175,0.15071979,4.8092427,-1
1309,1310,1580692536573,-0.1228,-1.5214,-4.6054997,1.0210983,0.71829885,5.100215,-1
1310,1311,1580692536583,-0.059699997000000005,-1.0524,-3.6762998,1.10909,1.257157,5.918687,-1
1311,1312,1580692536594,0.123799995,-1.0659,-3.3988,1.2564195,1.3154702,6.103758999999999,-1
1312,1313,1580692536604,-0.0711,-1.2789,-3.1963,0.93358546,1.1565239999999999,6.2247996,-1
1313,1314,1580692536614,-0.6243,-1.7836,-3.4113,0.40255147,0.81022656,6.002014599999999,-1
1314,1315,1580692536624,-1.1672,-2.2244,-3.8830998,-0.32886755,0.44918096,5.391771,-1
1315,1316,1580692536634,-1.3941,-2.4301999,-4.5101,-0.5831414,0.33610759999999995,4.7292,-1
1316,1317,1580692536644,-1.5037999,-2.6387,-4.9374,-0.7615189,0.24110568,4.3864264,-1
1317,1318,1580692536654,-1.4101,-2.7528,-4.9579997,-0.6481965999999999,0.26065195,4.320347,-1
