,Seq,Time,ACCx,ACCy,ACCz,ADGx,ADGy,ADGz,Keydown
0,1,1580694556815,1.1739,1.0993998999999999,-0.0158,1.1312795,3.5913985,9.171526,-1
1,2,1580694556825,1.1739,1.0993998999999999,-0.0158,-0.5828156999999999,0.8918688,9.530906,-1
2,3,1580694556835,0.0345,-0.0795,-0.54499996,-0.36317167,1.2318838,9.112724,-1
3,4,1580694556845,0.3793,-0.2864,-0.4851,-0.08896854,1.0819684999999999,9.351177,-1
4,5,1580694556855,0.60969996,-0.36789998,-0.20179999,0.18817468,1.1519749,9.44252,-1
5,6,1580694556865,0.797,-0.1998,-0.35079998,0.35476324,1.2738016,9.219889,-1
6,7,1580694556875,1.0439,-0.1276,-0.6568,0.6568636,1.2995632,8.967137,-1
7,8,1580694556885,1.2686,-0.0902,-0.7773,0.87081903,1.3878133,8.973486999999999,-1
8,9,1580694556895,1.3041999,0.0034999999,-0.6635,0.8308263000000001,1.3741663999999998,9.244807000000002,-1
9,10,1580694556906,1.2364,-0.08109999400000001,-0.2959,0.8042984999999999,1.2300738000000002,9.683492999999999,-1
10,11,1580694556916,1.1288999,-0.081999995,0.1393,0.7065001999999999,1.39287,10.020759,-1
11,12,1580694556927,1.0411999,0.2296,0.4298,0.97320473,1.8346958999999998,10.131093,-1
12,13,1580694556937,1.2760999,0.5417,0.38,1.3777673000000001,2.0633614,10.029197,-1
13,14,1580694556947,1.7192999,0.7377,0.23539999,1.9914395,2.195617,9.7561035,-1
14,15,1580694556957,2.1227999,0.7887,-0.0916,2.53228,2.1158613999999996,9.386641000000001,-1
15,16,1580694556967,2.3631,0.6033,-0.3259,2.8397148,2.0312886000000003,9.238611,-1
16,17,1580694556977,2.4694998,0.47709998,-0.44799998,3.0698453999999997,2.1216936,9.278623,-1
17,18,1580694556988,2.4847,0.5487,-0.36200000000000004,3.1113992,2.2178926,9.441717,-1
18,19,1580694556997,2.3181,0.6148,-0.1987,2.9911146,2.3451494999999998,9.525675999999999,-1
19,20,1580694557007,2.0908,0.7567,0.0018,2.9877912999999996,2.4844247999999998,9.839202,-1
20,21,1580694557017,1.9905,0.8405,0.20189999,2.9744318,2.355387,9.666091999999999,-1
21,22,1580694557027,1.8449,0.63809997,-0.074599996,2.8902612000000003,2.1379932999999998,9.075021000000001,-1
22,23,1580694557039,1.661,0.29279998,-0.6082,3.078934,1.6308824,8.765105,-1
23,24,1580694557049,1.7766998999999999,-0.28149998,-0.81049997,3.4002357000000005,1.4083364,8.953233,-1
24,25,1580694557059,1.8905,-0.44529998,-0.39479998,3.9386437000000005,1.5353344999999998,10.413350999999999,-1
25,26,1580694557069,2.2519999,-0.3126,0.9205,4.253213,1.618624,11.564933,-1
26,27,1580694557080,2.5151,-0.19049999,2.3702,4.401931299999999,1.7795718,13.064708999999999,-1
27,28,1580694557090,2.6801999,0.0286,3.8922,5.077901,1.9183971999999998,14.8298,-1
28,29,1580694557100,3.8293998,0.35279998,6.2023,5.570005,1.9724487000000002,15.734262,-1
29,30,1580694557110,3.8293998,0.35279998,6.2023,5.556147599999999,1.7402494,15.971403,-1
30,31,1580694557120,3.3592,-0.4484,6.4298997,5.02315,1.0860098999999999,15.986629999999998,-1
31,32,1580694557131,3.3592,-0.4484,6.4298997,4.3395475999999995,0.21480776,16.201284,-1
32,33,1580694557141,1.5814999,-1.8612,6.7717,3.0065427000000002,-0.43321642,16.327948000000003,-1
33,34,1580694557151,0.51629996,-2.6095,6.7012997,2.1394205000000004,-1.0076046,16.244822,-1
34,35,1580694557163,-0.8290000000000001,-3.3813,6.3582,0.20388065,-1.9503646000000001,15.706710000000001,-1
35,36,1580694557174,-2.1567,-4.0559998,5.8952,-1.0852532,-2.5580802000000005,15.244332,-1
36,37,1580694557184,-3.3025,-4.6906,5.5344996,-2.2697225,-3.1695208999999998,14.955467,-1
37,38,1580694557194,-4.4923997,-5.4073,5.3735,-3.6045472999999997,-3.8606884,15.012909,-1
38,39,1580694557204,-5.864,-6.0379,5.7750998,-5.438592,-4.4515676,15.755780999999999,-1
39,40,1580694557214,-7.2173,-6.4307,6.5162,-6.695988000000001,-4.752222,16.430067,-1
40,41,1580694557225,-8.1929,-6.7764997000000005,6.9547,-7.5783,-5.062137,16.436472,-1
41,42,1580694557235,-8.793799,-7.0232,6.6344,-7.9977255000000005,-5.0517755,15.764937,-1
42,43,1580694557245,-8.8712,-6.8746,5.8615,-7.8509035,-4.723712,14.848293,-1
43,44,1580694557255,-8.4848995,-6.6709,4.8708,-7.4328084,-4.5563574000000004,13.801452,-1
44,45,1580694557266,-8.0664,-6.6889,3.7679,-7.341647,-4.538793599999999,12.488645,-1
45,46,1580694557276,-8.1011,-6.7823,2.4225,-7.738194,-4.5541162,11.155342999999998,-1
46,47,1580694557286,-8.5253,-6.9329996,1.2150999,-8.481736999999999,-4.683547,10.286774000000001,-1
47,48,1580694557296,-9.3237,-7.1446,0.6351,-9.508361,-4.7057269999999995,10.062725,-1
48,49,1580694557306,-10.255899000000001,-7.2208,0.5256,-10.295594,-4.6666726999999995,9.885899,-1
49,50,1580694557317,-10.649799,-7.2455997000000005,0.2999,-10.432675999999999,-4.577733,9.515458,-1
50,51,1580694557326,-10.4374,-7.1348,-0.3646,-10.009784,-4.2443547,8.705375,-1
51,52,1580694557336,-9.8377,-6.9733996,-0.8361,-9.5584,-4.066254600000001,8.277396000000001,-1
52,53,1580694557346,-9.5486,-6.968499700000001,-1.2759,-9.611925,-3.983358,7.701007400000001,-1
53,54,1580694557356,-9.6397,-7.014199700000001,-1.8599999,-9.652578,-3.8154383000000003,7.144297999999999,-1
54,55,1580694557367,-9.554399499999999,-7.0014,-2.1866,-9.548489,-3.6369169,6.9087276,-1
55,56,1580694557377,-9.394899,-6.8212,-2.4819,-9.294722,-3.1208994,6.518520400000001,-1
56,57,1580694557387,-8.9239,-6.4054,-2.7556,-8.3305,-2.5397213,6.092266599999999,-1
57,58,1580694557398,-8.0766,-6.0748,-3.1165,-7.673627000000001,-2.050739,5.577762,-1
58,59,1580694557408,-7.4308,-5.718499700000001,-3.6051998,-7.033581,-1.781334,5.0342493,-1
59,60,1580694557420,-6.2724,-5.5959,-4.4414997000000005,-6.432789,-1.6216216,4.531869400000001,-1
60,61,1580694557430,-5.904,-5.5101,-4.8466,-6.0991615999999995,-1.4389726999999999,4.073878,-1
61,62,1580694557440,-5.904,-5.5101,-4.8466,-5.527483999999999,-1.228867,3.4984745999999998,-1
62,63,1580694557450,-4.5188,-5.062999700000001,-5.986399700000001,-4.6297635999999995,-0.7123325,2.719248,-1
63,64,1580694557461,-4.5188,-5.062999700000001,-5.986399700000001,-4.141403700000001,-0.31388944,2.071856,-1
64,65,1580694557471,-3.0224,-4.2359,-7.6102,-3.0999453,0.35299152,0.8889191999999999,-1
65,66,1580694557481,-2.0112,-3.8111,-8.8941,-2.1167617,0.84668547,-0.47816040000000004,-1
66,67,1580694557491,-1.0216,-3.6367,-9.7824,-1.1672882,1.0661093000000001,-1.2718287,-1
67,68,1580694557501,-0.35709998,-3.3314,-10.1136,-0.57331556,1.4616985,-1.5171386,-1
68,69,1580694557511,0.16679999,-3.1383,-9.8014,-0.15484738,1.6124086000000002,-1.2264442,-1
69,70,1580694557521,0.56009996,-3.0693,-9.2568,0.2631515,1.7324157,-0.6189778,-1
70,71,1580694557531,0.5995,-2.807,-8.9176,0.34500447,1.9648063999999998,-0.27405947,-1
71,72,1580694557541,1.0905,-2.7696998,-8.7119,0.9239224,1.9698056000000002,-0.20599711,-1
72,73,1580694557551,1.791,-2.7563,-9.2646,1.5069776000000001,1.9537069,-0.6722823,-1
73,74,1580694557561,3.0597,-2.7282999,-9.9573,3.0991697,1.9877619999999998,-1.4689673,-1
74,75,1580694557572,4.4849,-2.4291,-10.4774,4.277461499999999,2.2240697999999997,-1.8486973000000002,-1
75,76,1580694557583,5.705,-1.8621,-10.602099,5.758189,2.8314404,-1.9184548,-1
76,77,1580694557593,6.5971,-1.5346,-10.3326,6.706427000000001,2.9911528,-1.5362443000000001,-1
77,78,1580694557603,7.1362996,-1.5238999,-9.9126,7.148856599999999,2.913236,-1.140703,-1
78,79,1580694557613,6.9279,-1.3070998999999999,-9.6923,6.948605499999999,3.016177,-0.89690626,-1
79,80,1580694557623,6.4400997,-1.0059,-8.9029,6.5191813,3.0998209,0.22068794,-1
80,81,1580694557633,6.7992,-1.2178999,-7.8131,7.171611,2.6125912999999996,1.6124374,-1
81,82,1580694557643,7.5509,-1.41,-6.6303,8.016333,2.3565167999999996,2.708005,-1
82,83,1580694557654,8.8757,-1.5152999,-5.3132,9.766791,1.9950116999999998,4.268804,-1
83,84,1580694557664,9.9807,-1.6822,-4.0905,10.851278,1.74748,5.6092315,-1
84,85,1580694557674,10.4332,-1.3101,-2.8988,11.070991000000001,2.2199326,6.822354300000001,-1
85,86,1580694557684,10.4439,-0.49929997,-1.5359,11.454435,2.7940717,8.825478,-1
86,87,1580694557694,10.9889,0.0361,-0.056399997,12.188058,2.8429327,9.661791000000001,-1
87,88,1580694557704,11.7725,0.33339998,0.61689997,12.953398,2.9137912,10.448296000000001,-1
88,89,1580694557714,12.7275,0.36929998,1.8822,14.113838000000001,2.5474495999999998,11.996195,-1
89,90,1580694557724,13.627,0.18239999,3.3088,15.114816000000001,2.1863754,13.308888,-1
90,91,1580694557734,14.526299,0.0414,4.5887,16.049310000000002,1.9948583999999998,14.663537,-1
91,92,1580694557745,14.9669,0.4378,5.7948,16.347044,2.3951306,15.811644,-1
92,93,1580694557754,14.7994995,1.0986,6.9400997,16.164873,2.8032367000000002,17.275843,-1
93,94,1580694557764,14.4143,1.7312,8.9362,15.637306,3.2822014999999998,19.391176,-1
94,95,1580694557774,13.8424,2.3018,10.9935,15.440024,3.4817917,21.767086,-1
95,96,1580694557785,13.9289,2.4768,12.7435,15.430313,3.294776,22.867682000000002,-1
96,97,1580694557794,13.6432,2.2275999,14.0511,15.120667000000001,2.8777060000000003,24.314429999999998,-1
97,98,1580694557804,13.255199,1.9355999,15.221298999999998,14.773594000000001,2.5229235,25.029970000000002,-1
98,99,1580694557814,12.774799,1.7068,15.474998999999999,14.14885,2.2612662,25.14338,-1
99,100,1580694557824,11.9908,1.4980999,15.4368,13.327342999999999,2.0576248,24.849974,-1
100,101,1580694557834,10.7321,1.0504999,14.7395,12.012113000000001,1.481398,24.00986,-1
101,102,1580694557844,9.3087,0.2066,13.773399,10.51088,0.55539733,23.00596,-1
102,103,1580694557854,7.6801996,-1.0478,12.852699000000001,8.742973,-0.8095562,22.048002,-1
103,104,1580694557864,5.7223997,-2.7017999,11.8123,5.884325,-2.7494723999999997,20.95704,-1
104,105,1580694557875,2.9951,-4.3543,11.0862,3.3966157,-3.7721796000000003,20.51464,-1
105,106,1580694557886,-0.041699997999999995,-5.4474998,10.7167,0.5049371,-4.533124,20.215595,-1
106,107,1580694557895,-2.3432999,-6.1384,10.3619995,-1.8896285,-4.9337125,19.488506,-1
107,108,1580694557905,-3.8950998999999995,-6.4656997,9.4732,-2.9125464,-4.9700370000000005,18.560198,-1
108,109,1580694557915,-4.7392,-6.5327,8.1966,-3.5944532999999996,-4.676412,16.934792,-1
109,110,1580694557925,-4.8842,-6.403,6.7381997,-3.5462531999999998,-4.2054634,15.1600275,-1
110,111,1580694557935,-4.6240997,-6.0548997,4.8142,-3.3931199999999997,-3.6754443999999995,13.083403,-1
111,112,1580694557946,-4.2875,-5.8610997000000005,2.7561,-3.2304772999999996,-3.304324,10.957619000000001,-1
112,113,1580694557956,-4.1495,-5.6339999999999995,0.6798,-3.3305357000000004,-2.8737507,9.027338,-1
113,114,1580694557966,-4.1744,-5.3938,-1.022,-3.5774736000000003,-2.461948,7.562536200000001,-1
114,115,1580694557976,-4.3328,-5.21,-2.2017,-4.1422563,-2.0692127,6.458196,-1
115,116,1580694557986,-4.7774997,-5.0933,-3.0065,-4.753773000000001,-1.9647202000000001,5.9377546,-1
116,117,1580694557997,-5.4807997,-5.1752,-3.5530998999999994,-5.66063,-1.9017143,5.222453,-1
117,118,1580694558008,-6.1798997,-5.2332997,-4.3998,-6.349969000000001,-1.6979773999999999,3.8336434,-1
118,119,1580694558018,-6.5408998,-5.2116,-5.5752997,-6.7443800000000005,-1.4197041000000001,2.516306,-1
119,120,1580694558028,-6.8373,-5.0779,-6.825999700000001,-7.1354774999999995,-1.2199991000000001,1.1442752,-1
120,121,1580694558038,-7.0923,-5.0705,-8.1453,-7.544886,-1.1662921999999998,-0.14979084,-1
121,122,1580694558048,-7.4205,-5.1541,-9.3302,-8.221114,-1.0866133,-1.264081,-1
122,123,1580694558059,-7.8538,-5.1974,-10.1381,-8.641057,-0.902863,-1.9534770000000001,-1
123,124,1580694558069,-8.1529,-5.1017,-10.786099,-8.776099,-0.74565023,-2.5670822,-1
124,125,1580694558079,-8.178599,-5.0172,-11.3624,-8.725142,-0.45091435,-3.0422547000000004,-1
125,126,1580694558089,-8.037499,-4.7802,-11.7984,-8.422897,-0.16968188,-3.2455893,-1
126,127,1580694558099,-7.6661,-4.54,-11.9768,-8.329647999999999,0.04735731,-2.8239322000000002,-1
127,128,1580694558109,-7.5298996,-4.3859997,-11.5355,-8.501733999999999,0.22177011,-2.5063846,-1
128,129,1580694558120,-7.7344,-4.2029,-11.1698,-8.608486,0.26639804,-2.7307498,-1
129,130,1580694558130,-7.6626997,-4.1615,-11.711599,-8.453581,0.3007979,-3.0204002999999995,-1
130,131,1580694558140,-7.6626997,-4.1615,-11.711599,-8.075365,0.27241227,-2.94822,-1
131,132,1580694558150,-7.1898,-4.1853,-11.564099,-7.4320617,0.1825914,-2.2455506,-1
132,133,1580694558160,-6.6854,-4.2282,-10.966499,-6.9441904999999995,0.04888002,-1.7655323,-1
133,134,1580694558170,-6.1056,-4.3598,-10.447000000000001,-6.3494806,-0.501681,-1.4925452,-1
134,135,1580694558180,-5.52,-5.1175,-10.183499000000001,-6.1791277000000004,-0.9384984000000001,-1.3545147,-1
135,136,1580694558191,-5.52,-5.1175,-10.183499000000001,-6.03809,-1.0560346,-1.1763958,-1
136,137,1580694558201,-4.9739,-5.3854,-9.649,-5.5016264999999995,-1.3853042,-0.72275203,-1
137,138,1580694558211,-4.6979,-5.5262,-9.3336,-5.120556,-1.6096218999999998,-0.36247256,-1
138,139,1580694558222,-4.2811,-5.7078,-8.901999,-4.5862274,-1.9040128,0.14232092,-1
139,140,1580694558232,-3.7214,-6.0292997,-8.4154,-3.7524035000000002,-2.4529650000000003,0.76080066,-1
140,141,1580694558242,-3.7214,-6.0292997,-8.4154,-3.2507226,-3.020793,1.1543308,-1
141,142,1580694558252,-2.7577999,-7.1285,-7.2433,-2.6456310000000003,-3.8885572,2.1577501,-1
142,143,1580694558262,-2.5737997999999997,-7.4827,-6.4486,-2.4284387,-4.322425,2.9350517000000003,-1
143,144,1580694558272,-3.0572,-7.2286997,-6.3318996,-2.9570787,-4.2781606,3.0428580000000003,-1
144,145,1580694558282,-3.5082,-7.4606,-5.8996997,-3.227882,-4.898814700000001,3.7665197999999998,-1
145,146,1580694558293,-3.2199,-7.9179997,-4.58,-2.6525263999999997,-5.4653974000000005,5.20486,-1
146,147,1580694558303,-2.1397998,-7.5367,-3.1446,-1.3179889,-5.220461,6.731806,-1
147,148,1580694558313,-0.3331,-7.0685997,-1.5446,1.1231966,-5.080285,8.597215,-1
148,149,1580694558323,1.2404,-6.9227,-0.4477,2.2958383999999996,-5.2187852999999995,9.329706,-1
149,150,1580694558333,2.1638,-6.7893,0.2022,3.5241307999999996,-5.341033,10.077013,-1
150,151,1580694558343,3.1954,-6.3715997,0.64739996,4.562563,-5.0491605,10.5462,-1
151,152,1580694558353,3.9559998999999997,-5.5299997,1.1241,5.1493816,-4.6176010000000005,11.212688,-1
152,153,1580694558363,4.4033,-5.0316,2.3920999,5.551579,-4.605151,13.04296,-1
153,154,1580694558373,4.7360997000000005,-4.5527,4.888999999999999,5.713426999999999,-4.4342239999999995,15.2249775,-1
154,155,1580694558384,4.9721,-3.7533,7.7454996,5.9224315,-4.0744905,18.487451999999998,-1
155,156,1580694558394,4.8324,-3.6209,9.6368,5.4839,-4.63278,19.557056,-1
156,157,1580694558404,4.1735997000000005,-4.0624,9.635799,5.0278525,-5.333324,18.968042,-1
157,158,1580694558414,4.2955,-4.4231997000000005,8.384399,5.4921837,-5.864875,17.413298,-1
158,159,1580694558424,4.8373,-4.3766,7.0765996,5.954753,-5.822641,16.66648,-1
159,160,1580694558434,5.5622,-3.8181998999999998,7.598099700000001,6.816474,-5.3850193,17.971022,-1
160,161,1580694558444,6.0757,-2.9854,9.805699,7.058997,-4.725206,20.27998,-1
161,162,1580694558455,6.1587996,-2.0588999,11.914499000000001,6.9687166,-4.2231994,21.886528,-1
162,163,1580694558465,5.8912997,-1.5386,12.6347,6.464613,-4.0936346,21.867853,-1
163,164,1580694558475,5.3942,-1.2925999,11.7143,6.0174046,-4.161563,20.72851,-1
164,165,1580694558485,5.2517,-1.4972,9.7073,5.7881545999999995,-4.70769,17.764633,-1
165,166,1580694558495,5.0985,-1.6639999,7.8591,5.544329599999999,-4.82944,16.885270000000002,-1
166,167,1580694558505,4.9091997,-1.3754,7.9609,5.400371,-4.4402194,17.794033,-1
167,168,1580694558515,4.882,-0.7055,9.587999,5.216668599999999,-3.8947341,19.466238,-1
168,169,1580694558525,4.6541,-0.2757,10.493,4.768311,-3.8865747,19.464610999999998,-1
169,170,1580694558536,4.3212,-0.20279999,10.100599,4.55335,-3.8346970000000002,18.680088,-1
170,171,1580694558546,4.366699700000001,0.0602,9.2199,4.591169,-3.6251564,17.683706,-1
171,172,1580694558556,4.539,0.3312,8.122499000000001,4.611491,-3.440918,16.237254999999998,-1
172,173,1580694558567,4.4386,0.5126,6.6113,4.2783904,-3.4198108,15.140317999999999,-1
173,174,1580694558577,3.7473,0.385,5.0606,3.1914709,-3.6841209999999998,13.257624,-1
174,175,1580694558587,2.9729997999999997,0.2014,3.8558,2.6625152,-3.7621910000000005,12.493357000000001,-1
175,176,1580694558597,2.6574,0.2465,3.4127998,2.6653976000000004,-3.3838977999999997,12.577038,-1
176,177,1580694558607,2.7739,0.65749997,3.6478,2.9383654999999997,-2.9399743,12.900706,-1
177,178,1580694558617,3.0723999,1.0854,3.9643998,3.2063916,-2.6545088,13.057527,-1
178,179,1580694558627,3.3214,1.3405,4.076699700000001,3.3030693999999996,-2.5525732000000003,12.914314,-1
179,180,1580694558638,3.4062,1.4156,3.8737998,3.3230467000000004,-2.564286,12.734797,-1
180,181,1580694558648,3.4529,1.3619,3.6659,3.4334195,-2.619898,12.405346,-1
181,182,1580694558658,3.5444,1.3225,3.3237,3.3888202000000005,-2.6019704,11.989741,-1
182,183,1580694558668,3.3292,1.296,2.6899,2.7944355,-2.7544906000000005,11.056826,-1
183,184,1580694558678,2.7022998,1.0303999,1.8445,2.0106026999999997,-3.0001838,10.1744375,-1
184,185,1580694558688,1.8611,0.7653,0.95629996,1.4098687,-3.0803225,9.567143,-1
185,186,1580694558698,1.1618,0.6346,0.2147,0.9432867,-3.1219242,8.859264,d
186,187,1580694558708,0.8574,0.54789996,-0.3085,0.9139816999999999,-3.1620796,8.699657,-1
187,188,1580694558718,0.8558,0.46269998,-0.3953,1.041947,-3.1477527999999997,8.985563,-1
188,189,1580694558728,0.97249997,0.44919997,-0.0747,1.2114565000000002,-3.1201236,9.320762,-1
189,190,1580694558738,1.1360999,0.4524,0.2191,1.50715,-3.0861259999999997,9.424325,-1
190,191,1580694558748,1.4205999,0.48439997,0.2676,1.6804519,-3.0301592,9.353783,-1
191,192,1580694558759,1.5160999,0.4816,0.13769999,1.4595628999999999,-3.0828697999999997,8.867099000000001,-1
192,193,1580694558770,1.2931,0.39339998,-0.3181,1.1750838,-3.1141381,8.526834,-1
193,194,1580694558780,0.5862,0.184,-1.0539,0.7855089,-3.2028003,8.152477000000001,-1
194,195,1580694558790,0.5862,0.184,-1.0539,0.58667517,-3.2349305,8.06891,-1
195,196,1580694558800,0.3107,0.0861,-1.1559,0.33978509999999995,-3.389883,8.165502,-1
196,197,1580694558810,0.098699994,-0.059899997,-1.0677,0.26771006,-3.4859767,8.480493,-1
197,198,1580694558820,0.0127,-0.1778,-0.75729996,0.37081397,-3.5563086999999998,8.796211,-1
198,199,1580694558831,0.363,-0.18969999,-0.2616,0.60613525,-3.492374,8.982728999999999,-1
199,200,1580694558841,0.363,-0.18969999,-0.2616,0.7236235,-3.299957,8.951680999999999,-1
200,201,1580694558851,0.4691,0.1495,-0.3356,0.69790024,-3.133895,8.913699000000001,-1
201,202,1580694558861,0.4258,0.3069,-0.33899999999999997,0.6456683000000001,-2.969059,8.914303,-1
202,203,1580694558871,0.3297,0.31689999,-0.25419998,0.52464616,-2.9563603,9.013029,-1
203,204,1580694558881,0.100999996,0.1986,-0.248,0.32357156,-3.0623085,9.020978999999999,-1
204,205,1580694558891,0.100999996,0.1986,-0.248,0.16815914,-3.2249515,9.019925,-1
205,206,1580694558902,-0.1494,-0.075399995,-0.2543,0.076365456,-3.3397197999999997,9.048934,-1
206,207,1580694558912,-0.0665,-0.1374,0.019199999,0.2277652,-3.3712084000000004,9.364747999999999,-1
207,208,1580694558922,0.3162,-0.0154,0.59929997,0.6416651999999999,-3.2111895,10.047133,-1
208,209,1580694558933,0.6874,0.21159999,1.5640999,0.9683492,-3.01226,10.993916,-1
209,210,1580694558943,0.8002,0.2339,2.2154,1.0190872,-3.0477326000000002,11.54984,-1
210,211,1580694558953,0.72789997,0.052699998,2.3836,0.8642015,-3.2671945,11.62541,-1
211,212,1580694558963,0.5133,-0.1495,2.2145,0.5906304,-3.5055232000000003,11.331134,-1
212,213,1580694558973,0.23449999,-0.3611,1.8951,0.3928023,-3.6321573,11.127445,-1
213,214,1580694558984,0.2874,-0.39909998,1.8886,0.61459154,-3.5729344,11.242741,-1
214,215,1580694558994,0.6947,-0.2589,2.1671,1.0968891,-3.3813120000000003,11.622806,-1
215,216,1580694559004,1.2636,-0.0561,2.6919999999999997,1.6166512,-3.1941428,12.244483,-1
216,217,1580694559014,1.6499,-0.047,3.3943,1.9247179,-3.2990282,12.962734,-1
217,218,1580694559024,1.8212,-0.2357,4.0568,1.8697374,-3.478794,13.648482000000001,-1
218,219,1580694559034,1.6594,-0.35169998,4.530999700000001,1.7317357,-3.541618,14.000179999999999,-1
219,220,1580694559045,1.5676,-0.40719998,4.9241,1.6648608,-3.5334873,14.362538,-1
220,221,1580694559055,1.5877999,-0.4513,5.0792,1.7274453999999997,-3.6090772000000007,14.428532999999998,-1
221,222,1580694559065,1.68,-0.6127,5.1429996,1.7722933999999997,-3.7476152999999996,14.585975,-1
222,223,1580694559075,1.7299999,-0.7747,5.3216,1.7839772,-3.8249480000000005,14.868682000000002,-1
223,224,1580694559085,1.7319,-0.90919995,5.6537,1.7232121999999999,-3.8399165,15.253929000000001,-1
224,225,1580694559095,1.6436,-0.94949996,5.9921,1.6546615000000002,-3.6664421999999997,15.485218,-1
225,226,1580694559105,1.6437998999999999,-0.79819995,6.0720997,1.795048,-3.3742635,15.44489,-1
226,227,1580694559116,1.8377999,-0.5997,5.934,2.0376284,-3.072747,15.253248000000001,-1
227,228,1580694559126,2.043,-0.44799998,5.6874,2.1514008,-2.9026058,15.107892000000001,-1
228,229,1580694559136,2.044,-0.44889998,5.5780997,1.9871874,-2.8818335999999998,15.108543,-1
229,230,1580694559146,1.7702999,-0.62189996,5.5867,1.569677,-2.9757247000000002,15.1708975,-1
230,231,1580694559156,1.2969998999999999,-0.775,5.6047997,1.1961623,-2.8890545,15.185866,-1
231,232,1580694559166,1.0141,-0.84319997,5.5337996,1.0985459,-2.7230597000000003,15.011778,-1
232,233,1580694559177,1.0095999,-0.7209,5.236799700000001,1.2886743999999999,-2.3786871,14.602351,-1
233,234,1580694559187,1.1962999,-0.5736,4.714699700000001,1.5009921,-2.1130266,14.090155,-1
234,235,1580694559197,1.3986,-0.5661,4.1844,1.7116052,-1.9907022,13.475142000000002,-1
235,236,1580694559207,1.4894999,-0.68509996,3.6373,1.8091258999999997,-1.9379914,12.951319999999999,-1
236,237,1580694559217,1.5525,-0.8304,2.8581998,1.8603330000000002,-1.8343223000000002,12.086744,-1
237,238,1580694559227,1.5751,-0.88049996,1.9654,1.7608970000000002,-1.6186334999999998,10.9652815,-1
238,239,1580694559237,1.3942,-0.90849996,1.0081999,1.4671188999999998,-1.4285628000000001,10.214325,-1
239,240,1580694559247,1.0675,-0.89169997,0.3102,1.0977511,-1.1270368999999998,9.675821000000001,-1
240,241,1580694559258,0.69799995,-0.7797,-0.2463,0.5579544,-0.9302239999999999,9.026169,-1
241,242,1580694559268,0.1257,-0.81079996,-0.94629997,0.09139147,-0.8684919,8.360639,-1
242,243,1580694559278,-0.35779998,-0.9184,-1.78,-0.24541526,-0.72223485,7.349749,-1
243,244,1580694559288,-0.5269,-0.95409995,-2.6397998,-0.208851,-0.46594036,6.268288,-1
244,245,1580694559298,-0.4579,-0.85749996,-3.7710000000000004,-0.23910414,-0.18871099,5.1693206,-1
245,246,1580694559308,-0.48,-0.732,-4.7918,-0.22256498,0.12265016,4.4880557,-1
246,247,1580694559318,-0.45549998,-0.6198,-5.3894997,-0.34311783,0.32745975,3.8839792999999996,-1
247,248,1580694559328,-0.57989997,-0.5488,-6.0062,-0.41252097,0.52025044,3.4281616,-1
248,249,1580694559338,-0.5083,-0.478,-6.3876995999999995,-0.11972924,0.76891226,3.3028873999999995,-1
249,250,1580694559348,-0.17099999,-0.3073,-6.4761,-0.032609027,0.9827241,3.1053467,-1
250,251,1580694559358,-0.1047,-0.23369999,-6.7032,-0.5487893,0.8148426,2.8704946,-1
251,252,1580694559368,-0.6558,-0.5243,-6.8434,-1.4559524,0.41105568,3.3050517999999998,-1
252,253,1580694559379,-1.5336,-0.9659,-6.2883997,-2.3737934,0.072860345,3.9189154999999998,-1
253,254,1580694559389,-2.3509,-1.3227999,-5.7144,-2.964309,-0.1914691,4.422723,-1
254,255,1580694559399,-2.8105,-1.5754,-5.179199700000001,-3.0005188,-0.24685177,5.229214,-1
255,256,1580694559409,-2.7849,-1.6379,-4.4765997,-2.8146524,-0.21954829999999997,5.4525266,-1
256,257,1580694559419,-2.5233998,-1.6758,-4.2834,-2.0511603,-0.29169995,5.096403,-1
257,258,1580694559429,-1.8327999,-1.7821,-4.5997,-1.4106348999999998,-0.053381122999999996,5.147983999999999,-1
258,259,1580694559439,-1.176,-1.5741,-4.5443997000000005,-1.1875911,0.05690539,5.451396,-1
259,260,1580694559449,-0.9253,-1.5164,-4.138099700000001,-1.4496796,0.10586202,6.1379957,-1
260,261,1580694559459,-1.1363,-1.4656999,-3.5470998,-1.7434481,0.15398547,6.6704564,-1
261,262,1580694559469,-1.4480000000000002,-1.4103999,-2.9076998,-2.0988338,0.08162312,7.0087194,-1
262,263,1580694559479,-1.7795,-1.5443,-2.6799998,-2.501663,-0.1336635,6.9446306,-1
263,264,1580694559489,-2.1594,-1.7615999,-2.7459,-2.8304348,-0.3537864,6.8118296,-1
264,265,1580694559499,-2.4378998,-1.9794999,-2.8903,-2.756205,-0.47735593,6.782448,-1
265,266,1580694559509,-2.3155,-2.0648,-2.8885999,-2.559009,-0.30113313,7.021408,-1
266,267,1580694559519,-2.1035,-1.8959999,-2.6527998,-2.3513741,-0.06717172,7.444176,-1
267,268,1580694559530,-1.8805,-1.6496998999999999,-2.2322,-2.1758313,0.17506403,8.11848,-1
268,269,1580694559540,-1.6883999,-1.4061999,-1.5576999,-2.1907808999999996,0.37085226,8.683425,-1
269,270,1580694559550,-1.7178999,-1.1765,-0.7291,-2.248596,0.35846946,8.95328,-1
270,271,1580694559560,-1.7656,-1.3016,-0.7308,-2.3243867999999996,0.21268173,8.948272,-1
271,272,1580694559570,-1.8307999,-1.3209,-0.71239996,-2.415625,0.17621323,8.972041,-1
272,273,1580694559580,-1.8307999,-1.3209,-0.71239996,-2.2221352999999997,0.29525295,9.18432,-1
273,274,1580694559591,-1.6106,-1.1879,-0.49749997,-1.7131470000000002,0.54153967,9.474565,-1
274,275,1580694559601,-0.6105,-0.6576,0.031,-1.2358198,0.8138658000000001,9.714234,-1
275,276,1580694559611,-0.3487,-0.45369998,0.17819999,-0.95521945,1.050183,9.881521000000001,-1
276,277,1580694559621,-0.3888,-0.3216,0.1593,-1.05229,1.1930020000000001,9.811305,-1
277,278,1580694559631,-0.6333,-0.2529,-0.123399995,-1.2573292999999999,1.2444198,9.558008000000001,-1
278,279,1580694559641,-0.85899997,-0.4046,-0.40559998,-1.5289851,1.0684844,9.24951,-1
279,280,1580694559652,-1.0783,-0.3913,-0.3739,-1.7384106,1.1593491000000002,9.316854,-1
280,281,1580694559664,-1.2188,-0.3081,-0.41099998,-1.8666441000000003,1.1887691,9.241513000000001,-1
281,282,1580694559674,-1.2166,-0.38869998,-0.3796,-1.8320622,1.1391325,9.333039,-1
282,283,1580694559684,-1.1721,-0.3678,-0.3387,-1.7161925,1.242198,9.248495,-1
283,284,1580694559694,-0.8821,-0.2511,-0.6602,-1.3367977,1.3382247999999999,8.856497000000001,-1
284,285,1580694559704,-0.41689998,-0.14999999,-0.98249996,-0.70498705,1.5616037,8.521289,-1
285,286,1580694559714,0.15179999,0.0683,-1.2657,-0.27860847,1.7746206999999998,8.310667,d
286,287,1580694559724,0.5807,0.3301,-1.3634,0.050642155,1.9750249,8.421279,-1
287,288,1580694559735,0.6926,0.4719,-0.884,0.086976565,2.104379,9.069074,-1
288,289,1580694559745,0.6428,0.5904,-0.2882,0.021461625,2.1826117000000003,9.62921,-1
289,290,1580694559755,0.6001,0.6497,0.032899998,-7.661445e-05,2.2193099999999997,9.741519,-1
290,291,1580694559765,0.5365,0.62619996,0.011399999,-0.14559619,2.08738,9.535761,-1
291,292,1580694559775,0.385,0.45049998,-0.2738,-0.20477128,1.8746406999999998,9.174207000000001,-1
292,293,1580694559785,0.3624,0.3206,-0.6861,-0.061454367,1.8788066000000003,8.735992,-1
293,294,1580694559795,0.6177,0.36859998,-1.0199,0.31037474,2.006973,8.642617999999999,-1
294,295,1580694559806,0.9438,0.522,-0.982,0.5977076,2.1454918,8.843271000000001,-1
295,296,1580694559816,1.2573,0.66069996,-0.7583,0.9238171000000001,2.3251529,9.096377,-1
296,297,1580694559826,1.6147,0.8879,-0.47700000000000004,1.3180176000000001,2.482452,9.391505,-1
297,298,1580694559836,1.9756,1.0803,-0.2059,1.6226558999999998,2.6660109,9.583894,-1
298,299,1580694559846,2.2682,1.2336999,-0.1015,1.8615876,2.704538,9.566474000000001,-1
299,300,1580694559856,2.5177999,1.2658,-0.183,2.2367779999999997,2.7354617,9.420964,-1
300,301,1580694559866,2.8499,1.3124,-0.2935,2.4669375,2.7981896,9.29611,-1
301,302,1580694559876,3.0786,1.3649,-0.46249998,2.6373088,2.7683005,9.250927,-1
302,303,1580694559886,3.2164,1.3669,-0.3667,2.7492332000000004,2.7785764,9.573025,-1
303,304,1580694559896,3.2856,1.4201,0.0033999997999999997,2.7093458,2.8100169999999998,9.821456,-1
304,305,1580694559906,3.1757998,1.4570999,0.0989,2.7612807999999998,2.8071153,9.734200999999999,-1
305,306,1580694559916,3.3581998,1.4886999,0.047199998,3.1732366,3.0020130000000003,9.90373,-1
306,307,1580694559927,3.8177,1.7328,0.23009999,3.6351163,3.1252568,10.028917999999999,-1
307,308,1580694559937,4.3959,1.875,0.3928,4.290275599999999,3.1948898,10.375196,-1
308,309,1580694559947,4.9452,1.944,0.76089996,4.7050467000000005,3.081395,10.925279,-1
309,310,1580694559957,5.3062,1.8311,1.2952,4.7986984,2.7629185,11.356339,-1
310,311,1580694559967,5.3785,1.5206,1.7218,4.853047,2.4067857000000004,11.980222,-1
311,312,1580694559977,5.4426,1.2444998999999999,2.3741999,4.867192,2.2603562000000004,12.478110000000001,-1
312,313,1580694559987,5.3827,1.1586,2.7917,4.6046057000000005,2.0826395,12.644909,-1
313,314,1580694559998,5.0882998,0.9791,2.9255,4.166294000000001,1.8526044999999998,12.790266,-1
314,315,1580694560008,4.611799700000001,0.77919996,3.0989999999999998,3.7329626000000005,1.6633476000000003,13.089915,-1
315,316,1580694560018,4.1823,0.6222,3.3902997999999998,3.3439913,1.4333989999999999,13.323063000000001,-1
316,317,1580694560028,3.7006,0.2728,3.7405,2.8015609,0.85136855,13.910532,-1
317,318,1580694560038,3.3616998,-0.0928,4.1496997,2.6221871,0.53003794,14.254416,-1
318,319,1580694560049,3.1685,-0.41959998,4.6071,2.2871714,0.20836258,14.968942000000002,-1
319,320,1580694560059,2.7704,-0.74329996,5.3616,1.5922973,-0.37020105,15.582547,-1
320,321,1580694560069,2.0493,-1.3312,5.881,0.5715150999999999,-0.9896959000000001,15.782587,-1
321,322,1580694560079,1.0311999,-1.8558999,6.0681996,-0.53268117,-1.2086408000000002,16.30234,-1
322,323,1580694560089,0.1784,-2.0158,6.5504,-1.2027991000000002,-1.2231785,16.506517000000002,-1
323,324,1580694560099,-0.6568,-2.0468,6.7587,-2.0650275000000002,-1.2869409,16.409754,-1
324,325,1580694560109,-1.4971,-2.1838999,6.6348,-2.7931907000000002,-1.5826056,16.39079,-1
325,326,1580694560119,-2.2203,-2.5881,6.6299,-3.7359412000000005,-2.2281303,16.203459,-1
326,327,1580694560129,-3.2321,-3.3339,6.401,-4.7142215,-2.8769495,16.09186,-1
327,328,1580694560139,-4.124399700000001,-4.0072,6.3993998,-5.4414267999999995,-3.2685642,16.24371,-1
328,329,1580694560149,-4.8546,-4.4378,6.5273,-6.6498857000000005,-3.738814,15.945584,-1
329,330,1580694560160,-5.8139,-4.9149,6.236399700000001,-7.411874000000001,-4.125267,15.629875,-1
330,331,1580694560170,-6.6783,-5.4831,5.8506,-8.258617,-4.5663557,14.915867,-1
331,332,1580694560180,-7.7552996,-6.1095,4.1679997,-8.744861,-4.6138473,13.81531,-1
332,333,1580694560191,-7.7552996,-6.1095,4.1679997,-9.158789,-4.589024,12.794450999999999,-1
333,334,1580694560201,-8.6501,-6.3705997000000005,2.4824,-9.714751,-4.572475,12.068816,-1
334,335,1580694560211,-8.6501,-6.3705997000000005,2.4824,-10.098272999999999,-4.549337400000001,11.345298,-1
335,336,1580694560221,-9.0827,-6.6066,0.8519,-10.230155,-4.4758353,10.366663,-1
336,337,1580694560231,-9.0337,-6.450599700000001,0.0034999999,-10.211519000000001,-4.157646,9.473856,-1
337,338,1580694560241,-8.767000000000001,-6.1689,-1.0859,-9.987153999999999,-3.5968093999999997,8.096950999999999,-1
338,339,1580694560251,-8.692699000000001,-5.8648,-2.0839,-9.966994999999999,-3.2323446,7.2818975,-1
339,340,1580694560262,-8.3554,-5.7791,-2.4729,-9.669069,-2.991555,6.8444386,-1
340,341,1580694560272,-8.0251,-5.6191,-2.7240999,-9.291513,-2.626966,6.456702,-1
341,342,1580694560282,-7.4989996,-5.5571,-3.0523,-8.742658,-2.420375,6.095733,-1
342,343,1580694560292,-7.0519,-5.3991,-3.3391,-8.389742,-2.0794694,5.7131114,-1
343,344,1580694560302,-6.8887,-5.2348,-3.8386998,-8.260829,-1.7936306,5.105185,-1
344,345,1580694560312,-6.6756997,-5.2609,-4.7174,-8.027652999999999,-1.6347705,3.8276772000000006,-1
345,346,1580694560323,-6.5267,-5.3662,-5.9265,-7.8033543000000005,-1.6351823,2.6040967,-1
346,347,1580694560333,-6.276799700000001,-5.5341997,-6.7338,-7.5676309999999996,-1.5827492,2.0345254,-1
347,348,1580694560343,-6.0270996,-5.4448,-6.8387,-7.199441,-1.2853702,2.050107,-1
348,349,1580694560353,-5.5536,-5.2743998,-6.6247,-6.619403,-0.9686653000000001,2.1862892999999994,-1
349,350,1580694560363,-4.9632998,-5.0863,-6.639199700000001,-5.9635253,-0.70916253,1.9409602,-1
350,351,1580694560373,-4.322,-5.0599,-7.0372996,-5.2116885,-0.5837351,1.4100219999999999,-1
351,352,1580694560384,-3.6095998,-5.0274,-7.6432996,-4.5017505,-0.41583455,0.68573767,-1
352,353,1580694560394,-3.0418,-4.9163,-8.214,-3.7604384,-0.093345135,0.26149473,-1
353,354,1580694560404,-2.5051,-4.7332,-8.2519,-3.0588702999999997,0.16161819,0.30891907,-1
354,355,1580694560414,-1.8375,-4.605,-8.1993,-2.1790013,0.32874304,0.338837,-1
355,356,1580694560425,-1.0016999,-4.495,-8.0353,-1.3965092,0.49555188,0.60605866,-1
356,357,1580694560435,-0.13669999,-4.3245,-7.5733,-0.19079871,0.73343974,1.0749007,-1
357,358,1580694560445,0.6555,-4.1918,-7.273,0.7022385,0.92081,1.2367008999999998,-1
358,359,1580694560455,1.3643,-3.9685,-7.1636996,1.5402378,1.2024161,1.2266933,-1
359,360,1580694560466,2.0547,-3.7605998999999994,-7.295099700000001,2.452438,1.3363477,0.9249184000000001,-1
360,361,1580694560476,2.8657,-3.7048997999999997,-7.6187997,3.2840977,1.4057412,0.73542213,-1
361,362,1580694560486,3.8781,-3.4873998,-7.5856,4.815257,1.8045769,1.1829463,-1
362,363,1580694560496,5.0442,-2.9896,-6.9602,6.091318,2.2861369,1.9225823,-1
363,364,1580694560506,6.0901,-2.5077999,-6.2503,7.233965400000001,2.6172167999999996,2.5310256,-1
364,365,1580694560516,7.0003996,-2.2317,-5.8062997,8.426269,2.6895982999999997,2.7287292,-1
365,366,1580694560527,7.746299700000001,-2.1905,-5.766,8.955952,2.6000072999999997,2.6997786,-1
366,367,1580694560537,8.338799,-2.2412999,-5.8494,9.572967,2.7995112,2.626219,-1
367,368,1580694560547,8.4082,-1.7615999,-5.8831997000000005,9.9625025,3.290428,3.2820961000000004,-1
368,369,1580694560557,8.7727995,-1.2103,-5.0439997000000005,10.571273,3.5896169999999996,4.493964,-1
369,370,1580694560567,9.4867,-0.7112,-3.5022,11.590742,3.9656887000000003,6.0528580000000005,-1
370,371,1580694560578,10.550799000000001,-0.19139999,-2.1987997999999997,13.251973999999999,4.288628,6.9221735,-1
371,372,1580694560588,12.125299,0.2306,-1.6093998999999999,15.220370999999998,4.3917704,7.0992293,-1
372,373,1580694560598,13.5259,0.28059998,-1.6875,16.411351999999997,3.9067528,6.7510166,-1
373,374,1580694560609,14.280299,-0.0231,-2.0008,16.157213,4.076904,7.210128999999999,-1
374,375,1580694560619,13.9168,0.2817,-1.5669999,15.962708,4.55652,8.439705,-1
375,376,1580694560629,13.607999999999999,1.0539,-0.0349,15.996466,5.085858999999999,9.923133,-1
376,377,1580694560639,13.6022,1.6359999,1.2674999,15.850151,5.167377,11.056442,-1
377,378,1580694560649,13.3867,1.8062999,2.1608,15.636320000000001,4.7613389999999995,11.339466,-1
378,379,1580694560659,13.1061,1.5229,2.4264997999999998,15.585028,4.3320303,10.573389,-1
379,380,1580694560670,12.9944,1.0436,1.3603,15.496748,3.6333926,9.180882,-1
380,381,1580694560681,12.7506,0.3238,-0.073,15.435198000000002,3.3524665999999996,8.87497,-1
381,382,1580694560691,12.7506,0.3238,-0.073,15.125685999999998,3.2698283,8.872596000000001,-1
382,383,1580694560701,10.981,0.19389999,0.019399998999999998,13.717463500000001,3.1003857000000004,8.994739,-1
383,384,1580694560711,9.543,-0.103599995,-0.1192,11.952036999999999,2.6220818,8.790828999999999,-1
384,385,1580694560721,8.0357,-0.593,-0.6691,10.701391000000001,2.1556337,8.377130000000001,-1
385,386,1580694560731,6.7549996,-1.319,-1.0833,9.123671,1.1793933,7.945627,-1
386,387,1580694560742,5.6966,-1.9869999999999999,-1.3521999,8.071276,0.51357543,7.721530400000001,-1
387,388,1580694560752,5.0046,-2.4678,-1.7745999,7.4516177,-0.018933348,7.202514999999999,-1
388,389,1580694560762,4.6598,-2.8996,-2.8806,7.140113,-0.45241794,5.9665230000000005,-1
389,390,1580694560772,4.3784,-3.0400999,-4.4104,6.782505499999999,-0.5338590999999999,4.2448239999999995,-1
390,391,1580694560782,3.964,-3.0995998,-5.2724,6.417351200000001,-0.6825678000000001,3.8481812000000004,-1
391,392,1580694560792,2.9336998,-3.5256,-5.0505,5.1787252,-1.1884243,4.264629,-1
392,393,1580694560803,2.9336998,-3.5256,-5.0505,3.232536,-1.7580241,5.0368447,-1
393,394,1580694560813,-0.7811,-4.6163,-3.7961998,1.5047365,-2.4577055,5.4320316,-1
394,395,1580694560823,-2.1769,-5.2974997,-3.5228,0.38818628,-3.0826402,5.6878667,-1
395,396,1580694560833,-3.2773,-5.8125,-3.2505999,-1.0512844,-3.9133706,6.0007315000000006,-1
396,397,1580694560843,-3.7479,-6.1232,-3.3937,-1.2373139,-4.1417007,5.818408,-1
397,398,1580694560853,-3.5198,-5.8216996,-3.6741998,-0.75631875,-3.5480442,5.581468,-1
398,399,1580694560864,-2.7914,-4.7915998,-3.6938998999999995,0.12672988,-2.6491077,5.71405,-1
399,400,1580694560874,-2.3388,-4.0497,-3.2789,0.093469635,-2.200731,6.237298,-1
400,401,1580694560884,-3.2424,-3.6615,-2.7214,-1.2371415000000001,-2.1651149,6.8674607000000005,-1
401,402,1580694560894,-5.3086,-4.2606997,-1.9801999,-3.5963974000000003,-3.3542671000000004,7.539590400000001,-1
402,403,1580694560904,-8.0615,-5.8817,-1.5727999,-6.31577,-5.205464,7.823236,-1
403,404,1580694560914,-11.047999,-7.7077,-1.0977,-9.381555,-7.058768,8.436727000000001,-1
404,405,1580694560925,-14.3904,-9.3419,-0.54179996,-12.373837,-8.6808,8.682496,-1
405,406,1580694560935,-16.4375,-10.493,-0.6357,-13.673745000000002,-9.637955,8.480656,-1
406,407,1580694560945,-17.0088,-10.7032995,-0.7822,-13.365928,-9.386286,8.94196,-1
407,408,1580694560955,-16.0355,-9.738299000000001,0.3676,-12.262192,-8.51404,10.488682,-1
408,409,1580694560965,-14.3743,-8.180099499999999,2.6513,-10.438758,-7.208289999999999,12.875931,-1
409,410,1580694560975,-12.358299,-6.6791,4.8356,-8.58734,-6.237833999999999,14.900352499999999,-1
410,411,1580694560985,-11.0412,-5.8364997,6.5541,-7.847427400000001,-5.983608,16.55688,-1
411,412,1580694560996,-11.1493,-5.6561,7.5039997000000005,-8.526537,-6.4507265,16.709326,-1
412,413,1580694561006,-11.965099,-6.1456,7.0829997,-9.02138,-6.9669356,16.158497,-1
413,414,1580694561016,-12.879499000000001,-6.5973,5.9523997,-10.177703,-7.74303,14.7335825,-1
414,415,1580694561026,-13.524099,-6.8160996,5.5105,-10.305325,-7.993933,15.230552,-1
415,416,1580694561037,-13.189098999999999,-6.7939997000000005,6.648699799999999,-9.210561,-7.9328710000000004,17.052378,-1
416,417,1580694561047,-11.6181,-6.2566,8.7977,-7.0399394,-7.453428,19.442823,-1
417,418,1580694561057,-9.1234,-5.4019,11.2712,-4.5336123,-6.740875,21.64776,-1
418,419,1580694561069,-6.572,-4.3922,13.0967,-1.8303002,-5.9052215,22.440851000000002,-1
419,420,1580694561079,-4.4203,-3.4592998,13.2401,-0.49076346,-5.5876455,21.082507999999997,-1
420,421,1580694561089,-3.2961,-3.0684,12.022699000000001,-0.09498277,-5.718100499999999,20.260347,-1
421,422,1580694561099,-2.0586,-2.9884,11.4037,0.54094595,-5.8412489999999995,20.433954,-1
422,423,1580694561110,-0.9737,-2.9438999,13.117398999999999,1.5078683000000002,-5.946258,22.134949,-1
423,424,1580694561121,-0.9737,-2.9438999,13.117398999999999,2.3088627,-6.1471415,24.051165,-1
424,425,1580694561131,0.895,-3.0108,15.596399,3.4130397000000006,-6.261029,24.46989,-1
425,426,1580694561141,2.5544,-2.9019999999999997,14.4255,5.0107,-6.2010207,23.113825,-1
426,427,1580694561151,4.2841,-2.7463999,13.1147995,6.690759,-6.0566406,21.951267,-1
427,428,1580694561161,6.5600996,-2.3534,12.788799000000001,8.879261,-5.593813,21.918936,-1
428,429,1580694561171,8.8049,-1.4735,13.5782995,10.888389,-4.6463220000000005,22.842897,-1
429,430,1580694561181,10.419499,-0.6279,14.4807,12.260076,-3.8860672,23.662020000000002,-1
430,431,1580694561191,11.3313,-0.29569998,14.471399,12.921688,-3.5535123,23.430357,-1
431,432,1580694561201,11.5905,-0.3168,13.0854,13.037606,-3.5034547,22.264246,-1
432,433,1580694561211,11.444099000000001,-0.8178,11.000999,12.8655205,-3.8300905,20.238274,-1
433,434,1580694561221,11.0786,-1.1281999,9.0282,12.492006,-3.9160711999999998,18.333551,-1
434,435,1580694561231,11.1248,-1.212,7.4080997,12.538856,-3.749109,16.797527,-1
435,436,1580694561242,11.3004,-1.1847,6.1145997,12.768824,-3.3881974,15.324893,-1
436,437,1580694561252,11.4451,-1.0611,4.845,12.843858,-2.9557474,14.109260999999998,-1
437,438,1580694561262,11.353499000000001,-0.8993,3.4139998,12.690332000000001,-2.5197727999999997,12.670469,-1
438,439,1580694561273,11.172299,-0.8754,1.6854,12.475975,-2.2265406000000003,10.949537,-1
439,440,1580694561283,10.782599000000001,-0.9166,-0.1725,12.011068,-1.9538984000000001,9.147871,-1
440,441,1580694561293,10.1813,-1.0073,-1.8446,11.331853,-1.7481216,7.5818048,-1
441,442,1580694561303,9.4705,-1.0914999,-3.1042,10.60367,-1.5254893999999999,6.4434,-1
442,443,1580694561313,8.9003,-1.0373,-3.912,9.979167,-1.0705049999999998,5.546101,-1
443,444,1580694561323,8.477799000000001,-0.8526,-4.6415,9.59348,-0.69389707,4.9280043,-1
444,445,1580694561334,8.0096,-0.8599,-5.5295,9.063557000000001,-0.45251369999999996,3.7912470999999996,-1
445,446,1580694561344,7.7039,-0.9465,-6.5386,8.85303,-0.23394223,2.916712,-1
446,447,1580694561354,7.6608,-0.8283,-6.8964,8.942794000000001,0.17569609,2.9410086,-1
447,448,1580694561364,7.9133,-0.51809996,-6.419699700000001,9.154422,0.6701562,3.4678767,-1
448,449,1580694561374,7.9772,-0.2645,-6.1404,9.108817,0.98085654,3.5335449999999997,-1
449,450,1580694561384,7.8515,-0.1704,-6.08,8.832899000000001,1.1633809,3.6392824999999998,-1
450,451,1580694561395,7.4241996,-0.14899999,-5.8561997,8.355476,1.1443996,4.076636,-1
451,452,1580694561405,7.022599700000001,-0.4296,-5.0074997,7.94172,0.96986234,4.8768353,-1
452,453,1580694561415,6.2085,-0.8134,-3.7189,6.4444246,0.34591427,6.801792999999999,-1
453,454,1580694561425,4.9663,-1.4884,-2.2824,5.645039,-0.059098475,7.607231,-1
454,455,1580694561435,3.5784998,-1.9993999,-1.4592999,3.8999437999999995,-0.4217913,8.230967999999999,-1
455,456,1580694561446,2.1683,-2.0433,-1.6101999,2.9103722999999997,-0.27627173,7.844917999999999,-1
456,457,1580694561456,1.5945,-1.8993,-2.6474,2.524906,-0.04126646,6.461299400000001,-1
457,458,1580694561466,1.6134,-1.9315,-3.6239998,2.635767,0.035999216,5.8769035,-1
458,459,1580694561476,1.6903,-2.0011,-3.4866998,2.531964,-0.033001676,6.6762605,-1
459,460,1580694561486,1.4562,-2.1178,-2.7203,1.6284115,-0.25041434,7.441045,-1
460,461,1580694561496,0.4684,-2.3934,-1.943,0.32795775,-0.5216104,8.208903,-1
461,462,1580694561507,-0.84489995,-2.6798,-1.1917,-0.6659903,-0.7156651999999999,8.647636,-1
462,463,1580694561517,-2.3711,-3.0881998999999998,-0.62839997,-2.5514433,-1.2601737,9.001997,-1
463,464,1580694561527,-3.8771,-3.5756997999999998,-0.63019997,-4.204821,-1.6827216,8.529707,-1
464,465,1580694561537,-5.0049,-3.8862997999999997,-1.1059999999999999,-4.5615864,-1.808398,8.293696,-1
465,466,1580694561547,-5.1710997,-4.0855,-1.4581,-4.1612279999999995,-1.7444153999999998,7.672037599999999,-1
466,467,1580694561557,-4.6449,-3.9464998,-1.9647,-3.6739025,-1.4862821000000002,7.173153,-1
467,468,1580694561567,-4.2461,-3.8184998,-2.3953,-3.8679477999999996,-1.6384096000000001,7.104238499999999,-1
468,469,1580694561577,-4.7541,-4.111000000000001,-2.2536,-4.852587000000001,-1.9134653000000001,7.6106405,-1
469,470,1580694561587,-5.7879,-4.3719,-1.6085,-5.957243,-2.0870830000000002,8.33525,-1
470,471,1580694561597,-6.7152,-4.4746,-0.9464,-6.7041383,-2.0817103,8.897447999999999,-1
471,472,1580694561607,-7.0551996,-4.3649,-0.5571,-6.4812574,-1.6348472,9.205667,-1
472,473,1580694561617,-6.4607,-3.6898,-0.1731,-5.5333357,-0.84546924,9.328078,-1
473,474,1580694561627,-5.4504,-2.9438,-0.37219998,-4.604356299999999,-0.12313858,8.34454,-1
474,475,1580694561638,-4.7799,-2.4751,-1.4209,-4.0918727,0.1364695,7.380864,-1
475,476,1580694561648,-4.1863,-2.2503,-2.4799,-3.5788144999999996,0.35867056,6.667717999999999,-1
476,477,1580694561658,-3.7556,-2.1478,-2.8272,-3.016723,0.4895568,7.0085273,-1
477,478,1580694561668,-3.1015,-2.0068,-2.3264,-2.3762738999999997,0.7619499,7.949400999999999,-1
478,479,1580694561680,-2.563,-1.7522999,-1.5353,-2.2315395000000002,0.9518197,8.513246,-1
479,480,1580694561690,-2.3776,-1.5494,-0.98139995,-2.2502142999999997,0.9779356,8.632303,-1
480,481,1580694561700,-2.8054,-1.1673,0.2065,-2.725952,1.3082206,9.703154,-1
481,482,1580694561710,-2.6921,-0.983,-0.0185,-2.5831232,1.5245798000000002,9.378528999999999,-1
482,483,1580694561720,-2.2963998,-0.81369996,-0.60249996,-2.1239060000000003,1.7364475,8.754772,-1
483,484,1580694561731,-2.2963998,-0.81369996,-0.60249996,-1.4907162,1.907968,8.192575,-1
484,485,1580694561741,-0.98069996,-0.4985,-1.4627,-0.6758927,2.1229866000000004,8.025153,-1
485,486,1580694561751,-0.3709,-0.2279,-1.3608999,-0.24295402,2.3815603,8.145744,-1
486,487,1580694561761,-0.2217,-0.025799999,-1.2227,-0.16716316,2.5325866,8.259661,-1
487,488,1580694561771,-0.4298,0.024999999,-1.0566,-0.39036024,2.5768313,8.423281,-1
488,489,1580694561781,-0.7029,-0.0133,-0.95879996,-0.7043550000000001,2.5414833999999997,8.560842,-1
489,490,1580694561792,-0.65669996,0.0128999995,-0.71279997,-0.57806563,2.6148992,8.831128,-1
490,491,1580694561802,-0.65669996,0.0128999995,-0.71279997,-0.28593472,2.7367353,9.173364999999999,d
491,492,1580694561812,-0.32639998,0.14649999,-0.1303,-0.27996838,2.7180316,9.3508415,-1
492,493,1580694561822,-0.29729998,0.110999994,-0.21689999,-0.10021171,2.6922991,9.099729,-1
493,494,1580694561833,0.0315,0.12789999,-0.68689996,0.18537825,2.7207038,8.681011999999999,-1
494,495,1580694561843,0.2243,0.13949999,-1.1582,0.28521645,2.6954403,8.216689,-1
495,496,1580694561853,0.24219999,0.1061,-1.3069998999999999,0.29478368,2.6351638,8.20288,-1
496,497,1580694561863,0.2529,-0.012499999,-1.1329,0.28215188,2.4923162,8.495536999999999,-1
497,498,1580694561873,0.1651,-0.1303,-0.7334,0.119384475,2.3955138,8.886481,-1
498,499,1580694561883,-0.0398,-0.1506,-0.3926,0.008465897,2.3869905,9.090219,-1
499,500,1580694561893,-0.11409999400000001,-0.23179999,-0.0806,-0.13110650000000001,2.264704,9.510391,-1
500,501,1580694561904,-0.27179998,-0.2872,0.0852,-0.21699129,2.2602031000000005,9.57901,-1
501,502,1580694561914,-0.29369998,-0.20979999,-0.041699997999999995,-0.21052694,2.3324215,9.316958999999999,-1
502,503,1580694561924,-0.3033,-0.18349999,-0.37399998,-0.19041565,2.3523512,9.045725,-1
503,504,1580694561934,-0.18899999999999997,-0.1933,-0.6681,-0.06742072,2.3426017999999997,8.815049,-1
504,505,1580694561944,0.0317,-0.1563,-0.79749995,0.29100084,2.411411,8.704024,-1
505,506,1580694561954,0.2777,-0.062099997000000004,-0.72319996,0.48479712,2.4752886000000003,8.8363,-1
506,507,1580694561966,0.4084,0.018199998999999998,-0.50339997,0.54673034,2.5217934,9.210963000000001,-1
507,508,1580694561976,0.3725,0.0634,-0.1374,0.43687478,2.5361397,9.599227,-1
508,509,1580694561986,0.20699999,0.0698,0.2382,0.26431987,2.4741009999999997,9.877958999999999,-1
509,510,1580694561996,-0.021499999,0.0233,0.5366,-0.045058876,2.4047937000000004,10.169649,-1
510,511,1580694562006,-0.2765,-0.0111,0.6507,-0.27083209999999996,2.3550612999999996,10.033448,-1
511,512,1580694562016,-0.479,-0.035299998,0.33589998,-0.3624438,2.3406672000000004,9.566024,-1
512,513,1580694562026,-0.5259,-0.0648,-0.1148,-0.32006648,2.3444693,9.263176,-1
513,514,1580694562037,-0.4421,-0.033299997000000005,-0.2818,-0.12619358,2.4177032000000005,9.275329,-1
514,515,1580694562047,-0.214,0.1135,-0.1565,0.12166376,2.595104,9.500681,-1
515,516,1580694562057,0.0213,0.28759998,0.084199995,0.34754232,2.6742275,9.79853,-1
516,517,1580694562067,0.16229999,0.33799999999999997,0.2947,0.42115924,2.7140767999999995,9.926016,-1
517,518,1580694562077,0.21509999,0.37759998,0.4271,0.35777995,2.6711054,9.961851,-1
518,519,1580694562087,0.1184,0.3452,0.4034,0.08449617,2.5693900000000003,9.756267,-1
519,520,1580694562097,-0.175,0.25079998,0.155,-0.17597383,2.5262084,9.562614,-1
520,521,1580694562107,-0.4574,0.2059,-0.024799999,-0.31610164,2.496434,9.589831,-1
521,522,1580694562117,-0.46589997,0.243,0.13759999,-0.26943386,2.5655308,9.915797,-1
522,523,1580694562127,-0.4574,0.3234,0.5248,-0.30696538,2.6005627999999996,10.583472,-1
523,524,1580694562137,-0.4615,0.38639998,1.1273999,-0.10297939999999998,2.684695,11.000524,-1
524,525,1580694562147,-0.1546,0.5559,1.5833,0.27825412,2.913801,11.364958999999999,-1
525,526,1580694562158,0.18239999,0.7908,1.9124,0.46083593,3.0756395,11.659972,-1
526,527,1580694562168,0.248,0.9342,2.0658,0.40108624,3.0788860000000002,11.559991,-1
527,528,1580694562178,0.1911,0.92679995,1.9943999,0.46744394,3.0435667,11.748415,-1
528,529,1580694562189,0.28399998,0.88019997,2.2268999,0.5292814,2.9370055,12.053024,-1
529,530,1580694562199,0.3256,0.78639996,2.5276,0.27472028,2.7716715,12.311531,-1
530,531,1580694562209,0.1038,0.6634,2.7201,-0.12100295,2.5230097999999996,12.295605,-1
531,532,1580694562219,-0.23519999,0.41939998,2.6976,-0.53587025,2.2654896,12.13074,-1
532,533,1580694562229,-0.7299,0.1178,2.4907,-0.93606585,2.0394384999999997,11.923584,-1
533,534,1580694562239,-1.036,-0.0963,2.3256,-1.1196915,2.0283008000000002,11.823966,-1
534,535,1580694562249,-1.2207999,-0.0264,1.9634,-1.181912,2.1262522,11.548144,-1
535,536,1580694562260,-1.3981,-0.1264,1.5095999,-1.3751625,2.0671823000000003,11.087117,-1
536,537,1580694562270,-1.7211,-0.2223,1.1136999,-1.7176481,1.9912575000000001,10.68467,-1
537,538,1580694562280,-1.7211,-0.2223,1.1136999,-1.9541475,2.0040042000000002,10.350853,-1
538,539,1580694562290,-1.9843998999999999,-0.23339999,0.7066,-2.0712335,1.8881729,9.913708999999999,-1
539,540,1580694562300,-2.0061,-0.35689998,0.3574,-2.0353205,1.785816,9.635714,-1
540,541,1580694562310,-1.9387,-0.4763,0.0858,-1.9552773999999997,1.6186624,9.485750999999999,-1
541,542,1580694562320,-1.7576,-0.853,0.0116,-1.9310098999999998,1.4183728999999998,9.560584,-1
542,543,1580694562330,-2.1423,-0.9975,0.308,-2.3430326,1.2912695,9.860846,-1
543,544,1580694562340,-2.1423,-0.9975,0.308,-2.6736627,1.350617,10.239953,-1
544,545,1580694562350,-2.4556,-0.83769995,0.76809996,-2.6640666,1.5084332,10.277944999999999,-1
545,546,1580694562361,-2.4556,-0.83769995,0.76809996,-2.6830862,1.5411858999999999,9.988045,-1
546,547,1580694562371,-2.4313998,-0.93719995,-0.0879,-2.6185482,1.4547648000000002,9.437857000000001,-1
547,548,1580694562381,-2.2687,-0.92969996,-0.50159997,-2.4460123,1.4936658,9.018889999999999,-1
548,549,1580694562391,-2.0549,-0.8903,-0.4475,-2.2480404,1.5261886999999998,9.134818,-1
549,550,1580694562401,-2.0762,-1.0636,0.0154,-2.2794333,1.3846147,9.523598,-1
550,551,1580694562411,-2.0762,-1.0636,0.0154,-2.4153185,1.3037098999999999,9.851594,-1
551,552,1580694562421,-2.2131,-1.1158,0.6055,-2.4554646,1.3512586000000002,10.161719,-1
552,553,1580694562432,-2.2219,-0.9481,0.75509995,-2.4838119,1.5061921999999999,10.265696,-1
553,554,1580694562442,-2.3964999,-0.82949996,0.54429996,-2.6898186,1.6759987,9.943149,-1
554,555,1580694562452,-2.5032,-0.7901,0.1398,-2.7444446,1.7182418999999998,9.577831,-1
555,556,1580694562462,-2.4185998,-0.87689996,-0.0468,-2.64679,1.6737002,9.438269,-1
556,557,1580694562472,-2.2192,-0.978,-0.0361,-2.3561148999999997,1.5989628,9.43145,-1
557,558,1580694562482,-1.9140999,-1.0088999,0.0234,-2.0015142,1.5946245000000001,9.500336,-1
558,559,1580694562494,-1.755,-1.1388,0.0933,-1.9712037,1.5503031,9.548277,-1
559,560,1580694562504,-1.9473,-1.0921,0.12879999,-2.0533151999999997,1.6323763,9.65548,-1
560,561,1580694562516,-1.9567,-1.0540999,0.2523,-2.0558531,1.7038767,9.716647,-1
561,562,1580694562526,-1.9591999,-1.0128,0.2573,-2.028856,1.7065679,9.609713000000001,-1
562,563,1580694562536,-1.8692,-1.1484,-0.011899999,-1.8189038,1.4427651000000001,9.1927,-1
563,564,1580694562548,-1.6721,-1.3449999,-0.261,-1.6095548000000002,1.381033,9.112762,-1
564,565,1580694562558,-1.3646,-1.4168,-0.32299998,-1.1174601,1.4383886000000001,9.137364999999999,-1
565,566,1580694562568,-0.9702,-1.3462,-0.2562,-0.80184686,1.6647842000000002,9.168183,-1
566,567,1580694562578,-0.7152,-1.1257,-0.23609999,-0.5676844,1.8945127,9.094069000000001,-1
567,568,1580694562588,-0.4601,-0.8742,-0.38009998,-0.23026474,2.2246919999999997,8.550978,-1
568,569,1580694562599,-0.1805,-0.70769995,-0.9726,0.18177737,2.3225767999999998,7.6971,-1
569,570,1580694562608,0.1541,-0.6477,-1.7809,0.5461078,2.2939517000000005,7.28705,-1
570,571,1580694562618,0.45069999,-0.7615,-2.0537,0.66007185,2.1902921,7.402239999999999,-1
571,572,1580694562628,0.5329,-0.86939996,-1.8901999,0.7904696,2.1613417,7.6522326000000005,-1
572,573,1580694562638,0.67399997,-0.8759999999999999,-1.6231999,0.97459334,2.3817232,7.932114599999999,-1
573,574,1580694562648,0.833,-0.5891,-1.3396,1.0104966999999998,2.6535130000000002,8.154422,-1
574,575,1580694562658,0.88769996,-0.37739998,-1.1651,1.0972531,2.653331,8.008336,-1
575,576,1580694562669,0.9589,-0.415,-1.3814,1.0360669,2.5757779999999997,7.762853999999999,-1
576,577,1580694562679,0.9104,-0.49049997,-1.6242,1.3658633,2.6158664000000003,7.479429,-1
577,578,1580694562689,1.2964,-0.4166,-1.8936,1.8226962,2.8881732999999996,7.442787599999999,-1
578,579,1580694562699,1.7041,-0.117699996,-1.839,2.2922277,3.2534327999999997,7.707930999999999,-1
579,580,1580694562709,2.0572,0.1686,-1.6103,2.540928,3.3577529999999998,7.70253,-1
580,581,1580694562719,2.286,0.26749998,-1.6100999,2.5456494999999997,3.3693697,7.512928,-1
581,582,1580694562730,2.2814,0.2854,-1.8088,2.4328822999999997,3.2393834999999997,7.334943300000001,-1
582,583,1580694562740,2.1855,0.1823,-1.9900999,2.1940274,3.1666092999999997,7.605181699999999,-1
583,584,1580694562750,1.9447,0.1261,-1.7229999,2.0033817,3.1185913,8.088599,-1
584,585,1580694562760,1.7629,0.10569999,-1.2518,1.8701396000000001,3.0088508,8.594714999999999,-1
585,586,1580694562770,1.6071999,0.0095999995,-0.62439996,1.8634168000000002,3.0826208999999998,9.276861,-1
586,587,1580694562780,1.7037,0.2154,0.0569,1.9701119999999999,3.1448605,9.426557,-1
587,588,1580694562791,1.7037,0.2154,0.0569,1.9988616000000001,3.0660147999999996,9.171783999999999,-1
588,589,1580694562801,1.7106999,0.14649999,-0.2003,2.3092268,3.2601175,8.614069,-1
589,590,1580694562812,2.3286998,0.36659998,-0.8768,2.6716322999999997,3.294144,8.488125,-1
590,591,1580694562822,2.3077,0.3155,-0.6234,2.6293123,3.2038154999999997,8.813181,-1
591,592,1580694562832,2.0865,0.23169999,-0.2742,2.4189866,3.093232,9.158808,-1
592,593,1580694562842,2.0865,0.23169999,-0.2742,2.2491324,2.9813557,9.349933,-1
593,594,1580694562852,1.5023999,0.0034999999,0.0289,1.8125543999999998,2.8571541000000003,9.418128999999999,-1
594,595,1580694562863,1.1563,0.040799998,-0.0056,1.5080023,2.887321,9.359078,-1
595,596,1580694562873,0.9849,-0.041899998,-0.15709999,1.3698568000000002,2.7562912,9.2190275,-1
596,597,1580694562883,0.9349,-0.0778,-0.1802,1.3727396,2.7428646,9.240986,-1
597,598,1580694562893,1.2508999,0.0813,0.0326,1.7849348000000003,2.9209737999999996,9.500067999999999,-1
598,599,1580694562903,1.6021,0.3279,0.2852,2.0713868000000004,3.1794808,9.721369000000001,-1
599,600,1580694562913,1.6402999,0.4252,0.3129,2.0978858,3.213938,9.68874,-1
600,601,1580694562923,1.6125,0.45119998,0.22369999,2.0821896,3.219148,9.606553,-1
601,602,1580694562934,1.5683,0.4271,0.2228,1.9833853,3.1418056,9.682266,-1
602,603,1580694562944,1.3014,0.306,0.37849998,1.7609258,3.0382993,9.809839,-1
603,604,1580694562954,1.1937,0.2051,0.47509998,1.7274261999999998,2.971463,9.891242,-1
604,605,1580694562964,1.2277,0.2135,0.3454,1.7222642,3.0064855,9.629518,-1
605,606,1580694562975,1.1116999,0.3026,0.0872,1.6450368000000002,3.0462673,9.487138999999999,-1
606,607,1580694562985,1.2328,0.355,0.083299994,1.960765,3.1411254,9.500967999999999,d
607,608,1580694562995,1.5561,0.4359,0.0209,2.2366824,3.113602,9.392377,-1
608,609,1580694563005,1.7856,0.3757,-0.0007,2.5266490000000004,3.1214454,9.623704,-1
609,610,1580694563015,2.1901,0.4904,0.3414,2.9886246,3.2791464,9.871974,-1
610,611,1580694563026,2.7761998,0.6784,0.528,3.5446824999999995,3.408922,9.951499,-1
611,612,1580694563036,3.1338,0.6878,0.45049998,3.8295448,3.3104436,9.803403,-1
612,613,1580694563046,3.2895,0.5798,0.3728,3.8850424,3.2809565000000003,9.788866,-1
613,614,1580694563057,3.2514,0.5629,0.38169998,3.7670943999999995,3.1077310000000002,9.904544,-1
614,615,1580694563067,3.1799998,0.3944,0.5065,3.7728405,2.9297847999999997,10.114257,-1
615,616,1580694563077,3.2424,0.24419999,0.7398,4.057693,2.9059002,10.273366000000001,-1
616,617,1580694563087,3.7154998999999997,0.19559999,0.8774,4.8765864,2.784993,10.404176,-1
617,618,1580694563098,4.4248,0.1118,0.99759996,5.4886975,2.8527105,10.493155,-1
618,619,1580694563108,5.2111998,0.24239999,1.1280999,6.614624000000001,3.1107287,10.669903999999999,-1
619,620,1580694563118,6.1580997,0.4633,1.2578,7.3124094,3.263115,10.791021,-1
620,621,1580694563128,6.769,0.5977,1.367,7.673033,3.35511,10.757052,-1
621,622,1580694563138,7.0806,0.6236,1.3386999,7.668647,3.1678834,10.8001,-1
622,623,1580694563149,6.9564,0.40299999999999997,1.3791,7.27572,2.8290749,10.817942,-1
623,624,1580694563159,6.5811996,0.062,1.4201,7.089164299999999,2.613635,10.907303,-1
624,625,1580694563169,6.4817995999999996,-0.1365,1.5210999,7.170192999999999,2.3900645000000003,11.026649,-1
625,626,1580694563179,6.56,-0.3495,1.6234,7.1301527,2.2986732000000005,11.252222,-1
626,627,1580694563189,6.5227,-0.4578,1.8932999,7.077642999999999,2.3411462000000003,11.300709,-1
627,628,1580694563199,6.4803,-0.44219998,1.8698,6.927230000000001,2.2102218,10.915003,-1
628,629,1580694563210,6.374,-0.6087,1.5242,6.822315700000001,2.1690316000000003,10.517259,-1
629,630,1580694563220,6.2882,-0.68329996,1.1413,7.119886999999999,2.1465838,10.181602,-1
630,631,1580694563230,6.7665,-0.88409996,0.6157,7.264889200000001,2.0509784,9.969724000000001,-1
631,632,1580694563240,6.7665,-0.88409996,0.6157,7.158021499999999,1.8233283,9.909677499999999,-1
632,633,1580694563251,6.3582997,-1.3884,0.7673,6.809617,1.621861,10.10175,-1
633,634,1580694563261,5.7783,-1.6811999,0.9058,6.21077,1.3775469999999999,10.231592,-1
634,635,1580694563271,5.183799700000001,-2.0614,1.044,5.5815353,1.0255994000000002,10.356273,-1
635,636,1580694563281,4.6524,-2.373,0.93719995,5.010978,0.74883926,10.241571,-1
636,637,1580694563291,4.5171,-2.6267998,0.6152,4.7973385,0.51288587,9.844632,-1
637,638,1580694563301,4.4927,-2.7035,0.3913,4.7598453,0.51829684,9.629633,-1
638,639,1580694563311,4.52,-2.6899998,0.3337,4.680109,0.5196184,9.620477000000001,-1
639,640,1580694563322,4.2629,-2.8423998,0.3646,4.290103,0.40883390000000003,9.582658,-1
640,641,1580694563332,3.7296,-2.9383,0.2201,3.695211,0.35695633,9.420169,-1
641,642,1580694563342,3.1931,-3.0463,0.067,3.1667438,0.2859826,9.255878,-1
642,643,1580694563352,2.6265,-3.2024,-0.1937,2.5486085,0.16212577,8.977787,-1
643,644,1580694563362,2.1807,-3.4036,-0.32819998,2.1845654999999997,0.019689914,8.877517999999998,-1
644,645,1580694563372,1.7874,-3.5008,-0.2977,1.6079842,-0.081249624,8.902561,-1
645,646,1580694563383,1.1444,-3.6025,-0.318,0.8923669,-0.19087534,8.876091,-1
646,647,1580694563393,0.4851,-3.8476998999999994,-0.2509,0.20972249,-0.3867689,8.898597,-1
647,648,1580694563403,-0.0822,-3.9438,-0.4684,-0.43186608,-0.4684016,8.633693,-1
648,649,1580694563413,-0.7213,-4.055,-0.7263,-1.3811288000000002,-0.53516155,8.369639999999999,-1
649,650,1580694563423,-1.4621998999999999,-4.0414,-0.8685,-1.9563884999999999,-0.5348934000000001,8.240105,-1
650,651,1580694563433,-2.0025,-4.1275,-1.0424,-2.5788808,-0.6506195,8.093627,-1
651,652,1580694563443,-2.7458,-4.3327,-0.9932,-3.7018666,-0.98159397,8.247727000000001,-1
652,653,1580694563454,-3.8133998,-4.7077,-0.7105,-4.9186,-1.3633541999999998,8.554636,-1
653,654,1580694563464,-4.923,-5.0098,-0.5172,-6.062300700000001,-1.6228186000000002,8.656725,-1
654,655,1580694563474,-5.9547,-5.1608,-0.45229998,-6.924874000000001,-1.7587327000000001,8.750826,-1
655,656,1580694563484,-6.8206997000000005,-5.2769,-0.1435,-8.122482000000002,-1.9500486000000001,9.280012,-1
656,657,1580694563494,-7.4997997000000005,-5.2994,0.2521,-8.682285,-1.9065314999999998,9.610335000000001,-1
657,658,1580694563504,-8.069799,-5.2025,0.7561,-9.327226,-1.8506221999999999,10.103723,-1
658,659,1580694563514,-8.6608,-5.1384,0.9873,-9.997803999999999,-1.8422903000000002,10.071947,-1
659,660,1580694563524,-8.6608,-5.1384,0.9873,-10.366195,-1.7778958999999999,9.821858,-1
660,661,1580694563534,-9.793099,-4.6804,0.1864,-11.1004,-1.1431451000000001,8.997104,-1
661,662,1580694563544,-9.8034,-4.2173,-0.4551,-10.894116,-0.7770142,8.465552,-1
662,663,1580694563554,-9.3133,-3.7501,-0.99759996,-10.396065,-0.29517633,8.008450999999999,-1
663,664,1580694563565,-8.7199,-3.3005998,-1.306,-9.755376,0.15475161,7.791211,-1
664,665,1580694563575,-8.2533,-3.0410000000000004,-1.3418,-9.511080999999999,0.31011614,7.8469863,-1
665,666,1580694563585,-8.1283,-2.8332999,-1.2422999,-9.612231,0.5122538,7.991596,-1
666,667,1580694563595,-8.3878,-2.6327999,-0.9773,-10.071659,0.7193523000000001,8.252459,-1
667,668,1580694563605,-8.7652,-2.4852,-0.91819996,-10.348774,0.77490735,8.161384,-1
668,669,1580694563616,-9.026899,-2.4643,-1.2501,-10.518388999999999,0.7609539000000001,7.5673914,-1
669,670,1580694563626,-8.9677,-2.4635,-1.8155999,-10.17234,0.77242696,6.977278,-1
670,671,1580694563636,-8.51,-2.5111,-2.3702,-9.691882000000001,0.7166611999999999,6.50314,-1
671,672,1580694563646,-8.1103,-2.6706,-2.807,-9.218844,0.41029912,6.0510097,-1
672,673,1580694563657,-7.5158,-3.0735,-3.2739,-8.284427,-0.11514194,5.432999,-1
673,674,1580694563667,-6.7419996,-3.5012,-3.8205,-7.684008,-0.4463654,4.929058,-1
674,675,1580694563677,-6.0906997,-3.8938,-4.437,-7.167780400000001,-0.6999018,4.3711709999999995,-1
675,676,1580694563687,-5.797999999999999,-4.015,-4.8493,-7.25288,-0.6508301999999999,3.9992650000000003,-1
676,677,1580694563697,-6.0505,-3.9543,-5.3708,-7.8711777000000005,-0.7375864999999999,3.3678565000000003,-1
677,678,1580694563708,-6.6605,-4.1047997,-5.8539,-8.641449,-0.91926813,2.8491,-1
678,679,1580694563718,-7.5034,-4.2823,-6.4553,-9.601457,-1.44492,2.0443034,-1
679,680,1580694563728,-8.3744,-4.9168997,-7.3008,-9.779059,-2.4198484000000002,0.7487435,-1
680,681,1580694563739,-8.4214,-5.9221997,-8.7424,-9.200199000000001,-3.2728450000000002,-1.0852916000000001,-1
681,682,1580694563749,-7.764199700000001,-6.7811,-10.5545,-8.285326,-3.9570502999999997,-2.601252,-1
682,683,1580694563759,-7.0607,-7.4192,-11.947599,-7.8036423,-4.1808314,-3.1551842999999997,-1
683,684,1580694563770,-6.7388,-7.620899700000001,-12.2027,-7.1861676999999995,-4.522149,-1.6946543,-1
684,685,1580694563780,-6.3468,-7.8858,-10.8469,-6.856132000000001,-4.579878,0.6903633000000001,-1
685,686,1580694563790,-6.112,-7.8433,-8.5286,-6.137105,-4.6262584,2.9784636000000004,-1
686,687,1580694563800,-5.4660997,-7.7451,-6.2999,-4.917345500000001,-4.372483,4.2447376,-1
687,688,1580694563810,-3.5886,-7.0993,-5.1145997,-4.1611705,-4.3094864,4.277155400000001,-1
688,689,1580694563821,-3.6718,-7.8097,-5.5299997,-4.175382,-5.1508183,3.898019,-1
689,690,1580694563831,-4.1851997,-8.4493,-5.7414,-4.566221700000001,-5.8954629999999995,3.7340543,-1
690,691,1580694563841,-4.0652,-8.8828,-5.5144,-4.148778,-6.4673514,4.0403686,-1
691,692,1580694563851,-3.3274998999999994,-8.9359,-5.4693,-3.3303442000000003,-6.558532700000001,4.0496006,-1
692,693,1580694563861,-2.0102,-8.8523,-5.8578997,-1.8231846,-6.581353999999999,3.6940519999999997,-1
693,694,1580694563871,-0.3161,-8.6887,-6.2672,0.01388637,-6.589657300000001,3.3174824999999997,-1
694,695,1580694563881,-0.3161,-8.6887,-6.2672,2.5116804,-6.362773000000001,4.482779,-1
695,696,1580694563892,3.7477,-7.0038,-2.4919999,4.18382,-5.4238725,7.735532000000001,-1
696,697,1580694563902,3.5568,-6.6106997000000005,0.055999997999999995,3.7926550000000003,-5.618483,10.319,-1
697,698,1580694563912,3.1590998,-7.2851,2.6667,3.4457445,-6.6623453999999995,12.950323,-1
698,699,1580694563922,2.7849,-7.7049,4.7855,3.1250843999999995,-7.379264999999999,14.819026000000001,-1
699,700,1580694563932,2.5523,-8.0168,5.4684,3.2626936,-7.866466,15.293394000000001,-1
700,701,1580694563943,4.0843997000000005,-7.6505,5.2198997,5.2167262999999995,-7.555210000000001,14.817552,-1
701,702,1580694563953,6.0836,-6.6322,4.3188,7.7930408,-6.378144,14.001357999999998,-1
702,703,1580694563963,8.581099499999999,-5.0422997,4.8517,10.447989999999999,-4.907539,15.480687,-1
703,704,1580694563973,10.6908,-3.1267,7.3908997,11.804506,-3.4431973,18.352045,-1
704,705,1580694563985,10.9607,-1.9312999,10.4498,11.322476,-3.1235714,21.187765,-1
705,706,1580694563995,9.7662,-1.9495,12.4895,9.090928,-3.9833962999999994,22.537407,-1
706,707,1580694564005,7.4908,-2.6074,12.8468,6.667296400000001,-5.0101643,21.956305,-1
707,708,1580694564015,5.3648,-3.4097998,11.719000000000001,5.056659,-5.8628730000000004,19.905603,-1
708,709,1580694564025,4.2293997,-3.9417998999999995,9.1402,4.8973393,-6.018391,17.041610000000002,-1
709,710,1580694564035,4.6370997,-3.5196,6.7204,6.1445847,-4.9552217,15.927523,-1
710,711,1580694564045,6.3191,-2.056,6.704,8.228727000000001,-3.5206735,17.102837,-1
711,712,1580694564055,8.3221,-0.6448,8.3232,9.56903,-2.5456397999999996,18.820072,-1
712,713,1580694564065,9.139999000000001,0.2323,9.9114,9.519135,-2.2952733,19.847414,-1
713,714,1580694564075,8.8104,0.3755,10.455,8.73512,-2.5585206,19.672035,-1
714,715,1580694564086,8.0181,0.2179,10.0563,7.9548309999999995,-2.8059087000000003,19.160269,-1
715,716,1580694564096,7.138499700000001,0.038599997999999996,9.5048,6.7891035,-3.2018619,18.468870000000003,-1
716,717,1580694564106,6.1638,-0.21509999,8.836599,5.9849486,-3.4635577000000004,17.865484,-1
717,718,1580694564116,5.089299700000001,-0.6213,7.9621,4.5690084,-4.09058,16.472157,-1
718,719,1580694564126,4.0976,-0.96029997,6.5676,3.8267677000000004,-4.181119,14.793217000000002,-1
719,720,1580694564136,3.5639,-0.8936,4.8113,3.567485,-3.9857139999999998,13.461867999999999,-1
720,721,1580694564146,3.4399,-0.56619996,3.4034998,3.6679459000000003,-3.4703763,12.192539,-1
721,722,1580694564157,3.7412,-0.059899997,2.6829998,4.0665994,-2.8404138,11.837355,-1
722,723,1580694564167,4.1555,0.5683,2.5558,4.5707035000000005,-2.3230364,11.953627000000001,-1
723,724,1580694564177,4.5202,0.9095,2.699,4.598610400000001,-2.1959426,12.334219000000001,-1
724,725,1580694564187,4.5236998,1.0539,3.1689999999999996,4.332959,-2.1661202999999998,12.7644,-1
725,726,1580694564197,4.1661,1.0483,3.5793998,3.9160616000000004,-2.3328815,13.180646,-1
726,727,1580694564207,3.7243,0.8713,3.9259,3.1848726000000003,-2.4702797000000003,12.974188999999999,-1
727,728,1580694564218,2.9224,0.7406,3.5391,2.6089330000000004,-2.6394157000000003,12.171308,-1
728,729,1580694564228,2.2209,0.4585,2.3892999,2.0147398,-2.7852514,10.700626,-1
729,730,1580694564238,1.7177999,0.3947,1.1754999,1.7332776,-2.594357,9.808173,-1
730,731,1580694564248,1.5038999,0.573,0.118599996,2.1261566000000003,-2.3227587000000005,8.888214999999999,-1
731,732,1580694564258,1.861,0.7836,-0.5219,2.3264362999999997,-2.0766253,8.726186,-1
732,733,1580694564268,1.9734,0.9572,-0.57699996,2.2858593,-2.2102888,9.016036999999999,d
733,734,1580694564279,1.8477,0.7578,-0.2145,1.7986585,-2.5596027,9.571252000000001,-1
734,735,1580694564289,1.2679,0.40199998,0.3471,1.1213866000000001,-2.947023,10.038812,-1
735,736,1580694564299,0.59929997,0.0154,0.7711,0.5427368,-3.2960112,10.134608,-1
736,737,1580694564309,0.0156,-0.29279998,0.7802,-0.047826573,-3.3354294,9.6957035,-1
737,738,1580694564319,-0.4547,-0.3206,0.3633,-0.062239666,-3.2300843999999995,9.266815,-1
738,739,1580694564329,-0.44849998,-0.21239999,-0.19399999,0.22416432,-2.980398,8.605221,-1
739,740,1580694564339,-0.25689998,-0.0301,-0.75259995,0.35962823,-2.8382112999999998,8.354969,-1
740,741,1580694564350,-0.1063,0.0383,-0.95229995,0.41267420000000005,-2.8594717999999997,8.410753999999999,-1
741,742,1580694564360,-0.1063,0.0383,-0.95229995,0.34470758,-2.9298997000000004,8.581575,-1
742,743,1580694564370,-0.1871,-0.056399997,-0.7385,0.16886783,-3.073092,8.882574,-1
743,744,1580694564380,-0.4116,-0.1982,-0.4236,-0.17931613,-3.2159874,9.271009,-1
744,745,1580694564390,-0.649,-0.3053,-0.08779999599999999,-0.28695944,-3.1592542999999997,9.312928,-1
745,746,1580694564400,-0.71819997,-0.1293,-0.33159998,-0.27341786,-3.0514963,9.032891000000001,-1
746,747,1580694564410,-0.5664,0.0117,-0.5984,-0.12488156,-2.905967,8.763266999999999,-1
747,748,1580694564420,-0.0972,0.14039999,-0.6599,0.35656366,-2.7591066000000004,8.709234,-1
748,749,1580694564430,-0.0972,0.14039999,-0.6599,0.9062531999999999,-2.5444715,8.876358999999999,-1
749,750,1580694564440,0.4378,0.3592,-0.49499997,1.0905684,-2.4451982999999995,9.241551,-1
750,751,1580694564451,0.3558,0.3116,0.2214,0.7396071999999999,-2.6394830000000002,9.612299,-1
751,752,1580694564461,0.0346,0.18879999,0.3502,0.45872903,-2.7182522000000002,9.736892999999998,-1
752,753,1580694564471,-0.10969999400000001,0.1917,0.4098,0.35238817,-2.7168443,9.768362,-1
753,754,1580694564481,-0.0982,0.221,0.3116,0.359159,-2.6816112999999997,9.677047,-1
754,755,1580694564491,-0.0298,0.18789999,0.065299995,0.44204623,-2.7166624,9.388345,-1
755,756,1580694564501,0.0075999996999999994,0.17279999,-0.092999995,0.49555188,-2.7496161,9.254442,-1
756,757,1580694564512,0.1423,0.1497,-0.084199995,0.6816770999999999,-2.7417727000000003,9.328863,-1
757,758,1580694564522,0.4055,0.21779999,0.121599995,0.96961343,-2.6533597,9.567833,-1
758,759,1580694564532,0.7001,0.2593,0.387,1.2150669,-2.6305572999999995,9.819435,-1
759,760,1580694564542,0.8684,0.28219998,0.66249996,1.3385311000000002,-2.6264775,10.078392,-1
760,761,1580694564552,0.84139997,0.29369998,0.81,1.2992758,-2.6115663,10.154212,-1
761,762,1580694564563,0.8754,0.2735,0.741,1.3573591999999999,-2.6328366,10.093801,-1
762,763,1580694564578,0.9605,0.2519,0.6616,1.4105678999999998,-2.651272,10.0036545,-1
763,764,1580694564588,0.95909995,0.29819998,0.5819,1.4528208,-2.623844,9.963911,-1
764,765,1580694564599,1.0473,0.2556,0.59999996,1.5291,-2.703121,10.048159,-1
765,766,1580694564609,1.1013,0.1748,0.70699996,1.5575814,-2.7137702,10.316117,-1
766,767,1580694564619,1.1355,0.1726,0.9414,1.747796,-2.7351072,10.5805235,-1
767,768,1580694564629,1.3264999,0.15179999,1.2056,1.9158688999999998,-2.7445211,10.770824000000001,-1
768,769,1580694564639,1.5495,0.1416,1.4308,2.1371984,-2.7293708,11.063222999999999,-1
769,770,1580694564649,1.7372999,0.1628,1.6858,2.4689105,-2.773453,11.591882,-1
770,771,1580694564660,2.4936,0.2259,2.8848999,2.8444839,-2.678087,12.257049,-1
771,772,1580694564670,2.4936,0.2259,2.8848999,3.0877542,-2.666748,12.769283,-1
772,773,1580694564680,2.8030999,0.2525,3.5039999999999996,3.260759,-2.6322525000000003,13.173414999999999,-1
773,774,1580694564690,2.9733999,0.25239998,3.8365998,3.4475737,-2.7821388,13.343192000000002,-1
774,775,1580694564700,3.2006997999999998,0.0783,4.1804,3.4769172999999993,-2.8012161,13.565615,-1
775,776,1580694564711,3.2326999,-0.0104,4.6739999999999995,3.5044122000000004,-2.8821783,14.060620000000002,-1
776,777,1580694564721,3.2108,-0.051099997,5.3143997,3.4641610000000003,-2.900604,14.709563000000001,-1
777,778,1580694564731,3.0962,-0.0858,5.8065,3.3319242,-2.9106596000000002,15.216396,-1
778,779,1580694564741,3.0962,-0.0858,5.8065,3.1646273,-2.931767,15.394314999999999,-1
779,780,1580694564751,3.0588,-0.1354,5.9391,3.2347963,-2.877859,15.36975,-1
780,781,1580694564761,3.5024,-0.1153,5.7749,3.6551127,-2.7869275,15.219308999999999,-1
781,782,1580694564772,3.9297998,0.0683,5.4115996,4.061227,-2.5452182,14.874103,-1
782,783,1580694564782,4.1796,0.10300000000000001,5.2125998,4.312350299999999,-2.41891,14.698502,-1
783,784,1580694564792,4.0496,0.0092,5.2374,4.127192,-2.429109,14.769101999999998,-1
784,785,1580694564803,3.5867,-0.1769,5.2728,3.5662594,-2.4926322,14.925826999999998,-1
785,786,1580694564814,3.0239,-0.2487,5.5485,3.144104,-2.4528885,15.155555999999999,-1
786,787,1580694564824,2.6193,-0.44149998,5.4926,2.801618,-2.5457834999999998,14.912947,-1
787,788,1580694564834,2.3223999,-0.5999,4.9961,2.5515103,-2.5953531,14.408104999999999,-1
788,789,1580694564844,2.0988,-0.84569997,4.4618998,2.364552,-2.6854324,13.905179,-1
789,790,1580694564854,2.0042,-0.9404,3.9984998999999997,2.3189185,-2.5864754,13.484125,-1
790,791,1580694564865,1.9844998999999999,-0.96239996,3.6941,2.3515083999999997,-2.5077634,13.288720000000001,-1
791,792,1580694564875,1.9034,-1.0516,3.5779,2.114904,-2.5535405,13.273979999999998,-1
792,793,1580694564885,1.5723,-1.2418,3.5419,1.7997596999999999,-2.6149855,13.1145935,-1
793,794,1580694564896,1.2314999,-1.4189999,3.1348,1.5249437,-2.730654,12.438807,-1
794,795,1580694564906,0.78679997,-1.7299,2.3767998,0.96051544,-3.0238383,11.525457000000001,-1
795,796,1580694564916,0.2951,-2.1257,1.6709,0.4305924,-3.1940472,11.175185,-1
796,797,1580694564927,-0.40609998,-2.3776,1.3701999,-0.38381928,-3.2610080000000004,11.174897999999999,-1
797,798,1580694564937,-1.4829999,-2.5577,1.474,-1.5122257,-3.4314082000000004,11.358399,-1
798,799,1580694564947,-2.3607,-2.7851999,1.6274998999999999,-2.207789,-3.5489156000000004,11.501189,-1
799,800,1580694564957,-3.0286,-2.938,1.7416999,-2.5694093999999996,-3.5287947999999996,11.619387,-1
800,801,1580694564967,-3.2423,-2.9134998,1.8944,-2.479694,-3.4180582000000004,11.799411,-1
801,802,1580694564978,-2.9262998,-2.7563,2.2718,-2.110805,-3.0669436,12.4145775,-1
802,803,1580694564988,-2.6557999,-2.4766998,2.7073,-1.9432395,-2.6339476000000004,12.579680999999999,-1
803,804,1580694564998,-2.4489,-2.1087,2.7303,-1.7674859,-2.209245,11.914659,-1
804,805,1580694565009,-2.1766999,-1.8017,1.9097998999999999,-1.5650322,-1.9137331999999998,10.782,-1
805,806,1580694565018,-1.9951999,-1.7045,0.9727,-1.6139983999999998,-1.7075158,9.799774000000001,-1
806,807,1580694565029,-1.9764999,-1.617,-0.2954,-1.2399858,-1.5139495,8.347336,-1
807,808,1580694565039,-1.5106,-1.5957999,-1.7077,-0.7748594,-1.1903875,7.180575,-1
808,809,1580694565049,-1.0481,-1.5134,-2.8195999,-0.6548141,-0.8789976,6.3076677000000005,-1
809,810,1580694565059,-0.95059997,-1.3234999,-3.6313,-0.72991544,-0.8566454,5.854378,-1
810,811,1580694565069,-1.0503,-1.4463999,-3.9684,-1.1276977,-0.72166026,5.844505000000001,-1
811,812,1580694565079,-1.3685,-1.4304999,-3.9027998,-1.5757487,-0.6790818000000001,5.993846,-1
812,813,1580694565090,-1.7380999,-1.5287,-3.7675998,-2.057347,-0.73235756,6.0965953,-1
813,814,1580694565100,-2.225,-1.7263,-3.5303998,-2.3159113,-0.66395044,6.230986,-1
814,815,1580694565110,-2.225,-1.7263,-3.5303998,-2.4210742,-0.50509036,6.3601203,-1
815,816,1580694565120,-1.9045999,-1.8399999,-3.5174,-2.0315185000000002,-0.5218402,6.210952,-1
816,817,1580694565130,-1.3823999,-1.7034999,-3.9668,-1.5131164,-0.23811772,5.7434697,-1
817,818,1580694565141,-1.3823999,-1.7034999,-3.9668,-0.95070875,-0.13394122,4.9667234,-1
818,819,1580694565151,-0.6099,-1.9532,-5.2833,-0.7356903,-0.20864989,4.374666,-1
819,820,1580694565161,-0.7467,-1.9583999,-4.7633,-0.9062531999999999,-0.10894576,4.8720374,-1
820,821,1580694565171,-1.0977,-1.7968998999999999,-3.9241,-1.4466245,0.22991998,5.859607,-1
821,822,1580694565181,-1.0977,-1.7968998999999999,-3.9241,-1.7233751,0.36094987,6.186148,-1
822,823,1580694565191,-1.6707,-1.5504999,-3.1459,-2.1341052000000005,0.46167870000000005,6.7370925,-1
823,824,1580694565201,-1.8641,-1.6200999,-2.8274,-2.3782659,0.45286804,6.5429316,-1
824,825,1580694565211,-2.0374,-1.6006,-3.4167,-2.2512583999999998,0.6621117,5.4640665,-1
825,826,1580694565221,-1.6687,-1.4791,-4.4809,-1.8161839,0.9187318000000001,4.540412,-1
826,827,1580694565231,-1.5911,-1.5340999,-5.4251,-1.9493781000000003,0.9476921,4.0295277,-1
827,828,1580694565242,-1.5911,-1.5340999,-5.4251,-1.8894657,0.9819195,4.0430408,-1
828,829,1580694565253,-1.162,-1.2685,-5.1232,-1.3828813999999998,1.4986458,4.4521809999999995,-1
829,830,1580694565263,-0.8806,-1.1302999,-4.5594,-1.2421693,1.5778556000000001,5.0552225,-1
830,831,1580694565273,-0.9984,-1.0339,-3.5902,-1.5660952,1.7305481,6.1934934,-1
831,832,1580694565283,-1.2985,-0.9515,-2.7814,-1.8482470000000002,1.7843889,6.7734647,-1
832,833,1580694565293,-1.5684999,-0.91719997,-2.2666,-2.2044947,1.8436119999999998,7.183812,-1
833,834,1580694565303,-1.5684999,-0.91719997,-2.2666,-2.417818,1.8752633,7.047581699999999,-1
834,835,1580694565314,-1.8677,-1.0467,-2.9036,-2.5024772,1.6936008000000002,6.321516,-1
835,836,1580694565325,-1.8176999,-1.2292,-3.2522,-2.4185748,1.6053792,6.075699,-1
836,837,1580694565335,-1.6557,-1.247,-3.2579,-2.0748823,1.6816490000000002,6.2218885,-1
837,838,1580694565345,-1.2682999,-1.1776999,-3.0305,-1.7149667000000002,1.763885,6.447949400000001,-1
838,839,1580694565355,-0.8308,-1.0447999,-2.7284,-1.2663028,2.073053,6.7996479999999995,-1
839,840,1580694565365,-0.5154,-0.7495,-2.4104,-1.1514673999999998,2.3162272,7.115117,-1
840,841,1580694565376,-0.4632,-0.4414,-1.8405999,-1.1380407,2.5926428,7.7420154000000005,-1
841,842,1580694565386,-0.3786,-0.2058,-1.3998,-1.1147785,2.7068462,7.985161,-1
842,843,1580694565396,-0.3457,-0.23689999,-1.3311,-1.1018404,2.6608294999999997,8.03091,-1
843,844,1580694565406,-0.235,-0.41059998,-1.1732,-0.95440537,2.366113,8.263069999999999,-1
844,845,1580694565416,-0.0805,-0.5912,-0.9752,-0.67176515,2.392411,8.607012,-1
845,846,1580694565427,0.2652,-0.47489998,-0.5604,-0.46369940000000004,2.5726560000000003,8.996922,-1
846,847,1580694565437,0.2816,-0.31489998,-0.26209998,-0.66645956,2.738823,9.088341999999999,-1
847,848,1580694565447,-0.057499997000000004,-0.1476,-0.33499998,-1.0772853999999998,2.9166453,8.725237,-1
848,849,1580694565457,-0.4219,-0.0471,-0.7603,-1.3227963,2.867114,8.536441,-1
849,850,1580694565467,-0.5397,-0.1352,-0.7262,-1.3285425,2.931652,8.779843,-1
850,851,1580694565477,-0.4673,-0.0094,-0.3902,-1.1816056000000001,3.045827,9.123776,-1
851,852,1580694565487,-0.22929999,0.0313,-0.0455,-0.89689666,2.9454331000000002,9.498325,d
852,853,1580694565497,0.022499999,-0.0762,0.22049999,-0.6840809,2.9811162999999996,9.567528,-1
853,854,1580694565507,0.26659998,0.0558,0.23279999,-0.3643975,3.2278051,9.548191000000001,-1
854,855,1580694565517,0.6529,0.3017,0.26549998,-0.0005841852400000001,3.4709127,9.642963,-1
855,856,1580694565527,0.97239995,0.58739996,0.42569998,0.25403437,3.7530167000000003,9.862597000000001,-1
856,857,1580694565537,1.1809,0.7782,0.6443,0.3499461,3.8262503,10.040191,-1
857,858,1580694565547,1.229,0.8134,0.7945,0.23673867,3.8431437000000006,10.108367,-1
858,859,1580694565557,1.0532,0.807,0.779,-0.004223372,3.821912,9.945025,-1
859,860,1580694565568,0.8188,0.7468,0.5297,-0.35963783,3.6288245000000003,9.558065,-1
860,861,1580694565578,0.5247,0.5151,0.1937,-0.7779335999999999,3.352639,9.187749,-1
861,862,1580694565588,0.1416,0.2017,-0.15089999,-1.080848,3.0800736,8.88314,-1
862,863,1580694565598,-0.1169,-0.0446,-0.4168,-1.2854086,2.9566572,8.842046,-1
863,864,1580694565608,-0.3031,-0.1742,-0.3888,-1.3664188,2.9597216,8.87475,-1
864,865,1580694565619,-0.37919998,-0.18699999,-0.4202,-1.4647822,3.0348997000000004,8.672191999999999,-1
865,866,1580694565629,-0.4698,-0.1422,-0.5986,-1.5148019,3.0205345,8.595088,-1
866,867,1580694565639,-0.5114,-0.1626,-0.6213,-1.5005515,3.0751223999999997,8.689860000000001,-1
867,868,1580694565649,-0.4921,-0.0889,-0.4888,-1.4698771000000002,3.1999464,8.742111,-1
868,869,1580694565660,-0.44039997,0.027999998999999998,-0.4849,-1.3626646999999998,3.3162279999999997,8.699878,-1
869,870,1580694565670,-0.3366,0.0881,-0.5401,-1.482844,3.2610464,8.4558325,-1
870,871,1580694565680,-0.6874,-0.1244,-0.9438,-1.7288721999999999,3.1216082999999997,8.270857000000001,-1
871,872,1580694565690,-0.6874,-0.1244,-0.9438,-2.0726125,3.0515442000000004,8.332597999999999,-1
872,873,1580694565701,-1.0884,-0.2022,-0.85109997,-2.9844682000000002,2.9485457000000004,8.705748,-1
873,874,1580694565711,-2.3865,-0.3207,-0.5062,-3.6235955,2.9827251,8.618705,-1
874,875,1580694565721,-2.9438999,-0.2929,-0.92749995,-3.990445,3.0176708999999997,8.259038,-1
875,876,1580694565731,-3.4668998999999996,-0.48299998,-1.8647,-4.5039053,2.8782039,7.300007300000001,-1
876,877,1580694565741,-3.4668998999999996,-0.48299998,-1.8647,-4.8595014,2.6377206,5.815832,-1
877,878,1580694565751,-4.0747,-1.1988,-4.7441,-5.083493700000001,2.2518137,4.393006,-1
878,879,1580694565762,-4.4202,-1.4495,-5.5471,-5.407793,2.0309055,3.5809019999999996,-1
879,880,1580694565772,-4.6486998,-1.4254999,-5.4368,-5.597011599999999,2.087179,3.6864767,-1
880,881,1580694565782,-4.6376,-1.0113,-4.7167997,-5.499663,2.5902581000000002,4.551282,-1
881,882,1580694565792,-4.506,-0.6669,-4.1387,-5.300619,2.8309135,5.098577,-1
882,883,1580694565802,-4.4042,-0.7107,-3.77,-5.1471504999999995,2.7342165,5.4270515,-1
883,884,1580694565812,-4.4131,-0.8383,-3.6906,-5.0872383,2.5745424999999997,5.4392242,-1
884,885,1580694565823,-4.449,-1.2009,-3.965,-5.044267,2.16432,5.1237736,-1
885,886,1580694565832,-4.5039,-1.7436,-4.531399700000001,-5.0087366,1.7103697,4.653792,-1
886,887,1580694565842,-4.5039,-1.7436,-4.531399700000001,-4.9141083,0.9068565999999999,3.7100549,-1
887,888,1580694565852,-4.7584,-3.4422,-6.4902997000000004,-5.122864,-0.18947713,2.5460036,-1
888,889,1580694565862,-5.0853,-4.371299700000001,-6.9553,-5.323546,-1.1164641000000002,2.2230258,-1
889,890,1580694565872,-5.321399700000001,-4.922,-6.9245996,-5.39224,-1.5276923,2.301029,-1
890,891,1580694565883,-5.0439997000000005,-4.8828998,-6.7727,-4.852922400000001,-1.523124,2.4657883999999997,-1
891,892,1580694565893,-4.3508,-4.9781,-6.745199700000001,-4.1115146000000005,-1.7152730999999999,2.4620152,-1
892,893,1580694565904,-4.0227,-5.0158997,-7.0367,-3.6333542000000003,-1.8077563,2.0850720000000003,-1
893,894,1580694565914,-3.5268998,-5.0529,-7.4385996,-2.932993,-2.0991404,1.6814287,-1
894,895,1580694565924,-2.8955998,-5.5866,-7.937999700000001,-2.3166103,-2.9088306,1.0720469,-1
895,896,1580694565934,-2.5800998,-6.3466997,-8.8665,-2.0058048,-3.6889,0.30092242,-1
896,897,1580694565944,-2.2924,-6.8557997,-8.715099,-1.6578026999999997,-4.020554,0.93793327,-1
897,898,1580694565954,-2.2862,-6.4716,-7.1052,-1.7327412,-3.4307377,2.8219402000000002,-1
898,899,1580694565964,-2.6489999999999996,-5.6629996,-6.2242,-1.7852987,-3.0713587,3.2729216,-1
899,900,1580694565975,-2.3448,-5.8475,-6.3167,-1.139257,-3.7988989999999996,2.9112150000000003,-1
900,901,1580694565985,-1.4689,-6.8448,-6.9684,0.36468482,-5.3546414,2.2553284,-1
901,902,1580694565995,-0.0535,-7.8301997000000005,-7.3343997000000005,1.6216981000000001,-6.0626264,2.3565840000000002,-1
902,903,1580694566005,1.4101,-8.1882,-6.388999999999999,3.6405752000000002,-6.2012506,4.682982,-1
903,904,1580694566015,2.9814,-7.5270996,-3.8809,4.5377207,-5.2902949999999995,7.05238,-1
904,905,1580694566025,3.4073,-6.3322,-1.9468,4.5847235,-4.958219000000001,8.193292999999999,-1
905,906,1580694566037,3.3367998999999995,-5.9831,-1.0396,4.3847795,-4.9403396,8.965921,-1
906,907,1580694566047,3.4097,-5.4964,-0.602,5.0953784,-4.7121816,9.245774,-1
907,908,1580694566057,4.6707997,-5.015,-0.5893,6.6511593,-4.8439584,8.8056345,-1
908,909,1580694566067,6.1004996,-4.8564997000000005,-1.2971,8.005789,-4.578078,8.253666,-1
909,910,1580694566077,7.1784,-4.4835997,-1.4523,8.8203535,-4.737311,8.714214,-1
910,911,1580694566087,7.8448997,-4.4083,-0.5825,8.720095,-4.6884120000000005,9.938925,-1
911,912,1580694566097,7.3343,-4.065,0.99869996,7.608208,-5.07135,12.591174,-1
912,913,1580694566107,6.4096,-4.2314997000000005,3.3141,7.1291475,-5.6037345,14.423638,-1
913,914,1580694566117,6.2373,-4.3795,4.9725,7.631881699999999,-5.72377,14.892624,-1
914,915,1580694566127,7.1466,-4.2054,5.1095,8.71045,-6.090351,14.632394,-1
915,916,1580694566137,8.3081,-4.4219,5.0569997,9.344024000000001,-6.5598254,14.738715,-1
916,917,1580694566147,8.6911,-4.4404,5.2861,9.680505,-6.47191,15.602419,-1
917,918,1580694566157,9.137199,-3.9940998999999997,6.4631996,10.291649000000001,-5.987678,18.137121,-1
918,919,1580694566168,9.6734,-3.1764,9.1275,10.255726,-5.4552364,19.564009,-1
919,920,1580694566178,9.5787,-2.5115,10.3038,10.085699,-5.3614893,19.668127,-1
920,921,1580694566189,9.444699,-2.2649,10.283299000000001,9.977788,-5.552786,18.811529999999998,-1
921,922,1580694566199,9.367499,-2.289,9.310599,9.654255000000001,-5.9599533,17.574061999999998,-1
922,923,1580694566209,9.076799000000001,-2.5626,8.2982,9.381459,-6.446886,17.56035,-1
923,924,1580694566219,8.8699,-2.8128998,8.642099,9.328567,-6.4256253,18.990463000000002,-1
924,925,1580694566229,8.8811,-2.5556,9.9709,9.560928,-6.026541,20.552841,-1
925,926,1580694566239,9.1205,-1.9884,11.6163,9.819982000000001,-5.3638453,21.525816,-1
926,927,1580694566250,10.1086,0.1626,13.5843,10.516914,-4.191395,22.374323,-1
927,928,1580694566260,10.575299000000001,1.0522,13.6516,10.980786,-3.4126952000000004,22.387529999999998,-1
928,929,1580694566271,10.4071,1.5160999,13.0175,10.824512,-3.0332236,21.717201,-1
929,930,1580694566281,9.4812,1.4302,12.3793,9.675132000000001,-3.2249322,20.964693,-1
930,931,1580694566291,7.9578996,1.1453999,11.8877,8.161555,-3.5608387,20.392317000000002,-1
931,932,1580694566301,6.5799,0.7236,11.2102995,6.900980000000001,-3.9991498,19.698515,-1
932,933,1580694566311,5.1464,0.5891,10.4072,5.793460400000001,-4.034086,19.047848000000002,-1
933,934,1580694566321,3.8339999,1.1649,9.4108,4.550458,-3.4458692,18.056054999999997,-1
934,935,1580694566331,2.9864,1.7745999,8.8399,3.6835177000000003,-2.6523254,17.459426999999998,-1
935,936,1580694566342,2.3709,2.2738,8.9821,3.2396326,-2.2147994,17.780634,-1
936,937,1580694566352,1.8188,1.9861,9.554299,2.7650827999999996,-2.6344838,18.350245,-1
937,938,1580694566363,0.8048,0.7216,10.0947,1.5775107,-4.302543599999999,18.940357000000002,-1
938,939,1580694566373,-0.6573,-0.99609995,10.336599,-0.0006416460400000001,-5.8738866,19.129269,-1
939,940,1580694566383,-2.9160000000000004,-2.5558,10.356299,-2.3214562,-7.200178599999999,19.020294,-1
940,941,1580694566394,-5.6605,-3.8330998,9.9177,-4.918169,-8.120519,18.455502,-1
941,942,1580694566404,-8.281199,-4.5913,9.1289,-7.1301146,-8.4856825,17.57664,-1
942,943,1580694566414,-10.2463,-5.0,8.030499,-8.845647,-8.68103,16.15819,-1
943,944,1580694566424,-11.4811,-5.3374,6.6731997000000005,-9.614271,-8.677545,14.765395999999999,-1
944,945,1580694566435,-12.191999000000001,-5.5483,5.2358,-9.859649000000001,-8.704550999999999,13.411121,-1
945,946,1580694566445,-12.2532,-5.7929,3.8091,-9.535692999999998,-8.557145,12.003733,-1
946,947,1580694566455,-11.9488,-5.8006997,2.3648999,-9.129714,-8.245142999999999,10.762272,-1
947,948,1580694566465,-11.6052,-5.7144,1.1886,-8.740943,-7.8498116,9.925326,-1
948,949,1580694566476,-11.255999999999998,-5.4424996,0.5169,-8.302488,-7.268298,9.427964,-1
949,950,1580694566486,-10.845099000000001,-5.161299700000001,0.0162,-7.992075,-6.926914,8.897993,-1
950,951,1580694566496,-10.6081,-5.0614,-0.7661,-7.6558814,-6.558284,7.643996700000001,-1
951,952,1580694566506,-10.3173,-4.9967,-1.8805,-7.337931,-6.389033,6.7746716000000005,-1
952,953,1580694566516,-9.9154,-5.013,-3.0026,-6.982105000000001,-6.2282376,5.656541000000001,-1
953,954,1580694566526,-9.529099,-5.018399700000001,-4.1622,-6.631306599999999,-6.0213695,4.610275,-1
954,955,1580694566537,-9.1182995,-4.9674997,-5.1043997,-5.9612940000000005,-5.688834,3.8762796,-1
955,956,1580694566547,-8.4022,-4.826699700000001,-5.6324997,-5.057597599999999,-5.2987227,3.4694089999999997,-1
956,957,1580694566558,-7.436899700000001,-4.5099998,-6.0497,-4.176273,-4.570081,3.2412512,-1
957,958,1580694566568,-6.4835,-3.8634998999999994,-6.2279,-3.1566495999999997,-3.8822650000000003,3.3093612,-1
958,959,1580694566578,-5.3863997,-3.3292,-6.1672997,-2.090703,-3.3877187000000006,3.2676258,-1
959,960,1580694566588,-4.2989,-2.9392,-6.281399700000001,-1.1435665000000002,-2.959511,3.0347562000000003,-1
960,961,1580694566599,-3.3063,-2.5969,-6.5322,-0.17769764,-2.5666032000000003,3.004752,-1
961,962,1580694566609,-2.3137,-2.2837,-6.4876,0.7223977,-2.2119262,3.3054254000000003,-1
962,963,1580694566619,-1.5508,-2.0591,-6.245,1.1292013,-2.1058056,3.5694769999999996,-1
963,964,1580694566629,-1.0175999,-1.9813999,-5.8928,1.5350758999999998,-1.9542240000000002,4.1248646,-1
964,965,1580694566639,-0.5776,-1.8721,-5.3233,1.8461881000000002,-1.7540976000000001,4.804186,-1
965,966,1580694566649,-0.31739998,-1.7205,-4.7722,2.4534342000000002,-1.4490284,5.330326,-1
966,967,1580694566659,0.34059998,-1.4245,-4.2615,3.49654,-1.0183688,5.857769,-1
967,968,1580694566670,1.4343,-0.98029995,-3.7436998,4.516518,-0.628363,6.4513583,-1
968,969,1580694566680,2.5121,-0.5586,-3.1596,5.5111550000000005,-0.28303295,7.3877690000000005,-1
969,970,1580694566691,3.5812,-0.1784,-2.2417,6.4626017,0.07626011,8.070739,-1
970,971,1580694566700,5.1342998,0.60569996,-1.1409999,6.977805,0.47234726,8.495384,-1
971,972,1580694566710,5.3093,0.8064,-0.80109996,7.132978,0.6625714,8.846633,-1
972,973,1580694566720,5.2125,0.7854,-0.6071,7.022040400000001,0.65088767,9.046930999999999,-1
973,974,1580694566730,4.8589,0.654,-0.4323,6.6617227,0.5251920999999999,9.216135000000001,-1
974,975,1580694566740,4.8589,0.654,-0.4323,6.113968,0.32484528,9.430454,-1
975,976,1580694566750,3.9176,0.33299999999999996,-0.15799999,5.7071733,0.23286006,9.486142999999998,-1
976,977,1580694566760,4.1798997,0.4455,-0.27359998,5.988789,0.33586818,9.372515,-1
977,978,1580694566770,4.1798997,0.4455,-0.27359998,6.509557,0.6162196,9.150083,-1
978,979,1580694566780,5.1231,0.9402,-0.2704,6.9503675000000005,0.85933644,9.371843,-1
979,980,1580694566790,5.1231,0.9402,-0.2704,7.2112300000000005,1.000556,10.112313,-1
980,981,1580694566800,5.3778996,1.0977,0.4651,7.1558766,1.0412096,10.673782000000001,-1
981,982,1580694566810,4.8268,0.9088,1.319,6.658792,0.7810269,10.965425,-1
982,983,1580694566820,3.8207998,0.5852,1.5670998999999999,5.6627754999999995,0.46530829999999995,11.206980999999999,-1
983,984,1580694566831,2.7963,0.2598,1.5128,4.667822,0.14786589,11.156452999999999,-1
984,985,1580694566841,1.9971999,0.053299997,1.1839,3.7605345000000003,-0.07006392,10.733933,-1
985,986,1580694566851,1.5186,0.021,0.7556,3.3906302000000004,-0.07829997,10.300717,-1
986,987,1580694566861,1.4204,0.0398,0.4044,3.3435984,-0.029056031,10.028708,-1
987,988,1580694566872,1.5043,0.1215,0.2581,3.4364839,0.09455181,9.890697,-1
988,989,1580694566882,1.5043,0.1215,0.2581,3.6180410000000003,0.26664704,9.813689,-1
989,990,1580694566892,1.7615999,0.4163,-0.103199996,3.6866589,0.41254009999999997,9.464797,-1
990,991,1580694566902,1.7615999,0.4163,-0.103199996,3.5990021,0.40068403,9.398735,-1
991,992,1580694566912,1.1251999,0.38959998,-0.3094,2.9096827999999997,0.40260896,9.294080000000001,-1
992,993,1580694566922,0.4017,0.248,-0.42749998,2.3349595,0.28473762,9.195018,-1
993,994,1580694566932,-0.0815,0.0448,-0.5936,1.8519726000000003,0.10024044,9.035094,d
994,995,1580694566943,-0.5311,-0.1017,-0.7193,1.3693205,-0.09446562,8.878561999999999,-1
995,996,1580694566953,-0.7478,-0.355,-0.7856,1.2013147,-0.2778806,8.835151,-1
996,997,1580694566963,-0.83599997,-0.40809998,-0.7051,1.1403296,-0.29811642,8.934769000000001,-1
997,998,1580694566973,-0.6465,-0.21159999,-0.635,1.5222813999999998,0.052509632,8.969599,-1
998,999,1580694566983,-0.0699,0.1748,-0.6933,2.1453387999999998,0.45451525,8.886606,-1
999,1000,1580694566993,0.4359,0.5457,-0.81219995,2.4690733,0.7682515000000001,8.755221,-1
1000,1001,1580694567004,0.53889996,0.6949,-0.93289995,2.4654724999999997,0.7880179,8.697465,-1
1001,1002,1580694567014,0.38189998,0.6314,-0.87799996,2.2362322999999997,0.7121122,8.783301,-1
1002,1003,1580694567024,-0.0423,0.4218,-0.6167,1.6909385,0.43916363,9.142566,-1
1003,1004,1580694567034,-0.4441,0.2005,-0.3441,1.3813778,0.25843015,9.303828999999999,-1
1004,1005,1580694567044,-0.79039997,0.074499995,-0.3258,0.99553776,0.1799865,9.28277,-1
1005,1006,1580694567055,-0.9727,0.1041,-0.38549998,0.89523035,0.19231185,9.221066,-1
1006,1007,1580694567065,-0.9772,0.105399996,-0.5042,0.9801,0.24579832,9.028621000000001,-1
1007,1008,1580694567075,-0.70559996,0.2857,-0.69189996,1.4475822,0.45972502,8.898978999999999,-1
1008,1009,1580694567085,-0.23629999,0.4125,-0.7132,1.852911,0.55300313,9.059133000000001,-1
1009,1010,1580694567095,0.1284,0.48729998,-0.4802,2.1169531000000004,0.52818006,9.339733,-1
1010,1011,1580694567106,0.3011,0.4306,-0.20879999,2.14961,0.42225100000000004,9.600480000000001,-1
1011,1012,1580694567116,0.2595,0.3461,0.081999995,1.9866990000000002,0.30925423,9.845867,-1
1012,1013,1580694567126,-0.0106999995,0.2402,0.3441,1.6382181999999998,0.14669752,10.080039,-1
1013,1014,1580694567136,-0.2963,0.070199996,0.4798,1.3050411,-0.038939297000000005,10.181419,-1
1014,1015,1580694567146,-0.6556,-0.0459,0.5379999999999999,0.9349358,-0.10047028,10.142624,-1
1015,1016,1580694567156,-0.8893,-0.0087,0.45929998,1.0447723,-0.056752156,10.063031,-1
1016,1017,1580694567167,-0.6231,0.018199998999999998,0.35119998,1.2954834,-0.021519085,9.983112,-1
1017,1018,1580694567177,-0.3443,0.0475,0.3602,1.6227708,-0.006033388000000001,10.089061000000001,-1
1018,1019,1580694567187,-0.067999996,0.092599995,0.5053,1.8760389,-0.0039839516,10.231745,-1
1019,1020,1580694567197,0.1308,0.0955,0.5701,1.9529216,-0.05431007,10.230317999999999,-1
1020,1021,1580694567207,0.2701,0.0647,0.604,2.0843344,-0.06536171,10.516685,-1
1021,1022,1580694567217,0.39479998,0.1169,0.9216,2.147168,-0.049904738,10.796825,-1
1022,1023,1580694567227,0.48839998,0.1593,1.2495999,2.1171349999999998,-0.016184803,11.212256,-1
1023,1024,1580694567238,0.5057,0.2156,1.6280999,2.3021016,0.049119443,11.762828,-1
1024,1025,1580694567248,0.726,0.2613,2.1752,2.3312724,-0.07197928,12.049873,-1
1025,1026,1580694567258,0.6296,0.067099996,2.3613,2.0892188999999997,-0.40745485,11.852611,-1
1026,1027,1580694567268,0.4414,-0.2478,2.1554,2.048728,-0.81422967,11.929312,-1
1027,1028,1580694567278,0.4175,-0.6729999999999999,2.2817,1.9996468999999997,-1.0704763000000002,12.040881,-1
1028,1029,1580694567289,0.4186,-0.8662,2.4155,2.1616385,-0.9596439,12.656286,-1
1029,1030,1580694567299,0.6806,-0.70519996,3.1746,2.4977174,-0.6025057,13.777845000000001,-1
1030,1031,1580694567309,1.026,-0.2591,4.3044,2.8587728,-0.016836027,14.799403,-1
1031,1032,1580694567319,1.4196999,0.2356,5.0899997,3.3568335,0.40481162,15.267536999999999,-1
1032,1033,1580694567329,1.9661,0.6389,5.5526,3.7939477,0.6097649,15.444927999999999,-1
1033,1034,1580694567339,2.5547,0.8422,5.7132998,4.294336,0.72926426,15.227735500000001,-1
1034,1035,1580694567349,2.9624999,0.8911,5.5042995999999995,4.496397,0.63598615,15.41794,-1
1035,1036,1580694567359,3.1685998,0.72639996,5.6896996,4.712067,0.5860048000000001,15.716575,-1
1036,1037,1580694567369,3.4234,0.6058,6.1403,4.834631,0.6075718000000001,16.734215,-1
1037,1038,1580694567379,3.5126,0.55689996,7.0116997,4.5710864,0.61200583,17.423727,-1
1038,1039,1580694567389,3.2082999,0.4881,7.8125,4.1928410000000005,0.60142344,17.805198999999998,-1
1039,1040,1580694567399,2.8839998,0.38979998,8.0919,3.89279,0.5269063,17.557688,-1
1040,1041,1580694567411,2.7039999999999997,0.2312,7.8227,3.8721232000000003,0.61653566,16.607120000000002,-1
1041,1042,1580694567421,2.6669,0.2092,5.9529,3.7774372000000005,0.7865335999999999,15.694231,-1
1042,1043,1580694567431,2.3147,0.2278,5.0899,3.2951300000000003,1.0136476,14.642545000000002,-1
1043,1044,1580694567441,1.5756999,0.047,4.2516,2.4635759999999998,0.97970736,13.802534,-1
1044,1045,1580694567452,0.6056,-0.18599999,3.3974,1.4551288,0.96552414,12.875883,-1
1045,1046,1580694567462,-0.2148,-0.34649998,2.2119,0.7966850000000001,0.9948003000000001,11.885823,-1
1046,1047,1580694567473,-0.62839997,-0.1718,0.9388,0.33663434,1.4682681999999998,10.393813,-1
1047,1048,1580694567483,-0.46299999999999997,0.2561,0.1064,0.5829211,2.1312704,9.39954,-1
1048,1049,1580694567497,0.0037999998,0.498,-0.65849996,1.0310677,2.3828723,8.708917999999999,-1
1049,1050,1580694567507,0.5277,0.514,-1.1803,1.6502466,2.630586,8.016783,-1
1050,1051,1580694567517,0.9902,0.6436,-1.6646999,1.6796282999999999,2.8052669999999997,7.537311,-1
1051,1052,1580694567527,1.0267,0.6771,-2.1207,1.2359826999999999,2.786391,7.137718700000001,-1
1052,1053,1580694567537,0.55039996,0.5553,-2.4701,0.33304304,2.6671216,6.984652499999999,-1
1053,1054,1580694567548,-0.254,0.31739998,-2.5856,-0.36671507,2.3437892999999996,6.9575119999999995,-1
1054,1055,1580694567558,-0.7938,-0.067999996,-2.5743,-0.9776100000000001,2.1170967000000003,6.9806113,-1
1055,1056,1580694567568,-1.2853,-0.3489,-2.4847,-1.3833411,1.7152252000000001,7.495058,-1
1056,1057,1580694567579,-1.4988999,-0.7459,-2.0117,-1.6988009999999998,1.4037588,7.4924054,-1
1057,1058,1580694567589,-1.8270998999999999,-1.2312,-2.1429,-1.7988403000000002,0.8225615,6.115212400000001,-1
1058,1059,1580694567600,-1.786,-1.7887,-3.3453998999999994,-1.0667605,0.83298105,4.4697638,-1
1059,1060,1580694567610,0.0999,-1.4003999,-5.8935,0.06769845,1.4201542999999999,3.5126004,-1
1060,1061,1580694567620,0.5092,-1.1568999,-5.9572997,0.36578614,1.7263535,3.5119394999999995,-1
1061,1062,1580694567630,-0.3023,-1.4411,-5.1963,-0.67942655,1.430593,4.377271,-1
1062,1063,1580694567640,-0.3023,-1.4411,-5.1963,-1.4924209,1.1426184,5.114982,-1
1063,1064,1580694567651,-2.0276,-2.0324,-3.4125,-2.2625206,0.97018796,5.9323144,-1
1064,1065,1580694567661,-2.0276,-2.0324,-3.4125,-2.5266870999999997,0.9645471999999999,5.9708133000000005,-1
1065,1066,1580694567671,-1.8021,-2.0365,-3.7896,-1.9088683000000002,1.052108,5.403693700000001,-1
1066,1067,1580694567681,-1.3007,-2.1308,-4.1401,-1.5192838,0.98968637,5.130937,-1
1067,1068,1580694567692,-0.9967,-2.0956,-4.0822,-1.2768373,1.0634277,5.3044877,-1
1068,1069,1580694567702,-0.8634,-1.9897,-3.7533,-1.2385110000000001,1.1885296,5.62352,-1
1069,1070,1580694567713,-0.82879996,-1.8288,-3.2596,-1.2409434,1.3296438,6.0252957,-1
1070,1071,1580694567723,-0.8282,-1.6859,-2.9919999,-1.2930412,1.4987701999999998,6.453791000000001,-1
1071,1072,1580694567733,-0.89059997,-1.6395998999999999,-2.4603,-1.4296544,1.5501307,7.078352000000001,-1
1072,1073,1580694567744,-0.89059997,-1.6395998999999999,-2.4603,-1.5156254999999998,1.6090567,7.4953449999999995,-1
1073,1074,1580694567754,-1.1089,-1.4984,-1.7694,-1.6286796000000001,1.6886207999999998,7.482723,-1
1074,1075,1580694567765,-1.0747,-1.4175999,-1.9911,-1.4308132,1.7646703000000001,7.1102524,-1
1075,1076,1580694567775,-0.7147,-1.4001,-2.2508,-1.1006049999999998,1.803466,6.985773,-1
1076,1077,1580694567786,-0.3552,-1.3355,-2.1966999,-0.7816781,1.9299947,7.3547482,-1
1077,1078,1580694567796,-0.21509999,-1.1984,-1.6732999,-0.855908,2.0910192,7.919722,-1
1078,1079,1580694567806,-0.3919,-1.0165,-1.1417,-1.1196818000000002,2.3716004,8.429859,-1
1079,1080,1580694567817,-0.5451,-0.81009996,-0.7585,-1.2140231000000001,2.4996614,8.630780999999999,-1
1080,1081,1580694567827,-0.6484,-0.6622,-0.66899997,-1.4231996999999998,2.62891,8.521193499999999,-1
1081,1082,1580694567837,-1.072,-0.5381,-0.96019995,-1.8533037,2.625539,8.1266775,-1
1082,1083,1580694567847,-1.2684,-0.7542,-1.3083999,-1.7708378,2.4145044999999996,7.8730927,-1
1083,1084,1580694567858,-1.0313,-0.8006,-1.3808,-1.4122534,2.597479,7.775936,-1
1084,1085,1580694567868,-0.6929,-0.6369,-1.4719,-1.0119907,2.7826464,7.8556919999999995,-1
1085,1086,1580694567878,-0.2958,-0.46539998,-1.3276,-0.6092094,3.0166939999999998,8.1062975,-1
1086,1087,1580694567888,-0.019199999,-0.2915,-1.1154,-0.4997944,3.1004240000000003,8.24451,-1
1087,1088,1580694567899,0.078,-0.21939999,-0.9246,-0.62103677,3.0592055,8.818361999999999,-1
1088,1089,1580694567909,-0.055099998,-0.27339998,-0.4034,-0.7558495,3.1622424,9.2495775,-1
1089,1090,1580694567919,-0.22209999,-0.1505,0.08549999400000001,-0.9256175999999999,3.1422365,9.611972999999999,-1
1090,1091,1580694567929,-0.3287,-0.1706,0.3875,-1.149351,3.1256494999999997,9.851996,-1
1091,1092,1580694567940,-0.5431,-0.1846,0.6222,-1.1069065,3.2635653,9.392214,-1
1092,1093,1580694567950,-0.484,-0.055,0.17449999,-0.9424056999999999,3.3150117,8.969838000000001,-1
1093,1094,1580694567960,-0.16669999,0.0484,-0.47419998,-0.43924979999999997,3.6055148,8.442855999999999,-1
1094,1095,1580694567971,0.4734,0.3417,-0.86649996,-0.09243534,3.7466767,8.331582000000001,-1
1095,1096,1580694567981,0.431,0.2625,-0.66359997,-0.18920897,3.6943586,8.592588000000001,-1
1096,1097,1580694567991,0.22909999,0.24149999,-0.30679998,-0.36400485,3.6544328,8.941912,-1
1097,1098,1580694568001,0.110199995,0.1277,0.009099999000000001,-0.4964425,3.5296757000000003,9.244827,-1
1098,1099,1580694568011,-0.1349,-0.0341,0.109,-0.7394061,3.386627,9.242989,d
1099,1100,1580694568021,-0.2606,-0.17729999,-0.11409999400000001,-0.83500177,3.2627892000000003,9.025441,-1
1100,1101,1580694568031,-0.2478,-0.2712,-0.29819998,-0.78946406,3.1986343999999995,8.841365,-1
1101,1102,1580694568042,-0.2478,-0.2712,-0.29819998,-0.6572084,3.3411756,8.808086,-1
1102,1103,1580694568052,0.09999999400000001,0.0056,-0.24599999,-0.46442723,3.467733,8.939086999999999,-1
1103,1104,1580694568062,0.1125,-0.0743,-0.16679999,-0.46817178,3.3958015,9.010913,-1
1104,1105,1580694568072,0.1619,-0.0958,0.0986,-0.39199787,3.3822217000000006,9.359231,-1
1105,1106,1580694568083,0.1972,-0.070999995,0.3453,-0.36486676,3.3901798999999997,9.536880499999999,-1
1106,1107,1580694568093,0.1902,-0.109799996,0.33859998,-0.36481887,3.4037025,9.464433,-1
1107,1108,1580694568103,0.25169998,0.0033999997999999997,0.11800000000000001,-0.2633526,3.585499,9.111527,-1
1108,1109,1580694568113,0.2764,0.153,-0.2679,-0.3041498,3.7031786,8.775601,-1
1109,1110,1580694568124,0.1364,0.18349999,-0.47669998,-0.48880023,3.7245352,8.615066,-1
1110,1111,1580694568134,0.0064,0.15429999,-0.66539997,-0.56011873,3.6669307,8.35402,-1
1111,1112,1580694568144,-0.0541,0.0071,-0.88339996,-0.6245419,3.5473545,8.231294,-1
1112,1113,1580694568154,-0.2307,-0.1678,-0.99399996,-0.87383574,3.351978,8.093952999999999,-1
1113,1114,1580694568165,-0.4446,-0.3319,-1.1147,-1.1212716999999999,3.200789,7.791881599999999,-1
1114,1115,1580694568175,-0.6565,-0.4666,-1.5294,-1.2424183000000002,3.1036900000000003,7.377321,-1
1115,1116,1580694568185,-0.7902,-0.57199997,-2.0029,-1.4565173,3.1024163,6.8798537,-1
1116,1117,1580694568195,-1.0144,-0.52919996,-2.3298,-1.7992808999999998,3.1330621,6.603227599999999,-1
1117,1118,1580694568206,-1.4549999,-0.5920000000000001,-2.5693998,-2.2279196,3.0082188,6.4339957000000005,-1
1118,1119,1580694568216,-2.04,-0.7795,-2.7510998,-3.0363457,2.8624213,6.1867995,-1
1119,1120,1580694568226,-2.7719998,-0.88019997,-3.0595999,-3.6398474999999997,2.7177347999999997,5.8327446,-1
1120,1121,1580694568236,-3.4996,-1.1557,-3.7085,-4.434607499999999,2.4347402999999996,4.731977,-1
1121,1122,1580694568246,-4.1678,-1.3651999,-4.7841,-4.9940557,2.3777293999999998,3.7917068,-1
1122,1123,1580694568256,-4.7815,-1.4195,-6.179199700000001,-5.3926425,2.2665045,2.0922642,-1
1123,1124,1580694568266,-4.9712996,-1.8054999,-8.0913,-5.3064513,1.7051218000000001,-0.21396501,-1
1124,1125,1580694568276,-4.6196,-2.3775,-9.915899000000001,-4.676709,1.2056146,-1.8145846,-1
1125,1126,1580694568287,-4.2048,-2.8885,-11.1087,-4.2057605,0.6944334,-1.9571929,-1
1126,1127,1580694568296,-3.931,-3.3629,-10.7336,-3.7992917999999998,0.28873113,-1.1043973,-1
1127,1128,1580694568306,-3.6197998999999994,-3.7847,-9.5962,-3.3502638,-0.03442862,0.17496826,-1
1128,1129,1580694568316,-3.293,-4.0484,-8.2729,-2.801283,-0.46347916,1.5008005,-1
1129,1130,1580694568326,-2.9607,-4.4233,-7.1633997,-2.5819167999999997,-0.7995963,2.2078752999999995,-1
1130,1131,1580694568337,-3.0584,-4.5664,-6.7735,-2.710131,-1.0125846,2.2307064999999997,-1
1131,1132,1580694568347,-3.3311,-4.6306,-6.9342,-2.66127,-1.1947545,2.0804367,-1
1132,1133,1580694568357,-3.2947,-4.7054,-7.026799700000001,-2.1660917,-1.1594737,2.3888962000000005,-1
1133,1134,1580694568367,-2.9289,-4.5038,-6.6983,-1.7815255,-1.4320389999999998,3.0799873,-1
1134,1135,1580694568378,-2.7303,-4.7799,-5.9182997,-1.444192,-1.991813,4.376600700000001,-1
1135,1136,1580694568388,-2.4789,-5.1029,-4.5867,-0.54464257,-1.8817371999999999,5.673185299999999,-1
1136,1137,1580694568398,-1.6430999,-4.7381997,-3.3885998999999996,0.9193351000000001,-1.5104061000000002,6.723578999999999,-1
1137,1138,1580694568409,-0.6128,-4.2507997,-2.5727,2.3388958,-1.3585658,6.7202470000000005,-1
1138,1139,1580694568419,0.6881,-3.8992,-2.6158,3.2926784,-1.0235786,6.9643690000000005,-1
1139,1140,1580694568429,1.7716,-3.2933998,-2.2473,4.0790396,-0.8815354999999999,7.9178452,-1
1140,1141,1580694568439,2.5187,-2.9410000000000003,-0.6408,4.405963400000001,-0.7737581,11.156377,-1
1141,1142,1580694568449,2.5546,-2.5467,2.3288999,4.3059626,-0.5612295999999999,14.3496,-1
1142,1143,1580694568459,2.4457,-2.0764,4.8285,4.8546366999999995,-0.3371515,16.080446,-1
1143,1144,1580694568470,2.9348998,-1.6129,6.5396,6.153836,-0.09481039,16.347244,-1
1144,1145,1580694568481,4.1537,-1.1444,6.7935996,7.9462410000000006,0.3009416,15.560166,-1
1145,1146,1580694568491,5.8763,-0.5862,5.9955997000000005,9.594859,0.77961916,16.312471,-1
1146,1147,1580694568501,9.1083,0.73859996,9.378699000000001,11.521397,1.3753540000000002,19.542220999999998,-1
1147,1148,1580694568511,10.0453,1.6019,12.175799000000001,12.315869000000001,1.9384127,22.263098,-1
1148,1149,1580694568521,10.5125,1.9039999,14.326099,12.694287,1.9752451000000002,24.203770000000002,-1
1149,1150,1580694568532,10.6866,2.0221999,15.2836,12.877808,1.9110136000000002,24.912981,-1
1150,1151,1580694568542,11.2192,2.0507,15.2162,13.487467,1.8175055,24.714634,-1
1151,1152,1580694568552,11.8818,1.8834,14.7112,14.074142000000002,1.5499201,24.196215,-1
1152,1153,1580694568562,12.151199,1.7651,14.3842,14.3859625,1.4429566999999999,23.944727,-1
1153,1154,1580694568572,12.5271,1.7444998999999999,14.2528,14.759143,1.4440005,23.711475,-1
1154,1155,1580694568582,12.6394,1.7038,13.3334,14.818739,1.4213132,22.613216,-1
1155,1156,1580694568592,12.449699,1.5652,11.6142,14.569885999999999,1.3183718999999998,20.795547,-1
1156,1157,1580694568602,11.9269,1.1549,9.5864,13.925510000000001,0.9676597,18.748457000000002,-1
1157,1158,1580694568612,11.001599,0.5912,7.5573997,12.895257,0.4533852,16.715542000000003,-1
1158,1159,1580694568622,11.001599,0.5912,7.5573997,12.120445,0.06448064,15.383091,-1
1159,1160,1580694568633,8.497499000000001,-0.9231,2.9968,10.297213000000001,-0.75497794,12.176565,-1
1160,1161,1580694568643,7.2425,-1.5109,0.8908,9.058413999999999,-1.1402721000000002,10.032347,-1
1161,1162,1580694568653,6.2289,-2.0516999,-1.5514,8.087392999999999,-1.4717253000000001,7.538144,-1
1162,1163,1580694568663,5.4136996,-2.4117,-3.5641,7.151269999999999,-1.6515107,5.501023,-1
1163,1164,1580694568673,4.4772,-2.8118,-4.4824,6.034671299999999,-1.8988031000000003,4.809147,-1
1164,1165,1580694568683,3.2387,-3.1568,-5.223,4.9766449999999995,-2.044677,3.8404336000000003,-1
1165,1166,1580694568694,2.4733999,-3.4417998999999995,-6.4192995999999996,4.3130107,-2.151554,2.602229,-1
1166,1167,1580694568704,1.8404,-3.5960998999999996,-7.5241,3.7648629999999996,-2.1498399,1.7703589,-1
1167,1168,1580694568714,1.1844,-3.7284,-8.2618,2.9552302000000004,-2.25846,0.99076855,-1
1168,1169,1580694568724,0.52309996,-4.0106997,-8.825399,2.1145875,-2.38745,0.5035868,-1
1169,1170,1580694568734,-0.29009998,-4.1261997,-9.3398,1.5563653,-2.4230182,-0.40310696,-1
1170,1171,1580694568744,-0.15799999,-4.1127,-10.7528,2.0438151,-2.1267886000000003,-1.9427415000000001,-1
1171,1172,1580694568755,0.49609998,-3.6092,-12.0615,2.5356224,-1.5274433,-2.9886436,-1
1172,1173,1580694568765,0.3811,-3.253,-12.768499,1.9358557,-1.282478,-3.4777217000000005,-1
1173,1174,1580694568775,-1.0343,-3.3267,-12.830899,0.10882126,-1.4850085,-3.3208919000000003,-1
1174,1175,1580694568785,-3.2036998,-3.7598998999999997,-12.509999,-2.559143,-2.0802355,-2.9765196,-1
1175,1176,1580694568795,-5.3325,-4.1774,-12.2423,-4.0489397,-2.3834182999999998,-2.716758,-1
1176,1177,1580694568805,-6.8690996,-4.5113,-11.837299,-5.4694676,-2.9455671000000003,-2.0556137999999997,-1
1177,1178,1580694568816,-7.7246,-4.9607,-11.0702,-6.0599256,-3.4004654999999997,-1.0330405,-1
1178,1179,1580694568826,-8.1593,-5.2297,-10.031199,-6.296875,-3.8223812999999995,0.07487147,-1
1179,1180,1580694568836,-8.375999,-5.611799700000001,-9.055699,-6.398973000000001,-4.3980627,0.884964,-1
1180,1181,1580694568846,-8.5933,-5.9814997000000005,-8.3207,-6.846019,-4.9141083,1.6735374,-1
1181,1182,1580694568856,-9.3511,-6.3928,-7.3374996,-8.20854,-5.746256400000001,3.3849607,-1
1182,1183,1580694568867,-10.589,-6.8547997,-5.9519,-9.3794,-6.360867,4.5452867,-1
1183,1184,1580694568877,-12.3944,-7.5379996,-4.2633,-11.53398,-7.667728,6.944238,-1
1184,1185,1580694568887,-14.1889,-8.462299,-2.0930998,-13.059643,-8.807167,9.460303999999999,-1
1185,1186,1580694568897,-15.7028,-9.250199,0.44509998,-13.939885,-9.484496,11.353956,-1
1186,1187,1580694568907,-16.6363,-9.658299000000001,2.7371,-13.99274,-10.016411,14.085366,-1
1187,1188,1580694568917,-16.2678,-9.6675,5.0499,-12.95854,-9.96574,16.202885000000002,-1
1188,1189,1580694568928,-15.271199,-9.1854,7.138,-12.007831,-9.470897,18.37228,-1
1189,1190,1580694568938,-14.3271,-8.3709,9.4312,-10.601554,-8.951986999999999,20.962605,-1
1190,1191,1580694568948,-12.8636,-7.4992,12.1247,-9.347653,-8.304844000000001,23.35381,-1
1191,1192,1580694568958,-11.789499000000001,-6.593999999999999,14.3707,-9.02252,-8.218967999999998,24.665113,-1
1192,1193,1580694568968,-11.5554,-6.3908,15.535998999999999,-8.766456,-8.889421,25.168806,-1
1193,1194,1580694568978,-11.255999999999998,-6.7124996,15.933,-8.356397,-8.934586,24.920498000000002,-1
1194,1195,1580694568989,-10.6142,-6.5115,15.649698999999998,-7.2165837,-8.889508,24.91253,-1
1195,1196,1580694568999,-9.1665,-6.2049,15.8152,-4.252016,-8.3743725,25.823055,-1
1196,1197,1580694569009,-6.4905,-5.5344,16.6964,-1.3271443,-7.6306753,27.049584999999997,-1
1197,1198,1580694569020,-3.4779,-4.6099997,17.9578,0.9074694999999999,-7.234176,27.782402,-1
1198,1199,1580694569030,1.5294,-3.2712998,18.7381,3.8970803999999997,-6.458607700000001,27.630936,-1
1199,1200,1580694569040,3.3209998999999994,-2.8033,17.7281,5.508426,-6.011036,26.507662,-1
1200,1201,1580694569050,4.7585,-2.1241,16.6348,6.7884717000000006,-5.306019999999999,25.575982999999997,-1
1201,1202,1580694569061,6.0136,-1.3416,16.2666,7.937564,-4.499011,25.309910000000002,-1
1202,1203,1580694569071,7.1354,-0.6404,15.8791,8.984491,-3.7918792000000003,24.885382,-1
1203,1204,1580694569081,8.1043,-0.52309996,15.108998999999999,9.72541,-3.72646,24.068182,-1
1204,1205,1580694569091,8.0618,-0.8541,14.006599,9.437177,-3.9207926,22.9938,-1
1205,1206,1580694569101,7.6412997,-0.9784,12.8873,9.018201,-3.798104,21.930477,-1
1206,1207,1580694569111,7.6809997999999995,-0.8451,11.536799,9.130547,-3.4447773,20.608723,-1
1207,1208,1580694569121,7.8142,-0.67539996,10.0658,9.178105,-3.1295664,19.473202,-1
1208,1209,1580694569131,7.5281997,-0.4928,8.212299,8.851823,-2.6904986,17.691858,-1
1209,1210,1580694569141,7.5281997,-0.4928,8.212299,7.943071000000001,-2.6844747000000004,15.125494,-1
1210,1211,1580694569151,6.8445,-0.78999996,6.0353,7.3662977,-2.8797266,13.713039000000002,-1
1211,1212,1580694569161,5.3128,-1.9861,1.3865,6.5038395,-3.3096582999999997,11.045869999999999,-1
1212,1213,1580694569172,5.3420997,-2.6128,-0.2713,6.503667,-3.6254150000000003,9.429256,-1
1213,1214,1580694569182,5.3206,-2.9833,-1.4467,6.4310746,-3.708561,8.117349,-1
1214,1215,1580694569192,5.2592,-2.9656,-2.0523,6.4701,-3.2948236000000004,7.6330214000000005,-1
1215,1216,1580694569202,5.8037,-2.5481,-2.1188,7.107695,-2.5713725,7.609549,-1
1216,1217,1580694569212,6.6092,-1.9887999,-2.5212998,7.8893065,-1.7780011999999998,7.053433,-1
1217,1218,1580694569222,7.0779996,-1.6077,-3.6639,8.329025,-1.2338278,5.747118,-1
1218,1219,1580694569232,7.4852996,-1.4939,-5.2532,8.705594999999999,-0.9268146,4.212473999999999,-1
1219,1220,1580694569242,7.884999799999999,-1.4151,-6.2499,9.096941000000001,-0.60501474,3.3349123,-1
1220,1221,1580694569252,7.884999799999999,-1.4151,-6.2499,9.214936999999999,-0.47348690000000004,3.037964,-1
1221,1222,1580694569262,8.3757,-1.5846,-6.4121,9.633339,-0.53425175,3.4109426,-1
1222,1223,1580694569272,8.669499,-1.9174999,-5.9735,9.753355,-0.7642196,3.794235,-1
1223,1224,1580694569282,8.414,-2.4854998999999998,-5.5562997,9.522947,-1.1029129999999998,4.1013055,-1
1224,1225,1580694569292,7.9979997,-2.8321998,-4.7383,9.048799,-1.3566983999999997,5.054543,-1
1225,1226,1580694569302,8.063499,-2.9280999,-4.1946,9.18795,-1.3464223,5.4613466,-1
1226,1227,1580694569312,8.670199,-3.0238,-4.1275997,9.897801,-1.2354176000000001,5.4808636,-1
1227,1228,1580694569322,9.8909,-2.6729,-4.1432,11.24772,-0.75332123,5.3601294,-1
1228,1229,1580694569332,9.8909,-2.6729,-4.1432,12.601813,-0.6280853,4.724574,-1
1229,1230,1580694569342,12.6325,-2.9146,-5.7306,13.765587,-0.8642015,3.6266312999999997,-1
1230,1231,1580694569352,12.7105,-3.4659998,-6.3278,13.569876,-1.2928593000000002,3.0673077,-1
1231,1232,1580694569362,11.547899000000001,-4.1168,-6.8603,12.196906,-1.836324,2.532759,-1
1232,1233,1580694569372,10.1136,-4.6563,-6.9866,10.787229,-2.2111218,2.5338604,-1
1233,1234,1580694569384,9.066199000000001,-4.8073,-6.3540998,9.592523,-2.2685732999999995,3.3802296999999997,-1
1234,1235,1580694569394,8.2753,-4.8988,-5.7756,8.868592999999999,-2.279893,3.6907864000000004,-1
1235,1236,1580694569404,7.8940997,-4.9024,-5.7089,8.676156,-2.2252955,3.750287,-1
1236,1237,1580694569414,8.1378,-4.8223,-5.3971995999999995,9.168787,-1.9128906000000003,4.1451006,-1
1237,1238,1580694569424,9.1385,-4.1705,-5.1043,10.625563,-0.7633194000000001,4.457726,-1
1238,1239,1580694569435,10.3621,-3.0475,-4.8791,11.485551,0.25454193,4.465406400000001,-1
1239,1240,1580694569445,10.8245,-2.4013999,-5.0179,11.202336,0.42911756,4.137142,-1
1240,1241,1580694569455,10.0499,-2.5586998,-5.4946,10.114621000000001,0.040289626,3.6128697,-1
1241,1242,1580694569466,8.4233,-3.1155999,-5.9460998,8.310773,-0.5072643,3.6405462999999996,-1
1242,1243,1580694569476,6.6849,-3.5767,-5.000099700000001,6.425050700000001,-0.9983341999999998,5.205119,-1
1243,1244,1580694569486,5.3385997000000005,-3.9545999,-3.7047,5.255158,-1.2547628,6.274954,-1
1244,1245,1580694569496,4.3859,-3.9359,-2.7825,4.704865,-0.94602567,7.0394416,-1
1245,1246,1580694569506,4.1032,-3.5539,-2.2914999,4.539426000000001,-0.75977594,7.055176299999999,-1
1246,1247,1580694569516,3.7652,-3.4542,-2.5073,3.5392047999999994,-0.9387857,7.051144,-1
1247,1248,1580694569526,2.7858,-3.7249,-2.227,1.7867351999999999,-1.7587134999999998,8.049564,-1
1248,1249,1580694569536,0.8724,-4.535,-1.1779,-0.15002067,-2.5549102,8.968957000000001,-1
1249,1250,1580694569546,-1.4447,-5.4898996,-0.0925,-2.433773,-3.6807022000000003,9.883974,-1
1250,1251,1580694569556,-3.6488,-6.5811,0.6015,-4.685031400000001,-4.802922,10.283795,-1
1251,1252,1580694569566,-5.7967,-7.492999999999999,0.84749997,-6.294893,-5.2904005,10.439371000000001,-1
1252,1253,1580694569576,-7.5691,-7.7067,1.077,-8.125154499999999,-5.3925753,10.821226,-1
1253,1254,1580694569587,-8.7984,-7.5715,1.4161999,-8.98382,-5.157483999999999,11.134072,-1
1254,1255,1580694569597,-9.467,-7.2008996,1.6775,-9.419632,-4.7041273,11.239072,-1
1255,1256,1580694569607,-9.6762,-6.6713,1.6151999,-9.124130000000001,-4.447287,11.05696,-1
1256,1257,1580694569617,-9.2963,-6.526,1.4531,-9.091234,-4.460388,11.135547,-1
1257,1258,1580694569627,-9.4465,-6.4544997,1.7587,-9.43212,-4.4474883,11.989635,-1
1258,1259,1580694569637,-9.632299,-6.3318996,2.543,-9.352097,-4.244728,12.909344,-1
1259,1260,1580694569648,-9.404099,-5.9453998,3.4266,-8.786711,-3.6241510000000003,13.441193,-1
1260,1261,1580694569659,-8.8038,-5.292000000000001,3.7851,-7.9486156,-3.1673086,13.027168,-1
1261,1262,1580694569669,-7.8552,-4.7752,3.1490998,-7.262073,-2.8182626,11.927616,-1
1262,1263,1580694569679,-7.273699799999999,-4.4138,2.0867,-6.958326,-2.3921330000000003,11.337810000000001,-1
1263,1264,1580694569689,-7.0016,-3.9415998,1.6158999,-6.690682400000001,-1.7546722,11.188698,-1
1264,1265,1580694569699,-6.7685,-3.2998998,1.4896,-6.48346,-1.2414606000000001,11.044587,-1
1265,1266,1580694569709,-6.5382,-2.8422,1.3629,-5.923877200000001,-0.8463120000000001,10.934827,-1
1266,1267,1580694569719,-6.0495996,-2.5105999,1.2633,-5.5596333,-0.6442318,10.640512,-1
1267,1268,1580694569730,-5.6566,-2.2977,0.9659,-5.205952,-0.47934790000000005,10.376777,-1
1268,1269,1580694569740,-5.1459,-2.0635,0.66819996,-4.520923000000001,-0.16948074,10.193381,-1
1269,1270,1580694569750,-4.0717998,-1.4563999,0.1548,-4.075985,0.17477672,9.835466,-1
1270,1271,1580694569760,-3.3109998999999997,-1.1166999,-0.040599998,-3.340438,0.52557516,9.638874000000001,-1
1271,1272,1580694569771,-2.7819,-0.6824,-0.1669,-2.8141925,0.9667212,9.515956,-1
1272,1273,1580694569781,-2.7228,-0.4331,-0.16589999,-2.7594418999999997,1.2150861000000002,9.51111,-1
1273,1274,1580694569791,-2.7666,-0.2864,-0.0187,-2.7906334,1.4043813,9.674969,-1
1274,1275,1580694569801,-2.7666,-0.2864,-0.0187,-2.705448,1.4135463,9.547636,-1
1275,1276,1580694569811,-2.5737997999999997,-0.35009998,-0.1286,-2.6833255,1.2919496000000001,9.55752,-1
1276,1277,1580694569821,-2.5209,-0.3557,0.20279999,-2.6631567000000005,1.2532401000000002,9.950847999999999,-1
1277,1278,1580694569831,-2.3632,-0.3909,0.4854,-2.543437,1.2098763000000001,10.169438000000001,-1
1278,1279,1580694569842,-1.8483,-0.17539999,0.6608,-1.9626708,1.483093,10.344215,-1
1279,1280,1580694569851,-1.5137999,0.0433,0.47439998,-1.7426437,1.6386874,10.159958,d
1280,1281,1580694569861,-1.5137999,0.0433,0.47439998,-1.4729896,1.560445,9.663717,-1
1281,1282,1580694569871,-1.2347,-0.0392,-0.0149,-1.2751136,1.4925933,9.523282,-1
1282,1283,1580694569881,-0.97499996,-0.1346,0.0072999996999999995,-1.2005676,1.4800668,9.683492999999999,-1
1283,1284,1580694569891,-0.8006,-0.2287,0.3611,-1.0018394,1.3920654,10.101549,-1
1284,1285,1580694569902,-0.8095,-0.3288,0.6064,-1.0355688,1.266753,10.310543,-1
1285,1286,1580694569912,-0.9575,-0.436,0.5572,-1.1650473,1.1832815,10.243028,-1
1286,1287,1580694569922,-1.0203,-0.5133,0.4003,-1.2442666,1.1058722,10.029531500000001,-1
1287,1288,1580694569932,-0.9938,-0.50339997,0.1356,-1.2022915,1.1230147,9.785667,-1
1288,1289,1580694569942,-0.9425,-0.45709997,0.038,-1.1441125,1.1681979999999998,9.699218,-1
1289,1290,1580694569952,-0.75299996,-0.44299999999999995,0.0094,-0.9190190999999999,1.2143583,9.686835,-1
1290,1291,1580694569962,-0.44509998,-0.34399998,-0.0285,-0.6457928000000001,1.2951099,9.64644,-1
1291,1292,1580694569972,-0.1823,-0.29569998,-0.056599997,-0.28024608,1.3958674999999998,9.630714,-1
1292,1293,1580694569983,0.1761,-0.0896,0.023,0.12762053,1.5993841999999998,9.727929,-1
1293,1294,1580694569993,0.39049998,-0.0173,0.19049999,0.27619509999999997,1.6625146,9.900369,-1
1294,1295,1580694570003,0.28939998,-0.0088,0.42589998,0.16945203,1.6623421999999999,10.179811,-1
1295,1296,1580694570013,0.23689999,-0.035299998,0.5823,0.14326903,1.6194093,10.265628,-1
1296,1297,1580694570023,0.0929,-0.1695,0.51309997,-0.14288595,1.4168215,10.157764,-1
1297,1298,1580694570034,-0.19559999,-0.34489998,0.46399999999999997,-0.3787723,1.2844508999999997,10.127397,-1
1298,1299,1580694570044,-0.38619998,-0.4534,0.4445,-0.5875179,1.1490253000000001,10.150831,-1
1299,1300,1580694570054,-0.5098,-0.5538,0.5136,-0.69822586,1.0807523,10.213223,-1
1300,1301,1580694570064,-0.6828,-0.6454,0.6123,-0.918636,0.97807926,10.332379,-1
1301,1302,1580694570074,-0.88589996,-0.7581,0.71129996,-1.1234169,0.8773983,10.398276,-1
1302,1303,1580694570085,-1.1193,-0.8542,0.69299996,-1.471419,0.76781094,10.312717,-1
1303,1304,1580694570095,-1.4913,-0.95379996,0.5675,-1.734963,0.736083,10.210476,-1
1304,1305,1580694570105,-1.7475,-1.0066998999999999,0.5405,-2.0797663,0.6931884,10.213846,-1
1305,1306,1580694570115,-2.0737997999999997,-1.0404,0.5527,-2.3218202999999997,0.6246185000000001,10.237214,-1
1306,1307,1580694570125,-2.2883,-1.1692,0.68219995,-2.5538661,0.52360237,10.51384,-1
1307,1308,1580694570135,-2.4835,-1.2235999,0.9677,-2.7511772999999997,0.48593676,10.740858,-1
1308,1309,1580694570146,-2.6589,-1.2842,1.1154,-2.9190970000000003,0.39919004,10.7892685,-1
1309,1310,1580694570156,-2.8676,-1.3741,1.0868,-3.2107297999999997,0.39528272,10.693127,-1
1310,1311,1580694570166,-3.0563,-1.3003,0.99009997,-3.3582127,0.45497495,10.655489999999999,-1
1311,1312,1580694570176,-3.1429,-1.3097,0.9923,-3.5295513,0.3958094,10.596602,-1
1312,1313,1580694570186,-3.3957998999999996,-1.4139999,0.9073,-3.825513,0.3463835,10.560422,-1
1313,1314,1580694570196,-3.6499998999999996,-1.3977,0.93109995,-3.978215,0.41521204,10.585513,-1
1314,1315,1580694570206,-3.8356998,-1.4165,0.9068,-4.118323999999999,0.43582132,10.509741,-1
1315,1316,1580694570217,-3.8621,-1.3715998999999999,0.82449996,-3.9442269999999997,0.5501588000000001,10.3359995,-1
1316,1317,1580694570227,-3.6158,-1.27,0.6446,-3.535489,0.8491466999999999,10.048005,-1
1317,1318,1580694570237,-3.2457,-1.0091,0.3665,-3.0902342999999997,1.1305611,9.887134,-1
1318,1319,1580694570247,-2.7988,-0.752,0.2837,-2.6683953,1.3620039,9.960483,-1
