,Seq,Time,ACCx,ACCy,ACCz,ADGx,ADGy,ADGz,Keydown
0,1,1583238063375,-1.1535,-0.0061,0.5843,2.3027337,6.752683,5.8387685,-1
1,2,1583238063385,-1.1535,-0.0061,0.5843,2.7835085,8.3614235,3.3579252,-1
2,3,1583238063395,-0.1748,-0.4042,0.55399996,2.6327024,8.277301,4.1623,-1
3,4,1583238063405,-0.7737,-0.49069998,0.92789996,2.0601053,8.163912,4.5175233,-1
4,5,1583238063415,-0.85279995,-0.5743,1.0812,2.0822084,8.120538999999999,4.6752725,-1
5,6,1583238063426,-0.5144,-0.38619998,1.0573,2.4685943,8.2946825,4.686305,-1
6,7,1583238063436,-0.0058,-0.2197,0.7389,2.9314797,8.417639999999999,4.355551,-1
7,8,1583238063446,0.33139998,-0.0708,0.0099,3.232565,8.495633,3.5726087,-1
8,9,1583238063456,0.35689998,-0.1452,-0.5771,3.1531732000000003,8.378097,3.1894119,-1
9,10,1583238063466,0.20199999,-0.21609999,-0.7543,3.0258017,8.345785000000001,3.1577987999999997,-1
10,11,1583238063477,0.0072999996999999995,-0.123799995,-0.6579999999999999,2.7445211,8.410917,3.3753455000000003,-1
11,12,1583238063487,-0.3015,-0.15519999,-0.1418,2.4664109,8.344664,4.0009027,-1
12,13,1583238063497,-0.3705,-0.23279999,0.4159,2.405713,8.313941999999999,4.585969,-1
13,14,1583238063507,-0.30679998,-0.22569999,0.6857,2.419973,8.215836999999999,4.8555082999999994,-1
14,15,1583238063517,-0.28329998,-0.3694,0.6685,2.4410417,8.086253,4.718215,-1
15,16,1583238063527,-0.0686,-0.2868,0.1873,2.7712886,8.19699,4.2192154,-1
16,17,1583238063538,0.2967,-0.196,-0.39139998,3.0541297999999997,8.245994999999999,3.5997877000000003,-1
17,18,1583238063548,0.4332,-0.095199995,-1.0116999,3.178207,8.376086,3.0723066,-1
18,19,1583238063558,0.45859998,0.011399999,-1.318,3.1483369999999997,8.470035000000001,2.854377,-1
19,20,1583238063569,0.4359,0.0699,-1.3812,3.2745495,8.423596,2.8829925,-1
20,21,1583238063579,0.61719996,-0.083,-1.3040999,3.487222,8.31987,2.976328,-1
21,22,1583238063589,0.7242,-0.0862,-1.2386,3.5894735,8.331449000000001,2.876394,-1
22,23,1583238063599,0.8236,-0.0805,-1.4599999,3.7957672999999996,8.370225,2.413384,-1
23,24,1583238063609,0.9741,0.01,-2.0023,3.8947724999999997,8.393113,1.6806721999999998,-1
24,25,1583238063619,1.071,-0.00049999997,-2.7993,4.1488357,8.509778,0.99037594,-1
25,26,1583238063630,1.2969998999999999,0.163,-3.2609,4.519458,8.719022,0.6835063,-1
26,27,1583238063640,1.6092,0.3841,-3.4345,4.8746233,8.921141,0.55630714,-1
27,28,1583238063650,1.9296,0.6041,-3.4083,5.4126863,9.221996,0.5939057,-1
28,29,1583238063660,2.2738,0.9399,-3.1657999,5.600143,9.570994,0.784034,-1
29,30,1583238063670,2.2949,1.2804999,-2.9782999,5.8861065,10.001844,0.6241492,-1
30,31,1583238063680,2.6248999,1.7167,-2.9152,6.649742,10.555978,0.5371823,-1
31,32,1583238063691,2.9591,2.1169999,-2.5421999,7.2477465,10.8200865,0.31265402,-1
32,33,1583238063702,3.5016,2.3399,-2.8063998,7.742609,10.913202,-0.10159077,-1
33,34,1583238063712,4.1412,2.5548,-3.3509,8.977960000000001,11.500769,-0.73253953,-1
34,35,1583238063723,5.4037,3.1541997999999998,-3.8581,10.874464,12.188967,-1.2405508,-1
35,36,1583238063733,7.2518997,3.8495,-4.4048,12.099414,12.579155,-1.3989896000000002,-1
36,37,1583238063743,8.229,4.1818,-4.3788,12.268091,12.663689999999999,0.38452795,-1
37,38,1583238063753,8.309899,4.2722,-2.8144,11.810845,12.767167,3.2829006,-1
38,39,1583238063764,7.8901,4.3912,-0.0233,11.630333,12.624798,6.2604256,-1
39,40,1583238063773,7.752999999999999,4.2699,2.8602998,11.70032,12.864247,8.5909605,-1
40,41,1583238063783,7.8357997,4.5866,5.5188,9.7105465,11.438336999999999,11.004269,-1
41,42,1583238063793,5.4992,2.7029998,7.7667,8.538614,10.581088000000001,12.249856,-1
42,43,1583238063803,4.7875,2.0233,9.014999000000001,7.2551684000000005,8.96325,14.435839000000001,-1
43,44,1583238063813,3.7310998,0.5638,10.7619,5.748986,7.9038343,15.343538,-1
44,45,1583238063824,2.3353999,-0.5158,11.6133995,4.7564263,7.229272999999999,16.362251,-1
45,46,1583238063834,1.2916,-1.3871,12.925999999999998,4.0331573,6.3680596,18.457888,-1
46,47,1583238063844,0.7406,-2.2286,15.0602,3.6716807,5.8469377,21.261152,-1
47,48,1583238063854,0.5865,-2.5990999,17.3086,3.3387334,5.3109236,23.200552,-1
48,49,1583238063864,-0.0797,-3.556,20.4223,2.5783541000000003,4.777457,24.802502,-1
49,50,1583238063874,-0.71889997,-3.9733998999999995,20.649199,1.8501338,4.2961364,24.562383999999998,-1
50,51,1583238063884,-0.71889997,-3.9733998999999995,20.649199,1.4868854999999999,3.8798517999999995,23.946325,-1
51,52,1583238063894,-1.2763,-4.8153996,19.509698999999998,0.76018775,2.9695284,21.868965,-1
52,53,1583238063904,-1.7174,-5.6164,17.8001,0.20293254,2.4164295,20.149296,-1
53,54,1583238063915,-2.1251,-6.2532,16.1721,-0.49785987,1.9643947,18.287851,-1
54,55,1583238063925,-3.2215998,-7.3465996,12.6163,-1.3492476,1.4329584999999998,15.944052,-1
55,56,1583238063936,-3.6571,-7.8595996,11.1064,-1.9450015999999999,1.0287023000000002,14.407606,-1
56,57,1583238063946,-4.2388997,-8.3248,9.9619,-2.7633204,0.6579745,13.174449,-1
57,58,1583238063956,-4.8399997,-8.5731,8.9983,-3.4237468,0.5269159000000001,12.188315,-1
58,59,1583238063966,-5.0523996,-8.8393,8.4393,-3.7744400000000002,0.2711673,11.593136999999999,-1
59,60,1583238063976,-5.2890997,-9.2727995,8.1322,-4.1746163,-0.16536272,11.171901,-1
60,61,1583238063986,-5.4449,-9.7796,7.5089999999999995,-4.4558773,-0.6920871,10.374842,-1
61,62,1583238063997,-5.5232997,-10.4414,6.6292,-4.7347636,-1.3507416,9.143303,-1
62,63,1583238064007,-5.7945,-11.1334,5.4719996,-5.0681224,-1.9068284,8.084223,-1
63,64,1583238064017,-5.8009996,-11.5425,4.404,-5.084882299999999,-2.1959522000000002,6.9196258,-1
64,65,1583238064027,-5.517299700000001,-11.7752,3.5098998999999997,-4.834477400000001,-2.4126754,5.696696299999999,-1
65,66,1583238064038,-5.2346997,-12.045,2.6244,-4.608857599999999,-2.6925576,4.6668644,-1
66,67,1583238064048,-5.0474997,-12.3398,1.8055999,-4.54611,-2.9187713,3.6738644,-1
67,68,1583238064058,-5.0547,-12.698,0.8813,-4.45017,-3.263182,2.5575533,-1
68,69,1583238064068,-4.5263,-12.9135,-0.0712,-3.5064712,-3.4649365,1.351613,-1
69,70,1583238064078,-3.6641,-13.1608,-0.83349997,-2.6280386,-3.64341,0.4511059,-1
70,71,1583238064089,-2.9150999,-13.2913,-1.7336999,-2.1605562999999997,-3.7329720999999996,-0.47477020000000003,-1
71,72,1583238064099,-2.5944,-13.366899499999999,-2.9062,-1.8656865000000002,-3.7024220999999997,-1.8937848000000002,-1
72,73,1583238064109,-2.5472999,-13.3319,-4.3194,-1.7687213,-3.6066922999999997,-3.4341855000000003,-1
73,74,1583238064119,-2.5212,-13.1664,-5.624399700000001,-1.4957153,-3.319053,-4.93739,-1
74,75,1583238064129,-2.273,-12.8882,-6.5425,-0.9594811,-3.0457597,-5.8259644999999995,-1
75,76,1583238064139,-1.8619999999999999,-12.6123,-7.1145,-0.46906242,-2.6768515,-6.1447954000000005,-1
76,77,1583238064150,-1.66,-12.111199000000001,-7.0688996,-0.23595338,-2.0632367,-6.029078500000001,-1
77,78,1583238064160,-1.6172999,-11.4916,-6.8638,0.41203254,-1.4781897,-6.0962315,-1
78,79,1583238064170,-0.8157,-10.7821,-7.0827,1.8861234,-0.61932254,-6.455083999999999,-1
79,80,1583238064180,0.54829997,-9.844,-7.4656997,3.5287278,0.10119812,-7.112024000000001,-1
80,81,1583238064190,1.9049,-9.1977,-8.1556,5.291253,0.7487914000000001,-7.94534,-1
81,82,1583238064200,3.5147998,-8.2846,-8.997499000000001,7.340249000000001,2.0700173,-8.832555000000001,-1
82,83,1583238064211,5.3322,-6.732199700000001,-9.820399,9.548403,3.3561822999999995,-9.93565,-1
83,84,1583238064221,7.187999700000001,-5.5028,-11.067699000000001,11.157936999999999,4.495755,-10.987633,-1
84,85,1583238064231,7.7574997,-4.5007,-11.622,11.079483999999999,5.175326,-10.760778,-1
85,86,1583238064241,7.1766,-3.5723,-11.0498,10.54531,5.9777083,-9.55545,-1
86,87,1583238064251,6.5958,-2.9320998,-10.0522995,10.953052,6.229578500000001,-9.167810000000001,-1
87,88,1583238064261,6.976,-2.5472,-9.867499,12.453747,6.6938815,-9.532045,-1
88,89,1583238064272,8.3295,-1.8938999,-10.3614,14.386365,7.486525,-10.161394,-1
89,90,1583238064282,10.040199000000001,-0.8642,-11.0028,16.290579,8.766944,-10.513926,-1
90,91,1583238064292,11.565,0.65749997,-11.2864,17.662266,10.239053,-10.582448,-1
91,92,1583238064302,12.660299,2.273,-11.411799,19.060392,11.489449,-10.374086,-1
92,93,1583238064312,13.823998999999999,3.6717,-11.1974,20.320747,12.735897999999999,-10.084731,-1
93,94,1583238064323,14.7668,5.0434,-10.977099,20.964407,13.727289,-9.983668,-1
94,95,1583238064333,15.111799,6.0868998,-10.934999000000001,21.111698,14.243585000000001,-9.981311999999999,-1
95,96,1583238064343,15.045898999999999,6.5937,-10.9824,21.095732,14.193767000000001,-10.008395,-1
96,97,1583238064353,14.8996,6.6542997,-11.0664,21.51012,14.076239999999999,-9.347136,-1
97,98,1583238064363,15.2155,6.6267,-10.4885,21.826078,14.07714,-8.046911999999999,-1
98,99,1583238064374,15.53,6.7377,-8.8931,22.218689,14.191631,-5.534542,-1
99,100,1583238064384,15.7653,6.9164996,-6.8802,22.345860000000002,14.019928,-3.035254,-1
100,101,1583238064394,15.844299,6.8068,-4.4989,22.39112,13.692814000000002,-0.30686963,-1
101,102,1583238064404,15.864699,6.5336,-1.8963,22.322857,13.152068,2.3532607999999997,-1
102,103,1583238064415,15.776299,6.0249,0.65779996,21.918447,12.662071000000001,5.7716064000000005,-1
103,104,1583238064425,15.4795,5.6122,3.3976998,21.635098,12.20385,8.944861999999999,-1
104,105,1583238064435,14.1858,4.6818,9.3277,20.300655,11.737459,11.584364,-1
105,106,1583238064446,14.1858,4.6818,9.3277,18.685728,11.369000999999999,12.614061999999999,-1
106,107,1583238064456,10.649000000000001,3.7937,10.907499000000001,16.693428,11.047584,12.696078,-1
107,108,1583238064466,9.7899,3.2547,10.8414,15.848697,10.54844,12.642389999999999,-1
108,109,1583238064476,9.219399000000001,2.4629998,11.0175,15.093039000000001,9.864532,12.876937,-1
109,110,1583238064486,8.3889,1.9094,11.4843,14.122745000000002,9.48216,13.387667,-1
110,111,1583238064497,7.7613997,1.3679,12.124499,13.35639,9.00104,14.035289,-1
111,112,1583238064507,6.957000000000001,0.4748,12.6945,12.04295,7.965489999999999,14.599056,-1
112,113,1583238064517,6.957000000000001,0.4748,12.6945,10.3609085,6.930965,14.576887,-1
113,114,1583238064527,4.0652,-1.7278,12.6235,8.567364,6.173564,14.214873,-1
114,115,1583238064538,2.7598,-2.4854,12.0921,7.104965700000001,5.563416,13.476894,-1
115,116,1583238064548,1.4951999,-3.339,11.1832,5.6107926,4.8190584,12.457922,-1
116,117,1583238064558,0.35779998,-4.1679997,10.1452,4.3289657,4.1733427,11.380962,-1
117,118,1583238064568,-0.4122,-4.9202,9.0465,3.442728,3.5863894999999997,10.192366,-1
118,119,1583238064578,-0.9662,-5.5643997,7.7787,2.564918,3.1377832999999997,8.9286,-1
119,120,1583238064588,-1.726,-5.9631,6.7714,1.4975061,2.9769982999999995,8.087872500000001,-1
120,121,1583238064599,-2.4864,-6.1749997,6.1891,0.36045185,2.7510335,7.534783,-1
121,122,1583238064609,-3.1309,-6.5435,5.7675,-0.34826058,2.5086255,7.081091000000001,-1
122,123,1583238064619,-3.7773,-6.8926997000000005,5.0378,-1.5503893,2.211323,6.0324116,-1
123,124,1583238064630,-4.6809998,-7.242999999999999,4.0517,-2.8855014,1.9137046000000002,4.926337999999999,-1
124,125,1583238064640,-5.7669,-7.5453,2.9285,-3.948211,1.7709622,3.9248819999999998,-1
125,126,1583238064650,-6.3943996,-7.7205997,1.9451,-4.564335,1.6729916,2.9771516,-1
126,127,1583238064660,-6.6303997,-7.8662996,1.1409999,-4.888768700000001,1.5526973,2.2077606,-1
127,128,1583238064670,-6.6731997000000005,-8.0229,0.3489,-4.978953400000001,1.4953321000000002,1.4606736999999999,-1
128,129,1583238064681,-6.4934998,-8.054299,-0.2262,-4.852137,1.5037215,1.0309145,-1
129,130,1583238064691,-6.2170997,-8.0988,-0.5387,-4.655602,1.5347598999999998,0.70084983,-1
130,131,1583238064701,-5.8399997,-8.0491,-0.97679996,-4.594846700000001,1.5563364,0.31889809999999996,-1
131,132,1583238064711,-5.8079,-8.1312,-1.2731999,-4.867498,1.3202011999999999,0.19211075,-1
132,133,1583238064721,-6.1175,-8.472899,-1.3215,-5.3819256,0.77646834,0.4099352,-1
133,134,1583238064732,-6.3782997,-8.9772,-1.1359,-5.525913200000001,0.3432519,0.48924077,-1
134,135,1583238064742,-6.3599,-9.361,-1.1474999,-5.269963300000001,0.2587653,0.43388679999999996,-1
135,136,1583238064752,-5.9982,-9.3712,-1.2383,-4.915411,0.38656779999999996,0.1613213,-1
136,137,1583238064762,-5.5483,-9.224999,-1.5989,-4.2146854000000005,0.7170634,-0.27970022,-1
137,138,1583238064773,-4.7830997,-8.8546,-2.0008,-3.7558513,0.9856065999999999,-0.44724646,-1
138,139,1583238064783,-4.7830997,-8.8546,-2.0008,-4.167807,0.90089977,-0.35707122,-1
139,140,1583238064793,-4.8336997,-8.7555,-1.9749999,-5.172615,0.32762256,-0.58036405,-1
140,141,1583238064803,-5.8297,-9.3279,-2.1749,-6.1379475999999995,-0.60186404,-0.9066745999999999,-1
141,142,1583238064813,-6.7792997,-10.243199,-2.4833,-7.146097999999999,-1.5287073999999998,-1.4777491000000003,-1
142,143,1583238064823,-7.79,-11.1751995,-3.0591998,-8.225673,-2.0070593,-1.821116,-1
143,144,1583238064833,-9.150499,-11.749,-3.4738,-9.604349000000001,-2.6596037999999997,-1.5858139,-1
144,145,1583238064843,-10.2999,-12.2856,-3.2461998,-9.926839,-3.0473876,-0.7058394,-1
145,146,1583238064853,-10.7295,-12.7739,-2.1575,-9.608898,-3.7419457,1.4063253,-1
146,147,1583238064863,-10.5057,-13.3129,-0.4653,-8.332991,-4.0296044,2.9011693,-1
147,148,1583238064874,-9.3983,-13.5708,0.92969996,-6.732437599999999,-4.0194529999999995,3.436053,-1
148,149,1583238064884,-7.9985,-13.519,1.3916998999999999,-5.1726727,-4.077699,3.0393434,-1
149,150,1583238064894,-6.6926,-13.528899,0.9396,-3.6220536,-4.203634,2.329587,-1
150,151,1583238064904,-5.4126,-13.585799,0.1741,-2.8692496,-4.448666,1.3496786,-1
151,152,1583238064914,-5.4386,-13.991098999999998,-1.5502,-3.1890576,-4.854512000000001,0.9509960999999999,-1
152,153,1583238064925,-6.2513,-14.179399499999999,-0.2607,-3.5698602,-5.1706715,2.788297,-1
153,154,1583238064935,-6.0041,-14.2912,2.1606,-2.6911306,-5.4748206,5.475778599999999,-1
154,155,1583238064945,-4.5213,-14.424299,4.3458,-0.5970373000000001,-5.790013,7.6980863,-1
155,156,1583238064955,-2.0269,-14.1886,5.3798,2.4912148,-5.711894999999999,8.585989999999999,-1
156,157,1583238064965,1.0882,-13.7121,4.6096,6.2048607,-5.508589,7.6805034,-1
157,158,1583238064975,5.3006997,-13.1008,2.779,11.102316,-5.1287155,5.8237996,-1
158,159,1583238064986,9.9133,-11.556,0.4131,15.947299,-3.686927,3.6829717000000004,-1
159,160,1583238064996,12.8793,-9.1768,-0.66069996,18.861818,-1.7149092000000001,3.2667924999999998,-1
160,161,1583238065006,13.058499000000001,-7.3156996,0.62659997,18.52909,-0.3375154,5.9403496,-1
161,162,1583238065016,11.382,-6.4205,3.9464,16.990128,-0.3229778,10.140852,-1
162,163,1583238065027,9.9496,-6.2077,8.2639,16.358498,-0.5288217,13.824859,-1
163,164,1583238065036,10.2254,-5.7988,11.590899,17.398212,-0.57178324,17.42407,-1
164,165,1583238065046,12.0856,-5.1102,13.4077,19.70289,-0.19567332,18.546618,-1
165,166,1583238065056,13.965198999999998,-3.8312,12.1093,21.364506,0.78819996,16.565185999999997,-1
166,167,1583238065066,14.4396,-1.9755,9.014999000000001,21.77812,2.1746054,13.889070499999999,-1
167,168,1583238065077,14.4396,-1.9755,9.014999000000001,22.492289000000003,3.5216696000000005,12.244972,-1
168,169,1583238065087,16.6258,1.9294,5.772,24.652817000000002,5.3738046,11.384228,-1
169,170,1583238065097,17.6925,3.4836998,5.7412996,25.282587,6.23678,11.862378999999999,-1
170,171,1583238065108,17.379,4.1755,6.5327997,24.344023,6.14152,12.911307,-1
171,172,1583238065118,15.8622,4.0559,7.1302,22.559969,5.4675902999999995,13.302548000000002,-1
172,173,1583238065128,13.804898999999999,3.4368,6.9382997,19.813417,4.182067,12.999347,-1
173,174,1583238065138,11.6213,2.6964998,6.3424997,18.052338,3.508511,12.050227,-1
174,175,1583238065148,10.3695,2.4981,4.9638,17.532097,3.5438400000000003,10.331364,-1
175,176,1583238065159,10.3452,3.0607998,2.9691,17.854097,4.1480117,8.693758,-1
176,177,1583238065169,10.9230995,4.1164,1.0170000000000001,18.29534,4.9725269999999995,7.0594377999999995,-1
177,178,1583238065179,11.1137,4.8515,-0.1608,17.918179000000002,5.1648297,6.379044,-1
178,179,1583238065189,10.3003,4.7292,-0.20269999,16.482843,4.57372,7.149613,-1
179,180,1583238065200,8.7511,4.1691,0.81009996,14.704478,3.6955172999999997,8.396369,-1
180,181,1583238065210,6.9951,3.3506,1.9469,12.94223,2.6608486,9.526606,-1
181,182,1583238065220,5.4790998,2.4891999,2.9062997999999998,11.8085,2.000911,10.228021,-1
182,183,1583238065230,4.9409,2.3071,3.2031,12.125933,2.2125106,9.989308,-1
183,184,1583238065240,5.7569,2.7777998,2.6655,13.422767000000002,2.7487733,9.076505000000001,-1
184,185,1583238065250,7.095,3.3557,1.5461,14.303220000000001,3.213373,7.8447266,-1
185,186,1583238065261,7.4968996,3.7315998,0.3328,13.798751999999999,3.3180761,6.6013985,-1
186,187,1583238065271,6.803499700000001,3.7242,-0.6186,12.950064999999999,3.0790007,6.159036,-1
187,188,1583238065281,5.7883,3.4092,-1.0317,11.851566,2.657334,6.158375,-1
188,189,1583238065291,5.0216,3.0468,-0.9765,11.308053999999998,2.3397862999999997,6.4559073,-1
189,190,1583238065302,4.4858,2.7354998999999998,-0.4851,10.865778,2.0326294999999996,7.443362,-1
190,191,1583238065312,4.2054,2.5214,0.4075,10.45478,1.7831343000000002,8.322628,-1
191,192,1583238065322,3.7263,2.2598999,1.1739,9.813632,1.5370008999999998,8.688998,-1
192,193,1583238065332,3.1366,2.042,1.4308,9.467611999999999,1.4015944,8.581547,-1
193,194,1583238065342,2.8181998999999998,1.8957,1.2669,9.360869000000001,1.3834273000000001,8.271632,-1
194,195,1583238065352,2.8041,1.9045999,0.9539,9.674624,1.5821172,7.912462700000001,-1
195,196,1583238065363,3.1216,2.0751,0.5836,9.905808,1.7423851000000001,7.5784435,d
196,197,1583238065373,3.2872999,2.1952999,0.30679998,9.847045,1.7814584999999998,7.547078999999999,-1
197,198,1583238065383,3.1884,2.1599998,0.33499998,9.654504,1.6389938999999998,7.731777,-1
198,199,1583238065393,3.0396,1.9880999,0.49249998,9.464777,1.3716285,7.936434299999999,-1
199,200,1583238065403,2.8537998,1.6854999,0.6773,9.183411999999999,1.1115321000000002,8.099258,-1
200,201,1583238065414,2.5707,1.3827,0.8409,9.163366,1.128684,8.123736,-1
201,202,1583238065424,2.6167998,1.4123,0.6893,9.287979,1.3613143,7.8341823,-1
202,203,1583238065435,2.6167998,1.4123,0.6893,9.334907000000001,1.4552341999999998,7.692541599999999,-1
203,204,1583238065445,2.6518998,1.4949,0.5035,9.482312,1.4713519,7.671415,-1
204,205,1583238065456,3.0163999,1.4799,0.8425,9.7943535,1.6362646,8.095581,-1
205,206,1583238065466,3.2387998,1.6645,1.3471,10.033104,1.903716,8.577084,-1
206,207,1583238065476,3.5806,1.7919999,1.6942999,10.395289,2.0928866999999998,8.902801,-1
207,208,1583238065486,4.0253,1.9918,1.8908999,10.915109,2.448282,9.059295,-1
208,209,1583238065497,4.4767,2.1692998,1.9447,11.273252000000001,2.6373088,9.140947,-1
209,210,1583238065507,4.9487,2.3715,2.1069999,11.7273655,2.9885767000000003,9.308015,-1
210,211,1583238065517,5.2851,2.7163,2.4658,12.134313,3.541254,9.828361,-1
211,212,1583238065527,5.6489,2.9712,3.0260000000000002,12.436288000000001,3.7704175,10.249031,-1
212,213,1583238065537,5.9493,2.9018,3.5553,12.746058999999999,3.8237317,10.872347999999999,-1
213,214,1583238065547,6.1408,2.8499,4.0318,12.922895,3.9475309999999997,11.215838,-1
214,215,1583238065558,6.2637997,2.7742999,4.1024,12.96556,3.9886155,11.109067,-1
215,216,1583238065568,6.4223,2.5537,3.9392,13.211081,3.9603257000000007,10.960693,-1
216,217,1583238065578,6.6492,2.3934999,3.9419,13.314385000000001,4.014492,11.033372,-1
217,218,1583238065588,6.6067995999999996,2.2326999,4.1658,13.146360000000001,4.0725370000000005,11.207536,-1
218,219,1583238065598,6.3327,2.009,4.2725,12.878172,4.060901,11.150985,-1
219,220,1583238065608,6.095,1.6739,4.0653,12.556764999999999,3.9304461,10.776052,-1
220,221,1583238065618,5.6159,1.183,3.8139999999999996,11.987261,3.6702442000000004,10.491583,-1
221,222,1583238065629,4.9806,0.5435,3.6785997999999998,11.157718,3.196585,10.20855,-1
222,223,1583238065639,4.3114,-0.119799994,3.5256,10.591757000000001,2.992168,9.998702999999999,-1
223,224,1583238065649,3.6887,-0.58599997,3.3901,9.812253,2.9477797000000003,9.725639,-1
224,225,1583238065659,3.2186,-0.7941,3.1848998,9.41854,3.0817015,9.235384,-1
225,226,1583238065670,2.9269998,-0.9993,2.7173998,8.989567,3.0195765,8.654571,-1
226,227,1583238065680,2.4868,-1.4480000000000002,2.355,8.386285,2.771461,8.42803,-1
227,228,1583238065690,1.9837999,-2.0722,2.3072,7.758008500000001,2.2782838,8.088667,-1
228,229,1583238065701,1.4160999,-2.9125,2.0679998,6.992064999999999,1.7626207999999999,7.4296007,-1
229,230,1583238065711,0.9209,-3.5470998,1.5013,6.5371475,1.6010027,6.449232599999999,-1
230,231,1583238065721,0.627,-3.972,0.6328,6.272004,1.5227506000000002,5.6195072999999995,-1
231,232,1583238065731,0.36159998,-4.3585997,-0.16399999,5.489761,1.2192999,4.721777400000001,-1
232,233,1583238065741,-0.3214,-4.9674,-0.68369997,4.2251916,0.76869196,4.3078585,-1
233,234,1583238065752,-1.5373,-5.6787996,-0.8842,2.6399043,0.29283002,4.0964217000000005,-1
234,235,1583238065762,-2.9837,-6.3928,-0.95449996,1.0424259,-0.24394043,3.8904245000000004,-1
235,236,1583238065772,-4.3627,-7.1186,-1.0777999,-0.23444982,-0.5222137,3.4784589999999995,-1
236,237,1583238065782,-5.3799996,-7.5126,-1.4333999,-1.199811,-0.5216104,2.8652945,-1
237,238,1583238065792,-6.1514997000000005,-7.6731,-1.9663999,-2.002405,-0.40255147,2.3231322999999997,-1
238,239,1583238065803,-6.7513,-7.687999700000001,-2.3515,-2.4040658,-0.15487611,2.0011313000000004,-1
239,240,1583238065813,-6.9279,-7.5263,-2.5224,-2.3687465,0.15976028,1.778346,-1
240,241,1583238065823,-6.75,-7.3929996,-2.6708,-2.2007885,0.35669777,1.4610184,-1
241,242,1583238065833,-6.4479,-7.3080997000000005,-2.8927999,-2.0321505,0.62628484,1.3715614999999999,-1
242,243,1583238065843,-6.2518997,-7.1533,-2.8741,-2.267826,1.0581988000000002,1.5966836000000002,-1
243,244,1583238065855,-6.3145,-6.3329997,-2.1495,-2.2194345,1.6457838,2.171589,-1
244,245,1583238065865,-5.7204,-5.7606,-1.7412,-1.5460798,2.2749610000000002,2.5435328,-1
245,246,1583238065875,-4.6538,-5.1295,-1.6469999999999998,-0.49492937,2.928348,2.596464,-1
246,247,1583238065885,-3.6524,-4.5336,-1.7214999,0.44331038,3.5182889999999998,2.523211,-1
247,248,1583238065895,-2.8989999999999996,-4.0151997,-1.7071999,1.0892565,4.022297,2.561662,-1
248,249,1583238065906,-2.5168,-3.6246998,-1.4294,1.4457147,4.4186144,2.8781083,-1
249,250,1583238065916,-2.0630999,-3.1459,-1.1747,1.9302533,4.91905,3.05028,-1
250,251,1583238065926,-1.6719998999999999,-2.7452998,-1.2306,2.2872097,5.323297,2.9498862999999997,-1
251,252,1583238065936,-1.4276999,-2.3034,-1.2123,2.4971044,5.786498,2.9982877,-1
252,253,1583238065946,-1.4448,-1.9843998999999999,-0.99979997,2.4000819,6.031569,3.2273839,-1
253,254,1583238065956,-1.6547999,-1.9841,-0.62329996,2.192945,5.9850445,3.6259325,-1
254,255,1583238065967,-1.8062999,-2.0572,-0.2462,2.0685136,5.9692907,4.0661016000000005,-1
255,256,1583238065977,-1.6978999,-1.8619,0.0301,2.3048022,6.230421499999999,4.295801,-1
256,257,1583238065987,-1.3232,-1.5758,0.093899995,2.6795619,6.4809318,4.311239,-1
257,258,1583238065998,-0.69119996,-1.0632,0.015899998999999998,3.4791867999999995,7.1150025999999995,4.1963654,-1
258,259,1583238066008,-0.0635,-0.4328,-0.14639999,4.122643,7.7123175,4.058066999999999,-1
259,260,1583238066018,0.4184,-0.0089,-0.1522,4.432165599999999,7.9701824000000006,4.1489887,-1
260,261,1583238066028,0.41700000000000004,0.0023,0.0037,4.2782849999999994,7.829135400000001,4.362235500000001,-1
261,262,1583238066038,0.0813,-0.281,0.28,3.8144133,7.474391000000001,4.68733,-1
262,263,1583238066048,-0.4926,-0.5944,0.56079996,3.2634787999999997,7.257601299999999,4.902367,-1
263,264,1583238066059,-0.80179995,-0.5652,0.5979,3.1994865000000003,7.471307799999999,4.9152,-1
264,265,1583238066069,-0.6562,-0.28149998,0.5629,3.4080120000000003,7.7309155,4.8768163,-1
265,266,1583238066079,-0.34109998,0.0219,0.4851,3.7690097999999996,8.037699,4.6868606,-1
266,267,1583238066089,-0.1183,0.2564,0.24499999,4.008401,8.164276,4.5332775000000005,-1
267,268,1583238066100,0.113299996,0.3046,0.1529,4.2314067,8.130632,4.39699,-1
268,269,1583238066110,0.28849998,0.2844,-0.0594,4.280708,8.115166,4.125018,-1
269,270,1583238066120,0.1757,0.2554,-0.3576,4.0028562999999995,8.051604,3.8459209999999997,-1
270,271,1583238066130,-0.0967,0.2182,-0.64559996,3.819968,8.032921,3.7003822,-1
271,272,1583238066140,-0.19,0.2525,-0.7152,3.9016583,8.071553,3.7839592000000004,d
272,273,1583238066151,0.038,0.3189,-0.601,4.2416160000000005,8.168325999999999,3.960268,-1
273,274,1583238066161,0.3398,0.41579998,-0.4937,4.475922,8.153779,3.9683032,-1
274,275,1583238066171,0.50049996,0.3827,-0.5651,4.50945,8.068575,3.695096,-1
275,276,1583238066181,0.49159998,0.30629998,-0.9011,4.4138355,8.029827000000001,3.3656059999999997,-1
276,277,1583238066191,0.3631,0.2945,-1.2185999,4.176752,8.008643,3.097848,-1
277,278,1583238066202,0.1153,0.2803,-1.4521998999999999,4.1895370000000005,8.120605,2.8402414,-1
278,279,1583238066212,0.2093,0.4531,-1.7348,4.5608683,8.307526,2.6014724,-1
279,280,1583238066222,0.5571,0.60969996,-1.9433,4.794159400000001,8.372466000000001,2.550591,-1
280,281,1583238066232,0.7586,0.6809,-1.9908999,5.007243,8.4466,2.4704425,-1
281,282,1583238066242,0.95089996,0.7644,-2.0921,5.137985,8.5115595,2.1945062,-1
282,283,1583238066252,1.0641999,0.86939996,-2.4606,5.3590279999999995,8.636872,1.7336988000000002,-1
283,284,1583238066263,1.3123,1.0347998999999999,-2.9569,5.7740865,8.965424,1.1443135,-1
284,285,1583238066273,1.7212,1.3979,-3.5777997999999998,6.093272,9.196886,0.5011447,-1
285,286,1583238066283,1.9681,1.6243,-4.1847997,6.202898,9.377158999999999,0.16578410000000002,-1
286,287,1583238066293,2.0049999,1.8213999,-4.4842,6.4512053,9.642341,0.080244064,-1
287,288,1583238066303,2.2157,2.0685,-4.5273,6.988636,10.1316,0.00013407530000000001,-1
288,289,1583238066313,2.7089,2.5828,-4.6018,7.9975147,10.845781,-0.3475136,-1
289,290,1583238066324,3.694,3.3267998999999997,-4.9586,9.183114,11.342741,-0.86123264,-1
290,291,1583238066334,4.843499700000001,3.8618,-5.4898,9.827872,11.566982000000001,-0.97748554,-1
291,292,1583238066344,5.4788,4.1205997000000005,-5.6748,9.772039999999999,11.449571,-0.48428956,-1
292,293,1583238066354,5.4354,4.0522,-5.2566,9.541507000000001,10.89991,0.23301329,-1
293,294,1583238066364,5.2159,3.5644998999999995,-4.6531997,9.505813999999999,10.51111,1.5239764,-1
294,295,1583238066374,5.4895997,3.0356998,-1.4789,9.878869,10.250411,3.9606415999999998,-1
295,296,1583238066385,5.9771,3.0180000000000002,0.22199999,10.370053,10.189243,5.6202927,-1
296,297,1583238066395,6.1614,2.8495998,1.2554,10.376441,9.952313,6.6059092999999995,-1
297,298,1583238066405,5.714699700000001,2.5303,2.0676,9.882862,9.639085000000001,7.411911999999999,-1
298,299,1583238066415,5.714699700000001,2.5303,2.0676,9.66568,9.462479,7.8332820000000005,-1
299,300,1583238066425,5.3957,2.2823,2.7443,9.649341999999999,9.439801,8.258597,-1
300,301,1583238066436,5.4125,2.5332,4.44,9.575571,9.657999,10.039655,-1
301,302,1583238066446,5.3282,2.4157,6.035599700000001,9.352288,9.46608,11.784289,-1
302,303,1583238066456,4.8115997,1.9604,7.7591,8.477782000000001,8.879271000000001,13.8925085,-1
303,304,1583238066466,4.0734,1.5327,9.2808,7.8774023,8.595979,15.016538,-1
304,305,1583238066476,3.4122,1.078,10.2094,7.150791000000001,8.1212,15.830729500000002,-1
305,306,1583238066486,3.1186,0.5435,10.5717,7.031847,7.6566285999999995,16.091228,-1
306,307,1583238066496,3.4796998999999995,0.3938,10.5184,7.231226400000001,7.6296406,15.964787,-1
307,308,1583238066506,3.3815,0.0569,10.6012,6.9384065,7.289942,16.059673,-1
308,309,1583238066516,3.3815,0.0569,10.6012,6.406874,6.867308,16.182276,-1
309,310,1583238066526,2.0042,-1.2459999,10.835199000000001,5.226389,6.104458,16.19892,-1
310,311,1583238066536,1.2150999,-2.0396,11.0563,4.193674,5.297956500000001,16.489481,-1
311,312,1583238066546,0.54179996,-2.6216,11.3419,3.4931405,4.937974,16.645697,-1
312,313,1583238066556,-0.1945,-3.2710000000000004,11.319699,2.6469720000000003,4.35173,16.444448,-1
313,314,1583238066566,-0.6127,-4.1748,10.669399,2.1446682999999997,3.5522676,15.642297,-1
314,315,1583238066576,-0.8501,-4.888999999999999,9.9473,1.7384586,3.0276787,14.89,-1
315,316,1583238066586,-1.0618,-5.3585,9.782,1.2801605,2.6180117000000003,14.732968,-1
316,317,1583238066596,-1.4997,-5.9033,9.9415,0.5545737,2.1648467,14.820692000000001,-1
317,318,1583238066607,-2.1911,-6.5729,9.9754,-0.47164816,1.4980712,14.571973999999999,-1
318,319,1583238066617,-2.8995,-7.3963,9.5896,-1.3386173000000001,0.7346656,13.952162,-1
319,320,1583238066627,-3.6309998,-8.2554,8.8363,-2.365136,-0.03308787,12.930461,-1
320,321,1583238066637,-4.2875,-9.0625,7.8287997,-2.933261,-0.6615562,11.768066000000001,-1
321,322,1583238066648,-4.2425,-9.6502,6.7848,-2.9508057,-1.0307804,10.879032,-1
322,323,1583238066658,-3.9606998,-10.1648,6.0752,-2.7496352,-1.53996,9.974876,-1
323,324,1583238066668,-3.6346998,-10.7526,5.7156,-2.7424142000000002,-2.143883,9.514135000000001,-1
324,325,1583238066678,-3.8091998,-11.627299,5.4449,-3.5520568,-3.0492744,9.001873,-1
325,326,1583238066688,-4.6584997,-12.3166,5.1017,-4.68982,-3.4438772000000006,8.383958,-1
326,327,1583238066698,-5.6914997000000005,-12.6293,4.6105,-5.6918315999999995,-3.4914165,7.692493400000001,-1
327,328,1583238066709,-6.3269997,-12.705299,4.0952,-6.0062475,-3.4977946,6.963248700000001,-1
328,329,1583238066719,-6.3556,-12.809299000000001,3.5865,-5.888855,-3.6355379,6.220165,-1
329,330,1583238066729,-6.132000000000001,-13.087899,2.9954998,-5.621815,-3.8899839999999997,5.256757299999999,-1
330,331,1583238066739,-5.8511996,-13.4422,2.155,-5.2900457,-4.167347400000001,4.07768,-1
331,332,1583238066749,-5.4649,-13.7919,1.1996,-4.7392554,-4.504537,2.768741,-1
332,333,1583238066759,-4.8287997,-14.154798999999999,0.047599997000000005,-3.8191252,-4.7356253,1.3115531999999999,-1
333,334,1583238066769,-3.9554,-14.4108,-1.0998,-3.0759267999999995,-4.83464,0.19429424,-1
334,335,1583238066780,-3.1281998,-14.3518,-2.3751,-1.9895528999999998,-4.369006,-1.9162807000000002,-1
335,336,1583238066790,-2.5888,-13.7603,-3.9798,-1.5903053999999999,-3.6564631000000003,-3.6294756,-1
336,337,1583238066800,-2.4325,-13.065999999999999,-5.1969,-1.1536222,-3.1096084,-4.552593700000001,-1
337,338,1583238066810,-1.7292999,-12.404799,-5.9821,0.26340050000000004,-2.4120624,-5.764443,-1
338,339,1583238066820,-0.8088,-11.9630995,-6.8705997000000005,1.2333204,-2.1533927999999998,-7.1625414,-1
339,340,1583238066831,-0.46879998,-11.7212,-7.8107996,1.811204,-1.7230686000000002,-8.030689,-1
340,341,1583238066840,-0.088199995,-11.1784,-8.448,2.6786232000000005,-1.3003962,-8.808144,-1
341,342,1583238066850,0.78169996,-10.578,-9.4597,4.258710400000001,-0.40107667,-10.870969,-1
342,343,1583238066860,1.8284999,-9.5654,-11.2534,6.225748,0.99858326,-13.314482,-1
343,344,1583238066870,3.5856,-8.0521,-13.6129,7.8571663,2.0034009999999998,-15.205824,-1
344,345,1583238066880,5.0919,-6.7763995999999995,-15.686898999999999,9.464413,2.9990058,-16.843706,-1
345,346,1583238066890,6.2527,-5.6849,-16.7495,11.245508000000001,3.9256290000000003,-16.655952,-1
346,347,1583238066901,7.4388,-4.8807,-16.0278,12.52585,4.1606436,-15.30751,-1
347,348,1583238066911,8.495,-4.4832,-14.160298999999998,13.247425,4.4641423,-13.232820499999999,-1
348,349,1583238066921,8.609099,-3.9254,-12.316899000000001,13.867542000000002,5.1356297,-11.832489,-1
349,350,1583238066931,9.3854,-2.8724,-11.4157,15.52929,6.045923999999999,-11.804946000000001,-1
350,351,1583238066941,10.378799,-2.1561,-11.899799,15.943907999999999,6.0827184,-12.815511,-1
351,352,1583238066951,10.4186,-2.0365,-13.0541,16.59018,6.026081,-13.782433,-1
352,353,1583238066962,11.1025,-1.8764,-14.1249,18.300446,6.2132697,-14.43335,-1
353,354,1583238066972,12.7211,-1.4577,-14.7153,20.293617,6.540576000000001,-14.175982000000001,-1
354,355,1583238066982,14.4176,-1.021,-14.4255,21.650507,6.6386137000000005,-13.202845000000002,-1
355,356,1583238066992,15.370299,-0.8035,-13.594999,21.613798000000003,6.4730115,-11.991896,-1
356,357,1583238067002,14.8998995,-0.8648,-12.484699,20.096432,6.204708,-10.65143,-1
357,358,1583238067012,12.987499,-1.0925,-11.2723,17.515089,5.3627725,-8.974855999999999,-1
358,359,1583238067023,10.274799,-1.9749,-9.5905,14.8366375,4.087841,-7.034720399999999,-1
359,360,1583238067033,7.601999799999999,-3.2071,-7.8353,12.800647999999999,2.767362,-5.651322,-1
360,361,1583238067043,5.7594,-4.4939,-6.7914996,12.013368,1.5030223,-5.469171,-1
361,362,1583238067053,5.1782,-5.6408997,-6.8774,12.135174000000001,0.43030509999999994,-5.5730405,-1
362,363,1583238067063,5.2679,-6.6433,-6.9610996,11.708202,-0.9100935,-4.3973727,-1
363,364,1583238067073,4.7893,-7.6777,-5.9792,10.657406,-1.9429808999999998,-2.6461099999999997,-1
364,365,1583238067085,2.0121999,-9.301,-1.9703,8.724624,-2.7885937999999997,0.55592406,-1
365,366,1583238067095,2.0121999,-9.301,-1.9703,7.7884054,-2.9906259,2.8698435,-1
366,367,1583238067105,0.7452,-9.4817,0.73899996,6.6736364,-3.1794808,4.8646827,-1
367,368,1583238067115,-1.6143,-9.9866,3.6759,5.31145,-3.9028263,6.388294999999999,-1
368,369,1583238067125,-2.8737,-10.5735,4.6335998,4.0878120000000004,-4.5540113,7.4705414999999995,-1
369,370,1583238067136,-4.0442,-10.6032,5.3982,3.050031,-4.614383,8.379122,-1
370,371,1583238067146,-4.0442,-10.6032,5.3982,2.6794755,-4.425441999999999,9.208368,-1
371,372,1583238067156,-4.3032,-9.7429,7.704,3.321361,-4.140111,11.190796,-1
372,373,1583238067166,-3.5844998,-9.4187,9.5666,4.223017700000001,-4.158441000000001,13.789453,-1
373,374,1583238067176,-3.5844998,-9.4187,9.5666,4.380355000000001,-4.3430433,16.00477,-1
374,375,1583238067186,-3.7468,-8.9825,14.869499,3.6328182,-3.9545602999999994,19.651512,-1
375,376,1583238067196,-5.0071,-8.0643,17.6154,2.6000167999999997,-3.3529837,21.797253,-1
376,377,1583238067206,-6.2388,-6.7664,19.637299,1.4502255,-2.1210232,24.15127,-1
377,378,1583238067217,-6.6867,-5.6823997,21.261,1.4702889,-1.572665,25.453352,-1
378,379,1583238067227,-6.1207,-4.7647,22.625,2.287784,-0.90881026,26.736690000000003,-1
379,380,1583238067237,-4.9649997,-3.8753,23.0092,3.606271,-0.3956466,27.018203999999997,-1
380,381,1583238067247,-3.7168,-3.3061,22.7193,5.003432,-0.057518303,26.595387,-1
381,382,1583238067257,-3.12,-2.7110999,21.973299,5.4262,0.3346615,25.701267,-1
382,383,1583238067268,-2.8959,-1.7595999,20.6167,5.653371,1.2539105,24.384495,-1
383,384,1583238067278,-2.6083,-0.2184,19.547698999999998,6.164849299999999,2.666834,23.925976000000002,-1
384,385,1583238067288,-1.3925999,1.5676999,19.605,7.9311093999999995,4.042733999999999,24.361002,-1
385,386,1583238067298,0.97429997,2.9482,19.7106,10.283575,4.962826000000001,24.325579,-1
386,387,1583238067309,2.9387999,3.9294998999999997,18.940699,11.830345,5.456108,23.395353,-1
387,388,1583238067319,3.9838998,4.2515,17.31,12.469137,5.131732,21.146002,-1
388,389,1583238067329,4.2023,3.8734,14.960199,12.281805,4.444155,18.835729999999998,-1
389,390,1583238067339,3.9761998999999997,3.3994,12.6292,11.991512,4.027957,17.113312,-1
390,391,1583238067349,3.9466998999999996,3.2789998,11.168099,12.504733,4.1440854,16.300951,-1
391,392,1583238067360,5.1066,3.6666,10.3747,13.816441000000001,4.459985700000001,15.828536999999999,-1
392,393,1583238067370,6.9456,4.1239,9.6222,16.007374,4.801916599999999,14.976363000000001,-1
393,394,1583238067380,8.9803,4.4235997000000005,8.5633,17.443376999999998,4.805383,13.947517000000001,-1
394,395,1583238067390,10.0863,4.3154,7.2558,17.84594,4.457678,12.607378,-1
395,396,1583238067400,10.2851,3.7991,5.6596,17.442526,3.7875695,11.089875,-1
396,397,1583238067411,9.680099499999999,2.9921,4.1022997000000005,16.405798,2.9925127000000002,9.8689375,-1
397,398,1583238067421,8.7697,2.1497,2.9571,16.00499,2.3542857,8.991693,-1
398,399,1583238067431,8.9472,1.6904999,2.2216,17.082237,2.4908414,8.398074000000001,-1
399,400,1583238067442,10.2429,1.7809,1.5602,18.13491,2.7951732000000002,8.008595,-1
400,401,1583238067452,11.4909,2.0449,1.0697,18.946095,3.1697217999999996,7.314190400000001,-1
401,402,1583238067463,11.9667,2.1215,0.4856,18.724592,3.136165,6.636449300000001,-1
402,403,1583238067473,11.6932,1.8887,-0.41939998,17.99009,2.987073,5.561251599999999,-1
403,404,1583238067483,10.9472,1.5554,-1.5681,17.183865,3.1637845,4.138052500000001,-1
404,405,1583238067493,10.3729,1.5446,-2.7524,17.414312,3.5445964,3.0252943,-1
405,406,1583238067503,10.6559,1.7148,-3.8643,17.970886,4.013831,2.0397353,-1
406,407,1583238067513,11.2528,1.9705,-4.8215,18.323965,4.307533,1.1473494,-1
407,408,1583238067524,11.6338,2.0351,-5.6721997,18.345062,3.8306557999999997,0.7584735,-1
408,409,1583238067534,11.6727,1.3306999,-5.9953,17.949876999999997,3.2695315,1.3166768999999998,-1
409,410,1583238067544,11.288899,0.5545,-5.366699700000001,17.34035,2.8319959999999997,2.0808294,-1
410,411,1583238067554,10.67,-0.1201,-4.501,16.890673,2.366314,1.9563214,-1
411,412,1583238067565,9.6114,-1.3471999,-5.3208,16.211647,2.087993,0.7651581000000001,-1
412,413,1583238067575,9.6114,-1.3471999,-5.3208,16.00316,2.0076435,-0.19925503,-1
413,414,1583238067585,9.301,-1.8661,-6.2208,15.500598000000002,1.745057,-1.6291106000000002,-1
414,415,1583238067595,8.408,-2.6265,-8.4657,15.014595000000002,1.574044,-2.924843,-1
415,416,1583238067606,8.0124,-3.0177999,-9.404799,14.661929,1.4333128000000002,-3.9764432999999997,-1
416,417,1583238067616,7.9412,-3.2875997999999997,-9.930699,14.626935000000001,1.4003398,-4.5077934,-1
417,418,1583238067626,7.9412,-3.2875997999999997,-9.930699,15.072754000000002,1.5290233999999998,-4.5800505,-1
418,419,1583238067636,8.9447,-3.4735,-9.4171,15.577969,1.5194849,-4.0344120000000006,-1
419,420,1583238067646,8.991899499999999,-4.0519,-8.3811,15.451622,1.0398783999999999,-2.9899747000000003,-1
420,421,1583238067656,8.322000000000001,-4.7283998,-6.8968997000000005,14.421732,0.46052948,-1.1974266000000002,-1
421,422,1583238067666,7.3921,-5.3108,-5.0824,13.411619,0.111205876,0.50451577,-1
422,423,1583238067677,6.482,-5.7609,-3.4886,12.447944,-0.11277647,1.7490218999999998,-1
423,424,1583238067687,5.4937,-5.990999700000001,-2.6129,11.337732,-0.061550137000000005,2.067556,-1
424,425,1583238067697,4.4026,-6.0664,-2.6114,10.244032,0.06153098,1.7632816000000002,-1
425,426,1583238067707,3.6346998,-6.0669,-2.9029,9.689928,0.24476403,1.3986926000000002,-1
426,427,1583238067717,3.2963,-5.7967,-3.2354,9.287626,0.9169984,0.9094232,-1
427,428,1583238067728,3.2763999,-5.2228,-3.3095,9.292739,1.570491,0.9464758,-1
428,429,1583238067739,3.4266,-4.9525,-2.9513,9.367918,1.8402792000000001,1.4782951000000002,-1
429,430,1583238067749,3.5528998,-4.950599700000001,-2.3219,9.189664,1.8589827,2.2587473,-1
430,431,1583238067760,3.3328,-5.0334997,-1.3169999,8.6821995,1.7874726000000003,3.7523746,-1
431,432,1583238067770,2.7886,-5.2903,0.47739998,7.832611999999999,1.5566428999999997,5.8994374,-1
432,433,1583238067780,1.9265,-5.500499700000001,2.6587,6.659443400000001,1.6070360000000001,8.0551195,-1
433,434,1583238067790,0.8096,-5.4161,4.628,5.383343,1.8259523000000002,9.607663,-1
434,435,1583238067800,-0.31309998,-5.2599998,5.7683,4.071100700000001,2.1061697,10.061796000000001,-1
435,436,1583238067810,-1.2673,-5.1629,5.861399700000001,3.1912409999999998,2.0547233,9.701459,-1
436,437,1583238067821,-2.2457,-5.367999999999999,5.3127,2.2734861,1.9407014999999999,8.98836,-1
437,438,1583238067831,-3.0081,-5.6036,4.7416,1.1905408000000002,1.7306726000000003,8.59867,-1
438,439,1583238067841,-3.8509,-5.8915,4.6152997000000004,0.23860614,1.5250393999999998,8.88718,-1
439,440,1583238067851,-5.0248,-6.296,5.2434998,-1.5426893999999998,0.88740605,10.227464999999999,-1
440,441,1583238067862,-6.3785996,-6.9339,6.5432997,-2.9568775,0.6162867,11.858098,-1
441,442,1583238067873,-7.661299700000001,-7.1404,8.151199,-3.9608044999999996,0.9101030999999999,13.120829,-1
442,443,1583238067883,-8.4243,-6.8223,9.2362995,-4.2335139999999996,1.5448155000000001,13.383339000000001,-1
443,444,1583238067893,-8.497499000000001,-6.3374,9.3911,-4.017327,2.0213957,12.410986,-1
444,445,1583238067903,-8.2309,-5.9122996,8.466599,-3.6289394,2.6494236,10.821475999999999,-1
445,446,1583238067913,-7.8009,-5.3466,6.9437,-2.9817099999999996,3.4281232000000004,9.337137,-1
446,447,1583238067924,-7.1236,-4.6133,5.5165,-1.9858179,4.124989,8.355151,-1
447,448,1583238067934,-5.8248,-3.7681,4.3624,-0.48639646,5.072394,7.273134700000001,-1
448,449,1583238067944,-4.5799,-3.0109,3.5063,0.14693695,5.6939864,6.576508500000001,-1
449,450,1583238067954,-3.9538998999999997,-2.3975,2.8109999,0.6673598000000001,6.145149,5.927363400000001,-1
450,451,1583238067965,-3.4183,-1.9712,2.1791,1.2636405000000002,6.5793524,5.1438947,-1
451,452,1583238067975,-2.3042998,-1.1374999,0.6393,1.8603330000000002,7.0943837,4.168353,-1
452,453,1583238067985,-1.9090999,-0.8174,0.1092,2.2057397,7.3949036999999995,3.6743717000000005,-1
453,454,1583238067995,-1.8354,-0.7129,0.0579,2.183512,7.4728208,3.6522398000000003,-1
454,455,1583238068006,-1.8354,-0.7129,0.0579,1.9285008000000001,7.433718700000001,3.7880292,-1
455,456,1583238068016,-2.3644,-0.85349995,0.4964,1.6385342,7.366374499999999,4.01952,-1
456,457,1583238068026,-2.4335,-0.9112,0.4017,1.6214203999999999,7.359823700000001,3.7803964999999997,d
457,458,1583238068036,-2.2022998,-0.7399,-0.15709999,1.9093759,7.5909796,3.128877,-1
458,459,1583238068046,-1.6222999,-0.40629998,-0.9201,2.690709,8.024453999999999,2.2703736,-1
459,460,1583238068056,-0.88869995,-0.0072,-1.4304999,3.2597728,8.340755999999999,1.9047023999999997,-1
460,461,1583238068066,-0.3709,0.2402,-1.5709,3.7239127,8.549263999999999,1.8715475,-1
461,462,1583238068076,-0.1647,0.34309998,-1.3475,3.890252,8.650998,2.1731594,-1
462,463,1583238068086,0.0144,0.5046,-0.89129996,4.0802274,8.816417999999999,2.6519613,-1
463,464,1583238068096,0.1169,0.5654,-0.46949998,4.1182857,8.827183,3.0502322,-1
464,465,1583238068107,-0.2188,0.4154,-0.17719999,3.7147476999999998,8.636201,3.2989992999999993,-1
465,466,1583238068117,-0.6293,0.1047,0.090799995,3.1985959999999998,8.266996,3.7042705999999996,-1
466,467,1583238068127,-1.0584999,-0.1864,0.5344,2.7884597999999996,7.9958005000000005,4.1373242999999995,-1
467,468,1583238068137,-1.3113999,-0.3669,0.8244,2.6360639999999997,7.934480000000001,4.317933,-1
468,469,1583238068147,-1.3601999,-0.299,0.85389996,2.580308,8.052562,4.3342137,-1
469,470,1583238068158,-1.3334999,-0.1206,0.96889997,2.6703105,8.233162,4.5468574,-1
470,471,1583238068168,-1.2131,0.0491,1.2721,2.8387282000000003,8.442817999999999,4.9101152,-1
471,472,1583238068178,-0.9316,0.41459998,1.5827999,3.1667054,8.887277000000001,5.129089,-1
472,473,1583238068188,-0.6548,0.88549995,1.7088,3.345868,9.3345995,5.225613,-1
473,474,1583238068198,-0.6925,1.2745999,1.765,3.2038439999999997,9.687926,5.217023,-1
474,475,1583238068208,-0.9029,1.5338999,1.8031,3.0084294999999996,9.908489999999999,5.345553400000001,-1
475,476,1583238068219,-1.1079,1.5974,2.187,2.6546047,9.786769,5.9904647,-1
476,477,1583238068229,-1.4636999,1.3787,2.8430998,2.372041,9.552109,6.5706663,-1
477,478,1583238068239,-1.6887,1.0834,3.5888998999999995,2.3046682,9.297049000000001,7.480099000000001,-1
478,479,1583238068249,-1.5332999,0.9747,4.2971997,2.5967797999999997,9.30359,8.058193,-1
479,480,1583238068259,-1.2457,1.0501,4.7225,2.8677173,9.477265,8.147200999999999,-1
480,481,1583238068270,-0.9816,1.2385,4.5951,3.1504054,9.615985,7.7663402999999995,-1
481,482,1583238068280,-0.66069996,1.255,4.1981,3.4803457000000004,9.501437,7.2727995,-1
482,483,1583238068290,-0.3979,1.1113,3.7110999,3.6171122,9.460764999999999,6.7493696,-1
483,484,1583238068300,-0.2393,1.0828,3.2266,4.0412974,9.381976,6.2132406,-1
484,485,1583238068310,0.1767,0.9752,2.918,4.40649,9.277426,6.2701077000000005,-1
485,486,1583238068320,0.5176,0.8871,3.1162,4.554088,9.208177000000001,6.621624499999999,-1
486,487,1583238068331,0.6275,0.7486,3.4994998,4.463357,8.93178,6.874299000000001,-1
487,488,1583238068341,0.4973,0.4398,3.7594998,3.9499538,8.623465,6.791392999999999,-1
488,489,1583238068351,-0.1081,0.086899996,3.6352,2.9811068,8.295428999999999,6.3094683,-1
489,490,1583238068361,-1.1013,-0.27989998,3.1453998,2.1531439999999997,8.040946,5.5526133,-1
490,491,1583238068371,-1.7615999,-0.5491,2.4238,2.1545324,7.7395735,4.785722,-1
491,492,1583238068381,-1.5963,-0.86359996,1.7819999999999998,2.7155516,7.6674595000000005,4.341597599999999,-1
492,493,1583238068392,-0.9525,-0.89739996,1.4532,3.6159341,7.866906,4.152111,-1
493,494,1583238068402,-0.024699999,-0.6908,1.35,4.3974113,8.193800999999999,3.9373412000000005,-1
494,495,1583238068412,0.6721,-0.3742,1.171,4.6628226999999995,8.3201,3.5478718000000002,-1
495,496,1583238068423,0.80249995,-0.3436,0.80939996,4.3876047,8.156461,2.949666,-1
496,497,1583238068433,0.4588,-0.5614,0.2549,3.9009016000000005,7.948855,2.1873617000000003,-1
497,498,1583238068444,-0.0167,-0.8014,-0.4436,3.6113086,7.739669,1.5704813999999998,-1
498,499,1583238068454,-0.20729999,-0.9729,-0.83559996,3.9067434999999997,7.616367299999999,1.7760763,-1
499,500,1583238068464,0.078899994,-1.1223,-0.5518,4.0795856,7.432473700000001,1.9717497,-1
500,501,1583238068474,0.2724,-1.4455999,-0.4145,4.100329,7.343591,1.6498348999999999,-1
501,502,1583238068485,0.2724,-1.4455999,-0.4145,4.0409527,7.431850999999999,1.0239618000000001,-1
502,503,1583238068495,0.2104,-1.3669,-1.064,4.1606819999999995,7.660957000000001,-0.14134409,-1
503,504,1583238068505,0.6611,-1.0284,-2.8838,4.5778956,7.8240595,-1.0706870000000002,-1
504,505,1583238068515,1.0471,-1.0109,-3.0012999,4.9612837,7.847513,-1.1695388999999998,-1
505,506,1583238068525,1.219,-1.0196999,-2.8697999,5.0854664000000005,7.813372,-1.0735983999999998,-1
506,507,1583238068535,1.219,-1.0196999,-2.8697999,5.233283999999999,7.833129,-0.92865336,-1
507,508,1583238068546,1.531,-0.91679996,-2.3595998,5.3454957,7.974511,-0.5718503,-1
508,509,1583238068556,1.2907,-0.9946,-2.1064,5.065116000000001,7.8542933,-0.45386400000000005,-1
509,510,1583238068566,0.90749997,-1.2616,-2.1611,4.670427,7.544695,-0.5839554,-1
510,511,1583238068576,0.6426,-1.6868,-2.3056997999999997,4.428392,7.1598125,-0.77878594,-1
511,512,1583238068586,0.6083,-1.8657999,-2.4824998,4.447632,7.0419793,-1.0481528,-1
512,513,1583238068596,0.69479996,-1.8359999999999999,-2.8922,4.608944,7.1607413,-1.6534262,-1
513,514,1583238068607,1.0005,-1.6055,-3.3885998999999996,4.9726996,7.378432000000001,-2.2142150000000003,-1
514,515,1583238068617,1.2531999,-1.4288,-3.7977998,5.065718700000001,7.573022999999999,-2.4493544,-1
515,516,1583238068627,1.1205,-1.286,-3.5958,4.9430785,7.657327700000001,-2.0063028000000003,-1
516,517,1583238068637,1.0612999,-1.2794,-2.9529,4.967499299999999,7.619345699999999,-1.3151828,-1
517,518,1583238068647,1.0756,-1.2785,-2.3127,4.9837317,7.614845,-0.67094153,-1
518,519,1583238068658,1.1851,-1.3159999999999998,-1.8253,5.2456955999999995,7.585157000000001,-0.30305806,-1
519,520,1583238068668,1.6739998999999999,-1.1385,-1.7075,5.730158,7.819702,-0.30408275,-1
520,521,1583238068678,2.1815,-0.7273,-1.7528,6.2299430000000005,8.293572,-0.3082008,-1
521,522,1583238068688,2.2331998,-0.4558,-1.6891999,6.05847,8.43844,-0.2471295,-1
522,523,1583238068698,1.7937,-0.46089998,-1.5683,5.57735,8.296378,-0.050144162,-1
523,524,1583238068708,1.3398,-0.7506,-1.3528999,5.140858000000001,8.015452,0.22581153,-1
524,525,1583238068719,0.95479995,-0.9115,-1.0381,4.861024400000001,7.9212831999999995,0.70866454,-1
525,526,1583238068729,0.87899995,-0.9129999999999999,-0.60749996,4.918916,8.048176,1.1721534,-1
526,527,1583238068739,1.0129,-0.6379,-0.2597,5.1954465,8.487675,1.3602513,-1
527,528,1583238068749,1.2695999,-0.1761,-0.1669,5.349451,8.7920065,1.359648,-1
528,529,1583238068759,1.2967,0.0213,-0.2616,5.2819824,8.889757000000001,1.1577593000000002,-1
529,530,1583238068770,1.1855999,0.1249,-0.54359996,5.1919894,8.918047,0.8396944,-1
530,531,1583238068780,1.1415,0.0613,-0.7887,5.312475,8.806056,0.72901523,-1
531,532,1583238068790,1.2454,-0.003,-0.7768,5.281005400000001,8.855655,0.8339291999999999,-1
532,533,1583238068800,1.1254,0.13859999,-0.6225,5.080533999999999,9.016161,1.0890075000000001,-1
533,534,1583238068810,0.89019996,0.24129999,-0.3196,4.8486605,9.023641,1.3260527,-1
534,535,1583238068821,0.6367,0.2465,-0.1898,4.586419,9.012225,1.3079907,-1
535,536,1583238068830,0.3832,0.2226,-0.2776,4.503513,8.966448,1.2753816999999998,-1
536,537,1583238068840,0.4319,0.17009999,-0.26659998,4.667573,8.855357000000001,1.3349973,-1
537,538,1583238068850,0.5857,0.078899994,-0.19309999,4.9016204000000005,8.87363,1.3955323,-1
538,539,1583238068860,0.90449995,0.1345,-0.1812,5.2919903,8.950685,1.323869,-1
539,540,1583238068870,1.2328,0.287,-0.2891,5.538037999999999,9.245545,1.1534977,-1
540,541,1583238068881,1.4366,0.54499996,-0.44099998,5.798498,9.237587,1.0866323999999998,-1
541,542,1583238068891,1.6069,0.457,-0.4543,5.6428650000000005,9.1003895,1.0501256,-1
542,543,1583238068901,1.3629999,0.297,-0.45009997,5.0600114000000005,8.804064,1.0753030000000001,-1
543,544,1583238068911,0.73399997,-0.0422,-0.429,4.385057,8.52081,1.0141646999999998,-1
544,545,1583238068921,0.156,-0.2452,-0.4867,4.009474,8.471250999999999,0.8305678,d
545,546,1583238068932,-0.1511,-0.3094,-0.6992,4.1262245,8.457498,0.54464257,-1
546,547,1583238068942,0.005,-0.3114,-0.9690000000000001,4.3635383,8.557739,0.3434147,-1
547,548,1583238068952,0.243,-0.1927,-1.1212,4.6626983,8.617038,0.25139117,-1
548,549,1583238068962,0.5647,-0.1502,-1.2149,5.0829,8.535319,-0.018157626,-1
549,550,1583238068972,0.97169995,-0.24409999,-1.4721999,5.5548735,8.502644,-0.2871031,-1
550,551,1583238068982,1.4749999,-0.2298,-1.6958,6.149871,8.751458,-0.45352885,-1
551,552,1583238068993,1.9785,0.058599997,-1.8485999,6.1394897,9.108711999999999,-0.7427866999999999,-1
552,553,1583238069003,1.8986,0.355,-2.073,5.880102,9.209727,-0.7975182,-1
553,554,1583238069013,1.6297,0.45279998,-2.1171,5.7115407,9.008863999999999,-0.8591928,-1
554,555,1583238069023,1.4726,0.2453,-2.1546,5.609605,8.8400345,-1.0466013,-1
555,556,1583238069034,1.4139999,0.0567,-2.4152,6.104065,8.847054,-1.6385342,-1
556,557,1583238069044,2.0474,0.1048,-3.0623999,7.732649,9.008356,-2.6712873,-1
557,558,1583238069054,3.4796,0.2434,-3.9127998,9.236715,9.195822999999999,-3.5686532999999994,-1
558,559,1583238069064,4.9712996,0.44129997,-4.7974,9.867712,8.942065,-3.8832226000000003,-1
559,560,1583238069074,5.6,0.185,-5.1059,9.686059,8.312525,-3.4711133999999997,-1
560,561,1583238069085,4.7304,-1.137,-4.1832,8.787974,7.55656,-2.8673341,-1
561,562,1583238069095,4.1805997,-1.5235,-4.3401,8.330797,7.2494226,-3.2919218999999997,-1
562,563,1583238069105,4.1256,-1.5273,-5.5385,8.358483,7.301481699999999,-4.6325216,-1
563,564,1583238069115,4.9054,-1.4013,-6.9192995999999996,9.324659,7.428499,-5.9728246,-1
564,565,1583238069125,6.1389,-1.4096,-8.0028,10.463657000000001,7.3992424,-7.0239077000000005,-1
565,566,1583238069136,6.7949996,-1.6136,-8.6799,10.982261,7.150589999999999,-7.6309533,-1
566,567,1583238069146,6.9563,-1.8971,-8.8976,11.093542999999999,6.913678599999999,-7.785589,-1
567,568,1583238069156,6.888499700000001,-2.0149,-8.875299,10.9310055,6.7995234,-7.777775,-1
568,569,1583238069166,6.7876,-2.1039,-9.0159,10.805253,6.7376285000000005,-8.014763,-1
569,570,1583238069177,6.7509,-2.154,-9.1922,10.834548,6.6562448000000005,-7.9165907,-1
570,571,1583238069187,6.9933,-2.2918,-8.66,11.162841,6.569795,-7.035285000000001,-1
571,572,1583238069197,7.406399700000001,-2.4096,-7.4638,11.440242999999999,6.4434767,-5.895157,-1
572,573,1583238069207,7.5214,-2.6755,-5.9305,11.290125999999999,6.0738597,-4.035494,-1
573,574,1583238069217,7.0641,-3.0414999,-4.6233,10.663917999999999,5.8210034,-2.7458332000000003,-1
574,575,1583238069227,6.5313,-3.1833,-3.4966,10.208129,5.6952596,-1.6630029999999998,-1
575,576,1583238069238,6.388,-3.2563999,-2.7317998,10.172887,5.735588,-0.89781606,-1
576,577,1583238069248,6.4744997,-3.2099,-2.1666,10.185978,5.7238370000000005,-0.162279,-1
577,578,1583238069259,6.4992,-3.2587,-1.4512,10.13636,5.654664,0.652985,-1
578,579,1583238069269,6.4751997,-3.3523998,-0.6383,9.910099,5.533268,1.7349438999999998,-1
579,580,1583238069279,6.1696,-3.5096998,0.5396,9.614999000000001,5.42415,2.975782,-1
580,581,1583238069289,5.9954,-3.5051,2.1139997999999998,9.374794,5.543630599999999,5.058077,-1
581,582,1583238069299,5.7079,-3.4578998,3.7526998999999996,8.726817,5.309851,6.880007000000001,-1
582,583,1583238069310,5.0552998,-3.7628998999999994,5.2395,7.8034697,5.007291,8.502116000000001,-1
583,584,1583238069320,4.008,-4.0295,6.8763,6.5631580000000005,4.774421,10.232579,-1
584,585,1583238069330,2.7207,-4.2679,8.4811,5.0918636,4.518289599999999,11.867196,-1
585,586,1583238069340,1.3398,-4.5354,9.8824,3.7710495,4.1761870000000005,13.30909,-1
586,587,1583238069350,0.1505,-4.8887,11.170199,2.3384645,3.7592604,14.659544,-1
587,588,1583238069360,-1.3259999999999998,-5.3462996,12.291599,0.18167202,3.2014978,16.210201,-1
588,589,1583238069370,-3.1093,-5.7707,13.5026,-1.7578995,2.899771,17.602507,-1
589,590,1583238069381,-4.9005,-6.0059,14.6753,-3.332815,2.7592887999999998,18.483103,-1
590,591,1583238069391,-6.2843,-6.1031,15.2715,-4.356011,2.7558506,18.600542,-1
591,592,1583238069401,-7.0983996,-6.0745997,15.1523,-4.944218,2.6920023,18.376829999999998,-1
592,593,1583238069411,-7.7760997000000005,-6.1481,14.655,-5.794849,2.516258,17.459276000000003,-1
593,594,1583238069421,-8.3673,-6.3445,13.6726,-6.4163456,2.3170604999999997,16.53111,-1
594,595,1583238069431,-8.9309,-6.496,12.7203,-7.142871,2.347505,15.698789999999999,-1
595,596,1583238069442,-9.6725,-6.424299700000001,11.8708,-7.832238,2.3412992999999998,14.754698999999999,-1
596,597,1583238069452,-10.296599,-6.4716997,10.8846,-8.377341,2.1572428,13.754775,-1
597,598,1583238069462,-10.7549,-6.7056,9.8572,-8.680436,1.8316313000000002,13.058254,-1
598,599,1583238069472,-11.0785,-7.1548996,8.9837,-8.684526,1.1281383,11.93567,-1
599,600,1583238069482,-10.9456,-7.8187,8.0475,-8.599532,0.14469597,11.040248,-1
600,601,1583238069493,-10.9064,-8.6362,7.3195,-8.417821,-0.3320566,10.645789,-1
601,602,1583238069503,-10.658899,-9.1747,6.8367996,-7.8731313,-0.82538664,10.270722,-1
602,603,1583238069513,-10.1867,-9.6689,6.4739,-7.4825506,-1.4412233,9.719941,-1
603,604,1583238069523,-9.970699,-10.1595,5.9997,-7.215013000000001,-1.8437172999999998,9.126342999999999,-1
604,605,1583238069534,-9.7266,-10.646299,5.2288,-6.738749,-2.5415506000000003,7.745386,-1
605,606,1583238069544,-9.4432,-11.2057,4.0592,-6.25625,-3.2087667,6.561951,-1
606,607,1583238069554,-9.099299,-11.842999,2.8834999,-5.266717,-3.7557074999999998,5.8318443,-1
607,608,1583238069565,-8.262899,-12.327,2.1411998,-4.0527034,-4.239911,5.4171305,-1
608,609,1583238069575,-7.0228996,-13.327499,1.5883,-3.6824737,-5.073371,5.4271283,-1
609,610,1583238069585,-7.099,-14.019898999999999,1.9398999,-3.4438962999999996,-5.8554699999999995,5.85027,-1
610,611,1583238069596,-6.3549,-14.4339,2.3085,-2.2680368,-6.332481400000001,6.354556,-1
611,612,1583238069606,-4.450999700000001,-14.3101,2.8522,0.5361191999999999,-6.1599746,6.944248,-1
612,613,1583238069616,-2.1896,-13.5081,2.5911999,3.2371714,-5.249334999999999,6.323709,-1
613,614,1583238069626,0.5575,-11.8403,1.3533,5.643057,-3.893499,5.43253,-1
614,615,1583238069636,2.444,-9.7748995,0.76159996,7.5303297,-1.8731084999999998,5.6289024,-1
615,616,1583238069647,2.745,-8.3808,1.9318,7.7129498,-1.2929933999999998,7.067108999999999,-1
616,617,1583238069657,2.6306998999999998,-8.073999,3.6801998999999994,7.809272999999999,-1.5085386,9.425685000000001,-1
617,618,1583238069667,2.9089,-8.0764,5.1261997,8.680197999999999,-1.9260396,11.048303,-1
618,619,1583238069678,2.9089,-8.0764,5.1261997,10.5851,-2.2015738,11.829932000000001,-1
619,620,1583238069688,7.5864,-7.6123996,5.7244,14.409760999999998,-1.8004971999999997,11.168625,-1
620,621,1583238069698,10.1228,-6.6646,4.8938,18.073923,-0.71217924,10.554014,-1
621,622,1583238069708,13.6831,-4.8145,4.2148,21.602106,1.1186764,10.312391,-1
622,623,1583238069719,16.3302,-2.7512999,4.0966997,22.867039000000002,2.0233781000000004,10.559761,-1
623,624,1583238069729,16.5369,-1.796,4.3803997,22.435892000000003,2.2447077999999996,11.019589999999999,-1
624,625,1583238069739,14.4979,-1.5899999,4.6208,19.27432,1.7906234,11.246255,-1
625,626,1583238069749,12.2081995,-1.6853,4.3377,17.84273,1.471103,11.105169,-1
626,627,1583238069759,11.140699,-1.4643999,4.1261997,17.75111,1.9051523999999997,11.021985,-1
627,628,1583238069770,12.8796,0.3337,3.7886998999999997,21.079931,3.939908,10.842362,-1
628,629,1583238069780,16.136,2.2247,3.7539999999999996,24.452787,5.4740834000000005,11.185251,-1
629,630,1583238069790,19.288399,4.1012,4.0362,26.471998,6.6471663,11.434277,-1
630,631,1583238069800,19.9777,5.0908,4.0453997,24.434620000000002,6.418625,11.518972999999999,-1
631,632,1583238069810,16.5529,4.4881997,3.8235,20.088894,5.0625587,10.85759,-1
632,633,1583238069821,12.492599499999999,3.2773,2.8537,16.117393,3.6112319999999998,9.776072000000001,-1
633,634,1583238069831,9.571899,2.2881,1.9573,14.178942000000001,2.8710694,8.861353,-1
634,635,1583238069841,7.9251,1.7751,0.9934,14.061395999999998,2.9976458999999998,7.9477057,-1
635,636,1583238069851,8.2136,2.1336,0.1428,15.359656,3.5784314,7.459949000000001,-1
636,637,1583238069862,9.458099,2.7637,-0.26049998,15.634913000000001,3.8040419,7.270328500000001,-1
637,638,1583238069871,9.469999000000001,2.9989998,-0.42659998,14.95246,3.6997597,7.164179300000001,-1
638,639,1583238069882,8.7325,2.9226,-0.5725,14.0804825,3.390046,7.132575500000001,-1
639,640,1583238069893,7.5964,2.6267998,-0.6092,12.461139999999999,2.9875422,7.141741000000001,-1
640,641,1583238069902,6.2412996,2.3599,-0.67069995,10.881435,2.5702043,7.346541,-1
641,642,1583238069912,4.6463,1.9713,-0.3172,9.540281,2.0930207,8.64007,-1
642,643,1583238069922,3.5180000000000002,1.5989,1.0753,9.524632,2.1176906000000004,9.423252,-1
643,644,1583238069932,3.7917,1.8018,1.5423,10.50432,2.5327973,8.642991,-1
644,645,1583238069942,4.798899700000001,2.2229,0.5384,11.549514,2.9961615000000004,7.1320972000000005,-1
645,646,1583238069953,5.767299700000001,2.7008,-0.9553,12.05967,3.2080482999999997,5.974021400000001,-1
646,647,1583238069963,6.1082997,2.8248,-1.9564999,11.685839999999999,2.9479613,5.6396,-1
647,648,1583238069973,5.736000000000001,2.5823998,-2.1633,10.832202,2.5471146,6.2532525,-1
648,649,1583238069983,4.888499700000001,2.1985,-1.5604,9.928811,2.2027326,7.318701299999999,-1
649,650,1583238069993,3.9766,1.8835,-0.4825,9.265924,1.8348779999999998,8.290382000000001,-1
650,651,1583238070004,3.3079998,1.5222,0.4868,8.4697275,1.4308418999999999,8.665497,-1
651,652,1583238070014,2.4896998,1.1169,0.8779,7.52285,1.0171335,8.530588999999999,-1
652,653,1583238070024,1.5060999,0.68509996,0.77629995,7.117501700000001,0.8752052,8.100599,-1
653,654,1583238070034,0.88549995,0.502,-0.0081,6.936702,0.9115492000000001,7.642838,-1
654,655,1583238070044,0.7597,0.53999996,-0.2296,6.869395699999999,0.980598,7.371546,-1
655,656,1583238070055,0.6839,0.51699996,-0.3913,6.7959604,0.964959,7.2884574,-1
656,657,1583238070065,0.6259,0.5324,-0.089099996,6.760124,0.9995984,7.641362700000001,d
657,658,1583238070075,0.7388,0.5146,0.26819998,6.967242,1.0036684999999999,7.9640727,-1
658,659,1583238070085,1.0769,0.5944,0.39049998,7.2486369999999996,1.0681587,8.043655000000001,-1
659,660,1583238070095,0.9229999999999999,0.5215,0.4949,6.9525795,0.98557794,8.169303999999999,-1
660,661,1583238070106,0.5796,0.4016,0.54359996,6.679296000000001,0.8958337,8.151644000000001,-1
661,662,1583238070115,0.40969998,0.3344,0.5463,6.564067999999999,0.9096146999999999,8.148455,-1
662,663,1583238070125,0.40969998,0.3344,0.5463,6.47735,1.0903194999999999,8.056001,-1
663,664,1583238070135,0.7168,0.64089996,0.2393,7.027067999999999,1.2956845,7.7669435,-1
664,665,1583238070146,1.0993,0.6853,0.0539,7.340325999999999,1.348874,7.643555999999999,-1
665,666,1583238070156,1.1712999,0.74079996,0.24839999,7.439436,1.4175781,7.895942999999999,-1
666,667,1583238070166,1.3835,0.6019,0.6464,7.6499724,1.2974945,8.274725,-1
667,668,1583238070176,1.3835,0.6019,0.6464,7.745500999999999,1.2743666,8.512,-1
668,669,1583238070186,1.7592,0.5866,1.1895,8.0856695,1.4118799,8.775611,-1
669,670,1583238070197,2.4515998,0.88369995,1.1786,8.831999,1.7802038,8.705796000000001,-1
670,671,1583238070207,3.2468,1.2757,1.0466,9.828178,2.3249419999999996,8.587245,-1
671,672,1583238070217,4.3118,1.6647999,0.96019995,11.037624000000001,2.731832,8.506944,-1
672,673,1583238070227,5.6856,2.1099,0.93909997,12.270696000000001,3.2492957000000002,8.573915,-1
673,674,1583238070237,6.5428,2.4419,1.2205,12.86148,3.489185,9.061269,-1
674,675,1583238070248,6.871,2.4903,1.8659999,13.030223,3.5782974000000003,9.752015,-1
675,676,1583238070258,7.0116997,2.6162999,2.5733,13.239581,3.9237900000000003,10.455833,-1
676,677,1583238070268,7.4817995999999996,3.0825999,3.2179,13.919381,4.5362363,11.025586,-1
677,678,1583238070278,8.4831,3.62,3.5885,14.967381,5.154314,11.266461999999999,-1
678,679,1583238070289,9.3996,4.0287,3.8026,15.684463000000001,5.583096,11.487581,-1
679,680,1583238070299,9.812699,4.187999700000001,4.0260997000000005,16.019432000000002,5.8746243,11.637342,-1
680,681,1583238070309,10.254499000000001,4.2051,4.0527997000000004,16.465223,5.9419394,11.448373,-1
681,682,1583238070319,10.5405,4.013099700000001,3.6766,16.670147,5.9350824,10.809284,-1
682,683,1583238070330,10.6405,3.7772,3.1160997999999998,16.732433,5.883329,10.162811,-1
683,684,1583238070340,10.6907,3.4812999,2.5990999,16.731209,5.844332700000001,9.753567,-1
684,685,1583238070350,10.6424,3.1882,2.4305,16.61308,5.753161,9.702808000000001,-1
685,686,1583238070360,10.4092,2.7431997999999997,2.5707998,16.105526,5.3884573,9.799094,-1
686,687,1583238070370,9.7772,2.0173,2.7958,15.369329,4.9485470000000005,9.866544000000001,-1
687,688,1583238070380,8.9527,1.2745,2.9124,14.3613405,4.503417,9.7957325,-1
688,689,1583238070391,7.8508,0.48749998,3.0570998,13.103907000000001,3.9750739999999998,9.924406,-1
689,690,1583238070401,6.6215997,-0.3093,3.4039998,11.596708999999999,3.5847518,10.00287,-1
690,691,1583238070411,5.3645,-0.94509995,3.6086,10.237414999999999,3.2117066000000003,9.916736,-1
691,692,1583238070422,4.0611,-1.6628,3.6606998,8.956498,2.8010437,9.571760000000001,-1
692,693,1583238070432,2.8583,-2.4098,3.4617998999999995,7.751563000000001,2.4991922000000004,8.904333,-1
693,694,1583238070442,1.7652999,-2.9947999,2.98,6.969674,2.3844717,8.1448345,-1
694,695,1583238070452,1.1933,-3.4010000000000002,2.455,6.8409047,2.4434266,7.3598814,-1
695,696,1583238070463,1.2495999,-3.6216998,1.9181,6.874337,2.5343297000000002,6.929125999999999,-1
696,697,1583238070473,1.3780999,-3.8309998999999997,1.8600999,6.702759299999999,2.5491639999999998,7.2884574,-1
697,698,1583238070483,1.3367,-4.0705,2.4041997999999998,5.7826962,2.3716197,7.866886999999999,-1
698,699,1583238070493,0.5579,-4.4939,3.1625,4.195896,2.105346,8.2645645,-1
699,700,1583238070503,-0.863,-5.0105,3.7461,2.7795053,1.9328008,8.083055,-1
700,701,1583238070514,-2.1101,-5.4144,3.7819998,1.6171491000000002,2.1756206000000002,7.095964,-1
701,702,1583238070524,-3.0107,-5.454799700000001,3.188,1.5269643,2.464371,6.285277400000001,-1
702,703,1583238070534,-2.9940999,-5.361799700000001,2.4366999,1.7795622,2.8523657000000004,5.4554279999999995,-1
703,704,1583238070544,-2.6145,-5.1186,1.7567999,1.9063879000000001,3.068562,4.714662000000001,-1
704,705,1583238070554,-2.3058999,-5.0694,1.1891,2.3741380000000003,3.3208344,4.140532,-1
705,706,1583238070564,-1.5609,-4.9136,0.60539997,2.4061725,3.5029470000000003,3.5063082999999997,-1
706,707,1583238070574,-1.4456999,-4.9189,0.24049999,1.5967889,3.7221599999999997,3.6942915999999997,-1
707,708,1583238070585,-2.1216,-4.5694,0.78709996,1.3741568000000002,4.1262726999999995,3.9084193999999997,-1
708,709,1583238070595,-1.4563999,-4.4639,1.0063,1.9621728999999999,4.314083599999999,4.020056200000001,-1
709,710,1583238070605,-1.4563999,-4.4639,1.0063,2.2017558,4.355321,3.931193,-1
710,711,1583238070615,-1.3848,-4.9126997,0.9395,1.3348057,3.9550297,3.7569525,-1
711,712,1583238070625,-2.363,-5.2599998,0.7782,0.12859736,3.7264888,3.4954388,-1
712,713,1583238070636,-2.9922,-5.4007998,0.4858,-0.47284526,3.7329242,3.1129314999999997,-1
713,714,1583238070646,-2.3694,-5.0773997,0.1664,0.24769454,4.1834555,2.7750714,-1
714,715,1583238070656,-0.973,-4.5754,0.1319,1.4443262,4.690318,2.7977684,-1
715,716,1583238070666,-0.1162,-4.4378,0.3245,1.9915928,4.7469454,3.0306091,-1
716,717,1583238070676,-0.2539,-4.8835,0.7604,1.4571782,4.294125599999999,3.5183082000000003,-1
717,718,1583238070686,-1.1909,-5.2871,1.3017,0.33406776,3.9528367999999996,4.0449657,-1
718,719,1583238070696,-1.7606,-5.5712,1.5376999,-0.4463558,3.6842453,4.1562862,-1
719,720,1583238070706,-2.1364,-5.7367,1.3751999,-0.8531306999999999,3.6176102,3.9283773999999996,-1
720,721,1583238070716,-2.5254998,-5.6854,0.86219996,-1.401604,3.7312865,3.302581,-1
721,722,1583238070727,-2.8523998,-5.6366997,0.0081,-1.9043192999999998,3.7303674,2.2055194,-1
722,723,1583238070737,-3.074,-5.7608,-0.7053,-2.133109,3.6624388999999997,1.7900870999999998,-1
723,724,1583238070748,-3.1475,-5.6370000000000005,-0.7037,-2.0225928,3.9843347000000002,2.0000970000000002,-1
724,725,1583238070757,-2.1843998,-5.1524997,-0.2026,-1.0034482,4.446587999999999,2.5888598,-1
725,726,1583238070767,-2.1843998,-5.1524997,-0.2026,-0.715014,4.411919999999999,3.2086804,-1
726,727,1583238070777,-1.3995,-4.9762,0.408,-0.9441869,4.3895583,3.5182027999999996,-1
727,728,1583238070787,-1.6848999,-4.9349,0.7863,-1.158219,4.5875874,3.3190242999999997,-1
728,729,1583238070798,-1.8131,-4.4955997000000005,0.21059999,-1.3759763999999999,5.1625695,2.5675898,-1
729,730,1583238070808,-1.8422999,-3.9807,-0.4104,-1.3739845,5.688671,1.9972143,-1
730,731,1583238070818,-1.5868,-3.4180998999999996,-0.857,-1.0310295,6.2136045,1.6399419999999998,-1
731,732,1583238070828,-1.1717,-2.9729997999999997,-0.9982,-0.7281342,6.6119037,1.617063,-1
732,733,1583238070838,-1.0043,-2.7619998,-0.90739995,-0.7759129,6.7156972999999995,1.7168629000000002,-1
733,734,1583238070848,-1.1006,-2.7258,-0.82229996,-0.88812435,6.802578,1.7878653999999998,-1
734,735,1583238070859,-1.0018,-2.5212998,-0.6936,-0.56562537,7.193561,1.9452026000000002,-1
735,736,1583238070869,-0.6428,-2.0897,-0.5796,-0.35635296,7.6367273,2.0180535,-1
736,737,1583238070879,-0.36519998,-1.4606999,-0.55759996,-0.046112325,8.365982,1.9633316000000003,-1
737,738,1583238070889,-0.1582,-0.86039996,-0.67469996,-0.030205247999999997,8.966209,1.8697278000000002,-1
738,739,1583238070900,-0.1583,-0.28939998,-0.6943,-0.050623,9.421672000000001,1.9550476000000003,-1
739,740,1583238070910,-0.0813,0.0165,-0.6044,0.05775772,9.539083999999999,2.0600095,-1
740,741,1583238070920,0.0042,0.10569999,-0.5302,0.03257072,9.639525,2.0590327,d
741,742,1583238070930,-0.0173,0.18439999,-0.60969996,0.13019669,9.60096,1.8784043999999998,-1
742,743,1583238070940,0.2272,0.1257,-0.7869,0.29989770000000004,9.700577000000001,1.7352695,-1
743,744,1583238070950,0.28779998,0.3233,-0.87049997,0.15405253,9.87659,1.9155337,-1
744,745,1583238070961,0.1468,0.43469998,-0.5591,-0.13845189,9.966267,2.41257,-1
745,746,1583238070971,-0.10969999400000001,0.5575,-0.1645,-0.5754703,10.106327,2.709882,-1
746,747,1583238070981,-0.49289998,0.65099996,0.103199996,-0.87814534,10.002371,2.9032857000000005,-1
747,748,1583238070991,-0.74939996,0.518,0.2374,-1.1962485,9.748069000000001,2.8111567,-1
748,749,1583238071001,-1.0264,0.2465,0.0622,-1.4021115,9.533299000000001,2.51599,-1
749,750,1583238071011,-1.207,0.0036,-0.3247,-1.4468832,9.2642,2.1655265999999997,-1
750,751,1583238071021,-1.1258,-0.2489,-0.5359,-1.3786293,8.80006,2.3076369999999997,-1
751,752,1583238071031,-1.0661,-0.7256,-0.3401,-1.5549191,8.406004,2.585077,-1
752,753,1583238071041,-1.2717,-1.0832,-0.060599997999999995,-1.9458060000000001,8.103712,3.023101,-1
753,754,1583238071051,-1.6538999,-1.3909,0.39299998,-2.293923,7.759962,3.4722629,-1
754,755,1583238071061,-2.0469,-1.8061999,0.9439,-2.8547406000000004,7.228602400000001,4.1403217,-1
755,756,1583238071072,-2.5098,-2.2905998,1.4476,-3.4197434999999996,6.5768433,4.395362,-1
756,757,1583238071082,-3.0756997999999998,-2.9710999,1.6385,-4.1531353,5.880054,4.3773665,-1
757,758,1583238071092,-3.8100998,-3.6641,1.5525999,-4.8921776,5.1967106,4.0861263,-1
758,759,1583238071102,-4.5034,-4.3469,1.2305,-5.455083,4.504393599999999,3.8527112,-1
759,760,1583238071113,-5.0164,-5.0291,1.0231,-5.996173000000001,3.8166258,3.7901552000000005,-1
760,761,1583238071123,-5.6054,-5.6900997,1.0051,-6.889487700000001,3.2279107999999996,4.287603400000001,-1
761,762,1583238071133,-6.5365,-6.2509,1.6261,-7.6385565,2.6671693,5.351826,-1
762,763,1583238071143,-7.2061,-6.8499,2.6924,-8.010013,1.868732,6.4172839999999995,-1
763,764,1583238071154,-7.5806,-7.6468997000000005,3.6739,-8.315541,1.0700166000000002,7.135783999999999,-1
764,765,1583238071165,-8.0792,-9.1685,4.2686,-8.464891,0.005746084300000001,7.1250005000000005,-1
765,766,1583238071175,-8.3579,-10.1477995,3.6286,-8.6916895,-0.9948195,6.3430542999999995,-1
766,767,1583238071185,-8.8512,-11.1783,2.8408,-9.092575,-2.020285,5.6147285,-1
767,768,1583238071195,-9.180099499999999,-12.1092,2.5916,-9.222781,-2.8915634,5.457669,-1
768,769,1583238071205,-9.3018,-12.859799,2.71,-9.129226,-3.6299257000000007,5.592960400000001,-1
769,770,1583238071215,-9.053599,-13.644898999999999,2.9533,-8.581777,-4.4474883,5.796208999999999,-1
770,771,1583238071226,-8.2535,-14.415,2.9442,-7.4561953999999995,-5.18949,5.6964760000000005,-1
771,772,1583238071236,-7.1267,-14.9127,2.5372999,-6.0259566,-5.620647,5.2120337,-1
772,773,1583238071246,-6.0294,-15.300799,2.0797,-4.6823115,-6.0464892,4.7403755,-1
773,774,1583238071256,-5.3669996,-15.760098999999999,1.8240999,-3.68935,-6.6539655,4.585653,-1
774,775,1583238071267,-4.920099700000001,-16.305198999999998,2.0441,-2.8872638,-7.2531479999999995,4.9239726,-1
775,776,1583238071277,-4.0720997,-16.6674,2.4522,-1.335026,-7.578252,5.4187392999999995,-1
776,777,1583238071287,-3.0295,-16.6286,2.7198,-0.01247858,-7.6026343999999995,5.579237,-1
777,778,1583238071298,-1.7314999,-16.531599,2.3171,2.3583367,-7.6748433,4.874537,-1
778,779,1583238071308,1.1722,-16.2941,1.1509,6.0528865,-7.4068265,3.7393023999999997,-1
779,780,1583238071318,4.5045,-15.5188,-0.042799998,9.669807,-6.7672586,2.6640284,-1
780,781,1583238071328,7.4613,-14.578,-1.2179999,12.879216,-5.943376,1.7431225,-1
781,782,1583238071338,9.6395,-13.0689,-2.0477,14.863252,-4.527886,1.3219154,-1
782,783,1583238071348,10.5448,-11.2182,-2.2879999,15.678142999999999,-3.1424952,1.6273867,-1
783,784,1583238071359,10.3659,-10.069799,-1.6801,15.513248999999998,-2.8167400000000002,3.4722342000000004,-1
784,785,1583238071369,10.1517,-9.7164,0.1565,16.557207000000002,-2.8835669,5.920861,-1
785,786,1583238071379,11.5982,-9.2338,2.184,19.276484,-2.4673877,7.4165472999999995,-1
786,787,1583238071389,14.6754,-8.1157,2.6273,22.968918,-1.5359379,6.9158144,-1
787,788,1583238071399,17.7966,-6.7261,1.4681,25.0657,-0.46028048,5.894352,-1
788,789,1583238071409,19.5844,-4.2321,-0.028299998,27.154118,2.4729419999999998,4.525022,-1
789,790,1583238071420,21.1157,-1.4864,-1.0174999,28.513937,4.1810617,4.4870496,-1
790,791,1583238071430,21.9384,0.2802,-0.7486,28.885489,5.1541896,5.5612903,-1
791,792,1583238071440,22.0539,1.4268,0.25329998,28.856289,5.339903,7.015364999999999,-1
792,793,1583238071450,21.7642,1.6134,1.4907,27.836778999999996,4.725781,8.392233000000001,-1
793,794,1583238071460,20.4403,1.4074999,2.4745998,27.270552000000002,5.059876999999999,8.711285,-1
794,795,1583238071470,20.5807,2.4204,2.1866,28.457634000000002,6.606867,7.239578,-1
795,796,1583238071481,21.637299,4.2755,0.4402,28.943293,7.844659299999999,5.3281903,-1
796,797,1583238071491,21.8927,5.8156,-1.8778,28.438872999999997,8.86003,3.4152807999999997,-1
797,798,1583238071501,21.1126,6.6528997,-3.0877,27.213568,9.044864,3.5099379999999996,-1
798,799,1583238071511,19.9131,6.9466,-2.7895,26.241217,8.901173,4.798104299999999,-1
799,800,1583238071521,19.077099,6.9586997,-1.4771,25.616598,8.5679865,6.350141000000001,-1
800,801,1583238071531,18.4686,6.779,-0.0371,24.79603,8.078448,7.691766,-1
801,802,1583238071542,17.5588,6.407,1.1896,23.76493,7.728052000000001,8.206432000000001,-1
802,803,1583238071552,16.5769,6.2816,1.4542999,23.128708,7.883196400000001,7.431161400000001,-1
803,804,1583238071562,15.897699,6.5084995999999995,0.5182,22.514614,7.969292,5.9847283,-1
804,805,1583238071572,15.189198999999999,6.5754,-0.8473,21.618568,7.9299789999999994,4.8656120000000005,-1
805,806,1583238071582,14.104899,6.4967,-1.7206,19.657629999999997,7.688269999999999,4.679582,-1
806,807,1583238071592,12.3119,6.2358,-1.6840998999999999,17.675978,7.085736,5.385603400000001,-1
807,808,1583238071603,10.260699,5.5811,-0.8851,16.032475,6.2013655,6.744111999999999,-1
808,809,1583238071613,8.550099000000001,4.6408997,0.5794,14.678899,5.3266480000000005,8.26828,-1
809,810,1583238071623,6.7704,3.4599,2.6032999,12.8047085,3.8994555,10.62244,-1
810,811,1583238071633,5.1424,2.1792,4.7358,11.8868,2.8053246,12.686549000000001,-1
811,812,1583238071643,4.1032,0.9633,6.9778,10.974618,2.4016333,14.903579999999998,-1
812,813,1583238071654,3.0591,0.4217,9.4372,9.7632,2.5974312000000004,17.448654,-1
813,814,1583238071664,1.7189,0.46019998,12.2381,8.372207000000001,2.8730995999999998,19.123245,-1
814,815,1583238071674,0.20979999,0.5636,14.1762,7.0593133,3.085695,20.134048,-1
815,816,1583238071685,-2.1517,0.3936,16.7031,6.0109496,2.976299,21.511423,-1
816,817,1583238071695,-2.6239,-0.3206,18.183199,5.599597,2.3707385,22.871666,-1
817,818,1583238071705,-3.1209,-1.2278,19.7565,5.0765314,1.6664506000000001,24.195535999999997,-1
818,819,1583238071715,-3.843,-2.0124,20.3734,4.3393755,1.1194808,24.304958,-1
819,820,1583238071725,-4.6247,-2.6,19.47,3.601205,0.8706944999999999,22.94829,-1
820,821,1583238071736,-4.9834,-2.7279,17.5964,3.3389442000000003,1.0485263,20.736496,-1
821,822,1583238071746,-4.8354,-2.5772,15.357698999999998,3.5333437999999995,1.4394516000000002,18.442420000000002,-1
822,823,1583238071756,-4.4206,-2.4877,13.7328,3.8926845,1.6828938999999998,16.846838,-1
823,824,1583238071766,-3.952,-2.5528,12.4353,4.2730083,1.7792175,15.515203,-1
824,825,1583238071776,-3.6213998999999997,-2.8086,11.056399,4.4464635999999995,1.6873376,14.044732000000002,-1
825,826,1583238071786,-3.5756,-3.2721999,9.498099,4.29786,1.2970731000000002,12.1131,-1
826,827,1583238071797,-3.5756,-3.2721999,9.498099,4.0093875,1.019384,10.765778,-1
827,828,1583238071807,-3.5756,-3.2721999,9.498099,4.0093875,1.019384,10.765778,-1
828,829,1583238071817,-4.1653,-4.9010997000000005,4.7314997000000005,3.4770513,0.34426707,7.6527114,-1
829,830,1583238071827,-4.0586,-5.1709,3.5981998,3.548025,0.23455514,6.2681154999999995,-1
830,831,1583238071837,-3.8246,-5.4386,2.5556,3.6610312000000005,0.10197384,5.2669754,-1
831,832,1583238071847,-3.6690998,-5.7051997000000005,1.6812999,3.6039053999999995,-0.07034165,4.409018,-1
832,833,1583238071857,-3.8269,-6.1586,0.8775,3.2916347999999997,-0.42191579999999995,3.6532454,-1
833,834,1583238071867,-4.0153,-6.5632997,0.1366,3.0702762999999997,-0.6035017,3.061102,-1
834,835,1583238071877,-4.1881,-6.9168,-0.65889996,2.7416577,-0.8807023000000002,2.025035,-1
835,836,1583238071887,-4.2117,-7.1197,-1.6326,2.7540214,-0.8852896,1.2356473999999997,-1
836,837,1583238071897,-4.2117,-7.1197,-1.6326,2.9835392999999995,-0.61864257,0.35971445,-1
837,838,1583238071907,-3.3553998,-6.5390997,-3.9829998,3.6395410000000004,0.05963478,-1.4815128,-1
838,839,1583238071917,-2.7879999,-6.0783997,-5.240999700000001,4.125171,0.6287844,-2.588314,-1
839,840,1583238071927,-2.2107,-5.4941,-6.1854,4.6011767,1.1307049,-3.2639862999999996,-1
840,841,1583238071937,-1.3872,-4.9343,-6.6405997,5.6131296,1.8261436999999998,-3.533861,-1
841,842,1583238071947,-0.4547,-4.303499700000001,-6.4351997,6.341541,2.3845389999999997,-3.241749,-1
842,843,1583238071957,0.30429998,-3.7835,-6.0920000000000005,7.026819000000001,2.8734539,-2.8500384999999997,-1
843,844,1583238071967,0.5115,-3.4966,-5.9927998,7.0398245,3.2005594,-2.8362575,-1
844,845,1583238071978,0.3761,-3.1778998,-6.1443996,6.895952,3.4489338,-2.9763662999999996,-1
845,846,1583238071988,0.3482,-2.8817,-6.3183,6.9532213,3.8204947,-3.017125,-1
846,847,1583238071998,0.6897,-2.4573,-6.2118998,7.4513300000000005,4.325863,-2.7552664,-1
847,848,1583238072009,1.3984,-1.8449,-5.9097,8.380711999999999,5.086673,-2.266428,-1
848,849,1583238072019,2.2487,-1.1647999,-5.5536,9.069657000000001,5.571547,-1.9320728999999999,-1
849,850,1583238072029,2.9580998,-0.6367,-5.2858996,9.715709,6.002762000000001,-1.6479863999999997,-1
850,851,1583238072039,3.6269998999999995,-0.1964,-5.0738,10.327685,6.3862457,-1.2655558999999998,-1
851,852,1583238072050,3.9719,0.113699995,-4.7075,10.424402,6.6300235,-0.35541445,-1
852,853,1583238072060,3.8755998999999997,0.28239998,-3.8720999,10.136514,6.6465335,0.51298165,-1
853,854,1583238072071,3.4489,0.28959998,-2.8955998,9.576232000000001,6.587559700000001,1.4362816,-1
854,855,1583238072081,2.889,0.2748,-2.1271,8.957618,6.713361,2.2900348,-1
855,856,1583238072091,2.4391,0.48549998,-1.518,8.712461,6.915603599999999,2.641063,-1
856,857,1583238072101,2.2430000000000003,0.74549997,-1.23,8.874367,7.201864200000001,2.8564935,-1
857,858,1583238072111,2.504,1.0236,-1.1582999,9.119122500000001,7.3382187000000005,2.8602092,-1
858,859,1583238072121,2.7717,1.1405,-1.2114999,9.133832,7.2832284,2.775282,d
859,860,1583238072132,2.6276,1.0439,-1.3317,8.620092999999999,7.0615163,2.690623,-1
860,861,1583238072142,2.0546,0.80179995,-1.3744999,7.962300999999999,6.745893,2.8927224,-1
861,862,1583238072152,1.4143,0.4957,-1.1273,7.386716000000001,6.514699,3.3030502999999998,-1
862,863,1583238072162,0.84239995,0.2874,-0.75159997,6.804177799999999,6.40086,3.4570644,-1
863,864,1583238072172,0.31,0.19829999,-0.65349996,6.680703599999999,6.340401,3.4830942000000005,-1
864,865,1583238072182,0.3153,0.123399995,-0.6181,6.960088000000001,6.3196483,3.7230027000000003,-1
865,866,1583238072192,0.611,0.14199999,-0.33929998,7.1645335999999995,6.4311132,4.177078,-1
866,867,1583238072203,0.78599995,0.2713,0.0968,7.265464,6.474812,4.53051,-1
867,868,1583238072213,0.8619,0.2927,0.40699998,7.1499095,6.449721,4.7300806,-1
868,869,1583238072223,0.722,0.3215,0.58379996,7.194202400000001,6.640596400000001,4.783998,-1
869,870,1583238072233,0.84599996,0.52419996,0.57949996,7.5409117,6.841757,4.6008705999999995,-1
870,871,1583238072243,1.175,0.72459996,0.36429998,7.6888547,7.0047635999999995,4.319168599999999,-1
871,872,1583238072254,1.3001,0.8925,0.062099997000000004,7.827075999999999,7.1950455,3.9192028,-1
872,873,1583238072264,1.4087,1.048,-0.26049998,7.970039,7.2668905,3.6340440000000003,-1
873,874,1583238072274,1.5604999,1.1136999,-0.5477,8.085545,7.271142500000001,3.4576773999999997,-1
874,875,1583238072284,1.6875,1.1194,-0.7324,8.147353,7.206930000000001,3.5360922999999995,-1
875,876,1583238072294,1.7588999,1.0459,-0.6659999999999999,8.127711,7.268203,3.887178,-1
876,877,1583238072304,1.7534,1.0985,-0.33499998,8.086761,7.417639299999999,4.210587,-1
877,878,1583238072315,1.6722,1.4193,0.089099996,7.9761586,7.655173,4.316286,-1
878,879,1583238072325,1.6722,1.4193,0.089099996,7.822048,7.753976299999999,4.2592754,-1
879,880,1583238072335,1.4781,1.5481,0.0392,7.9721265,7.9448614,4.072135,-1
880,881,1583238072345,2.1763,1.9555999,-0.51669997,8.628003999999999,8.296551,3.5398943,-1
881,882,1583238072355,2.8065999,2.3161,-1.0324,9.250217999999998,8.660163,3.0942566000000005,-1
882,883,1583238072366,3.4998998999999995,2.6474,-1.0735999,9.927519,9.031704,3.0979629,-1
883,884,1583238072377,3.4998998999999995,2.6474,-1.0735999,10.358581,9.429247,3.2478017999999995,-1
884,885,1583238072387,4.3996997,3.4799,-0.6264,10.677086,9.913364,3.6703398000000003,-1
885,886,1583238072397,4.43,3.6510000000000002,-0.2359,10.604188,10.101481,4.094698,-1
886,887,1583238072407,4.4529,3.8037998999999996,0.2233,10.6683235,10.340452,4.5549498,-1
887,888,1583238072417,4.6231,3.978,0.70559996,10.905397,10.528349,4.9908,-1
888,889,1583238072427,4.6231,3.978,0.70559996,11.102841,10.6905985,5.1996603,-1
889,890,1583238072437,5.4554,4.3596997,1.4095,11.761314,11.09497,5.4251847,-1
890,891,1583238072447,6.0034,4.555,1.4844998999999999,12.123443,11.266912,5.3758636,-1
891,892,1583238072457,6.2753,4.4634,1.3658,12.253889,11.224439,5.0959625,-1
892,893,1583238072467,6.0990996,4.2911997,1.175,11.765873,11.098972999999999,4.8002977,-1
893,894,1583238072478,5.437599700000001,3.991,0.9964,11.123298,10.933648,4.5780487,-1
894,895,1583238072489,4.6214,3.5663998,0.91749996,10.017168,10.591402,4.424514,-1
895,896,1583238072499,3.8239,3.2661,0.97709996,9.15061,10.386948,4.375796299999999,-1
896,897,1583238072509,3.4141,2.9264,0.9896,8.872566,10.158387,4.276944,-1
897,898,1583238072519,3.2333998999999998,2.5293999,0.97389996,8.4993305,9.8496685,4.1023974,-1
898,899,1583238072529,2.9501,2.1241,0.86899996,8.042219000000001,9.539591999999999,3.9093387,-1
899,900,1583238072539,2.6052,1.7104,0.8093,7.622582400000001,9.340451,3.832983,-1
900,901,1583238072549,2.1392,1.4067,0.9614,7.076465,9.232156,3.9902341,-1
901,902,1583238072559,2.0414999,1.36,1.229,7.0903425,9.300208999999999,4.176838,-1
902,903,1583238072569,2.2338,1.1467999,1.4999,7.013536,8.947822,4.3831224,-1
903,904,1583238072580,2.0822,0.5481,1.7985,6.401098999999999,8.434677,4.480882,-1
904,905,1583238072590,1.5489998999999999,-0.0449,1.8837999,5.6836915,8.064246,4.2925835,-1
905,906,1583238072600,0.9848,-0.5517,1.6879,4.9044742999999995,7.6212516,3.6880572,-1
906,907,1583238072610,0.2513,-1.0767,1.0674,3.7120469,7.2621694,2.8890162,-1
907,908,1583238072620,-0.8488,-1.6059999999999999,0.47169998,2.4804409,6.5361037,2.337622,-1
908,909,1583238072630,-1.5476999,-2.3892,0.2626,2.0776882,6.040504,2.275229,-1
909,910,1583238072641,-1.7052,-2.9621,0.3551,2.1645307999999996,5.8526739999999995,2.3146377,-1
910,911,1583238072651,-1.1754999,-3.1595,0.4375,2.801015,5.7116074999999995,2.3552432,-1
911,912,1583238072661,-0.59319997,-3.327,0.57919997,2.7804916,5.751926,2.5877585,-1
912,913,1583238072671,-0.48229998,-3.3207998,0.8799,2.7237875,5.789103,3.0182743,-1
913,914,1583238072682,-0.3981,-3.4094,1.3407999,2.527942,5.5677257,3.3033855000000005,-1
914,915,1583238072692,-0.48119998,-3.6889999999999996,1.5962,2.2092354,5.089843,3.37457,-1
915,916,1583238072702,-0.6897,-4.2833,1.6524999,1.5134324,4.463903,3.0602782000000004,-1
916,917,1583238072712,-1.3397,-4.9656997,1.3034999,0.5130583,3.9760413,2.4511933,-1
917,918,1583238072722,-2.1302,-5.469599700000001,0.7514,-0.050900728,3.6817937000000005,1.9016857,-1
918,919,1583238072733,-2.4796999,-5.7620997,0.2978,-0.50300264,3.5999693999999995,1.43994,-1
919,920,1583238072743,-2.7939999999999996,-5.8206997000000005,-0.121199995,-0.7728292,3.8247660000000003,1.0860482,-1
920,921,1583238072753,-2.8781998,-5.6547,-0.34700000000000003,-0.71178657,3.9688299,1.4366071000000002,-1
921,922,1583238072763,-2.7235,-5.5292,0.011299999,-0.74300694,3.9405303,2.1102111,-1
922,923,1583238072773,-2.6712,-5.5738,0.66569996,-0.8001996,4.0586796000000005,2.4381976,-1
923,924,1583238072784,-2.6499999,-5.4182,0.99979997,-0.6385526999999999,4.327328,2.4663150000000003,-1
924,925,1583238072794,-2.3456,-5.1428,0.9641,0.32267135,5.0236095999999995,2.0765675999999997,-1
925,926,1583238072804,-1.4433,-4.5232,0.5839,0.78029907,5.6415725,1.4134026000000002,-1
926,927,1583238072814,-0.9377,-3.9041,-0.0703,0.72589326,5.8100760000000005,0.91945004,-1
927,928,1583238072824,-0.9490000000000001,-3.7568,-0.55289996,0.19434215,5.7590794999999995,0.9787688,-1
928,929,1583238072835,-1.7208999,-3.8539,-0.2681,-0.25987622,5.728951,1.2565441000000002,-1
929,930,1583238072844,-1.7208999,-3.8539,-0.2681,-0.63930935,5.8060540000000005,1.4575038,-1
930,931,1583238072854,-2.1457999,-3.7828,-0.0029,-0.9759437,6.032881,1.630662,-1
931,932,1583238072864,-2.4412,-3.5632,0.2426,-0.9449052,6.2112393,1.6811318,-1
932,933,1583238072874,-2.4426,-3.4204998,0.2426,-0.5670523000000001,6.445392,1.4584806000000001,-1
933,934,1583238072884,-1.224,-2.5727,-0.49899998,0.37931818,7.161525999999999,0.83759713,-1
934,935,1583238072894,-0.5567,-1.9854,-0.88409996,0.9534764000000001,7.7070217,0.52354485,-1
935,936,1583238072905,-0.5567,-1.9854,-0.88409996,1.0549235000000001,7.984490400000001,0.5391838000000001,-1
936,937,1583238072915,-0.2305,-1.2591,-0.7242,1.2050114,8.375483000000001,0.7302890000000001,-1
937,938,1583238072925,-0.25599998,-1.092,-0.7308,1.150232,8.554856,0.7201663,-1
938,939,1583238072935,-0.3877,-0.94519997,-0.6951,1.0090219,8.675706,0.7898566999999999,-1
939,940,1583238072945,-0.5679,-0.9754,-0.5876,0.8107533,8.645759,0.8830199000000001,-1
940,941,1583238072956,-0.82739997,-0.93729997,-0.63449997,0.55823207,8.691154,0.80275667,d
941,942,1583238072966,-0.78669995,-0.8204,-0.6899,0.6891566,8.834671,0.7381898,-1
942,943,1583238072976,-0.37829998,-0.5848,-0.7958,1.1538137,9.059544,0.6478421999999999,-1
943,944,1583238072986,0.0765,-0.41669998,-0.91679996,1.5674264,9.283881,0.49642336,-1
944,945,1583238072997,0.072299995,-0.13,-0.9963,1.437249,9.606888,0.48627195,-1
945,946,1583238073007,-0.0558,0.088599995,-0.9072,1.3371806999999998,9.672297,0.6746094,-1
946,947,1583238073017,-0.2006,0.042799998,-0.6362,1.1285213,9.627708,1.0052104,-1
947,948,1583238073027,-0.5682,0.0064999997,-0.29639998,0.6936864,9.522439,1.4121481000000002,-1
948,949,1583238073037,-0.8947,-0.2562,0.1061,0.4624161,9.20265,1.7960823000000001,-1
949,950,1583238073047,-0.98709995,-0.5786,0.3094,0.40262812,8.911027,1.8648244999999999,-1
950,951,1583238073058,-1.0329,-0.7841,0.196,0.34290713,8.746008999999999,1.6900669999999998,-1
951,952,1583238073067,-1.0418,-0.9605,0.047,0.36402399999999996,8.573675,1.5760455,-1
952,953,1583238073077,-1.0627999,-1.038,0.0131,0.27517040000000004,8.500067999999999,1.6639032,-1
953,954,1583238073087,-1.2603999,-1.212,0.2838,0.099273175,8.328011,1.9603531000000003,-1
954,955,1583238073097,-1.5257,-1.5411999,0.73929995,-0.35422692,7.8311944,2.5345116,-1
955,956,1583238073108,-2.123,-2.0651,1.2248,-0.97748554,7.272359,3.145464,-1
956,957,1583238073118,-2.6901,-2.6666,1.8034999,-1.510636,6.6233960000000005,3.6814968999999995,-1
957,958,1583238073128,-3.3855998999999994,-3.3558998,2.1950998,-2.3922575,5.9821715,4.116810299999999,-1
958,959,1583238073138,-4.4161997,-3.8685,2.7351,-3.5275019999999997,5.3639503,5.0082583,-1
959,960,1583238073148,-5.1103,-4.4296,3.5827,-3.8512459000000003,4.843844,5.7356358,-1
960,961,1583238073159,-5.336,-5.1377997,4.3513,-4.0722594,3.9376763999999995,6.506750599999999,-1
961,962,1583238073169,-5.643399700000001,-5.8856997,4.7911,-4.3878536,3.2236967,6.651619,-1
962,963,1583238073179,-6.0404,-6.4951,4.673,-4.8503942,2.8259816000000004,6.1241474,-1
963,964,1583238073189,-6.625099700000001,-6.8115997,4.066,-5.2962419999999995,2.4914734,5.734726,-1
964,965,1583238073200,-7.0284996,-7.2004,3.8713,-5.605362400000001,2.0954914000000002,5.8533444,-1
965,966,1583238073210,-7.5368,-7.5636997,4.2141,-6.2358136,1.5917132,6.51514,-1
966,967,1583238073220,-8.1717,-8.1481,5.0278,-6.1877666,0.7536371999999999,7.804417599999999,-1
967,968,1583238073230,-8.021,-8.7789,6.099,-5.3030610000000005,0.4724143,8.275501,-1
968,969,1583238073240,-7.1404996,-8.9868,6.3704996,-3.566355,0.33081165,7.4940809999999995,-1
969,970,1583238073251,-5.4694,-9.0556,5.4776,-1.9852912,0.35888126,6.1891837,-1
970,971,1583238073261,-3.8323,-8.9421,3.7089999,-0.12278424,0.50389326,3.3625032999999998,-1
971,972,1583238073271,-2.6878,-8.7498,1.4174,0.64259416,0.9266327,1.2285223,-1
972,973,1583238073281,-2.3527,-8.1712,-0.4565,0.5890119,1.7051313000000001,0.04814261,-1
973,974,1583238073291,-2.7463,-7.3514,-1.2586,0.6323661,1.9510062,0.8104180999999999,-1
974,975,1583238073302,-2.8421,-7.1418996,-0.07279999599999999,1.0308283999999999,1.916233,2.7492905,-1
975,976,1583238073312,-2.6448,-7.032099700000001,1.7609999,1.8843421000000002,1.9680433000000002,3.8405485,-1
976,977,1583238073322,-1.902,-6.8462,2.6712,4.0570803,2.2678835,4.233954,-1
977,978,1583238073332,0.22809999,-6.2798,2.8792,6.8414598,3.0527029999999997,3.8141549,-1
978,979,1583238073342,2.7793,-5.2544,2.2768,9.881569,4.387029599999999,2.6769187000000003,-1
979,980,1583238073353,5.4304,-3.6367,1.0231999,12.144923,6.0091205,1.5850095,-1
980,981,1583238073363,7.2728,-1.8438,0.0363,14.213073000000001,7.6059384,1.2448219999999999,-1
981,982,1583238073373,8.6946,-0.37,-0.2672,14.728948,8.00123,1.3528676000000002,-1
982,983,1583238073383,9.0131,0.27809998,-0.18859999,14.903407000000001,8.102476,1.4283712,-1
983,984,1583238073393,8.9225,0.4983,-0.2197,15.595973999999998,8.112408,1.0585532,-1
984,985,1583238073403,9.403999,0.68549997,-0.6451,18.085445,9.40815,-0.25239673,-1
985,986,1583238073413,11.6921,2.1527998,-1.9772999,20.94891,10.810845,-1.5042003000000002,-1
986,987,1583238073423,14.9921,4.0516,-3.5781,23.599829,12.116058,-2.7905667000000003,-1
987,988,1583238073434,17.2522,5.4681997,-4.8080997000000005,25.432655,13.143995,-3.5663837999999997,-1
988,989,1583238073444,18.5045,6.4488997,-5.4863,25.619942,13.018328,-3.6157617999999996,-1
989,990,1583238073454,18.585499,6.482599700000001,-5.6352,25.54166,12.581233000000001,-3.6626306000000004,-1
990,991,1583238073464,18.423899,6.1589,-5.7681,25.73585,12.374651,-4.401596,-1
991,992,1583238073474,18.5579,6.039,-6.5523996,26.030653,12.201838,-5.5651975,-1
992,993,1583238073484,18.8074,5.9280996,-7.7332997,26.036807999999997,12.072409,-7.259765600000001,-1
993,994,1583238073495,17.977999,5.297000000000001,-10.842299,24.888914,11.386899,-8.887746,-1
994,995,1583238073505,15.719399,4.2451,-11.563399,22.356691,10.2927685,-9.43845,-1
995,996,1583238073515,12.7007,2.7549999,-11.375999,19.315279,8.765996000000001,-9.141857,-1
996,997,1583238073525,10.4127,1.0438,-10.9148,17.167316,7.1827583,-8.703650999999999,-1
997,998,1583238073535,10.4127,1.0438,-10.9148,15.973989499999998,6.158586,-8.584199,-1
998,999,1583238073545,8.5998,-0.9826,-10.7876,15.50146,5.441714,-8.658277,-1
999,1000,1583238073556,8.2859,-1.8701999,-10.7043,15.103592,4.5965514,-8.533126,-1
1000,1001,1583238073566,7.7696996,-2.9542,-10.440499,14.451248000000001,3.5790059999999997,-8.174503999999999,-1
1001,1002,1583238073576,6.9546,-3.9327,-9.5622,13.494026999999999,2.6995964,-7.1879873,-1
1002,1003,1583238073586,5.9758997,-4.7278,-8.4927,12.281498,1.9270450000000001,-6.013717,-1
1003,1004,1583238073596,4.851,-5.4564,-7.4519997,11.113194,1.3458766000000002,-5.066533,-1
1004,1005,1583238073606,3.8235,-6.047999999999999,-6.5298996,10.111442,0.87962013,-4.226111,-1
1005,1006,1583238073617,2.7164,-6.8143,-5.5448,8.886625,0.14605588,-3.2571103999999997,-1
1006,1007,1583238073627,1.4201,-7.7341,-4.4583,7.297249000000001,-0.8755883,-1.9647202000000001,-1
1007,1008,1583238073637,0.40109998,-8.5883,-3.3186,6.304824,-1.6397216000000001,-0.789895,-1
1008,1009,1583238073648,-0.5396,-9.384,-2.0107,5.263776999999999,-2.3838875,0.44751462,-1
1009,1010,1583238073658,-1.5393,-10.1784,-0.92509997,4.198108,-3.0986142000000005,1.4267527,-1
1010,1011,1583238073668,-2.6476998,-10.7626,0.0557,2.7352988999999996,-3.4731631000000003,2.6439075,-1
1011,1012,1583238073678,-3.7982998,-10.8693,1.1027,1.9749580000000002,-3.4238424,3.5385823,-1
1012,1013,1583238073689,-4.3866,-10.770599,2.2761,1.7050067999999998,-3.3041515,4.997944,-1
1013,1014,1583238073699,-4.5516,-10.701799000000001,3.3662,1.2963357,-3.3885709999999998,5.936433,-1
1014,1015,1583238073709,-5.4167,-10.982699,4.8036,-0.012852075,-3.9706495000000004,8.116239,-1
1015,1016,1583238073719,-6.7352,-11.6066,6.8032,-1.6338129,-4.9194527,10.323414999999999,-1
1016,1017,1583238073730,-8.6557,-12.573999,9.0858,-3.8103528,-5.7156970000000005,12.817741999999999,-1
1017,1018,1583238073740,-10.8896,-12.9862995,11.6005,-5.6083217,-5.696936,15.396345000000002,-1
1018,1019,1583238073751,-12.3867,-12.675699,14.0854,-6.2461660000000006,-5.4236426,17.220573,-1
1019,1020,1583238073761,-12.6816,-12.1319,15.883598999999998,-5.560754,-4.844648,18.925167000000002,-1
1020,1021,1583238073771,-11.948,-11.5568,16.6542,-3.9158989999999996,-4.373306299999999,19.411278,-1
1021,1022,1583238073781,-10.3358,-10.8433,16.974498999999998,-1.7868598000000002,-3.5761232000000005,19.219542,-1
1022,1023,1583238073792,-8.3832,-9.6641,16.5128,-0.016778566,-2.4394906,18.431198000000002,-1
1023,1024,1583238073801,-6.9614,-8.3145,15.591399,1.4250576000000001,-1.5687385,17.870570999999998,-1
1024,1025,1583238073811,-5.701699700000001,-7.1267996,15.0343,2.8504505,-0.2489491,17.709670000000003,-1
1025,1026,1583238073821,-4.5134,-5.4182,14.8455,4.0644160000000005,1.2729013,18.083817,-1
1026,1027,1583238073831,-3.4824,-3.7019,15.271199,5.5094414,2.0701513,19.063132999999997,-1
1027,1028,1583238073842,-2.1361,-2.7054,16.2013,6.8669724,2.5645729999999998,19.93739,-1
1028,1029,1583238073852,-1.0174999,-1.8821,16.8881,7.773053599999999,3.2196457,20.382116,-1
1029,1030,1583238073862,-0.28489998,-0.8911,17.146,8.641517,3.9384809,20.604039999999998,-1
1030,1031,1583238073872,0.53749996,0.1525,17.165699,9.921946,4.866148,20.692589,-1
1031,1032,1583238073882,1.8969999999999998,1.5271,17.0266,11.841636,6.1353717,20.799894000000002,-1
1032,1033,1583238073893,3.8741999,3.2203999,16.8389,14.65962,7.5752063,20.624544,-1
1033,1034,1583238073903,6.2542,4.5908,16.5098,16.696348,8.232788000000001,19.633709,-1
1034,1035,1583238073913,8.302199,5.5211997,15.3187,17.30076,8.218278999999999,18.824,-1
1035,1036,1583238073923,8.9237995,5.7376,14.3271,16.722502,7.887860300000001,18.335783,-1
1036,1037,1583238073933,8.3931,5.5807,13.6846,16.548214,7.255571000000001,18.116722,-1
1037,1038,1583238073943,8.2554,5.0878997,13.309999,17.08013,6.9022630000000005,17.326511,-1
1038,1039,1583238073954,8.8499,4.8357,12.3882,19.049025,7.611991000000001,15.487545,-1
1039,1040,1583238073964,10.8874,5.6194997,10.4142,21.756102,8.324333,13.457970999999999,-1
1040,1041,1583238073974,13.666699,6.3978,8.2305,23.641325,8.817654,12.063511,-1
1041,1042,1583238073984,15.6558,6.9270000000000005,6.6684,24.372207999999997,9.201433999999999,11.31517,-1
1042,1043,1583238073994,16.4812,7.308799700000001,5.7783,24.266048,8.899410000000001,11.1824255,-1
1043,1044,1583238074004,16.462,6.9609,5.535,23.681728,8.318978999999999,10.96215,-1
1044,1045,1583238074014,15.9526,6.2609997,5.2636,23.371384,8.0687475,10.026859,-1
1045,1046,1583238074025,15.5229,5.3549,3.1151998,23.053701,7.724048599999999,8.570246000000001,-1
1046,1047,1583238074035,14.719299,4.8826,1.9679999,22.059916,7.4734435,7.353397999999999,-1
1047,1048,1583238074045,13.4115,4.1267,0.7504,20.609442,6.8934812999999995,6.1030307,-1
1048,1049,1583238074055,11.7771,3.0270998,-0.19579999,18.925646,6.1130195,5.1817226,-1
1049,1050,1583238074065,11.7771,3.0270998,-0.19579999,17.694645,5.649818,4.692405,-1
1050,1051,1583238074075,9.1470995,1.2731,-1.0344,16.316935,4.965871,4.207704,-1
1051,1052,1583238074086,8.5562,0.3624,-1.3496,15.708032999999999,4.33226,3.7425778,-1
1052,1053,1583238074096,8.1301,-0.6083,-1.53,15.277813,3.6955172999999997,3.4324616999999997,-1
1053,1054,1583238074106,7.9392,-1.4912,-1.5572,15.035587,3.1372373,3.2549171,-1
1054,1055,1583238074116,7.5386,-2.1085,-1.5461,14.416571,2.867775,2.9930491000000004,-1
1055,1056,1583238074126,6.4447,-2.7064,-1.9741999,12.854977,2.4552157,2.0799387,-1
1056,1057,1583238074136,5.0996,-3.4979,-2.6871,11.674549,2.0289998,1.3032501,-1
1057,1058,1583238074147,3.7164,-4.2701,-3.326,9.986886,1.5094197,0.22160731,-1
1058,1059,1583238074156,2.741,-4.8011,-4.2055,9.251932,1.3546681,-0.8143541999999999,-1
1059,1060,1583238074166,2.4226,-5.2351,-5.6561,8.989662,1.1948311000000003,-2.6195822,-1
1060,1061,1583238074176,2.9945,-5.500099700000001,-7.3494997,9.585119,1.1894298,-4.5158190000000005,-1
1061,1062,1583238074186,3.7335,-5.6933,-8.611899000000001,10.10853,1.1758212,-5.849944,-1
1062,1063,1583238074196,3.9099,-5.9856997000000005,-9.051,10.075614999999999,1.0717309,-6.358655000000001,-1
1063,1064,1583238074206,3.6209,-6.4282,-8.8348,9.577869999999999,0.7700519,-6.2443843,-1
1064,1065,1583238074217,2.7782,-7.0144997,-8.245,8.478203,0.35506013,-5.782562,-1
1065,1066,1583238074227,1.8592,-7.5002,-7.7668,7.489484299999999,-0.0069623385,-5.6760106,-1
1066,1067,1583238074237,1.6899998999999999,-7.7853,-8.0405,7.4219007,-0.14003207,-6.2864842,-1
1067,1068,1583238074247,1.9635999,-8.0556,-8.6332,7.6572413,-0.31854376,-7.006133,-1
1068,1069,1583238074257,2.5635,-8.3518,-9.0879,8.379371,-0.44672929999999994,-7.5750337,-1
1069,1070,1583238074268,3.3644,-8.5583,-9.3679,8.834642,-0.6299431999999999,-7.737197999999999,-1
1070,1071,1583238074278,3.7233998999999995,-8.9246,-9.0602,9.091617999999999,-0.91524583,-7.4962645000000006,-1
1071,1072,1583238074288,4.0624,-9.3342,-8.936399,9.224563,-1.2463256999999999,-7.628999,-1
1072,1073,1583238074298,3.9682998999999994,-9.757999,-8.9839,8.962541,-1.5166309999999998,-7.735790299999999,-1
1073,1074,1583238074309,3.8997998,-9.891,-9.0176,8.967349,-1.4006081,-7.986061,-1
1074,1075,1583238074318,4.2633,-9.592199,-9.4663,9.268376,-0.94888914,-8.840838,-1
1075,1076,1583238074328,4.5975,-9.096499,-10.546599,9.397471000000001,-0.40060738,-9.893838,-1
1076,1077,1583238074338,4.6614,-8.6314,-11.063499,9.317753999999999,0.12653835,-9.977568,-1
1077,1078,1583238074348,4.4275,-8.1985,-10.5480995,8.949066,0.51399684,-9.177578,-1
1078,1079,1583238074358,4.2407,-7.9179997,-9.6345,8.814713000000001,0.87934244,-8.248992,-1
1079,1080,1583238074369,4.4024,-7.4670997,-8.882299,8.951767,1.3568803,-7.7032003,-1
1080,1081,1583238074379,4.450999700000001,-7.1018996,-8.682899,8.850080499999999,1.7530057000000001,-7.6270074999999995,-1
1081,1082,1583238074389,4.4059,-6.6947,-8.695,8.802091,2.2267322999999997,-7.4146795,-1
1082,1083,1583238074399,4.4709,-6.3515,-8.2593,9.067905,2.6743522,-6.6099215,-1
1083,1084,1583238074409,4.9582,-5.8645,-7.2857,9.607462,3.1604228,-5.209093,-1
1084,1085,1583238074419,5.4681,-5.489,-5.6941,9.949364,3.2925443999999997,-3.2650018,-1
1085,1086,1583238074429,5.8389,-5.4314,-3.6999998,10.252977,3.4086057999999997,-1.5872600000000001,-1
1086,1087,1583238074439,6.0924997,-5.093,-1.8685,10.307718,3.8074894,0.26623523,-1
1087,1088,1583238074449,5.9667997,-4.7391,-0.185,9.932585000000001,4.0943913,2.6161442000000004,-1
1088,1089,1583238074459,5.5197,-4.5959,1.7751,9.310697,4.152896,4.9525404,-1
1089,1090,1583238074470,4.904,-4.5666,3.9928,8.680859,3.9600956,7.3014149999999995,-1
1090,1091,1583238074480,4.3498,-4.8198,6.1622996,8.229925,3.7990617999999996,9.639544500000001,-1
1091,1092,1583238074490,4.0397997000000005,-4.7778997,8.3389,8.087231,4.0305715,11.61341,-1
1092,1093,1583238074500,3.9175,-4.5196,9.995399,7.7360296,4.164503,13.216904000000001,-1
1093,1094,1583238074510,3.2454,-4.3792,11.491199499999999,6.51605,4.338456,14.698607,-1
1094,1095,1583238074520,1.8330000000000002,-4.1898,12.7178,5.0824594,4.308232,15.890978,-1
1095,1096,1583238074531,0.86399996,-4.2841,13.472000000000001,4.497958000000001,4.209026000000001,16.391624,-1
1096,1097,1583238074541,0.3234,-4.2989999999999995,13.7711,4.0777754999999996,4.3602147,16.389212,-1
1097,1098,1583238074551,-0.161,-4.1096,13.503798999999999,3.7191050000000003,4.407438,15.967189999999999,-1
1098,1099,1583238074561,-0.4136,-4.0702,12.9393,3.4061062000000004,4.5207224,15.426244,-1
1099,1100,1583238074571,-0.8652,-3.8374998999999996,12.3299,2.8252347,4.892513,14.548069,-1
1100,1101,1583238074581,-1.2793,-3.4812,11.451099000000001,2.6174276,5.450783299999999,13.342637,-1
1101,1102,1583238074591,-1.5193,-2.8744,10.1675,2.3290987000000003,6.001478700000001,11.90421,-1
1102,1103,1583238074601,-1.7694,-2.3314,8.692699000000001,2.2567937000000002,6.403235,10.721427,-1
1103,1104,1583238074611,-1.8504,-1.9088,7.2717,2.136011,6.680578999999999,9.534745,-1
1104,1105,1583238074621,-2.0637,-1.712,6.344599700000001,1.8267089,6.825898,9.213500999999999,-1
1105,1106,1583238074631,-2.2512,-1.5919,6.3647,1.7508797999999999,6.939057400000001,9.741547,-1
1106,1107,1583238074642,-2.3455,-1.489,6.8714,1.3332256000000002,7.040197999999999,10.185068,-1
1107,1108,1583238074652,-2.8177,-1.3766999,7.2167997,0.7909868,7.16598,10.073326,-1
1108,1109,1583238074663,-3.3161,-1.2382,6.9101996,0.15697344,7.4415045,8.761284,-1
1109,1110,1583238074673,-3.8337998,-0.9952,5.7012997,0.11541968,7.755039699999999,7.2228084,-1
1110,1111,1583238074683,-3.8537998,-0.68509996,4.1566,0.5485787,8.018009,5.8682175,-1
1111,1112,1583238074693,-3.4073,-0.4222,2.7793,1.1434133,8.197833000000001,5.016541999999999,-1
1112,1113,1583238074703,-2.7965,-0.2438,1.9051,1.8004875,8.402719,5.026559400000001,-1
1113,1114,1583238074714,-2.1275,-0.0312,1.8816998999999999,2.241873,8.445882000000001,5.7724013,-1
1114,1115,1583238074724,-1.6725,0.0179,2.5832,2.2628077999999996,8.42398,6.6486216,-1
1115,1116,1583238074734,-1.6371,0.0077,3.4218,1.9393224999999998,8.262371,7.2059727,-1
1116,1117,1583238074744,-1.9447999,-0.1546,3.9503,1.4893754,8.055732,6.995417,-1
1117,1118,1583238074754,-2.7538998,-0.5679,2.7930999,1.0158981,7.770496400000001,5.739438,-1
1118,1119,1583238074765,-2.7538998,-0.5679,2.7930999,0.8448084000000001,7.626575999999999,5.110864,-1
1119,1120,1583238074775,-3.0112,-0.80079997,1.8619,1.3884838,7.9721174,4.607842400000001,-1
1120,1121,1583238074785,-2.6834998,-0.2553,1.4796,2.1125479,8.217867,4.8224105999999995,-1
1121,1122,1583238074795,-1.1682,0.0321,1.7255,2.8257517999999995,8.48507,5.0173273,d
1122,1123,1583238074806,-0.5646,0.2409,1.4922,3.3941063999999996,8.64644,4.7279925,-1
1123,1124,1583238074816,-0.1371,0.3482,1.0419999,3.8247373,8.7840395,4.2910705,-1
1124,1125,1583238074826,0.2717,0.5297,0.6017,4.2256800000000005,8.943933,3.862508,-1
1125,1126,1583238074836,0.5369,0.5894,0.2852,4.309343,8.9436455,3.6204447999999996,-1
1126,1127,1583238074846,0.15169999,0.5082,0.3721,3.7697568,8.858441000000001,3.8015422999999995,-1
1127,1128,1583238074857,-0.3552,0.4148,0.61539996,3.3217442000000004,8.772902,4.0921793,-1
1128,1129,1583238074867,-0.73359996,0.3111,0.92749995,2.987351,8.687312,4.403598000000001,-1
1129,1130,1583238074877,-0.9661,0.2473,1.1415,2.7941866,8.649628,4.458846,-1
1130,1131,1583238074887,-0.917,0.2924,0.9144,3.0621647999999997,8.748106,4.105137,-1
1131,1132,1583238074897,-0.46989998,0.4278,0.4026,3.4477942,8.898442999999999,3.5766788,-1
1132,1133,1583238074907,-0.1626,0.59459996,0.0162,3.7599980000000004,9.085728,3.3206427000000005,-1
1133,1134,1583238074917,0.16239999,0.7827,-0.08779999599999999,4.1109976999999995,9.250103999999999,3.3602717000000006,-1
1134,1135,1583238074928,0.5261,0.8828,0.2199,4.4191413,9.30743,3.8336723,-1
1135,1136,1583238074938,0.7046,0.9525,0.8328,4.5175333,9.383509,4.444491,-1
1136,1137,1583238074948,0.6706,1.0095999,1.3119,4.4182120000000005,9.441419999999999,4.809961,-1
1137,1138,1583238074958,0.6013,1.0724,1.5319999999999998,4.356547,9.497117999999999,4.9074144,-1
1138,1139,1583238074968,0.3883,0.9844,1.4143,4.0027127,9.340327,4.7091074,-1
1139,1140,1583238074978,0.070199996,0.8646,1.2995,3.6962928999999995,9.351005,4.6876745,-1
1140,1141,1583238074989,-0.0717,0.9802,1.4205999,3.7341695,9.609003999999999,4.916818599999999,-1
1141,1142,1583238074999,0.0973,1.2832999,1.7087,4.039717,9.949757,5.224531,-1
1142,1143,1583238075010,0.4511,1.6265,2.0161,4.3438096,10.240642999999999,5.50721,-1
1143,1144,1583238075020,0.7482,1.8320999,2.3123999,4.5637503,10.341122,5.7506332,-1
1144,1145,1583238075030,0.9526,1.8793999,2.508,4.8345733,10.404128,5.925371599999999,-1
1145,1146,1583238075040,1.3023,1.9161999,2.7558,5.100215,10.459367,6.293973,-1
1146,1147,1583238075050,1.4554,1.9423,3.1822,4.930236,10.438279,6.792321,-1
1147,1148,1583238075060,1.1965,1.8866999,3.7145,4.608407,10.339877,7.287002,-1
1148,1149,1583238075071,1.0411,1.7378999,4.088,4.5432562999999995,10.253743,7.5104,-1
1149,1150,1583238075081,1.043,1.5833,4.1632,4.4308248,10.151741000000001,7.323221,-1
1150,1151,1583238075091,0.97749996,1.5507,4.0273,4.352678,10.19203,7.171409599999999,-1
1151,1152,1583238075101,0.9334,1.5636,3.7533998,4.239049,10.12753,6.867911299999999,-1
1152,1153,1583238075112,0.8734,1.4083999,3.7161998999999994,3.8725447999999996,9.868976,7.1134033,-1
1153,1154,1583238075122,0.54429996,1.0965999,4.0376997,3.5046804,9.57335,7.2997007,-1
1154,1155,1583238075132,0.2777,0.7556,4.1805997,3.3756042,9.370158,7.1087008,-1
1155,1156,1583238075142,0.2263,0.5611,3.9650998,3.2360507999999997,9.370905,6.6732435,-1
1156,1157,1583238075152,0.2104,0.53209996,3.5727,3.661769,9.216441,6.190084,-1
1157,1158,1583238075163,0.6698,0.3457,3.2296,3.7702449999999996,9.049259,5.8056517,-1
1158,1159,1583238075173,0.7829,0.0995,2.8260999,3.5324242,8.945771,5.385335400000001,-1
1159,1160,1583238075183,0.6123,-0.029299999,2.4957,3.4786599999999996,8.771312,4.973466,-1
1160,1161,1583238075193,0.64809996,-0.22639999,2.2251,3.4105879999999997,8.563025,4.671595,-1
1161,1162,1583238075204,0.6353,-0.46179998,1.9943999,3.0537562,8.413349,4.4736237999999995,-1
1162,1163,1583238075214,0.33049998,-0.6574,1.8807,2.9927807,8.127336999999999,4.188541000000001,-1
1163,1164,1583238075224,0.3301,-0.9795,1.6592,2.7639716,7.827124,3.744771,-1
1164,1165,1583238075234,0.16229999,-1.3203,1.2919999,2.3040168,7.677639500000001,3.2138329,-1
1165,1166,1583238075245,-0.2419,-1.5035,0.8394,2.229816,7.6539564,2.4916553,-1
1166,1167,1583238075256,-0.2704,-1.558,0.1978,2.6511283,7.856132499999999,1.4299418,-1
1167,1168,1583238075266,0.69299996,-1.0957999,-1.8422999,3.2635365000000003,8.252028,0.034265816,-1
1168,1169,1583238075276,0.69299996,-1.0957999,-1.8422999,4.150569,8.369276,-0.7722641,-1
1169,1170,1583238075286,1.9072,-1.0723,-3.0063999,4.135926,8.232616,-1.2433473,-1
1170,1171,1583238075296,0.89129996,-1.3969999999999998,-3.1093,2.9508824000000002,7.9232273,-1.396739,-1
1171,1172,1583238075307,-0.19579999,-1.7284,-3.1924,1.9213563999999999,7.651408999999999,-1.622924,-1
1172,1173,1583238075317,-0.82549995,-1.849,-3.7050998,1.2668678999999998,7.656225999999999,-2.4113634,-1
1173,1174,1583238075327,-0.9454,-1.6108999,-4.3025,1.3682193,7.925228999999999,-2.8362863,-1
1174,1175,1583238075337,-0.47,-1.4849,-4.2474,1.9680529999999998,8.003289,-2.6718237,-1
1175,1176,1583238075348,0.2006,-1.3555,-4.0898,2.7333738999999997,8.2494135,-2.7288153,-1
1176,1177,1583238075358,1.2971,-0.97069997,-4.396,3.8973773,8.631604,-3.1533647,-1
1177,1178,1583238075368,2.2179,-0.6759999999999999,-4.7293,4.482463,8.888991,-3.4295312999999994,-1
1178,1179,1583238075378,2.316,-0.62979996,-4.7795,4.231292,8.742495,-3.4400752,-1
1179,1180,1583238075388,1.6154,-1.0572,-4.6341,3.2754211,8.274944999999999,-3.2523985,-1
1180,1181,1583238075399,0.6028,-1.466,-4.1822,2.2377932,7.897877,-2.7334793,-1
1181,1182,1583238075409,-0.2793,-1.8341999,-3.5069999999999997,1.3450625,7.584217999999999,-1.8629953999999997,-1
1182,1183,1583238075419,-0.7154,-1.9933,-2.7473,1.2220101,7.598076,-1.2755063,-1
1183,1184,1583238075429,-0.48549998,-1.8938999,-2.2726998,1.7972602,7.825773700000001,-1.0286831,-1
1184,1185,1583238075439,0.1357,-1.6149,-2.1282,2.2555772999999997,8.147841,-1.0322744000000001,-1
1185,1186,1583238075449,0.5452,-1.3342,-2.2231998,2.5915031,8.3149185,-1.2028661,-1
1186,1187,1583238075459,0.8057,-1.2491,-2.3588998,2.7094414,8.3292465,-1.2251703999999999,-1
1187,1188,1583238075469,0.88019997,-1.2524998999999999,-2.3263,2.6782593999999995,8.355046000000002,-1.1101242,-1
1188,1189,1583238075479,0.8186,-1.2466999,-2.1039,2.545362,8.299414,-0.8422323,-1
1189,1190,1583238075490,0.6602,-1.2807,-1.8585,2.3204699,8.314153,-0.6159515,-1
1190,1191,1583238075500,0.4432,-1.2361,-1.6141,2.1913745,8.431486999999999,-0.40532878,-1
1191,1192,1583238075510,0.44059998,-1.1022999,-1.415,2.156247,8.544763,-0.14143987,-1
1192,1193,1583238075520,0.3665,-1.0062,-1.1261,2.1060548,8.626864,0.064365715,-1
1193,1194,1583238075530,0.3681,-0.9579,-1.0199,2.1301978,8.663917,0.14702313,-1
1194,1195,1583238075540,0.4351,-0.8599,-1.0223,2.2031925,8.863325,0.025349807000000002,-1
1195,1196,1583238075551,0.431,-0.66389996,-1.1574,2.047349,8.961047,-0.19958065,-1
1196,1197,1583238075561,0.28869998,-0.60569996,-1.365,1.9017143,9.158646000000001,-0.39576155,-1
1197,1198,1583238075571,0.1839,-0.4007,-1.5677999,1.9550573,9.3026705,-0.61182386,-1
1198,1199,1583238075581,0.34239998,-0.2251,-1.7878,2.230649,9.423683,-0.6684707,-1
1199,1200,1583238075591,0.5593,-0.16679999,-1.7648,2.3921044,9.495155,-0.44188344,-1
1200,1201,1583238075601,0.6802,-0.1083,-1.5022,2.134421,9.492761,-0.19131587,-1
1201,1202,1583238075612,0.34329998,-0.0985,-1.2864,1.7147846000000002,9.511818,0.062373742,-1
1202,1203,1583238075622,-0.0506,-0.08779999599999999,-1.0509,1.4574176,9.558438,0.36270240000000004,-1
1203,1204,1583238075632,-0.28039998,-0.0265,-0.77449995,1.3496498,9.701162,0.6253463,-1
1204,1205,1583238075642,-0.32819998,0.1533,-0.5782,1.5824428999999998,9.809053,0.6638930000000001,-1
1205,1206,1583238075652,-0.047199998,0.22569999,-0.5832,1.9056313000000002,9.882383,0.67240673,-1
1206,1207,1583238075662,0.26049998,0.3076,-0.60139996,2.1745193,9.9866085,0.5831029999999999,d
1207,1208,1583238075672,0.52059996,0.4181,-0.7226,2.371476,10.121909,0.52409077,-1
1208,1209,1583238075682,0.6964,0.5766,-0.7726,2.3696945,10.208809,0.52515376,-1
1209,1210,1583238075692,0.6331,0.6259,-0.7725,2.0591762,10.049738,0.5328056999999999,-1
1210,1211,1583238075702,0.2726,0.4288,-0.7909,1.4976593,9.836893,0.5374983,-1
1211,1212,1583238075712,-0.2986,0.2311,-0.77129996,0.9974818999999999,9.750397,0.6613551,-1
1212,1213,1583238075722,-0.731,0.1417,-0.6495,0.68990356,9.475485,0.7207216999999999,-1
1213,1214,1583238075733,-0.9971,-0.1911,-0.6362,0.42863873,9.05782,0.87862414,-1
1214,1215,1583238075743,-1.2343,-0.5808,-0.4594,0.16397409,8.806622,1.3391057,-1
1215,1216,1583238075753,-1.4825,-0.8304,0.034399997,0.033825282000000005,8.497185,2.162347,-1
1216,1217,1583238075763,-1.5744,-1.1359,0.80719995,-0.19574036,7.955261699999999,3.2498033,-1
1217,1218,1583238075773,-1.7436999,-1.6057,1.6465,-0.532097,7.4739127000000005,3.9983741999999998,-1
1218,1219,1583238075784,-2.0572,-2.0741,2.3023999,-1.0190297,6.9824304999999995,4.7024610000000004,-1
1219,1220,1583238075794,-3.4017,-3.3808,3.5900998,-2.2254581,5.962587,5.660554,-1
1220,1221,1583238075804,-3.4017,-3.3808,3.5900998,-3.7465713,5.163268599999999,6.59095,-1
1221,1222,1583238075815,-7.3156,-5.264199700000001,6.0462,-6.3545370000000005,4.027162000000001,8.45045,-1
1222,1223,1583238075825,-7.3156,-5.264199700000001,6.0462,-8.252257,3.0168858,9.943703999999999,-1
1223,1224,1583238075835,-9.2393,-6.2402997000000004,7.4782996,-9.40068,2.0644147,10.791557000000001,-1
1224,1225,1583238075845,-11.4972,-8.384,8.8639,-10.207774,0.9029301,11.135000999999999,-1
1225,1226,1583238075855,-11.4842,-9.0796995,8.5348,-10.002514999999999,0.25024197,10.683225,-1
1226,1227,1583238075865,-10.8706,-9.4205,7.6045,-9.239310000000001,-0.017209521999999998,9.677957000000001,-1
1227,1228,1583238075876,-10.006599000000001,-9.3741,6.4656997,-8.190449000000001,0.06780379,8.565429,-1
1228,1229,1583238075886,-9.043799,-9.34,5.9227,-7.1176744,0.01799482,8.23954,-1
1229,1230,1583238075896,-8.2606,-9.503099,6.3230996,-6.187288,-0.24086627,8.728444999999999,-1
1230,1231,1583238075907,-7.6935,-9.874499,6.6756,-5.4034452,-0.6748967,8.969244,-1
1231,1232,1583238075917,-7.1682997,-10.0053,6.6334,-4.3643904000000004,-0.7996920999999999,8.740589,-1
1232,1233,1583238075928,-5.8371,-10.0217,6.0674996,-2.4953902,-0.77195764,7.8325353,-1
1233,1234,1583238075938,-4.0625,-9.7436,4.8848,-0.43950838,-0.5188139,6.540988,-1
1234,1235,1583238075948,-2.2986999,-9.5393,3.7363,2.0825531,-0.53146493,5.228132,-1
1235,1236,1583238075958,-0.49839997,-9.4643,2.7615,3.6125822,-0.45449609999999996,4.320069,-1
1236,1237,1583238075969,0.768,-9.1257,1.6949999,5.2323265,-0.062670626,3.3530697999999997,-1
1237,1238,1583238075979,1.7283,-8.671599,1.2368,6.847417,0.3560465,3.160672,-1
1238,1239,1583238075989,3.4034998,-7.8810997,1.0618,9.259814,1.3896426000000002,2.8920615,-1
1239,1240,1583238075999,5.7717,-6.5281997,0.5952,12.128767999999999,2.5170912999999997,2.0823426,-1
1240,1241,1583238076009,8.293,-5.3336997,-0.5171,14.800532999999998,3.3737366,0.6526881,-1
1241,1242,1583238076020,10.5083,-4.3236,-2.1355999,17.173092,4.1141677,-1.1136677,-1
1242,1243,1583238076030,12.4505,-3.4455,-3.9968,18.90501,4.726652,-2.9101427,-1
1243,1244,1583238076040,13.5032,-2.5286999,-5.7839,19.868923000000002,5.7323413,-4.383649299999999,-1
1244,1245,1583238076050,14.1977,-1.1522,-7.1059,20.964024,6.991298700000001,-5.272664,-1
1245,1246,1583238076061,15.2936,0.3216,-7.9276,22.472916,8.129694,-5.5704265,-1
1246,1247,1583238076071,16.650098999999997,1.5582,-7.9448,23.98201,9.105273,-4.7154183,-1
1247,1248,1583238076081,17.581298999999998,2.4431998999999998,-7.273,24.406235000000002,9.32351,-4.1948233,-1
1248,1249,1583238076091,17.6681,2.7403998,-7.0751,23.890179,9.172111,-4.4435709999999995,-1
1249,1250,1583238076102,16.920599,2.5994,-7.4911,22.922718,8.352785,-4.727926,-1
1250,1251,1583238076112,15.9114,1.8938999,-7.9396,22.482376000000002,7.841528,-5.4150233,-1
1251,1252,1583238076122,15.591598999999999,1.5934,-8.814,23.027653,7.7675279999999995,-6.3661056,-1
1252,1253,1583238076132,16.2697,1.6845,-9.8834,23.863209,7.8017645,-7.455151600000001,-1
1253,1254,1583238076143,16.9679,1.7666998999999999,-11.0405,23.938532000000002,7.559002400000001,-8.276372,-1
1254,1255,1583238076153,16.8202,1.5419999,-11.881599000000001,22.769835999999998,6.721903299999999,-8.546955,-1
1255,1256,1583238076163,15.7596,0.85999995,-12.1405,21.235868,5.821578,-8.173316,-1
1256,1257,1583238076173,14.242498999999999,0.0058999998,-11.8691,19.795893,4.8867188,-7.544330599999999,-1
1257,1258,1583238076183,12.8214,-0.87829995,-11.3276,18.683746,4.092189,-6.8497057,-1
1258,1259,1583238076193,11.726299000000001,-1.6524,-10.7276,17.49042,3.4879496,-6.0044565,-1
1259,1260,1583238076204,10.561999,-2.2264,-9.9491,16.082926,2.6156557,-5.011007,-1
1260,1261,1583238076214,9.169,-3.0809,-9.0181,14.641041,1.7276846999999997,-3.873531,-1
1261,1262,1583238076224,6.3848996,-4.7889,-7.2286,13.08324,0.75019914,-3.0702762999999997,-1
1262,1263,1583238076234,6.3848996,-4.7889,-7.2286,12.585725,0.3971502,-3.006811,-1
1263,1264,1583238076244,5.776,-5.2892,-7.4052,12.755425,0.35683182,-3.2957623,-1
1264,1265,1583238076255,6.1702,-5.1679,-7.1786,13.166356,0.39219898,-2.8802342,-1
1265,1266,1583238076265,6.1702,-5.1679,-7.1786,13.297032000000002,0.28097394,-1.9997425,-1
1266,1267,1583238076275,6.0730996,-5.4392,-4.7837,12.9650135,-0.018703505,-0.2579513,-1
1267,1268,1583238076285,5.6201,-5.7056,-3.3834,12.539373,-0.37880102,1.134277,-1
1268,1269,1583238076295,5.2479997,-6.0053997,-2.2493,12.233547,-0.7573435000000001,2.1915374,-1
1269,1270,1583238076306,4.9365,-6.3490996,-1.5755999,11.895467,-1.1699697,2.8194310000000002,-1
1270,1271,1583238076316,4.423,-6.549299700000001,-0.9844,11.491939,-1.3676639,3.4900568,-1
1271,1272,1583238076326,4.2756,-6.7876997,0.1672,11.474882000000001,-1.6497487000000002,4.657508,-1
1272,1273,1583238076336,4.2026997,-6.893399700000001,2.1745,11.462460499999999,-1.7053994,6.770994,-1
1273,1274,1583238076346,4.0516,-6.4751,4.5115,11.201186,-1.2107478,9.406522,-1
1274,1275,1583238076356,3.4928,-6.1561,6.3444,10.760471,-1.0938437,10.68652,-1
1275,1276,1583238076366,3.4928,-6.1561,6.3444,10.157554,-1.0622209999999999,11.687488,-1
1276,1277,1583238076376,1.8427999,-5.874,8.8726,9.1665745,-0.8735197,13.1049595,-1
1277,1278,1583238076386,0.87619996,-5.4941,10.2921,8.189060000000001,-0.5024184,14.548385999999999,-1
1278,1279,1583238076397,-0.2182,-4.8582,11.8496,7.170184,0.1308096,16.067621,-1
1279,1280,1583238076407,-1.1396998999999999,-4.1025,13.3833,6.246214,0.98737836,17.947031,-1
1280,1281,1583238076417,-1.6628,-3.5089,15.086599,5.8936243,1.3409253,19.61286,-1
1281,1282,1583238076427,-1.9494,-3.1332,16.8197,5.77764,1.8635125,21.299604000000002,-1
1282,1283,1583238076437,-1.7189,-2.0407,18.3699,6.382549299999999,3.1833305,22.850624,-1
1283,1284,1583238076448,-0.7999,-0.5578,20.015999,7.456272,4.4916563,24.513771,-1
1284,1285,1583238076458,0.055299997000000004,0.7416,21.2503,7.9131527,5.58075,25.32264,-1
1285,1286,1583238076468,-0.2501,1.4462,21.1407,7.130201,5.992141200000001,24.780466,-1
1286,1287,1583238076478,-1.3672,1.6257,20.154298999999998,6.0797014,6.0709485999999995,23.716445999999998,-1
1287,1288,1583238076488,-1.9885,1.7678,19.0409,5.6973863,6.2984743,22.670820000000003,-1
1288,1289,1583238076498,-2.1550999,2.0695999,18.2041,5.6322637,6.774786,21.831099,-1
1289,1290,1583238076509,-2.0225,2.4679,17.5276,5.9427056,7.2039137,21.188817999999998,-1
1290,1291,1583238076519,-2.0225,2.4679,17.5276,6.6111949999999995,7.675092,19.897683999999998,-1
1291,1292,1583238076529,-0.76629996,3.3083,14.812999999999999,7.0760727,8.024242999999998,18.076395,-1
1292,1293,1583238076539,-0.34,3.3978,12.8389,7.351358,8.085075,16.497612,-1
1293,1294,1583238076550,-0.34,3.3978,12.8389,7.4887179999999995,8.117378,15.785039000000001,-1
1294,1295,1583238076560,0.2226,3.3105,9.746799000000001,7.868342999999999,8.208071,13.17174,-1
1295,1296,1583238076570,0.6601,3.2057,8.682099000000001,8.327743,8.222866,12.215121,-1
1296,1297,1583238076580,1.1723,3.0925,7.7791996,8.668292999999998,8.205351,11.425485,-1
1297,1298,1583238076590,1.5807999,2.9708997999999998,7.0520000000000005,9.092393,8.305800999999999,10.714569000000001,-1
1298,1299,1583238076600,2.2863,2.9405,6.325599700000001,9.834845,8.431469,9.847552,-1
1299,1300,1583238076610,3.1243,3.0131997999999998,5.3002996,10.70801,8.692092,8.506513,-1
1300,1301,1583238076621,3.9426,3.0233998,4.2907,11.310908,8.785102,7.999708,-1
1301,1302,1583238076631,4.5948997,2.9327,3.9036998999999994,11.436546,8.689123,8.063939,-1
1302,1303,1583238076641,4.7967,2.6504998,4.0949,11.380014,8.382866,8.460104,-1
1303,1304,1583238076652,4.8479,2.1454,4.4837,11.152584,7.900741,8.583989,-1
1304,1305,1583238076661,4.7248,1.4926,4.5144,11.04337,7.612125,8.118623,-1
1305,1306,1583238076671,4.8947,0.99649996,3.7723,11.386239,7.322292299999999,6.6295156,-1
1306,1307,1583238076681,5.3778,0.603,2.5556,11.801672,7.0478497,5.65928,-1
1307,1308,1583238076691,5.9235997000000005,0.0823,1.8199999,12.018403999999999,6.7315187000000005,5.1971416,-1
1308,1309,1583238076702,6.2426,-0.39589998,1.505,12.001818,6.4633007000000005,4.8956637,-1
1309,1310,1583238076712,6.2879,-0.85139996,1.3719999999999999,11.489037,6.133131,4.7853484,-1
1310,1311,1583238076722,5.9124,-1.3448,1.3572999,11.008262,5.716003400000001,4.688019799999999,-1
1311,1312,1583238076732,5.6429,-2.0035,1.3781999,10.512193,5.041585400000001,4.687224400000001,-1
1312,1313,1583238076742,5.2816997,-2.8760998,1.4966999,9.66048,4.395371,4.5087223,-1
1313,1314,1583238076753,4.5635,-3.6489999999999996,1.3731999,8.709282,4.0151143,3.9705825,-1
1314,1315,1583238076763,3.8583998999999998,-4.1842,0.9238,7.847580000000001,3.554135,2.921405,-1
1315,1316,1583238076773,3.3504998999999995,-4.7337,0.1859,7.0733624000000015,3.3882839999999996,2.0379446,-1
1316,1317,1583238076783,2.5505,-5.0895,-0.76879996,5.860766,3.2537203,0.58227944,-1
1317,1318,1583238076793,1.7624999,-5.3472,-1.8105999,5.2821836,2.9255803,-0.5335048000000001,-1
1318,1319,1583238076803,1.3949,-5.8178,-2.7303998,4.673433999999999,2.5686529,-1.5621017,-1
1319,1320,1583238076814,0.9758,-6.2955,-3.6079,3.9670870000000003,2.2923715000000002,-2.3703267999999995,-1
1320,1321,1583238076824,0.4748,-6.6836,-4.2544,3.3894714999999995,2.201593,-2.7156088,-1
1321,1322,1583238076834,0.0765,-6.883899700000001,-4.4445,2.5872126,2.0823522,-2.7694497000000005,-1
1322,1323,1583238076844,-0.5331,-7.0933,-4.3564997000000005,1.6462914,2.1673560000000003,-2.7524604999999998,-1
1323,1324,1583238076855,-1.3047,-7.0871,-4.1970997,0.72443753,2.0900805,-3.0795276,-1
1324,1325,1583238076865,-2.5254998,-7.528,-4.4314,-0.09546161,1.8029008999999998,-3.2667637000000003,-1
1325,1326,1583238076875,-3.1834,-7.8767996,-4.3835,-0.9036483000000001,1.4940968000000001,-3.3213131000000002,-1
1326,1327,1583238076885,-3.7257,-8.1975,-4.370899700000001,-1.5457828000000002,1.2552418,-3.4106648,-1
1327,1328,1583238076896,-4.0083,-8.4024,-4.4797997,-1.9252733,1.0892084999999998,-3.6008315000000004,-1
1328,1329,1583238076906,-4.2952,-8.6497,-4.5804996,-2.4258242,0.8513110999999999,-3.8250627999999995,-1
1329,1330,1583238076916,-4.5852,-8.8527,-4.6976,-2.77239,0.64329326,-3.9968326000000003,-1
