,Seq,Time,ACCx,ACCy,ACCz,ADGx,ADGy,ADGz,Keydown
0,1,1580727210405,0.0,0.0,0.0,0.0,0.0,0.0,-1
1,2,1580727210415,0.0,-0.1121,-0.1399,-0.013187262,6.0313487,7.521346,-1
2,3,1580727210425,-0.0106,-0.105799995,0.078499995,-0.023922862000000003,6.036022,7.733414999999999,-1
3,4,1580727210435,-0.24129999,-0.0356,0.552,-0.3208709,6.087507,8.329848,-1
4,5,1580727210445,-0.4344,-0.1452,0.893,-0.5064311,5.948509,8.581517,-1
5,6,1580727210455,-0.7163,-0.0358,1.0454999,-0.8322437,6.030994000000001,8.768754,-1
6,7,1580727210465,-0.76299995,-0.0047,1.5121,-0.90827394,5.993434,9.403734,-1
7,8,1580727210475,-0.6558,-0.1717,2.0981,-0.8721981,5.815334,10.045764,-1
8,9,1580727210485,-0.74189997,-0.1574,2.4429,-1.0615219999999999,5.9087653,10.247048,-1
9,10,1580727210495,-0.97459996,0.055999997999999995,2.4006998999999998,-1.4052336,6.1411176,10.059822,-1
10,11,1580727210505,-0.97459996,0.055999997999999995,2.4006998999999998,-1.4052336,6.1411176,10.059822,-1
11,12,1580727210515,-1.2537,0.2304,2.1703,-1.5632318,6.207782,9.886472999999999,-1
12,13,1580727210526,-1.6079999,0.14559999,1.8794999,-2.1919394,5.9435096,9.741662,-1
13,14,1580727210536,-1.9103999,-0.099599995,2.0123,-2.5944142000000006,5.612545,9.930651,-1
14,15,1580727210547,-2.2119,-0.3454,2.1067998,-2.9487753,5.437844999999999,9.735934,-1
15,16,1580727210557,-2.494,-0.4966,1.8416,-3.2355433,5.4498544,9.319085000000001,-1
16,17,1580727210567,-2.6739,-0.4631,1.4312999,-3.372032,5.5107245,9.23753,-1
17,18,1580727210578,-2.6998,-0.39589998,1.421,-3.5089037000000003,5.456146700000001,9.449733,-1
18,19,1580727210588,-2.8260999,-0.4472,1.7191,-4.0812230000000005,5.3395677,10.1075535,-1
19,20,1580727210599,-3.7981,-0.8035,2.9133,-4.8775635,4.986366,10.852533,-1
20,21,1580727210609,-4.3090997,-0.9266,3.0351,-5.34631,4.87582,10.8806505,-1
21,22,1580727210619,-4.3174,-0.9149,2.4419,-5.453656,4.8837023,10.289494,-1
22,23,1580727210629,-3.8715,-0.8943,1.574,-5.108613500000001,4.894121599999999,9.398056,-1
23,24,1580727210640,-3.8715,-0.8943,1.574,-4.957463,4.705679,8.4620285,-1
24,25,1580727210650,-3.6506,-1.3916,-0.3012,-5.1563063,4.3364067,7.2766684999999995,-1
25,26,1580727210660,-3.6571,-1.7176,-1.2816,-5.2781709999999995,4.028675,6.2761602,-1
26,27,1580727210671,-3.4029,-2.0125,-2.1417,-5.132517,3.7471745000000003,5.420194599999999,-1
27,28,1580727210681,-3.2247,-2.3141,-2.8436,-5.1650877,3.416497,4.692348,-1
28,29,1580727210691,-3.3418998999999996,-2.7368,-3.5351998999999994,-5.6582837,2.8006701,3.908544,-1
29,30,1580727210701,-3.9347,-3.5200998999999995,-3.8163,-6.3775883,2.0548856,3.8144517,-1
30,31,1580727210712,-4.5520997,-4.413,-3.6118998999999996,-7.266852,1.0140400999999999,4.2010865,-1
31,32,1580727210722,-4.8633,-5.0703,-2.9819,-7.518348700000001,0.51715714,4.7135796999999995,-1
32,33,1580727210732,-4.473,-5.4034,-2.4633,-7.1025815,0.09462842,5.15871,-1
33,34,1580727210743,-3.4150998999999995,-5.5719,-2.5093,-5.9589,-0.20343053,4.5824733,-1
34,35,1580727210753,-2.0266,-5.2962,-3.3063,-5.5443487000000005,-0.16260460000000002,3.7871099000000004,-1
35,36,1580727210763,-1.1711,-5.5727997,-4.1835,-4.2765994,-0.7742178000000001,2.6106951,-1
36,37,1580727210774,-0.1696,-6.3388995999999995,-5.2887,-3.6391387,-1.184402,1.8890346000000002,-1
37,38,1580727210784,0.66499996,-6.8998,-6.4726,-2.3834087999999998,-1.6792835,0.2305712,-1
38,39,1580727210794,1.4254,-7.1966,-7.5729,-1.5502934,-1.9488897,-0.6776260999999999,-1
39,40,1580727210804,2.1315,-7.6629996,-8.1728,-0.78777856,-2.387517,-0.8494436,-1
40,41,1580727210814,2.7632,-8.1248,-8.1503,0.03293464,-2.7394648,-0.6686718,-1
41,42,1580727210824,3.4148998,-8.4991,-7.9273,0.73325783,-2.9248142,-0.20764431,-1
42,43,1580727210834,4.0464997,-8.654799,-7.3655996,1.8117020000000001,-2.9707541,0.5770122,-1
43,44,1580727210844,5.0167,-8.509399,-6.5151997,2.8621244,-2.478286,1.3942682,-1
44,45,1580727210854,5.8238,-7.9164996,-5.9610996,3.8107836,-2.2112463,1.7942914,-1
45,46,1580727210865,6.9002,-7.898699799999999,-5.6976,4.9955305999999995,-2.4674067,2.1366142999999997,-1
46,47,1580727210875,7.812999700000001,-8.1173,-5.4577,5.729123599999999,-2.6626203,2.24126,-1
47,48,1580727210885,8.2698,-8.1177,-5.6022,5.936834999999999,-2.6464453,2.0821511999999998,-1
48,49,1580727210896,8.365,-8.1121,-5.7583,6.141836,-2.9178805,2.1167712000000005,-1
49,50,1580727210906,8.4963,-8.229899000000001,-5.8206997000000005,6.5537057,-2.8467824,2.0502124,-1
50,51,1580727210916,9.0697,-7.8822,-6.013999999999999,7.773877000000001,-2.3246932,2.1123276,-1
51,52,1580727210927,10.0966,-7.3245997,-5.9458,8.987757,-1.8052279999999998,2.6383240000000003,-1
52,53,1580727210937,11.3462,-6.6970997,-5.4270000000000005,10.823564,-1.5660568000000001,3.491024,-1
53,54,1580727210949,13.0258,-6.3150997,-4.6375,12.622797,-1.5782003,4.8388157,-1
54,55,1580727210959,16.046799,-6.1141996,-2.2217999,14.68114,-1.6905744999999999,7.0205655,-1
55,56,1580727210969,16.046799,-6.1141996,-2.2217999,15.73615,-1.0932978000000002,9.285892500000001,-1
56,57,1580727210979,17.7829,-4.2648,1.7335,15.837434,-0.3091393,11.08503,-1
57,58,1580727210989,17.494,-3.2691,2.8443,15.580708,0.11781388,11.847277,-1
58,59,1580727211000,17.494,-3.2691,2.8443,14.960177999999999,0.30060637,13.100545,-1
59,60,1580727211010,16.2173,-2.5951,5.1124997,13.979035000000001,-0.009375694,14.520095999999999,-1
60,61,1580727211021,16.2173,-2.5951,5.1124997,13.714160000000001,-0.32424194,15.072323,-1
61,62,1580727211032,16.2904,-3.0177999,6.8315,14.391172000000001,-1.0432494,16.374598000000002,-1
62,63,1580727211042,16.673,-2.3883997999999997,6.915199799999999,14.726764000000001,-0.52014506,16.370392000000002,-1
63,64,1580727211053,17.161299,-1.6868999,7.3325,15.159137,-0.2635633,17.303604,-1
64,65,1580727211064,17.150098999999997,-1.1731,8.4552,14.366178,-0.054846372000000004,18.488139999999998,-1
65,66,1580727211074,16.048,-0.6606,9.4237995,13.332428,-0.10726981599999999,20.19196,-1
66,67,1580727211085,15.057099,-0.5956,11.443299,12.24094,-0.7512909000000001,22.109026,-1
67,68,1580727211095,13.948198999999999,-1.0645,13.0803995,10.681281,-1.7734523000000002,23.583702,-1
68,69,1580727211105,12.3617,-1.4197999,14.126598999999999,9.097219,-2.0518692,24.008432,-1
69,70,1580727211116,10.8035,-1.3406,14.4407,8.429477,-2.1805816000000005,24.09949,-1
70,71,1580727211126,10.2547,-1.1442,14.5102,8.564108000000001,-1.6707793000000002,24.194078,-1
71,72,1580727211137,10.2314,-0.2479,14.628599,8.518944,-0.92974514,24.440212,-1
72,73,1580727211146,10.0477,0.75699997,15.062099,8.499167,-0.43598413,24.96886,-1
73,74,1580727211156,9.756599000000001,1.2639999,15.574698999999999,8.18478,-0.16220237,25.495672,-1
74,75,1580727211167,9.254399000000001,1.6219,15.969199,7.4917926999999995,-0.18223706,25.763775,-1
75,76,1580727211177,8.3223,1.5899,16.2333,6.172568,-0.8033983,25.780610999999997,-1
76,77,1580727211187,6.9858,1.1129,16.178299,4.585882700000001,-1.5042578000000002,25.0436,-1
77,78,1580727211197,5.1949997,0.42100000000000004,15.4401,2.6805863,-2.3562583999999998,23.957464,-1
78,79,1580727211208,3.0765,-0.4711,14.3322,0.59834933,-2.9298613,22.64525,-1
79,80,1580727211217,0.7722,-1.1180999,12.9944,-1.5130302,-3.153403,21.388945,-1
80,81,1580727211227,-1.5418999,-1.4807,11.7146,-3.109886,-3.0365086,20.490862,-1
81,82,1580727211237,-3.3562,-1.517,10.7905,-3.9014187000000007,-2.7348964,19.841852,-1
82,83,1580727211247,-4.3479,-1.3831999,10.1254,-4.1846623,-2.6325203999999998,19.355798999999998,-1
83,84,1580727211257,-4.8015,-1.4591,9.6312,-3.8726597000000003,-2.3553677000000004,19.163641000000002,-1
84,85,1580727211268,-4.659,-1.3823,9.4352,-3.3943844,-2.2268470000000002,18.957546,-1
85,86,1580727211277,-4.3234997,-1.4691,9.2136,-3.3078864,-2.4154142999999997,18.651703,-1
86,87,1580727211287,-4.3444,-1.9899,8.8389,-3.1956272,-2.7709918,18.317156,-1
87,88,1580727211298,-4.3643,-2.6552,8.352,-3.7005644,-3.4161046,17.441807,-1
88,89,1580727211308,-4.986000000000001,-3.4473,7.7159996,-4.693909,-3.8605160000000005,16.829801999999997,-1
89,90,1580727211318,-7.723099700000001,-5.2102,6.0752,-6.225633,-4.516039,15.745956,-1
90,91,1580727211328,-7.723099700000001,-5.2102,6.0752,-7.320827,-4.5772157,14.455010999999999,-1
91,92,1580727211338,-8.905399000000001,-5.6282,4.8273,-7.658687599999999,-4.6502676,13.631263,-1
92,93,1580727211348,-9.465199,-6.0284,3.5507,-8.084692,-4.3217444,11.989981,-1
93,94,1580727211358,-9.7623,-6.0948997,2.4779,-7.6366415,-4.081444,10.677661,-1
94,95,1580727211369,-9.3167,-6.1938996,1.2336,-6.562305499999999,-3.7701684999999996,9.671914,-1
95,96,1580727211379,-6.1358,-5.6533,-0.84319997,-4.4952765,-2.9445615000000003,8.442511,-1
96,97,1580727211389,-4.8280997,-5.4715,-1.4343,-3.228734,-2.4979472,7.784517299999999,-1
97,98,1580727211399,-4.9186997,-5.4175997,-1.6629,-3.5562991999999998,-2.1673846,7.4570284,-1
98,99,1580727211410,-5.9131,-5.6236,-1.6946,-4.4348754999999995,-2.1617342999999996,7.357697999999999,-1
99,100,1580727211420,-6.6910996,-5.8673997,-1.8021,-5.404355000000001,-2.1798344,7.1690254,-1
100,101,1580727211430,-7.0477,-6.0432,-1.7680999,-5.6968879999999995,-2.1405790000000002,7.1318483,-1
101,102,1580727211440,-6.9823,-6.1120996,-2.0637999,-5.6702069999999996,-1.996247,6.7490820000000005,-1
102,103,1580727211453,-6.5683,-6.0813,-2.6134999,-5.008392,-1.6853265,5.865009,-1
103,104,1580727211461,-5.6656,-6.0249996,-3.0676,-3.9769892999999996,-1.4261111000000002,5.354593799999999,-1
104,105,1580727211471,-4.3696,-5.7941,-3.5953998999999994,-2.6313042999999996,-0.9030736999999999,4.6624684,-1
105,106,1580727211482,-4.3696,-5.7941,-3.5953998999999994,-1.7874343000000001,-0.5218497999999999,4.269034400000001,-1
106,107,1580727211492,-1.6797,-4.9372997000000005,-4.5235,-0.26916575,0.13504256,3.8104007000000006,-1
107,108,1580727211502,-1.6797,-4.9372997000000005,-4.5235,0.050910305,0.30495426,3.7499042,-1
108,109,1580727211512,-0.64559996,-4.6714997,-4.6900997,0.42656055,0.50720686,3.5775120000000005,-1
109,110,1580727211522,-0.55,-4.6591997,-4.605,0.43614694,0.5884373,3.6383343,-1
110,111,1580727211532,-0.4459,-4.3485,-4.5394,0.5760258,1.0643375,3.6161354,-1
111,112,1580727211542,0.0094,-4.1419997,-4.6597,1.0526347,1.3444878999999998,3.4370297999999995,-1
112,113,1580727211553,0.5173,-3.9787,-4.8015,1.6791398999999998,1.6464637999999998,3.1847098,-1
113,114,1580727211564,1.2105,-3.7201,-5.0548,2.5420293999999997,1.9605734000000001,2.8642504,-1
114,115,1580727211573,2.2054,-3.5131,-5.2629,3.669478,2.4228457999999997,2.5655117,-1
115,116,1580727211583,3.1309998,-3.0916997999999998,-5.5153,4.3625419999999995,2.7503057,2.2799888,-1
116,117,1580727211593,3.8040998,-2.7895,-5.7636,4.841133,3.2558463,1.9715773,-1
117,118,1580727211604,3.9322,-2.3887,-5.9705,4.849925,3.5184135000000003,1.9259436999999997,-1
118,119,1580727211613,3.9759,-2.2498999,-5.8436,4.80635,3.6915047,2.296911,-1
119,120,1580727211623,3.8693,-2.0786,-5.2943,4.7603817,3.8767775999999996,2.9642324,-1
120,121,1580727211634,4.0099998,-1.8874999,-4.5849,5.109465599999999,4.183025,3.7216907,-1
121,122,1580727211643,4.376,-1.5232999,-3.8202,5.523328,4.5681944,4.448513,-1
122,123,1580727211653,4.7949,-1.0965999,-3.1067,5.878655999999999,5.029394,5.098625,-1
123,124,1580727211663,5.0453997,-0.6594,-2.5207999,6.069319999999999,5.413922,5.5276464999999995,-1
124,125,1580727211674,5.1895,-0.3026,-2.2574,6.138417,5.647079,5.5726676,-1
125,126,1580727211685,5.1905,-0.1451,-2.3255,6.0871043,5.6634269999999995,5.4392624000000005,-1
126,127,1580727211695,5.1242,-0.18689999,-2.4206998,5.968505400000001,5.6629095000000005,5.4193430000000005,-1
127,128,1580727211705,4.9168997,-0.1136,-2.4352,5.7135419999999995,5.875457,5.387940400000001,-1
128,129,1580727211715,4.6934,0.0669,-2.419,5.619029,5.9325066,5.538344,-1
129,130,1580727211726,4.5442,0.0845,-2.2187,5.2890596,5.999228,5.7071643,-1
130,131,1580727211736,4.2021,0.1883,-2.0832999,4.849235500000001,6.152044999999999,6.030668299999999,-1
131,132,1580727211746,3.7580998,0.3315,-1.7012,4.473154,6.2218695,6.637521700000001,-1
132,133,1580727211757,3.3862997999999997,0.4351,-1.1106,4.2856307000000005,6.281619,7.128429400000001,-1
133,134,1580727211766,3.2208,0.5229,-0.67969996,4.2426596,6.3496623,7.2860727,-1
134,135,1580727211776,3.2105,0.6195,-0.5516,4.1796346,6.4442525,7.4846,-1
135,136,1580727211787,3.0704,0.7528,-0.3821,3.8691928,6.520771,7.739458,-1
136,137,1580727211797,2.7112,0.82379997,-0.1506,3.5271763999999997,6.50632,7.917453,-1
137,138,1580727211808,2.3755999,0.8206,-0.0123,3.0595312000000003,6.4292169999999995,7.9333215,-1
138,139,1580727211818,1.9355999,0.7614,-0.0053,2.7731654999999997,6.27775,7.8335595,-1
139,140,1580727211828,1.3599,0.3549,-0.34289998,2.552468,6.014953,7.587550599999999,-1
140,141,1580727211838,1.3599,0.3549,-0.34289998,2.4412045,5.883856,7.4145270000000005,-1
141,142,1580727211848,1.1997,0.1819,-0.5464,2.4078197,5.8226123,7.4576607,-1
142,143,1580727211858,1.1679,0.20099999,-0.4206,2.6765738,6.0996785000000004,7.9691963,d
143,144,1580727211868,1.3899,0.46299999999999997,0.0335,3.0092912,6.290535,8.527562,-1
144,145,1580727211878,1.7792,0.7021,0.71849996,3.4685278,6.4040685,9.14134,-1
145,146,1580727211888,2.1251,0.8161,1.1755999,3.5732696,6.3998446,9.236888,-1
146,147,1580727211898,2.2166997999999998,0.8398,1.2598,3.590929,6.3318877,9.219755000000001,-1
147,148,1580727211908,2.2096999,0.78999996,1.2283,3.3031843000000003,6.28613,9.14743,-1
148,149,1580727211918,1.9237,0.75299996,1.1515,2.8282993,6.1611910000000005,9.012360000000001,-1
149,150,1580727211928,1.4646,0.6293,1.0114,2.2184863,5.82267,8.8612175,-1
150,151,1580727211938,0.8499,0.2811,0.8671,1.6691321,5.463894,8.575638,-1
151,152,1580727211949,0.3046,-0.0839,0.5905,1.3456563,5.233265,8.228076,-1
152,153,1580727211959,-0.25509998,-0.61649996,-0.3788,1.0931063,4.969625499999999,7.5892553,-1
153,154,1580727211969,-0.3085,-0.6576,-0.89129996,1.0356263,4.9415746,7.073554,-1
154,155,1580727211979,-0.1366,-0.602,-0.9389,1.2041303,4.991518,7.0271063,-1
155,156,1580727211990,-0.0251,-0.47849998,-0.7181,1.3149051999999999,5.10824,7.240995,-1
156,157,1580727212000,-0.0251,-0.47849998,-0.7181,1.3955802,5.257686,7.441514,-1
157,158,1580727212010,0.24849999,-0.1698,-0.1171,1.5883038,5.40038,7.8648663,-1
158,159,1580727212020,0.34919998,-0.059000000000000004,0.17909999,1.703666,5.503657,8.21509,-1
159,160,1580727212031,0.2999,-0.058199997999999996,0.39909998,1.646866,5.4889855,8.433710000000001,-1
160,161,1580727212041,0.18100000000000002,-0.060099997,0.621,1.5260546,5.480012,8.686614,-1
161,162,1580727212052,0.18100000000000002,-0.060099997,0.621,1.5007143,5.509077,8.833636,-1
162,163,1580727212063,0.2549,0.077599995,0.90239996,1.6749452,5.640136,8.8941145,-1
163,164,1580727212073,0.4465,0.363,0.79639995,1.9295063000000001,5.931136599999999,8.748432000000001,-1
164,165,1580727212084,0.7644,0.547,0.5653,2.3076658,6.1067176,8.431727,-1
165,166,1580727212093,0.89849997,0.5929,0.32459998,2.3057024,6.1330442000000005,8.225817,-1
166,167,1580727212103,0.8225,0.5714,0.15079999,2.2267606,6.0595713,8.120682,-1
167,168,1580727212114,0.7686,0.5126,0.18100000000000002,2.2133722000000002,6.0614867,8.240957,-1
168,169,1580727212124,0.74149996,0.5821,0.3779,2.2489216,6.122041,8.5025,-1
169,170,1580727212134,0.8283,0.6112,0.6155,2.3626175,6.112435,8.750989,-1
170,171,1580727212145,0.8849,0.5801,0.8346,2.3528585,6.1059995,8.843845,-1
171,172,1580727212155,0.85679996,0.54719996,0.868,2.3564404999999997,6.0278434999999995,8.804304,-1
172,173,1580727212165,0.89159995,0.4441,0.8233,2.3478596,5.9380608,8.7865,-1
173,174,1580727212175,0.7827,0.3202,0.8181,2.1355321,5.7946386,8.799735,-1
174,175,1580727212185,0.55869997,0.175,0.8233,2.0406451,5.7207913,8.783522,-1
175,176,1580727212195,0.31579998,0.0469,0.7321,1.7267078999999999,5.603744,8.649705,-1
176,177,1580727212205,0.1493,-0.0246,0.62329996,1.6245903,5.531554,8.4742,-1
177,178,1580727212215,0.1477,-0.097799994,0.5159,1.6651194,5.492749,8.415839,-1
178,179,1580727212226,0.2041,-0.11199999599999999,0.47739998,1.7528526000000002,5.4803375999999995,8.386381,-1
179,180,1580727212235,0.3391,-0.1748,0.44829997,1.8929228999999999,5.4541445,8.332607000000001,-1
180,181,1580727212246,0.4842,-0.1103,0.39,2.0609863,5.591313400000001,8.277722,-1
181,182,1580727212257,0.65889996,-0.0166,0.371,2.290954,5.7123933,8.278029,-1
182,183,1580727212267,0.81509995,0.077,0.3813,2.2988455,5.8658323,8.238878999999999,-1
183,184,1580727212279,0.8077,0.1898,0.36200000000000004,2.0839515,5.875955,8.210828,-1
184,185,1580727212288,0.5868,0.18329999,0.3435,1.8505839,5.831250700000001,8.128832000000001,-1
185,186,1580727212298,0.2695,0.0962,0.24769999,1.3639288,5.682647,7.8837423,-1
186,187,1580727212308,-0.1139,-0.0411,0.0447,1.1079983,5.6244016,7.6412770000000005,-1
187,188,1580727212318,-0.3595,-0.1197,-0.43039998,1.0884999,5.76609,7.388103999999999,-1
188,189,1580727212329,-0.3717,-0.0009,-0.43039998,1.1517643,5.8389025000000006,7.3687687,-1
189,190,1580727212339,-0.30539998,0.1156,-0.2915,1.1454818000000002,5.9091773000000005,7.5063585999999995,-1
190,191,1580727212349,-0.30539998,0.1156,-0.2915,1.0812788999999998,5.925142,7.599081,-1
191,192,1580727212360,-0.51989996,0.1091,0.0709,0.9333939,5.936873,7.845406,-1
192,193,1580727212371,-0.621,0.0747,-0.064399995,0.83609354,5.9168959999999995,7.693239999999999,-1
193,194,1580727212381,-0.7236,0.0289,-0.31599998,0.6893194,5.884124,7.357832000000001,-1
194,195,1580727212391,-0.8376,-0.0069,-0.42999998,0.6237566,5.852463200000001,7.300409299999999,-1
195,196,1580727212402,-0.94409996,-0.0213,-0.3979,0.45933240000000003,5.8501744,7.390268300000001,-1
196,197,1580727212413,-1.1126,-0.0925,-0.1312,0.33460405,5.6976447,7.7756490000000005,-1
197,198,1580727212422,-1.1899998999999999,-0.2619,0.13679999,0.3491225,5.6015415,7.8589478,-1
198,199,1580727212433,-1.12,-0.4247,0.0857,0.45463017,5.4985230000000005,7.707682000000001,-1
199,200,1580727212442,-0.91179997,-0.4437,-0.3137,0.8194874,5.5034175,7.1753078,-1
200,201,1580727212452,-0.4743,-0.4023,-0.6051,1.3738313,5.602796,6.997495,-1
201,202,1580727212463,-0.0674,-0.2846,-0.6174,1.5825386000000001,5.680205,7.001028999999999,-1
202,203,1580727212473,-0.069,-0.2653,-0.2944,1.621545,5.705066,7.307305,-1
203,204,1580727212483,-0.3241,-0.2586,0.18959999,1.3900543,5.694483999999999,7.8928785,-1
204,205,1580727212494,-0.3468,-0.259,0.51559997,1.4582604,5.6959877,8.139308999999999,-1
205,206,1580727212504,-0.1284,-0.2609,0.53999996,1.9988328000000002,5.778798,8.00802,-1
206,207,1580727212514,0.42049998,-0.0117,0.2447,2.7614148,6.194968,7.554242599999999,-1
207,208,1580727212525,1.1173999,0.39069998,-0.175,3.3636332,6.558772,7.275164999999999,-1
208,209,1580727212536,1.4178,0.6448,-0.281,3.2562675,6.657967999999999,7.5162416,-1
209,210,1580727212546,1.1775,0.7114,0.0335,2.6994336,6.5604385999999995,7.709836999999999,d
210,211,1580727212557,0.5223,0.5479999999999999,0.1441,1.8918407,6.197841,7.4490604000000005,-1
211,212,1580727212567,-0.3437,0.14209999,-0.1528,0.97388464,5.6532273,7.104382000000001,-1
212,213,1580727212578,-1.1024,-0.3268,-0.4068,0.7235278,5.4673223,6.9256115000000005,-1
213,214,1580727212589,-1.4222,-0.57629997,-1.2049,0.7153588000000001,5.441628,6.2631264,-1
214,215,1580727212599,-1.4222,-0.57629997,-1.2049,1.2220101,5.725082,6.2233253,-1
215,216,1580727212609,-0.34469998,0.0471,-0.9077,1.8876461,6.0643400000000005,6.518827,-1
216,217,1580727212619,0.097899996,0.3712,-0.6633,2.3901222,6.379925,6.7557383,-1
217,218,1580727212630,0.3518,0.4723,-0.4098,2.7321863,6.4628315,7.0653179999999995,-1
218,219,1580727212640,0.2807,0.49469998,-0.1648,2.6810560000000003,6.476775,7.2238235,-1
219,220,1580727212650,0.1217,0.4367,-0.4378,2.5970004,6.333621,6.823187400000001,-1
220,221,1580727212660,0.0030999999,0.2913,-0.672,2.5405831,6.2574472000000005,6.704234,-1
221,222,1580727212670,-0.0883,0.48459998,-0.5660000000000001,2.556835,6.482033,6.8637357,-1
222,223,1580727212682,0.107,0.723,-0.078999996,2.959396,6.762595,7.593259,-1
223,224,1580727212692,0.5861,1.199,0.6658,3.6137314,7.381946000000001,8.180900999999999,-1
224,225,1580727212703,1.2915,1.8192999,0.8682,4.583508,7.801717,8.010693,-1
225,226,1580727212713,1.8637999,1.9611,0.4721,5.000778700000001,7.916466000000001,7.3033589999999995,-1
226,227,1580727212723,2.1385,2.103,-0.28579998,5.354546,8.020805000000001,6.708956,-1
227,228,1580727212733,2.5948,2.3167,-1.0252,6.0632296,8.374841,5.8763575999999995,-1
228,229,1580727212744,3.3996,2.7935,-1.7202,7.4097,8.835015,5.249996,-1
229,230,1580727212755,4.6328,3.0584998,-1.6990999,8.936186,8.922547999999999,6.261000599999999,-1
230,231,1580727212765,5.6629,3.0376,-0.60539997,9.601687,8.601092,7.3557630000000005,-1
231,232,1580727212775,6.1373,2.6588,0.49899998,9.897132000000001,8.101605000000001,8.204815,-1
232,233,1580727212786,6.3764,2.0052,1.6636,10.297519,7.392835000000001,9.216928999999999,-1
233,234,1580727212796,6.7414,1.4355999,2.2838,11.053819,6.5458813,9.561914999999999,-1
234,235,1580727212806,7.4824,0.5728,2.6304,11.543183,5.8828597,9.954545,-1
235,236,1580727212817,7.839299700000001,-0.064399995,3.1085,11.902946,5.3654823,10.522134,-1
236,237,1580727212826,8.254499000000001,-0.5435,3.7068,12.675048,5.1360415999999995,10.787009,-1
237,238,1580727212836,9.424,-0.7948,3.8165,14.364415,5.049304,10.268291,-1
238,239,1580727212846,10.8322,-0.8595,3.2898998,15.638791000000001,4.918428,9.545309,-1
239,240,1580727212856,12.0745,-1.13,2.5449998,16.322058,4.3349032,8.613571,-1
240,241,1580727212867,12.647699000000001,-1.8319,1.5587,16.283635999999998,3.5721300000000005,7.328584700000001,-1
241,242,1580727212877,12.4571,-2.6437,0.30249998,15.370257,2.950193,6.301807,-1
242,243,1580727212887,11.5814,-3.3778,-0.645,14.027379000000002,2.0864797,5.6788263,-1
243,244,1580727212898,10.2533,-4.3048,-1.2157999,11.712435000000001,1.1093868,4.7302337,-1
244,245,1580727212908,6.3887997,-6.2671,-3.0198998,9.488365,0.15502934,3.7387567,-1
245,246,1580727212919,4.1861997,-6.9108,-4.4048,7.0697618,-0.42072827,2.3507612,-1
246,247,1580727212930,2.3739998,-7.343,-6.108,4.6776285,-0.78728056,0.21490355,-1
247,248,1580727212941,1.0613999,-7.3244,-8.629,3.4832761,-0.6569977,-1.8755601999999998,-1
248,249,1580727212951,1.0613999,-7.3244,-8.629,2.6044989,-0.47142790000000007,-4.2849507000000004,-1
249,250,1580727212961,-0.15269999,-7.1727996,-12.6496,1.567005,-0.3821242,-6.023955,-1
250,251,1580727212971,-1.4309,-7.0731997,-13.2254,-0.14990576,-0.25325865,-6.3990307,-1
251,252,1580727212982,-3.5734,-6.9614,-13.07,-2.1367197,-0.20933941,-6.124224,-1
252,253,1580727212992,-6.1835,-7.3345,-12.221399,-6.1178074,-0.76029307,-4.857117,-1
253,254,1580727213002,-8.7199,-7.6131997,-11.5216,-8.73126,-1.1652579,-4.060048999999999,-1
254,255,1580727213013,-10.8952,-8.1432,-10.7046995,-11.0207405,-1.8790078000000001,-3.0811749,-1
255,256,1580727213024,-13.1643,-8.7644,-10.0112,-13.599217999999999,-2.4347596,-2.577722,-1
256,257,1580727213034,-15.6747,-8.8841,-9.8482,-16.640928,-2.5583577,-1.8721412,-1
257,258,1580727213044,-17.7655,-8.722999999999999,-8.9344,-18.223774,-2.4537694,-0.56949437,-1
258,259,1580727213055,-18.915699,-8.4788,-7.825999700000001,-19.216227,-2.4161804,0.3812718,-1
259,260,1580727213065,-19.783699,-8.286099,-7.1246996,-20.099073,-2.551702,1.3654611,-1
260,261,1580727213076,-20.5129,-8.4003,-6.153,-20.846256,-3.110298,2.914682,-1
261,262,1580727213085,-21.147799,-8.622,-4.9416,-21.658247,-3.4544787000000006,4.74391,-1
262,263,1580727213095,-21.9544,-8.7249,-3.1162,-21.828453,-3.7286437000000006,7.239702,-1
263,264,1580727213105,-21.9285,-8.7125,-0.7022,-21.373795,-3.8442357000000005,9.427189,-1
264,265,1580727213115,-21.4244,-8.588699,1.8927,-20.562476999999998,-4.227729,12.534115,-1
265,266,1580727213125,-20.7136,-8.742,4.2414,-19.58886,-4.6616163,14.401334,-1
266,267,1580727213135,-19.4045,-8.9437,6.4062,-17.82123,-4.9780335,16.657093,-1
267,268,1580727213145,-17.483,-8.8741,8.506,-15.20638,-4.956572,18.339834,-1
268,269,1580727213155,-14.642999999999999,-8.451799000000001,9.561999,-12.082425,-4.715773,19.371064999999998,-1
269,270,1580727213166,-11.6188,-7.8524,10.866099,-8.492052000000001,-4.0776224,21.607689,-1
270,271,1580727213176,-8.8747,-6.9995,12.668799,-6.1684980000000005,-3.3160937000000006,22.737926,-1
271,272,1580727213186,-6.6745,-6.0104,13.441199,-3.9086491999999997,-2.9559674,22.553026000000003,-1
272,273,1580727213196,-4.4192,-5.5650997,12.9304,-1.4843188999999999,-3.111064,20.79682,-1
273,274,1580727213207,-2.0195,-5.5408998,10.9106,0.9387473,-2.863398,19.728003,-1
274,275,1580727213217,0.45139998,-4.9666,10.3898,4.193521,-2.0330987,21.428862,-1
275,276,1580727213227,3.8623,-3.8916,12.3447,7.790531,-0.7144585,23.3224,-1
276,277,1580727213238,7.3068,-2.2831,13.9408,10.867980000000001,0.99278927,23.253204,-1
277,278,1580727213247,9.7611,-0.7883,13.668099,12.2439375,1.4714955,21.825885999999997,-1
278,279,1580727213257,11.6201,-0.24489999,11.7041,13.616898,1.1806288,19.422558,-1
279,280,1580727213267,12.633599,-0.4782,9.2463,13.328022,1.1043208,17.384748000000002,-1
280,281,1580727213278,12.364699,-0.473,7.7444,13.949929999999998,1.3102795,17.986624,-1
281,282,1580727213288,13.024799,-0.2499,8.3341,14.999166500000001,2.0380404,18.426992000000002,-1
282,283,1580727213298,14.1159,0.5015,8.769899,15.986689000000002,2.4796076,18.251595000000002,-1
283,284,1580727213309,15.1249,0.92679995,8.5919,16.65558,2.2923522000000003,16.970505,-1
284,285,1580727213319,17.439999,0.4005,5.3213,18.266954000000002,2.0411527,14.963473,-1
285,286,1580727213329,18.4254,0.5387,3.0707998,19.256706,2.2791745999999997,12.700339999999999,-1
286,287,1580727213339,18.4254,0.5387,3.0707998,19.501951000000002,2.613137,10.490779,-1
287,288,1580727213350,19.337,0.5915,-0.8384,20.140646,2.5354598,8.534438,-1
288,289,1580727213360,18.4081,0.7127,-1.6247,18.926682,2.7216997000000003,7.859483999999999,-1
289,290,1580727213370,17.2626,0.31919998,-1.831,18.010460000000002,2.2668493,7.7059007,-1
290,291,1580727213381,16.974498999999998,-0.2233,-2.2624,17.834235999999997,1.9104580000000002,7.118967,-1
291,292,1580727213391,16.910099,-0.3486,-2.6931,17.84206,1.8653513,6.8593307,-1
292,293,1580727213401,16.6877,-0.50409997,-2.4178998,17.465052,1.6757401,7.0921902999999995,-1
293,294,1580727213411,16.0162,-0.90779996,-2.4085999,16.952642,1.2970347,7.090389999999999,-1
294,295,1580727213425,15.286598999999999,-1.5497999,-2.225,16.000498,0.53246087,7.506464,-1
295,296,1580727213435,14.5014,-2.0774,-1.7009,15.059988,-0.037972037,8.059447,-1
296,297,1580727213446,13.422998999999999,-2.7724,-1.2560999,13.570201,-0.9569624,8.155963,-1
297,298,1580727213456,12.0476,-3.5851998,-1.329,11.878401,-1.6625720000000002,7.5801476999999995,-1
298,299,1580727213466,10.2733,-4.3434,-1.9768,10.12845,-2.4210646000000002,6.696841,-1
299,300,1580727213476,8.5231,-5.1752,-2.8743,8.316680999999999,-3.0139549999999997,5.7522035,-1
300,301,1580727213487,6.678,-5.8104997,-3.738,6.6408067,-3.4563940000000004,5.0581629999999995,-1
301,302,1580727213497,5.0401,-6.3375998,-4.3852,5.267962000000001,-3.949389,4.326543,-1
302,303,1580727213507,3.6483998,-6.9150996,-5.1335998,3.7832410000000003,-4.479686,3.4331605000000005,-1
303,304,1580727213518,2.1274,-7.499399700000001,-6.0351,1.6120352,-5.003737999999999,2.3505887999999997,-1
304,305,1580727213528,0.2995,-7.9797997,-6.9042997,-0.51177496,-4.9895835,1.7329998,-1
305,306,1580727213539,-3.7754998,-7.8097997,-7.9409,-2.9623267999999996,-4.7611766,1.1979628,-1
306,307,1580727213549,-5.9309998,-7.7096995999999995,-8.6563,-5.1867223,-4.7772559999999995,0.41621759999999997,-1
307,308,1580727213559,-8.116099,-8.3389,-9.9116,-7.396197,-5.5668926,-1.0058042,-1
308,309,1580727213569,-8.116099,-8.3389,-9.9116,-9.493115,-6.420808999999999,-2.5942612,-1
309,310,1580727213579,-13.593499,-10.018499,-13.713698999999998,-12.372036999999999,-7.052063499999999,-4.461958999999999,-1
310,311,1580727213589,-15.979899,-10.3019,-14.5526,-14.995115,-7.4260187,-5.2989334999999995,-1
311,312,1580727213599,-17.3951,-10.684000000000001,-14.0227995,-16.067766,-8.007819,-4.512352,-1
312,313,1580727213610,-17.8851,-11.5947,-12.0631,-16.322279,-9.172953,-2.1373997000000005,-1
313,314,1580727213620,-17.9616,-12.785399,-8.357699,-16.264349,-10.670803999999999,1.8570673,-1
314,315,1580727213631,-18.1507,-13.925099,-4.3059,-16.480745000000002,-12.021785000000001,5.8768554,-1
315,316,1580727213642,-18.9534,-14.449698999999999,-0.982,-17.540716,-12.881619,9.758718,-1
316,317,1580727213652,-20.31,-14.381599,1.6453999,-18.724802,-12.820098,11.678149000000001,-1
317,318,1580727213662,-21.0521,-13.731,2.6102998,-18.464333,-12.449083,12.27196,-1
318,319,1580727213672,-19.5287,-12.976399,3.0939,-16.086813,-11.779183999999999,12.859228,-1
319,320,1580727213683,-16.910099,-11.724899,3.9378,-12.644278,-10.666532499999999,14.358698,-1
320,321,1580727213693,-14.1233,-10.5443,5.6917995999999995,-9.763228,-9.844526,16.379873,-1
321,322,1580727213703,-11.3185,-9.2978,7.7254996,-6.991232000000001,-8.904889,18.131892999999998,-1
322,323,1580727213714,-8.722099,-7.9652996,9.3257,-5.0099053,-8.025316,19.747711,-1
323,324,1580727213724,-7.2281,-6.7251997,11.155499,-4.2587676,-7.3167186,22.008537,-1
324,325,1580727213734,-6.5694,-5.7216,13.6026,-3.3849607,-6.6507187000000005,24.388489,-1
325,326,1580727213745,-5.2067,-4.5846,15.665199,-1.8106293999999998,-5.96863,25.619223,-1
326,327,1580727213754,-3.5914998,-3.9264997999999998,16.4613,-0.5912816,-5.8891807,25.796507000000002,-1
327,328,1580727213764,-2.2423,-3.5542998,16.279,1.0546267,-5.6745067,24.852972,-1
328,329,1580727213775,-0.011299999,-3.0079,14.832,3.3702601999999997,-5.2554455,22.758007,-1
329,330,1580727213785,2.4097,-2.4009,12.5728,5.0318937,-4.8360286,20.830032,-1
330,331,1580727213795,3.8664,-1.8201,11.2437,5.9043407,-4.307503700000001,20.541887,-1
331,332,1580727213806,4.9908,-1.0755,11.5864,6.9344606,-3.6661262999999997,21.354048000000002,-1
332,333,1580727213816,6.3385,-0.3294,12.364599,8.3361225,-3.049897,21.84171,-1
333,334,1580727213826,7.696799799999999,0.27519998,12.6008,9.253455,-2.4958787,21.459201999999998,-1
334,335,1580727213837,8.7353,0.8779,12.0154,9.768208999999999,-2.2531736,20.027544,-1
335,336,1580727213846,9.4095,1.0475,10.3875,9.880467,-2.4368472000000003,17.946877999999998,-1
336,337,1580727213856,9.5529995,0.775,8.2886,9.617652,-2.582252,16.247322,-1
337,338,1580727213866,9.3818,0.6349,6.7370996,9.283881,-2.571143,15.4492855,-1
338,339,1580727213876,9.2051,0.5722,6.0576,8.943464,-2.6218424,14.876401000000001,-1
339,340,1580727213886,8.9825,0.46069998,5.3869,8.623312,-2.5690265,13.887097,-1
340,341,1580727213896,8.7911,0.43699998,4.3129,8.471767,-2.4398353,12.654763,-1
341,342,1580727213907,8.7928,0.5033,3.0031,8.3380375,-2.170181,11.249769,-1
342,343,1580727213917,8.6943,0.6922,1.6056,7.7813473,-1.9744884999999999,10.181391,-1
343,344,1580727213928,8.1761,0.7435,0.5826,6.980257000000001,-1.8768052,9.317907,-1
344,345,1580727213938,7.4073,0.7661,-0.3019,5.902108999999999,-1.8311238,8.419459,-1
345,346,1580727213948,6.5895,0.6902,-1.0390999,4.8355403,-1.9620578000000002,7.8589287,-1
346,347,1580727213958,5.5636997,0.4669,-1.6295998999999999,3.713129,-1.9989668999999999,7.163241,-1
347,348,1580727213969,4.4609,0.33269998,-2.3476999,2.5973257999999997,-1.8599595000000002,6.3543453,-1
348,349,1580727213979,2.7015,0.7172,-3.7700998999999995,1.8876363999999999,-1.3501956,5.693048,-1
349,350,1580727213990,2.6606,1.0612,-3.9617998999999995,1.8909214,-1.03328,5.597203299999999,-1
350,351,1580727214000,2.6606,1.0612,-3.9617998999999995,2.3155951,-0.73613083,5.826127,-1
351,352,1580727214010,3.6885998,1.2651,-3.2739,3.0360777000000003,-0.80376226,6.4607725,-1
352,353,1580727214021,3.8126,0.80969995,-2.0716,2.9617329,-1.2741367000000001,7.8530583,-1
353,354,1580727214031,2.9875,0.3787,-0.5433,1.8760581000000003,-1.8363624,9.504464,d
354,355,1580727214041,1.4626,-0.4195,0.7701,0.21483651,-2.651521,10.625994,-1
355,356,1580727214052,-0.35999998,-1.087,1.3955,-1.6327114,-3.3419127,11.066968,-1
356,357,1580727214062,-1.614,-1.619,1.4498,-2.5120347,-3.7011101,10.898703999999999,-1
357,358,1580727214072,-1.9987999,-1.7498,0.92389995,-2.5805279999999997,-3.7062435,10.161432000000001,-1
358,359,1580727214083,-1.6819998999999999,-1.6884999,0.006,-2.0098653000000004,-3.5261803,9.263061,-1
359,360,1580727214093,-0.8059,-1.4153,-0.7818,-1.0411713,-3.1880999,8.626318,-1
360,361,1580727214103,0.1428,-1.0026,-1.1544,-0.22320664,-2.7601316000000002,8.399157,-1
361,362,1580727214114,0.8901,-0.6361,-1.0239999,0.5374983,-2.2968342,8.985697,-1
362,363,1580727214124,1.4045999,-0.1815,-0.2546,0.84109265,-1.9059378,9.875805,-1
363,364,1580727214135,1.6229,0.1284,0.6026,0.95901185,-1.6348472,10.56724,-1
364,365,1580727214145,1.7107999,0.36319998,1.0163,1.1763479,-1.4665059999999999,10.525553,-1
365,366,1580727214156,1.9391999,0.49089998,0.8883,1.2416618000000001,-1.5243787,10.306867,-1
366,367,1580727214168,1.7533,0.3102,0.58989996,1.0196713,-1.6617962,10.164057000000001,-1
367,368,1580727214177,1.7533,0.3102,0.58989996,0.89058554,-1.7196113999999998,10.024005,-1
368,369,1580727214187,1.5658,0.2128,0.42049998,0.89819914,-1.6780384999999998,10.027395,-1
369,370,1580727214198,1.6146,0.2549,0.4675,1.183157,-1.6326827,10.299013,-1
370,371,1580727214208,1.9009,0.28329998,0.76089996,1.3066596000000001,-1.7622282999999999,10.811449,-1
371,372,1580727214219,1.7974,0.0907,1.9589,1.1465545,-1.8444258999999998,11.562711,-1
372,373,1580727214229,1.7308999,-0.0897,2.9592,1.0887008999999999,-2.0783203,12.711545,-1
373,374,1580727214239,1.4173,-0.3507,3.4071,0.70546585,-2.333609,13.038899,-1
374,375,1580727214249,0.88689995,-0.61719996,3.4789,0.32348537,-2.5343103,13.093171,-1
375,376,1580727214259,0.5665,-0.7576,3.4601,0.04882256,-2.6376057,13.080816,-1
376,377,1580727214269,0.5665,-0.7576,3.4601,0.11943236,-2.4094957999999997,13.20861,-1
377,378,1580727214279,0.81769997,-0.161,4.1196,0.45404598,-1.8799943,13.912332999999999,-1
378,379,1580727214290,1.2343998999999999,0.14379999,4.8491,0.8621040999999999,-1.6001503000000001,14.611526000000001,-1
379,380,1580727214300,1.4458,0.18100000000000002,5.2648997,1.0090506,-1.5439824,14.958023999999998,-1
380,381,1580727214310,1.4326999,0.2446,5.2960997,1.0355306,-1.4583752,14.930137,-1
381,382,1580727214321,1.5274999,0.1928,5.2750998,1.1217217,-1.4126556000000001,14.97985,-1
382,383,1580727214337,1.3356,0.4305,5.5557,0.7862463000000001,-1.0075663000000001,15.462501999999999,-1
383,384,1580727214348,0.9152,0.6841,5.9912996,0.2829755,-0.47197375,15.830108,-1
384,385,1580727214358,0.50589997,0.95199996,6.1018996,-0.3071282,-0.27780402,15.534308,-1
385,386,1580727214368,-0.040799998,0.9709,5.8002,-0.76386523,-0.43451890000000004,14.99908,-1
386,387,1580727214378,-0.5322,0.6971,5.3229,-0.9876273999999999,-0.60366446,14.781898000000002,-1
387,388,1580727214388,-0.7898,0.3917,5.0141,-0.67702276,-0.49635630000000003,14.793379999999999,-1
388,389,1580727214399,-0.5038,0.38099998,5.0112,-0.052461747,-0.23510103,15.154434,-1
389,390,1580727214409,0.21679999,0.6042,5.4708,0.8996357,0.13863385,15.973779,-1
390,391,1580727214419,0.9578,0.722,6.1671,1.5753273,0.40954256,16.983118,-1
391,392,1580727214429,1.5679,0.8473,7.1787,2.3110174999999997,0.73503906,18.024498,-1
392,393,1580727214440,2.8312,1.0333999,8.779099,3.0250642000000005,0.9418694,18.590765,-1
393,394,1580727214450,3.2979998999999998,1.0402,8.712,3.696791,1.1949652,18.4642,-1
394,395,1580727214460,3.9204,1.1034,8.1298,4.3236413,1.4659313999999999,17.698227,-1
395,396,1580727214471,3.9427998,0.8499,6.8866997,4.210405000000001,1.3836761999999998,16.416794,-1
396,397,1580727214481,3.3655998999999994,0.31149998,5.4943,3.4214387000000004,0.9975968000000001,14.606229999999998,-1
397,398,1580727214491,2.4659998,-0.24239999,3.8952,2.5701084,0.8307689,13.166184,-1
398,399,1580727214501,1.6852,-0.62259996,2.9714,1.8346575,0.7273202,12.426461999999999,-1
399,400,1580727214512,1.0789,-0.9389,2.4966,1.3859076000000001,0.7946833999999999,12.024992999999998,-1
400,401,1580727214522,0.65029997,-1.0011,2.5872,0.97706413,1.0491008999999998,12.589938,-1
401,402,1580727214532,0.32099998,-1.0428,3.6344,0.74425197,1.2424662,13.394716,-1
402,403,1580727214543,0.0545,-1.0169,3.7084,0.58487475,1.5941936,12.807226,-1
403,404,1580727214552,0.0545,-1.0169,3.7084,0.8078898,1.7624389999999999,11.442896000000001,-1
404,405,1580727214563,0.8024,-1.1347,1.0797,1.4201063,1.9071254,10.060914,-1
405,406,1580727214573,1.0067999,-1.2990000000000002,-0.33409998,1.3518523999999998,1.7970113,8.378212,-1
406,407,1580727214583,0.6803,-1.8233999,-1.0531,0.5937812,1.4813501,7.7730440000000005,-1
407,408,1580727214594,-0.2391,-2.3437997999999998,-1.5597,-0.53733546,1.2623285,6.995991,-1
408,409,1580727214604,-1.2414,-2.6784,-2.392,-1.7552849999999998,1.3784473,6.20806,-1
409,410,1580727214614,-2.3978999,-2.5849,-2.8039,-2.8522701,1.6879313999999999,6.279033,-1
410,411,1580727214625,-3.3218,-2.5960999,-2.3437,-3.6296961000000003,1.554469,6.518626,-1
411,412,1580727214635,-3.5902,-2.9939999999999998,-2.6023,-3.4354305,1.4001005,5.873235,-1
412,413,1580727214645,-2.155,-3.1167998,-4.2974,-0.76073366,1.7715560000000001,3.0830995999999997,-1
413,414,1580727214655,0.12789999,-2.987,-6.231,1.1289235,1.6820799,1.095127,-1
414,415,1580727214666,1.0859999999999999,-3.3989,-7.5863,-0.0034572273,1.0992641,0.46310565,-1
415,416,1580727214675,-0.345,-4.1484,-7.9051,-2.2214264999999997,0.34839466,1.0069821,-1
416,417,1580727214686,-2.3788,-4.9866,-7.093,-3.9198157999999994,-0.524493,2.413001,-1
417,418,1580727214698,-4.9203,-6.7004,-5.5360000000000005,-5.415933,-1.4838017,2.749032,-1
418,419,1580727214708,-4.9203,-6.7004,-5.5360000000000005,-6.0106150000000005,-1.9497995,2.4587014,-1
419,420,1580727214719,-5.348799700000001,-7.2723,-6.187,-6.051613,-2.0192026999999997,2.0735033,-1
420,421,1580727214729,-4.6417,-6.8799,-6.7728,-5.103672,-1.3999951000000002,1.4009813999999998,-1
421,422,1580727214739,-4.6417,-6.8799,-6.7728,-3.2884550000000004,-0.38809052,1.6538666000000002,-1
422,423,1580727214749,-2.467,-5.6545,-6.5916,-1.2612079999999999,0.5414055999999999,2.3204317000000003,-1
423,424,1580727214759,1.1159999,-3.9882998,-4.575,0.24322216,1.25211,3.6913896,-1
424,425,1580727214770,1.1031,-3.7078,-3.4596998999999995,0.17413507,1.4785249,4.8193839999999994,-1
425,426,1580727214780,1.1031,-3.7078,-3.4596998999999995,-0.47187799999999996,1.6043258,5.4072375,-1
426,427,1580727214790,-0.2076,-3.5458998999999998,-2.3593,-1.5208448,1.5258343,6.101451,-1
427,428,1580727214800,-0.88949996,-3.6078,-2.0363,-2.1431074,1.4401793,6.3184705,-1
428,429,1580727214811,-1.1558,-3.6541,-2.1187,-2.2919598,1.4110084999999999,6.223823,-1
429,430,1580727214821,-0.7682,-3.574,-2.5197,-1.8373104,1.5627625,5.745653,-1
430,431,1580727214831,-0.3409,-2.9399998,-2.7324998,-1.4148008,2.2835607999999996,5.605238,-1
431,432,1580727214841,0.094399996,-2.2442,-2.4963999,-1.0206003000000001,2.9278119,5.947082,-1
432,433,1580727214851,0.23269999,-1.6976999,-1.8814,-0.9325224,3.4654730000000002,6.5609649999999995,-1
433,434,1580727214862,0.4094,-1.1952,-1.5329,-0.7118919,3.9317582000000004,6.8018885,-1
434,435,1580727214872,0.8939,-0.8901,-1.4871,-0.21713494,4.1863193999999995,6.8811755,-1
435,436,1580727214882,1.2306,-0.8029999999999999,-1.2830000000000001,-0.017563865,4.18879,7.2583575,-1
436,437,1580727214892,0.93789995,-0.9439,-0.6854,-0.7246961,4.0453486000000005,7.958939599999999,-1
437,438,1580727214903,-0.045599997,-0.97239995,-0.0166,-1.6748494999999999,4.066092,8.476221,-1
438,439,1580727214913,-0.84059995,-0.94229996,0.16669999,-2.3232186,4.1754207999999995,8.134971,-1
439,440,1580727214923,-1.0179,-0.7679,-0.585,-2.1754005000000003,4.391474,7.3751755,-1
440,441,1580727214933,-0.5888,-0.5141,-1.2548,-1.6105987,4.756034,6.94533,-1
441,442,1580727214943,0.011899999,-0.0704,-1.3584,-1.0602673999999999,5.1944985,7.023391,-1
442,443,1580727214954,0.4155,0.2183,-1.0070000000000001,-0.6668713000000001,5.462917,7.6107454,-1
443,444,1580727214964,0.6541,0.4006,-0.46469998,-0.5432731,5.604223,8.151663000000001,-1
444,445,1580727214974,0.70269996,0.5089,0.1051,-0.6447202,5.673588,8.71973,-1
445,446,1580727214984,0.5645,0.547,0.66609997,-0.7695251999999999,5.6589160000000005,9.207267,-1
446,447,1580727214995,0.4631,0.55,0.9754,-0.8446456,5.7363925,9.0384655,d
447,448,1580727215005,0.40919998,0.57409996,0.7011,-1.0004411,5.674076,8.765305999999999,-1
448,449,1580727215015,0.21599999,0.46449998,0.3423,-1.0827346000000002,5.6193256,8.243859,-1
449,450,1580727215026,0.2068,0.4197,-0.112399995,-1.0877625,5.59365,8.045112,-1
450,451,1580727215036,0.2146,0.36499998,-0.13589999,-1.0123547,5.617103599999999,8.169965,-1
451,452,1580727215046,0.2909,0.3906,-0.0037,-0.9656389999999999,5.7182059999999995,8.473961,-1
452,453,1580727215056,0.3023,0.46789998,0.3825,-1.0886723,5.7526917,8.841615,-1
453,454,1580727215066,0.1731,0.43969998,0.7094,-1.2706125,5.6047687999999996,9.006307000000001,-1
454,455,1580727215076,-0.0093,0.2733,0.8319,-1.5090941,5.441819000000001,8.798634,-1
455,456,1580727215086,-0.2201,0.0828,0.5556,-1.6535506000000002,5.2412715,8.438393,-1
456,457,1580727215096,-0.37739998,-0.1445,0.23449999,-2.093739,5.1292706,7.9471115999999995,-1
457,458,1580727215107,-0.8663,-0.2713,-0.25939998,-2.5486085,5.1365395,7.2695050000000005,-1
458,459,1580727215117,-1.3148,-0.3069,-0.9558,-2.9974735,5.055788,6.546983,-1
459,460,1580727215127,-1.768,-0.44299999999999995,-1.6314,-3.4115841000000002,5.064139,5.9799495,-1
460,461,1580727215138,-2.1698,-0.4764,-2.0739,-3.5652057999999998,5.0288677,5.850558,-1
461,462,1580727215148,-2.2761,-0.5706,-2.1585999,-3.7381531999999997,4.849522599999999,5.5861993,-1
462,463,1580727215158,-2.8652,-1.0048,-2.3887,-4.1514597,4.6206846,5.5631094,-1
463,464,1580727215168,-2.8652,-1.0048,-2.3887,-4.835349,4.3006470000000006,5.734563,-1
464,465,1580727215179,-4.4358,-1.5717,-2.4311,-5.963487000000001,3.9824386,5.34745,-1
465,466,1580727215190,-5.2023,-1.9174999,-3.0135999,-6.681622999999999,3.6732989999999996,4.6660595,-1
466,467,1580727215200,-5.2023,-1.9174999,-3.0135999,-7.1567383,3.4289086,3.9926376000000006,-1
467,468,1580727215210,-6.5478,-2.6311998,-5.1433,-7.9229207,3.055059,2.4613736,-1
468,469,1580727215220,-7.044699700000001,-3.0146,-6.4098997,-8.342135,2.6083965,1.2324680000000001,-1
469,470,1580727215233,-7.4273,-3.8628,-7.2904,-8.7677965,1.5700887,0.33127132,-1
470,471,1580727215243,-7.8841,-4.6526,-7.8265996,-9.201433999999999,0.8359499,-0.092741795,-1
471,472,1580727215253,-8.1459,-5.1579,-7.8627,-9.127817,0.5099170999999999,0.08334695,-1
472,473,1580727215263,-8.003099,-5.3977,-7.5856,-8.729508000000001,0.4018428,0.6544310999999999,-1
473,474,1580727215274,-7.6474,-5.4472,-6.8096,-8.140400999999999,0.21486524,1.4778258,-1
474,475,1580727215284,-6.8336997,-5.7444,-5.9765,-7.0897007,-0.15126567,2.1315196,-1
475,476,1580727215294,-5.7488,-6.0966,-5.6801,-5.332491,-0.7767364999999999,2.3537781000000004,-1
476,477,1580727215305,-4.1762,-6.6449,-5.6524997,-3.4177612999999996,-1.3587956,2.421256,-1
477,478,1580727215314,-2.4665,-7.1545,-5.6377997,-2.027525,-1.9430861000000001,2.4858422000000004,-1
478,479,1580727215324,-1.7379999,-7.6415997,-5.5006,-1.8914768,-2.6122751,3.1538246,-1
479,480,1580727215334,-1.9692999,-8.2992,-4.5955997,-2.0123074,-3.2788690000000003,4.225048,-1
480,481,1580727215344,-2.0629,-8.682,-3.7917,-1.6808733,-3.4072362999999997,4.6008224,-1
481,482,1580727215354,-1.5465,-8.6319,-3.7984998,-0.74612904,-3.6251182999999996,4.369322299999999,-1
482,483,1580727215364,-0.1546,-8.885799,-4.3992,1.1234456,-3.931557,3.5770524,-1
483,484,1580727215374,1.1808,-9.0255995,-5.1664,2.7499514,-4.5317063,2.9800053,-1
484,485,1580727215385,2.6657999,-9.5626,-5.7131,3.8099123999999995,-4.9552026,2.7185490000000003,-1
485,486,1580727215395,3.1413999,-9.7821,-5.6914,3.9669623,-5.423287999999999,3.4364839,-1
486,487,1580727215405,3.1678998,-10.0834,-4.9256997,4.1986256,-5.7480087,3.9664836,-1
487,488,1580727215415,3.3664,-10.0034,-4.8615,4.542021,-5.6608696,3.6681373,-1
488,489,1580727215426,3.7565,-9.7967,-5.5120997,5.0044084,-5.9548005999999996,2.8251102,-1
489,490,1580727215436,4.4107,-9.9254,-6.5031,7.0172419999999995,-5.7275815,1.5965208,-1
490,491,1580727215446,6.3216996,-9.1848,-7.7394996,8.750903,-5.2885045999999996,0.84968305,-1
491,492,1580727215456,7.8866,-8.711599,-8.1411,9.800224,-5.490153299999999,2.927352,-1
492,493,1580727215467,8.6804,-8.5044,-5.5790997,9.63512,-5.549558599999999,7.326707400000001,-1
493,494,1580727215477,8.4081,-8.2268,-1.1006,8.474267999999999,-6.158624,12.817675,-1
494,495,1580727215487,7.461899799999999,-8.294,3.2907998999999997,7.1678185,-6.327875,16.303660999999998,-1
495,496,1580727215497,6.2837996,-7.973799700000001,6.6728997,7.552825,-5.380135,18.318727,-1
496,497,1580727215508,7.0411,-6.1391,8.7897,8.70096,-3.4403337999999994,17.86672,-1
497,498,1580727215519,9.247499000000001,-1.8413,2.4292998,9.643116000000001,-1.423123,12.220686,-1
498,499,1580727215529,9.247499000000001,-1.8413,2.4292998,10.087471,-1.0385377,9.582745,-1
499,500,1580727215539,9.5222,-1.1143,1.0623,9.218844,-1.5201073999999999,11.525648,-1
500,501,1580727215549,7.7521,-1.5867,4.3452,7.4742665,-2.4280652999999996,14.730020000000001,-1
501,502,1580727215560,7.5056,-1.9232999,6.8141,7.2913976,-2.9864986,17.105356,-1
502,503,1580727215570,7.336,-0.9004,7.6197,6.818351299999999,-1.9638487,17.019479999999998,-1
503,504,1580727215580,7.336,-0.9004,7.6197,7.127557799999999,-1.4203267,16.104502,-1
504,505,1580727215590,9.234799,0.3435,6.8430995999999995,8.462966999999999,-1.95115,16.360567,-1
505,506,1580727215602,10.6761,-0.1028,9.456699,10.046108,-2.9674118,19.635893,-1
506,507,1580727215610,11.715799,-0.5083,14.323998999999999,10.83405,-3.5888507000000005,23.606112,-1
507,508,1580727215620,11.7822,-0.4279,19.796298999999998,10.950552,-3.8866226999999998,28.948109999999996,-1
508,509,1580727215631,11.7822,-0.4279,19.796298999999998,10.957466,-3.6283937000000006,33.311733000000004,-1
509,510,1580727215640,11.543099,0.5032,27.0742,10.821782,-3.6016742999999996,35.95975,-1
510,511,1580727215650,11.304999,0.17639999,27.9508,10.607406,-4.3383703,36.641495,-1
511,512,1580727215661,10.8726,-0.5054,27.359299,10.287645,-5.0199419999999995,36.060448,-1
512,513,1580727215671,9.035,-1.5682,27.042099,8.061172000000001,-6.4288144,35.70834,-1
513,514,1580727215681,9.035,-1.5682,27.042099,5.718225,-7.414623,35.625454,-1
514,515,1580727215691,2.5929,-4.1006,26.1598,1.9146622,-8.890628999999999,34.54467,-1
515,516,1580727215702,-0.89809996,-5.2702,23.825699,-1.8852997999999999,-9.950484,31.300882,-1
516,517,1580727215712,-3.9641998,-6.0231,20.2202,-3.9802454,-10.268989999999999,28.280693,-1
517,518,1580727215723,-6.1703,-6.4318,16.022000000000002,-6.075105000000001,-10.368530999999999,23.435154,-1
518,519,1580727215734,-7.7697997,-6.6777,12.205199,-7.7640324000000005,-10.164699,19.556778,-1
519,520,1580727215744,-9.390699,-6.7795,9.504399000000001,-9.139109,-9.93272,17.816489999999998,-1
520,521,1580727215754,-10.790999000000001,-6.8959,8.1784,-10.118164,-9.892621,17.013464000000003,-1
521,522,1580727215765,-11.7091,-7.3152,7.3740997,-10.742084,-9.986367999999999,16.279787,-1
522,523,1580727215775,-12.6058,-7.6412997,6.4631,-11.71007,-9.903136,15.136431,-1
523,524,1580727215785,-13.772599,-7.8831997000000005,5.1013,-12.781791,-9.630236,13.161569,-1
524,525,1580727215795,-14.6493,-7.995199700000001,3.22,-13.065244999999999,-9.302882,11.461858,-1
525,526,1580727215806,-14.903298999999999,-7.8501997,1.0438,-12.711018,-8.658468,9.007628,-1
526,527,1580727215816,-14.4521,-7.74,-1.0062,-12.172189,-8.487933,6.940780999999999,-1
527,528,1580727215826,-14.007999,-7.9279,-3.0405,-12.278558,-8.3213825,5.6456237,-1
528,529,1580727215836,-14.1879,-8.064899,-4.1082997,-12.607972,-8.234416,5.3945675,-1
529,530,1580727215846,-14.4394,-8.2143,-4.2857,-12.650952,-8.122961,5.267062,-1
530,531,1580727215856,-14.2063,-8.2487,-4.6807,-11.916478,-7.703468300000001,4.383946400000001,-1
531,532,1580727215866,-13.4782,-8.1619,-5.4708,-11.042652,-7.352325,3.3676841,-1
532,533,1580727215877,-12.531799000000001,-7.9884996,-6.4628997,-9.827641999999999,-6.804800500000001,2.6138267999999996,-1
533,534,1580727215887,-11.187099,-7.5843997000000005,-7.1296,-8.314239500000001,-6.012683,2.1223352,-1
534,535,1580727215897,-9.5933,-6.9463,-7.5804996,-6.618416000000001,-5.361911,1.6963971999999998,-1
535,536,1580727215907,-7.8387,-6.487,-8.0128,-4.9735518,-4.7455473,1.2346898000000002,-1
536,537,1580727215918,-6.1287,-5.9333,-8.4473,-2.6420782000000003,-3.7414476999999997,1.0075759,-1
537,538,1580727215928,-4.0824,-5.1688,-8.59,-1.0484784,-3.026606,0.78728056,-1
538,539,1580727215938,-2.0774,-4.3543997,-8.8621,0.7165941,-2.1340573,0.6388496,-1
539,540,1580727215949,0.71779996,-3.0261998,-8.6717,2.4022558,-1.230907,1.1165311000000002,-1
540,541,1580727215960,2.0017,-2.3655999,-7.8167995999999995,3.5705687999999993,-0.6129826999999999,1.9962278999999998,-1
541,542,1580727215970,3.2008997999999997,-1.729,-6.6791,4.6931142999999995,0.025656266,3.1423802000000003,-1
542,543,1580727215981,4.041,-1.1485,-5.6225,5.6879525,0.7198406999999999,4.3687863,-1
543,544,1580727215991,5.0316997,-0.77669996,-4.7342,6.746496700000001,0.9145276,5.0812335,-1
544,545,1580727216001,6.1112,-0.5807,-4.3069997,7.713342,1.168763,5.3412533,-1
545,546,1580727216011,7.0536,-0.1953,-4.2795,8.634717,1.6659143,5.2736220000000005,-1
546,547,1580727216022,7.8227997,0.4373,-4.4153,9.254891,2.2759855,5.237670400000001,-1
547,548,1580727216032,8.0498,0.7015,-4.125499700000001,9.130279,2.2515552000000003,5.618722,-1
548,549,1580727216042,7.2777,0.4545,-3.7739999999999996,8.1932745,2.0152571,6.071207,-1
549,550,1580727216052,6.3004,0.19929999,-2.9831998,7.353464999999999,1.7740651,7.016610000000001,-1
550,551,1580727216063,5.5639997,0.0368,-1.9139999,6.748775999999999,1.6147166000000002,8.135124000000001,-1
551,552,1580727216073,5.232599700000001,0.0202,-0.7251,6.638949,1.6707313999999998,9.423501,-1
552,553,1580727216083,5.5492,0.3612,0.6926,7.3251557,1.9664823,10.965483,-1
553,554,1580727216093,6.649399799999999,0.79219997,2.363,8.440442,2.4058373,12.584384,-1
554,555,1580727216104,7.7205,1.4325,3.6919999999999997,9.513418,3.096469,13.8615465,d
555,556,1580727216114,8.2813,1.9824,4.3870997,9.560075999999999,3.280181,14.067592000000001,-1
556,557,1580727216124,7.6084,1.8747,4.184,7.939010000000001,2.7473464,13.455835,-1
557,558,1580727216135,5.8845997,1.1961,3.6028,5.805623000000001,1.9203508000000002,12.970558,-1
558,559,1580727216145,3.6345,0.267,2.9865,3.5493753,0.9644610999999998,11.955102,-1
559,560,1580727216156,1.4320998999999999,-0.6688,1.8137,1.2913846000000002,0.11619539599999999,10.632028,-1
560,561,1580727216166,-0.1784,-1.3428,0.7784,0.48988238,-0.076059,10.045745,-1
561,562,1580727216176,-0.9019,-1.4375,0.19229999,0.41801804,0.08749370000000001,9.633837,-1
562,563,1580727216186,-0.52489996,-1.193,-0.0625,1.1926188,0.5590651999999999,9.749974,-1
563,564,1580727216196,0.1461,-0.7768,0.1804,1.6509744999999998,0.940203,10.073326,-1
564,565,1580727216206,0.58019996,-0.4298,0.4617,1.9481523,1.127621,10.126382000000001,-1
565,566,1580727216216,0.87229997,-0.24,0.45909998,2.0108040000000003,1.3138803,9.949202,-1
566,567,1580727216226,0.87329996,-0.0844,0.24229999,1.8545677999999999,1.3389046,9.7997265,-1
567,568,1580727216236,0.5816,-0.1007,0.115499996,1.3271443,1.2783027,9.718342999999999,-1
568,569,1580727216246,0.13329999,-0.1801,0.0591,0.9723235999999998,1.207597,9.619137,-1
569,570,1580727216256,-0.2024,-0.2111,-0.0652,0.90189576,1.3119746,9.4764805,-1
570,571,1580727216266,-0.1918,-0.1197,-0.17109999,1.2225273,1.4697526,9.526807000000002,-1
571,572,1580727216276,0.15789999,0.0783,-0.10229999599999999,1.5771563999999998,1.7486386000000003,9.619031,-1
572,573,1580727216286,0.5201,0.361,0.023899998999999998,2.0618196,1.99505,9.968815,-1
573,574,1580727216297,1.0294,0.6186,0.41439998,2.5726178,2.234384,10.480541,-1
574,575,1580727216307,1.5198,0.8596,0.93189996,2.8573935,2.3730083,10.914744,-1
575,576,1580727216318,1.7667999,0.972,1.3317,3.0159569,2.4474297000000003,11.196762,-1
576,577,1580727216328,1.9154999,1.0695,1.6146,3.1084304,2.4288887999999997,11.391036999999999,-1
577,578,1580727216338,1.9545,1.0418,1.7614,2.7982855,2.3512402000000003,11.274708,-1
578,579,1580727216348,1.6685,0.9564,1.6252999,2.5624759999999998,2.2021005000000002,11.129475999999999,-1
579,580,1580727216359,1.5929999,0.71779996,1.5497999,2.7282312,2.1371027999999996,11.198141,-1
580,581,1580727216369,2.1362,0.97429997,2.0802,3.4159129,2.4589121,11.885296,-1
581,582,1580727216379,2.1362,0.97429997,2.0802,4.021502,2.6637504,12.533818,-1
582,583,1580727216390,3.3962,1.4478999,3.8142,4.502948,2.8914583,13.459895000000001,-1
583,584,1580727216400,3.5193,1.6157999,4.3422,4.606376999999999,3.0561602000000003,13.9981785,-1
584,585,1580727216410,3.3816998,1.5152,4.3521,4.3408504,2.9746232000000004,13.936897,-1
585,586,1580727216421,3.1148,1.4272,3.9531,4.123543,2.9320545,13.506236999999999,-1
586,587,1580727216431,3.1065,1.3262,3.6453,4.1191664,2.8982959999999998,13.219651,-1
587,588,1580727216441,3.1427,1.2475,3.5061998,4.14241,2.831584,13.135673,-1
588,589,1580727216451,3.2760000000000002,1.0579,3.574,4.269158999999999,2.7120175,13.245107,-1
589,590,1580727216462,3.4027,0.9068,3.7303998,4.3541620000000005,2.6483605,13.314807,-1
590,591,1580727216472,3.3269,0.7703,3.3680000000000003,4.1000133000000005,2.4783146,12.765874,-1
591,592,1580727216482,2.8744,0.496,2.8616,3.5843403,2.356172,12.213465,-1
592,593,1580727216492,2.4106,0.3761,2.2809,3.2514694,2.3518436,11.679250999999999,-1
593,594,1580727216502,1.9122,0.2136,1.3228999,2.5185277000000004,2.234154,10.483635000000001,-1
594,595,1580727216512,1.1449,-0.0963,0.3599,1.823606,2.0425413,9.482016,-1
595,596,1580727216522,0.62369996,-0.3211,-0.6586,1.3850073999999999,1.9133310000000001,8.546476,-1
596,597,1580727216533,-0.0455,-0.70669997,-1.4711,0.75589734,1.6283157,7.6057854,-1
597,598,1580727216543,-0.3078,-0.8868,-2.4322,0.8858642,1.7452772,6.6981144,-1
598,599,1580727216553,0.0337,-0.7675,-2.8574,1.2744048000000001,1.9438523999999997,6.281974,-1
599,600,1580727216563,0.29569998,-0.6698,-3.3072998999999994,1.3649822,2.0409324,5.8759837,-1
600,601,1580727216574,0.1743,-0.70489997,-3.6148,0.94681096,1.9384894,5.78329,-1
601,602,1580727216583,-0.3338,-0.9514,-3.5345,0.51808614,1.7315251,5.856064,-1
602,603,1580727216594,-0.94699997,-1.216,-3.4772,-0.22994871,1.4539986999999999,5.844045599999999,-1
603,604,1580727216605,-1.8298,-1.5490999,-3.5411,-1.2871803,1.0683694,5.824413,-1
604,605,1580727216615,-2.4949,-1.9023,-3.5001998,-1.5399889,0.8399338,5.903258999999999,-1
605,606,1580727216625,-2.4687,-2.0124,-3.3727998999999995,-1.2634203000000002,0.88131523,6.1801624,-1
606,607,1580727216635,-2.1522,-1.9081,-2.9629998,-1.0472525,0.95582277,6.7474929999999995,-1
607,608,1580727216646,-2.0788,-1.8441,-2.4189,-1.1068873,0.97942007,7.173354,-1
608,609,1580727216656,-2.1283998,-1.8152,-2.1313999,-1.2506542999999999,0.9474621999999999,7.4442053,-1
609,610,1580727216666,-2.3711,-1.8531,-1.7760999,-1.7363325,0.80583084,7.828905000000001,-1
610,611,1580727216676,-2.7881,-1.969,-1.5093,-2.1420157000000004,0.72036743,8.000771,-1
611,612,1580727216687,-3.1357,-2.017,-1.311,-2.244363,0.719946,8.328288,-1
612,613,1580727216697,-3.1627,-1.9771999,-1.0042,-2.1432029999999997,0.8704837999999999,8.5456915,-1
613,614,1580727216707,-3.0562,-1.8011999,-0.8242,-1.9853008,1.0837018,8.778857,-1
614,615,1580727216717,-2.8335,-1.5667,-0.56549996,-1.5310823999999998,1.2978967,8.973563,-1
615,616,1580727216728,-2.3241,-1.2731,-0.4247,-0.958466,1.6696875,8.914886,-1
616,617,1580727216738,-1.8549,-0.9676,-0.501,-0.71884465,1.7660301999999999,8.936588,-1
617,618,1580727216748,-1.5321,-0.83559996,-0.4614,-0.516142,1.8305011999999998,9.196750999999999,-1
618,619,1580727216758,-1.3424,-0.7511,-0.23600000000000002,-0.5490575,1.8076031000000004,9.537513,-1
619,620,1580727216768,-1.5246998999999999,-0.87579995,0.21779999,-0.752488,1.6679541000000002,9.665995,-1
620,621,1580727216778,-1.5399,-0.94479996,0.056399997,-0.7904313000000001,1.5811212,9.511080999999999,-1
621,622,1580727216788,-1.5399,-0.94479996,0.056399997,-0.6986089,1.600792,9.306242999999998,-1
622,623,1580727216798,-1.3916,-0.92149997,-0.19129999,-0.5625033,1.6590861000000001,9.021084,-1
623,624,1580727216808,-1.3284999,-0.8621,-0.55689996,-0.64148325,1.6735756000000002,8.898481,-1
624,625,1580727216819,-1.2161,-0.87909997,-0.3527,-0.49280329999999994,1.677914,9.170739999999999,-1
625,626,1580727216829,-0.97429997,-0.6857,-0.0909,-0.31545043,1.8323497,9.368664,-1
626,627,1580727216840,-0.8619,-0.6649,-0.046499997,-0.22038148,1.8293328000000002,9.44048,-1
627,628,1580727216849,-0.8619,-0.6649,-0.046499997,-0.21711579,1.7624389999999999,9.493,-1
628,629,1580727216859,-0.8206,-0.7294,0.0163,-0.13491806,1.8117307,9.551505,-1
629,630,1580727216869,-0.6641,-0.61179996,0.17119999,-0.1256094,1.8495686999999998,9.662844999999999,-1
630,631,1580727216880,-0.5665,-0.5326,0.22569999,-0.054951716,1.9376273999999998,9.697024,-1
631,632,1580727216890,-0.5624,-0.46809998,0.1837,-0.09379524,1.9882121,9.670247999999999,-1
632,633,1580727216900,-0.6315,-0.47669998,0.1138,-0.16467320000000002,1.9632646,9.609836999999999,-1
633,634,1580727216910,-0.6554,-0.46019998,-0.1705,-0.18931432,1.9947627,9.2463875,-1
634,635,1580727216921,-0.5712,-0.40579998,-0.48389998,-0.13202587,2.0637348,9.009668,-1
635,636,1580727216931,-0.6034,-0.33879998,-0.4646,-0.25136244,2.1400332000000004,9.043666,-1
636,637,1580727216942,-0.7686,-0.2766,-0.3978,-0.45247539999999997,2.1868732000000004,9.159286999999999,-1
637,638,1580727216952,-0.94979995,-0.2785,-0.2439,-0.6707883000000001,2.1378209999999997,9.312851,-1
638,639,1580727216962,-1.1299,-0.33699998,-0.17889999,-0.8206556999999999,2.070132,9.291255,-1
639,640,1580727216972,-1.1832,-0.41509998,-0.28039998,-0.8302613000000001,1.9943413,9.105053999999999,-1
640,641,1580727216982,-1.1302,-0.43429998,-0.4015,-0.9042038,1.9559001,9.088619,-1
641,642,1580727216993,-1.1298,-0.3942,-0.4538,-0.72754043,2.1034117,9.04469,-1
642,643,1580727217004,-0.8803,-0.2173,-0.39799999999999996,-0.43748770000000003,2.2752001,9.326814,-1
643,644,1580727217014,-0.5762,-0.058399998,-0.0972,-0.22781308,2.3236399,9.518953,-1
644,645,1580727217024,-0.4675,-0.0557,0.066,-0.2706597,2.2771442000000004,9.737428999999999,-1
645,646,1580727217034,-0.5847,-0.1033,0.3179,-0.44259214,2.2050502,9.973344,-1
646,647,1580727217045,-0.7247,-0.20359999,0.41399997,-0.5938099,2.1278994,9.672671000000001,-1
647,648,1580727217055,-0.80899996,-0.2217,0.050699997999999996,-0.5354009,2.0755525,9.239608,-1
648,649,1580727217065,-0.74729997,-0.28239998,-0.3706,-0.5013171,2.0795939999999997,8.865211500000001,-1
649,650,1580727217075,-0.6656,-0.24419999,-0.8509,-0.35959953,2.1846037,8.594064,-1
650,651,1580727217086,-0.3773,-0.0937,-0.8322,0.04363193,2.3070049999999998,8.946835,-1
651,652,1580727217096,-0.1479,-0.0244,-0.5014,0.116291165,2.355339,9.426863,-1
652,653,1580727217107,-0.0843,0.058199997999999996,-0.0245,0.24529076,2.4282377,9.8067465,d
653,654,1580727217117,0.0572,0.14019999,0.3056,0.3939132,2.4391553,9.891147,-1
654,655,1580727217127,0.1994,0.13949999,0.2934,0.60602033,2.4893954,9.343717,-1
655,656,1580727217138,0.4619,0.1925,-0.33519998,0.8871091999999998,2.5446725,8.814924000000001,-1
656,657,1580727217148,0.83559996,0.2346,-0.94409996,1.2472450000000002,2.4455047000000003,8.223939999999999,-1
657,658,1580727217158,1.0656999,0.1629,-1.3284999,1.3963941,2.4598603,8.115442999999999,-1
658,659,1580727217168,1.3064,0.1845,-1.4296,2.032754,2.7048063,8.105637,-1
659,660,1580727217178,2.5844,0.8085,-1.6638998999999999,2.7226574,3.0516112,7.893203999999999,-1
660,661,1580727217189,2.5844,0.8085,-1.6638998999999999,3.2828336000000005,3.4208927000000005,7.928600299999999,-1
661,662,1580727217199,3.3077,1.3026999,-1.6007999,4.337681,3.9050674,8.136397,-1
662,663,1580727217209,5.2878,2.1015,-1.4879,5.40695,4.2606163,8.088916000000001,-1
663,664,1580727217219,6.4393997,2.5119,-1.7514,6.687676,4.6767855,7.8186584,-1
664,665,1580727217229,6.8297,2.6359,-1.5260999,6.8767122999999994,4.686928,8.229896,-1
665,666,1580727217239,6.8297,2.6359,-1.5260999,6.7101045,4.6178694,8.7898035,-1
666,667,1580727217249,6.4406,2.6553,0.4398,6.48934,4.6137705,10.060838,-1
667,668,1580727217259,6.3059998,2.799,1.6525999,6.3475747,4.6914864000000005,11.281899000000001,-1
668,669,1580727217270,6.5969996,2.802,2.6508,6.6294107,4.6293516,12.302375999999999,-1
669,670,1580727217280,6.7444997,2.6234999,3.2189,6.7707543,4.391215,12.874235,-1
670,671,1580727217290,6.9711,2.4496,3.3860997999999998,6.980238000000001,4.172203,13.052125,-1
671,672,1580727217300,7.3919997,2.4582,3.5837998,7.370962,4.130065,13.255219,-1
672,673,1580727217310,7.1173,2.3109,4.4289,6.913832000000001,3.8494837,14.323148999999999,-1
673,674,1580727217320,6.3701,1.9375,5.3335,6.2544116999999995,3.5096888999999996,15.021882000000002,-1
674,675,1580727217331,5.4607,1.3907,5.8278,5.048854,2.7761536,15.658970000000002,-1
675,676,1580727217341,4.0489999999999995,0.5786,6.696799799999999,3.4989727,1.9234442999999999,16.565538,-1
676,677,1580727217351,2.2484999,-0.109299995,7.3521,1.5973155,1.2250746000000001,17.161943,-1
677,678,1580727217361,0.46629998,-0.90389997,7.9610996,0.17974709,0.58247095,17.66783,-1
678,679,1580727217371,-1.1313,-1.6189,8.307899,-2.0518787,-0.46884215,18.009396,-1
679,680,1580727217382,-2.4782,-2.5281,8.3337,-3.2282841,-1.4355059,18.025217,-1
680,681,1580727217392,-3.4517998999999997,-3.7739999999999996,8.2834,-4.22952,-2.6848674,17.865935999999998,-1
681,682,1580727217402,-4.620199700000001,-4.9006,7.9508,-5.3160186,-3.4490294,17.551365,-1
682,683,1580727217413,-6.2007,-5.805,7.7475996,-7.3796,-4.477023,17.495045,-1
683,684,1580727217423,-8.0102,-6.7107997,8.0364,-9.627746,-5.2927275,17.780367000000002,-1
684,685,1580727217433,-9.706699,-7.2436,8.0634,-10.765842999999998,-5.4828269999999995,17.571726,-1
685,686,1580727217443,-10.5786,-7.4842997,7.9087996,-11.310227000000001,-5.544061699999999,17.487059,-1
686,687,1580727217454,-10.538899,-7.3889,7.5539,-11.086878,-5.227547599999999,16.58069,-1
687,688,1580727217464,-10.1966,-7.3524,5.9221,-10.768105,-5.2454852999999995,14.479921,-1
688,689,1580727217474,-10.0407,-7.6769,4.2292,-10.816965,-5.4133,12.726293,-1
689,690,1580727217484,-10.0699,-7.9442997,2.7087,-10.971631,-5.3871455,11.721332,-1
690,691,1580727217495,-10.377399,-7.9437,1.8297,-11.61072,-5.1044187999999995,10.791912,-1
691,692,1580727217505,-10.9487,-7.9051,1.1316,-12.289810000000001,-5.0925913000000005,10.002046,-1
692,693,1580727217515,-11.5187,-8.177,0.4191,-12.782577,-5.1196747,9.262984,-1
693,694,1580727217525,-11.7794,-8.2318,-0.278,-12.729683999999999,-4.917853,8.495069,-1
694,695,1580727217536,-11.330299,-8.264999000000001,-0.96,-11.816008,-4.8189535,7.5334897,-1
695,696,1580727217546,-10.196899,-8.3817,-2.0388,-10.381297,-4.7087817,5.8967557,-1
696,697,1580727217556,-9.031099000000001,-8.4896,-3.3483998999999995,-9.477628999999999,-4.5993476,4.7457485,-1
697,698,1580727217566,-8.1644,-8.5631,-4.3223,-8.571280499999999,-4.495851,3.9847083,-1
698,699,1580727217577,-7.1912,-8.650499,-5.0207996,-7.5262594,-4.363414,2.8345816000000004,-1
699,700,1580727217587,-6.223,-8.6966,-6.1489997,-6.979576600000001,-4.329828,1.5076671,-1
700,701,1580727217597,-5.808399700000001,-8.857699,-7.4031,-6.607049000000001,-4.194871,-0.10050859,-1
701,702,1580727217607,-5.4044,-8.8488,-8.9804,-5.881787999999999,-3.8434597999999998,-1.8209914,-1
702,703,1580727217618,-4.7251997,-8.6387,-10.5787,-4.9385676,-3.3646293,-3.5892339,-1
703,704,1580727217628,-4.0287,-8.403299,-11.938399,-3.8834333,-3.0134573,-5.0911455000000005,-1
704,705,1580727217638,-3.0934,-8.182899,-13.368799,-2.0096833999999997,-2.4501305,-6.000089599999999,-1
705,706,1580727217649,-1.3491,-7.724,-14.2286,0.61861384,-1.4587201,-6.201049299999999,-1
706,707,1580727217659,1.1169,-6.7925997,-14.3966,3.1157374,-0.42183918,-5.589119999999999,-1
707,708,1580727217669,4.9695,-4.8387,-12.3973,4.768914700000001,0.50328994,-4.179979299999999,-1
708,709,1580727217679,6.1295,-4.1226997,-11.045099,6.068392,1.1564281,-2.7810376,-1
709,710,1580727217689,6.1295,-4.1226997,-11.045099,8.02705,1.7634061999999997,-2.3729508,-1
710,711,1580727217700,7.5649996,-3.5354997999999997,-10.6917,9.437215,2.183617,-2.3271353,-1
711,712,1580727217710,10.1992,-2.3544,-10.1008,10.720142999999998,2.729342,-1.4511161,-1
712,713,1580727217720,11.0194,-1.6911,-9.068399000000001,11.725364,3.2611039,-0.37502775,-1
713,714,1580727217731,11.9372,-1.2988,-8.038899,12.718765,3.4400180000000002,0.8049305999999999,-1
714,715,1580727217741,12.3071995,-1.272,-6.8381996,13.045287,3.2727876,1.9682924,-1
715,716,1580727217751,12.168099,-1.3161,-6.6238,13.029121,3.0451086,2.110259,-1
716,717,1580727217762,12.379499000000001,-1.4597,-6.356,13.416847,2.7628992,2.6404118999999997,-1
717,718,1580727217771,13.1683,-0.8749,-5.0431,14.795975,3.4775589,4.616816,-1
718,719,1580727217781,14.9324,0.1713,-3.0633,16.521341,4.110921,6.3826540000000005,-1
719,720,1580727217791,17.2065,1.0584999,-0.885,18.805717,4.6708,8.617211,-1
720,721,1580727217802,18.3963,1.6766,1.1378,20.095531,4.9412208,11.297884,-1
721,722,1580727217812,19.4417,1.7958,3.8398,21.155214,4.819776999999999,14.315085,-1
722,723,1580727217822,19.812399,2.366,6.7555,20.994352,5.3070835999999995,17.126444,-1
723,724,1580727217832,19.0667,3.0709,9.189799,20.372329999999998,5.597797,19.6004,-1
724,725,1580727217842,18.6027,3.5219,11.5341,19.85162,5.8267875,21.755423,-1
725,726,1580727217852,18.053299,3.8607998,12.9585,19.31616,5.732523400000001,22.792465,-1
726,727,1580727217863,17.483598999999998,3.5238,13.4946995,18.696838,5.028580000000001,22.95437,-1
727,728,1580727217873,16.8202,2.6754,13.131599,18.059301,3.9169042000000003,22.522467000000002,-1
728,729,1580727217883,15.962898999999998,1.5418999,12.844999000000001,17.168169,2.9405491,22.430279000000002,-1
729,730,1580727217893,14.139899,0.3527,13.198298999999999,14.74632,1.4452838,22.941395,-1
730,731,1580727217904,11.868199,-0.8472,13.5715,12.368302,0.22847387,23.197182,-1
731,732,1580727217914,9.6112995,-2.0972,13.571898999999998,10.081016,-1.1299962,23.0698,-1
732,733,1580727217924,7.2131996,-3.612,13.2683,6.76158,-3.026606,22.68711,-1
733,734,1580727217934,4.263499700000001,-5.236000000000001,12.9571,3.462935,-4.368106,22.37165,-1
734,735,1580727217945,0.9849,-6.4038997,12.679999,0.12224794,-5.118439700000001,22.237356,-1
735,736,1580727217955,-2.1199,-7.0414996,12.685699000000001,-2.8117123,-5.547461,22.271112,-1
736,737,1580727217965,-4.8389997000000005,-7.6401,12.425699,-5.8884335,-6.4031199999999995,20.871157,-1
737,738,1580727217975,-7.1636,-8.5480995,10.9079,-7.4225516,-6.830542599999999,19.265929999999997,-1
738,739,1580727217986,-8.7849,-9.0855,8.9823,-8.760786,-6.917806,17.559793,-1
739,740,1580727217996,-9.7635,-9.1911,7.5691,-9.539342999999999,-6.668425999999999,16.453117000000002,-1
740,741,1580727218006,-10.2109995,-8.9296,6.4423,-9.891061,-5.831969,14.671399,-1
741,742,1580727218016,-10.3252,-8.2469,4.937,-10.087471,-4.891584,13.315056,-1
742,743,1580727218027,-10.3519,-7.5007,3.6237998,-9.945639,-4.1652308,11.583072,-1
743,744,1580727218036,-10.0296,-6.9884,1.8276,-9.704886,-3.6209523999999997,9.553545,-1
744,745,1580727218046,-9.6943,-6.6424,-0.1762,-9.698422,-3.2681139999999997,7.943875,-1
745,746,1580727218056,-9.7156,-6.3143997,-2.0349,-9.982068,-2.5207015999999998,5.84031,-1
746,747,1580727218067,-9.8272,-5.8608,-3.6622999,-9.955607,-1.8491281000000002,4.310329,-1
747,748,1580727218077,-9.6251,-5.3799996,-5.1011,-9.557145,-1.0874081,2.3048884999999997,-1
748,749,1580727218087,-9.1715,-4.9059,-6.7265997,-9.335614999999999,-0.8040974,1.0391409,-1
749,750,1580727218097,-8.8024,-4.7111998,-8.2263,-8.7889805,-0.38097495,-1.0047411,-1
750,751,1580727218107,-8.2012,-4.482,-9.875899,-8.104641,0.041323923,-2.0460944,-1
751,752,1580727218118,-7.2208996,-4.0520997,-11.0394,-7.1244545,0.80822504,-2.8677652,-1
752,753,1580727218128,-6.2131996,-3.3874,-11.7789,-6.492806400000001,1.4183538,-3.7280303999999997,-1
753,754,1580727218138,-5.1281,-2.6882,-13.2392,-6.001306,1.8004779999999998,-4.5693917,-1
754,755,1580727218149,-5.1281,-2.6882,-13.2392,-5.812135,2.1083534,-5.3127623,-1
755,756,1580727218158,-4.8954,-2.4476,-13.9477,-5.7380586,1.9703705000000002,-6.464411699999999,-1
756,757,1580727218168,-4.8045,-2.6399999,-15.0734,-5.7291903,1.5769266000000002,-7.487234,-1
757,758,1580727218179,-4.5892,-3.3346,-16.559399,-5.549711,1.3351984,-7.9909167000000005,-1
758,759,1580727218190,-4.5892,-3.3346,-16.559399,-5.1651169999999995,0.86941123,-8.256836,-1
759,760,1580727218200,-3.8305,-4.0786,-16.9928,-4.6767473,0.5118229000000001,-8.475503,-1
760,761,1580727218211,-3.0259,-4.3303,-17.6701,-3.7148432999999996,0.1954339,-9.218767999999999,-1
761,762,1580727218221,-1.7371999,-4.467,-18.3289,-2.1912212,-0.08789594,-9.686250999999999,-1
762,763,1580727218231,-0.9149,-4.8064,-18.0789,-1.6509169,-0.54734325,-9.165051,-1
763,764,1580727218242,-0.8487,-5.4228997,-17.282999,-1.6822044999999999,-1.5130780000000001,-8.248838000000001,-1
764,765,1580727218252,-1.3876,-6.7409,-16.477,-2.1083052,-3.2684875,-7.1866083,-1
765,766,1580727218262,-1.4283999,-8.370299000000001,-15.2659,-1.8143356,-4.799675499999999,-5.98696,-1
766,767,1580727218272,-1.2243998999999999,-9.787,-13.3255,-1.7114711999999999,-6.3280764000000005,-3.2665339,-1
767,768,1580727218283,-1.7895,-10.2209,-10.8215,-2.0314514999999997,-6.8604984,-0.8438699000000001,-1
768,769,1580727218292,-1.9807999,-10.3569,-9.2289,-1.9815273999999998,-7.240056,0.3743861,-1
769,770,1580727218302,-2.0,-10.6237,-8.4066,-1.7515308999999997,-7.7767887,1.1908471999999999,-1
770,771,1580727218314,-1.2232,-10.8187,-8.1104,0.21603361,-8.141923,1.3326126,-1
771,772,1580727218324,0.6781,-10.5148,-7.8595,2.2735912999999996,-7.872959,2.9701414,-1
772,773,1580727218334,2.6427999,-9.848599,-5.4007998,4.235515,-7.656485000000001,5.741171400000001,-1
773,774,1580727218345,4.0622997000000005,-9.412,-2.9284,4.7873883,-8.257123,9.482388499999999,-1
774,775,1580727218355,4.1026998,-9.6126995,0.65489995,4.4239006,-8.770947,14.688207,-1
775,776,1580727218365,3.4721,-9.5191,6.0938,2.0113976000000005,-8.968266999999999,19.71717,-1
776,777,1580727218375,0.4324,-9.340899,10.578199,-1.4287733999999999,-9.827967999999998,21.891346,-1
777,778,1580727218386,-2.6434,-9.8855,12.2604,-1.7308066999999998,-10.604139,21.104485999999998,-1
778,779,1580727218396,-2.4724,-10.0454,10.7695,-0.21912692,-9.989088,18.886333,-1
779,780,1580727218406,-0.68649995,-8.8566,9.151999,2.6857004,-9.023708000000001,20.429014000000002,-1
780,781,1580727218416,2.3797998,-7.4346,11.307,4.982065,-7.555229,23.487396,-1
781,782,1580727218429,5.4066997,-3.4436,18.9315,6.158308,-5.6916018,28.461878000000002,-1
782,783,1580727218440,6.5374,-1.9061999,20.3191,7.185152499999999,-4.55834,29.748196000000004,-1
783,784,1580727218450,7.482199700000001,-0.5846,17.627499,8.167656,-3.4696674,26.195393,-1
784,785,1580727218460,7.696099799999999,-0.48439997,13.7851,8.18207,-3.6567410000000002,23.065414,-1
785,786,1580727218470,6.0051,-0.93179995,11.0314,6.0127597,-4.3910904,20.034317,-1
786,787,1580727218480,4.1756,-1.1733999,11.3677,4.239011,-4.7299370000000005,20.860544,-1
787,788,1580727218490,2.8680000000000003,-0.9648,13.2703,3.0181305,-4.62781,22.6962,-1
788,789,1580727218501,2.6286,-0.53319997,14.214398999999998,3.023647,-4.2295110000000005,22.867384,-1
789,790,1580727218511,3.3195998999999996,0.0464,12.786799,3.6663177000000005,-3.9159178999999997,21.26961,-1
790,791,1580727218521,4.6391,0.4542,10.3228,5.371142400000001,-3.4776258,18.170172,-1
791,792,1580727218532,6.1959,0.9874,7.7826,6.3609343,-3.0970723999999996,15.744931,-1
792,793,1580727218542,6.1339999999999995,1.0137,5.8287997,5.866828400000001,-3.3519974,14.450960999999998,-1
793,794,1580727218552,4.5439997000000005,0.0801,5.1849,3.6628413,-4.5811996,14.063752,-1
794,795,1580727218562,2.5016,-0.7166,5.4625998,1.6936679000000001,-5.212550599999999,14.544114000000002,-1
795,796,1580727218573,0.85819995,-1.0504,6.2023,0.29722577,-5.437682,15.258038,-1
796,797,1580727218583,0.2385,-1.0805,6.3929996,0.23418166,-5.357457,14.943247,-1
797,798,1580727218593,0.51519996,-0.74469995,5.6096,0.9108214,-4.8007,13.916554999999999,-1
798,799,1580727218604,1.3907,-0.2253,4.7418,1.9398875,-4.343675599999999,12.821247,-1
799,800,1580727218616,2.4659,0.19849999,3.5321,2.978406,-3.8528067999999998,11.615719,-1
800,801,1580727218627,3.2461998,0.5686,2.6192,3.2393644,-3.6624773,10.692772999999999,-1
801,802,1580727218637,3.2879,0.63479996,1.7112,2.3071867999999998,-3.8694608,9.80077,-1
802,803,1580727218647,2.1432,0.3195,0.7791,0.7771004,-4.3508677,8.835734,-1
803,804,1580727218657,0.5642,-0.21949999,-0.2154,-0.40995437,-4.645134400000001,8.133476,-1
804,805,1580727218667,-0.523,-0.4728,-0.8364,-0.7600633000000001,-4.679822,7.788500999999999,-1
805,806,1580727218678,-0.17009999,-0.3297,-0.7879,-0.17929699,-4.4627633,8.112436,-1
806,807,1580727218688,-0.17009999,-0.3297,-0.7879,0.56391114,-3.9941508999999997,9.160905,-1
807,808,1580727218698,0.5595,0.1375,0.2545,1.1120780000000001,-3.7814116,9.775516,d
808,809,1580727218708,1.1385,0.37359998,0.8772,1.4962611000000001,-3.5695345,9.672153,-1
809,810,1580727218719,1.8697,0.7295,0.4132,1.8526334,-3.41258,9.230767,-1
810,811,1580727218729,1.7242,0.62549996,-0.0941,1.677962,-3.5002462999999997,8.819952,-1
811,812,1580727218741,1.2224,0.4712,-0.45499998,1.0266242,-3.6878269999999995,8.389138,-1
812,813,1580727218752,0.8416,0.3181,-0.5506,0.6106746999999999,-3.8518684000000003,8.414498,-1
813,814,1580727218762,0.3078,0.099,-0.45859998,0.07072472,-4.0787907,8.499521000000001,-1
814,815,1580727218772,-0.2021,-0.1241,-0.4032,-0.41809466,-4.273487,8.56925,-1
815,816,1580727218782,-0.5536,-0.2611,-0.22649999,-0.6173496999999999,-4.366909,8.800214,-1
816,817,1580727218792,-0.42639998,-0.266,0.030599998,-0.24324133,-4.2653375,9.069342,-1
817,818,1580727218802,0.2523,0.0431,0.28800000000000003,0.3927257,-3.9627774,9.262008,-1
818,819,1580727218812,1.189,0.3417,0.496,1.130657,-3.7447038,9.431967,-1
819,820,1580727218822,1.6376,0.57019997,0.6642,1.5478418,-3.4879114999999996,9.585637,-1
820,821,1580727218833,1.5942999,0.52099997,0.6349,1.4522365,-3.6378171000000004,9.537695,-1
821,822,1580727218844,1.3281,0.34,0.5349,0.8475857,-3.9095685,9.445346,-1
822,823,1580727218854,0.5721,0.026899998999999997,0.5111,-0.03718674,-4.194325,9.402184,-1
823,824,1580727218864,-0.21159999,-0.22049999,0.40739998,-0.5721184,-4.38816,9.277177,-1
824,825,1580727218875,-0.53319997,-0.42769998,0.3042,-0.6377195999999999,-4.5857873,9.245688000000001,-1
825,826,1580727218885,-0.5424,-0.5615,0.3112,-0.5634514,-4.627264,9.395278,-1
826,827,1580727218895,-0.4145,-0.58169997,0.5072,-0.36681086,-4.5993,9.669165,-1
827,828,1580727218906,-0.0778,-0.4813,0.9105,0.21254766,-4.4075246,10.209508,-1
828,829,1580727218916,0.42459998,-0.3227,1.3331,0.6328161999999999,-4.248511,10.585014,-1
829,830,1580727218926,0.80079997,-0.1862,1.6956999,0.8104085999999999,-4.221667,10.741692,-1
830,831,1580727218936,1.0223,-0.1507,1.7924,0.9598450000000001,-4.169263,10.80532,-1
831,832,1580727218946,1.1166999,-0.15879999,1.8968999,0.8930084999999999,-4.2794633,11.015319,-1
832,833,1580727218957,0.9213,-0.32899999999999996,2.1362,0.45151769999999997,-4.48456,11.295978,-1
833,834,1580727218967,0.5915,-0.5061,2.3725,0.44813707,-4.6469830000000005,11.537908,-1
834,835,1580727218977,0.6796,-0.68939996,2.6353,1.0856364,-4.6877510000000004,12.1791315,-1
835,836,1580727218990,1.2610999,-0.7371,3.1917999,2.068102,-4.3437905,13.298162,-1
836,837,1580727218999,2.2443,-0.4188,4.2991,2.9190874,-4.056812,14.773432000000001,-1
837,838,1580727219009,3.6188,0.0458,7.2131996,3.4255470999999997,-3.8206480000000003,16.595905,-1
838,839,1580727219019,3.6007,-0.0625,8.0997,3.2129228,-3.9488142,17.181576,-1
839,840,1580727219030,3.6007,-0.0625,8.0997,2.4803932,-4.1774607,17.019029999999997,-1
840,841,1580727219040,2.8018,-0.4044,7.964699700000001,1.6129737,-4.5212293,16.620817000000002,-1
841,842,1580727219050,1.4326,-1.1214,7.2218,1.0323797,-4.667276,16.344526000000002,-1
842,843,1580727219060,1.3668,-1.1218,7.0912,1.0543777,-4.496243499999999,16.292591,-1
843,844,1580727219070,1.5372,-0.9403,7.2419,1.1879548999999998,-4.132047,16.58069,-1
844,845,1580727219081,1.5012,-0.732,7.5772996,1.1599813,-3.839179,16.889837,-1
845,846,1580727219090,1.5505999,-0.59279996,7.7753,1.2386258999999997,-3.5232498999999997,17.1378,-1
846,847,1580727219100,1.5079,-0.45189998,7.7493,1.1492646999999998,-3.1301985,17.149734,-1
847,848,1580727219110,1.1959,-0.3796,7.5873,0.84190667,-2.8976064,17.000748,-1
848,849,1580727219121,0.77019995,-0.4698,7.101999799999999,0.38923976,-2.7899632000000003,16.523410000000002,-1
849,850,1580727219131,0.2832,-0.588,6.5386996,-0.13121182,-2.6781156000000004,15.966873999999999,-1
850,851,1580727219141,-0.1759,-0.7502,6.0955997,-0.60014975,-2.5617382999999996,15.539604,-1
851,852,1580727219151,-0.6623,-0.7879,5.539,-1.0253887,-2.3303819,14.961711,-1
852,853,1580727219161,-1.2038,-0.7988,4.811,-1.58228,-2.0147111,14.208878,-1
853,854,1580727219172,-1.7896999,-0.76129997,3.8737998,-2.057577,-1.7562331000000002,13.19571,-1
854,855,1580727219182,-2.3776,-0.86719996,2.6894,-2.6553133,-1.5620825,12.005322,-1
855,856,1580727219192,-3.0749998,-0.8548,1.6902,-3.338312,-1.253671,11.266672999999999,-1
856,857,1580727219202,-3.9104,-0.774,1.1604999,-4.0960765,-0.8782601999999999,10.774348,-1
857,858,1580727219212,-4.4719,-0.8186,0.6781,-4.341138,-0.8232894000000001,10.359183,-1
858,859,1580727219223,-4.4498,-1.1159999,0.60469997,-4.1178254999999995,-0.82483125,10.588013,-1
859,860,1580727219233,-4.1871,-1.2428,1.0279,-3.7104285000000004,-0.6497097,10.816668,-1
860,861,1580727219243,-3.7640998,-1.1843,0.7209,-3.1819801,-0.28671044,10.239742,-1
861,862,1580727219253,-3.2835998999999996,-0.86579996,0.1638,-2.6046902999999997,0.41266462,9.702558999999999,-1
862,863,1580727219264,-2.7445,-0.3733,-0.6441,-2.006025,1.0026245999999999,8.180144,-1
863,864,1580727219274,-2.3892,-0.27719998,-2.1252,-1.798189,1.1609197,7.050273,-1
864,865,1580727219284,-2.1987997999999997,-0.39479998,-3.2217,-1.7904509999999998,1.0132165000000002,6.138896,-1
865,866,1580727219294,-2.596,-0.96269995,-3.5339,-2.6226947,0.41808507,5.9764349999999995,-1
866,867,1580727219304,-3.5156,-1.7357,-3.8177998,-3.1987588,-0.058801595,5.6115108,-1
867,868,1580727219315,-4.036299700000001,-2.4041997999999998,-4.1717,-3.730396,-0.5294441999999999,5.1680856,-1
868,869,1580727219325,-4.3141,-2.6822,-4.5965,-3.6920984,-0.4521019,4.7723236,-1
869,870,1580727219335,-3.9022,-2.6107,-4.8767,-3.0478091,-0.22403982,4.7067614,-1
870,871,1580727219345,-2.9731998,-2.3121,-4.6577,-1.5565280000000001,0.39833772,5.0038815,-1
871,872,1580727219356,-1.4144,-1.8226999,-4.3789,-0.115783595,0.9183486999999999,5.227653500000001,-1
872,873,1580727219366,0.355,-1.1776,-4.0783,2.0256767,1.6357761999999998,5.434799,-1
873,874,1580727219376,1.4834,-0.9974,-3.9812,2.1384625,1.613941,5.479101999999999,-1
874,875,1580727219386,1.3694998999999999,-1.1467999,-3.9304997999999998,1.566009,1.3823738,5.411968,-1
875,876,1580727219396,0.7102,-1.5565,-4.0144,0.929793,0.8775228,5.047427,-1
876,877,1580727219407,0.0405,-2.2024999,-4.3718,0.19424637,0.30615136,4.759548000000001,-1
877,878,1580727219417,-1.0436,-3.0774,-4.6628,-1.4965676,-0.80592656,4.200263,-1
878,879,1580727219427,-2.4803998,-4.0878,-5.232599700000001,-2.6571233,-1.4059806000000001,3.2988748999999995,-1
879,880,1580727219437,-3.5086,-4.676,-6.0997996,-2.916473,-1.5763328,2.8063203999999997,-1
880,881,1580727219447,-3.3235997999999998,-4.7517,-6.4695,-1.6142378000000002,-0.98518527,2.938902,-1
881,882,1580727219458,-2.0284,-4.1530000000000005,-6.216,-0.1852729,-0.17916289999999999,3.0755242999999997,-1
882,883,1580727219467,-0.68979996,-3.3888,-6.1450996,0.8732803,0.34863406,2.977573,-1
883,884,1580727219477,0.2768,-2.9664,-6.1414,1.1356178999999997,0.5966829,3.5238435,-1
884,885,1580727219488,0.42209998,-2.6864,-5.2061,1.1236372,0.84000087,4.856389,-1
885,886,1580727219498,0.4059,-2.4573998,-4.1796,0.94431144,1.0270455,6.04194,-1
886,887,1580727219508,0.2402,-2.2605999,-3.1845999,0.7564911,1.0391697,6.9175477,-1
887,888,1580727219519,0.0175,-2.1913,-2.1202,0.61971515,1.224682,7.994805,-1
888,889,1580727219529,-0.0004,-1.8077999,-0.7136,0.7219093000000001,1.3971795,8.534419,-1
889,890,1580727219539,0.4799,-1.5130000000000001,-0.7703,1.2262048,1.6855851000000002,8.47625,-1
890,891,1580727219549,0.4799,-1.5130000000000001,-0.7703,1.7697939999999999,2.0543497,8.235345,-1
891,892,1580727219561,1.2327,-1.0540999,-1.4603,2.041507,2.1742418,7.779145,-1
892,893,1580727219571,1.2327,-1.0540999,-1.4603,2.2365196,2.2315204,7.679105,-1
893,894,1580727219581,1.1748999,-0.92829996,-1.1278,1.9629101999999998,2.3329772999999996,8.176084,-1
894,895,1580727219591,0.7366,-1.0231,-0.66929996,1.5117085,2.2521584,8.593555,-1
895,896,1580727219601,0.2592,-1.0167,-0.38939998,1.0637726,2.2926302000000005,8.858642,-1
896,897,1580727219611,-0.064899996,-0.95089996,-0.30629998,0.70650977,2.4025432999999996,8.875143,-1
897,898,1580727219622,-0.2543,-0.8303,-0.4373,0.64159817,2.5075338,8.760355,-1
898,899,1580727219632,-0.1548,-0.6554,-0.93869996,0.7693336,2.737348,8.137585000000001,-1
899,900,1580727219642,-0.045199998,-0.50879997,-1.2149999,0.9482761999999999,2.9557857999999997,8.083026,-1
900,901,1580727219652,0.2227,-0.2669,-0.84669995,1.1895926000000001,3.1647804,8.45882,-1
901,902,1580727219663,0.4263,-0.0867,-0.52059996,1.3184295,3.3521697999999995,8.791499,-1
902,903,1580727219673,0.2904,-0.050499998,-0.1469,1.1038803,3.3536735,9.132635,-1
903,904,1580727219683,0.024,0.0321,-0.017199999,0.856224,3.5417235000000002,9.03996,-1
904,905,1580727219694,-0.11,0.2555,-0.3946,0.80953705,3.686956,8.536038000000001,-1
905,906,1580727219704,-0.0717,0.27879998,-1.0152,0.9770257999999999,3.7128608,7.813793700000001,-1
906,907,1580727219714,0.111899994,0.3129,-1.4595,1.1134761999999998,3.8563695,7.677343,-1
907,908,1580727219724,0.1873,0.4421,-1.357,1.1188966,3.898986,8.020576,d
908,909,1580727219735,0.066599995,0.42200000000000004,-0.9632,0.9264124,3.898421,8.422504,-1
909,910,1580727219744,-0.1352,0.5024,-0.5798,0.7658093,4.008708,8.694189,-1
910,911,1580727219754,-0.2713,0.5925,-0.4118,0.5658169,3.9644053,8.926695,-1
911,912,1580727219764,-0.5726,0.4764,-0.087,0.26392722,3.774976,9.196397,-1
912,913,1580727219774,-0.8257,0.28039998,0.062,0.27414566,3.6686926,9.074973,-1
913,914,1580727219785,-0.695,0.19579999,-0.1679,0.49189353,3.6104559999999997,8.877172,-1
914,915,1580727219795,-0.3663,0.088199995,-0.26819998,0.9719693000000001,3.6044612000000003,8.905261999999999,-1
915,916,1580727219805,0.0277,0.2368,-0.1918,1.6030712999999999,3.9394864999999997,8.865787,-1
916,917,1580727219816,0.81479996,0.6038,-0.2537,2.7141054000000002,4.307265,9.0057125,-1
917,918,1580727219826,1.6351,0.87689996,-0.072299995,2.9708786,4.4594307,9.220922,-1
918,919,1580727219836,1.7247,0.98539996,0.1664,2.9542055,4.460829,9.515533999999999,-1
919,920,1580727219846,1.7335,0.97599995,0.47439998,3.4242065000000004,4.496876,9.751248,-1
920,921,1580727219856,2.2723,1.0632,0.6738,4.195714,4.6984005,9.990717,-1
921,922,1580727219867,3.0748,1.2481999,0.99109995,5.1833315,4.8835397,10.301167999999999,-1
922,923,1580727219877,4.0611997,1.4245,1.2481999,6.3586645,4.8458834,10.458869,-1
923,924,1580727219887,5.0243998,1.3726,1.3779,7.320386999999999,4.852491400000001,10.244808,-1
924,925,1580727219897,5.99,1.3643,1.1563,8.605537,4.698975,10.181151,-1
925,926,1580727219907,7.2556996,1.1931,1.1141,9.886032,4.3307853,10.116392,-1
926,927,1580727219918,8.5224,0.80969995,1.056,11.036849,4.1274505,9.908413000000001,-1
927,928,1580727219928,9.9484,0.518,0.9036,12.641442,3.7701495,10.798587,-1
928,929,1580727219939,12.0166,-0.0857,2.8987,13.436912,3.5106564,11.929339,-1
929,930,1580727219949,12.0166,-0.0857,2.8987,13.615892,3.1545331,12.621273,-1
930,931,1580727219958,12.2007,-0.45589998,3.5990998999999997,13.414147,2.6206164,12.356914999999999,-1
931,932,1580727219968,12.0522995,-1.0192,3.3365998,13.196121,2.049274,11.734672,-1
932,933,1580727219978,11.8063,-1.7628,1.3824999,12.512777999999999,1.3513162,10.390155,-1
933,934,1580727219988,11.0487995,-2.7954,0.45,12.19457,1.0036684999999999,9.441132000000001,-1
934,935,1580727219999,11.0487995,-2.7954,0.45,12.111414,0.5793585,8.844507,-1
935,936,1580727220009,10.746099000000001,-3.6596,-0.8003,11.773717,0.29275343,8.126323,-1
936,937,1580727220019,9.906099000000001,-4.1366,-1.7694999,10.644602,-0.21350533,6.8370934000000005,-1
937,938,1580727220029,8.7116995,-4.7665997,-3.1432,9.293076,-0.78845847,5.5211153,-1
938,939,1580727220039,7.0688,-5.4035,-3.9152,7.4432855,-1.3422086000000002,4.8337975,-1
939,940,1580727220050,7.0688,-5.4035,-3.9152,5.7178903,-1.7893306,4.4958224,-1
940,941,1580727220060,3.0054,-6.6541996,-4.8703,3.5274637,-2.3931482,3.9542252999999996,-1
941,942,1580727220070,1.2074,-6.9393,-6.053999999999999,1.5949214,-2.6349914,2.7487447,-1
942,943,1580727220080,0.31759998,-6.6527996,-8.123799,0.59815776,-2.2995732,0.66396004,-1
943,944,1580727220090,0.1938,-6.4124,-9.2906,0.38564843,-2.018264,-0.5417695,-1
944,945,1580727220100,0.1938,-6.4124,-9.2906,-0.24968651,-1.981652,-1.5751166,-1
945,946,1580727220111,-1.5709,-6.5281997,-10.3428,-1.8922526000000002,-2.1852642999999996,-1.4979466000000001,-1
946,947,1580727220121,-3.4029998999999997,-6.8079996,-9.977099,-3.9439108,-2.470079,-1.1913356000000002,-1
947,948,1580727220131,-5.7984,-6.9925,-10.4321995,-6.50314,-2.7085220000000003,-1.9283284,-1
948,949,1580727220141,-7.8922,-7.0383997,-11.9165,-8.761514,-2.7448852,-3.6280296,-1
949,950,1580727220151,-7.8922,-7.0383997,-11.9165,-9.600767,-2.8070867,-4.622188599999999,-1
950,951,1580727220162,-9.9703,-7.1190996,-14.3771,-10.754457,-2.973129,-5.537252400000001,-1
951,952,1580727220172,-11.228399000000001,-7.3764,-13.972098999999998,-11.840946,-3.4649080000000003,-4.807298,-1
952,953,1580727220182,-12.796499,-8.468699,-12.4164,-13.894960000000001,-5.0850067,-2.7032356,-1
953,954,1580727220192,-15.012,-9.853399000000001,-10.5819,-16.285265,-6.700297999999999,-0.82044506,-1
954,955,1580727220202,-17.4322,-11.251599,-8.8758,-18.539663,-8.114467,0.8592120000000001,-1
955,956,1580727220213,-19.301699,-11.9562,-7.5281997,-20.06,-8.632705999999999,2.2597241,-1
956,957,1580727220223,-20.180899,-11.826699000000001,-5.8680997,-20.491695,-8.685953,3.8795934,-1
957,958,1580727220233,-20.3004,-11.6115,-3.3242998,-20.464389999999998,-8.622162,7.176083599999999,-1
958,959,1580727220243,-20.091798999999998,-10.9093,-0.765,-20.160788,-7.947246000000001,9.5025,-1
959,960,1580727220253,-19.8302,-10.0624,0.82199997,-19.5757,-7.522734599999999,10.670402000000001,-1
960,961,1580727220263,-18.427599,-9.4164,1.3316,-17.508654,-6.946718700000001,10.976888,-1
961,962,1580727220274,-16.131899,-8.4831,1.734,-15.4055395,-6.4273777,11.869685,-1
962,963,1580727220283,-14.8659,-8.0678,3.1527998,-14.501104999999999,-6.376046,13.164317,-1
963,964,1580727220293,-14.022599,-7.923899700000001,4.9976997,-13.568918,-6.4567885,15.462492000000001,-1
964,965,1580727220303,-13.6359,-7.6088996,6.836899799999999,-12.928469,-6.399615,17.362732,-1
965,966,1580727220313,-12.4597,-7.2117996,8.7212,-11.675976,-6.069799400000001,19.176004000000002,-1
966,967,1580727220323,-11.391399,-6.4628997,10.2992,-10.335358,-5.5435247,20.691103,-1
967,968,1580727220333,-10.0734,-5.9144998,10.845099000000001,-9.376163499999999,-5.422742400000001,20.462294,-1
968,969,1580727220343,-8.456699,-5.6709,9.6215,-7.534859,-5.527972,18.981958,-1
969,970,1580727220353,-7.1099,-5.9674,8.5093,-6.1329199999999995,-6.329780599999999,17.390276,-1
970,971,1580727220364,-6.0400996,-6.5318,7.1057,-5.0232553,-6.898998,16.902134,-1
971,972,1580727220374,-4.7942,-6.8954,7.5678997,-3.6683862,-7.429715,18.591225,-1
972,973,1580727220384,-3.3530998,-7.1053,9.8573,-2.1681507,-7.330605,21.519476,-1
973,974,1580727220394,-1.3795998999999999,-6.410599700000001,12.936,0.46213838,-6.4133096,24.210255,-1
974,975,1580727220404,1.6301,-4.976,15.0099,3.1806011,-4.8900995,24.761965,-1
975,976,1580727220414,3.99,-3.4127,14.339298999999999,4.239959,-4.184691,22.465206,-1
976,977,1580727220424,4.4364,-3.2405,11.254499000000001,3.7231753,-5.049352,18.002674,-1
977,978,1580727220435,3.6562,-4.5881,5.9529,2.8816805,-6.707853999999999,12.8499775,-1
978,979,1580727220445,3.2661,-6.1759996,2.1095998,3.682493,-7.5834136,11.8745985,-1
979,980,1580727220455,4.9128,-6.2177997000000005,3.0444,6.0978017,-6.6670283999999995,14.935863500000002,-1
980,981,1580727220465,7.7802,-4.9899,7.0259,9.680226,-5.3263135,20.178946,-1
981,982,1580727220475,10.722799,-3.7593,11.0352,11.500624,-4.261028,21.339855,-1
982,983,1580727220486,12.8144,-2.3641999,11.273,12.942834,-3.2783036,19.727715,-1
983,984,1580727220496,14.126598999999999,-1.4624,9.097799,14.437103,-2.222844,17.165516,-1
984,985,1580727220506,15.698298999999999,-0.45229998,7.192199700000001,16.824254999999997,-0.7701668,15.624310999999999,-1
985,986,1580727220516,18.2804,1.1312,5.5445,19.098059,0.5533575,12.579174,-1
986,987,1580727220526,20.567999,2.0860999,2.2137,20.155634,0.28951645,9.571242,-1
987,988,1580727220537,21.0937,1.6015999,-0.65139997,18.329569,-0.7856141999999999,7.345028,-1
988,989,1580727220547,18.916,0.3189,-2.4713,16.075101999999998,-2.3546492999999997,7.688596,-1
989,990,1580727220557,16.7903,-1.1504999,-1.594,14.502513,-3.3628957,10.298169999999999,-1
990,991,1580727220567,15.5112,-1.9051,0.6415,14.098678,-3.7590597000000003,11.401275,-1
991,992,1580727220578,15.114598999999998,-2.3016,1.9223,15.310757,-3.7237592000000004,12.175397,-1
992,993,1580727220588,16.7995,-2.0047,2.6968,18.500695999999998,-2.6176093,12.883161999999999,-1
993,994,1580727220598,19.480099,-0.9888,3.2554,19.652784,-2.0841813,12.072409,-1
994,995,1580727220608,20.6335,-0.41259998,2.4473,19.057472,-2.4992592,10.438048,-1
995,996,1580727220618,20.009498999999998,-0.80789995,0.8099,16.97379,-3.5053699999999997,9.467141999999999,-1
996,997,1580727220629,17.8717,-1.8215,-0.1655,14.316091,-4.643267,9.443517,-1
997,998,1580727220639,12.7227,-3.784,-0.1977,12.015367999999999,-5.495353700000001,9.448717,-1
998,999,1580727220649,12.7227,-3.784,-0.1977,10.524125,-5.9714837,9.058854,-1
999,1000,1580727220659,10.4374,-4.3385,-1.3604,9.887967,-6.06865,8.129474,-1
1000,1001,1580727220670,10.2794,-4.4191,-1.8495,9.813047000000001,-6.191798,7.799045,-1
1001,1002,1580727220680,10.0709,-4.2478,-1.9445,9.673772,-6.05032,7.694197999999999,-1
1002,1003,1580727220690,9.941,-4.1138,-1.6172,9.538949,-5.9327555,8.017291,-1
1003,1004,1580727220701,8.7593,-4.2162,-1.6229,7.661072,-6.3581567,8.091175999999999,-1
1004,1005,1580727220711,6.2555,-4.8894,-1.3242999,5.628519,-6.9235716,8.390336,-1
1005,1006,1580727220721,3.7143,-5.3389997000000005,-0.8874,3.3510494,-7.3262186,8.800559,-1
1006,1007,1580727220732,1.7953,-5.699,-0.45799997,1.6356516,-7.7801023,9.282167,-1
1007,1008,1580727220742,-0.1138,-6.2078,0.259,-0.6455438,-8.326947,10.144127000000001,-1
1008,1009,1580727220752,-2.2159998,-6.3581,0.8706,-2.5489533,-8.456043,10.64373,-1
1009,1010,1580727220762,-3.9127,-6.3973,1.327,-3.7060517999999996,-8.476901,10.959812,-1
1010,1011,1580727220772,-5.0772,-5.9161,1.5289999,-4.566489700000001,-7.668082000000001,11.164651,-1
1011,1012,1580727220783,-4.9767,-4.7605,1.8878,-4.1807737000000005,-6.562382,11.468005999999999,-1
1012,1013,1580727220793,-5.0227,-3.8658,1.9813,-4.691811599999999,-5.9853510000000005,11.512863000000001,-1
1013,1014,1580727220803,-6.3307,-3.8344998,1.9461998999999999,-6.1502924000000005,-6.2810445,11.363619,-1
1014,1015,1580727220814,-7.8415,-4.2834997,1.5376999,-7.753593400000001,-6.9563913,10.712473,-1
1015,1016,1580727220824,-9.2392,-4.9014,1.1779,-9.17483,-7.533442,10.900771,-1
1016,1017,1580727220834,-10.7439995,-5.3205,1.6335,-10.069409,-7.623799000000001,11.587467,-1
1017,1018,1580727220844,-11.166699000000001,-5.0653,2.4922,-9.633138,-6.9721836999999995,12.292539999999999,-1
1018,1019,1580727220854,-10.4606,-4.2469,2.7814,-8.577323,-6.009293,11.822224,-1
1019,1020,1580727220865,-9.4422,-3.2389997999999998,2.0572999,-7.2210464000000005,-5.044612,11.0838995,-1
1020,1021,1580727220875,-8.3024,-2.5449,1.6441,-6.196749700000001,-4.5461392,11.076046,-1
1021,1022,1580727220885,-7.4574,-2.0727,1.6608,-5.8232349999999995,-4.3130207,10.929789,-1
1022,1023,1580727220895,-7.1411,-1.8958,1.5188,-5.65612,-4.475423999999999,11.149127,-1
1023,1024,1580727220905,-7.0796,-2.1358,1.7874,-5.9138603,-4.7539267999999995,11.088946,-1
1024,1025,1580727220916,-7.4940996,-2.4336998,1.5349,-6.193023999999999,-5.0636883,10.68852,-1
1025,1026,1580727220926,-7.5867996,-2.7698998,1.1920998999999999,-5.744763,-5.172318499999999,10.422697,-1
1026,1027,1580727220936,-7.0817,-2.7368,0.9762,-4.902607,-4.800528,10.349713000000001,-1
1027,1028,1580727220946,-6.178,-2.3694,0.9949,-4.0286083,-4.4631467,10.660652,-1
1028,1029,1580727220957,-5.4087,-2.0168,1.2874,-3.492039,-3.9795847,10.698691,-1
1029,1030,1580727220967,-4.8577,-1.564,1.2344998999999999,-2.7399244,-3.5607622,10.311808000000001,-1
1030,1031,1580727220977,-4.2029,-1.2195,0.8849,-2.2284656000000003,-3.3075227999999997,9.893502,-1
1031,1032,1580727220987,-3.5379,-0.9449,0.3275,-1.8122383000000002,-3.1861749,9.244606,-1
1032,1033,1580727220998,-3.102,-0.8375,-0.2993,-1.3331202,-3.1370842,8.801899,-1
1033,1034,1580727221008,-2.5456998,-0.8361,-0.71989995,-0.81763905,-3.1506352000000004,8.436199,-1
1034,1035,1580727221018,-2.0370998,-0.86039996,-1.0806999,-0.60357827,-3.2402456,8.219237,-1
1035,1036,1580727221028,-1.6157,-0.8817,-1.2386999,-0.43611819999999996,-3.1922178,8.230921,-1
1036,1037,1580727221038,-1.4621998999999999,-0.70419997,-0.49519998,-0.33203748,-3.0372458,8.966812,-1
1037,1038,1580727221049,-1.4621998999999999,-0.70419997,-0.49519998,-0.44665268,-2.7901359,10.000944,-1
1038,1039,1580727221059,-1.5101,-0.4288,0.5349,-0.402427,-2.6723697,10.482667,-1
1039,1040,1580727221070,-1.2430999,-0.275,1.0145,-0.31292215,-2.699922,10.485119000000001,-1
1040,1041,1580727221079,-0.7998,-0.18339999,0.49139997,0.08397902,-2.6165175,9.968795,-1
1041,1042,1580727221090,0.0762,-0.0844,-0.4258,1.0088112,-2.4831223,8.898788,-1
1042,1043,1580727221100,0.7341,0.1467,-0.94089997,1.6075053,-2.2483757,8.537493,-1
1043,1044,1580727221110,1.1323,0.3311,-0.67939997,1.866443,-2.074614,8.910252,d
1044,1045,1580727221120,0.9195,0.3721,-0.102,1.4902468999999998,-2.0828214,9.501486,-1
1045,1046,1580727221130,0.2164,0.2075,0.3486,0.73775893,-2.262626,9.893742,-1
1046,1047,1580727221141,-0.6005,0.00029999999,0.5439,-0.046773124000000006,-2.4788799999999998,10.019006,-1
1047,1048,1580727221151,-1.2630999,-0.29,0.4734,-0.7450277,-2.7638185,9.951194000000001,-1
1048,1049,1580727221161,-1.8461,-0.4473,0.2351,-1.2362412,-2.8603816,9.631423,-1
1049,1050,1580727221172,-1.7966,-0.45029998,-0.3375,-0.8920604,-2.7995975,8.931416,-1
1050,1051,1580727221182,-1.0674,-0.2961,-0.84169996,-0.14251247,-2.5782967,8.590482000000002,-1
1051,1052,1580727221192,-0.3779,-0.019399998999999998,-0.91319996,0.47794970000000003,-2.326896,8.670458,-1
1052,1053,1580727221202,0.105,0.118599996,-0.649,0.86292773,-2.2458763,9.081714999999999,-1
1053,1054,1580727221212,0.26209998,0.1865,0.1273,0.79587096,-2.2116487,10.0698395,-1
1054,1055,1580727221223,-0.1169,0.071899995,1.1306,0.15992309,-2.3992105,10.927078999999999,-1
1055,1056,1580727221233,-1.0136,-0.1259,1.7212,-0.8606676,-2.6776847999999998,11.279821,-1
1056,1057,1580727221243,-1.6989,-0.36339998,1.6919,-1.3148764,-2.8303583,10.890381,-1
1057,1058,1580727221253,-1.9812,-0.4732,1.1795,-1.3698089,-2.9242587,10.500575999999999,-1
1058,1059,1580727221263,-1.8744999,-0.58529997,0.8132,-1.0447339,-3.0057862,10.260619,-1
1059,1060,1580727221274,-1.4817,-0.6229,0.8104,-0.6829795,-3.0010746,10.471511,-1
1060,1061,1580727221284,-1.0301,-0.60319996,1.3191,-0.26489446,-2.9996857999999995,11.20836,-1
1061,1062,1580727221294,-0.8182,-0.6475,1.8973,-0.41243476,-3.1544182000000003,11.718439,-1
1062,1063,1580727221304,-1.1644,-0.8508,2.3474998,-1.0968125,-3.3238702000000004,11.973192,-1
1063,1064,1580727221314,-1.9365,-0.99369997,2.4626,-1.8681763,-3.4721,11.855359,-1
1064,1065,1580727221325,-2.6004,-1.1388999,2.2417,-2.3513167,-3.547297,11.559762,-1
1065,1066,1580727221335,-2.9483,-1.2545998999999999,1.9209,-2.54586,-3.589071,11.356063,-1
1066,1067,1580727221345,-3.0925999,-1.3058,1.9326999,-2.4570157999999998,-3.5762384,11.592533,-1
1067,1068,1580727221355,-2.7953,-1.2986,2.2582998,-2.4070537,-3.5126195,12.155773,-1
1068,1069,1580727221365,-3.0936,-1.2322999,2.8781,-2.8951547000000004,-3.428861,12.707771000000001,-1
1069,1070,1580727221376,-3.4612,-1.1854,3.2721,-3.0117428,-3.3686035000000003,12.946549000000001,-1
1070,1071,1580727221386,-3.3881,-1.1180999,3.4006998999999998,-2.845164,-3.100788,12.951913000000001,-1
1071,1072,1580727221397,-3.2185,-0.9134,3.3621,-2.6994145,-2.9242015,12.91646,-1
1072,1073,1580727221407,-3.0073,-0.7884,3.3232,-2.8366694,-2.8789412999999997,12.987884,-1
1073,1074,1580727221417,-3.1559,-0.7847,3.4605,-3.2666202,-2.7044040000000003,13.725479,-1
1074,1075,1580727221427,-3.4659998,-0.66899997,4.1268,-3.5585307999999998,-2.5499685000000003,14.497303,-1
1075,1076,1580727221437,-3.7759,-0.48279998,5.0646,-3.9875907999999995,-2.0196528000000002,15.189563,-1
1076,1077,1580727221448,-4.1222997,0.0169,5.5836,-4.304266999999999,-1.7757603,14.572299,-1
1077,1078,1580727221458,-4.2857,0.072399996,4.9298997,-4.101344,-1.7853561999999998,13.112497,-1
1078,1079,1580727221468,-3.9882998,-0.039899997,3.4501998,-3.2600024,-1.6562991999999999,12.125214,-1
1079,1080,1580727221478,-3.0579998,-0.0145,2.4515998,-2.1818936,-1.2155553,12.166250999999999,-1
1080,1081,1580727221489,-1.8707,0.30879998,2.4758,-1.1910195,-0.6607231,12.896827,-1
1081,1082,1580727221498,-0.7897,0.7678,3.1899998,-0.55620176,-0.20970334,13.610788000000001,-1
1082,1083,1580727221509,-0.051099997,1.1221,3.8969,-0.38817670000000004,-0.0014173675,13.750829000000001,-1
1083,1084,1580727221519,0.2193,1.2116,3.5957,-0.47882120000000006,0.13185348,13.326673000000001,-1
1084,1085,1580727221529,0.25959998,1.0781,3.2728999,-0.48861825,0.11684662,12.993734,-1
1085,1086,1580727221539,0.3865,0.8638,3.2733,-0.42166679999999995,0.06353254,13.022378999999999,-1
1086,1087,1580727221550,0.59529996,0.64489996,3.165,-0.18910362,-0.057566185,12.874398,-1
1087,1088,1580727221560,0.84959996,0.32259998,2.8116,0.112182714,-0.13652696,12.468409,-1
1088,1089,1580727221570,1.3356,0.0981,2.2735,0.68894595,-0.21325633,11.917857000000001,-1
1089,1090,1580727221580,2.0305998,0.14400000000000002,1.5324,1.3945937,0.17719966,11.16422,-1
1090,1091,1580727221591,2.5791,0.39899999999999997,1.0403,1.8267089,0.49042827,10.823093,-1
1091,1092,1580727221601,2.7828,0.6271,0.7579,2.0672495,0.9754457000000001,10.483711,-1
1092,1093,1580727221612,2.9403,0.6834,0.5281,2.2004533,1.1054507,10.307862,-1
1093,1094,1580727221622,2.9284,0.5164,0.36929998,2.18808,1.1068394,10.055810000000001,-1
1094,1095,1580727221632,3.1323,0.46269998,-0.1601,2.4913967,1.1744708000000001,9.385672999999999,-1
1095,1096,1580727221642,3.3251,0.28329998,-0.5905,2.5744755,1.1371597,9.160531,-1
1096,1097,1580727221652,3.3560998,0.1274,-0.5595,2.6342156,1.1139168,9.311414,-1
1097,1098,1580727221663,3.3464,-0.0512,-0.23399999999999999,2.5802886000000003,0.9936895,9.61248,-1
1098,1099,1580727221673,3.2199,-0.2908,-0.064399995,2.5605602000000003,0.87444866,9.6546955,-1
1099,1100,1580727221683,3.2623,-0.4533,-0.0799,2.607439,0.9516377,9.5783205,-1
1100,1101,1580727221693,3.2633997999999997,-0.42999998,-0.1629,2.5491639999999998,1.0344484,9.424583,-1
1101,1102,1580727221703,3.0660000000000003,-0.63379997,-0.5782,2.2263298,0.8238448,8.888532000000001,-1
1102,1103,1580727221713,2.6943998,-0.99759996,-1.1006,1.8856732,0.601117,8.4305105,-1
1103,1104,1580727221724,2.3578,-1.2761999,-1.7307999,1.547564,0.41842026,7.7877827,-1
1104,1105,1580727221734,2.0442,-1.5593,-2.2144,1.0181295,0.12016019,7.2263713,-1
1105,1106,1580727221744,1.6949999,-1.8089,-2.4641,0.81340605,0.009356541,7.148971,-1
1106,1107,1580727221754,1.5243,-1.9848,-2.3332999,0.8306635,-0.13322297,7.4083686,-1
1107,1108,1580727221764,1.831,-2.1258,-2.0571,1.3824408000000001,-0.05894524599999999,7.669873,-1
1108,1109,1580727221774,2.2645,-2.0542,-1.8112999,1.5262749,-0.0014556745999999999,7.833014,-1
1109,1110,1580727221785,2.1555998,-2.0698,-1.6740999,1.2588808999999999,0.080655865,7.9427259999999995,-1
1110,1111,1580727221794,1.9850999,-1.9792,-1.5273,1.209589,0.38403952,8.06211,-1
1111,1112,1580727221805,1.9769,-1.68,-1.5570998999999999,1.0886052,0.56998277,7.854255,-1
1112,1113,1580727221815,1.6798999,-1.6999999,-2.0565,0.6740348,0.4653945,7.1383505000000005,-1
1113,1114,1580727221825,1.4226999,-1.8377999,-2.4765,0.57656205,0.3830627,6.9441524,-1
1114,1115,1580727221835,1.3033,-2.0140998,-2.5827,0.32267135,0.20455101,6.843586,-1
1115,1116,1580727221846,0.99579996,-2.2156,-2.6691,0.16624379,0.10411904,6.814932300000001,-1
1116,1117,1580727221856,0.7633,-2.4245,-2.6673,0.08976341,0.028720845,6.8346796,-1
1117,1118,1580727221866,0.7298,-2.3787,-2.5684,0.25807577,0.47225150000000005,7.260215299999999,-1
1118,1119,1580727221876,0.90629995,-1.9945998999999999,-2.089,0.28530264,0.7205876999999999,7.838741000000001,-1
1119,1120,1580727221887,0.8314,-1.8433,-1.5230000000000001,-0.22726719,0.5579735,8.051652,-1
1120,1121,1580727221897,0.27109998,-2.1009998,-1.4175999,-0.85585046,0.30512664,7.916246000000001,-1
1121,1122,1580727221907,-0.2777,-2.3242,-1.5265,-1.2849488000000002,0.23182575,7.948730499999999,-1
1122,1123,1580727221917,-0.6803,-2.4273999,-1.5162,-1.5874419,0.23615448,7.638145,-1
1123,1124,1580727221927,-0.9446,-2.4398,-1.8671999,-1.6043353999999999,0.27982470000000004,7.37304,-1
1124,1125,1580727221939,-0.7929999999999999,-2.3479,-2.2958,-1.1221145000000001,0.71698684,7.0254974,-1
1125,1126,1580727221949,-0.35369998,-1.9807999,-2.3227,-0.4384741,1.0873315000000001,7.5881257,-1
1126,1127,1580727221959,0.2087,-1.7358999,-1.7923,-0.0316705,1.4530602,8.0534725,-1
1127,1128,1580727221969,0.6538,-1.0992,-0.93119997,-0.009011775,1.8073541000000002,8.491677000000001,-1
1128,1129,1580727221980,0.3733,-1.0665,-0.8732,-0.35503137,1.8505455000000002,8.415293,-1
1129,1130,1580727221990,-0.021699998999999998,-1.048,-1.2253,-0.7650528,1.8926740000000002,8.041942,-1
1130,1131,1580727222000,-0.4041,-1.0646,-1.5367998999999999,-1.143327,1.9132448,7.771540600000001,-1
1131,1132,1580727222010,-0.6879,-1.0447,-1.5340999,-1.3660549,1.9663388,7.792953999999999,-1
1132,1133,1580727222021,-0.6879,-1.0447,-1.5340999,-1.4058846999999999,2.0241826,7.941031,-1
1133,1134,1580727222031,-0.5467,-0.7773,-1.3829,-1.1362115,2.3640444,7.9112663,-1
1134,1135,1580727222041,-0.1717,-0.625,-1.3132,-0.74730694,2.5521138,8.023516,-1
1135,1136,1580727222051,0.2554,-0.3698,-1.0584999,-0.26863899999999996,2.881374,8.283842,-1
1136,1137,1580727222061,0.5405,-0.1795,-0.8438,-0.09119993,3.0294025,8.472247,-1
1137,1138,1580727222072,0.5405,-0.1795,-0.8438,-0.13493721,3.0043688,8.495595,-1
1138,1139,1580727222082,0.49989998,-0.3144,-1.0716,-0.17548542,2.9045305,8.136513,-1
1139,1140,1580727222092,0.3622,-0.3879,-1.1603999,-0.4746361,2.8769397999999997,8.110761,-1
1140,1141,1580727222102,-0.0535,-0.392,-1.0928,-0.8486007999999999,2.9031133999999996,8.187998,-1
1141,1142,1580727222112,-0.3154,-0.4052,-0.92749995,-1.0754945,2.9352913,8.369842,-1
1142,1143,1580727222123,-0.44509998,-0.2619,-0.75259995,-1.0922348,3.1131136,8.516653999999999,-1
1143,1144,1580727222133,-0.2501,-0.1414,-0.6849,-0.80335045,3.2318084,8.495738000000001,-1
1144,1145,1580727222143,0.0075999996999999994,-0.0924,-0.74399996,-0.5316085,3.3374309999999996,8.392482000000001,-1
1145,1146,1580727222154,0.13859999,-0.033099998,-0.8619,-0.4941728,3.4140358,8.259267999999999,-1
1146,1147,1580727222163,0.1556,-0.0008,-0.951,-0.45813528,3.4417991999999997,8.244108,-1
1147,1148,1580727222173,0.2166,0.0262,-0.8452,-0.38988137,3.4993269999999996,8.33142,-1
1148,1149,1580727222183,0.13599999,0.0664,-0.8677,-0.57285583,3.5184326,8.236476,-1
1149,1150,1580727222193,-0.057999999999999996,-0.057699997,-0.99869996,-0.7314957,3.3695898,8.049134,-1
1150,1151,1580727222204,-0.20199999,-0.1899,-1.2380999,-0.8839776,3.2946226999999997,7.862395299999999,-1
1151,1152,1580727222213,-0.3294,-0.24129999,-1.2727,-1.0603536,3.2100787,8.010626,-1
1152,1153,1580727222223,-0.5582,-0.348,-1.0342,-1.2922657,3.1864142,8.239808,-1
1153,1154,1580727222233,-0.78999996,-0.28489998,-0.6501,-1.3940191000000002,3.3116024,8.730580999999999,-1
1154,1155,1580727222244,-0.6940000000000001,-0.152,-0.0607,-1.0833476,3.4646491999999998,9.351579,-1
1155,1156,1580727222254,-0.369,0.0071,0.294,-0.7602835,3.643477,9.407289,-1
1156,1157,1580727222264,-0.0374,0.1314,0.23879999,-0.3643113,3.7534282,9.3491955,-1
1157,1158,1580727222274,0.2755,0.243,0.1556,-0.19819202,3.867354,9.1676,-1
1158,1159,1580727222285,0.30879998,0.2753,-0.0937,-0.20949264,3.8429906000000003,8.922922,-1
1159,1160,1580727222295,0.3861,0.2104,-0.294,0.0253115,3.8469074,8.887717,-1
1160,1161,1580727222305,0.5927,0.27519998,-0.1322,0.08883446,3.9940457,9.193208,-1
1161,1162,1580727222315,0.54829997,0.3821,0.1169,-0.08337568,4.028014,9.283928999999999,-1
1162,1163,1580727222326,0.28329998,0.3426,0.1994,-0.37766138,3.9327254000000003,9.343717,-1
1163,1164,1580727222336,0.0482,0.2617,0.2435,-0.51106626,3.8970902,9.253062,-1
1164,1165,1580727222346,-0.026099999,0.22459999,0.1227,-0.48795745,3.8376083,9.056681,-1
1165,1166,1580727222358,0.028299998,0.1423,-0.0548,-0.32083259999999997,3.8530655,8.990065,-1
1166,1167,1580727222366,0.16489999,0.145,-0.1038,-0.21448216,3.906073,8.874463,-1
1167,1168,1580727222376,0.24149999,0.16699999999999998,-0.2016,-0.054683565999999996,3.88555,8.744994,-1
1168,1169,1580727222386,0.41329998,0.1344,-0.3595,0.16146496,3.9702473,8.595414,-1
1169,1170,1580727222397,0.5854,0.2067,-0.46089998,0.30480102,4.1161213,8.672345,-1
1170,1171,1580727222407,0.7159,0.33499998,-0.359,0.31704977,4.139096,8.845752000000001,-1
1171,1172,1580727222417,0.723,0.33089998,-0.151,0.19161275,4.1513257,9.03091,-1
1172,1173,1580727222427,0.6143,0.3487,-0.0223,0.12805149,4.122278700000001,9.038695,-1
1173,1174,1580727222437,0.5546,0.3168,-0.0111,-0.024976312999999997,3.9809157999999996,9.037872,-1
1174,1175,1580727222448,0.43449998,0.1749,-0.0088,-0.18755218,3.9167035000000006,9.076122,-1
1175,1176,1580727222458,0.243,0.0744,0.0358,-0.2932514,3.7976542,9.039079,-1
1176,1177,1580727222468,0.1313,-0.0532,0.0005999999700000001,-0.39787802,3.7459488,9.016583,-1
1177,1178,1580727222478,0.0459,-0.0925,-0.015099999499999999,-0.39794505,3.71967,8.920077000000001,-1
1178,1179,1580727222489,0.034199997999999995,-0.13849999,-0.0968,-0.37223133,3.70519,8.577112,-1
1179,1180,1580727222499,0.050499998,-0.1713,-0.415,-0.35921645,3.6908917000000003,8.540233,-1
1180,1181,1580727222509,0.0866,-0.14829999,-0.3428,-0.35846946,3.7503061,8.742916000000001,-1
1181,1182,1580727222519,0.0866,-0.14829999,-0.3428,-0.36202246,3.8439674,9.0658655,-1
1182,1183,1580727222530,0.0437,0.0039,0.3127,-0.44316676,3.8598456,9.339742999999999,-1
1183,1184,1580727222540,-0.0502,-0.0659,0.28399998,-0.5465101,3.777629,9.259891,-1
1184,1185,1580727222550,-0.0502,-0.0659,0.28399998,-0.6316670999999999,3.7484865,9.148341,-1
1185,1186,1580727222560,-0.214,-0.15519999,0.024,-0.68653256,3.7238263999999996,9.051960000000001,-1
1186,1187,1580727222571,-0.1487,-0.1326,0.1837,-0.61065555,3.7875028,9.235662,-1
1187,1188,1580727222584,-0.1487,-0.1326,0.1837,-0.52908987,3.937964,9.366308,-1
1188,1189,1580727222595,-0.0177,0.071899995,0.5511,-0.5129146,3.9564852999999998,9.58896,-1
1189,1190,1580727222605,-0.103599995,0.0567,0.5731,-0.6312361,3.9070593999999996,9.491219000000001,-1
1190,1191,1580727222615,-0.1962,-0.0385,0.449,-0.7377206000000001,3.7791038,9.291332,-1
1191,1192,1580727222626,-0.2968,-0.155,0.14909999,-0.7333727,3.7473949999999996,8.887727,-1
1192,1193,1580727222636,-0.23079999,-0.2039,-0.2286,-0.65928656,3.760161,8.640396,-1
1193,1194,1580727222646,-0.1574,-0.15349999,-0.34239998,-0.5291281999999999,3.8516576000000002,8.855558,-1
1194,1195,1580727222656,-0.0088,-0.0804,-0.0359,-0.53685665,3.970228,9.319047,-1
1195,1196,1580727222666,-0.048,0.0637,0.436,-0.59735334,4.071225,9.659914,-1
1196,1197,1580727222677,-0.1462,0.1479,0.7809,-0.66834617,4.0741844,9.7876215,-1
1197,1198,1580727222687,-0.1968,0.0998,0.7847,-0.7324246,3.9717507000000003,9.466875,-1
1198,1199,1580727222697,-0.2589,-0.033,0.41869998,-0.7584831,3.9090513999999996,8.966381,-1
1199,1200,1580727222707,-0.271,-0.081599995,-0.073,-0.6557335,3.908496,8.621692999999999,-1
1200,1201,1580727222717,-0.1744,-0.1103,-0.36859998,-0.7445967,3.9001546,8.420752,-1
1201,1202,1580727222727,-0.26229998,-0.126,-0.5185,-0.85109085,3.8719316,8.353436,-1
1202,1203,1580727222737,-0.36879998,-0.17719999,-0.5621,-0.8480358,3.9278888999999997,8.501964,-1
1203,1204,1580727222747,-0.3581,-0.106,-0.3822,-0.75548553,3.9673934,8.809628,-1
1204,1205,1580727222757,-0.242,-0.071499996,-0.046699997,-0.6429198,3.999083,9.166766,-1
1205,1206,1580727222768,-0.1688,-0.0273,0.2395,-0.62283725,4.0764154999999995,9.066766000000001,-1
1206,1207,1580727222777,-0.134,0.015099999499999999,0.105,-0.55551225,4.052243700000001,8.9336195,-1
1207,1208,1580727222787,-0.0761,-0.0025,0.0005999999700000001,-0.53601384,4.172739,8.7899475,-1
1208,1209,1580727222797,-0.065799996,0.126,-0.162,-0.48262316,4.2616982000000005,8.667499000000001,-1
1209,1210,1580727222807,0.0117,0.1644,-0.2455,-0.34799242,4.2637477,8.675486,-1
1210,1211,1580727222818,0.13769999,0.1629,-0.2501,-0.27085125,4.2498903,8.656112,-1
1211,1212,1580727222827,0.19579999,0.131,-0.2543,-0.33514994,4.288158999999999,8.847486,-1
1212,1213,1580727222837,0.12709999,0.1519,0.0287,-0.43875182,4.271486,8.990802,-1
1213,1214,1580727222847,-0.0002,0.1523,0.0624,-0.66617227,4.247639700000001,8.747714,-1
1214,1215,1580727222857,-0.24399999,0.0734,-0.21239999,-0.8850981,4.2143984,8.276593,-1
1215,1216,1580727222868,-0.4475,0.0212,-0.6821,-1.1068107,4.1720877,7.9623675,-1
1216,1217,1580727222877,-0.6807,-0.0503,-0.9361,-1.3263303,4.1023884,7.794850299999999,-1
1217,1218,1580727222887,-0.86579996,-0.1393,-1.0931,-1.3846147,4.0630274,7.4892163,-1
1218,1219,1580727222897,-0.90639997,-0.18699999,-1.4276999,-1.441635,3.9968513999999997,7.324265,d
1219,1220,1580727222907,-0.9794,-0.2698,-1.4799,-1.4494879999999999,3.920486,7.541898,-1
1220,1221,1580727222918,-0.9690000000000001,-0.34669998,-1.2606,-1.3143017,3.9074426,7.708927,-1
1221,1222,1580727222928,-0.8621,-0.35979998,-1.1223,-1.1489103999999999,3.7712027999999997,7.8056912,-1
1222,1223,1580727222938,-0.7033,-0.50479996,-1.0257,-1.2394208,3.7124875,7.823456299999999,-1
1223,1224,1580727222949,-0.7934,-0.5564,-1.0194,-1.4607791,3.523652,7.912281,-1
1224,1225,1580727222958,-1.0151,-0.7317,-0.92649996,-1.8602182,3.3014317,7.919885000000001,-1
1225,1226,1580727222968,-1.4089,-0.94339997,-0.9327,-2.4496226,3.1090242999999997,7.638375,-1
1226,1227,1580727222978,-2.1316,-1.1556,-1.3209,-3.166303,2.786755,6.8940177,-1
1227,1228,1580727222988,-2.6892998,-1.4303,-1.9623,-3.7908449999999996,2.3794248,5.8471956,-1
1228,1229,1580727222999,-3.3030998999999994,-1.8285999,-3.0131997999999998,-4.350054,1.5795218999999998,4.2669654,-1
1229,1230,1580727223009,-4.4147997000000005,-3.2277,-6.7379,-4.8994465,0.8856822,1.8877897000000001,-1
1230,1231,1580727223019,-4.4147997000000005,-3.2277,-6.7379,-4.677657,0.27991092,2.1551549999999997,-1
1231,1232,1580727223029,-4.3055997,-3.8253998999999994,-6.8781,-4.8668566,-0.23020728,2.9985845,-1
1232,1233,1580727223040,-4.5484,-4.4101,-5.8722997,-5.69073,-0.9280021,4.315960400000001,-1
1233,1234,1580727223049,-5.432699700000001,-5.0471997,-4.5833,-6.735129,-1.6718998,5.370089,-1
1234,1235,1580727223059,-6.5037,-5.7216997,-3.5674998999999996,-7.9570813,-1.9182057000000001,5.420597,-1
1235,1236,1580727223069,-7.726,-5.8978,-3.5442998,-8.407105,-1.8019338,4.8066664,-1
1236,1237,1580727223079,-8.177899,-5.7082996,-4.1937,-8.479792999999999,-1.328782,3.5227612999999995,-1
1237,1238,1580727223090,-8.2351,-5.0601997,-5.9456,-7.7347655,-1.0723629,0.24238898,-1
1238,1239,1580727223100,-7.6464,-4.8247,-8.2911,-7.4705224,-1.1932318000000002,-1.8391109,-1
1239,1240,1580727223110,-7.2851996,-5.3919997,-11.407599000000001,-7.311796000000001,-1.8418689,-1.973234,-1
1240,1241,1580727223121,-7.1572,-5.7787,-8.9348,-7.053711,-2.257809,0.7610784,-1
1241,1242,1580727223131,-7.0972,-6.152,-6.1082,-6.789285700000001,-2.9265285,4.304928,-1
1242,1243,1580727223141,-6.836,-6.5083,-2.9923,-6.0722127,-3.118965,7.3019896,-1
1243,1244,1580727223151,-5.6439,-5.8961,-1.1618998999999999,-4.324991000000001,-2.4849612999999997,8.271201,-1
1244,1245,1580727223161,-3.5851,-5.1136,-0.6516,-2.442488,-2.0503273,8.971639,-1
1245,1246,1580727223172,-1.1991999,-4.2254,1.1364,0.6313031,-1.0061296999999998,11.199214,-1
1246,1247,1580727223182,1.2926999,-2.958,2.4677,3.3207674,-0.055066638,12.262172,-1
1247,1248,1580727223192,3.9297,-2.105,3.5507,6.256442,0.56450486,13.543557999999999,-1
1248,1249,1580727223202,6.7019997,-1.4006,4.5814,9.331803,1.109789,14.161348,-1
1249,1250,1580727223213,10.0878,-0.43289998,4.5666,13.167342999999999,2.014309,14.3995905,-1
1250,1251,1580727223223,12.5799,0.39569998,5.5906997,14.608595000000001,2.5562412999999995,16.241889999999998,-1
1251,1252,1580727223233,13.655399,1.3615,8.6015,15.429251,3.3150501000000006,19.292745999999998,-1
1252,1253,1580727223244,14.291699,2.2308,11.0728,16.422596,3.9158127,21.775484,-1
1253,1254,1580727223254,15.454498999999998,2.7235,12.7648,17.923876,4.061093,22.847752,-1
1254,1255,1580727223264,16.8985,3.0351999,13.2401,19.00818,4.222165,22.710248999999997,-1
1255,1256,1580727223275,18.223999,3.1862998,12.7148,20.541142,4.054724,21.942245,-1
1256,1257,1580727223285,19.369,2.9666,12.0404,21.585967999999998,3.8066847000000004,21.341713000000002,-1
1257,1258,1580727223295,20.2094,2.6899998,11.6073,22.118288,3.4026777999999998,21.10891,-1
1258,1259,1580727223305,20.2876,2.2484999,11.264999000000001,21.593975,2.9005656,20.349106,-1
1259,1260,1580727223315,19.484499,1.5685999,10.392000000000001,20.91701,2.2823827000000003,19.704576,-1
1260,1261,1580727223326,18.6222,0.7163,9.6921,19.515387,1.2303803,18.357801000000002,-1
1261,1262,1580727223336,17.4974,-0.0657,8.4318,18.205595000000002,0.5072356,16.633467,-1
1262,1263,1580727223346,16.2354,-0.92149997,6.7323,17.12337,-0.11879071,15.349542999999999,-1
1263,1264,1580727223356,14.8561,-1.7702999,5.1155,15.355088,-1.0298803,13.209864999999999,-1
1264,1265,1580727223367,13.4169,-2.7079,3.2391,13.844902,-1.8156668000000002,10.95421,-1
1265,1266,1580727223378,11.925999999999998,-3.6241,0.92719996,12.388012,-2.5096693,8.623158,-1
1266,1267,1580727223389,10.4886,-4.4831,-1.2903,9.945571000000001,-3.39561,5.9787235,-1
1267,1268,1580727223399,8.7333,-5.2837996,-3.1116,8.912569,-3.7314781999999997,4.7572019999999995,-1
1268,1269,1580727223409,5.7802997000000005,-6.446399700000001,-6.9677997000000005,7.0099160000000005,-4.141318,2.1941903,-1
1269,1270,1580727223419,5.7802997000000005,-6.446399700000001,-6.9677997000000005,5.9340577,-4.196921,1.7823108,-1
1270,1271,1580727223429,3.1731,-6.8487,-7.6874,4.2786875,-4.4026213,1.6682127,-1
1271,1272,1580727223439,3.1731,-6.8487,-7.6874,2.718865,-4.539033,0.8909495000000001,-1
1272,1273,1580727223450,0.382,-7.2991,-9.3551,1.4402462999999999,-4.6880097,-0.25114217,-1
1273,1274,1580727223460,0.382,-7.2991,-9.3551,0.61054057,-4.825158999999999,-1.0895342,-1
1274,1275,1580727223470,-1.4161999,-7.5733,-10.9529,-0.28306168,-4.880293,-1.7521343,-1
1275,1276,1580727223480,-1.7531999,-7.4891,-11.4555,-0.5734401,-4.7728605,-2.166877,-1
1276,1277,1580727223491,-2.0516,-7.392299700000001,-11.4671,-0.8909781999999999,-4.746495200000001,-2.0300724999999997,-1
1277,1278,1580727223501,-2.5872998,-7.4059,-10.8327,-1.8772457999999999,-4.917939700000001,-1.1093198,-1
1278,1279,1580727223511,-4.0582,-7.5411,-9.9493,-3.6395123,-5.2583566,-0.2783403,-1
1279,1280,1580727223522,-6.0299,-7.9012,-9.5753,-5.700891,-5.7637625,-0.092080995,-1
1280,1281,1580727223532,-8.0598,-8.3323,-9.5376,-7.543593400000001,-6.3533974,-0.21406079999999997,-1
1281,1282,1580727223542,-9.7251,-8.7869,-10.1495,-9.205782000000001,-6.9743285,-0.9700252,-1
1282,1283,1580727223552,-11.6754,-9.248,-11.0407,-11.263722,-7.5156198000000005,-1.7614621,-1
1283,1284,1580727223562,-13.788198999999999,-9.823,-11.059199000000001,-13.166491500000001,-8.290508,-1.0101712,-1
1284,1285,1580727223573,-15.465898999999999,-10.2727995,-9.394899,-14.281057999999998,-8.803452,0.7742465000000001,-1
1285,1286,1580727223583,-16.8547,-10.4599,-6.4697,-15.994473000000001,-9.245861,4.61786,-1
1286,1287,1580727223593,-18.4757,-10.578899,-2.6325,-17.28538,-9.7514305,8.569537,-1
1287,1288,1580727223603,-19.2871,-10.7269,0.9841,-18.010248,-10.090651,12.05584,-1
1288,1289,1580727223614,-20.067099,-10.5626,3.2159998,-19.023771,-10.06011,13.839328,-1
1289,1290,1580727223624,-21.1456,-10.002299,4.7218,-19.779688,-9.890533,14.927848000000001,-1
1290,1291,1580727223634,-21.9121,-9.5444,6.1804,-20.394776999999998,-9.700262,16.756329,-1
1291,1292,1580727223644,-22.140299,-9.0135,7.621299700000001,-20.047953,-9.452767,17.906837,-1
1292,1293,1580727223654,-21.4128,-8.5695,8.795899,-18.723413,-9.260083,19.367865,-1
1293,1294,1580727223665,-19.775098999999997,-7.9536996,10.5049,-16.587239999999998,-8.953922,20.990195999999997,-1
1294,1295,1580727223675,-17.3505,-7.3606997000000005,11.9127,-14.166376999999999,-8.649562,22.235737,-1
1295,1296,1580727223685,-14.832499499999999,-6.7285,13.509298999999999,-10.997641,-8.185908999999999,24.976198,-1
1296,1297,1580727223695,-12.010799,-5.9853,16.0521,-8.432091,-7.5238457,27.543127000000002,-1
1297,1298,1580727223706,-9.384399,-4.9937,18.5684,-6.07567,-6.8369303,29.465307,-1
1298,1299,1580727223716,-6.8924,-4.1342998,20.327,-3.8360953,-6.5141153,29.499601000000002,-1
1299,1300,1580727223727,-4.5992,-3.7324,19.879099,-1.7442526000000003,-6.6552005,27.781541999999998,-1
1300,1301,1580727223738,-2.2911,-3.8362,18.1038,0.5854302,-7.024827,26.280817,-1
1301,1302,1580727223748,0.19489999,-4.0512,16.7503,3.639474,-6.9273257,25.71634,-1
1302,1303,1580727223758,2.9153,-3.9057,16.4102,5.591112,-6.558341,26.565247999999997,-1
1303,1304,1580727223768,5.455,-3.3557,17.546098999999998,7.8232745999999995,-5.681967299999999,27.956652000000002,-1
1304,1305,1580727223778,7.6938996,-2.4263,18.8508,9.948617,-4.493543,28.565171999999997,-1
1305,1306,1580727223789,9.4859,-1.5230000000000001,19.220999,10.797647999999999,-4.0701427,27.594229,-1
1306,1307,1580727223799,10.3765,-1.2159,18.2128,10.945935,-3.9632466,26.325090000000003,-1
1307,1308,1580727223809,10.5328,-1.2651,16.8884,10.507528,-4.1596383999999995,25.579334,-1
1308,1309,1580727223819,10.0838995,-1.6675999,16.0874,9.891558999999999,-4.406624,25.000072,-1
1309,1310,1580727223829,9.4114,-2.1687,15.4499,8.9289255,-4.20373,23.890322,-1
1310,1311,1580727223840,7.8237996,-2.3086998,12.6776,8.368711,-3.8416212,21.805634,-1
1311,1312,1580727223850,7.586,-2.1705,9.6283,8.32848,-3.4148402,18.713427,-1
1312,1313,1580727223860,7.6158,-2.7215,6.6106,8.378605,-3.7099497,15.816623000000002,-1
1313,1314,1580727223870,7.4161997,-3.5367,4.0597997,8.264736,-4.055998000000001,13.376060500000001,-1
1314,1315,1580727223880,7.1439,-3.7257998,2.3409,8.078152000000001,-3.7809522000000007,11.986379,-1
1315,1316,1580727223890,7.1439,-3.7257998,2.3409,8.001805000000001,-3.5764012000000003,11.548366,-1
1316,1317,1580727223900,6.6857,-4.0393,1.1133,7.812098,-3.3462703,10.638233,-1
1317,1318,1580727223910,6.4319997,-4.2286997,-0.009000000000000001,7.7038326,-3.1328704,9.398468,-1
1318,1319,1580727223920,6.299299700000001,-4.3068,-1.6118,7.6357603,-2.8641164,7.5652943,-1
1319,1320,1580727223930,6.2655997,-4.3822,-3.9317,7.709933,-2.5995765,5.146557,-1
1320,1321,1580727223941,6.2655997,-4.3822,-3.9317,7.859398,-2.1485472000000003,3.4829602,-1
1321,1322,1580727223951,6.4768,-4.0067997,-7.1952996,7.930716499999999,-1.6167853,2.0480099,-1
