,Seq,Time,ACCx,ACCy,ACCz,ADGx,ADGy,ADGz,Keydown
0,1,1582725182981,2.076086,-0.14870888,-1.4668059,9.536,0.579,4.857,-1
1,2,1582725182991,2.076086,-0.14870888,-1.4668059,1.882,10.324000000000002,-0.011000000000000001,-1
2,3,1582725183002,-0.24277532,0.29287815,0.24527487,1.381,9.96,0.529,-1
3,4,1582725183012,-0.55212116,0.3093691,0.65289307,1.063,9.977,0.9670000000000001,-1
4,5,1582725183022,-0.93071616,0.283494,2.8499131,0.6629999999999999,9.951,3.262,-1
5,6,1582725183032,-1.0964923,0.518939,3.6563501000000005,0.486,10.186,4.119,-1
6,7,1582725183042,-0.9053684000000001,0.46208668,3.7894006,0.665,10.13,4.275,-1
7,8,1582725183052,-0.84691614,0.27484512,3.5640894999999997,0.716,9.943999999999999,4.0489999999999995,-1
8,9,1582725183062,-1.1178793,0.19312286,2.269527,0.414,9.869,2.718,-1
9,10,1582725183072,-1.7714353999999999,-0.09349823,1.7204417,-0.273,9.589,2.138,-1
10,11,1582725183083,-2.5581331,-0.63169193,1.9341936000000002,-1.111,9.06,2.318,-1
11,12,1582725183093,-2.6590643,-0.7711859000000001,2.2529435,-1.228,8.923,2.634,-1
12,13,1582725183103,-2.973535,-1.1243238000000002,3.0498672000000004,-1.5730000000000002,8.574,3.4389999999999996,-1
13,14,1582725183114,-3.1900048,-1.2888031,4.0178947,-1.8219999999999998,8.413,4.435,-1
14,15,1582725183124,-3.5451330000000003,-1.5534687,4.5111870000000005,-2.222,8.152000000000001,4.984,-1
15,16,1582725183134,-3.592084,-2.223072,4.7578564000000005,-2.296,7.484,5.271,-1
16,17,1582725183144,-3.9761405,-2.9691205000000003,5.4381123,-2.708,6.739,5.999,-1
17,18,1582725183155,-4.319473,-3.721458,5.094585400000001,-3.06,5.987,5.669,-1
18,19,1582725183165,-4.487232700000001,-4.0493627,5.039446400000001,-3.228,5.659,5.6160000000000005,-1
19,20,1582725183175,-4.712427,-4.6853489999999995,5.0951047,-3.446,5.022,5.672999999999999,-1
20,21,1582725183185,-5.4357834,-5.8451014,4.798858999999999,-4.136,3.858,5.374,-1
21,22,1582725183196,-5.9553394,-6.8460350000000005,4.1738253,-4.617,2.852,4.746,-1
22,23,1582725183206,-6.463244400000001,-7.8032894,3.474706,-5.07,1.8869999999999998,4.047,-1
23,24,1582725183216,-7.0483356,-8.620959,3.1035926,-5.582000000000001,1.058,3.685,-1
24,25,1582725183227,-7.260697400000001,-9.393048,3.1238932999999998,-5.7,0.27,3.7239999999999998,-1
25,26,1582725183236,-7.408266,-10.192141000000001,3.2024698,-5.731,-0.55,3.824,-1
26,27,1582725183246,-7.194443,-10.946098,2.8466275000000003,-5.374,-1.331,3.484,-1
27,28,1582725183256,-6.7175136,-11.499868,2.1702304,-4.7219999999999995,-1.92,2.8139999999999996,-1
28,29,1582725183267,-6.289878400000001,-11.792361999999999,1.3884346,-4.088,-2.258,2.035,-1
29,30,1582725183276,-5.177715,-12.241982,0.46517766,-2.739,-2.766,1.12,-1
30,31,1582725183286,-3.7465477,-12.359585000000001,-0.49777025,-1.044,-2.957,0.179,-1
31,32,1582725183296,-2.127913,-12.433686999999999,-1.019275,0.857,-3.12,-0.301,-1
32,33,1582725183306,-1.3925117,-12.426594,-1.3677473,1.7380000000000002,-3.1630000000000003,-0.622,-1
33,34,1582725183317,-0.21516275,-12.115392,-2.4424443,3.36,-3.0239999999999996,-1.585,-1
34,35,1582725183327,0.012051343999999999,-11.778481,-2.9675114,3.887,-2.821,-2.009,-1
35,36,1582725183337,0.34474897,-11.498532,-3.1706228,4.526,-2.694,-2.09,-1
36,37,1582725183348,1.0301361,-11.212542,-2.9048027999999997,5.525,-2.5839999999999996,-1.6740000000000002,-1
37,38,1582725183358,1.5754757,-10.782799,-2.5492854,6.3870000000000005,-2.356,-1.1320000000000001,-1
38,39,1582725183368,2.3128233,-10.226593,-1.9025351000000001,7.441,-2.03,-0.263,-1
39,40,1582725183378,3.71167,-9.280486,-1.7203857,9.172,-1.357,0.17,-1
40,41,1582725183389,5.252523,-8.033976,-2.0805643,11.055,-0.428,0.076,-1
41,42,1582725183400,6.7074337,-6.740572,-3.0997263999999998,13.145999999999999,1.0270000000000001,-1.123,-1
42,43,1582725183410,6.717748599999999,-5.235711,-4.1504900000000005,13.139000000000001,1.5919999999999999,-1.266,-1
43,44,1582725183421,6.646394,-4.7695074,-4.3629565,13.167,1.896,-1.3259999999999998,-1
44,45,1582725183431,6.6274023,-3.9792870000000002,-4.741989599999999,13.404000000000002,2.181,-1.235,-1
45,46,1582725183441,6.747389999999999,-3.9025282999999997,-4.61637,13.658,1.899,-0.775,-1
46,47,1582725183451,7.410736999999999,-3.5599300000000005,-3.798861,14.427,1.858,0.395,-1
47,48,1582725183462,7.869246,-2.3920639,-1.62373,14.972999999999999,2.615,2.9189999999999996,-1
48,49,1582725183472,10.373396000000001,-1.2328775,0.6229104999999999,17.56,3.338,5.484,-1
49,50,1582725183482,14.255196,0.39562416,1.4989948,21.519000000000002,4.521,6.636,-1
50,51,1582725183492,16.675055,1.4232812,0.97526217,23.993000000000002,5.12,6.356,-1
51,52,1582725183503,17.28116,1.6968803,0.45939827,24.613000000000003,5.19,5.956,-1
52,53,1582725183513,17.034124,2.2395182,-0.6125970000000001,24.362,5.1610000000000005,5.212999999999999,-1
53,54,1582725183523,16.90461,2.7380178,0.31280040000000003,24.218000000000004,5.295,6.325,-1
54,55,1582725183533,17.84113,4.014545,2.624135,25.15,6.207000000000001,8.783999999999999,-1
55,56,1582725183543,19.22958,5.053003299999999,5.071422599999999,26.544,6.89,11.34,-1
56,57,1582725183553,19.887894,5.4652433,6.0019827,27.206999999999997,7.1339999999999995,12.312000000000001,-1
57,58,1582725183563,20.322453,6.0923742999999995,8.516463,27.66,7.319,14.905999999999999,-1
58,59,1582725183573,19.771284,6.4849157,9.447633999999999,27.135,7.482,15.847000000000001,-1
59,60,1582725183584,19.658886,7.1067995999999996,9.559948,27.07,7.932,15.929,-1
60,61,1582725183594,19.821842,7.753659700000001,8.790461,27.3,8.461,15.095,-1
61,62,1582725183605,20.165653,8.527853,7.7032300000000005,27.724,9.165,13.919,-1
62,63,1582725183614,20.300413,8.742055,7.1485313999999995,27.947,9.354,13.258,-1
63,64,1582725183624,19.06927,8.450961,6.723158,26.809,9.084,12.712,-1
64,65,1582725183634,17.644385999999997,7.5299187000000005,7.519097,25.483,8.224,13.370999999999999,-1
65,66,1582725183644,16.120893,6.5222273,9.405256,24.061999999999998,7.311,15.105,-1
66,67,1582725183654,14.702735999999998,5.3868160000000005,11.505581,22.743000000000002,6.303,17.045,-1
67,68,1582725183664,12.945781,4.1669599999999996,13.929407000000001,21.076,5.245,19.305999999999997,-1
68,69,1582725183675,11.554241000000001,3.1569328,15.720634,19.762999999999998,4.433,20.932,-1
69,70,1582725183685,10.358411,2.5599184,16.393951,18.633,4.073,21.435,-1
70,71,1582725183695,9.119149,1.9375651999999999,16.10219,17.447,3.7289999999999996,20.961,-1
71,72,1582725183705,7.7753,1.1870768,14.839456,16.14,3.293,19.505,-1
72,73,1582725183716,6.0437155,0.37067723,14.162313000000001,14.422,2.8139999999999996,18.635,-1
73,74,1582725183726,4.6800375,-0.5526531,14.422009,13.045,2.2359999999999998,18.714000000000002,-1
74,75,1582725183736,3.6048812999999993,-1.6384788000000001,15.545293,11.409,1.238,20.134,-1
75,76,1582725183746,2.3578634,-2.8655226000000003,17.282673000000003,10.575999999999999,0.785,21.195,-1
76,77,1582725183756,1.9160452000000001,-3.6839967000000002,18.666002,10.039,0.311,22.438000000000002,-1
77,78,1582725183767,1.7382021,-4.12472,18.771576,9.807,0.045,22.47,-1
78,79,1582725183777,0.013309478999999999,-5.0423540000000004,17.897314,7.893,-0.332,21.346,-1
79,80,1582725183787,-0.7159848000000001,-5.3596473,16.48728,7.017,-0.285,19.746,-1
80,81,1582725183797,-0.47763824,-5.66143,14.809262,7.093999999999999,-0.23199999999999998,17.869,-1
81,82,1582725183807,-0.20090818,-5.996492,13.083528,7.192,-0.225,15.948,-1
82,83,1582725183817,-0.25286436,-6.123521,12.052532000000001,7.042999999999999,-0.18600000000000003,14.825,-1
83,84,1582725183828,-1.0119084999999999,-6.656610000000001,10.146091,5.965,-0.251,12.687999999999999,-1
84,85,1582725183838,-1.1799621999999999,-7.1922383000000005,9.479664999999999,5.568,-0.505,11.912,-1
85,86,1582725183848,-1.9497147000000001,-7.848733,8.700096,4.56,-0.905,11.062000000000001,-1
86,87,1582725183858,-2.7847288,-8.146011999999999,8.064989,3.4819999999999998,-0.977,10.411,-1
87,88,1582725183868,-3.270898,-8.400257,7.720948,2.7539999999999996,-1.041,10.111,-1
88,89,1582725183878,-3.7408648,-8.553116000000001,7.116743,2.0469999999999997,-1.06,9.671,-1
89,90,1582725183889,-3.9329832000000002,-8.833761,6.390523,1.621,-1.2109999999999999,9.077,-1
90,91,1582725183899,-4.373469,-9.134044,5.4289274,0.95,-1.331,8.064,-1
91,92,1582725183909,-4.786578700000001,-9.424368,4.506197,0.316,-1.4409999999999998,7.0360000000000005,-1
92,93,1582725183919,-5.279929,-9.590681,3.4968922,-0.387,-1.439,5.901,-1
93,94,1582725183929,-5.155168,-9.510494,2.544422,-0.457,-1.209,4.821000000000001,-1
94,95,1582725183939,-4.885198,-9.55524,1.5088627000000001,-0.366,-1.123,3.6639999999999997,-1
95,96,1582725183950,-4.493062,-9.277965,0.73086834,-0.138,-0.732,2.773,-1
96,97,1582725183960,-4.4458933,-8.884583000000001,0.21026599999999998,-0.24100000000000002,-0.239,2.145,-1
97,98,1582725183970,-4.456491000000001,-8.685846000000002,-0.4384967000000001,-0.387,0.047,1.391,-1
98,99,1582725183980,-4.2837760000000005,-8.230975,-1.1213693999999998,-0.332,0.5770000000000001,0.603,-1
99,100,1582725183990,-3.406601,-7.6961107,-2.2587283,0.447,1.175,-0.639,-1
100,101,1582725184001,-2.4578042,-7.222062599999999,-3.8362246,1.314,1.702,-2.318,-1
101,102,1582725184011,-1.8536978,-6.7954016,-5.0396657,1.8459999999999999,2.174,-3.614,-1
102,103,1582725184021,-2.0461452,-6.432226,-5.441706,1.585,2.577,-4.093,-1
103,104,1582725184031,-2.5479877,-6.2044516,-5.139083,1.0170000000000001,2.84,-3.8510000000000004,-1
104,105,1582725184042,-2.8309639,-6.106039,-4.9098063,0.675,2.969,-3.676,-1
105,106,1582725184052,-2.7748369999999998,-5.5499797,-4.7353115,0.684,3.551,-3.5610000000000004,-1
106,107,1582725184062,-2.0596447,-5.0695734,-3.9919765,1.367,4.052,-2.885,-1
107,108,1582725184072,-1.0674086,-4.461212000000001,-4.209489,2.339,4.677,-3.18,-1
108,109,1582725184082,-0.59386444,-3.9035782999999995,-5.4189553,2.799,5.249,-4.476,-1
109,110,1582725184093,-0.26902652,-3.6464190000000003,-6.8106575,3.12,5.518,-5.975,-1
110,111,1582725184103,-0.19232154,-3.0982046000000003,-7.324515299999999,3.214,6.0760000000000005,-6.691,-1
111,112,1582725184113,0.110865355,-2.7632785,-7.0354589999999995,3.568,6.409,-6.739,-1
112,113,1582725184123,0.17283607,-2.3771749,-5.829864,3.695,6.775,-5.879,-1
113,114,1582725184133,-0.017488241,-1.9438825000000002,-4.3496666,3.5269999999999997,7.199,-4.471,-1
114,115,1582725184144,0.35512352,-1.378212,-3.2106847999999997,3.923,7.755,-3.3689999999999998,-1
115,116,1582725184154,0.80112743,-0.9512596,-2.5415192,4.4110000000000005,8.164,-2.7680000000000002,-1
116,117,1582725184164,0.8615216999999998,-0.46883965,-2.4120576000000002,4.5169999999999995,8.626,-2.715,-1
117,118,1582725184174,0.7490492,-0.2746191,-2.3912854,4.435,8.806000000000001,-2.747,-1
118,119,1582725184185,0.9902344000000001,0.048524857000000005,-2.5165555,4.703,9.117,-2.9019999999999997,-1
119,120,1582725184195,1.0445981,0.29200554,-2.7333317000000004,4.782,9.35,-3.127,-1
120,121,1582725184205,0.9327254,0.4713564,-1.6839796999999999,4.703,9.517000000000001,-2.0469999999999997,-1
121,122,1582725184215,0.91244936,0.32217979999999996,-0.8637613000000001,4.694,9.363999999999999,-1.204,-1
122,123,1582725184225,0.6161313,0.23569584,0.19590935,4.418,9.271,-0.086,-1
123,124,1582725184235,0.26274848,0.48713017,1.0797447,4.083,9.517000000000001,0.8859999999999999,-1
124,125,1582725184246,0.22225285,0.6973553000000001,1.0058583,4.053999999999999,9.722999999999999,0.845,-1
125,126,1582725184256,0.25763488,0.8995333000000001,0.6668341999999999,4.102,9.92,0.517,-1
126,127,1582725184266,0.20829678,1.1243782,0.38710377,4.064,10.14,0.237,-1
127,128,1582725184277,0.25245547,1.1790447,0.15140396,4.119,10.19,0.0,-1
128,129,1582725184287,0.48019361,1.3208027,-0.09763718,4.3580000000000005,10.327,-0.244,-1
129,130,1582725184297,0.42771196,1.2545843,0.35123977,4.315,10.257,0.225,-1
130,131,1582725184307,0.39970159999999993,1.205203,0.96124136,4.294,10.205,0.8690000000000001,d
131,132,1582725184317,0.14939189,1.1843214,1.5134604999999999,4.047,10.183,1.46,-1
132,133,1582725184328,0.008409739,0.96117496,1.7421166000000001,3.906,9.96,1.724,-1
133,134,1582725184338,-0.2602322,1.0022735999999999,1.7419103,3.633,10.003,1.75,-1
134,135,1582725184348,-0.3800881,0.9530668,1.2563251,3.508,9.956,1.276,-1
135,136,1582725184358,-0.12107468,1.1270685,0.97867954,3.767,10.13,1.001,-1
136,137,1582725184368,0.20976329,1.221179,1.1333427,4.105,10.221,1.161,-1
137,138,1582725184379,0.48508382,1.3694267,1.3089525,4.39,10.365,1.35,-1
138,139,1582725184389,0.9226763000000001,1.5506239,1.1989352,4.837,10.542,1.2590000000000001,-1
139,140,1582725184399,1.0573566,1.4017171999999998,1.5536981,4.976,10.390999999999998,1.64,-1
140,141,1582725184409,0.75084114,1.3492393,2.112128,4.663,10.341,2.229,-1
141,142,1582725184420,0.24964952,1.0864143,2.6263433,4.145,10.085,2.775,-1
142,143,1582725184430,-0.50228477,0.9726514999999999,2.9139915000000003,3.367,9.982000000000001,3.089,-1
143,144,1582725184440,-0.8951051,0.8624610999999999,2.4856915,2.945,9.884,2.675,-1
144,145,1582725184450,-0.6319196,0.9386473,1.8667537,3.185,9.97,2.057,-1
145,146,1582725184461,-0.21220279,0.95297146,1.2802565000000001,3.594,9.988999999999999,1.463,-1
146,147,1582725184471,-0.044323682999999996,1.0488281000000002,0.9447759,3.7569999999999997,10.087,1.123,-1
147,148,1582725184481,0.078341484,1.0860243,0.98197806,3.875,10.126,1.168,-1
148,149,1582725184491,-0.09585285,0.9052448000000001,1.2252724,3.511,10.062999999999999,1.791,-1
149,150,1582725184502,-0.292624,1.0088959000000002,1.5963911,3.484,10.056000000000001,1.8359999999999999,-1
150,151,1582725184512,-0.39973545,0.8075465999999999,1.6340101999999999,3.345,9.762,1.9180000000000001,-1
151,152,1582725184522,-0.40498948,0.58084965,1.3434736999999999,3.458,9.556000000000001,1.642,-1
152,153,1582725184532,0.24873447,0.36350918,1.2599308,3.9819999999999998,9.426,1.5830000000000002,-1
153,154,1582725184543,0.27424717,0.29954147,1.2604942,4.002,9.363999999999999,1.5919999999999999,-1
154,155,1582725184553,0.12451029,0.39597416,1.1229982,3.841,9.465,1.456,-1
155,156,1582725184563,-0.30565786,0.46676254,1.042065,3.391,9.544,1.3719999999999999,-1
156,157,1582725184573,-0.37208533,0.25466347,0.75766915,3.3,9.342,1.084,-1
157,158,1582725184583,-0.45941138,0.16146946,0.29796988,3.178,9.263,0.617,-1
158,159,1582725184594,-0.6958368,-0.056239128,-0.17822824,2.9139999999999997,9.057,0.11900000000000001,-1
159,160,1582725184604,-0.55884504,-0.02448845,-0.46524399999999994,3.029,9.097999999999999,-0.18600000000000003,-1
160,161,1582725184614,-0.4569919,-0.024662971000000002,-0.2852788,3.123,9.101,-0.009000000000000001,-1
161,162,1582725184624,-0.047090292,0.07012558,0.23490423,3.5180000000000002,9.201,0.531,-1
162,163,1582725184634,-0.093304634,0.117033005,1.1552875,3.465,9.249,1.496,-1
163,164,1582725184644,-0.34810543,0.07191467,1.8102651,3.194,9.208,2.205,-1
164,165,1582725184655,-0.3937695,-0.049422264,1.5424978,3.125,9.093,1.995,-1
165,166,1582725184665,-0.49118376,-0.13229370000000001,1.1385351000000001,3.017,9.014,1.595,-1
166,167,1582725184675,-0.46092079999999996,-0.00689888,0.13728878,3.015,9.152999999999999,0.5670000000000001,-1
167,168,1582725184685,-0.5143005999999999,-0.008648872,-0.037875473,2.9410000000000003,9.16,0.371,-1
168,169,1582725184695,-0.46174574,0.0036420821999999997,0.12838358,2.9739999999999998,9.18,0.529,-1
169,170,1582725184706,-0.52739143,0.03921318,0.21757352,2.888,9.222999999999999,0.622,-1
170,171,1582725184716,-0.4222169,0.24090481,0.49973303,2.9739999999999998,9.431000000000001,0.922,-1
171,172,1582725184726,-0.25897098,0.31946468,0.7759404000000001,3.125,9.513,1.2209999999999999,-1
172,173,1582725184736,-0.047946453,0.4107628,0.8441268,3.3289999999999997,9.606,1.307,-1
173,174,1582725184747,0.13999963,0.42605686,0.7747921,3.511,9.623,1.247,-1
174,175,1582725184757,0.30289292,0.50252247,0.9139091999999999,3.6660000000000004,9.702,1.393,-1
175,176,1582725184767,0.28719997,0.41714478,1.1055913999999998,3.64,9.62,1.5919999999999999,-1
176,177,1582725184777,-0.043313265,0.33072758,1.322834,3.293,9.539,1.82,-1
177,178,1582725184788,-0.59108305,0.35130500000000003,1.1594524,2.72,9.568,1.669,-1
178,179,1582725184798,-0.6649351,0.3709345,0.8575596,2.622,9.596,1.3719999999999999,-1
179,180,1582725184808,-0.4898553,0.3857031,0.3056758,2.783,9.616,0.816,-1
180,181,1582725184818,-0.22294116,0.44078636,-0.21163252,3.0460000000000003,9.673,0.289,-1
181,182,1582725184829,0.33975148,0.53613377,-0.42515025,3.616,9.766,0.071,-1
182,183,1582725184839,0.6355972,0.46557617,-0.08714715,3.92,9.692,0.419,-1
183,184,1582725184849,0.114659786,0.47283268,0.63586575,3.3960000000000004,9.699,1.166,-1
184,185,1582725184859,-0.3804338,0.38211346,1.4473809,2.888,9.611,2.009,-1
185,186,1582725184869,-0.8158276,0.27605247,1.7076194,2.4330000000000003,9.51,2.299,-1
186,187,1582725184879,-0.89161825,0.15312862,1.1410552999999999,2.33,9.395,1.757,d
187,188,1582725184890,-0.659333,0.113762856,0.15283346,2.541,9.363999999999999,0.754,-1
188,189,1582725184899,-0.5424566,0.041831017000000005,-0.15781239,2.66,9.292,0.433,-1
189,190,1582725184909,-0.18828678,0.0836153,-0.49774775,3.022,9.333,0.062,-1
190,191,1582725184919,0.23435426,0.24503899,-0.64385605,3.47,9.486,-0.091,-1
191,192,1582725184929,0.2825997,0.2928667,-0.3315527,3.5439999999999996,9.524,0.23399999999999999,-1
192,193,1582725184940,0.030343533,0.32622814,0.4049453,3.312,9.548,1.005,-1
193,194,1582725184949,-0.22972155,0.19330692,1.2695723,3.065,9.407,1.92,-1
194,195,1582725184959,-0.5508473,0.25722694,1.9325086999999999,2.7510000000000003,9.465,2.6289999999999996,-1
195,196,1582725184969,-0.31555796,0.30762577,1.6319573,2.998,9.51,2.344,-1
196,197,1582725184979,0.058353424,0.47804356,0.6432929000000001,3.391,9.675,1.3359999999999999,-1
197,198,1582725184990,0.5067909,0.7614641,-0.405546,3.863,9.953,0.244,-1
198,199,1582725185000,0.9234872,0.9424038,-0.9416368,4.303,10.128,-0.33,-1
199,200,1582725185010,0.79768157,1.2751045,-0.685431,4.006,10.347999999999999,0.23199999999999998,-1
200,201,1582725185021,0.5410590000000001,1.3747187,0.74427694,3.949,10.55,1.3530000000000002,-1
201,202,1582725185031,0.72193193,1.5464096,1.0903379,4.217,10.779000000000002,1.882,-1
202,203,1582725185041,0.91550326,1.6835793999999997,1.0754066,4.334,10.854000000000001,1.6980000000000002,-1
203,204,1582725185052,1.2710948,1.9401979999999999,0.49665254,4.694,11.11,1.104,-1
204,205,1582725185062,1.7402604,2.1696138,-0.008007407,5.166,11.34,0.574,-1
205,206,1582725185072,2.1407075,2.2538424,-0.27617034,5.566,11.425999999999998,0.28,-1
206,207,1582725185082,2.4817047000000003,2.3325377,-0.18226665,5.901,11.508,0.35600000000000004,-1
207,208,1582725185092,2.768774,2.5730180000000002,0.019668400000000003,6.1739999999999995,11.754000000000001,0.5529999999999999,-1
208,209,1582725185103,2.686876,2.500597,0.5714173,6.068,11.69,1.113,-1
209,210,1582725185113,2.6116620999999998,2.4402485,0.90898687,5.977,11.635,1.4580000000000002,-1
210,211,1582725185123,2.1295147,1.8260707999999999,1.9369824,5.436,11.040999999999999,2.505,-1
211,212,1582725185133,1.9390893,1.4721546,2.2896936,5.2010000000000005,10.703,2.8569999999999998,-1
212,213,1582725185144,1.9171889,1.148407,1.9621372,5.1339999999999995,10.395999999999999,2.5140000000000002,-1
213,214,1582725185154,1.9809346,0.8467045,1.3767052,5.154,10.111,1.901,-1
214,215,1582725185164,2.0611732,0.6445656,1.12972,5.212999999999999,9.917,1.6380000000000001,-1
215,216,1582725185174,2.0965838,0.13494682,0.40477026,5.185,9.431000000000001,0.8690000000000001,-1
216,217,1582725185185,1.7645936000000002,-0.36485863,0.49615037,4.813,8.945,0.948,-1
217,218,1582725185195,1.2269106,-1.0548277,0.72196186,4.243,8.265,1.185,-1
218,219,1582725185205,0.45574355,-1.4434853,0.95716643,3.403,7.898,1.4269999999999998,-1
219,220,1582725185216,-0.20620084,-2.1280446,1.1112516000000001,2.665,7.237,1.5830000000000002,-1
220,221,1582725185225,-0.9245969999999999,-2.7058449,0.8163060000000001,1.8719999999999999,6.682,1.2830000000000001,-1
221,222,1582725185235,-1.2989517,-3.15062,0.6944640000000001,1.429,6.257999999999999,1.149,-1
222,223,1582725185245,-1.4925953,-3.5073300000000005,0.44455320000000004,1.173,5.92,0.8809999999999999,-1
223,224,1582725185256,-1.9122326,-4.044937600000001,-0.037654757000000004,0.6940000000000001,5.4,0.376,-1
224,225,1582725185266,-2.1757877,-4.2322296999999995,-0.35230276,0.402,5.221,0.05,-1
225,226,1582725185276,-3.0071482999999994,-5.1620593,-1.0510092,-0.507,4.313,-0.6729999999999999,-1
226,227,1582725185287,-3.1715033,-5.422117,-1.333224,-0.6940000000000001,4.059,-0.958,-1
227,228,1582725185297,-4.122105,-6.690923700000001,-1.7975916,-1.7,2.804,-1.41,-1
228,229,1582725185307,-4.529731,-7.604462599999999,-1.7450017,-2.133,1.896,-1.3359999999999999,-1
229,230,1582725185317,-5.1047325,-8.704877999999999,-2.1334627,-2.725,0.799,-1.705,-1
230,231,1582725185328,-5.992837000000001,-9.885786,-2.9617932000000002,-3.623,-0.38,-2.521,-1
231,232,1582725185338,-6.9647565,-10.874611,-4.0042734,-4.596,-1.369,-3.554,-1
232,233,1582725185348,-7.950062,-11.780361,-5.1433434,-5.575,-2.2769999999999997,-4.678999999999999,-1
233,234,1582725185358,-8.701414,-12.383348,-5.8499856,-6.325,-2.8810000000000002,-5.372000000000001,-1
234,235,1582725185369,-9.101103,-12.492239,-5.6809497,-6.725,-2.991,-5.18,-1
235,236,1582725185379,-8.676664,-12.663262,-5.158214599999999,-6.2410000000000005,-3.182,-4.572,-1
236,237,1582725185389,-8.218132,-12.878675999999999,-4.595376,-5.676,-3.4339999999999997,-3.884,-1
237,238,1582725185399,-7.972658,-13.0169735,-3.9258193999999995,-5.218,-3.6519999999999997,-2.988,-1
238,239,1582725185410,-7.7534027000000005,-13.241879,-3.6433399,-4.83,-3.946,-2.543,-1
239,240,1582725185420,-7.783636,-13.38011,-3.5375462,-4.768,-4.124,-2.354,-1
240,241,1582725185430,-8.108185,-13.502013,-3.4188080000000003,-4.893,-4.337,-2.064,-1
241,242,1582725185441,-7.543088000000001,-13.971127,-2.8666215,-3.98,-4.981,-1.238,-1
242,243,1582725185450,-6.756961,-14.089243,-2.937982,-3.063,-5.17,-1.214,-1
243,244,1582725185460,-6.250945,-13.919157,-2.8726742,-2.28,-5.1610000000000005,-0.95,-1
244,245,1582725185470,-5.7954054,-13.862164499999999,-2.8201942000000004,-1.528,-5.295,-0.684,-1
245,246,1582725185481,-4.8888516,-13.85726,-2.3169906000000005,-0.301,-5.52,0.052000000000000005,-1
246,247,1582725185491,-1.6059903999999998,-13.601212,-0.55243015,3.508,-5.702000000000001,2.208,-1
247,248,1582725185501,-0.5020199000000001,-13.440154999999999,0.24670291,4.802,-5.721,3.154,-1
248,249,1582725185511,2.7112617,-12.046758,2.953697,8.655,-5.0360000000000005,6.372999999999999,-1
249,250,1582725185522,4.0553612999999995,-11.287504,3.7607517,11.73,-3.925,8.226,-1
250,251,1582725185532,6.877462400000001,-9.622415,4.9334755,15.064,-2.7060000000000004,9.402000000000001,-1
251,252,1582725185543,10.7639885,-7.440715299999999,6.3662157,17.656,-1.829,10.511,-1
252,253,1582725185552,11.931498,-7.2815742,6.6272782999999995,18.956,-1.911,10.868,-1
253,254,1582725185562,14.039391,-7.460414999999999,8.250864,21.406,-2.8139999999999996,12.758,-1
254,255,1582725185572,12.174991,-5.9959307,10.559963,19.718,-1.827,15.239,-1
255,256,1582725185582,11.181763,-5.130196,11.9188,18.8,-1.199,16.680999999999997,-1
256,257,1582725185592,11.00295,-2.2566786,14.580519,18.815,0.96,19.56,-1
257,258,1582725185603,11.881689999999999,-1.1407173000000002,14.220448000000001,19.749000000000002,1.839,19.26,-1
258,259,1582725185613,15.790609,1.2750584999999999,12.25579,23.784000000000002,3.556,17.459,-1
259,260,1582725185623,17.435295,2.2233036,11.230722,25.471,4.064,16.542,-1
260,261,1582725185633,16.909838,2.6708121,10.591393,24.956,4.109,16.01,-1
261,262,1582725185644,14.763159,2.6705,10.493002,22.802,3.75,16.005,-1
262,263,1582725185654,12.464421000000002,2.7002563,10.656557000000001,20.494,3.46,16.235,-1
263,264,1582725185664,11.215021,3.1762479999999997,10.760231,19.241,3.7880000000000003,16.362000000000002,-1
264,265,1582725185674,11.085165,4.892354,11.098083500000001,19.097,5.084,16.75,-1
265,266,1582725185685,12.2848015,5.623541,10.5109,20.278,5.558,16.192,-1
266,267,1582725185695,12.506135,6.163875599999999,8.984648,20.475,5.877000000000001,14.693,-1
267,268,1582725185706,11.154505,5.926685,6.841050999999999,19.085,5.372000000000001,12.583,-1
268,269,1582725185716,10.105537,5.9369,6.656544,18.01,5.233,12.418,-1
269,270,1582725185726,9.240176,5.698983,6.5112309999999995,17.117,4.864,12.293,-1
270,271,1582725185736,8.013367,5.5623629999999995,6.820927,15.862,4.617,12.624,-1
271,272,1582725185747,6.687155199999999,5.284212,6.917106599999999,14.511,4.253,12.739,-1
272,273,1582725185757,5.448563,4.937958200000001,6.694491,13.254000000000001,3.846,12.53,-1
273,274,1582725185767,4.420193,4.5727873,5.8769584,12.214,3.444,11.720999999999998,-1
274,275,1582725185777,4.0860959999999995,4.4995303,5.116842299999999,11.876,3.36,10.964,-1
275,276,1582725185788,3.5947638,4.149844,3.3853273,11.376,3.0,9.242,-1
276,277,1582725185798,3.1840124,3.9056911,2.0966377,10.959000000000001,2.763,7.962999999999999,-1
277,278,1582725185808,2.7267041,3.6246605000000005,1.6029387,10.494000000000002,2.495,7.482,-1
278,279,1582725185818,2.4119357999999997,3.3477974,1.5070572,10.171,2.234,7.4,-1
279,280,1582725185829,2.3488498,3.2380042,1.4042540000000001,10.104,2.133,7.303999999999999,-1
280,281,1582725185839,1.7379875,2.8109055,1.3928098999999998,9.484,1.7409999999999999,7.311,-1
281,282,1582725185849,1.4433593999999998,2.6279087000000003,1.5470138,9.187000000000001,1.59,7.474,-1
282,283,1582725185860,1.3661885,2.443609,1.3842373,9.113,1.446,7.314,-1
283,284,1582725185870,1.3204122,2.1727605,0.7591634,9.077,1.2229999999999999,6.684,-1
284,285,1582725185880,1.3309263999999998,2.2114074,0.23922586,9.101,1.317,6.155,-1
285,286,1582725185891,1.3351488,1.8800290000000002,-0.45451975,9.122,1.046,5.4479999999999995,-1
286,287,1582725185901,1.1649326999999998,1.6374294,-0.6257286,8.966000000000001,0.862,5.266,-1
287,288,1582725185911,1.0998888,1.380234,-0.3456216,8.907,0.6509999999999999,5.544,-1
288,289,1582725185922,1.0960045,1.1482017,0.39517307,8.899,0.45,6.294,-1
289,290,1582725185932,0.83644724,0.8503768,0.86353016,8.634,0.182,6.773,d
290,291,1582725185942,0.5547595000000001,0.6167038,1.2675604999999999,8.349,-0.019,7.185,-1
291,292,1582725185952,0.153687,0.3905475,1.3161521,7.946000000000001,-0.20800000000000002,7.24,-1
292,293,1582725185963,-0.15143824,0.30995953,1.1249127,7.6370000000000005,-0.24600000000000002,7.058,-1
293,294,1582725185973,-0.31509638,0.3267219,0.91592026,7.6370000000000005,-0.17,6.624,-1
294,295,1582725185983,0.20710229999999996,0.27671802,0.43836260000000005,7.984,-0.193,6.394,-1
295,296,1582725185993,0.57646656,0.22800507,0.22746849,8.353,-0.21,6.186,-1
296,297,1582725186003,0.7615981,0.11433917,0.6771989,8.523,-0.287,6.6579999999999995,-1
297,298,1582725186013,0.7779255,-0.045971095999999996,0.8807936,8.531,-0.43799999999999994,6.872999999999999,-1
298,299,1582725186023,0.54855776,-0.3084249,1.5089268999999998,8.272,-0.6729999999999999,7.541,-1
299,300,1582725186033,0.08790827,-0.06626209599999999,1.6984138,7.79,-0.409,7.7589999999999995,-1
300,301,1582725186043,-0.09221935,0.09180088,1.7008523999999998,7.599,-0.237,7.776,-1
301,302,1582725186053,-0.14044952,0.6137185000000001,1.0865612,7.525,0.342,7.197,-1
302,303,1582725186063,0.23159838,0.72416425,0.9485688,7.893,0.474,7.065,-1
303,304,1582725186073,1.0999017,0.101861306,0.27963114,9.333,-0.61,6.26,-1
304,305,1582725186084,2.0911994,-0.61188453,0.030310154,9.75,-0.807,6.152,-1
305,306,1582725186094,2.4798727,-0.0905263,0.29493713,10.13,-0.268,6.428,-1
306,307,1582725186104,2.5364112999999997,1.0798233999999998,0.48451567,10.157,0.9309999999999999,6.655,-1
307,308,1582725186114,2.5582037,1.4023392,0.4725871,10.15,1.278,6.678999999999999,-1
308,309,1582725186125,2.3571596,1.2970308000000002,0.55523586,9.917,1.199,6.801,-1
309,310,1582725186135,1.7732352999999998,0.7921501999999999,0.96785593,9.304,0.72,7.249,-1
310,311,1582725186145,1.0403214,0.8043311,2.2158412999999997,8.547,0.759,8.526,-1
311,312,1582725186155,0.8439126,0.63508594,3.2939324,8.339,0.62,9.618,-1
312,313,1582725186166,1.320859,0.6563184,4.014774,8.82,0.682,10.334000000000001,-1
313,314,1582725186176,1.3718958,1.0816231,3.7998958,8.885,1.166,10.102,-1
314,315,1582725186186,1.3294129,1.6801897000000001,2.9870372000000005,8.859,1.839,9.267999999999999,-1
315,316,1582725186196,2.109642,2.2001730999999998,2.3897004,9.656,2.438,8.648,-1
316,317,1582725186206,3.4167989999999997,2.5721707,1.8101034,10.978,2.888,8.047,-1
317,318,1582725186217,4.647784,2.8372264,1.9490794999999999,12.220999999999998,3.23,8.167,-1
318,319,1582725186227,5.669785500000001,3.2015865000000003,2.7194276,13.255999999999998,3.673,8.916,-1
319,320,1582725186237,6.4446287,3.5652604,3.9000434999999998,14.046,4.121,10.071,-1
320,321,1582725186248,6.8119583,3.7892922999999996,5.1959295,14.429,4.442,11.338,-1
321,322,1582725186258,6.654033999999999,3.8811607000000006,6.106981299999999,14.283,4.648,12.220999999999998,-1
322,323,1582725186268,6.30885,3.9997097999999998,6.557746400000001,13.940999999999999,4.897,12.65,-1
323,324,1582725186278,6.183942,3.9027758,7.158612299999999,13.809000000000001,4.9430000000000005,13.237,-1
324,325,1582725186289,6.342532599999999,4.127809,8.028675,13.95,5.321000000000001,14.100999999999999,-1
325,326,1582725186299,6.9080449999999995,4.1051726,9.021746,14.492,5.4670000000000005,15.088,-1
326,327,1582725186309,7.057572,3.8347082,9.777708,14.616,5.395,15.828,-1
327,328,1582725186319,6.815686,3.1631093,9.719069000000001,14.161,4.761,15.184000000000001,-1
328,329,1582725186329,5.7049055,1.7486006999999997,8.144916,13.198,3.99,14.061,-1
329,330,1582725186340,5.056337999999999,1.4866493,7.6968119999999995,12.535,3.891,13.567,-1
330,331,1582725186350,3.9681330000000004,0.46333122,6.416089,11.39,3.372,12.128,-1
331,332,1582725186360,3.0301375,0.36741543,6.0872150000000005,10.394,3.609,11.694,-1
332,333,1582725186370,2.8630400000000003,-0.023793697000000003,6.0364580000000005,10.15,3.5389999999999997,11.548,-1
333,334,1582725186381,2.8465686000000003,-0.39443183,5.9287233,10.044,3.477,11.349,-1
334,335,1582725186391,2.7542095,-0.45035744,6.2406497000000005,9.857000000000001,3.7239999999999998,11.56,-1
335,336,1582725186401,2.7772403,-0.8709078000000001,6.4600663,9.788,3.6060000000000003,11.654000000000002,-1
336,337,1582725186411,2.9354506000000002,-1.3679936000000001,6.0536203,9.86,3.417,11.085999999999999,-1
337,338,1582725186422,2.2336788,-1.3099406,5.6169796,9.072000000000001,3.793,10.450999999999999,-1
338,339,1582725186432,1.5989156,-1.4616015,4.7983785,8.346,3.963,9.405,-1
339,340,1582725186442,1.3199544,-1.6112533000000002,4.282168,8.017999999999999,3.9730000000000003,8.767999999999999,-1
340,341,1582725186452,0.031619072000000005,-1.7693043000000002,2.9522939,6.562,4.2669999999999995,7.086,-1
341,342,1582725186462,0.0047802925,-2.147334,2.5933572999999996,6.412999999999999,4.138,6.542999999999999,-1
342,343,1582725186473,0.17409134,-2.8136382,2.2202916,6.48,3.657,6.0329999999999995,-1
343,344,1582725186483,-0.594059,-2.8197143,2.3615720000000002,5.577999999999999,3.891,5.973,-1
344,345,1582725186493,-1.4535475,-3.3039102999999996,2.4260395,4.567,3.65,5.827000000000001,-1
345,346,1582725186503,-2.3000977000000002,-4.099458,2.5902078,3.563,3.0869999999999997,5.776,-1
346,347,1582725186514,-3.0815551,-4.617565,2.5200806,2.627,2.787,5.479,-1
347,348,1582725186524,-3.6146631,-4.927373,2.0480313000000003,1.949,2.68,4.758,-1
348,349,1582725186534,-3.6447345999999996,-5.284382,0.58664036,1.786,2.509,3.0239999999999996,-1
349,350,1582725186544,-3.279976,-5.553778599999999,-1.191457,2.026,2.406,0.9670000000000001,-1
350,351,1582725186555,-2.31517,-5.935471499999999,-3.13315,2.8710000000000004,2.169,-1.238,-1
351,352,1582725186565,-1.7564201000000002,-6.1281548,-4.202276,3.3089999999999997,2.102,-2.536,-1
352,353,1582725186575,-1.7967231,-6.407026999999999,-4.1138773,3.142,1.935,-2.634,-1
353,354,1582725186586,-2.33026,-6.88138,-3.767674,2.476,1.5630000000000002,-2.44,-1
354,355,1582725186596,-3.1580074000000002,-7.249650999999999,-3.2199063,1.516,1.288,-2.023,-1
355,356,1582725186606,-3.6809782999999996,-7.459210400000001,-2.8030665,0.8690000000000001,1.161,-1.726,-1
356,357,1582725186616,-3.9773970000000003,-7.2813253,-2.3977432,0.462,1.41,-1.4369999999999998,-1
357,358,1582725186626,-3.4207517999999997,-7.603806,-2.3067105,0.924,1.147,-1.46,-1
358,359,1582725186636,-3.000258,-7.4837737,-2.4535625,1.262,1.317,-1.712,-1
359,360,1582725186647,-2.3855517,-7.3133163,-3.269351,1.767,1.5490000000000002,-2.648,-1
360,361,1582725186657,-2.116854,-7.299844,-3.3798218,2.002,1.58,-2.785,-1
361,362,1582725186667,-2.0731921000000004,-6.7690344,-3.0586330000000004,1.98,2.1430000000000002,-2.495,-1
362,363,1582725186677,-2.1244571,-6.7192698,-2.5402622000000004,1.626,2.181,-1.607,-1
363,364,1582725186688,-2.807764,-6.524879,-1.7764468,1.0959999999999999,2.454,-1.219,-1
364,365,1582725186698,-3.1487865000000004,-6.4478574,-1.4310942,0.732,2.541,-0.8740000000000001,-1
365,366,1582725186708,-3.406448,-5.9877872000000005,-0.9464952,0.44299999999999995,3.015,-0.397,-1
366,367,1582725186719,-1.8716080000000002,-4.996046499999999,-0.46936998,1.973,4.011,0.043,-1
367,368,1582725186729,-1.0690556,-4.6419344,-0.46019129999999997,2.783,4.363,0.033,-1
368,369,1582725186739,1.1557319,-3.3181138,-0.8824187,5.041,5.676,-0.457,-1
369,370,1582725186749,1.0347214,-2.631116,-1.5534277,4.936,6.358,-1.171,-1
370,371,1582725186760,0.27080894,-2.5021744,-1.6688183999999997,4.167,6.49,-1.307,-1
371,372,1582725186770,-0.5775260999999999,-2.360991,-1.2522784,3.302,6.638,-0.8809999999999999,-1
372,373,1582725186780,-1.2722712,-2.2346244,-0.67084396,2.591,6.77,-0.268,-1
373,374,1582725186790,-1.6313572,-1.8452582,0.32560444,2.224,7.1610000000000005,0.7659999999999999,-1
374,375,1582725186800,-1.1971443000000002,-1.4990096000000002,0.7970232,2.665,7.502999999999999,1.264,-1
375,376,1582725186810,-0.62358546,-0.7759361,0.63171196,3.259,8.217,1.104,-1
376,377,1582725186821,0.19468975,-0.18311405,-0.0041980743,4.117,8.794,0.44,-1
377,378,1582725186831,1.1093366000000002,0.04496479,-0.8001534,5.0889999999999995,9.0,-0.426,-1
378,379,1582725186841,1.3498139,0.36863708,-1.7780405,5.369,9.309,-1.484,-1
379,380,1582725186851,1.2504463,0.51085377,-2.3182666000000003,5.292000000000001,9.443,-2.088,-1
380,381,1582725186861,0.93613386,0.5450392,-1.9785526000000002,4.9910000000000005,9.472000000000001,-1.784,-1
381,382,1582725186871,0.52306557,0.56467056,-1.0695927,4.584,9.488999999999999,-0.8809999999999999,-1
382,383,1582725186882,0.1577115,0.45762253,-0.19678085,4.22,9.381,0.006999999999999999,-1
383,384,1582725186892,-0.05137396,0.37805843,0.1321705,4.0089999999999995,9.302,0.349,-1
384,385,1582725186902,-0.03753376,0.75141144,-0.039083287,4.023,9.675,0.18899999999999997,-1
385,386,1582725186912,0.24823284,1.0213223,-0.5651703,4.323,9.939,-0.361,-1
386,387,1582725186923,0.5736222,0.9534273000000001,-0.94357145,4.67,9.862,-0.778,-1
387,388,1582725186933,1.1700892,0.92353725,-1.3760908,5.292000000000001,9.821,-1.252,-1
388,389,1582725186943,1.5287962,0.996541,-1.4331565,5.672999999999999,9.884,-1.338,-1
389,390,1582725186953,1.1716971,0.88708496,-1.180487,5.327999999999999,9.769,-1.0959999999999999,-1
390,391,1582725186963,0.28026724,0.64441967,-0.55845577,4.435,9.527000000000001,-0.467,-1
391,392,1582725186973,-0.31153965,0.530076,0.0063229725,3.8289999999999997,9.419,0.122,-1
392,393,1582725186984,-0.7139354,0.7122936,0.44019090000000005,3.4,9.613,0.593,-1
393,394,1582725186994,-0.57885504,0.9080858,0.6521726999999999,3.5269999999999997,9.812000000000001,0.833,-1
394,395,1582725187004,-0.46737647,0.94594765,0.6148602,3.642,9.847999999999999,0.807,-1
395,396,1582725187014,-0.18463778,0.9253273000000001,0.44329333,3.9389999999999996,9.821,0.625,-1
396,397,1582725187024,0.5373974,0.7757559,-0.122207,4.689,9.658999999999999,0.027999999999999997,-1
397,398,1582725187034,1.0212516999999999,0.67770386,-0.5477048000000001,5.206,9.546,-0.44,d
398,399,1582725187045,0.65455055,0.9822178,-1.0217200000000002,4.871,9.836,-0.972,-1
399,400,1582725187055,0.5023947,1.0260916,-1.1849804,4.725,9.877,-1.147,-1
400,401,1582725187065,0.21519613,0.971508,-0.67842376,4.16,9.752,-0.308,-1
401,402,1582725187075,-0.14581537,0.9021024999999999,0.040778082,4.083,9.75,0.08800000000000001,-1
402,403,1582725187085,-0.21145725,0.6697092,0.7722286,4.018,9.517000000000001,0.8590000000000001,-1
403,404,1582725187095,-0.07695198,0.6012945,0.6211886999999999,4.164,9.443,0.716,-1
404,405,1582725187106,0.049397945,0.6703786999999999,0.34313083,4.2989999999999995,9.508,0.431,-1
405,406,1582725187116,0.48275614,0.7985171999999999,-0.21460858,5.1370000000000005,9.718,-0.708,-1
406,407,1582725187126,1.4823503,1.0830288000000001,-1.4907669,5.797999999999999,9.889,-1.511,-1
407,408,1582725187136,1.9339495,1.2422389999999999,-1.8915595,6.272,10.037,-1.954,-1
408,409,1582725187146,2.0627793999999997,1.2239351,-1.7912217000000001,6.416,10.011000000000001,-1.8769999999999998,-1
409,410,1582725187157,1.9161148000000001,1.2022943000000001,-1.6786304,6.274,9.987,-1.7690000000000001,-1
410,411,1582725187167,1.3813863000000002,1.1391163,-0.98712766,5.742999999999999,9.922,-1.075,-1
411,412,1582725187177,0.8920083000000001,1.0043335,-0.71924394,5.252000000000001,9.788,-0.809,-1
412,413,1582725187187,0.5211654,0.72949314,-0.61733764,4.881,9.513,-0.728,-1
413,414,1582725187198,0.7213025,0.9251299000000001,-1.0437628,5.0889999999999995,9.704,-1.202,-1
414,415,1582725187208,1.829248,1.2216348999999997,-2.0814455,6.2170000000000005,9.988999999999999,-2.3080000000000003,-1
415,416,1582725187218,2.942174,1.682291,-3.057245,7.355,10.435,-3.353,-1
416,417,1582725187228,3.975243,1.9026193999999998,-3.7458465,8.408,10.642999999999999,-4.102,-1
417,418,1582725187238,4.409757,1.8581648000000002,-3.6873370000000003,8.849,10.593,-4.095,-1
418,419,1582725187249,3.832502,1.8586283,-3.2453618,8.26,10.597000000000001,-3.702,-1
419,420,1582725187259,3.3735108,1.5434618,-2.9322188,7.79,10.286,-3.415,-1
420,421,1582725187269,2.2999372000000005,0.7114334,-1.7968534,6.678999999999999,9.467,-2.375,-1
421,422,1582725187279,2.3374605,0.47990227,-1.9819021,6.707999999999999,9.237,-2.6,-1
422,423,1582725187290,3.2361999,0.44003963,-3.4656801,7.597,9.192,-4.212,-1
423,424,1582725187300,3.7094746,0.46292782,-4.0004005,8.071,9.211,-4.787,-1
424,425,1582725187310,4.805968,0.4535017,-4.8609953,9.172,9.189,-5.755,-1
425,426,1582725187320,5.1239349999999995,0.36031723,-4.98033,9.488999999999999,9.093,-5.906000000000001,-1
426,427,1582725187331,6.0160594000000005,0.26084042,-5.0276765999999995,10.37,8.993,-6.0089999999999995,-1
427,428,1582725187341,6.158299400000001,-0.2286768,-4.702262,10.463,8.521,-5.742999999999999,-1
428,429,1582725187351,5.115583999999999,-0.6723442,-3.9769015,9.363999999999999,8.102,-5.041,-1
429,430,1582725187362,3.911943,-1.1634811999999999,-3.0128016,8.095,7.64,-4.095,-1
430,431,1582725187371,2.9541988,-1.371582,-1.8940703,7.082000000000001,7.455,-3.0,-1
431,432,1582725187381,2.6544185000000002,-1.5092802,-1.3776338,6.749,7.327999999999999,-2.521,-1
432,433,1582725187391,3.1471539,-1.7191276999999998,-1.6392576,7.209,7.127000000000001,-2.83,-1
433,434,1582725187402,3.493143,-2.0085945,-2.3713427000000005,7.513,6.849,-3.6180000000000003,-1
434,435,1582725187412,3.7118873999999997,-2.2974782000000005,-3.1647252999999997,7.672999999999999,6.579,-4.4639999999999995,-1
435,436,1582725187422,3.679196,-2.8112226000000002,-3.6195002,7.575,6.087999999999999,-4.96,-1
436,437,1582725187432,2.8891263,-3.4759067999999997,-2.9533505,6.782,5.412000000000001,-4.375,-1
437,438,1582725187443,1.9863343,-3.8050756000000003,-1.513959,5.776,5.1339999999999995,-2.8930000000000002,-1
438,439,1582725187453,1.0442681,-4.2924185,0.28739345,4.301,4.3919999999999995,-0.29600000000000004,-1
439,440,1582725187463,-0.05410433,-5.09856,2.5137327000000003,3.3960000000000004,4.011,1.381,-1
440,441,1582725187473,-0.50452733,-5.3792973,3.1336098,2.878,3.762,2.0540000000000003,-1
441,442,1582725187484,-1.4926486,-5.7084904000000005,4.0908065,1.76,3.491,3.111,-1
442,443,1582725187494,-2.3261279999999998,-5.8087015,4.173707,0.807,3.4410000000000003,3.281,-1
443,444,1582725187504,-2.9395425,-5.9422,4.0500526,-0.213,3.13,3.094,-1
444,445,1582725187514,-3.4209282,-6.230445,3.8251019,-0.522,3.113,3.142,-1
445,446,1582725187525,-3.4081614,-6.349298999999999,3.5551763,-0.5429999999999999,3.008,2.9210000000000003,-1
446,447,1582725187535,-2.629435,-6.915991,3.3473047999999994,0.162,2.474,2.8930000000000002,-1
447,448,1582725187546,-2.6089182,-6.8334546000000005,3.3285730000000004,0.165,2.565,2.948,-1
448,449,1582725187555,-2.8158257,-6.624262,5.047581,-0.086,2.7939999999999996,4.926,-1
449,450,1582725187565,-2.995325,-6.8542004,5.898632,-0.28,2.569,5.872000000000001,-1
450,451,1582725187575,-4.6463209999999995,-6.6022053,8.556853,-2.059,2.842,9.089,-1
451,452,1582725187586,-5.87438,-6.816160000000001,9.875817,-3.345,2.627,10.65,-1
452,453,1582725187596,-6.335191,-7.1200475999999995,10.20575,-3.82,2.32,11.06,-1
453,454,1582725187606,-6.713599,-7.047652,9.705546,-4.21,2.383,10.687999999999999,-1
454,455,1582725187617,-6.0423290000000005,-6.913827,6.4092503,-3.597,2.4930000000000003,7.7139999999999995,-1
455,456,1582725187627,-5.661004,-6.745174400000001,5.2653555999999995,-3.185,2.648,6.61,-1
456,457,1582725187637,-5.111431,-5.9329767,4.3825283,-2.344,3.748,5.898,-1
457,458,1582725187647,-4.6619725,-5.165381,5.9963045,-1.999,4.112,7.731,-1
458,459,1582725187658,-4.5737185,-5.2507269999999995,8.534815,-1.8719999999999999,3.949,10.593,-1
459,460,1582725187668,-4.918642,-5.443498,10.626774000000001,-2.121,3.685,12.866,-1
460,461,1582725187678,-5.291932,-5.796897,11.368573,-2.378,3.266,13.722999999999999,-1
461,462,1582725187688,-5.163433,-5.9095817,10.744071,-2.114,3.091,13.165,-1
462,463,1582725187699,-4.786302,-5.5397099999999995,8.527928999999999,-1.597,3.3930000000000002,11.019,-1
463,464,1582725187709,-4.692501999999999,-4.8866415000000005,6.2563553,-1.4409999999999998,3.946,9.01,-1
464,465,1582725187719,-4.873130000000001,-4.2069589999999994,5.2609167,-1.568,4.5169999999999995,8.283999999999999,-1
465,466,1582725187729,-4.770837,-3.7112217000000003,7.765604,-1.3259999999999998,4.8180000000000005,11.165,-1
466,467,1582725187739,-4.353322,-3.7741451,8.988757000000001,-0.838,4.684,12.492,-1
467,468,1582725187750,-3.8555123999999994,-4.016335,10.914824000000001,-0.18899999999999997,4.296,14.607000000000001,-1
468,469,1582725187760,-3.5353407999999997,-4.265934,11.778155,0.299,3.903,15.617,-1
469,470,1582725187770,-2.5944152000000003,-4.428517299999999,11.338844,1.429,3.602,15.275,-1
470,471,1582725187781,-0.24736166,-3.8060474,9.059904,4.085,4.018,13.083,-1
471,472,1582725187791,0.24274778,-3.0031567000000003,8.215845,4.677,4.749,12.267000000000001,-1
472,473,1582725187801,2.3422055,-1.3321938999999998,7.090514999999999,7.06,6.183,11.265999999999998,-1
473,474,1582725187811,3.5352987999999996,-0.7895956000000001,7.525704400000001,8.413,6.547000000000001,11.833,-1
474,475,1582725187822,4.028055,-0.69113207,7.818078999999999,8.974,6.5520000000000005,12.205,-1
475,476,1582725187832,4.287586,-1.3228354,8.7688465,9.398,5.632999999999999,13.424000000000001,-1
476,477,1582725187842,3.8550730000000004,-1.2342801,9.281162,9.055,5.53,14.116,-1
477,478,1582725187853,4.192322,-0.36166143,9.754277,9.481,6.212000000000001,14.753,-1
478,479,1582725187862,6.263692400000001,0.6923336999999999,9.746433,11.649000000000001,7.077000000000001,14.885,-1
479,480,1582725187872,9.012232000000001,1.7203311999999997,8.831763,14.497,7.9270000000000005,14.082,-1
480,481,1582725187882,11.343146,2.1538357999999995,7.049910000000001,16.92,8.205,12.384,-1
481,482,1582725187892,12.574893,2.1076164,4.8879824,18.223,8.032,10.289000000000001,-1
482,483,1582725187903,12.009875,1.6489391,3.3262568,17.699,7.472,8.794,-1
483,484,1582725187913,10.19219,1.1516604,2.883387,15.895,6.888,8.427999999999999,-1
484,485,1582725187923,9.203445,1.1168194,2.9948382000000002,14.905999999999999,6.811,8.583,-1
485,486,1582725187933,9.7276325,2.2471752,2.641005,15.421,7.807,8.372,-1
486,487,1582725187944,12.277277,3.1836637999999997,1.7012501,17.965,8.65,7.527,-1
487,488,1582725187954,14.609432,3.7801837999999996,0.082007885,20.288,9.165,5.992000000000001,-1
488,489,1582725187964,16.427623999999998,3.7259873999999997,-1.9454707999999998,22.089000000000002,9.052999999999999,4.033,-1
489,490,1582725187974,16.93144,3.4397172999999994,-4.029047,22.563000000000002,8.738999999999999,2.002,-1
490,491,1582725187985,15.2726345,2.989275,-5.6507187000000005,20.858,8.291,0.42100000000000004,-1
491,492,1582725187994,12.47653,2.0521417,-6.0693383,18.005,7.376,0.035,-1
492,493,1582725188004,10.202764,1.1733913,-6.0988126,15.675,6.526,0.031,-1
493,494,1582725188014,9.092516,1.050942,-6.10519,14.517999999999999,6.43,0.043,-1
494,495,1582725188024,9.977047,1.1878943000000002,-6.577853,15.366,6.587999999999999,-0.41600000000000004,-1
495,496,1582725188035,11.233054,1.1042094,-7.4537354,16.592,6.524,-1.2830000000000001,-1
496,497,1582725188044,11.4923935,1.0463195,-8.773113,16.822,6.49,-2.5980000000000003,-1
497,498,1582725188054,11.407159,0.8841815000000001,-9.075358999999999,16.722,6.3420000000000005,-2.9,-1
498,499,1582725188064,10.542304,0.1626296,-10.220535,15.823,5.669,-4.059,-1
499,500,1582725188074,9.767842,-0.115986824,-10.618963,15.04,5.4270000000000005,-4.4830000000000005,-1
500,501,1582725188084,8.952406,-0.7310151999999999,-10.774339,14.228,4.849,-4.675,-1
501,502,1582725188094,7.8234425000000005,-0.95111704,-10.537048,13.115,4.663,-4.4830000000000005,-1
502,503,1582725188104,7.404476,-1.2302785,-10.247689999999999,12.71,4.399,-4.22,-1
503,504,1582725188115,7.413041000000001,-1.2868481,-10.392325999999999,12.779000000000002,4.38,-4.454,-1
504,505,1582725188125,7.882633,-1.2819443000000001,-11.225867,13.297,4.406000000000001,-5.352,-1
505,506,1582725188135,8.083433,-1.5701399,-12.2102585,13.546,4.136,-6.399,-1
506,507,1582725188145,8.254636999999999,-2.0210836,-13.097927,13.761,3.695,-7.337999999999999,-1
507,508,1582725188155,8.431125999999999,-2.6055984,-13.29437,13.977,3.1060000000000003,-7.568,-1
508,509,1582725188165,8.300428,-3.111524,-12.600742,13.886,2.5789999999999997,-6.892,-1
509,510,1582725188175,7.830938300000001,-3.7853794,-10.907974000000001,13.464,1.868,-5.209,-1
510,511,1582725188185,7.089191400000001,-4.272163,-8.907149,12.789000000000001,1.329,-3.2230000000000003,-1
511,512,1582725188195,6.3468676,-4.5144033,-6.927111599999999,12.142000000000001,1.022,-1.276,-1
512,513,1582725188205,5.843279,-4.9632916,-5.7649455000000005,11.761,0.5,-0.17,-1
513,514,1582725188216,5.156268,-4.9784865,-5.259622599999999,11.227,0.402,0.251,-1
514,515,1582725188226,5.021776999999999,-4.991021599999999,-5.651585,11.258,0.301,-0.24100000000000002,-1
515,516,1582725188236,5.318069,-5.134366,-5.7544900000000005,11.702,0.064,-0.426,-1
516,517,1582725188246,6.006355,-5.177662000000001,-5.0535326,12.511,-0.081,0.22699999999999998,-1
517,518,1582725188256,6.5382586,-5.072915,-3.7872635999999997,13.145999999999999,-0.086,1.47,-1
518,519,1582725188266,6.9597993,-5.048634,-1.7218401,13.663,-0.172,3.5180000000000002,-1
519,520,1582725188276,6.648040299999999,-4.9424157,0.24270535,13.448,-0.16699999999999998,5.4510000000000005,-1
520,521,1582725188287,5.436976400000001,-4.6966295,1.7821759999999998,12.341,-0.009000000000000001,6.933,-1
521,522,1582725188297,4.2338486,-4.5107975,2.8768568,11.247,0.1,7.949,-1
522,523,1582725188307,3.4263382000000004,-4.3877180000000005,3.372733,10.55,0.15,8.356,-1
523,524,1582725188318,3.1415834,-4.1755958,3.9904455999999997,10.37,0.287,8.89,-1
524,525,1582725188328,3.2512846,-4.1092844,4.815457,10.574000000000002,0.273,9.647,-1
525,526,1582725188338,3.3045477999999995,-3.9367635,6.2171044,10.71,0.359,11.0,-1
526,527,1582725188348,2.923852,-3.7348497000000003,8.097843,10.401,0.47100000000000003,12.849,-1
527,528,1582725188358,2.6333942,-3.3389008000000002,10.538021,10.174,0.78,15.265,-1
528,529,1582725188369,2.1272173,-2.7798328,13.081209,9.73,1.262,17.775,-1
529,530,1582725188379,1.1204495,-2.330103,14.674470999999999,8.787,1.6569999999999998,19.311,-1
530,531,1582725188389,-0.18918276,-1.681499,14.487778,7.57,2.27,18.999000000000002,-1
531,532,1582725188400,-0.52461576,-1.3652819999999999,13.229438,7.037999999999999,2.5839999999999996,17.656,-1
532,533,1582725188410,-1.1256871000000002,-1.0950322000000001,11.902258,6.72,2.859,16.259,-1
533,534,1582725188420,-1.0554543,-0.89399457,11.292847,6.803999999999999,3.063,15.622,-1
534,535,1582725188431,-0.49257803,-0.6090038000000001,9.338251,7.393,3.353,13.615,-1
535,536,1582725188441,-0.37303066,-0.37578702,9.1412,7.517,3.5869999999999997,13.409,-1
536,537,1582725188451,-0.0716176,0.017962217,8.177458,7.822,3.99,12.43,-1
537,538,1582725188461,-0.70881987,0.10062241599999999,7.556225,7.1770000000000005,4.09,11.807,-1
538,539,1582725188471,-1.4930896999999999,0.050104618,7.2354617,6.375,4.064,11.495999999999999,-1
539,540,1582725188482,-1.9811063000000002,-0.11104560000000001,7.091831,5.8629999999999995,3.932,11.369000000000002,-1
540,541,1582725188492,-2.3766026,0.016388893,6.6085606,5.439,4.093,10.905999999999999,-1
541,542,1582725188502,-2.4975228,-0.03738594,6.261262400000001,5.3020000000000005,4.0569999999999995,10.571,-1
542,543,1582725188512,-2.1091613999999996,0.15956974,4.441503,5.63,4.308,8.808,-1
543,544,1582725188522,-1.5713162,0.13636827,3.1679964,6.1160000000000005,4.3180000000000005,7.593999999999999,-1
544,545,1582725188533,-0.9827633,0.06158161,2.0813718,6.65,4.272,6.574,-1
545,546,1582725188542,-0.83677626,0.020379543,1.7712588,6.739,4.255,6.337000000000001,-1
546,547,1582725188552,-0.8365841,-0.11354303,1.7651758000000002,6.707999999999999,4.129,6.375,-1
547,548,1582725188562,-1.2908458999999999,-0.3770125,2.214738,6.145,3.8789999999999996,6.986000000000001,-1
548,549,1582725188572,-1.8536668,-0.47898029999999997,2.6684737000000003,5.496,3.781,7.568,-1
549,550,1582725188582,-1.9460168000000002,-0.47360945,2.4388213,5.3,3.7880000000000003,7.489,-1
550,551,1582725188593,-1.6960683,-0.47044158,2.006816,5.422000000000001,3.786,7.24,-1
551,552,1582725188603,-1.4275316999999998,-0.30304408,1.1988583000000002,5.622999999999999,3.958,6.519,-1
552,553,1582725188613,-0.79920006,-0.19932652,0.52706814,6.2170000000000005,4.066,5.888999999999999,-1
553,554,1582725188623,0.056049824000000005,-0.16769695,-0.28490496,7.065,4.0969999999999995,5.087,-1
554,555,1582725188633,0.6351433000000001,0.06253052,-1.0098,7.676,4.33,4.3180000000000005,-1
555,556,1582725188644,0.79777336,0.010207176,-0.90034103,7.865,4.272,4.397,-1
556,557,1582725188654,0.5507345,-0.16131163,-0.14130354,7.617999999999999,4.083,5.17,-1
557,558,1582725188664,-0.22225618,-0.27328086,0.9424800999999999,6.816,3.951,6.308,-1
558,559,1582725188674,-0.6708331,-0.2877493,1.8090181,6.327000000000001,3.92,7.24,d
559,560,1582725188685,-0.45389175,-0.26082182,1.6275005,6.513999999999999,3.935,7.106,-1
560,561,1582725188695,0.00423193,-0.17680264,0.72696733,6.955,4.013999999999999,6.231,-1
561,562,1582725188705,0.27078104,-0.023697852999999998,-0.43322706,7.225,4.169,5.065,-1
562,563,1582725188716,0.6520090000000001,0.13192749,-1.063508,7.635,4.33,4.394,-1
563,564,1582725188725,0.93846893,0.08912897,-0.9042844999999999,7.941,4.277,4.5360000000000005,-1
564,565,1582725188735,1.321825,0.20786524,-0.009357929000000001,8.325,4.375,5.446000000000001,-1
565,566,1582725188745,1.4447508,0.3237176,0.95789003,8.44,4.468999999999999,6.44,-1
566,567,1582725188755,1.4116349,0.6541953,1.4451403999999999,8.396,4.785,6.952000000000001,-1
567,568,1582725188766,1.2577386000000002,1.1300219999999999,1.5192261,8.231,5.257000000000001,7.042999999999999,-1
568,569,1582725188776,1.6483183000000001,1.2967997,1.3745694,8.613999999999999,5.428999999999999,6.904,-1
569,570,1582725188786,2.5296578,1.5784059,1.1974025,9.493,5.721,6.722,-1
570,571,1582725188796,2.86876,1.6784191000000002,1.4612813,9.831,5.836,6.976,-1
571,572,1582725188807,2.9790359,1.560698,1.8613248,9.939,5.7379999999999995,7.364,-1
572,573,1582725188817,2.7478228,1.7722731,2.2087636,9.699,5.97,7.707000000000001,-1
573,574,1582725188828,2.3661551,2.2764707000000004,2.8226852000000004,9.295,6.49,8.337,-1
574,575,1582725188838,2.303084,2.7546744,3.8127574999999996,9.196,6.976,9.366,-1
575,576,1582725188848,2.5072546,3.6506562000000007,5.7790885,9.335,7.879,11.407,-1
576,577,1582725188858,3.2445487999999996,3.9465112999999996,6.951474,10.03,8.19,12.619000000000002,-1
577,578,1582725188868,3.5073276,4.0988545,7.269895,10.272,8.356,12.952,-1
578,579,1582725188879,4.4892244,4.3543553,8.179478,11.187000000000001,8.684,13.886,-1
579,580,1582725188889,5.2836669999999994,4.3942614,8.354498,11.929,8.804,14.061,-1
580,581,1582725188899,5.089568,4.431939,8.3017235,11.668,8.95,14.001,-1
581,582,1582725188909,4.368842,4.327946,7.448963000000001,10.860999999999999,8.978,13.140999999999998,-1
582,583,1582725188919,3.9088955000000003,4.292158000000001,6.761031,10.293,9.086,12.456,-1
583,584,1582725188930,3.7632847000000003,4.0569143,6.691807700000001,10.023,8.998,12.399000000000001,-1
584,585,1582725188940,3.5623975,3.7495909,7.1766057,9.692,8.842,12.892000000000001,-1
585,586,1582725188950,3.4554047999999997,3.5208192000000005,7.6781917,9.457,8.775,13.383,-1
586,587,1582725188960,3.4511356,2.9983087000000004,7.498696000000001,9.33,8.432,13.163,-1
587,588,1582725188970,3.5469503,2.7954478,6.2824097000000005,9.309,8.427999999999999,11.872,-1
588,589,1582725188981,4.2674174,2.565659,4.475057,9.917,8.411,9.96,-1
589,590,1582725188991,4.920361,2.2748828,2.7996988,10.454,8.339,8.164,-1
590,591,1582725189001,5.102901999999999,1.8867283,1.6410952,10.509,8.169,6.882999999999999,-1
591,592,1582725189011,4.858264,1.4531221,1.7318883000000003,10.123,7.949,6.856,-1
592,593,1582725189022,4.0890594,0.83972645,2.0558915,9.201,7.544,7.065,-1
593,594,1582725189032,3.3384175000000003,0.30855846,2.460216,8.291,7.216,7.352,-1
594,595,1582725189042,2.6311970000000002,-0.114513874,2.4183955000000004,7.426,6.9910000000000005,7.182,-1
595,596,1582725189052,2.5447307,-0.41425514,2.1554427000000005,7.192,6.885,6.77,-1
596,597,1582725189062,2.8772472999999996,-0.58184385,1.3000293,7.393,6.907,5.7379999999999995,-1
597,598,1582725189073,3.3278790000000003,-0.6878133000000001,0.055571555999999994,7.728,6.986000000000001,4.289,-1
598,599,1582725189083,3.6461495999999998,-1.231647,-1.6465192,7.952999999999999,6.617000000000001,2.356,-1
599,600,1582725189093,2.8077602,-1.5445371,-2.30458,7.082000000000001,6.454,1.4269999999999998,-1
600,601,1582725189103,1.5313072,-1.8787198,-2.3606787000000002,5.672999999999999,6.277,1.175,-1
601,602,1582725189113,0.6913283,-2.2536650000000003,-1.6393658,4.6819999999999995,6.042000000000001,1.7409999999999999,-1
602,603,1582725189123,0.0072100163,-2.6552057000000002,-0.47251058,3.8510000000000004,5.7620000000000005,2.775,-1
603,604,1582725189133,-0.18524766,-2.8491979,0.15243769,3.525,5.676,3.2710000000000004,-1
604,605,1582725189143,0.17334914,-3.3095093,0.12160873400000001,3.7689999999999997,5.314,3.1010000000000004,-1
605,606,1582725189154,0.52460384,-3.6608815000000003,-0.43723655,4.023,5.055,2.385,-1
606,607,1582725189164,1.1316921999999998,-3.8144035000000005,-1.4539474,4.548,4.988,1.195,-1
607,608,1582725189174,1.9355142,-3.7357578,-2.446587,5.2829999999999995,5.146,0.019,-1
608,609,1582725189184,2.8889115000000003,-3.4151358999999997,-3.0436678,6.183,5.537000000000001,-0.768,-1
609,610,1582725189195,3.3989477,-3.1614169999999997,-3.9817271,6.665,5.851,-1.913,-1
610,611,1582725189205,2.6318657,-3.7629762,-4.024559,5.797999999999999,5.336,-2.193,-1
611,612,1582725189215,2.2215613999999997,-3.9515190000000002,-3.5927347999999997,5.332999999999999,5.175,-1.805,-1
612,613,1582725189225,1.0540729,-4.537694999999999,-2.2598064,4.045,4.638999999999999,-0.524,-1
613,614,1582725189235,0.29946350000000005,-4.873389700000001,-0.776641,3.173,4.346,0.9309999999999999,-1
614,615,1582725189246,0.19234300000000001,-4.763543,0.27027535,2.9210000000000003,4.5089999999999995,1.9269999999999998,-1
615,616,1582725189255,0.38506293,-4.6666360000000005,0.15131772,3.075,4.622,1.781,-1
616,617,1582725189265,0.9380071,-4.618655,-0.76123583,3.5610000000000004,4.7010000000000005,0.799,-1
617,618,1582725189275,1.1819620000000002,-4.6961536,-1.9743991,3.745,4.6530000000000005,-0.493,-1
618,619,1582725189285,0.8817284,-4.7328410000000005,-2.3096018,3.386,4.643,-0.898,-1
619,620,1582725189295,0.13448954,-4.4510955999999995,-1.3462031,2.5810000000000004,4.948,0.011000000000000001,-1
620,621,1582725189306,-0.3376677,-4.746965400000001,-0.079461336,2.059,4.672,1.228,-1
621,622,1582725189316,-0.32723427,-4.550871,0.9871850000000001,2.035,4.885,2.234,-1
622,623,1582725189326,0.55906653,-4.2673926,0.6843199999999999,2.905,5.19,1.791,-1
623,624,1582725189336,1.3053583999999998,-4.4340043,-0.05738336,3.657,5.0360000000000005,0.922,-1
624,625,1582725189346,1.7109988,-4.562776,-1.1527013000000002,4.071000000000001,4.919,-0.318,-1
625,626,1582725189356,1.7802289,-4.851823,-2.5466118,4.145,4.641,-1.865,-1
626,627,1582725189367,1.7550081999999998,-4.892667299999999,-3.0696428,4.121,4.605,-2.464,-1
627,628,1582725189377,1.3879616000000001,-4.328546,-4.222799,3.755,5.18,-3.8289999999999997,-1
628,629,1582725189387,1.0318594,-3.970868,-4.3797665,3.398,5.542000000000001,-4.102,-1
629,630,1582725189397,0.6645131,-3.7364144,-4.1729959999999995,3.029,5.779,-3.9819999999999998,-1
630,631,1582725189408,0.33850765,-3.5778952000000004,-3.4761336000000003,2.701,5.939,-3.343,-1
631,632,1582725189418,0.24249410000000002,-3.4131517,-2.9959722,2.605,6.104,-2.883,-1
632,633,1582725189428,0.11704516400000001,-3.2976074,-2.5327144,2.354,6.274,-2.378,-1
633,634,1582725189438,0.44561505,-3.2357697,-2.3897939,2.8280000000000003,6.277,-2.347,-1
634,635,1582725189448,1.0462761,-2.9332404,-2.516989,3.451,6.574,-2.5069999999999997,-1
635,636,1582725189458,1.3264234,-2.8847213,-2.7909372,4.0760000000000005,6.678999999999999,-2.8810000000000002,-1
636,637,1582725189468,1.6449485000000001,-2.6704712,-2.9185407000000003,4.095,6.825,-2.9789999999999996,-1
637,638,1582725189478,1.0763922,-2.2457514,-2.7071004000000003,3.5610000000000004,7.24,-2.84,-1
638,639,1582725189489,0.58232665,-2.1870412999999997,-2.7879226000000004,3.0789999999999997,7.295,-2.955,-1
639,640,1582725189498,0.38463593,-1.8669566999999998,-2.842738,2.888,7.6129999999999995,-3.0269999999999997,-1
640,641,1582725189508,0.32241917,-1.0624962,-2.1914082,2.8569999999999998,8.408,-2.428,-1
641,642,1582725189518,0.56138825,-1.0375204,-1.9558516,3.113,8.427999999999999,-2.208,-1
642,643,1582725189528,1.036766,-1.015873,-1.132541,3.633,8.437000000000001,-1.403,-1
643,644,1582725189538,1.4134347,-0.9438534,-0.6858541,4.069,8.492,-0.9740000000000001,-1
644,645,1582725189549,1.7745695,-0.9133815999999999,-0.8895924000000001,4.521,8.495,-1.2209999999999999,-1
645,646,1582725189559,1.9270843999999998,-0.24446678,-1.2919638,4.766,9.134,-1.686,-1
646,647,1582725189569,2.1422767999999994,-0.16624641,-1.3470381,5.0,9.206,-1.7530000000000001,-1
647,648,1582725189579,1.8474143,0.3761158,-1.5846446,4.737,9.738,-2.004,-1
648,649,1582725189590,0.84812737,0.56659985,-0.96845895,3.738,9.929,-1.374,-1
649,650,1582725189600,0.43478370000000005,0.42590237,-0.48380387,3.321,9.79,-0.8759999999999999,-1
650,651,1582725189610,-0.6403260000000001,0.10668278,0.49783367,2.205,9.486,0.177,-1
651,652,1582725189621,-1.1044519,-0.042650223,0.56434464,1.71,9.347000000000001,0.275,-1
652,653,1582725189631,-0.54698443,0.06619549,-0.08117795,2.253,9.46,-0.376,-1
653,654,1582725189641,0.38995528,0.36854362,-0.6857873000000001,3.214,9.754,-1.015,-1
654,655,1582725189651,1.3439003999999999,0.66404533,-1.207359,4.205,10.037,-1.571,-1
655,656,1582725189661,1.5231413999999999,0.8927107,-1.4186221,4.416,10.255,-1.805,-1
656,657,1582725189672,0.9162171,0.8611679,-1.1179298999999998,3.8289999999999997,10.217,-1.511,-1
657,658,1582725189682,0.2762034,0.7298784,-0.32291806,3.199,10.083,-0.706,-1
658,659,1582725189692,-0.14821601,0.61752033,0.4134825,2.78,9.97,0.057,-1
659,660,1582725189702,-0.48697138,0.5745640000000001,0.9144485000000001,2.445,9.927,0.589,-1
660,661,1582725189713,-0.3755083,0.6109991,0.91350913,2.569,9.96,0.603,d
661,662,1582725189723,0.022841692,0.812397,0.68424594,2.9960000000000004,10.152000000000001,0.364,-1
662,663,1582725189733,1.0421808000000001,0.9976176999999999,0.10969092,4.059,10.322000000000001,-0.244,-1
663,664,1582725189744,2.0670574,1.1063471,-0.9256030999999999,5.132000000000001,10.413,-1.329,-1
664,665,1582725189753,2.1042332999999998,1.2288493999999999,-1.8597765,5.206,10.520999999999999,-2.313,-1
665,666,1582725189763,1.4693873,1.007946,-1.7768,4.593,10.290999999999999,-2.265,-1
666,667,1582725189773,0.39144254,0.92587566,-0.3079217,3.525,10.205,-0.807,-1
667,668,1582725189784,0.34824038,0.5775471,0.87550986,3.4939999999999998,9.853,0.385,-1
668,669,1582725189793,0.9524969999999999,0.710639,0.89849854,4.124,9.977,0.402,-1
669,670,1582725189803,1.2334516000000002,0.7700529,0.48512405,4.421,10.03,-0.027999999999999997,-1
670,671,1582725189813,2.43378,0.98900986,-1.6606671000000002,5.671,10.226,-2.2680000000000002,-1
671,672,1582725189824,3.2366203999999996,1.2872428999999999,-3.1198187,6.497000000000001,10.511,-3.8,-1
672,673,1582725189834,2.8906549999999998,1.2319622,-3.6090093,6.157,10.449000000000002,-4.349,-1
673,674,1582725189844,2.0635266,1.1815328999999999,-3.212572,5.319,10.399000000000001,-3.9939999999999998,-1
674,675,1582725189854,1.3009858,0.94890594,-2.1937802000000004,4.5360000000000005,10.171,-3.005,-1
675,676,1582725189865,0.7078871999999999,0.6496773,-1.6458406000000003,3.92,9.877,-2.488,-1
676,677,1582725189875,0.59604836,0.52111244,-1.7072196,3.793,9.75,-2.589,-1
677,678,1582725189885,1.6845061999999997,0.712862,-2.666143,4.885,9.936,-3.594,-1
678,679,1582725189895,3.4281260000000002,1.2193832,-3.5737064,6.646,10.432,-4.545,-1
679,680,1582725189906,6.5099173,1.8765688000000003,-5.3968620000000005,9.75,11.075999999999999,-6.417999999999999,-1
680,681,1582725189916,7.1094990000000005,1.9043283,-5.711068599999999,10.347999999999999,11.103,-6.744,-1
681,682,1582725189926,6.5798273,1.4477863000000002,-5.835136,9.766,10.662,-6.892,-1
682,683,1582725189936,4.979804,0.6115227,-4.8518305,8.097000000000001,9.847999999999999,-5.92,-1
683,684,1582725189947,2.626215,-0.18045425,-2.8999362,5.666,9.079,-3.992,-1
684,685,1582725189957,1.7309926,-0.38860035,-0.98729086,4.715,8.883,-2.129,-1
685,686,1582725189967,2.5751277999999997,-0.74634457,-1.2075323999999998,5.537000000000001,8.521,-2.438,-1
686,687,1582725189977,3.2943845,-0.88228893,-3.4313239999999996,6.222,8.377,-4.797,-1
687,688,1582725189988,3.4368966,-1.1895494,-6.033424,6.318,8.061,-7.5489999999999995,-1
688,689,1582725189998,3.664211,-1.4849691,-7.202002499999999,6.521,7.7620000000000005,-8.783999999999999,-1
689,690,1582725190008,4.0650187,-2.0504947000000002,-8.208139,6.856,7.194,-9.917,-1
690,691,1582725190018,4.5570574,-2.1570720000000003,-6.6808065999999995,7.316,7.093999999999999,-8.406,-1
691,692,1582725190028,5.135857,-2.1818557000000003,-4.279271,7.874,7.079,-5.985,-1
692,693,1582725190039,5.3397809999999994,-2.377636,-3.025866,8.064,6.892,-4.706,-1
693,694,1582725190049,5.1806589999999995,-2.5064597,-2.4388900000000002,7.888999999999999,6.77,-4.107,-1
694,695,1582725190059,4.6774096,-2.7918448,-2.3702992999999997,7.376,6.485,-4.052,-1
695,696,1582725190070,3.8760373999999995,-3.2800955999999997,-2.4725148999999997,6.641,5.961,-4.2410000000000005,-1
696,697,1582725190080,2.984476,-3.8525991000000004,-2.6730275000000003,5.7139999999999995,5.391,-4.4830000000000005,-1
697,698,1582725190090,2.0780807,-4.4632783,-2.6482918,4.7219999999999995,4.806,-4.454,-1
698,699,1582725190100,1.3071663,-5.1613345,-2.5279675,3.855,4.143,-4.291,-1
699,700,1582725190110,0.8657644,-5.6752367,-1.8124981,3.321,3.6689999999999996,-3.4939999999999998,-1
700,701,1582725190120,0.33672023,-6.281084,-0.5511178000000001,2.708,3.1060000000000003,-2.11,-1
701,702,1582725190130,0.034217357999999996,-6.542331,1.4308003999999999,2.332,2.888,0.031,-1
702,703,1582725190140,-0.66466355,-6.7049494,4.1419735,1.5659999999999998,2.766,2.9189999999999996,-1
703,704,1582725190150,-1.6443179,-6.7320924,6.631508,0.519,2.775,5.58,-1
704,705,1582725190161,-2.3493292,-6.7819247,7.9395804000000005,-0.253,2.7560000000000002,7.042999999999999,-1
705,706,1582725190171,-3.1956757999999996,-7.091713,7.588158,-1.163,2.471,6.818,-1
706,707,1582725190181,-3.9211949999999995,-7.491308999999999,6.1941752,-1.9369999999999998,2.09,5.537000000000001,-1
707,708,1582725190192,-4.5777392,-7.8834867,5.574501000000001,-2.9210000000000003,1.726,5.894,-1
708,709,1582725190202,-5.299274400000001,-7.8418365,7.551781,-3.345,1.765,7.307,-1
709,710,1582725190212,-6.6390210000000005,-7.7755847000000005,12.401636,-4.699,1.8359999999999999,12.557,-1
710,711,1582725190223,-8.180541999999999,-7.581335,17.937254,-6.2,2.011,18.422,-1
711,712,1582725190233,-9.594588,-7.1728179999999995,22.859537,-7.51,2.371,23.72,-1
712,713,1582725190243,-8.956244,-7.001094999999999,22.301672,-6.765,2.5069999999999997,23.284000000000002,-1
713,714,1582725190253,-7.6917543,-6.5225506,19.520811,-5.367000000000001,2.95,20.539,-1
714,715,1582725190263,-6.9627056,-6.0147476,17.752602,-4.564,3.4389999999999996,18.774,-1
715,716,1582725190274,-5.2579947,-4.2775644999999995,15.1517935,-2.627,5.11,16.211,-1
716,717,1582725190284,-5.715561,-3.6347283999999997,16.555958,-2.9330000000000003,5.7,17.692,-1
717,718,1582725190294,-6.4008427,-3.5976510000000004,19.08375,-3.465,5.678,20.314,-1
718,719,1582725190304,-6.4814095,-3.3113022000000005,20.053268,-3.3789999999999996,5.901,21.349,-1
719,720,1582725190315,-5.5590660000000005,-2.8260807999999997,18.928535,-2.27,6.32,20.233,-1
720,721,1582725190325,-2.9450222999999998,-1.8991241,16.852257,0.5529999999999999,7.175,18.115,-1
721,722,1582725190335,0.00062799454,-1.0243381999999999,14.013710999999999,3.721,7.97,15.21,-1
722,723,1582725190345,2.1781932999999998,-0.25462246,11.220084,6.121,8.652999999999999,12.350999999999999,-1
723,724,1582725190355,2.9832267999999997,0.67995644,9.483957,7.138999999999999,9.496,10.569,-1
724,725,1582725190366,3.4015646,1.2131823999999998,9.169758999999999,7.7589999999999995,9.934,10.232999999999999,-1
725,726,1582725190376,3.7423644,1.0196285,9.320203999999999,8.293,9.642000000000001,10.377,-1
726,727,1582725190386,4.4432297,1.4631108999999998,8.691957,9.182,9.984,9.745,-1
727,728,1582725190396,6.3659897,2.069562,7.3865914,11.294,10.482999999999999,8.435,-1
728,729,1582725190406,8.897523,2.6199255,5.632823999999999,14.013,10.921,6.678999999999999,-1
729,730,1582725190417,10.526561000000001,3.4272442,3.7174067,15.815999999999999,11.618,4.768,-1
730,731,1582725190427,11.536125,3.4824762000000002,1.9085906000000004,16.977999999999998,11.572000000000001,2.965,-1
731,732,1582725190437,11.071466000000001,3.223631,0.28992105,16.637999999999998,11.227,1.3530000000000002,-1
732,733,1582725190448,9.379786,2.9202485,-0.5212318,15.043,10.854000000000001,0.5529999999999999,-1
733,734,1582725190458,7.651934,2.2855863999999997,-0.4871866,13.392000000000001,10.162,0.601,-1
734,735,1582725190468,6.8612747,2.2161236,-0.31430727,12.672,10.039,0.785,-1
735,736,1582725190478,8.471838,2.5485997000000005,-1.4141778999999999,14.362,10.312000000000001,-0.316,-1
736,737,1582725190489,10.427927,2.8632134999999996,-3.7949889999999997,16.401,10.565999999999999,-2.718,-1
737,738,1582725190499,11.265022,2.9825177000000003,-5.9444284000000005,17.311,10.633,-4.902,-1
738,739,1582725190509,11.324067999999999,2.5723639,-8.065489,17.426,10.183,-7.058,-1
739,740,1582725190519,9.515512,1.5615873,-10.0526085,15.663,9.139,-9.072000000000001,-1
740,741,1582725190530,7.440960400000001,0.96248627,-10.023386,13.597999999999999,8.531,-9.033999999999999,-1
741,742,1582725190540,6.317522,0.5874748000000001,-9.15152,12.482000000000001,8.147,-8.14,-1
742,743,1582725190550,6.5190269999999995,0.5032172,-8.588604,12.698,8.049,-7.563,-1
743,744,1582725190560,7.7763233,0.65020514,-9.46164,13.979000000000001,8.177999999999999,-8.447000000000001,-1
744,745,1582725190571,8.637117,0.92775106,-11.595687,14.865,8.44,-10.620999999999999,-1
745,746,1582725190581,9.446810000000001,0.86836433,-13.252414000000002,15.696,8.37,-12.334000000000001,-1
746,747,1582725190591,10.253369000000001,0.7006439999999999,-14.369951,16.516,8.198,-13.51,-1
747,748,1582725190601,10.430378999999999,0.47382736,-14.480699,16.692999999999998,7.977,-13.673,-1
748,749,1582725190612,9.840564,-0.027493477000000002,-13.624292,16.087,7.494,-12.863,-1
749,750,1582725190622,8.792525999999999,-0.4929633,-12.568299,15.009,7.058,-11.855,-1
750,751,1582725190632,7.879654400000001,-1.121273,-11.899057,14.058,6.466,-11.242,-1
751,752,1582725190642,7.193637400000001,-1.5313911,-11.357656500000001,13.33,6.095,-10.763,-1
752,753,1582725190653,6.6146006999999996,-1.9810667000000002,-11.339402,12.707,5.685,-10.806,-1
753,754,1582725190663,5.8965225,-2.5257462999999998,-11.486641,11.943,5.18,-11.005,-1
754,755,1582725190673,5.084868,-2.9198869999999997,-11.832460000000001,11.084000000000001,4.825,-11.388,-1
755,756,1582725190683,4.5759745,-3.5018654000000002,-11.427067999999998,10.53,4.279,-11.005,-1
756,757,1582725190693,4.92716,-4.028866000000001,-9.910119,10.844000000000001,3.781,-9.501,-1
757,758,1582725190704,5.528417,-4.492344,-7.7004576,11.419,3.338,-7.303999999999999,-1
758,759,1582725190714,6.5262519999999995,-4.716289,-6.0938587,12.394,3.1319999999999997,-5.7139999999999995,-1
759,760,1582725190724,6.534366599999999,-4.648617,-4.6587462,12.375,3.221,-4.303,-1
760,761,1582725190734,6.228127,-4.6388397,-3.9774802000000005,12.039000000000001,3.2539999999999996,-3.65,-1
761,762,1582725190744,5.8913693,-4.8793050000000004,-3.8528175000000005,11.673,3.036,-3.551,-1
762,763,1582725190754,5.300402,-5.218277,-3.0691292000000003,11.064,2.7110000000000003,-2.79,-1
763,764,1582725190765,4.777176,-5.6721554,-1.8295043000000002,10.557,2.246,-1.571,-1
764,765,1582725190775,3.8906940999999997,-5.910643,-0.4954481,9.817,1.899,-0.253,-1
765,766,1582725190785,3.0257382,-6.3994493,0.56789756,9.22,1.199,0.823,-1
766,767,1582725190795,2.1846237,-6.7373004000000005,1.6122569,8.377,0.862,1.8869999999999998,-1
767,768,1582725190806,1.1977816000000001,-7.020212,3.111008,7.357,0.605,3.412,-1
768,769,1582725190816,0.5164479999999999,-7.2040405,4.8546853,6.65,0.44,5.199,-1
769,770,1582725190826,-0.21153927,-7.459207000000001,5.9443154,5.9079999999999995,0.193,6.351,-1
770,771,1582725190836,-1.4219518,-7.877509,6.6827005999999995,4.6819999999999995,-0.217,7.1610000000000005,-1
771,772,1582725190846,-2.4961586,-8.513336,7.599069,3.6039999999999996,-0.8590000000000001,8.207,-1
772,773,1582725190856,-4.0538034,-9.0300045,9.561178,2.11,-1.4869999999999999,10.693,-1
773,774,1582725190867,-5.2359962,-8.928232000000001,11.304983,0.9359999999999999,-1.415,12.581,-1
774,775,1582725190877,-6.1107515999999995,-8.724736,12.232828999999999,0.069,-1.228,13.567,-1
775,776,1582725190887,-7.609095,-8.330244,14.143687,-1.401,-0.8740000000000001,15.57,-1
776,777,1582725190897,-8.945027,-8.394739,15.753420000000002,-2.687,-0.991,17.234,-1
777,778,1582725190908,-9.368403,-8.233635000000001,16.73516,-2.988,-0.938,18.23,-1
778,779,1582725190918,-8.483842,-8.112072999999999,16.400007000000002,-1.992,-0.914,17.887999999999998,-1
779,780,1582725190928,-8.273201,-8.133795,15.966413000000001,-1.719,-0.993,17.457,-1
780,781,1582725190938,-7.2796544999999995,-7.7342452999999995,15.567253,-0.519,-0.802,17.119,-1
781,782,1582725190949,-7.1172395,-7.564182000000001,15.445098000000002,-0.20800000000000002,-0.802,17.09,-1
782,783,1582725190959,-7.158056,-6.890763000000001,16.137703,-0.095,-0.32299999999999995,17.912,-1
783,784,1582725190969,-6.946372,-6.4689336,17.62685,0.27699999999999997,-0.11900000000000001,19.543,-1
784,785,1582725190979,-6.5060263,-5.94494,19.507324,0.8859999999999999,0.16699999999999998,21.55,-1
785,786,1582725190989,-5.4582825,-5.3645825,20.537855,2.11,0.493,22.678,-1
786,787,1582725191000,-3.9751980000000002,-5.0804863,20.155912,3.772,0.51,22.369,-1
787,788,1582725191010,-2.2006207000000004,-4.24958,18.604502,5.718999999999999,1.065,20.886,-1
788,789,1582725191020,-0.6425152,-3.5655775000000003,16.299297,7.436,1.465,18.666,-1
789,790,1582725191030,0.81649685,-2.9428601000000003,14.226405999999999,9.036,1.796,16.707,-1
790,791,1582725191041,2.0203123,-1.8586185000000002,12.960346000000001,10.36,2.5810000000000004,15.589,-1
791,792,1582725191051,3.8595447999999997,-1.1518447,12.140853,12.298,2.984,14.944,-1
792,793,1582725191061,5.040535,-0.41537285,11.093539999999999,13.555,3.4219999999999997,14.085,-1
793,794,1582725191071,5.4454193,-0.07182765,10.074092,14.013,3.4819999999999998,13.258,-1
794,795,1582725191081,5.074808999999999,-0.14073181,8.87902,13.677,3.147,12.25,-1
795,796,1582725191091,4.7037773000000005,-0.1837058,7.410213499999999,13.325,2.852,10.964,-1
796,797,1582725191101,5.0209150000000005,0.39791298,6.226947,13.645999999999999,3.185,9.97,-1
797,798,1582725191112,6.0863447,1.2297599,5.146836,14.698,3.767,9.093,-1
798,799,1582725191122,7.7570763,1.9187376,4.117858,16.336,4.208,8.281,-1
799,800,1582725191132,9.547706,2.5562222,2.7789278,18.075,4.61,7.165,-1
800,801,1582725191142,10.0712595,2.663144,1.5301242,18.532,4.507,6.132999999999999,-1
801,802,1582725191152,9.577014,2.2721970000000002,0.65701437,17.962,3.935,5.462999999999999,-1
802,803,1582725191163,8.255991999999999,1.571124,0.24072313,16.559,3.077,5.237,-1
803,804,1582725191173,6.954153,1.0950013,0.23918724,15.17,2.459,5.417000000000001,-1
804,805,1582725191183,7.127389999999999,1.2872401000000002,-0.07166147,15.251,2.5140000000000002,5.2829999999999995,-1
805,806,1582725191193,8.897116,2.554051,-1.3582988,16.925,3.647,4.167,-1
806,807,1582725191204,11.346055999999999,3.8566532,-3.7131972,19.277,4.825,1.973,-1
807,808,1582725191214,13.5089245,4.57256,-6.2593879999999995,21.875999999999998,5.7379999999999995,-1.403,-1
808,809,1582725191224,14.118841,5.010465,-8.242249000000001,21.868000000000002,5.797999999999999,-2.2840000000000003,-1
809,810,1582725191234,12.629235000000001,5.051998,-8.801708,20.3,5.792999999999999,-2.737,-1
810,811,1582725191244,10.016705,4.6366005,-8.086641,17.622,5.352,-1.9369999999999998,-1
811,812,1582725191255,7.472749,3.7806945,-6.056749,15.0,4.471,0.191,-1
812,813,1582725191265,6.1005645,3.1326,-4.8795652,13.584000000000001,3.81,1.422,-1
813,814,1582725191275,5.012796400000001,2.86137,-4.0104074,12.458,3.532,2.3369999999999997,-1
814,815,1582725191285,4.6699589999999995,2.7399150000000003,-3.7613754,12.099,3.41,2.605,-1
815,816,1582725191295,4.607122400000001,2.5827117000000004,-3.6658633000000003,12.013,3.2569999999999997,2.727,-1
816,817,1582725191306,5.09959,2.2975724,-4.467615,12.502,2.9930000000000003,1.9269999999999998,-1
817,818,1582725191316,5.4401589999999995,1.9986663,-4.712125299999999,12.860999999999999,2.713,1.659,-1
818,819,1582725191326,5.37292,1.7587656000000003,-4.4909495999999995,12.806,2.481,1.865,-1
819,820,1582725191336,4.338639,1.3172803,-2.6610131,11.807,2.052,3.6519999999999997,-1
820,821,1582725191346,3.9119230000000003,1.1702257,-1.9889879000000001,11.388,1.9040000000000001,4.315,-1
821,822,1582725191357,2.9871707,1.1616408999999999,-0.34508896,10.468,1.889,5.954,-1
822,823,1582725191367,2.393032,1.551965,0.5966439,9.869,2.275,6.902,-1
823,824,1582725191377,2.6298957,1.8818221000000002,0.51542854,10.102,2.608,6.825,-1
824,825,1582725191387,3.2713294,2.1444063,-1.5178328,10.76,2.905,4.768,-1
825,826,1582725191398,3.5587440000000004,2.2084851000000003,-3.0196362,11.079,3.012,3.2230000000000003,-1
826,827,1582725191407,3.4200767999999995,2.1682458,-3.727869,10.981,3.02,2.459,-1
827,828,1582725191417,2.5433764,1.9914764999999999,-3.7929413,10.158999999999999,2.9019999999999997,2.318,-1
828,829,1582725191427,2.0149875,2.0032177,-3.4555540000000002,9.666,2.9530000000000003,2.605,-1
829,830,1582725191437,0.45115423,1.5680728000000002,-1.2947307,8.231,2.727,4.562,-1
830,831,1582725191448,-0.56437206,1.5179788,-0.5492319999999999,7.216,2.735,5.295,-1
831,832,1582725191458,-0.64506054,1.5343201000000002,-0.25990772,7.127000000000001,2.8139999999999996,5.582000000000001,-1
832,833,1582725191468,-0.26004028,1.5391282,-0.5958295,7.517,2.883,5.225,-1
833,834,1582725191478,0.5205822,1.637813,-1.2261,8.332,3.075,4.526,-1
834,835,1582725191489,1.252542,1.6763926,-1.7079060000000001,9.097999999999999,3.1630000000000003,3.985,-1
835,836,1582725191498,1.7227172999999998,1.6967063000000002,-1.9547665,9.58,3.194,3.719,-1
836,837,1582725191508,1.9396701,1.7444813000000001,-1.1004906,9.814,3.259,4.545,-1
837,838,1582725191518,1.4537944999999999,1.709598,-0.08673096,9.328,3.235,5.556,d
838,839,1582725191528,0.65280247,1.6311833,0.7098960999999999,8.521,3.175,6.356,-1
839,840,1582725191538,0.26384878,1.4743613000000002,0.96459436,8.126,3.0439999999999996,6.612,-1
840,841,1582725191548,0.21734858,1.4669794,0.92132044,8.078,3.068,6.562,-1
841,842,1582725191559,0.51945066,1.6650425,0.80870295,8.387,3.3,6.43,-1
842,843,1582725191568,0.90275145,1.8318310000000002,0.4541335,9.072000000000001,3.585,5.566,-1
843,844,1582725191578,1.8099851999999998,1.9565997,-0.41813326,9.699,3.642,5.1579999999999995,-1
844,845,1582725191588,2.693563,2.0094311,-0.83391476,10.59,3.733,4.72,-1
845,846,1582725191598,2.7333455,2.1074168999999996,-0.625175,10.626,3.841,4.931,-1
846,847,1582725191609,2.5977178,2.0127490000000003,0.6325736,10.475,3.764,6.205,-1
847,848,1582725191619,2.471334,2.0542839,1.122982,10.339,3.815,6.706,-1
848,849,1582725191629,2.0953717,2.5359373,2.8928156000000005,9.927,4.351,8.509,-1
849,850,1582725191639,3.162188,3.1382717999999996,2.6888259999999997,10.985,4.9910000000000005,8.305,-1
850,851,1582725191650,4.3518643,3.6818051,1.4215946000000002,12.171,5.585,7.026,-1
851,852,1582725191660,5.038899400000001,3.957239,0.60753345,12.856,5.888999999999999,6.205,-1
852,853,1582725191671,6.4579453,4.4927044,-0.49418163,14.978,6.579,4.7010000000000005,-1
853,854,1582725191680,7.8546224,4.830124400000001,-0.9828681999999999,15.649000000000001,6.877999999999999,4.605,-1
854,855,1582725191690,8.335939999999999,5.429002,0.9136081,16.094,7.565,6.519,-1
855,856,1582725191700,8.002512,5.6402626,2.3819447,15.732000000000001,7.848,7.999,-1
856,857,1582725191711,7.8466363,5.9452906,3.172183,15.562000000000001,8.195,8.792,-1
857,858,1582725191721,7.757859700000001,5.928052,5.1524177,15.44,8.334,10.753,-1
858,859,1582725191731,7.879021000000001,5.933180999999999,5.524248,15.555,8.404,11.105,-1
859,860,1582725191741,8.054177000000001,6.0747247,4.8550057,15.722999999999999,8.783999999999999,10.334000000000001,-1
860,861,1582725191751,8.07169,6.048232,3.7268572,15.737,8.947000000000001,9.113,-1
861,862,1582725191761,8.339233,5.841727,2.5931096,15.993,8.943,7.882000000000001,-1
862,863,1582725191771,8.621148,5.4448133,2.4080462000000002,16.254,8.756,7.599,-1
863,864,1582725191782,8.737428999999999,4.8588657,3.0733595,16.340999999999998,8.389,8.162,-1
864,865,1582725191792,7.7704296,4.263946499999999,4.435133,15.337,8.027999999999999,9.41,-1
865,866,1582725191802,6.675068400000001,3.6812343999999997,5.194297,14.2,7.699,10.032,-1
866,867,1582725191812,5.7782865,3.1609964,5.307633999999999,13.258,7.452999999999999,9.977,-1
867,868,1582725191823,4.903279,2.6125693,5.182749299999999,12.334000000000001,7.194,9.651,-1
868,869,1582725191833,3.9294309999999997,2.0553117,4.966336,11.304,6.935,9.206,-1
869,870,1582725191843,3.171712,1.3583713,4.977069,10.48,6.5360000000000005,8.971,-1
870,871,1582725191853,2.3932605,0.84319353,5.013685700000001,9.623,6.313,8.753,-1
871,872,1582725191864,1.8606124,0.20547104,5.015255000000001,8.998,5.957999999999999,8.499,-1
872,873,1582725191874,1.5294275,-0.3536935,4.8783083,8.559,5.669,8.116,-1
873,874,1582725191884,1.0705314,-0.37307692,4.72521,7.975,5.9079999999999995,7.733,-1
874,875,1582725191894,0.7583184000000001,-0.5834627,4.45142,7.522,5.944,7.247000000000001,-1
875,876,1582725191904,0.29713917,-0.87869835,4.6654835,6.6579999999999995,5.774,7.474,-1
876,877,1582725191914,0.0062627792000000005,-1.4121647,5.0502872000000005,6.454,5.568,7.474,-1
877,878,1582725191924,-0.29941368,-1.8225446,4.695594,5.982,5.357,6.968999999999999,-1
878,879,1582725191934,-0.31103373,-2.2755318,3.3778622000000005,5.812,5.067,5.561,-1
879,880,1582725191944,-0.79787636,-2.4032998,1.5664076999999998,5.156000000000001,5.1339999999999995,3.5439999999999996,-1
880,881,1582725191955,-1.5650239,-2.9029465,0.36951065,3.8339999999999996,4.622,1.81,-1
881,882,1582725191965,-2.2140749,-3.256524,-0.114987254,3.372,4.641,1.496,-1
882,883,1582725191975,-2.9136546,-3.2287474,-0.008576512,2.483,4.823,1.48,-1
883,884,1582725191985,-3.2518507999999997,-3.8563972,0.92464375,1.865,4.397,2.292,-1
884,885,1582725191996,-3.110609,-4.129689,1.4415262,1.916,4.184,2.778,-1
885,886,1582725192006,-2.8855967999999996,-4.6475053,1.8306744,1.88,3.8339999999999996,3.065,-1
886,887,1582725192018,-2.8834313999999996,-4.8704257,1.6711401999999997,1.798,3.6639999999999997,2.862,-1
887,888,1582725192029,-2.9394429,-4.6522190000000005,0.7094100999999999,1.496,4.033,1.7409999999999999,-1
888,889,1582725192039,-2.9002442000000004,-4.5484085,0.04749298,1.3769999999999998,4.229,0.96,-1
889,890,1582725192050,-2.490666,-4.774780799999999,-0.7338585999999999,1.631,4.088,0.062,-1
890,891,1582725192060,-2.3068452,-5.1209264,-1.1255391000000001,1.6569999999999998,3.822,-0.431,-1
891,892,1582725192070,-2.8232548,-6.100294,0.119556904,0.898,2.9530000000000003,0.72,-1
892,893,1582725192080,-3.0092304,-6.2587957,0.80121094,0.632,2.8280000000000003,1.386,-1
893,894,1582725192090,-3.4373949,-6.7530923,2.2325366,0.05,2.395,2.799,-1
894,895,1582725192101,-3.6579657,-7.008356,2.3632789,-0.526,2.191,2.6919999999999997,-1
895,896,1582725192111,-3.482989,-6.7933292000000005,1.7160718000000001,-0.256,2.452,2.246,-1
896,897,1582725192121,-2.6303520000000002,-6.295595,0.5477031,0.5,2.984,1.058,-1
897,898,1582725192131,-0.97771454,-5.7263985,-0.3972803,2.035,3.592,0.114,-1
898,899,1582725192141,-0.5299921,-5.435760500000001,-0.04378283,2.445,3.8939999999999997,0.48100000000000004,-1
899,900,1582725192152,-1.0498616000000003,-5.3105364,2.0033836,1.798,4.053999999999999,2.608,-1
900,901,1582725192162,-2.0791192,-5.386245,4.153908,0.6729999999999999,4.002,4.83,-1
901,902,1582725192172,-1.9596561999999997,-5.5944,5.585374400000001,0.701,3.815,6.33,-1
902,903,1582725192182,-1.8720906000000002,-5.29289,5.5392575,0.708,4.136,6.32,-1
903,904,1582725192192,-1.7864832999999998,-4.655522,4.3207835999999995,0.723,4.794,5.082,-1
904,905,1582725192203,-1.7040775000000001,-4.1030393,2.3679645000000002,0.7440000000000001,5.367000000000001,3.072,-1
905,906,1582725192213,-2.0739848999999997,-3.8609347,0.7085276,0.318,5.627999999999999,1.348,-1
906,907,1582725192223,-2.4557602000000003,-3.6036080999999998,-0.23475683,-0.114,5.901,0.35600000000000004,-1
907,908,1582725192233,-2.1528833,-3.3036451000000002,-0.7683397,0.15,6.212000000000001,-0.203,-1
908,909,1582725192243,-1.8788403999999999,-2.8079271,-0.41029659999999996,0.395,6.715,0.15,-1
909,910,1582725192253,-1.4547428999999998,-2.0867195,0.58100444,0.797,7.441,1.149,-1
910,911,1582725192264,-0.8251314000000001,-1.4033022,1.2787896,1.4080000000000001,8.128,1.86,-1
911,912,1582725192274,-0.6980866,-1.2612934,1.3720028,1.525,8.272,1.959,-1
912,913,1582725192284,-0.7251468000000001,-0.86932373,0.62819374,1.4580000000000002,8.674,1.202,-1
913,914,1582725192295,-0.7338613,-0.7918434,-0.11581862,1.42,8.76,0.426,-1
914,915,1582725192305,-0.8244115,-0.6539068,-0.3877756,1.298,8.907,0.11699999999999999,-1
915,916,1582725192315,-0.85593224,-0.41705608,-0.5458493000000001,1.2329999999999999,9.152999999999999,-0.076,-1
916,917,1582725192325,-0.7505003,-0.20840645,-0.95058686,1.305,9.371,-0.526,-1
917,918,1582725192335,-0.737481,-0.039360046,-1.0710225,1.278,9.551,-0.706,-1
918,919,1582725192346,-0.6063546,0.018342972,-1.1566885,1.367,9.62,-0.866,-1
919,920,1582725192356,-0.5365466999999999,0.24677372,-0.9767455,1.41,9.855,-0.725,-1
920,921,1582725192366,-0.30546606,0.32340622,-0.592788,1.631,9.934,-0.354,-1
921,922,1582725192376,0.31077576,0.25603485,-0.34993768,2.256,9.865,-0.11699999999999999,-1
922,923,1582725192386,0.8113760999999999,0.36270618,-0.22097503,2.775,9.968,0.009000000000000001,-1
923,924,1582725192396,1.1010965,0.5485983,-0.22990285,3.075,10.152000000000001,-0.009000000000000001,-1
924,925,1582725192406,0.67277586,0.72683144,-0.11438099,2.639,10.332,0.098,-1
925,926,1582725192416,0.15643191,0.71671295,0.067405045,2.0980000000000003,10.327,0.275,-1
926,927,1582725192426,-0.49375987,0.45258522,-0.311418,1.4080000000000001,10.071,-0.11199999999999999,-1
927,928,1582725192437,-0.61689365,0.46967029999999993,-0.39013708,1.24,10.097000000000001,-0.198,-1
928,929,1582725192447,-0.23127866,0.354537,-0.32802054,1.599,9.987,-0.138,-1
929,930,1582725192457,0.14157748,0.4885044,0.48457268,1.959,10.123,0.6940000000000001,-1
930,931,1582725192468,0.41838384,0.36101913,1.3077299999999998,2.229,9.996,1.551,d
931,932,1582725192477,0.28050947,0.28109646,1.1268891,2.083,9.917,1.393,-1
932,933,1582725192487,0.32437396,0.41064548,0.49180913,2.114,10.049,0.7559999999999999,-1
933,934,1582725192497,0.15840375,0.43634129999999993,-0.20834936,1.932,10.078,0.043,-1
934,935,1582725192508,-0.08155477,0.39653109999999997,-0.26374853,1.671,10.042,-0.011000000000000001,-1
935,936,1582725192518,-0.48639798,0.20287895,0.6082634,1.2329999999999999,9.853,0.907,-1
936,937,1582725192528,-0.6587156,0.027041435,1.6736012999999998,1.022,9.68,2.081,-1
937,938,1582725192538,-0.68073094,-0.058276176,2.5746229,0.9690000000000001,9.594,3.1060000000000003,-1
938,939,1582725192549,-0.192855,-0.052292824,3.1265185,1.446,9.596,3.755,-1
939,940,1582725192559,0.07463968,-0.075730324,2.8792037999999995,1.714,9.568,3.573,-1
940,941,1582725192569,0.47321367,-0.079333305,1.3112369,2.121,9.56,2.045,-1
941,942,1582725192579,0.42728436,-0.19446564,0.81057006,2.026,9.354,1.235,-1
942,943,1582725192590,0.39846683,-0.26769066,0.24728096,2.0540000000000003,9.371,0.972,-1
943,944,1582725192600,-0.29208863,-0.38974094,0.43678987,1.334,9.254,1.161,-1
944,945,1582725192610,-1.0337358,-0.52197456,1.3398538,0.5529999999999999,9.125,2.1069999999999998,-1
945,946,1582725192620,-1.5921508999999998,-0.6268959,2.3438601,-0.062,9.022,3.197,-1
946,947,1582725192631,-1.8543726999999999,-0.6725234999999999,3.0589325,-0.649,8.725,4.6,-1
947,948,1582725192641,-2.1280810000000003,-1.2434464,3.9057636,-0.795,8.396,5.12,-1
948,949,1582725192651,-2.1464295,-1.4597645000000001,3.6714510000000002,-0.902,8.171,5.039,-1
949,950,1582725192662,-1.8953810000000002,-1.8668041000000002,2.659986,-0.6729999999999999,7.763999999999999,4.047,-1
950,951,1582725192672,-1.8230627000000001,-2.1605654,2.0630403000000004,-0.61,7.472,3.446,-1
951,952,1582725192682,-1.9236302,-2.6742892000000005,1.5755885,-0.718,6.959,2.96,-1
952,953,1582725192692,-2.6264724999999998,-3.3972672999999993,2.0740561,-1.432,6.234,3.4819999999999998,-1
953,954,1582725192703,-3.5829341,-4.1984129999999995,3.228891,-2.404,5.4270000000000005,4.689,-1
954,955,1582725192713,-4.619983,-5.251478,4.824380000000001,-3.465,4.363,6.372999999999999,-1
955,956,1582725192723,-5.415586,-6.067925499999999,6.3130803,-4.385,3.515,8.123,-1
956,957,1582725192733,-5.6226635,-6.9521685,7.405263000000001,-4.6339999999999995,2.603,9.378,-1
957,958,1582725192744,-5.916888,-7.367857000000001,7.918228999999999,-4.928,2.165,9.996,-1
958,959,1582725192754,-6.414518,-7.195817999999999,7.489189,-5.407,2.32,9.635,-1
959,960,1582725192764,-5.884057,-7.2317758,5.798453299999999,-4.9430000000000005,2.251,8.113999999999999,-1
960,961,1582725192775,-5.467135400000001,-7.440044400000001,3.8649251000000002,-4.452,2.042,6.152,-1
961,962,1582725192785,-5.3083029999999995,-7.5724936000000005,2.3267908,-4.178999999999999,1.913,4.545,-1
962,963,1582725192795,-4.747718,-8.006456,1.0067024,-3.4819999999999998,1.4769999999999999,3.159,-1
963,964,1582725192805,-4.0490010000000005,-8.214564,0.2170496,-2.6289999999999996,1.2570000000000001,2.325,-1
964,965,1582725192816,-2.2915330000000003,-7.7448435,-0.5070846999999999,-0.605,1.686,1.587,-1
965,966,1582725192826,-1.8148022000000001,-7.494958400000001,-0.5989258000000001,0.452,2.294,1.633,-1
966,967,1582725192836,-0.6530924,-6.292332,-0.38296342,1.4409999999999998,3.0410000000000004,1.7790000000000001,-1
967,968,1582725192846,0.054249287,-5.959135,0.042197942999999995,2.3680000000000003,3.3089999999999997,2.26,-1
968,969,1582725192856,0.23626447,-5.9892807,0.45278692,2.775,3.2060000000000004,2.727,-1
969,970,1582725192867,0.6252706,-6.1235685,0.43558693,3.3930000000000002,2.9930000000000003,2.759,-1
970,971,1582725192877,1.6141353,-5.549044599999999,-0.7125031,4.619,3.4819999999999998,1.65,-1
971,972,1582725192887,3.7250779,-4.5152183,-2.6865757,6.992999999999999,4.416,-0.294,-1
972,973,1582725192897,7.160989,-3.0522183999999997,-5.1593404000000005,10.763,5.747999999999999,-2.761,-1
973,974,1582725192908,8.627872,-2.2722135,-6.259956,12.36,6.466,-3.8339999999999996,-1
974,975,1582725192918,11.443099,0.072628975,-8.385803,15.51,8.617,-5.812,-1
975,976,1582725192928,11.138838,1.0301266,-8.200488,15.38,9.443,-5.479,-1
976,977,1582725192938,10.005091,1.3773441000000002,-6.864358999999999,14.390999999999998,9.658999999999999,-3.975,-1
977,978,1582725192948,9.52396,1.8189278000000002,-6.026831,14.042,9.968,-2.969,-1
978,979,1582725192958,10.2402935,2.663004,-5.895066,14.892000000000001,10.674000000000001,-2.677,-1
979,980,1582725192969,12.194207,3.2836160000000003,-6.137971,16.985,11.148,-2.766,-1
980,981,1582725192979,14.637576999999999,3.670507,-6.901367,19.562,11.385,-3.3789999999999996,-1
981,982,1582725192989,16.636017000000002,3.8832053999999996,-8.18931,21.671999999999997,11.452,-4.512,-1
982,983,1582725192999,17.2913,3.7221254999999998,-9.158268,22.403000000000002,11.155999999999999,-5.314,-1
983,984,1582725193009,15.686024,3.5315517999999995,-8.949968,20.836,10.844000000000001,-4.928,-1
984,985,1582725193019,12.988363,3.5213847,-7.0743,18.154,10.724,-2.878,-1
985,986,1582725193030,11.662636000000001,3.2143178,-5.4058948,16.844,10.315,-1.058,-1
986,987,1582725193040,11.534002000000001,3.1493154,-5.55506,16.743,10.158999999999999,-1.094,-1
987,988,1582725193050,12.391772999999999,3.0145049999999998,-6.882459599999999,17.641,9.946,-2.347,-1
988,989,1582725193060,12.635988000000001,2.6000762,-8.307241000000001,17.930999999999997,9.465,-3.7239999999999998,-1
989,990,1582725193070,11.714587,2.209653,-9.397476,17.054000000000002,9.017000000000001,-4.78,-1
990,991,1582725193081,10.898607,1.7647776999999998,-9.827864,16.281,8.516,-5.178,-1
991,992,1582725193091,10.533495,1.3038421,-9.962023,15.958,7.994,-5.273,-1
992,993,1582725193101,10.157878,0.8064146,-9.868684,15.622,7.428999999999999,-5.13,-1
993,994,1582725193111,9.507973,0.26086235,-8.893768,15.011,6.809,-4.0969999999999995,-1
994,995,1582725193121,8.504088000000001,-0.09373951,-7.2316139999999995,14.050999999999998,6.375,-2.378,-1
995,996,1582725193132,7.5061193,-0.58238745,-5.513121,13.11,5.807,-0.62,-1
996,997,1582725193142,6.6906643,-0.9278940999999999,-4.382791,12.372,5.386,0.519,-1
997,998,1582725193152,6.3643279999999995,-1.1910677,-3.8434584000000003,12.145,5.055,1.0290000000000001,-1
998,999,1582725193162,6.842960000000001,-1.4697103999999999,-4.495258,12.739,4.718,0.313,-1
999,1000,1582725193172,6.753091,-1.8223137999999999,-5.9603470000000005,12.77,4.315,-1.238,-1
1000,1001,1582725193182,6.653997400000001,-2.1927466,-6.7312080000000005,12.784,3.889,-2.083,-1
1001,1002,1582725193192,6.4747515,-2.4786716,-5.7147093,12.705,3.5269999999999997,-1.101,-1
1002,1003,1582725193202,6.1869164,-3.0642378,-2.6032547999999998,12.509,2.838,2.019,-1
1003,1004,1582725193212,5.8021154,-3.4563288999999995,0.88218737,12.212,2.33,5.53,-1
1004,1005,1582725193222,5.861318,-3.380526,3.8180913999999997,12.365,2.296,8.471,-1
1005,1006,1582725193232,5.623051,-3.2963765,6.017417,12.231,2.287,10.636,-1
1006,1007,1582725193243,4.937018,-2.9426377,7.160047500000001,11.655999999999999,2.569,11.704,-1
1007,1008,1582725193253,4.249812,-2.3476577,7.220517,11.079,3.111,11.663,-1
1008,1009,1582725193263,3.7148037000000005,-1.9025561999999998,6.539935,10.645,3.511,10.88,-1
1009,1010,1582725193273,3.2827373,-1.4479363,6.87717,10.298,3.918,11.139000000000001,-1
1010,1011,1582725193283,3.0636597,-1.4112897,8.182814,10.147,3.9010000000000002,12.399000000000001,-1
1011,1012,1582725193294,2.47955,-1.4056122,10.153633000000001,9.616,3.8510000000000004,14.35,-1
1012,1013,1582725193304,1.7394505,-1.3397996,12.445574,8.919,3.865,16.633,-1
1013,1014,1582725193314,0.71871614,-1.2449284,14.980485999999999,7.962999999999999,3.9010000000000002,19.129,-1
1014,1015,1582725193324,0.27801847,-1.108316,15.296632999999998,7.546,4.026,19.418,-1
1015,1016,1582725193334,-0.5796852,-0.45326328,14.694951000000001,6.761,4.672,18.697,-1
1016,1017,1582725193345,-0.78694487,0.076358795,13.153228,6.595,5.209,17.069000000000003,-1
1017,1018,1582725193354,-0.7717967,0.3605547,12.681519999999999,6.627000000000001,5.497999999999999,16.559,-1
1018,1019,1582725193364,-0.40705872,0.8228059000000001,11.770226,7.017,5.97,15.585999999999999,-1
1019,1020,1582725193374,0.061659335999999995,1.2549362,11.268018,7.497999999999999,6.412999999999999,15.045,-1
1020,1021,1582725193384,-0.38581896,1.5615691999999999,10.851904,7.046,6.737,14.614,-1
1021,1022,1582725193395,-1.071969,1.5404673,11.083298,6.3420000000000005,6.7410000000000005,14.845999999999998,-1
1022,1023,1582725193405,-1.2936448999999999,1.6223001,11.456623,6.097,6.854,15.222000000000001,-1
1023,1024,1582725193415,-1.5226874,1.8310651999999998,11.562038000000001,5.843,7.101,15.323,-1
1024,1025,1582725193425,-1.6547441000000003,1.8977113,11.240164,5.685,7.212999999999999,14.988,-1
1025,1026,1582725193436,-1.4160852,2.1677155,9.9829,5.894,7.534,13.716,-1
1026,1027,1582725193446,-0.8143654,2.4645686,8.689957000000001,6.974,8.135,11.682,-1
1027,1028,1582725193456,0.0806241,2.7872176,7.382536,7.307,8.26,11.124,-1
1028,1029,1582725193466,1.3267798000000002,3.329248,6.958597,8.459,8.885,10.758,-1
1029,1030,1582725193477,1.3926468,3.6366300000000003,7.9432125,8.447000000000001,9.254,11.797,-1
1030,1031,1582725193487,1.4120498,3.6740427,8.457303999999999,8.425,9.326,12.335999999999999,-1
1031,1032,1582725193497,1.807704,3.6833949999999995,8.774229,8.698,9.462,12.686,-1
1032,1033,1582725193507,1.9863051999999999,3.8222370000000003,8.372098,8.837,9.651,12.279000000000002,-1
1033,1034,1582725193518,2.9860472999999996,4.2619739999999995,6.012954,9.716000000000001,10.255,9.881,-1
1034,1035,1582725193527,3.531818,4.419329,5.292411,10.860999999999999,10.698,8.401,-1
1035,1036,1582725193537,4.9178904999999995,4.739483,4.172423,11.512,10.897,8.016,-1
1036,1037,1582725193547,6.8510213,5.0124580000000005,3.5616577000000005,13.282,11.333,7.417000000000001,-1
1037,1038,1582725193557,6.9303539999999995,5.021102,4.2132416,13.234000000000002,11.46,8.083,-1
1038,1039,1582725193567,6.3361316,4.566877,5.1874504,12.499,11.139000000000001,9.06,-1
1039,1040,1582725193577,5.966539,3.6583947999999995,5.51945,11.984000000000002,10.38,9.363999999999999,-1
1040,1041,1582725193587,5.757395,3.2417392999999994,5.301069,11.702,10.044,9.117,-1
1041,1042,1582725193598,5.9484873,2.3235620999999997,3.3580852,11.675,9.383,7.037999999999999,-1
1042,1043,1582725193608,5.9431944,2.04875,2.5830507000000003,11.595999999999998,9.196,6.207000000000001,-1
1043,1044,1582725193619,5.8268104,1.2906232,1.0339215,11.249,8.696,4.488,-1
1044,1045,1582725193629,5.741722599999999,0.86798954,0.8959763000000001,11.084000000000001,8.356,4.296,-1
1045,1046,1582725193639,5.7082896,0.38633108,0.61218095,10.887,8.035,3.906,-1
1046,1047,1582725193649,5.572938400000001,-0.72141695,0.33617687,10.502,7.1579999999999995,3.465,-1
1047,1048,1582725193659,4.7716145999999995,-1.6481046999999998,0.35532070000000004,9.539,6.377000000000001,3.362,-1
1048,1049,1582725193669,3.800415,-2.3653684,0.5195396,8.432,5.7860000000000005,3.3960000000000004,-1
1049,1050,1582725193679,2.6392274,-3.2737942,0.4061787,7.22,4.948,3.161,-1
1050,1051,1582725193689,2.2621803,-3.7349925,0.023118734,6.332000000000001,4.356,2.2359999999999998,-1
1051,1052,1582725193700,1.9707742,-4.487541,-1.619518,6.2170000000000005,4.013999999999999,0.802,-1
1052,1053,1582725193710,1.9394593,-4.940929,-2.5602841,6.016,3.69,-0.311,-1
1053,1054,1582725193720,1.6509901999999999,-5.460909,-2.8893466,5.556,3.2880000000000003,-0.797,-1
1054,1055,1582725193730,1.1032193000000001,-5.7049417,-2.9015883999999996,4.835,3.1510000000000002,-0.948,-1
1055,1056,1582725193741,0.56406856,-5.799015,-2.9577851,4.124,3.154,-1.13,-1
1056,1057,1582725193751,0.4001987,-6.1269507,-2.910955,3.793,2.9139999999999997,-1.202,-1
1057,1058,1582725193761,0.14180946,-6.449997,-2.8101682999999995,3.372,2.6719999999999997,-1.2209999999999999,-1
1058,1059,1582725193772,0.10871601,-6.966421,-3.1723103999999998,3.18,2.2319999999999998,-1.714,-1
1059,1060,1582725193782,-0.45238328,-7.4179406000000006,-4.0509367,2.4619999999999997,1.8530000000000002,-2.737,-1
1060,1061,1582725193792,-1.058154,-7.817754300000001,-4.7674627,1.702,1.52,-3.602,-1
1061,1062,1582725193802,-1.7181927,-8.077788,-5.700876999999999,0.893,1.319,-4.675,-1
1062,1063,1582725193812,-2.3820547999999997,-8.372096,-6.3574209999999995,0.08800000000000001,1.075,-5.4510000000000005,-1
1063,1064,1582725193823,-3.0164294,-8.657364999999999,-6.1555367,-0.677,0.831,-5.337999999999999,-1
1064,1065,1582725193833,-3.5294485,-8.894298,-5.5269639999999995,-1.307,0.627,-4.768,-1
1065,1066,1582725193843,-3.8555417000000003,-9.198881,-4.9282517,-1.736,0.349,-4.21,-1
1066,1067,1582725193853,-4.0257214999999995,-9.548819,-4.3390026,-1.995,0.021,-3.657,-1
1067,1068,1582725193864,-4.336399,-9.95987,-3.9509141000000003,-2.383,-0.371,-3.312,-1
1068,1069,1582725193874,-4.7302423,-10.563836,-4.0106660000000005,-2.845,-0.958,-3.424,-1
1069,1070,1582725193884,-5.3397236,-11.53693,-4.871714599999999,-3.515,-1.916,-4.343999999999999,-1
1070,1071,1582725193894,-7.3624315000000005,-13.180634,-6.3015704,-5.664,-3.53,-5.912999999999999,-1
1071,1072,1582725193904,-8.052782,-13.725239000000002,-6.795539,-6.5,-4.045,-6.567,-1
1072,1073,1582725193914,-9.264272,-14.680081,-7.358219,-8.109,-5.597,-7.405,-1
1073,1074,1582725193924,-9.610055000000001,-15.819357,-7.423084700000001,-8.131,-6.126,-7.276,-1
1074,1075,1582725193934,-9.534578999999999,-16.703999,-6.798165299999999,-8.006,-7.019,-6.612,-1
1075,1076,1582725193945,-9.577453,-18.016064,-5.7033806,-7.912999999999999,-8.356,-5.415,-1
1076,1077,1582725193955,-10.210980000000001,-18.270084,-5.068186,-8.418,-8.636000000000001,-4.694,-1
1077,1078,1582725193965,-11.193003,-18.230152,-4.6603403,-9.242,-8.631,-4.191,-1
1078,1079,1582725193975,-11.990067,-18.315704,-4.803632,-9.841000000000001,-8.765,-4.224,-1
1079,1080,1582725193986,-12.014892999999999,-18.339878,-4.830298,-9.75,-8.82,-4.188,-1
1080,1081,1582725193996,-11.258789,-18.888357,-4.6479945,-8.571,-9.498,-3.772,-1
1081,1082,1582725194006,-8.789036,-19.115593,-3.9546404,-5.76,-9.85,-2.885,-1
1082,1083,1582725194016,-5.544427,-19.008636,-3.067925,-2.1,-9.917,-1.784,-1
1083,1084,1582725194026,-3.5514297,-18.438812,-2.1295843,0.505,-9.647,-0.574,-1
1084,1085,1582725194036,-2.4692032000000004,-17.53337,-0.8414062,2.174,-9.105,1.0490000000000002,-1
1085,1086,1582725194047,-0.93220854,-16.171541,0.087934494,4.378,-8.248,2.366,-1
1086,1087,1582725194057,1.0831451,-14.978026999999999,-0.39496565,7.022,-7.62,2.205,-1
1087,1088,1582725194067,3.694314,-13.991147,-1.0121556999999999,10.111,-7.146,1.841,-1
1088,1089,1582725194077,7.075767999999999,-13.157497,-1.0188513000000001,13.9,-6.8420000000000005,2.0980000000000003,-1
1089,1090,1582725194087,11.258289999999999,-12.514047,1.1599042,18.441,-6.775,4.572,-1
1090,1091,1582725194098,16.384398,-10.134119,5.151332,23.878,-5.024,8.88,-1
1091,1092,1582725194108,21.211437,-6.5666785,10.488893,28.96,-2.117,14.53,-1
1092,1093,1582725194118,23.803805999999998,-3.3271562999999995,14.431115,31.743000000000002,0.479,18.75,-1
1093,1094,1582725194128,23.309954,-0.92213035,15.048420000000002,31.381,2.306,19.588,-1
1094,1095,1582725194138,20.54581,0.40442490000000003,12.859739,28.704,3.135,17.567,-1
1095,1096,1582725194149,16.625698,1.1195042,11.655249000000001,24.840999999999998,3.41,16.496,-1
1096,1097,1582725194159,14.447248000000002,1.6761008999999998,11.550303999999999,22.699,3.5469999999999997,16.508,-1
1097,1098,1582725194169,14.825929,2.8906326,12.09865,23.092,4.334,17.174,-1
1098,1099,1582725194179,16.730247,4.563433,12.8775215,24.982,5.57,18.08,-1
1099,1100,1582725194189,18.453112,5.841682,11.8496895,26.660999999999998,6.43,17.184,-1
1100,1101,1582725194200,18.691757,6.6416216,10.573357000000001,26.838,6.854,16.029,-1
1101,1102,1582725194210,17.44355,6.8615070000000005,10.234428,25.526,6.746,15.787,-1
1102,1103,1582725194220,14.98373,6.769706200000001,10.233187,23.008000000000003,6.377000000000001,15.857000000000001,-1
1103,1104,1582725194230,12.573177000000001,6.5356693,10.957348,20.546,5.91,16.633,-1
1104,1105,1582725194240,11.019478,6.480245,11.558727000000001,18.949,5.659,17.27,-1
1105,1106,1582725194251,10.2686615,6.8775167,10.294235,18.160999999999998,5.898,16.032,-1
1106,1107,1582725194261,9.936487,6.99516,6.3126492999999995,17.771,5.841,12.097000000000001,-1
1107,1108,1582725194271,9.327524,7.005987599999999,4.0872063999999995,17.119,5.767,9.912,-1
1108,1109,1582725194281,8.937294999999999,6.902542599999999,3.3098402,16.707,5.627999999999999,9.156,-1
1109,1110,1582725194291,7.661444,6.5329857,2.297874,15.392000000000001,5.2010000000000005,8.183,-1
1110,1111,1582725194302,6.5861144,6.200265,1.678606,14.288,4.828,7.5920000000000005,-1
1111,1112,1582725194311,5.3654589999999995,5.850499,1.7143307,13.052,4.454,7.642,-1
1112,1113,1582725194321,4.164966000000001,5.4265456,1.8030404999999998,11.85,4.023,7.731,-1
1113,1114,1582725194331,3.1190672000000004,4.753471,1.917213,10.812999999999999,3.36,7.836,-1
1114,1115,1582725194341,2.1895924,4.178553,1.7044058000000002,9.896,2.8110000000000004,7.6129999999999995,-1
1115,1116,1582725194352,1.7204814,3.6689743999999997,1.2717208999999998,9.436,2.339,7.1770000000000005,-1
1116,1117,1582725194362,1.7209768,3.3103627999999996,0.6341653,9.625,1.932,6.1979999999999995,-1
1117,1118,1582725194372,2.049717,3.1441974999999998,-0.24830198,9.774,1.899,5.664,-1
1118,1119,1582725194382,2.7622352,3.0933892999999997,-0.58877563,10.49,1.882,5.3260000000000005,-1
1119,1120,1582725194392,2.821957,2.894507,-0.9091048,10.557,1.7169999999999999,5.003,-1
1120,1121,1582725194403,2.21981,2.742044,-0.44994497,9.97,1.609,5.4510000000000005,-1
1121,1122,1582725194413,1.3556118000000001,2.0491471000000003,0.34877729999999996,9.141,1.001,6.218999999999999,-1
1122,1123,1582725194423,0.76594114,1.8332661,0.07171488,8.583,0.862,5.912999999999999,-1
1123,1124,1582725194433,0.5329876,1.6536398999999997,-0.09725237,8.368,0.732,5.728,-1
1124,1125,1582725194444,0.60732603,1.5581844999999999,-0.7651639,8.497,0.78,5.007,-1
1125,1126,1582725194454,1.318553,1.5661896,-1.2944036,9.273,0.914,4.404,-1
1126,1127,1582725194464,1.7899851999999998,1.6160023000000001,-1.1096249,9.754,0.996,4.579,-1
1127,1128,1582725194474,2.1080985,1.4294175,-0.6271777,10.071,0.828,5.065,-1
1128,1129,1582725194485,2.097487,1.3455776000000002,-0.36694193,10.059,0.752,5.327999999999999,-1
1129,1130,1582725194495,1.6321793,1.2176387,0.2530527,9.594,0.6579999999999999,5.9510000000000005,-1
1130,1131,1582725194505,1.5627604,1.1823084,0.7045193000000001,9.529,0.6509999999999999,6.399,-1
1131,1132,1582725194515,1.0653576999999999,1.0358536,0.748199,9.038,0.541,6.437,-1
1132,1133,1582725194526,0.7433915,0.9721751000000001,0.8470907,8.722000000000001,0.519,6.531000000000001,-1
1133,1134,1582725194536,0.69535446,0.86471653,0.6208663000000001,8.679,0.455,6.301,-1
1134,1135,1582725194546,0.8237380999999999,0.9301335999999999,0.20672274,8.812999999999999,0.565,5.882000000000001,-1
1135,1136,1582725194556,1.5165114,1.1422704,-0.14169121,9.51,0.816,5.53,-1
1136,1137,1582725194567,1.8997846,1.1323379999999998,-0.32169867,9.896,0.84,5.348,-1
1137,1138,1582725194577,2.2283654,1.3144817,-0.3172016,10.226,1.053,5.352,d
1138,1139,1582725194587,2.6993175,1.318332,0.15526819,10.696,1.084,5.827000000000001,-1
1139,1140,1582725194597,2.7278132,1.1398146,1.0296469000000001,10.722000000000001,0.934,6.706,-1
1140,1141,1582725194607,2.495977,1.0464127,1.9190207,10.487,0.8759999999999999,7.601,-1
1141,1142,1582725194618,1.9426446,0.99969065,2.4452972,9.929,0.8740000000000001,8.135,-1
1142,1143,1582725194628,1.977509,0.94820595,2.4871464,9.958,0.8759999999999999,8.186,-1
1143,1144,1582725194638,2.0908914000000003,1.0090171000000001,1.9449787,10.062999999999999,0.998,7.656000000000001,-1
1144,1145,1582725194648,2.1819868,1.2064883,1.5073643,10.142000000000001,1.2590000000000001,7.235,-1
1145,1146,1582725194659,2.654091,1.5056564,1.6324858999999998,10.597000000000001,1.6159999999999999,7.382999999999999,-1
1146,1147,1582725194669,3.6879477999999994,1.9536412,2.3212166,11.607999999999999,2.114,8.102,-1
1147,1148,1582725194679,5.000584,2.399554,2.9874443999999998,12.882,2.641,8.818,-1
1148,1149,1582725194689,5.752460500000001,2.819656,3.4615507000000005,13.61,3.13,9.321,-1
1149,1150,1582725194700,5.9213824,2.9805202,3.7791910000000004,13.767999999999999,3.3310000000000004,9.651,-1
1150,1151,1582725194710,6.1787543,3.4364013999999994,4.810443,13.998,3.935,10.708,-1
1151,1152,1582725194720,6.0427723,3.740685,5.606281,13.85,4.363,11.508,-1
1152,1153,1582725194730,5.9708962,4.2473183,5.722014,13.767999999999999,5.015,11.62,-1
1153,1154,1582725194740,5.972975,4.3570139999999995,5.0452533,13.755999999999998,5.29,10.937999999999999,-1
1154,1155,1582725194751,6.1147947,4.410985500000001,4.357351,13.876,5.522,10.248,-1
1155,1156,1582725194761,6.6893915999999995,4.378423000000001,4.057599,14.42,5.672999999999999,9.951,-1
1156,1157,1582725194771,7.468052,4.3799434,4.480436,15.16,5.8629999999999995,10.38,-1
1157,1158,1582725194781,8.23343,4.2078447,5.1698675000000005,15.880999999999998,5.888999999999999,11.074000000000002,-1
1158,1159,1582725194792,8.6661215,3.9638357,5.870253599999999,16.269000000000002,5.8629999999999995,11.765999999999998,-1
1159,1160,1582725194802,8.434847,3.524668,6.2327905,15.998,5.672999999999999,12.094000000000001,-1
1160,1161,1582725194812,7.6315417000000005,3.0858982000000004,5.815785,15.158,5.518,11.613,-1
1161,1162,1582725194823,6.859369999999999,2.6413917999999996,4.948081,14.347999999999999,5.3839999999999995,10.655,-1
1162,1163,1582725194833,6.114491,2.3256214,3.8831358,13.56,5.395,9.479,-1
1163,1164,1582725194843,5.675058,1.9687773999999998,2.96769,13.067,5.369,8.442,-1
1164,1165,1582725194853,5.495123400000001,1.5467334,2.5664191,12.818,5.273,7.92,-1
1165,1166,1582725194864,5.4820533,1.0503373,2.5766711,12.719000000000001,5.096,7.814,-1
1166,1167,1582725194874,5.2300935,0.36161279999999996,2.5762577,12.367,4.7219999999999995,7.697,-1
1167,1168,1582725194884,4.8432612,-0.31909657,2.6808457000000003,11.869000000000002,4.354,7.678,-1
1168,1169,1582725194894,3.9080324,-0.94684935,2.8444257,10.815,4.038,7.704,-1
1169,1170,1582725194904,2.7194262000000005,-1.4071698000000001,3.2492504,9.503,3.887,7.952999999999999,-1
1170,1171,1582725194915,1.6876416,-2.0597746,3.7288957000000003,8.346,3.537,8.258,-1
1171,1172,1582725194925,0.96066856,-2.4635215,3.3897324,7.494,3.4219999999999997,7.731,-1
1172,1173,1582725194935,0.38947582,-2.8984058,2.0784887999999997,6.83,3.168,6.308,-1
1173,1174,1582725194945,0.12896967,-3.1657693,0.50605345,6.449,3.173,4.512,-1
1174,1175,1582725194956,-0.21377849999999998,-3.4584010000000003,-0.63696265,5.965,3.156,3.137,-1
1175,1176,1582725194966,-0.8086338000000001,-3.6614795,-0.9566629000000001,5.212999999999999,3.2089999999999996,2.608,-1
1176,1177,1582725194976,-2.027375,-4.134603500000001,0.08114648,3.741,3.077,3.3810000000000002,-1
1177,1178,1582725194987,-2.287058,-4.588208,1.3514583,3.312,2.826,4.49,-1
1178,1179,1582725194997,-1.9274552,-4.9509563,1.8949995,3.511,2.653,4.857,-1
1179,1180,1582725195007,-1.7775431000000002,-5.147169,0.758374,3.5060000000000002,2.641,3.515,-1
1180,1181,1582725195017,-1.6613286,-5.107521,-1.0881737,3.465,2.8569999999999998,1.453,-1
1181,1182,1582725195027,-1.5768569,-5.0297089999999995,-2.6920445,3.386,3.096,-0.344,-1
1182,1183,1582725195038,-1.9283294999999998,-4.729774,-3.6913981,2.862,3.5389999999999997,-1.489,-1
1183,1184,1582725195048,-2.4057775,-4.5624886,-3.0073767000000005,2.2030000000000003,3.832,-0.895,-1
1184,1185,1582725195058,-2.7589402,-4.5007033,-1.7157947,1.666,4.006,0.34,-1
1185,1186,1582725195068,-2.3922172,-4.6985407,-0.19671273,1.8559999999999999,3.911,1.8030000000000002,-1
1186,1187,1582725195078,-1.7262664,-4.837912599999999,0.86224675,2.356,3.87,2.78,-1
1187,1188,1582725195088,-0.6294694000000001,-4.9029837,0.7165699999999999,3.295,3.903,2.512,-1
1188,1189,1582725195099,-0.24652433,-4.935586,0.16326392,3.5989999999999998,3.92,1.8840000000000001,-1
1189,1190,1582725195109,-1.2777610000000001,-4.636667299999999,-2.6848167999999997,2.313,4.368,-1.204,-1
1190,1191,1582725195119,-1.8138986000000001,-4.861855,-3.9466748,1.599,4.232,-2.596,-1
1191,1192,1582725195129,-2.9241126,-5.411421,-4.2627,0.316,3.7569999999999997,-2.9930000000000003,-1
1192,1193,1582725195140,-3.4715050000000005,-5.2677794,-3.5114791,-0.385,3.958,-2.275,-1
1193,1194,1582725195150,-2.5234911,-4.761881,-1.5788608,0.43799999999999994,4.505,-0.344,-1
1194,1195,1582725195160,-1.2116498,-4.2619586,0.60741544,1.6469999999999998,5.0360000000000005,1.851,-1
1195,1196,1582725195170,-0.37718678,-3.6432089999999997,1.8864093000000002,2.387,5.683,3.1319999999999997,-1
1196,1197,1582725195181,-0.19103122,-3.2682147,2.2250223,2.478,6.087999999999999,3.4530000000000003,-1
1197,1198,1582725195191,-0.28358412,-3.3919454,1.4218369,2.2840000000000003,5.999,2.6,-1
1198,1199,1582725195201,-0.6909684,-3.5892396,0.014876127,1.7719999999999998,5.8389999999999995,1.1159999999999999,-1
1199,1200,1582725195211,-0.9594722,-3.5509958,-1.5205473,1.401,5.912999999999999,-0.505,-1
1200,1201,1582725195222,-1.2800782,-3.2041049999999998,-2.241979,0.9840000000000001,6.291,-1.3,-1
1201,1202,1582725195232,-1.2775649,-2.8720263999999998,-1.7571467,0.9,6.648,-0.8640000000000001,-1
1202,1203,1582725195242,-0.7809675,-2.5888853,-1.0353905,1.3219999999999998,6.95,-0.165,-1
1203,1204,1582725195253,0.021797419,-2.2132099999999997,-0.3676408,2.062,7.34,0.495,-1
1204,1205,1582725195263,0.12497616,-1.8456473000000002,-0.83091825,2.105,7.721,0.023,-1
1205,1206,1582725195273,0.018986821,-1.8218393,-1.333727,1.935,7.7589999999999995,-0.493,-1
1206,1207,1582725195283,0.026946187000000003,-1.6298131999999999,-1.6480073,1.8769999999999998,7.965,-0.8190000000000001,-1
1207,1208,1582725195294,-0.60013044,-1.8596449000000002,-1.0120648,1.1420000000000001,7.755,-0.179,-1
1208,1209,1582725195304,-1.0888209,-1.9309306,-0.64668834,0.615,7.69,0.193,-1
1209,1210,1582725195314,-1.5304891999999999,-1.7589048999999999,-0.052800655,0.098,7.874,0.799,-1
1210,1211,1582725195324,-0.7595693,-1.9643378,-0.38438994,0.7829999999999999,7.683,0.46399999999999997,-1
1211,1212,1582725195334,-0.6031205,-1.880682,-0.8674431999999999,0.917,7.771,-0.027999999999999997,-1
1212,1213,1582725195344,-0.34018373,-1.4830303,-1.635997,1.12,8.181000000000001,-0.833,-1
1213,1214,1582725195355,-0.68711233,-1.3923292,-1.2886262,0.732,8.279,-0.5,-1
1214,1215,1582725195365,-0.78349805,-1.5104132,-0.99561596,0.615,8.164,-0.20800000000000002,-1
1215,1216,1582725195375,-1.1797369,-1.4086485,-0.5389440999999999,0.158,8.274,0.253,-1
1216,1217,1582725195385,-0.93887043,-1.2258854,-0.35521105,0.364,8.461,0.44299999999999995,-1
1217,1218,1582725195396,-0.5080174,-1.2404633,-0.3774877,0.7709999999999999,8.449,0.428,-1
1218,1219,1582725195406,-0.28364253,-1.0143089,-0.24722773,0.977,8.677,0.565,-1
1219,1220,1582725195416,0.07745695,-0.8025999,-0.29650587,1.3259999999999998,8.89,0.519,-1
1220,1221,1582725195426,0.15733552,-0.48590565,-0.26400936,1.3980000000000001,9.208,0.5479999999999999,-1
1221,1222,1582725195436,0.14113796,-0.2665491,-0.31861246,1.3769999999999998,9.429,0.48100000000000004,-1
1222,1223,1582725195447,0.008734703,-0.07282066,-0.5518956,1.2329999999999999,9.627,0.213,-1
1223,1224,1582725195457,-0.090572715,-0.24433231,-0.6661901,1.1159999999999999,9.46,0.069,-1
1224,1225,1582725195467,-0.36329770000000006,-0.40498638,-0.80955356,0.821,9.304,-0.1,-1
1225,1226,1582725195477,-0.5702906,-0.33615208,-1.0745686,0.586,9.378,-0.39,-1
1226,1227,1582725195487,-0.43966162,-0.32831192,-1.0220811,0.7040000000000001,9.388,-0.34700000000000003,-1
1227,1228,1582725195498,-0.37545687,-0.36916065,-0.5886309000000001,0.7440000000000001,9.35,0.086,d
1228,1229,1582725195508,0.059685588,-0.39070509999999997,1.5666309999999999,1.166,9.323,2.335,-1
1229,1230,1582725195518,0.15863502,-0.38729572,2.3030812999999997,1.264,9.314,3.216,-1
1230,1231,1582725195528,-0.1534912,-0.49753094,1.9200720000000002,0.943,9.193999999999999,2.9410000000000003,-1
1231,1232,1582725195539,-0.5779768,-0.4189644,0.63034797,0.498,9.275,1.65,-1
1232,1233,1582725195549,-1.2427348,-0.6282158,-0.52805394,-0.193,9.072000000000001,0.45899999999999996,-1
1233,1234,1582725195559,-1.7326120999999999,-0.6464386,-1.2091544,-0.716,9.06,-0.249,-1
1234,1235,1582725195570,-1.865346,-0.8099041,-0.8206551,-0.8740000000000001,8.899,0.141,-1
1235,1236,1582725195580,-1.8462471999999999,-0.85171986,0.089399576,-0.8740000000000001,8.856,1.082,-1
1236,1237,1582725195590,-1.8129201000000001,-0.9218426,1.0208117,-0.855,8.782,2.064,-1
1237,1238,1582725195601,-1.5671525,-1.032299,1.1867188,-0.61,8.667,2.272,-1
1238,1239,1582725195611,-1.6336575,-1.1431551000000002,1.2588826000000002,-0.67,8.552,2.375,-1
1239,1240,1582725195621,-1.5190713,-1.271924,0.73580074,-0.301,8.459,1.635,-1
1240,1241,1582725195631,-1.1261809999999999,-1.2931347,0.19157672,-0.114,8.396,1.317,-1
1241,1242,1582725195642,-1.2363735,-1.4792309,-0.45891523,-0.193,8.207,0.6629999999999999,-1
1242,1243,1582725195652,-1.4209954,-1.9708838,-0.4193954000000001,-0.349,7.711,0.713,-1
1243,1244,1582725195662,-2.0373596999999997,-2.5502615,0.21879410000000002,-0.941,7.125,1.3840000000000001,-1
1244,1245,1582725195672,-3.2026868,-3.4085297999999997,1.4547805,-2.086,6.257999999999999,2.6719999999999997,-1
1245,1246,1582725195683,-4.482193,-4.354023000000001,2.9009967,-3.345,5.3020000000000005,4.181,-1
1246,1247,1582725195693,-5.242955,-5.2448587,4.3885955999999995,-4.083,4.399,5.7379999999999995,-1
1247,1248,1582725195703,-5.198046700000001,-5.870014,5.4581194,-4.016,3.76,6.885,-1
1248,1249,1582725195713,-4.271454299999999,-6.373291,4.827357,-3.017,3.247,6.257999999999999,-1
1249,1250,1582725195724,-3.5161426,-6.998789,2.059756,-2.102,2.615,3.3810000000000002,-1
1250,1251,1582725195734,-3.5334246,-7.172997500000001,0.9893987,-2.064,2.438,2.27,-1
1251,1252,1582725195745,-4.8749304,-8.1764555,0.11271262,-3.245,1.4169999999999998,1.329,-1
1252,1253,1582725195755,-5.862923599999999,-8.981467,1.5381187,-4.121,0.589,2.78,-1
1253,1254,1582725195766,-6.739302,-9.528426,3.8116803,-4.873,0.009000000000000001,5.125,-1
1254,1255,1582725195777,-6.566352,-9.928018,5.6557645999999995,-4.569,-0.433,7.079,-1
1255,1256,1582725195787,-5.690408000000001,-9.668113,6.538734,-3.5439999999999996,-0.225,8.085,-1
1256,1257,1582725195797,-4.452782,-8.752429,5.716305,-2.102,0.637,7.292000000000001,-1
1257,1258,1582725195808,-1.9227138,-7.0359936,2.7215366000000003,0.792,2.2680000000000002,4.217,-1
1258,1259,1582725195818,-1.2308943,-6.378426599999999,0.20423270000000002,1.733,2.859,1.6380000000000001,-1
1259,1260,1582725195828,-1.0314369,-6.218318,-1.1818044,2.488,3.015,-0.8809999999999999,-1
1260,1261,1582725195839,-0.34568763,-5.8721685,-2.7312182999999997,2.9930000000000003,3.238,-1.307,-1
1261,1262,1582725195849,0.16381001,-4.4557123,-2.391851,3.7569999999999997,4.545,-0.893,-1
1262,1263,1582725195859,3.980739,-2.6409597000000002,-0.8972056,8.064,6.1160000000000005,0.78,-1
1263,1264,1582725195869,6.720106599999999,-0.8343086,-0.49901270000000003,11.097999999999999,7.752000000000001,1.3119999999999998,-1
1264,1265,1582725195880,7.975783,0.09753513,-0.8339114,12.49,8.6,1.037,-1
1265,1266,1582725195890,10.52121,1.3543777,-1.9823214,15.292,9.692,-0.009000000000000001,-1
1266,1267,1582725195900,11.369484,2.301405,-3.212181,16.367,10.482999999999999,-1.149,-1
1267,1268,1582725195911,10.750418,3.9644156,-3.835116,16.027,11.929,-1.6230000000000002,-1
1268,1269,1582725195921,10.742186,4.889135400000001,-3.2141755,16.175,12.712,-0.878,-1
1269,1270,1582725195931,10.912037,5.197146,-2.9730234,16.417,12.949000000000002,-0.57,-1
1270,1271,1582725195942,12.223942,6.393102,-3.781108,17.926,13.934000000000001,-1.175,-1
1271,1272,1582725195952,12.524071000000001,6.846561,-3.9389632000000003,18.285,14.319,-1.266,-1
1272,1273,1582725195962,13.564754,8.123517999999999,-3.3969107000000003,19.485,15.402000000000001,-0.5429999999999999,-1
1273,1274,1582725195973,14.358785999999998,8.672272,-3.382372,20.374000000000002,15.838,-0.44299999999999995,-1
1274,1275,1582725195983,15.779612,9.286586999999999,-4.455937400000001,21.885,16.357,-1.472,-1
1275,1276,1582725195993,17.356987,9.473721000000001,-6.250471,23.545,16.47,-3.262,-1
1276,1277,1582725196003,18.236876000000002,9.336444,-8.206761,24.491,16.283,-5.24,-1
1277,1278,1582725196014,18.011547,9.152000000000001,-9.601306,24.307,16.072,-6.66,-1
1278,1279,1582725196024,16.995102,8.430595,-10.21382,23.305,15.344000000000001,-7.287999999999999,-1
1279,1280,1582725196034,15.975169000000001,7.4346255999999995,-9.484467500000001,22.278000000000002,14.357999999999999,-6.567,-1
1280,1281,1582725196045,14.692853,6.441707599999999,-7.5850115,20.975,13.392000000000001,-4.687,-1
1281,1282,1582725196055,12.119738,4.289796400000001,-5.8876066,18.35,11.323,-3.0789999999999997,-1
1282,1283,1582725196065,10.111772,2.8436522,-6.740882000000001,16.293,9.958,-4.03,-1
1283,1284,1582725196075,8.7697735,1.2391982,-7.763289,14.892000000000001,8.442,-5.154,-1
1284,1285,1582725196085,7.8924335999999995,-0.40096712,-8.068172,13.948,6.888,-5.544,-1
1285,1286,1582725196095,7.5579314,-1.1733551000000002,-7.778566400000001,13.579,6.157,-5.292000000000001,-1
1286,1287,1582725196106,6.369128,-3.2591447999999996,-4.972698,12.3,4.188,-2.62,-1
1287,1288,1582725196116,4.936426,-4.3791504,-3.769257,10.839,3.135,-1.5630000000000002,-1
1288,1289,1582725196126,2.6328459,-5.4604883,-3.5962334000000005,8.586,2.0780000000000003,-1.621,-1
1289,1290,1582725196136,0.6775584,-6.509196299999999,-4.5832524,6.564,1.123,-2.775,-1
1290,1291,1582725196146,-0.117194176,-6.973477000000001,-4.8523559999999994,5.731,0.7040000000000001,-3.113,-1
1291,1292,1582725196157,-1.6061711,-8.0403,-4.531691,4.136,-0.253,-2.9330000000000003,-1
1292,1293,1582725196167,-2.4055722,-8.811494999999999,-3.5504493999999998,3.281,-0.9740000000000001,-1.999,-1
1293,1294,1582725196177,-2.7931662,-8.977628,-2.12529,2.8539999999999996,-1.1059999999999999,-0.603,-1
1294,1295,1582725196187,-2.9532847,-9.152045,-1.0731051,2.6719999999999997,-1.2590000000000001,0.419,-1
1295,1296,1582725196198,-3.0521555,-9.149474,-0.07707906,2.565,-1.2429999999999999,1.374,-1
1296,1297,1582725196208,-3.51471,-9.238031,0.7849343000000001,2.105,-1.324,2.184,-1
1297,1298,1582725196218,-3.9788417999999997,-9.634828,1.7339737000000002,1.652,-1.719,3.077,-1
1298,1299,1582725196228,-4.8694525,-9.907325,2.6215102999999997,0.78,-1.9969999999999999,3.918,-1
1299,1300,1582725196238,-6.2403016,-10.24002,3.5972524,-0.562,-2.347,4.873,-1
1300,1301,1582725196249,-7.414947,-10.417652,4.9602804,-1.69,-2.562,6.257999999999999,-1
1301,1302,1582725196259,-7.960475,-10.395126,5.9437723,-2.165,-2.605,7.321000000000001,-1
1302,1303,1582725196269,-7.8812880000000005,-10.076311,6.3238535,-1.9869999999999999,-2.385,7.831,-1
1303,1304,1582725196279,-6.837001299999999,-9.696591999999999,6.3264309999999995,-0.809,-2.138,7.97,-1
