,Seq,Time,ACCx,ACCy,ACCz,ADGx,ADGy,ADGz,Keydown
0,1,1582725377407,0.9011116,-1.1379051000000002,-2.7073487999999997,7.443,0.615,4.385,-1
1,2,1582725377417,0.9011116,-1.1379051000000002,-2.7073487999999997,7.443,0.615,4.385,-1
2,3,1582725377428,0.5721619000000001,1.5943022,0.77509403,1.7309999999999999,11.069,3.0239999999999996,-1
3,4,1582725377438,1.1433886999999998,1.1003933000000001,1.2818146000000001,2.244,10.575999999999999,3.556,-1
4,5,1582725377448,0.8024348000000001,0.70897293,1.6656298999999999,1.827,10.187999999999999,3.9610000000000003,-1
5,6,1582725377458,0.3147909,0.46425056,2.0665259999999996,1.295,9.946,4.37,-1
6,7,1582725377469,-1.6017241000000002,-0.46314716,3.1784074,-0.775,9.031,5.4910000000000005,-1
7,8,1582725377479,-2.420864,-0.5456352,3.309657,-1.6469999999999998,8.954,5.617999999999999,-1
8,9,1582725377489,-3.3667337999999996,-0.9463577,3.2584455,-2.694,8.566,5.546,-1
9,10,1582725377499,-3.6305711000000005,-1.5390697,2.2790543999999997,-3.0989999999999998,7.994,4.5169999999999995,-1
10,11,1582725377510,-3.0890937000000003,-2.2764349999999998,1.2203473999999999,-2.627,7.271,3.412,-1
11,12,1582725377520,-2.9825835,-3.1904049999999997,0.7339835,-2.5839999999999996,6.367999999999999,2.89,-1
12,13,1582725377530,-3.2571228,-3.5356379000000002,1.0097971,-2.926,6.028,3.154,-1
13,14,1582725377540,-3.5579495000000003,-4.2609463,1.9380633999999999,-3.2969999999999997,5.3020000000000005,4.095,-1
14,15,1582725377551,-4.836956,-5.806118,3.744791,-4.689,3.748,5.9510000000000005,-1
15,16,1582725377561,-5.386618,-5.9811573,4.2479177,-5.2829999999999995,3.568,6.478,-1
16,17,1582725377571,-7.239161500000001,-6.947812,4.468014,-7.3,2.5810000000000004,6.785,-1
17,18,1582725377581,-7.518718700000001,-7.226279300000001,4.0810685,-7.812,2.0069999999999997,5.91,-1
18,19,1582725377592,-7.584119,-7.714706,3.0366569,-7.7860000000000005,1.8030000000000002,5.391,-1
19,20,1582725377602,-7.584486999999999,-8.125691,1.8096781000000002,-7.805,1.3980000000000001,4.138,-1
20,21,1582725377613,-7.433076,-8.754482000000001,0.77668786,-7.625,0.78,3.063,-1
21,22,1582725377623,-7.101564999999999,-9.264265,0.4018047,-7.192,0.285,2.6319999999999997,-1
22,23,1582725377634,-7.043961,-9.690531,0.6513097,-7.0360000000000005,-0.134,2.852,-1
23,24,1582725377644,-6.8876595,-9.982693,0.40308309999999997,-6.821000000000001,-0.423,2.589,-1
24,25,1582725377654,-6.225747599999999,-10.7851095,0.13977979999999998,-5.944,-1.219,2.28,-1
25,26,1582725377664,-5.848381,-11.115828500000001,-0.13213623,-5.482,-1.5490000000000002,1.992,-1
26,27,1582725377675,-4.5917816,-12.104956,-0.84121716,-3.937,-2.543,1.235,-1
27,28,1582725377685,-4.049047,-12.397261,-1.2154222,-3.178,-2.847,0.835,-1
28,29,1582725377696,-4.01089,-12.576863000000001,-1.7449322,-2.783,-3.063,0.292,-1
29,30,1582725377706,-4.2364125,-12.361566,-1.8264384999999999,-2.8810000000000002,-2.866,0.215,-1
30,31,1582725377716,-4.7833877000000005,-12.611542,-1.4052031,-3.159,-3.1630000000000003,0.6579999999999999,-1
31,32,1582725377726,-4.576866000000001,-12.873209,-1.5246208,-2.658,-3.487,0.57,-1
32,33,1582725377737,-3.15002,-12.928475,-1.9253589,-0.905,-3.623,0.205,-1
33,34,1582725377747,-0.5995585999999999,-12.909798,-2.2444447999999997,2.002,-3.707,-0.07400000000000001,-1
34,35,1582725377757,2.596422,-12.498666,-3.1364033,5.577999999999999,-3.4219999999999997,-0.924,-1
35,36,1582725377768,5.395811599999999,-11.591031,-3.9978437000000007,8.84,-2.6889999999999996,-1.7480000000000002,-1
36,37,1582725377778,7.294758,-10.152578,-4.6854477,11.187000000000001,-1.453,-2.375,-1
37,38,1582725377788,6.6635633,-7.942281200000001,-4.828797,11.132,0.42100000000000004,-2.327,-1
38,39,1582725377798,4.879041,-7.888636,-3.8281169999999998,9.817,0.155,-1.166,-1
39,40,1582725377808,3.6593623,-8.044032000000001,-3.2628209999999997,8.921,-0.292,-0.366,-1
40,41,1582725377818,4.276911,-7.364674000000001,-3.2310476,9.932,0.016,-0.114,-1
41,42,1582725377828,5.3644576,-6.975735,-3.4126542,11.175,0.23199999999999998,-0.179,-1
42,43,1582725377839,9.527443,-4.928528,-4.11595,15.755999999999998,1.743,-0.529,-1
43,44,1582725377849,10.922072,-4.1952370000000005,-4.6580997,17.28,2.287,-0.953,-1
44,45,1582725377859,13.271260999999999,-2.549617,-5.726478599999999,19.864,3.542,-1.777,-1
45,46,1582725377869,14.335566,-0.99949837,-5.431426,21.193,4.493,-1.075,-1
46,47,1582725377880,13.545823,-0.25913906,-4.5350475,20.52,4.84,0.105,-1
47,48,1582725377890,12.99963,0.2937765,-3.2845001000000003,20.063,5.005,1.6230000000000002,-1
48,49,1582725377900,13.797020999999999,1.2528052,-2.4357598,20.936999999999998,5.575,2.713,-1
49,50,1582725377911,15.546510999999999,2.5818493,-1.6975546000000001,22.755,6.513999999999999,3.6639999999999997,-1
50,51,1582725377921,17.810935999999998,3.6747080000000003,-1.2905091999999998,25.073,7.22,4.265,-1
51,52,1582725377931,19.30026,4.5664496,-0.30098772,26.594,7.7379999999999995,5.436,-1
52,53,1582725377942,19.620918,5.531761,1.0529913999999998,26.929000000000002,8.357999999999999,6.95,-1
53,54,1582725377952,19.353096,5.8319980000000005,1.7694596999999999,26.668000000000003,8.353,7.795,-1
54,55,1582725377962,19.045937,6.176321499999999,1.7844480999999999,26.371,8.435,7.901,-1
55,56,1582725377972,18.603842,6.844767999999999,1.533885,25.95,8.878,7.704,-1
56,57,1582725377982,20.135551,8.156144,1.1611671000000001,27.528000000000002,9.891,7.367000000000001,-1
57,58,1582725377993,20.791553,8.171681,1.496685,28.198,9.814,7.711,-1
58,59,1582725378003,20.778357999999997,7.505911,4.1847453,28.218000000000004,8.908999999999999,10.418,-1
59,60,1582725378013,19.181267000000002,6.52865,7.1910243000000005,26.649,7.824,13.414000000000001,-1
60,61,1582725378024,18.22663,6.157973,8.932799000000001,25.715,7.419,15.138,-1
61,62,1582725378034,14.918741,5.1742099999999995,12.576338,22.505,6.422999999999999,18.664,-1
62,63,1582725378044,12.963916000000001,4.966164599999999,13.50641,20.64,6.282,19.465999999999998,-1
63,64,1582725378054,11.476675,4.715099299999999,13.487804,19.250999999999998,6.148,19.291,-1
64,65,1582725378064,10.223730999999999,4.663106,12.681591000000001,18.094,6.252999999999999,18.312,-1
65,66,1582725378075,9.416513,4.465949500000001,11.349950999999999,17.373,6.2410000000000005,16.801,-1
66,67,1582725378085,8.763341,3.9792466,10.392534,16.789,5.956,15.67,-1
67,68,1582725378095,7.996461999999999,2.7790298,11.212143,16.067999999999998,4.967,16.334,-1
68,69,1582725378105,6.593075,1.6719503,12.98667,14.687999999999999,4.078,17.972,-1
69,70,1582725378115,5.0709696,1.0749044,15.4903965,13.172,3.707,20.35,-1
70,71,1582725378126,3.7833805,0.9338846,17.560398,11.879000000000001,3.805,22.291999999999998,-1
71,72,1582725378136,3.215805,0.57336044,18.377110000000002,11.297,3.702,22.968000000000004,-1
72,73,1582725378146,2.7546939999999998,0.24779129,17.366436,10.808,3.657,21.804000000000002,-1
73,74,1582725378156,2.171239,-0.45796943,15.758348000000002,10.177999999999999,3.252,20.035999999999998,-1
74,75,1582725378167,1.9846529999999998,-1.0144596,14.53226,9.922,3.008,18.654,-1
75,76,1582725378177,2.2008805000000002,-1.7521715,13.664354000000001,10.044,2.5839999999999996,17.646,-1
76,77,1582725378187,2.0508714,-2.6583902999999998,13.172857,9.774,1.99,17.035,-1
77,78,1582725378197,1.0754461000000002,-3.2903879999999996,13.412251999999999,8.652999999999999,1.671,17.172,-1
78,79,1582725378207,0.092550755,-4.271993599999999,14.184414000000002,7.502999999999999,1.001,17.852,-1
79,80,1582725378218,-1.4743953,-5.1338525,14.836457999999999,5.752000000000001,0.45,18.41,-1
80,81,1582725378228,-2.705336,-5.9075246,14.542292999999999,4.325,-0.013999999999999999,18.008,-1
81,82,1582725378238,-3.2578423,-6.1757836,12.7940035,3.57,0.019,16.137,-1
82,83,1582725378249,-3.3948534,-6.3660717,10.619864,3.2260000000000004,0.11199999999999999,13.84,-1
83,84,1582725378258,-3.6019628,-6.454473999999999,9.54627,2.912,0.155,12.717,-1
84,85,1582725378268,-4.2185334999999995,-6.626574000000001,6.249979,1.916,0.215,9.675,-1
85,86,1582725378278,-4.4986467,-6.941349000000001,4.848225599999999,1.401,0.1,8.281,-1
86,87,1582725378288,-4.8415155,-7.395306,4.129334399999999,0.835,-0.146,7.505,-1
87,88,1582725378298,-5.1165433,-7.599703999999999,3.7063122,0.344,-0.158,7.019,-1
88,89,1582725378308,-5.4791856,-7.7378817,3.1320732000000002,-0.225,-0.11900000000000001,6.375,-1
89,90,1582725378318,-6.0929720000000005,-7.501817999999999,2.711677,-1.032,0.28,5.874,-1
90,91,1582725378328,-5.9745684,-7.5070624000000015,1.8864936999999997,-1.089,0.423,4.955,-1
91,92,1582725378339,-5.765621,-7.69641,0.6155946,-1.037,0.368,3.5780000000000003,-1
92,93,1582725378348,-5.286784,-7.569021,-0.6508434000000001,-0.6990000000000001,0.615,2.2030000000000003,-1
93,94,1582725378358,-4.729929,-7.466467999999999,-1.4120795,-0.268,0.821,1.341,-1
94,95,1582725378368,-4.111116399999999,-7.3087740000000005,-1.9384443,0.237,1.068,0.725,-1
95,96,1582725378378,-3.7940059999999995,-6.887658,-2.3198285,0.45,1.568,0.261,-1
96,97,1582725378388,-3.7033843999999996,-6.632371000000001,-2.6761369999999998,0.447,1.8940000000000001,-0.177,-1
97,98,1582725378398,-4.0512853,-6.5132885,-3.273922,0.016,2.0780000000000003,-0.862,-1
98,99,1582725378409,-4.24562,-6.3112907,-3.9403062000000006,-0.249,2.339,-1.6230000000000002,-1
99,100,1582725378419,-3.8899722000000003,-5.9651737,-4.630885,0.055,2.735,-2.414,-1
100,101,1582725378429,-2.774284,-5.4632864,-5.123101,1.14,3.2760000000000002,-3.008,-1
101,102,1582725378440,-1.4071705,-4.9068403,-5.738206,2.4930000000000003,3.863,-3.7260000000000004,-1
102,103,1582725378450,-0.81502366,-4.3660455,-5.7040606,3.077,4.43,-3.793,-1
103,104,1582725378460,-0.9465146000000001,-4.0356684000000005,-5.431877,2.9330000000000003,4.785,-3.611,-1
104,105,1582725378470,-1.5458882,-3.7846922999999997,-5.4612308,2.315,5.06,-3.719,-1
105,106,1582725378480,-2.0604773,-3.5220866,-5.8368,1.781,5.345,-4.167,-1
106,107,1582725378490,-2.0272171,-3.4302044,-6.367806,1.8030000000000002,5.455,-4.77,-1
107,108,1582725378500,-1.5737368999999999,-3.2641492000000003,-6.682049,2.26,5.632999999999999,-5.1610000000000005,-1
108,109,1582725378510,-1.1905326999999999,-2.726222,-6.4765606,2.66,6.178999999999999,-5.048,-1
109,110,1582725378520,-0.4902172000000001,-2.2256327000000002,-6.0871716,3.3960000000000004,6.682,-4.775,-1
110,111,1582725378531,0.29840732,-1.5324864,-5.54197,4.277,7.376,-4.552,-1
111,112,1582725378540,0.80741644,-1.0582280000000002,-4.916362,4.897,7.829,-4.236000000000001,-1
112,113,1582725378550,0.9906535,-0.6785364,-4.3309264,5.151,8.186,-3.8,-1
113,114,1582725378560,0.751215,-0.58415127,-3.4105053,4.974,8.258,-3.017,-1
114,115,1582725378570,-0.12815619,-0.5732126000000001,-2.0627303,4.136,8.255,-1.839,-1
115,116,1582725378580,-0.9410354999999999,-0.17346478,-0.9120944999999999,3.319,8.657,-0.6990000000000001,-1
116,117,1582725378590,-1.1453342,0.08989525,-0.31955636,3.0989999999999998,8.927999999999999,-0.11,-1
117,118,1582725378601,-0.6173217,0.27668190000000004,0.102676734,3.597,9.129,0.318,-1
118,119,1582725378611,0.005391121,0.39850235,-0.26572517,4.239,9.242,-0.067,d
119,120,1582725378621,0.42504597,0.60950375,-0.7103286999999999,4.691,9.437999999999999,-0.5379999999999999,-1
120,121,1582725378631,0.5920663,0.72262573,-0.9181560999999999,4.89,9.536,-0.768,-1
121,122,1582725378641,0.55340767,0.92251587,-0.8396716000000001,4.878,9.722999999999999,-0.6990000000000001,-1
122,123,1582725378652,0.53896713,1.1131277,-0.65733296,4.885,9.902999999999999,-0.514,-1
123,124,1582725378662,0.45431995,1.0542955,0.28319204,4.816,9.836,0.45,-1
124,125,1582725378673,-0.030334472999999997,1.2649498,1.1863616000000001,4.3389999999999995,10.042,1.393,-1
125,126,1582725378683,-0.7094220999999999,1.4762697,2.1974084,3.657,10.253,2.469,-1
126,127,1582725378693,-0.96372986,1.5050860000000001,2.0927238,3.3960000000000004,10.284,2.399,-1
127,128,1582725378703,-0.94465995,1.4649687,1.9642551,3.412,10.245,2.282,-1
128,129,1582725378713,-0.37608886,1.3372135,1.2027752,3.9819999999999998,10.116,1.535,-1
129,130,1582725378723,0.0053048133999999995,1.369544,1.2255466,4.37,10.145,1.5590000000000002,-1
130,131,1582725378733,0.8586459000000001,1.536828,1.0581428999999998,5.242000000000001,10.302999999999999,1.391,-1
131,132,1582725378743,1.5084238,1.7848063000000003,0.7942275,5.91,10.542,1.123,-1
132,133,1582725378753,1.6562203999999998,1.9560165,1.1822764,6.068,10.708,1.5130000000000001,-1
133,134,1582725378763,1.3273954,2.0776796,1.6956215000000001,5.7379999999999995,10.83,2.033,-1
134,135,1582725378774,0.79076195,1.9882058999999996,1.7372714,5.19,10.745999999999999,2.081,-1
135,136,1582725378784,0.11937761,1.6001253,1.4823467,4.49,10.372,1.8319999999999999,-1
136,137,1582725378794,-0.111077785,1.479948,1.0815692,4.239,10.262,1.432,-1
137,138,1582725378804,-0.20899343,1.315691,0.9089603,4.124,10.106,1.264,-1
138,139,1582725378815,0.043414593,1.3029537,0.81816244,4.368,10.097000000000001,1.183,-1
139,140,1582725378825,0.5183587000000001,1.2277813,0.86097205,4.845,10.02,1.245,-1
140,141,1582725378835,0.8769016,1.1987076,0.8116369000000001,5.209,9.987,1.2229999999999999,-1
141,142,1582725378846,0.92723036,1.2528466999999999,0.62140685,5.261,10.039,1.06,-1
142,143,1582725378856,0.71182775,1.2129497999999999,0.7010888000000001,5.039,10.001,1.166,-1
143,144,1582725378866,0.34330225,1.0678139,1.0311172,4.655,9.862,1.5230000000000001,-1
144,145,1582725378876,-0.036960599999999996,0.700943,1.2711458,4.251,9.505,1.7930000000000001,-1
145,146,1582725378886,-0.5145991,0.35051346,0.81751114,3.733,9.172,1.374,-1
146,147,1582725378896,-0.8079097,0.1781683,0.61576724,3.384,9.024,1.207,-1
147,148,1582725378907,-0.7361406999999999,-0.0058918,0.32288092,3.42,8.856,0.9259999999999999,-1
148,149,1582725378917,-0.5488143,0.08805466,0.17650568,3.58,8.962,0.79,-1
149,150,1582725378927,-0.09848261,0.13324070000000002,0.11251551,4.013999999999999,9.014,0.737,-1
150,151,1582725378937,0.09530163,0.18999958,0.12116772,4.21,9.068999999999999,0.7559999999999999,-1
151,152,1582725378948,0.06313467,-0.028030396000000003,0.19120526,4.1739999999999995,8.851,0.85,-1
152,153,1582725378958,-0.06292963,0.121715546,0.2953633,4.035,9.005,0.977,-1
153,154,1582725378968,-0.2962315,0.108094215,0.5540491,3.772,9.002,1.274,-1
154,155,1582725378978,-0.43001103,-0.030379295,0.6417225999999999,3.609,8.875,1.3840000000000001,-1
155,156,1582725378989,-0.5713556,-0.090937614,0.3861205,3.444,8.825,1.13,-1
156,157,1582725378999,-0.7862319999999999,-0.35523699999999997,0.30702895,3.2110000000000003,8.568999999999999,1.0490000000000002,-1
157,158,1582725379009,-1.0394409,-0.37492752,0.030709802999999997,2.945,8.555,0.773,-1
158,159,1582725379019,-0.9388039,-0.24239254,0.37193036,3.0389999999999997,8.689,1.1320000000000001,-1
159,160,1582725379030,-0.4512595999999999,-0.01389122,0.80822295,3.525,8.914,1.6159999999999999,-1
160,161,1582725379040,-0.17144871,0.027785301000000002,0.99770194,3.8080000000000003,8.947000000000001,1.882,-1
161,162,1582725379050,-0.0027015209999999997,0.11217975599999999,0.9401413000000001,3.99,9.017000000000001,1.906,-1
162,163,1582725379060,-0.02072382,0.14345837,0.9005693000000001,3.975,9.045,1.8840000000000001,-1
163,164,1582725379070,-0.17564702,0.15531729999999996,0.8978374,3.822,9.052999999999999,1.9080000000000001,-1
164,165,1582725379081,-0.4073341,0.28824425,0.6620548,3.556,9.115,1.415,-1
165,166,1582725379091,-0.5394715999999999,0.09811592,-0.050011635,3.424,9.014,0.934,-1
166,167,1582725379101,-0.73099804,0.26151657,-0.32813805,3.2089999999999996,9.192,0.617,-1
167,168,1582725379111,-0.59332204,0.25366116,-0.57958096,3.319,9.201,0.32,-1
168,169,1582725379122,-0.33164190000000004,0.49041367,-0.3900872,3.58,9.437999999999999,0.51,-1
169,170,1582725379132,0.015514851000000001,0.48551846,0.28355545,3.937,9.426,1.2109999999999999,-1
170,171,1582725379142,0.041829824,0.70324326,0.47547334,4.119,9.709,1.64,d
171,172,1582725379152,0.30399823,0.8957968000000001,0.6590465999999999,4.255,9.817,1.645,-1
172,173,1582725379162,0.19305682,0.95274353,0.662209,4.157,9.867,1.659,-1
173,174,1582725379173,0.054009676,1.1484795,0.4678532,4.0280000000000005,10.059,1.4580000000000002,-1
174,175,1582725379183,0.5212667000000001,1.2091722,0.08812523,4.5089999999999995,10.116,1.056,-1
175,176,1582725379193,1.0081458,1.4196692,-0.09736854,5.012,10.322000000000001,0.845,-1
176,177,1582725379203,1.2712202,1.6470308,-0.37290429999999997,5.2829999999999995,10.547,0.5579999999999999,-1
177,178,1582725379213,1.9116025,2.0287323,-0.0058671235999999995,5.939,10.923,0.912,-1
178,179,1582725379224,1.9279737000000001,2.329813,0.6094579999999999,5.956,11.222999999999999,1.535,-1
179,180,1582725379234,1.9770150000000002,2.3521414000000003,1.0322985999999998,5.999,11.247,1.9680000000000002,-1
180,181,1582725379244,1.9306874,2.4716099999999996,1.1856016,5.942,11.370999999999999,2.124,-1
181,182,1582725379254,2.1256522999999996,2.701809,0.9908153000000001,6.124,11.607999999999999,1.92,-1
182,183,1582725379264,2.5562456,3.1194124,0.79385024,6.54,12.034,1.705,-1
183,184,1582725379274,2.7918482000000004,3.0756454,0.94295186,6.756,12.001,1.834,-1
184,185,1582725379285,2.941478,3.1422882000000003,1.1176522,6.877999999999999,12.082,1.9869999999999999,-1
185,186,1582725379295,3.3934040000000003,3.1177072999999997,1.2445123,7.295,12.075,2.09,-1
186,187,1582725379305,3.4999678,3.1974354,1.0119269,7.357,12.175999999999998,1.8359999999999999,-1
187,188,1582725379316,3.3619971,3.0504713,1.0410716999999998,7.162999999999999,12.054,1.8530000000000002,-1
188,189,1582725379326,3.1957917,2.9079723,1.556129,6.931,11.939,2.3680000000000003,-1
189,190,1582725379336,3.093797,2.6657572,2.1170597,6.756,11.725999999999999,2.9360000000000004,-1
190,191,1582725379346,3.065043,2.2658482,2.5180879000000003,6.648,11.357000000000001,3.345,-1
191,192,1582725379357,2.9241834,1.7986583999999999,2.8869216,6.421,10.923,3.717,-1
192,193,1582725379367,2.7282186,1.1693993,2.7296332999999997,6.132999999999999,10.329,3.554,-1
193,194,1582725379377,2.382959,0.35532093,2.4055173,5.692,9.551,3.218,-1
194,195,1582725379387,1.7057145,-0.48760033,1.7303621999999999,4.928,8.738999999999999,2.541,-1
195,196,1582725379397,1.102479,-1.0790892,1.1671003999999998,4.253,8.171,1.992,-1
196,197,1582725379408,0.6515906,-1.8131065,0.6171545,3.688,7.477,1.42,-1
197,198,1582725379418,-0.026901007,-2.6648436,0.43586475,2.883,6.667000000000001,1.2229999999999999,-1
198,199,1582725379428,-0.92850554,-3.2716365,0.5003926,1.851,6.1,1.286,-1
199,200,1582725379438,-1.6641233,-3.9763207,0.63098407,0.9890000000000001,5.431,1.4269999999999998,-1
200,201,1582725379448,-2.6717242999999997,-4.641671,0.98151314,-0.191,4.811,1.796,-1
201,202,1582725379459,-2.96953,-5.1323989999999995,0.60046405,-0.589,4.346,1.415,-1
202,203,1582725379469,-3.033431,-5.306323,0.37593102,-0.6990000000000001,4.184,1.185,-1
203,204,1582725379479,-3.5199160000000003,-5.909927400000001,-0.7190455,-1.314,3.614,0.055,-1
204,205,1582725379489,-3.8348440000000004,-6.205453400000001,-1.0944316,-1.669,3.3289999999999997,-0.337,-1
205,206,1582725379500,-4.4681664,-6.6231155,-2.1264591,-2.378,2.931,-1.405,-1
206,207,1582725379510,-5.079557,-7.087860000000001,-3.1356487,-3.056,2.483,-2.447,-1
207,208,1582725379520,-5.917322,-7.876682300000001,-4.352943,-3.97,1.712,-3.693,-1
208,209,1582725379531,-6.633507300000001,-8.48678,-4.5964055,-4.718,1.1079999999999999,-3.932,-1
209,210,1582725379541,-7.349082000000001,-9.037352,-4.3762989999999995,-5.446000000000001,0.5579999999999999,-3.685,-1
210,211,1582725379551,-7.765332000000001,-9.444278,-3.715817,-5.853,0.146,-2.9810000000000003,-1
211,212,1582725379561,-7.6562220000000005,-9.911342,-3.3731723,-5.709,-0.332,-2.589,-1
212,213,1582725379572,-7.436927000000001,-10.136981,-3.3399669999999997,-5.462999999999999,-0.565,-2.533,-1
213,214,1582725379582,-7.078514,-10.564266,-4.2325425,-4.996,-1.02,-3.372,-1
214,215,1582725379592,-6.890319,-10.529873,-4.822364,-4.713,-1.01,-3.927,-1
215,216,1582725379603,-6.706896,-10.981682000000001,-5.368925,-4.421,-1.492,-4.425,-1
216,217,1582725379613,-7.120775999999999,-11.728572999999999,-5.5944376,-4.718,-2.275,-4.581,-1
217,218,1582725379623,-7.420008,-12.157711,-5.3774157,-4.955,-2.725,-4.32,-1
218,219,1582725379634,-8.074012,-13.293853,-4.489154,-5.398,-3.9389999999999996,-3.266,-1
219,220,1582725379644,-8.130044,-13.659395000000002,-4.285062,-5.372000000000001,-4.337,-2.998,-1
220,221,1582725379654,-8.109587,-14.350407999999998,-4.141906,-5.063,-5.149,-2.6510000000000002,-1
221,222,1582725379665,-7.658549000000001,-14.510373999999999,-4.18386,-3.628,-5.355,-2.4930000000000003,-1
222,223,1582725379675,-5.1003027,-14.369122,-4.267753,-1.5419999999999998,-5.412000000000001,-2.457,-1
223,224,1582725379685,-4.115854,-14.480013,-4.370692299999999,-0.275,-5.683,-2.363,-1
224,225,1582725379696,-3.9751575,-14.955575,-3.658474,0.14800000000000002,-6.343999999999999,-1.42,-1
225,226,1582725379706,-4.6395097000000005,-15.353257000000001,-2.466425,-0.23199999999999998,-6.957000000000001,0.033,-1
226,227,1582725379716,-5.3315005,-15.251747,-0.5878866,-0.627,-7.11,2.1959999999999997,-1
227,228,1582725379727,-5.2441072,-14.861823999999999,1.3010988,-0.21,-7.0360000000000005,4.397,-1
228,229,1582725379737,-3.5465426,-13.853985,2.7803278,1.8869999999999998,-6.468,6.257999999999999,-1
229,230,1582725379747,2.3278293999999997,-12.204922999999999,3.7759705,8.456,-5.7139999999999995,7.836,-1
230,231,1582725379758,4.7480583,-11.534338,3.7601089999999995,11.06,-5.292000000000001,7.9270000000000005,-1
231,232,1582725379767,9.044905,-9.81119,4.2587204000000005,15.687000000000001,-4.0760000000000005,8.636000000000001,-1
232,233,1582725379777,11.758656,-7.5851917,5.4773602,18.678,-2.3680000000000003,10.068,-1
233,234,1582725379788,14.716989499999999,-3.9767306000000002,8.795193,21.974,0.45,13.685,-1
234,235,1582725379798,16.73065,-1.9093938000000001,11.170955000000001,24.17,1.9869999999999999,16.235,-1
235,236,1582725379808,17.322441,-1.2828016000000002,11.806442,24.838,2.356,16.949,-1
236,237,1582725379819,15.8151,-0.730783,10.291648,23.495,2.201,15.639000000000001,-1
237,238,1582725379829,13.116564000000002,-0.13690472,9.651251,20.858,2.371,15.124,-1
238,239,1582725379839,11.560715,1.3057524999999999,10.414897999999999,19.339000000000002,3.4,16.008,-1
239,240,1582725379849,11.85754,2.0571432,10.991652499999999,20.671,4.533,17.355999999999998,-1
240,241,1582725379859,14.014135000000001,3.7556186,12.151764,21.818,5.221,17.907,-1
241,242,1582725379870,15.8154125,5.1349306,12.393297,23.616999999999997,6.205,18.238,-1
242,243,1582725379880,14.660214000000002,5.376041000000001,9.728442999999999,22.438000000000002,5.957999999999999,15.673,-1
243,244,1582725379890,13.727329000000001,5.122489,8.385628,21.495,5.57,14.355,-1
244,245,1582725379901,11.998975999999999,4.0744286,5.6522284,19.73,4.16,11.685,-1
245,246,1582725379911,11.195641,3.5621529,5.707317,18.896,3.415,11.777999999999999,-1
246,247,1582725379921,10.50425,3.6458602,7.376198,18.168,3.266,13.482999999999999,-1
247,248,1582725379931,9.708669,3.7140152000000004,9.139669,17.337,3.113,15.273,-1
248,249,1582725379941,8.455739999999999,4.0130606,9.631003999999999,16.058,3.221,15.775,-1
249,250,1582725379951,7.138299000000001,4.518471,8.421231,14.724,3.573,14.564,-1
250,251,1582725379961,6.6510367,4.3321915,6.433448,14.225999999999999,3.262,12.569,-1
251,252,1582725379971,6.593828,4.526989,4.8198915,14.159,3.345,10.947000000000001,-1
252,253,1582725379982,6.637188,4.451296,4.5009236,14.183,3.156,10.629000000000001,-1
253,254,1582725379992,6.146651,4.331924400000001,5.3961377,13.658,2.9210000000000003,11.540999999999999,-1
254,255,1582725380003,5.480201200000001,4.3466187000000005,6.395,12.949000000000002,2.8280000000000003,12.565999999999999,-1
255,256,1582725380012,5.1048029999999995,4.4841223,6.4571238,12.535,2.8760000000000003,12.652000000000001,-1
256,257,1582725380022,4.763368,4.6430917,5.7038093,12.165999999999999,2.972,11.915,-1
257,258,1582725380032,4.3589325,4.84057,4.069221499999999,11.749,3.135,10.286,-1
258,259,1582725380043,4.4444099999999995,4.996932,2.7707691000000003,11.831,3.278,8.988,-1
259,260,1582725380053,4.338601000000001,4.9697742,1.434236,11.728,3.2539999999999996,7.649,-1
260,261,1582725380063,3.6660419,4.812386,0.5341916,11.064,3.123,6.746,-1
261,262,1582725380073,3.5340672,4.6531982,0.69558764,10.811,2.866,7.002999999999999,-1
262,263,1582725380083,3.1967325,4.3438377,1.0372190000000001,10.593,2.6839999999999997,7.2589999999999995,-1
263,264,1582725380094,2.399979,3.7586932,1.833519,9.783,2.133,8.08,-1
264,265,1582725380104,1.7567171999999998,3.3728156000000005,2.1336555,9.129,1.7790000000000001,8.401,-1
265,266,1582725380114,1.5441280000000002,2.9980884,2.3558898,8.907,1.439,8.642999999999999,-1
266,267,1582725380124,1.2810979,2.767198,2.2158623,8.636000000000001,1.252,8.523,-1
267,268,1582725380135,1.3191385,2.3020537,1.9256282,8.669,0.835,8.25,-1
268,269,1582725380145,1.058559,1.9899012999999999,1.6347418,8.404,0.579,7.977,-1
269,270,1582725380155,0.9589629000000001,1.7969436999999997,1.1769195,8.301,0.45,7.537000000000001,-1
270,271,1582725380165,0.87720203,1.4044027000000001,0.9875622,8.214,0.122,7.367000000000001,-1
271,272,1582725380175,0.88061905,1.176323,0.789155,8.217,-0.04,7.182,-1
272,273,1582725380186,0.8959055,1.0253776,0.73459196,8.238,-0.131,7.132000000000001,-1
273,274,1582725380196,0.91834116,0.81552386,0.6827234999999999,8.27,-0.285,7.079,-1
274,275,1582725380206,0.818141,0.86126435,0.66391087,8.176,-0.18600000000000003,7.062,-1
275,276,1582725380216,0.7086468,0.8191857,1.0342197,8.061,-0.182,7.446000000000001,-1
276,277,1582725380226,1.0446358,0.8019213000000001,1.43537,8.389,-0.162,7.862,d
277,278,1582725380237,1.5616478999999999,0.91769415,1.4876008,8.904,-0.009000000000000001,7.922000000000001,-1
278,279,1582725380247,1.862536,0.6688470000000001,1.1983986,9.208,-0.217,7.635,-1
279,280,1582725380257,1.8246927,0.58709943,1.1293721,9.172,-0.253,7.57,-1
280,281,1582725380267,2.0138025,0.62458575,1.3201942,9.359,-0.17,7.769,-1
281,282,1582725380277,2.222968,0.68601227,1.9929265999999999,9.56,-0.067,8.456,-1
282,283,1582725380288,2.5308156000000004,1.107691,2.8125896,9.855,0.397,9.295,-1
283,284,1582725380298,3.2982907,1.4605143,3.345786,10.612,0.797,9.845,-1
284,285,1582725380308,3.8009877,1.6941481,3.7348137,11.11,1.089,10.245,-1
285,286,1582725380319,3.839262,1.7451078999999998,3.8822927000000003,11.148,1.2109999999999999,10.399000000000001,-1
286,287,1582725380329,3.8162746,2.0789206,4.359585,11.127,1.6230000000000002,10.88,-1
287,288,1582725380339,3.989839,2.741752,5.1940827,11.302,2.366,11.718,-1
288,289,1582725380349,4.5983220000000005,3.2627577999999997,6.1928296,11.905,2.967,12.727,-1
289,290,1582725380360,5.689822,3.9438760000000004,6.993257000000001,13.606,3.9419999999999997,13.773,-1
290,291,1582725380370,6.7779050000000005,4.3433475,7.4747868,14.302999999999999,4.291,14.073,-1
291,292,1582725380380,7.386558,4.6024065,8.160991000000001,14.612,4.6819999999999995,14.790999999999999,-1
292,293,1582725380390,7.487111,4.9471207,8.992360000000001,14.681,5.18,15.652999999999999,-1
293,294,1582725380400,7.5713143,4.883633000000001,9.655534,14.734000000000002,5.297000000000001,16.340999999999998,-1
294,295,1582725380411,7.639583,4.792497,10.188095,14.777000000000001,5.419,16.884,-1
295,296,1582725380421,7.604227000000001,4.693827,9.917332,14.724,5.57,16.604,-1
296,297,1582725380431,7.533481,4.0025597,8.884111,14.64,5.166,15.540999999999999,-1
297,298,1582725380442,6.9925755999999994,3.5334487,7.6464514999999995,14.085,5.015,14.255,-1
298,299,1582725380451,6.6579690000000005,2.9383228,6.4366335999999995,13.728,4.756,12.985,-1
299,300,1582725380461,6.4550953,2.3927364,6.2038603,13.485999999999999,4.55,12.690999999999999,-1
300,301,1582725380471,6.4768930000000005,1.7947359,6.4281690000000005,13.448,4.291,12.857999999999999,-1
301,302,1582725380481,6.29128,1.0978861,6.844061,13.184000000000001,3.9389999999999996,13.215,-1
302,303,1582725380492,5.974401,0.05024481,6.8638296,12.779000000000002,3.252,13.158,-1
303,304,1582725380502,4.7281556,-0.64937806,6.489084,11.440999999999999,2.9360000000000004,12.674000000000001,-1
304,305,1582725380512,3.1031709,-1.5899421999999999,5.597404,9.722999999999999,2.397,11.635,-1
305,306,1582725380522,1.880516,-2.0342227999999998,4.4236307,8.408,2.359,10.277000000000001,-1
306,307,1582725380532,1.6096005,-2.2427216,3.7597847,8.092,2.349,9.51,-1
307,308,1582725380542,1.2352657,-3.1186576,2.2917395000000003,7.599,2.0069999999999997,7.7139999999999995,-1
308,309,1582725380553,0.47353745,-3.4497366,1.4176917,6.809,1.851,6.702999999999999,-1
309,310,1582725380563,-0.27019499999999996,-3.6735157999999997,0.5272522,5.977,1.949,5.58,-1
310,311,1582725380573,-0.47783613,-3.7163807999999996,-0.113893986,5.654,2.234,4.699,-1
311,312,1582725380583,-0.49903202,-3.4961972,-0.17721510000000001,5.497999999999999,2.7560000000000002,4.418,-1
312,313,1582725380593,-0.38302946,-3.6242588,-0.12135362599999999,5.462999999999999,2.905,4.279,-1
313,314,1582725380604,-0.43770790000000004,-4.09558,0.6711559,5.247000000000001,2.6889999999999996,4.893,-1
314,315,1582725380614,-0.85013056,-4.422999400000001,1.4603853,4.667,2.603,5.506,-1
315,316,1582725380624,-1.4063978000000001,-5.239332,1.5143065,3.9419999999999997,2.028,5.355,-1
316,317,1582725380634,-2.3053727000000004,-5.671515,1.3208618,2.8760000000000003,1.8359999999999999,4.921,-1
317,318,1582725380644,-3.387785,-5.881522,0.42603850000000004,1.631,1.858,3.755,-1
318,319,1582725380655,-3.7806851999999997,-6.0663967,-1.0213654,1.082,1.8869999999999998,2.023,-1
319,320,1582725380665,-4.0047326000000005,-6.478208,-2.4505727000000004,0.708,1.6640000000000001,0.318,-1
320,321,1582725380675,-4.1368103,-6.366719,-2.9756248,0.433,1.935,-0.452,-1
321,322,1582725380685,-4.294752,-6.636724000000001,-2.8822691000000003,0.141,1.796,-0.562,-1
322,323,1582725380696,-4.8388976999999995,-6.684228999999999,-2.5076306,-0.529,1.8559999999999999,-0.349,-1
323,324,1582725380706,-5.161126599999999,-6.701079400000001,-2.157698,-0.9670000000000001,1.9269999999999998,-0.124,-1
324,325,1582725380716,-4.892703,-6.787013000000001,-1.7351816999999998,-0.799,1.911,0.203,-1
325,326,1582725380726,-4.491722,-6.4820566,-1.2899951,-0.483,2.272,0.5720000000000001,-1
326,327,1582725380736,-3.586986,-6.3127613,-0.5972513,0.35200000000000004,2.488,1.192,-1
327,328,1582725380747,-2.7422714,-5.843827200000001,-0.39937997,1.1420000000000001,2.998,1.305,-1
328,329,1582725380757,-2.160546,-5.859456,-1.1296556999999998,1.712,3.036,-0.153,-1
329,330,1582725380767,-2.1707764,-5.7053523,-2.4098964,1.6230000000000002,3.216,-0.9309999999999999,-1
330,331,1582725380777,-2.6231572999999995,-5.956256,-2.9294095,1.125,3.003,-1.568,-1
331,332,1582725380788,-3.484482,-5.411552400000001,-2.9306345,0.203,3.594,-1.7169999999999999,-1
332,333,1582725380798,-3.4890833,-5.304764,-2.9163867999999997,0.184,3.7119999999999997,-1.743,-1
333,334,1582725380808,-2.0484366,-4.795085,-2.1919804,1.6019999999999999,4.243,-1.1159999999999999,-1
334,335,1582725380818,-1.46344,-4.573535,-1.8744003,2.184,4.468999999999999,-0.826,-1
335,336,1582725380828,-0.7105551,-4.3811855,-1.1187327,2.931,4.67,-0.126,-1
336,337,1582725380838,-0.35023093,-4.1645837,-0.9980923,3.281,4.902,-0.114,-1
337,338,1582725380849,-0.13592172,-3.8250093,-2.0897872,3.491,5.252000000000001,-1.3,-1
338,339,1582725380859,0.04968667,-3.2991748,-3.5791306000000005,3.678,5.7860000000000005,-2.897,-1
339,340,1582725380869,0.25334454,-3.2611604,-4.673882,3.889,5.829,-4.107,-1
340,341,1582725380879,-0.2882588,-2.985302,-4.645579,3.35,6.109,-4.169,-1
341,342,1582725380889,-0.6012026999999999,-2.7295198,-3.4771919999999996,3.032,6.367999999999999,-3.0239999999999996,-1
342,343,1582725380900,-0.6448772,-2.499457,-1.8137642,2.984,6.598,-1.3259999999999998,-1
343,344,1582725380910,-0.25726128,-2.1802544999999998,-0.11736399,3.3760000000000003,6.912000000000001,0.431,-1
344,345,1582725380920,-0.037516117,-1.8720403,0.70932907,3.609,7.211,1.319,-1
345,346,1582725380930,0.25556183,-1.6628785,0.81752646,3.9130000000000003,7.414,1.453,-1
346,347,1582725380940,0.45846677,-1.3269501,0.6170972,4.155,7.731,1.295,-1
347,348,1582725380950,0.42666099999999996,-0.96945953,-0.6247543999999999,4.15,8.08,0.019,-1
348,349,1582725380960,-0.0066230297,-0.7851676999999999,-1.1725104,3.7260000000000004,8.265,-0.596,-1
349,350,1582725380970,-0.33360457,-0.5211868,-1.4268885,3.3960000000000004,8.535,-0.9309999999999999,-1
350,351,1582725380980,-0.38256574,-0.41929340000000004,-1.6080426,3.343,8.641,-1.159,-1
351,352,1582725380990,-0.5344696,-0.455081,-1.3873353000000002,3.18,8.613999999999999,-1.034,-1
352,353,1582725381001,-0.82568836,-0.58872986,-1.1890686000000001,2.883,8.482999999999999,-0.843,-1
353,354,1582725381011,-0.93839693,-0.51387024,-0.38699874,2.7539999999999996,8.564,-0.027999999999999997,-1
354,355,1582725381021,-0.77811503,-0.38322544,-0.07248846,2.909,8.696,0.306,-1
355,356,1582725381031,-0.6044638000000001,-0.37313366,0.2256538,3.0839999999999996,8.705,0.617,-1
356,357,1582725381041,-0.72429943,0.19723415,0.6217034,2.9189999999999996,9.29,1.089,-1
357,358,1582725381052,-0.7433219,0.41439056,0.46730965,2.866,9.52,0.948,-1
358,359,1582725381062,-0.7634773,0.50312424,-0.31407788,2.823,9.62,0.122,-1
359,360,1582725381072,-0.44398046,0.56170464,-0.8529283999999999,3.139,9.683,-0.486,-1
360,361,1582725381083,-0.08156705,0.6029463,-1.243449,3.523,9.718,-0.938,-1
361,362,1582725381093,0.14203382,0.6435909000000001,-1.0271124,3.779,9.747,-0.7609999999999999,-1
362,363,1582725381103,0.20450902,0.865633,-0.5471854,3.875,9.956,-0.29600000000000004,-1
363,364,1582725381114,0.15041661,0.86648464,-0.12091760000000001,3.853,9.943999999999999,0.124,-1
364,365,1582725381124,0.11178303,1.0821562,0.010259628,3.846,10.147,0.244,-1
365,366,1582725381134,0.098649025,1.1567783,-0.18659799,3.865,10.209,0.019,-1
366,367,1582725381144,0.27818727,1.1500273,-0.6159879,4.0760000000000005,10.19,-0.455,-1
367,368,1582725381155,0.6205311,1.3914423,-1.1223632,4.452,10.418,-1.015,-1
368,369,1582725381165,0.78709316,1.4668608,-1.3458285,4.651,10.48,-1.2830000000000001,-1
369,370,1582725381175,0.83965397,1.68995,-1.2329257,4.732,10.690999999999999,-1.199,-1
370,371,1582725381185,0.6067791,1.7903976000000001,-0.99763805,4.521,10.782,-0.9790000000000001,-1
371,372,1582725381195,0.22555733,1.3680238999999998,-0.6900175000000001,4.155,10.353,-0.68,-1
372,373,1582725381206,-0.117123365,1.3264589,-0.019013211000000002,3.827,10.305,-0.011000000000000001,-1
373,374,1582725381216,-0.10054827,1.2256021000000001,0.33001557,3.853,10.2,0.337,-1
374,375,1582725381226,0.17482376,1.3429432,0.35787222,4.145,10.31,0.35600000000000004,-1
375,376,1582725381236,0.47171378,1.5286865,0.34595418,4.466,10.485,0.32299999999999995,d
376,377,1582725381246,0.76160717,1.6240454,0.14585492,4.77,10.574000000000002,0.107,-1
377,378,1582725381257,1.0030379,1.428442,-0.094968654,5.051,10.36,-0.203,-1
378,379,1582725381267,0.7597537,1.1855726,-0.59231657,4.83,10.106,-0.764,-1
379,380,1582725381277,0.69958115,1.128335,-1.0327468,4.792,10.037,-1.274,-1
380,381,1582725381287,1.0003095,1.0908308,-1.2071261,5.122000000000001,9.984,-1.5130000000000001,-1
381,382,1582725381298,1.4329386,1.5067158,-0.93381274,5.5889999999999995,10.382,-1.29,-1
382,383,1582725381308,2.0243974,1.6109200000000001,-0.95790774,6.218999999999999,10.466,-1.3619999999999999,-1
383,384,1582725381318,2.4410496,1.8534564999999998,-1.3054795,6.655,10.698,-1.7380000000000002,-1
384,385,1582725381328,3.4582900000000003,1.9232243999999998,-2.6945865,7.726,10.735999999999999,-3.235,-1
385,386,1582725381339,3.9787339999999998,1.9588546999999998,-3.0872579,8.274,10.753,-3.707,-1
386,387,1582725381349,4.260120400000001,1.9498843999999997,-3.163248,8.566,10.735999999999999,-3.822,-1
387,388,1582725381359,4.9018717,1.8247871,-3.1837955,9.225,10.593,-3.958,-1
388,389,1582725381369,5.0002474999999995,1.9812622,-3.7467417999999997,9.318999999999999,10.744000000000002,-4.603,-1
389,390,1582725381379,5.202262999999999,2.1128167999999996,-4.430383999999999,9.505,10.875,-5.369,-1
390,391,1582725381389,5.4305010000000005,1.9102306,-4.924019,9.709,10.675999999999998,-5.937,-1
391,392,1582725381399,5.6204,1.8138846999999998,-4.926705999999999,9.884,10.583,-5.973,-1
392,393,1582725381410,6.152807,1.6687098000000002,-4.8298440000000005,10.36,10.454,-5.965,-1
393,394,1582725381420,6.3872184999999995,1.5721531000000002,-4.7261370000000005,10.571,10.365,-5.888999999999999,-1
394,395,1582725381430,6.2587779999999995,1.0697231000000003,-4.6859803,10.353,9.892999999999999,-5.934,-1
395,396,1582725381441,5.913893700000001,0.9040823,-4.5525484,9.932,9.754,-5.858,-1
396,397,1582725381451,5.8185910000000005,0.7604274999999999,-4.394620400000001,9.795,9.625,-5.728,-1
397,398,1582725381461,5.6485806,0.27109337,-3.983101,9.491,9.182,-5.398,-1
398,399,1582725381472,6.0160084000000005,0.06845951,-3.8624701,9.764,9.012,-5.324,-1
399,400,1582725381482,6.1981797,-0.28727722,-4.1194224,9.847999999999999,8.691,-5.6160000000000005,-1
400,401,1582725381493,6.320358799999999,-0.6716956999999999,-4.46968,9.865,8.346,-5.982,-1
401,402,1582725381504,6.005802,-1.2392545,-4.662717,9.437999999999999,7.824,-6.162000000000001,-1
402,403,1582725381513,5.547551,-2.0622816000000004,-3.9234066,8.866,7.05,-5.381,-1
403,404,1582725381523,4.4673123,-3.0442734000000002,-2.87913,7.709,6.102,-4.296,-1
404,405,1582725381533,2.9043636000000004,-3.9691691,-1.7907196,6.157,5.172999999999999,-3.2089999999999996,-1
405,406,1582725381544,0.26977205,-5.650402,0.6179385000000001,3.245,3.611,-0.625,-1
406,407,1582725381554,-1.229025,-6.5460405,2.448466,1.551,2.79,1.317,-1
407,408,1582725381564,-1.9495209999999998,-6.833516,3.105385,0.735,2.536,2.021,-1
408,409,1582725381575,-3.1653757000000002,-7.241397,4.0135884,-0.752,2.2119999999999997,3.0239999999999996,-1
409,410,1582725381585,-3.5791187000000004,-7.538034,3.7265612999999997,-1.331,1.959,2.766,-1
410,411,1582725381595,-3.8270679,-7.613430999999999,3.271266,-1.729,1.92,2.332,-1
411,412,1582725381605,-4.0161023,-7.9029818,3.03932,-2.05,1.662,2.136,-1
412,413,1582725381615,-4.201698,-8.12352,3.0819936,-2.294,1.456,2.208,-1
413,414,1582725381625,-4.799513,-8.687045,4.4295053,-3.032,0.9309999999999999,3.695,-1
414,415,1582725381635,-5.0174975,-8.802875,4.998518,-3.285,0.826,4.325,-1
415,416,1582725381646,-5.3322400000000005,-8.98215,6.1361550000000005,-3.654,0.665,5.601,-1
416,417,1582725381656,-5.121277,-8.606192,7.0872173,-3.4939999999999998,1.06,6.792000000000001,-1
417,418,1582725381666,-5.0131825999999995,-8.37706,7.014825999999999,-3.4,1.295,6.876,-1
418,419,1582725381676,-5.475417,-7.9196740000000005,6.847031599999999,-3.872,1.755,6.859,-1
419,420,1582725381686,-6.018351,-7.8970766,6.729143,-4.433,1.7790000000000001,6.904,-1
420,421,1582725381697,-6.4275227,-7.7759895000000006,6.573207000000001,-4.861000000000001,1.901,6.8420000000000005,-1
421,422,1582725381707,-7.22098,-7.6421576,6.196978,-5.827000000000001,2.04,6.892,-1
422,423,1582725381717,-7.140197,-7.8220979999999996,6.1284275,-5.81,1.8559999999999999,6.986000000000001,-1
423,424,1582725381728,-6.733233,-8.004377,5.325789,-5.441,1.64,6.545,-1
424,425,1582725381738,-6.238737599999999,-7.8955574,5.619136,-4.912,1.712,7.07,-1
425,426,1582725381748,-6.463086,-6.9391,6.20982,-5.2589999999999995,2.5980000000000003,8.15,-1
426,427,1582725381758,-7.0307759999999995,-6.177634200000001,8.076572,-5.763999999999999,3.293,10.284,-1
427,428,1582725381769,-6.790066,-6.079581,10.519438000000001,-5.4,3.324,12.93,-1
428,429,1582725381778,-7.118826400000001,-5.969511499999999,12.008806,-5.582000000000001,3.3689999999999998,14.578,-1
429,430,1582725381788,-7.102664,-6.1950959999999995,11.720278,-5.405,3.082,14.408,-1
430,431,1582725381798,-6.8639526,-6.452239,10.926003,-5.082,2.7939999999999996,13.665,-1
431,432,1582725381808,-4.791321,-6.181903,8.705115,-2.7489999999999997,2.95,11.639000000000001,-1
432,433,1582725381819,-3.3741557999999996,-5.1665583,8.127724,-1.1540000000000001,3.858,11.258,-1
433,434,1582725381829,-2.639462,-4.041805,9.108168,-0.23199999999999998,4.864,12.434000000000001,-1
434,435,1582725381839,-2.2088330000000003,-2.8990726,10.995328,0.387,5.882000000000001,14.505999999999998,-1
435,436,1582725381849,-1.6501685000000001,-2.233006,12.605369,1.137,6.421,16.281,-1
436,437,1582725381859,-0.7177057,-2.0070353,12.792084,2.2680000000000002,6.524,16.597,-1
437,438,1582725381869,1.0860355,-1.8975363,11.772848,4.279,6.516,15.67,-1
438,439,1582725381879,3.191092,-1.5970096999999999,10.235308999999999,6.593,6.6979999999999995,14.209000000000001,-1
439,440,1582725381890,5.322721,-1.1067786,9.129741000000001,8.921,7.062,13.190999999999999,-1
440,441,1582725381900,6.608146700000001,0.030451775,8.971480999999999,10.375,8.064,13.148,-1
441,442,1582725381910,6.9570284,1.1095605,8.737925,10.859000000000002,9.002,13.057,-1
442,443,1582725381920,7.191745299999999,2.063511,9.024938,11.081,10.135,13.710999999999999,-1
443,444,1582725381930,7.058217999999999,2.6597842999999997,9.335739,11.155999999999999,10.274000000000001,13.962,-1
444,445,1582725381941,7.292167,2.2441735,8.872447,11.505,9.677999999999999,13.685,-1
445,446,1582725381951,7.9623550000000005,1.7387519,7.9041495,12.245,9.068999999999999,12.812999999999999,-1
446,447,1582725381961,8.535115,1.3655066,7.407361,12.850999999999999,8.648,12.357999999999999,-1
447,448,1582725381971,10.769748,2.0344900000000004,5.8933945,15.184000000000001,9.184,10.95,-1
448,449,1582725381981,12.945628999999998,2.6593537,4.3743987,17.426,9.726,9.488999999999999,-1
449,450,1582725381992,13.86961,3.1118236,3.42372,19.423,10.305,7.556,-1
450,451,1582725382002,16.409397,3.4832006,-0.19395638,20.994,10.415,5.012,-1
451,452,1582725382012,16.237679999999997,2.8746376000000002,-2.1112456,20.840999999999998,9.762,3.137,-1
452,453,1582725382022,14.228558999999999,2.1919603,-3.301824,18.82,9.05,1.995,-1
453,454,1582725382033,12.301938999999999,1.722064,-3.8370843,16.863,8.559,1.5130000000000001,-1
454,455,1582725382043,11.479723,1.6259527,-4.3111095,16.01,8.443999999999999,1.089,-1
455,456,1582725382053,12.077002,2.2756047,-5.725802,16.592,9.077,-0.292,-1
456,457,1582725382063,13.954720000000002,2.8649492000000003,-7.756177,18.477,9.654,-2.313,-1
457,458,1582725382073,15.515915,2.806229,-9.99276,20.058,9.592,-4.562,-1
458,459,1582725382084,15.770376,2.699966,-11.827316,20.331,9.496,-6.425,-1
459,460,1582725382094,14.662218,2.1011086,-13.022921,19.232,8.919,-7.656000000000001,-1
460,461,1582725382104,13.003430999999999,1.2591052,-13.488478,17.572,8.104,-8.155,-1
461,462,1582725382114,11.4272375,0.45802020000000004,-13.516982999999998,15.989,7.327999999999999,-8.21,-1
462,463,1582725382124,10.415287,-0.44348383,-13.433345999999998,14.972999999999999,6.442,-8.142999999999999,-1
463,464,1582725382134,10.38397,-0.78830624,-12.602598,14.947000000000001,6.095,-7.314,-1
464,465,1582725382145,10.5639925,-0.9169091999999999,-12.207493,15.134,5.957999999999999,-6.914,-1
465,466,1582725382155,11.277295,-1.4356585,-10.157337,15.883,5.393,-4.835,-1
466,467,1582725382165,11.274633,-1.6404109,-8.9774685,15.912,5.151,-3.635,-1
467,468,1582725382175,11.004011,-1.8855433000000001,-8.011622000000001,15.677,4.871,-2.656,-1
468,469,1582725382186,10.351795,-2.3134107999999998,-7.3569345,15.064,4.414,-1.999,-1
469,470,1582725382196,9.620932,-2.6312599999999997,-7.1011868,14.377,4.073,-1.7530000000000001,-1
470,471,1582725382206,8.876113,-3.0781702999999996,-6.808762599999999,13.682,3.6060000000000003,-1.48,-1
471,472,1582725382216,7.903946400000001,-3.5053976000000002,-6.306019999999999,12.775,3.156,-1.008,-1
472,473,1582725382226,7.0607923999999995,-3.9997193999999996,-5.6161769999999995,12.022,2.6289999999999996,-0.361,-1
473,474,1582725382236,5.8426943,-4.245597,-5.192277,10.952,2.327,-0.009000000000000001,-1
474,475,1582725382247,4.992030000000001,-4.6381755,-4.6570864,10.347999999999999,1.827,0.41100000000000003,-1
475,476,1582725382257,4.3657427,-4.6108856,-4.1830606,10.054,1.6880000000000002,0.73,-1
476,477,1582725382267,4.242984,-4.368592,-3.5102723,10.221,1.765,1.266,-1
477,478,1582725382277,4.891153299999999,-4.230048,-2.7405827,11.029000000000002,1.801,1.963,-1
478,479,1582725382288,5.4975114000000005,-3.9997659,-1.8255099999999997,11.735,1.966,2.83,-1
479,480,1582725382298,4.9687862,-3.8507826,-0.88133645,11.297,2.062,3.719,-1
480,481,1582725382308,3.8074807999999996,-3.9623017,-0.13559389,10.238,1.896,4.3919999999999995,-1
481,482,1582725382318,1.5932226,-3.9376059999999997,-0.13046359999999999,8.296,1.714,4.263,-1
482,483,1582725382329,0.9998107,-3.8116665000000003,-0.20018578,7.7589999999999995,1.81,4.145,-1
483,484,1582725382339,0.60887384,-3.394922,0.015866756,7.513,2.1430000000000002,4.239,-1
484,485,1582725382349,0.9299369000000001,-2.9646757000000004,1.1262126000000001,7.987,2.359,5.372000000000001,-1
485,486,1582725382359,1.0796642,-2.9393954,1.8434529,8.186,2.3080000000000003,6.102,-1
486,487,1582725382369,1.7811598999999998,-2.856816,4.652968,8.988,2.2319999999999998,8.935,-1
487,488,1582725382380,2.0480108,-2.5959406000000005,6.9454637,9.316,2.4090000000000003,11.222999999999999,-1
488,489,1582725382390,1.8343247999999999,-2.204611,8.995609,9.165,2.735,13.242,-1
489,490,1582725382400,0.5433974,-1.8074241000000002,10.285447,7.937,3.091,14.47,-1
490,491,1582725382410,-0.10821962,-1.7038233,10.402113,7.316,3.182,14.547,-1
491,492,1582725382421,-1.5083203,-1.1695697,9.94173,5.999,3.695,13.96,-1
492,493,1582725382432,-2.0823302,-1.0394115,9.173574,5.4670000000000005,3.81,13.130999999999998,-1
493,494,1582725382441,-2.2323222,-0.82933617,9.063908,5.35,3.9939999999999998,12.99,-1
494,495,1582725382451,-1.8251939,-0.56440973,9.113152000000001,5.7860000000000005,4.22,13.030999999999999,-1
495,496,1582725382461,-1.1067371000000001,-0.20421028,9.495453,6.531000000000001,4.533,13.419,-1
496,497,1582725382471,-0.680913,0.2682743,10.205947,6.981,4.96,14.137,-1
497,498,1582725382482,-0.8840251,0.37599802,10.2940445,6.7989999999999995,5.034,14.224,-1
498,499,1582725382492,-1.3742533000000001,0.51218605,9.953119000000001,6.325,5.151,13.874,-1
499,500,1582725382502,-1.9085120999999998,0.66598177,9.17411,5.8,5.297000000000001,13.085999999999999,-1
500,501,1582725382512,-2.09367,0.7735996,8.034472000000001,5.6160000000000005,5.403,11.946,-1
501,502,1582725382522,-2.2422452,0.969306,7.067658,5.457999999999999,5.601,10.995,-1
502,503,1582725382532,-2.2482734,1.0132575000000001,6.115664499999999,5.428999999999999,5.649,10.083,-1
503,504,1582725382542,-2.0857533999999998,1.1091966999999998,5.0699819999999995,5.558,5.747999999999999,9.097999999999999,-1
504,505,1582725382552,-1.7435078999999998,1.1072555,4.502279799999999,5.8629999999999995,5.747999999999999,8.597999999999999,-1
505,506,1582725382563,-1.6347857,1.0875039,3.7150126000000006,5.93,5.733,7.882000000000001,-1
506,507,1582725382573,-1.6810236,0.9709840000000001,3.6081042,5.8389999999999995,5.625,7.846,-1
507,508,1582725382583,-2.0504017,0.8347697000000001,3.9226349999999996,5.422000000000001,5.497999999999999,8.234,-1
508,509,1582725382593,-2.3571668,0.61516714,3.8784727999999995,5.06,5.287999999999999,8.274,-1
509,510,1582725382603,-2.4969015,0.5976057,3.6013222000000003,4.852,5.2829999999999995,8.097000000000001,-1
510,511,1582725382614,-1.9431157,0.5846195,3.4833160000000003,5.348,5.276,8.066,-1
511,512,1582725382623,-1.0838623,1.0502156999999999,3.1085596,6.171,5.742999999999999,7.747000000000001,-1
512,513,1582725382633,-0.6690893,1.2346845,2.5316919999999996,6.5520000000000005,5.932,7.218,-1
513,514,1582725382643,-0.5825715,1.3502555,1.8681974,6.6,6.061,6.6,-1
514,515,1582725382653,-0.5142398,1.2880806999999999,1.4899664,6.627000000000001,6.018,6.265,-1
515,516,1582725382663,-0.66727304,1.1758156000000002,1.3067431,6.428,5.93,6.126,-1
516,517,1582725382674,-0.74962854,0.8415226999999998,1.4862089,6.297999999999999,5.6129999999999995,6.358,-1
517,518,1582725382684,-0.8691559000000001,0.6689124,2.0995060000000003,6.132999999999999,5.446000000000001,7.031000000000001,-1
518,519,1582725382694,-1.0785403,0.51135063,2.3974671,5.877000000000001,5.29,7.393,-1
519,520,1582725382704,-1.0519195,0.40523005,2.5007772,5.858,5.182,7.561,-1
520,521,1582725382714,-0.782177,0.57663965,2.5300083,6.0920000000000005,5.352,7.64,-1
521,522,1582725382724,-0.24402237,0.8078065,2.0833807,6.603,5.585,7.228,-1
522,523,1582725382735,0.26578522,1.0581446,1.4186835,7.093999999999999,5.841,6.582999999999999,-1
523,524,1582725382745,0.80176926,1.2696714,0.9138613000000001,7.617999999999999,6.059,6.087999999999999,-1
524,525,1582725382755,1.1318173,1.2502561,0.8904042,7.934,6.045,6.077999999999999,d
525,526,1582725382766,0.844018,1.2390561000000002,1.1248278999999999,7.622999999999999,6.04,6.337000000000001,-1
526,527,1582725382776,0.47604513,1.0947471000000002,1.6191268,7.223,5.903,6.8660000000000005,-1
527,528,1582725382786,0.25519085,0.9366956,1.9326558,6.9670000000000005,5.752000000000001,7.218,-1
528,529,1582725382797,0.04390478,1.0732183000000002,2.2753816000000002,6.72,5.896,7.599,-1
529,530,1582725382807,0.11251259,1.1869721000000002,2.5176497,6.757999999999999,6.018,7.872000000000001,-1
530,531,1582725382817,0.56947803,1.5758028,2.566318,7.192,6.417999999999999,7.939,-1
531,532,1582725382827,0.9474578000000001,1.8834004,2.6295156000000004,7.867000000000001,7.0,8.283999999999999,-1
532,533,1582725382838,1.5204372,2.366055,3.1445756,8.109,7.237,8.533,-1
533,534,1582725382848,2.0587711,2.7676578,4.308742,8.61,7.667999999999999,9.716000000000001,-1
534,535,1582725382858,2.09974,2.9299150000000003,4.771780000000001,8.634,7.843,10.187999999999999,-1
535,536,1582725382868,2.5176534999999998,3.3096147000000005,6.010911,8.988,8.274,11.457,-1
536,537,1582725382878,2.8816495,3.7037199999999997,6.473549,9.302,8.717,11.934000000000001,-1
537,538,1582725382888,3.183711,3.9757705000000003,6.2013655,9.551,9.055,11.663,-1
538,539,1582725382899,3.2019515,4.390199,5.596464599999999,9.513,9.552999999999999,11.045,-1
539,540,1582725382909,3.2069645,4.628049,5.215164,9.457,9.886000000000001,10.642999999999999,-1
540,541,1582725382919,2.9757432999999995,4.699138,5.3549795,9.156,10.059,10.763,-1
541,542,1582725382929,2.87743,4.608667400000001,5.8478317,8.976,10.075,11.242,-1
542,543,1582725382940,2.8535385,4.439351,6.540366000000001,8.859,10.017999999999999,11.924000000000001,-1
543,544,1582725382950,2.8950171,4.358899,6.699366,8.799,10.059,12.068,-1
544,545,1582725382960,3.1952342999999996,4.294994,6.306789,8.995,10.13,11.644,-1
545,546,1582725382970,3.9118247000000004,4.124344000000001,5.2162104000000005,9.607999999999999,10.109,10.499,-1
546,547,1582725382980,4.366481299999999,3.7984028,4.401048,9.958,9.946,9.607999999999999,-1
547,548,1582725382991,4.2523254999999995,3.4515586000000003,3.7413802000000005,9.732999999999999,9.774,8.856,-1
548,549,1582725383001,3.9678025000000003,2.9743319,3.4170818,9.326,9.479,8.432,-1
549,550,1582725383011,3.1186533,2.4480543,3.0870504,8.339,9.137,8.004,-1
550,551,1582725383021,2.0789226999999997,2.0898404,3.1044054,7.149,8.962,7.925,-1
551,552,1582725383032,1.5142870000000002,1.82024,3.1745848999999997,6.433,8.871,7.893,-1
552,553,1582725383042,1.5445037,1.611567,2.5290607999999994,6.32,8.835,7.132000000000001,-1
553,554,1582725383053,1.6318135,1.2821889,1.7436118000000003,6.274,8.672,6.2170000000000005,-1
554,555,1582725383062,1.9665928,1.0930638000000001,1.0420575,6.485,8.641,5.376,-1
555,556,1582725383072,2.0999060000000003,0.9240837,0.3456335,6.502000000000001,8.622,4.533,-1
556,557,1582725383082,2.2119145000000002,0.89212704,0.14430761,6.5,8.732000000000001,4.184,-1
557,558,1582725383092,2.600082,0.5101867,0.41467070000000006,6.777,8.482999999999999,4.308,-1
558,559,1582725383103,2.6345215,-0.078167915,0.25794196,6.71,8.02,3.997,-1
559,560,1582725383113,1.8315631999999997,-0.38934135,0.05323887,5.819,7.8260000000000005,3.628,-1
560,561,1582725383124,1.1304538,-0.5425453,-0.3365941,5.067,7.776,3.051,-1
561,562,1582725383134,0.29520965,-0.7800927,-0.8357694,4.109,7.6610000000000005,2.385,-1
562,563,1582725383144,-0.45417570000000007,-0.37984657,-0.83629537,3.221,8.177999999999999,2.234,-1
563,564,1582725383154,-0.39194536,-0.8738365,0.10296178,3.091,7.8260000000000005,2.9930000000000003,-1
564,565,1582725383165,-0.33302188,-1.0397449,0.39894128,3.094,7.699,3.238,-1
565,566,1582725383175,0.108431816,-1.2492242,0.9854698000000001,3.4389999999999996,7.558,3.7260000000000004,-1
566,567,1582725383185,0.944051,-1.7870598000000002,0.8134482,4.423,6.797000000000001,3.1489999999999996,-1
567,568,1582725383195,1.1717183999999998,-2.5451808,-0.42012334,4.343999999999999,6.428,1.944,-1
568,569,1582725383206,0.79755974,-3.0293899,-1.9020758999999998,3.8989999999999996,6.018,0.265,-1
569,570,1582725383216,0.49723077,-3.6288775999999996,-2.6024046000000003,3.525,5.486000000000001,-0.622,-1
570,571,1582725383226,0.4425192,-3.9523568,-2.8099432,3.4339999999999997,5.192,-0.912,-1
571,572,1582725383236,0.1960001,-4.5186996,-2.4539266,3.082,4.696000000000001,-0.742,-1
572,573,1582725383247,0.26777363,-4.7163553,-1.636557,3.0869999999999997,4.533,-0.002,-1
573,574,1582725383257,0.8364079,-4.852418,-0.51174116,3.594,4.425,1.068,-1
574,575,1582725383267,1.1411033000000002,-5.220436,0.3770064,3.839,4.083,1.906,-1
575,576,1582725383277,0.6527630999999999,-5.273141000000001,0.4731294,3.2880000000000003,4.059,1.935,-1
576,577,1582725383287,0.30270840000000004,-5.449259,0.14070153,2.8739999999999997,3.915,1.508,-1
577,578,1582725383298,0.30386257,-5.530922400000001,-1.0674553,2.8139999999999996,3.867,0.177,-1
578,579,1582725383308,0.39067840000000004,-5.614535299999999,-1.6888244,2.8710000000000004,3.8,-0.512,-1
579,580,1582725383318,0.7777170999999999,-6.0986133,-2.2094712000000003,3.1660000000000004,3.362,-1.228,-1
580,581,1582725383328,1.3711927,-5.853336,-1.3887599,3.7,3.633,-0.519,-1
581,582,1582725383339,1.9495470000000001,-6.1158457,-1.1309664,4.2219999999999995,3.3930000000000002,-0.364,-1
582,583,1582725383349,1.6424642,-6.2411222,-1.1475540000000002,3.853,3.29,-0.483,-1
583,584,1582725383359,1.2883277,-6.1874194000000005,-1.1701428999999999,3.465,3.355,-0.5579999999999999,-1
584,585,1582725383369,-0.19406486,-5.797802,-2.7032099,1.882,3.7760000000000002,-2.253,-1
585,586,1582725383380,-0.6797534000000001,-5.6744356,-3.1246707000000002,1.367,3.908,-2.727,-1
586,587,1582725383390,-1.0011014999999999,-5.3040650000000005,-3.7627068,0.9840000000000001,4.296,-3.5010000000000003,-1
587,588,1582725383400,-0.98453027,-5.081005,-3.7208620000000003,0.9840000000000001,4.524,-3.523,-1
588,589,1582725383411,-0.16680992,-4.7650765999999996,-3.294769,1.805,4.84,-3.137,-1
589,590,1582725383420,0.51439416,-4.5984783,-3.1133623,2.495,5.005,-2.969,-1
590,591,1582725383430,2.655415,-3.7111921000000003,-1.9341457999999998,4.687,5.882000000000001,-1.817,-1
591,592,1582725383441,3.1076949000000003,-3.1331086,-1.353321,5.192,6.449,-1.2570000000000001,-1
592,593,1582725383451,2.4556925,-2.6709075,-1.147892,4.574,6.904,-1.082,-1
593,594,1582725383461,1.2519263999999999,-2.5343776,-1.3591236999999998,3.3689999999999998,7.041,-1.3359999999999999,-1
594,595,1582725383472,-0.24579155,-2.1213808,-1.7917539,1.8530000000000002,7.457999999999999,-1.8219999999999998,-1
595,596,1582725383482,-0.89599156,-1.5838456,-2.0622747,1.185,7.999,-2.157,-1
596,597,1582725383492,-0.9778104,-1.6217208,-2.742609,1.099,7.961,-2.912,-1
597,598,1582725383503,-0.60406196,-1.5849109,-3.0916363999999996,1.492,7.992000000000001,-3.3360000000000003,-1
598,599,1582725383513,0.0035881996,-1.1973457,-3.2046919999999997,2.148,8.365,-3.57,-1
599,600,1582725383523,1.2989049,-0.7144079000000001,-2.7235372000000004,3.58,8.806000000000001,-3.2969999999999997,-1
600,601,1582725383534,2.4365041,0.32009697,-1.051793,4.881,9.8,-1.6230000000000002,-1
601,602,1582725383544,2.4533452999999996,0.5833520999999999,-0.7128800999999999,4.938,10.054,-1.264,-1
602,603,1582725383554,1.5742052,0.52958965,-0.091849625,4.145,9.98,-0.593,-1
603,604,1582725383565,0.78562,0.45094776,-0.15535468,3.388,9.892999999999999,-0.6509999999999999,-1
604,605,1582725383575,0.5072727,0.46174908,-0.32101399999999997,3.1180000000000003,9.901,-0.826,-1
605,606,1582725383585,-0.24845815,0.31368542,-0.79639786,2.3680000000000003,9.747,-1.3769999999999998,-1
606,607,1582725383595,-0.48817158,0.58333206,-1.6825025000000002,2.124,10.013,-2.3369999999999997,-1
607,608,1582725383605,-0.21832204,0.8165293,-2.277845,2.416,10.236,-2.988,-1
608,609,1582725383616,0.20557189,0.9225167999999999,-2.0756407,2.8810000000000002,10.329,-2.804,-1
609,610,1582725383626,0.7548845000000001,0.9760742,-1.4810383,3.484,10.368,-2.198,-1
610,611,1582725383636,1.4537756000000002,0.8758601999999999,-0.96569115,4.2410000000000005,10.253,-1.652,-1
611,612,1582725383647,1.4497378,0.72704506,0.20467308,4.289,10.092,-0.433,-1
612,613,1582725383657,1.0242745999999998,0.6488457,0.9018436,3.9010000000000002,10.006,0.32,-1
613,614,1582725383667,0.13086534,0.5525398,1.1639433000000001,3.0239999999999996,9.908,0.639,-1
614,615,1582725383677,-0.39642740000000004,0.6790972,1.1302643,2.4930000000000003,10.037,0.629,-1
615,616,1582725383688,-0.72065616,0.83730793,0.6236948,2.153,10.202,0.16,-1
616,617,1582725383698,-0.5797999,0.8224229999999999,0.29624188,2.299,10.186,-0.158,-1
617,618,1582725383708,-0.19439006,0.7175845999999999,0.30277488,2.7060000000000004,10.075,-0.141,-1
618,619,1582725383718,0.45584798,0.7230300999999999,0.12382209,3.415,10.062999999999999,-0.299,-1
619,620,1582725383728,0.62781477,0.72829056,0.19915655,3.611,10.061,-0.215,-1
620,621,1582725383738,1.0387034,0.5870018,0.20774134,4.0760000000000005,9.902999999999999,-0.18899999999999997,d
621,622,1582725383748,0.8399689,0.83841133,0.08275828,3.923,10.14,-0.299,-1
622,623,1582725383758,0.42784667,1.045125,0.06968135,3.5439999999999996,10.335999999999999,-0.304,-1
623,624,1582725383768,-0.04134226,1.0034742,-0.04735607,3.0989999999999998,10.286,-0.426,-1
624,625,1582725383779,-0.029487371000000002,1.1454725000000001,-0.45910054,3.137,10.418,-0.8640000000000001,-1
625,626,1582725383789,0.47346067,1.1483164,-1.1323831,3.676,10.405999999999999,-1.59,-1
626,627,1582725383799,1.4377143000000001,1.2184162,-2.6106129,4.706,10.447000000000001,-3.178,-1
627,628,1582725383809,1.6225886,1.2952242,-3.1084023,4.912,10.514000000000001,-3.7119999999999997,-1
628,629,1582725383819,2.0467038,1.396781,-3.6000607000000002,5.376,10.597000000000001,-4.265,-1
629,630,1582725383830,2.5888512,1.6428108000000001,-3.8671343,5.954,10.827,-4.572,-1
630,631,1582725383840,2.88347,1.9165343999999997,-3.5764256000000003,6.279,11.088,-4.301,-1
631,632,1582725383850,3.7296455,2.0270977,-3.1804919999999997,7.162999999999999,11.184000000000001,-3.911,-1
632,633,1582725383860,4.4239736,2.2081327,-3.1146379,7.877000000000001,11.357000000000001,-3.853,-1
633,634,1582725383870,5.251831,2.0140448,-3.1034088,8.717,11.155999999999999,-3.87,-1
634,635,1582725383881,5.7005854000000005,2.2337312999999996,-3.1462467,9.165,11.370999999999999,-3.97,-1
635,636,1582725383891,5.783938,2.0869836999999998,-3.4376203999999997,9.242,11.222999999999999,-4.301,-1
636,637,1582725383901,5.3169403,1.9822836,-4.686916,8.729,11.12,-5.702000000000001,-1
637,638,1582725383911,5.1791105,1.620431,-5.9419017,8.545,10.763,-7.062,-1
638,639,1582725383922,5.461592700000001,1.313549,-6.5834503,8.78,10.463,-7.7860000000000005,-1
639,640,1582725383932,6.45024,1.1259756,-6.503853299999999,9.726,10.284,-7.757000000000001,-1
640,641,1582725383942,7.749378999999999,0.92284775,-5.935135400000001,10.985,10.092,-7.211,-1
641,642,1582725383952,8.476212,0.7105236,-5.503669,11.663,9.896,-6.785,-1
642,643,1582725383962,8.200317,0.54740906,-5.110774,11.318,9.757,-6.388999999999999,-1
643,644,1582725383972,7.313855,-0.18056870000000003,-4.7147217,10.341,9.06,-5.987,-1
644,645,1582725383983,6.0608835,-0.8916693000000001,-4.0198894,8.986,8.382,-5.29,-1
645,646,1582725383993,4.7658949999999995,-1.7972016,-3.12141,7.599,7.502999999999999,-4.406000000000001,-1
646,647,1582725384003,3.7960762999999997,-2.5094514,-1.9378498,6.646,6.775,-3.2969999999999997,-1
647,648,1582725384013,3.4607002999999996,-3.5097027,-1.0246327,6.272,5.781000000000001,-2.421,-1
648,649,1582725384024,3.3103747,-4.2723713,-0.24054193,6.03,5.043,-1.6540000000000001,-1
649,650,1582725384034,2.9434829,-4.6919622,0.048963665999999996,5.5489999999999995,4.6530000000000005,-1.3840000000000001,-1
650,651,1582725384044,2.0350099,-5.6213617,0.16660439999999999,4.505,3.7569999999999997,-1.288,-1
651,652,1582725384054,0.6859126,-6.35652,0.83551234,3.003,3.0580000000000003,-0.637,-1
652,653,1582725384064,-0.8668364,-7.034967999999999,1.674359,1.288,2.416,0.18899999999999997,-1
653,654,1582725384074,-2.5514278,-7.8751297000000005,2.7052688999999996,-0.56,1.611,1.216,-1
654,655,1582725384085,-3.9245365,-8.54195,3.8994088,-2.086,0.977,2.423,-1
655,656,1582725384095,-4.9338,-8.875494999999999,4.688689,-3.2230000000000003,0.6729999999999999,3.25,-1
656,657,1582725384105,-5.398010299999999,-8.849752,5.588697,-3.779,0.725,4.22,-1
657,658,1582725384115,-5.3230705,-8.795138,6.682460300000001,-3.76,0.804,5.4239999999999995,-1
658,659,1582725384126,-5.147626,-8.742901,7.7957563,-3.616,0.8809999999999999,6.6979999999999995,-1
659,660,1582725384136,-5.5579795999999995,-8.582507000000001,9.041992,-4.109,1.087,8.286,-1
660,661,1582725384147,-6.260248000000001,-8.32943,10.733808999999999,-4.902,1.3769999999999998,10.401,-1
661,662,1582725384157,-7.6572905,-7.9932593999999995,12.965116499999999,-6.895,1.827,13.843,-1
662,663,1582725384167,-9.111391000000001,-7.7803545,14.560737,-7.683,1.92,14.743,-1
663,664,1582725384177,-8.971230499999999,-7.1325899999999995,14.118256,-7.472,2.553,14.453,-1
664,665,1582725384188,-8.198734,-6.8453856,13.907077,-6.653,2.83,14.317,-1
665,666,1582725384198,-6.6489910000000005,-5.6930456,14.119503,-4.928,3.9389999999999996,14.777000000000001,-1
666,667,1582725384208,-6.1243224000000005,-4.9894958,15.669891,-4.27,4.603,16.516,-1
667,668,1582725384218,-6.309684,-4.449496,17.777557,-4.32,5.096,18.824,-1
668,669,1582725384229,-7.221758400000001,-4.266255,19.577301000000002,-5.101,5.228,20.815,-1
669,670,1582725384239,-8.42303,-3.9986382000000007,20.328529999999997,-6.167000000000001,5.443,21.72,-1
670,671,1582725384249,-7.9299539999999995,-3.4744892,19.104235,-5.515,5.912999999999999,20.592,-1
671,672,1582725384259,-5.504059,-2.3595285,16.898716,-2.895,6.968999999999999,18.429000000000002,-1
672,673,1582725384269,-1.7491845000000001,-1.4465866000000003,14.262652,1.084,7.814,15.807,-1
673,674,1582725384279,1.7915823,-0.21239376,11.810176,4.861000000000001,8.971,13.364,-1
674,675,1582725384289,3.5183400000000002,0.7641534999999999,10.592949,6.813,9.865,12.171,-1
675,676,1582725384300,3.1992097000000004,1.940093,10.858083,6.691,10.959000000000001,12.482000000000001,-1
676,677,1582725384310,2.3819935,2.7638998,11.770875,6.047000000000001,11.704,13.448,-1
677,678,1582725384320,3.3341053,3.2059555,11.640053,7.17,12.068,13.349,-1
678,679,1582725384330,5.8614755,3.8969278,10.227284,9.881,12.679,11.927,-1
679,680,1582725384340,8.849113000000001,3.9007519999999998,7.669598599999999,13.06,12.602,9.321,-1
680,681,1582725384351,11.110395,3.6740856,4.818976999999999,15.502,12.298,6.404,-1
681,682,1582725384361,11.70779,3.3778447999999996,2.3913655,16.254,11.931,3.923,-1
682,683,1582725384371,11.392422,2.947628,1.3462106000000003,16.063,11.436,2.864,-1
683,684,1582725384381,10.807381,3.2972745999999997,1.8780066999999998,15.577,11.725999999999999,3.42,-1
684,685,1582725384392,11.118530999999999,3.66152,1.8772494,15.977,12.034,3.448,-1
685,686,1582725384401,12.535734,4.050360700000001,0.64711964,17.486,12.37,2.2119999999999997,-1
686,687,1582725384411,14.472812,4.126276,-2.0668385,19.517,12.401,-0.565,-1
687,688,1582725384421,15.739782,3.7335385999999997,-5.928294,20.866999999999997,11.977,-4.54,-1
688,689,1582725384432,15.011223000000001,3.164503,-9.845260000000001,20.194000000000003,11.395,-8.593,-1
689,690,1582725384442,12.922466,2.446743,-12.167479,18.127,10.681,-11.036,-1
690,691,1582725384452,10.684235000000001,1.7807941000000003,-13.1635685,15.886,10.027000000000001,-12.109000000000002,-1
691,692,1582725384462,9.424776,1.4333858,-13.039667,14.616,9.69,-12.015,-1
692,693,1582725384472,9.514389,1.4652996,-12.674131,14.7,9.726,-11.654000000000002,-1
693,694,1582725384482,10.401153,1.3866701000000001,-13.060727,15.589,9.647,-12.049000000000001,-1
694,695,1582725384492,10.701885,1.0023117,-13.416497,15.89,9.266,-12.434000000000001,-1
695,696,1582725384502,10.237950999999999,0.5839939000000001,-13.525779,15.414000000000001,8.861,-12.593,-1
696,697,1582725384513,9.137961,-0.18066692,-13.288507999999998,14.288,8.119,-12.415,-1
697,698,1582725384523,7.933999000000001,-0.6840105,-12.704409,13.048,7.644,-11.890999999999998,-1
698,699,1582725384533,6.8623266,-1.3199128999999998,-12.011316,11.936,7.037999999999999,-11.254000000000001,-1
699,700,1582725384543,5.537876,-1.9931192,-11.075041,10.571,6.394,-10.372,-1
700,701,1582725384553,4.6553325999999995,-2.3324290000000003,-10.336006,9.654,6.08,-9.692,-1
701,702,1582725384563,4.407128,-2.7067118,-9.80809,9.383,5.724,-9.23,-1
702,703,1582725384573,3.9756322,-3.0325002999999997,-9.042611,8.94,5.41,-8.543,-1
703,704,1582725384583,3.3972816,-3.3302822,-8.390011,8.361,5.118,-7.992000000000001,-1
704,705,1582725384594,2.7889795,-3.7299665999999996,-7.573340400000001,7.771,4.713,-7.316,-1
705,706,1582725384604,2.297234,-4.150675,-6.764883,7.34,4.26,-6.727,-1
706,707,1582725384614,2.2149362999999997,-4.3193502,-5.853712000000001,7.367000000000001,4.021,-6.109,-1
707,708,1582725384624,2.2706593999999996,-4.311413,-3.7993620000000004,7.672999999999999,3.846,-4.4639999999999995,-1
708,709,1582725384634,2.5505853,-4.300602,-2.526896,8.155,3.693,-3.4560000000000004,-1
709,710,1582725384645,2.9022045,-4.0628057,-2.0134714,8.818,3.6639999999999997,-3.2260000000000004,-1
710,711,1582725384655,2.7873068,-3.9586124,-1.6697859,8.854,3.6180000000000003,-3.07,-1
711,712,1582725384666,1.7864203,-4.1847650000000005,0.008784771,7.961,3.273,-1.5490000000000002,-1
712,713,1582725384676,0.92832994,-4.2399883,1.4382458,7.06,3.245,-0.158,-1
713,714,1582725384686,0.3591218,-4.2688084,2.6629224,6.437,3.2539999999999996,1.0390000000000001,-1
714,715,1582725384697,0.3283167,-4.2647476,3.3195932,6.356,3.293,1.671,-1
715,716,1582725384707,0.33329200000000003,-4.178385,3.7351718000000003,6.313,3.412,2.062,-1
716,717,1582725384717,0.27852297,-4.3157463,3.9315542999999997,6.21,3.307,2.234,-1
717,718,1582725384727,-0.28240633,-4.557453,4.2860394,5.5920000000000005,3.103,2.56,-1
718,719,1582725384737,-1.0195670000000001,-4.8453856,4.713945400000001,4.792,2.8569999999999998,2.9619999999999997,-1
719,720,1582725384747,-1.826762,-5.005220400000001,5.3518419999999995,3.925,2.739,3.5869999999999997,-1
720,721,1582725384758,-2.6866395,-5.0606093,6.831663000000001,3.017,2.7230000000000003,5.084,-1
721,722,1582725384768,-3.4422599999999997,-5.011553299999999,8.63893,2.2319999999999998,2.8089999999999997,6.962000000000001,-1
722,723,1582725384778,-4.541176,-5.0684557,10.193813,1.135,2.802,8.777000000000001,-1
723,724,1582725384788,-5.11753,-5.334982,11.661354,0.581,2.5860000000000003,10.684000000000001,-1
724,725,1582725384798,-4.497369,-5.541107,12.91305,1.2329999999999999,2.378,12.125,-1
725,726,1582725384809,-3.9392400000000003,-5.6876698,13.915296,1.841,2.21,13.294,-1
726,727,1582725384819,-4.207219,-5.8056316,15.239995,1.633,2.059,14.782,-1
727,728,1582725384829,-4.9479165,-5.493223,17.057636,0.9620000000000001,2.327,16.762,-1
728,729,1582725384839,-5.976166200000001,-4.806735,18.90084,0.016,2.955,18.76,-1
729,730,1582725384849,-6.727761999999999,-4.0304766,19.865254999999998,-0.639,3.657,19.857,-1
730,731,1582725384860,-7.1079464,-3.487761,19.425123000000003,-0.907,4.109,19.514,-1
731,732,1582725384869,-6.841903,-3.3162518,18.695,-0.579,4.229,18.82,-1
732,733,1582725384879,-5.001539,-2.773931,15.706432999999999,1.47,4.591,15.924000000000001,-1
733,734,1582725384889,-3.8388815000000003,-2.5978694,14.377403,2.783,4.629,14.683,-1
734,735,1582725384899,-3.1396267000000004,-2.6709466,13.508201000000001,3.635,4.406000000000001,13.946,-1
735,736,1582725384910,-2.8878555,-2.2988652999999997,13.219642000000002,4.038,4.617,13.831,-1
736,737,1582725384920,-2.8734580000000003,-1.8918618999999999,13.539523,4.2,4.852,14.35,-1
737,738,1582725384930,-2.7175837000000005,-1.3159695,14.312835,4.5,5.245,15.328,-1
738,739,1582725384940,-2.3951077,-1.1044502,14.712032,4.9639999999999995,5.263999999999999,15.919,-1
739,740,1582725384950,-1.7279543999999998,-1.0166788,13.929107,5.771,5.151,15.306,-1
740,741,1582725384960,-0.8832059000000001,-0.742712,11.954224,6.752999999999999,5.216,13.488,-1
741,742,1582725384970,0.4031453,-0.7217765,9.867625,8.171,5.019,11.562999999999999,-1
742,743,1582725384980,1.8731394000000001,-0.93417263,7.566192999999999,9.762,4.579,9.448,-1
743,744,1582725384991,2.731255,-0.47809409999999997,6.541128,10.722000000000001,4.803999999999999,8.642999999999999,-1
744,745,1582725385000,3.3361377999999995,0.16650486,6.8585142999999995,11.407,5.216,9.211,-1
745,746,1582725385010,3.923396,0.89144087,7.9073668,12.056,5.707000000000001,10.523,-1
746,747,1582725385020,4.014634,1.3454275,8.897247,12.193,5.934,11.765999999999998,-1
747,748,1582725385030,3.6848019999999995,1.5205493,8.665106,11.895999999999999,5.898,11.761,-1
748,749,1582725385040,3.4185371,1.4695492,7.211899799999999,11.654000000000002,5.654,10.504000000000001,-1
749,750,1582725385051,3.8406657999999996,1.388248,5.43845,12.094000000000001,5.391,8.907,-1
750,751,1582725385061,4.495391000000001,1.3701398,3.8292794000000003,12.758,5.197,7.47,-1
751,752,1582725385071,5.0067625,1.8050138999999998,2.8826687,13.267999999999999,5.462999999999999,6.696000000000001,-1
752,753,1582725385081,5.5275135,2.5313687000000002,2.3519955,13.78,6.028,6.332000000000001,-1
753,754,1582725385092,6.566339500000001,3.2563617000000002,1.5249476,14.81,6.6,5.652,-1
754,755,1582725385102,7.6462784,4.0839953,0.7356639,15.883,7.29,4.984,-1
755,756,1582725385112,8.857441,4.381245,-1.2310236,17.088,7.47,3.115,-1
756,757,1582725385123,9.038589,4.686393700000001,-3.3008046,17.258,7.683,1.13,-1
757,758,1582725385133,8.094843,4.5035467,-4.5135994,16.293,7.431,0.002,-1
758,759,1582725385143,6.572525,4.0972633,-5.006615,14.738,6.968999999999999,-0.397,-1
759,760,1582725385153,5.187869,3.598527,-4.155224,13.312999999999999,6.416,0.5579999999999999,-1
760,761,1582725385163,4.4402932999999996,3.2409818,-2.8326173,12.520999999999999,5.997000000000001,1.992,-1
761,762,1582725385173,4.266595,2.8922812999999996,-0.63407135,12.279000000000002,5.542000000000001,4.361000000000001,-1
762,763,1582725385184,4.371236,2.8930797999999998,-0.13721514,12.363,5.507999999999999,4.909,-1
763,764,1582725385194,5.102533,2.728949,-0.22064638,13.05,5.254,4.94,-1
764,765,1582725385204,5.1153059999999995,2.6914444,-0.89847326,13.045,5.178,4.308,-1
765,766,1582725385214,4.701831299999999,2.4891276,-1.8872933,12.619000000000002,4.955,3.3480000000000003,-1
766,767,1582725385225,4.0358605,2.1516900000000003,-2.219975,11.943,4.61,3.034,-1
767,768,1582725385235,3.670949,1.8851125,-2.3662827,11.575,4.342,2.8930000000000002,-1
768,769,1582725385246,2.9416822999999996,1.8942041,-1.5607461999999999,10.835,4.346,3.717,-1
769,770,1582725385256,3.1202106,1.8399022,-1.1028118,11.002,4.279,4.198,-1
770,771,1582725385266,3.3736005,2.02268,-0.94445896,11.244000000000002,4.447,4.38,-1
771,772,1582725385276,3.4488760000000003,2.115272,-1.2751489,11.314,4.531000000000001,4.061,-1
772,773,1582725385286,3.1776310000000003,1.9461336,-1.9975305,11.048,4.3660000000000005,3.3289999999999997,-1
773,774,1582725385297,2.5773252999999996,1.9097531000000003,-2.808566,10.466,4.351,2.481,-1
774,775,1582725385306,2.28715,1.6524897,-2.8170195,10.205,4.121,2.416,-1
775,776,1582725385316,2.227675,1.650379,-2.6787717,10.158999999999999,4.129,2.529,-1
776,777,1582725385326,2.1665673,1.5885663,-1.3491358999999998,10.123,4.078,3.815,-1
777,778,1582725385337,2.240055,1.620147,-0.6032776999999999,10.205,4.109,4.548,-1
778,779,1582725385347,2.18647,1.6675427,-0.58415604,10.162,4.162,4.548,-1
779,780,1582725385357,2.0464149,1.8219666,-0.97958326,10.037,4.337,4.119,-1
780,781,1582725385367,1.9919729,1.7353276999999998,-1.188489,9.992,4.2669999999999995,3.887,-1
781,782,1582725385378,0.99971104,1.6643476000000001,-1.3947933000000001,9.033999999999999,4.282,3.582,-1
782,783,1582725385388,0.8867406999999999,1.5943835,-1.3976488,8.753,4.253,3.681,-1
783,784,1582725385398,0.28094578,1.395683,-0.9462259,8.353,4.188,3.872,-1
784,785,1582725385409,0.36482525,1.5056143,-0.7434392,8.44,4.38,4.021,d
785,786,1582725385419,0.7678709,1.5918083,-0.54419565,8.842,4.5169999999999995,4.191,-1
786,787,1582725385429,1.3745813,1.8014596,-0.26228523,9.445,4.756,4.461,-1
787,788,1582725385440,1.8847361,1.799468,-0.16530657,9.951,4.7780000000000005,4.55,-1
788,789,1582725385450,1.5700226000000002,1.8334546000000003,0.27187204,9.627,4.842,4.984,-1
789,790,1582725385460,1.148016,1.9411006000000002,0.89819574,9.189,4.988,5.6129999999999995,-1
790,791,1582725385470,0.75428486,1.8783866999999999,1.1851273,8.775,4.968999999999999,5.906000000000001,-1
791,792,1582725385480,0.8627367,1.6999400000000002,1.4874096,8.863,4.833,6.215,-1
792,793,1582725385491,1.4318608999999998,2.0807226,2.1282582000000003,9.414,5.252000000000001,6.861000000000001,-1
793,794,1582725385500,2.0067009999999996,2.314018,2.4986257999999997,9.972000000000001,5.522,7.235,-1
794,795,1582725385510,2.3807878,2.7665672000000003,2.0728211,10.327,6.016,6.813,-1
795,796,1582725385520,2.5354671000000004,3.0921442999999997,2.0112151999999996,10.456,6.3870000000000005,6.763,-1
796,797,1582725385531,2.883233,3.4303656000000005,2.0616784,10.772,6.77,6.835,-1
797,798,1582725385540,3.0334125,3.6161413000000002,2.090993,10.904000000000002,6.979,6.877999999999999,-1
798,799,1582725385550,3.2959256000000003,3.9755836,2.9590082000000004,11.107999999999999,7.414,7.787999999999999,-1
799,800,1582725385560,3.9404626000000005,4.539571,4.156868,11.720999999999998,8.032,8.998,-1
800,801,1582725385571,4.690095400000001,5.096992500000001,4.8229184,12.449000000000002,8.655,9.651,-1
801,802,1582725385581,5.4465,5.6584606,4.641472,13.190999999999999,9.299,9.431000000000001,-1
802,803,1582725385591,6.0834064,6.088294,3.8295078,13.814,9.829,8.564,-1
803,804,1582725385601,6.3873615,6.4179316,3.1156077,14.097000000000001,10.272,7.792999999999999,-1
804,805,1582725385612,6.3062115,6.6869354,3.001738,13.984000000000002,10.662,7.63,-1
805,806,1582725385622,5.933669,6.7163424,4.29371,13.467,10.681,8.847000000000001,-1
806,807,1582725385632,5.6244726,6.5375195,4.742783,13.222000000000001,10.782,9.263,-1
807,808,1582725385642,5.490784,6.514408599999999,5.277646,13.05,10.915999999999999,9.711,-1
808,809,1582725385653,5.9244165,6.1493782999999995,5.2512045,13.45,10.724,9.565,-1
809,810,1582725385663,5.993493,5.84516,4.736174,13.469000000000001,10.71,8.812999999999999,-1
810,811,1582725385674,5.7233730000000005,5.2476650000000005,4.6939754,13.158,10.322000000000001,8.586,-1
811,812,1582725385684,5.4026585,4.847144,4.635892,12.812999999999999,10.03,8.43,-1
812,813,1582725385695,3.8059287000000004,3.9296055,4.6641455,11.12,9.45,8.157,-1
813,814,1582725385705,3.0821862,3.3968186,5.001020400000001,10.312000000000001,9.144,8.298,-1
814,815,1582725385715,2.7432203,2.783296,4.9848094000000005,9.877,8.753,8.09,-1
815,816,1582725385726,2.2431817,2.3088932,4.8606739999999995,9.271,8.497,7.774,-1
816,817,1582725385736,2.0806146,1.9787426,4.924691,9.052999999999999,8.274,7.74,-1
817,818,1582725385746,1.201992,1.1230559,4.765217,8.001,7.731,7.271,-1
818,819,1582725385756,0.18125963,0.71215487,4.884966,6.856,7.522,7.175,-1
819,820,1582725385767,-1.0044665000000002,0.30256940000000004,4.496605000000001,5.53,7.311,6.582999999999999,-1
820,821,1582725385777,-1.4813823999999998,0.2793579,4.2671423,4.7010000000000005,7.29,5.934,-1
821,822,1582725385787,-1.3454509,0.035829544,3.6970427000000003,4.933,7.337999999999999,5.5489999999999995,-1
822,823,1582725385798,0.105454445,-0.6329675,2.8898572999999996,6.183,6.892,4.505,-1
823,824,1582725385808,0.008565426,-0.73366976,2.6834626,5.957999999999999,6.914,4.196000000000001,-1
824,825,1582725385818,0.17909908,-0.9454087999999999,2.973627,6.001,6.806,4.454,-1
825,826,1582725385828,0.13608789999999998,-0.94075346,3.4271483,5.819,6.919,4.876,-1
826,827,1582725385839,-0.42090559999999994,-1.2225513000000001,3.3946042000000003,5.098,6.725,4.9910000000000005,-1
827,828,1582725385849,-1.2899646999999999,-1.8796476999999998,3.3901362,4.0569999999999995,6.195,4.933,-1
828,829,1582725385859,-3.0473893,-2.8937668999999997,4.011545,2.028,5.386,5.374,-1
829,830,1582725385869,-3.6625462,-3.0997424,3.9746910000000004,1.324,5.247000000000001,5.254,-1
830,831,1582725385880,-4.5404029999999995,-4.0886188,3.06285,0.201,4.442,4.021,-1
831,832,1582725385890,-4.189152,-4.517816000000001,1.212379,0.41100000000000003,4.114,1.92,-1
832,833,1582725385900,-3.7925506,-4.623613400000001,-0.0008030534,0.742,4.052,0.584,-1
833,834,1582725385910,-0.61912537,-4.7573986,-1.9295651000000003,3.7289999999999996,4.0280000000000005,-1.645,-1
834,835,1582725385921,-0.28481674,-4.7357949999999995,-1.9244283,3.9989999999999997,4.083,-1.705,-1
835,836,1582725385931,-0.93021536,-5.4386125,0.14097592,3.13,3.487,0.27699999999999997,-1
836,837,1582725385941,-1.7936578,-5.922571,2.8725327999999997,2.1,3.077,3.005,-1
837,838,1582725385951,-2.2490196,-6.3211718,4.3785872,1.5590000000000002,2.715,4.5089999999999995,-1
838,839,1582725385962,-3.9198402999999997,-6.289747,6.209026000000001,-0.371,2.852,6.277,-1
839,840,1582725385972,-4.0038586,-6.2200155,5.6391954,-0.536,2.9530000000000003,5.652,-1
840,841,1582725385982,-3.9397218,-6.214748999999999,1.6024367,-0.687,3.034,1.3769999999999998,-1
841,842,1582725385993,-4.190298,-6.097336299999999,-0.96756065,-1.063,3.19,-1.3359999999999999,-1
842,843,1582725386003,-4.3096676,-6.1628620000000005,-1.7042074,-1.288,3.156,-2.15,-1
843,844,1582725386013,-3.8699245,-6.250597,-0.8429109,-0.929,3.094,-1.29,-1
844,845,1582725386023,-2.4235860000000002,-5.840388,0.8641230999999999,0.45899999999999996,3.525,0.47600000000000003,-1
845,846,1582725386033,-1.7065504,-5.662448,2.0827312,1.1520000000000001,3.7119999999999997,1.7380000000000002,-1
846,847,1582725386043,-0.25957465,-4.9394574,4.916900599999999,2.526,4.461,4.711,-1
847,848,1582725386054,-1.0180559999999998,-4.044356,6.365786,1.705,5.376,6.255,-1
848,849,1582725386064,-1.3035082,-3.6275077000000007,5.6865478,1.3430000000000002,5.815,5.6129999999999995,-1
849,850,1582725386074,-1.3923546999999998,-3.3913336000000003,3.0051441000000003,1.178,6.071000000000001,2.838,-1
850,851,1582725386085,-1.7763362,-3.1523824,-0.20088765,0.716,6.327000000000001,-0.517,-1
851,852,1582725386095,-1.7236822,-3.1247015,-3.3305892999999998,0.6940000000000001,6.367999999999999,-3.793,-1
852,853,1582725386105,-1.0844066,-2.9383364,-4.5081153,1.2690000000000001,6.564,-5.0889999999999995,-1
853,854,1582725386115,-0.99043834,-3.0617204,-2.915167,1.314,6.452000000000001,-3.5060000000000002,-1
854,855,1582725386126,-1.3862066000000002,-3.11484,1.0230327,0.8590000000000001,6.421,0.579,-1
855,856,1582725386136,-1.8945074,-2.625721,3.2494345,0.313,6.9239999999999995,2.9330000000000003,-1
856,857,1582725386146,-2.01927,-2.4105835,4.0046577,0.16699999999999998,7.146,3.755,-1
857,858,1582725386156,-1.8129547,-1.8396254,4.4091163,0.632,8.078,3.772,-1
858,859,1582725386167,-0.5000175,-0.90734196,2.3217470000000002,1.59,8.674,2.311,-1
859,860,1582725386177,0.3353305,-0.7107458000000001,0.26670915,2.423,8.871,0.22,-1
860,861,1582725386187,0.6421213000000001,-0.7583914,-1.6769191000000003,2.739,8.82,-1.844,-1
861,862,1582725386197,0.35902786,-0.7537594,-2.3648417,2.454,8.823,-2.6239999999999997,-1
862,863,1582725386207,-0.35170830000000003,-0.88422203,-2.6794302000000005,1.705,8.696,-3.0789999999999997,-1
863,864,1582725386218,-1.441354,-0.6818199,-1.5405396999999998,0.529,8.914,-1.9969999999999999,-1
864,865,1582725386228,-1.4520766999999999,-0.340271,-0.15252548,0.45,9.271,-0.5720000000000001,-1
865,866,1582725386238,-1.0331967,-0.17621040000000002,0.42817703,0.816,9.448,0.07400000000000001,-1
866,867,1582725386248,-0.62260807,0.17133522,0.39345816,1.163,9.81,0.114,-1
867,868,1582725386259,-0.54109573,0.16431427,0.34972507,1.202,9.812000000000001,0.11699999999999999,-1
868,869,1582725386269,-0.58471024,0.29680443,0.3571729,1.125,9.951,0.14800000000000002,-1
869,870,1582725386279,-0.73576534,0.47908497,0.3156839,0.9359999999999999,10.14,0.11,-1
870,871,1582725386290,-0.19866776,0.7160797,-0.15409222,1.453,10.38,-0.38,-1
871,872,1582725386299,0.5614798000000001,1.0322561,-1.1287056999999998,2.208,10.696,-1.396,-1
872,873,1582725386309,0.99093926,1.0686607,-1.8622779999999999,2.6319999999999997,10.732000000000001,-2.174,-1
873,874,1582725386319,0.915753,0.9713497,-1.762922,2.543,10.636,-2.105,-1
874,875,1582725386330,0.49004936,0.76388264,-1.1946388000000001,2.095,10.432,-1.544,-1
875,876,1582725386340,-0.07986915,0.60929203,0.14366753,1.492,10.284,-0.172,d
876,877,1582725386350,-0.79272807,0.5965767,1.3098615,0.732,10.280999999999999,1.07,-1
877,878,1582725386360,-1.1444199,0.6380520000000001,1.8523773999999997,0.33,10.332,1.6980000000000002,-1
878,879,1582725386370,-0.9481149999999999,0.56631756,2.1638749,0.488,10.267000000000001,2.095,-1
879,880,1582725386381,-0.58991593,0.61066914,2.0125446,0.823,10.315,2.009,-1
880,881,1582725386391,-0.09482586400000001,0.66913605,1.6859172999999998,1.307,10.375,1.724,-1
881,882,1582725386401,0.16755176,0.8188038000000001,1.6853446,1.5590000000000002,10.526,1.7530000000000001,-1
882,883,1582725386412,0.16021931,0.5596514,1.399553,1.535,10.269,1.494,-1
883,884,1582725386422,-0.45637184,0.30014038,1.2238657,0.8759999999999999,10.015,1.3530000000000002,-1
884,885,1582725386432,-0.9681062,0.07250595,0.9722171999999999,0.27699999999999997,9.798,1.159,-1
885,886,1582725386442,-1.3331128,-0.23327350000000002,1.2070737,-0.18600000000000003,9.503,1.4509999999999998,-1
886,887,1582725386452,-1.6223997,-0.25328636,1.4615676000000002,-0.584,9.493,1.781,-1
887,888,1582725386463,-1.5278098999999998,-0.52968884,1.4688827,-0.5770000000000001,9.222999999999999,1.858,-1
888,889,1582725386473,-1.7750893,-0.8474292999999999,1.3937921999999998,-1.386,8.715,1.983,-1
889,890,1582725386483,-2.6011872000000005,-1.2524118,1.7749912,-1.777,8.507,2.27,-1
890,891,1582725386493,-3.4261398,-2.0144333999999997,2.2788568,-2.701,7.747000000000001,2.878,-1
891,892,1582725386504,-3.6144016000000003,-2.2792573,2.5578701,-2.9189999999999996,7.482,3.194,-1
892,893,1582725386514,-3.6987087999999995,-3.037284,2.9637928,-3.051,6.722,3.676,-1
893,894,1582725386524,-3.4462333,-3.9352803,3.6467862,-2.84,5.817,4.481,-1
894,895,1582725386534,-3.7340589,-4.53385,4.354403,-3.1489999999999996,5.211,5.285,-1
895,896,1582725386545,-4.6184745000000005,-5.398375,5.6838690000000005,-4.083,4.334,6.763,-1
896,897,1582725386555,-5.945589,-6.3832830000000005,6.9987144,-5.58,3.3169999999999997,8.392000000000001,-1
897,898,1582725386565,-7.5894723,-7.5790733999999995,8.125061,-7.2589999999999995,2.105,9.635,-1
898,899,1582725386575,-8.465314999999999,-8.803467999999999,8.126388,-8.135,0.8690000000000001,9.709,-1
899,900,1582725386585,-9.024295,-9.375693,7.393428299999999,-8.667,0.287,9.029,-1
900,901,1582725386596,-8.589997,-10.200264,6.340946,-8.195,-0.55,8.04,-1
901,902,1582725386606,-7.7223186,-10.148057000000001,5.582032,-7.337999999999999,-0.524,7.426,-1
902,903,1582725386616,-6.542907,-9.147666000000001,6.0698137,-6.162000000000001,0.433,8.128,-1
903,904,1582725386626,-3.8369315000000004,-8.675885000000001,5.6810602999999995,-3.326,0.866,7.886,-1
904,905,1582725386637,-1.3300618,-7.652566,4.8885307000000005,-0.589,1.8719999999999999,7.103,-1
905,906,1582725386647,0.6479935,-7.238341,3.745279,1.6380000000000001,2.27,5.932,-1
906,907,1582725386657,1.6825793000000002,-7.179589999999999,1.9940057,2.917,2.311,4.133,-1
907,908,1582725386667,2.147552,-6.37563,0.6225085,3.6180000000000003,3.091,2.718,-1
908,909,1582725386677,3.6564337999999994,-5.5461800000000006,-0.2848755,5.369,3.884,1.791,-1
909,910,1582725386687,5.5382657,-4.5094566,-1.3259516000000002,7.568,4.854,0.7659999999999999,-1
910,911,1582725386698,7.113909,-2.9992132000000002,-2.3675675,9.546,6.26,-0.24100000000000002,-1
911,912,1582725386708,8.822608,-1.8773346000000002,-2.4180200000000003,11.527000000000001,7.287999999999999,-0.215,-1
912,913,1582725386718,9.4199705,-0.8343792,-1.7261087,12.367,8.231,0.5770000000000001,-1
913,914,1582725386728,9.35869,-0.741312,-1.6173148000000002,12.523,8.224,0.787,-1
914,915,1582725386738,8.907465,-0.30080414,-1.8150792000000002,12.267000000000001,8.568999999999999,0.677,-1
915,916,1582725386749,9.607425,1.0645608999999998,-2.1577802000000004,13.151,9.843,0.402,-1
916,917,1582725386759,11.783361,2.1010942000000004,-3.744507,15.514000000000001,10.789000000000001,-1.1420000000000001,-1
917,918,1582725386769,14.449745000000002,3.2074442000000003,-5.7942204,18.367,11.805,-3.1660000000000004,-1
918,919,1582725386779,16.148186,4.1040525,-7.768099,20.233,12.614,-5.11,-1
919,920,1582725386790,16.45036,4.335664700000001,-9.099173,20.666,12.765,-6.388999999999999,-1
920,921,1582725386799,15.25518,4.033309,-9.318601,19.562,12.390999999999998,-6.531000000000001,-1
921,922,1582725386809,13.859293,4.3317595,-8.809022,18.23,12.624,-5.9270000000000005,-1
922,923,1582725386820,14.297493,4.6017647,-8.878708999999999,18.726,12.83,-5.903,-1
923,924,1582725386830,15.80595,4.9994497,-9.541565,20.295,13.165,-6.485,-1
924,925,1582725386840,16.897202,4.8593283,-10.532154,21.44,12.969000000000001,-7.407,-1
925,926,1582725386850,17.031311,4.5746117,-11.242769000000001,21.61,12.64,-8.056000000000001,-1
926,927,1582725386861,16.012604,3.8993797,-11.215667999999999,20.604,11.934000000000001,-7.97,-1
927,928,1582725386871,14.330664,2.9601192000000003,-10.879278,17.945,10.509,-7.204,-1
928,929,1582725386881,12.226322999999999,1.4337225,-10.436935,16.772000000000002,9.433,-7.042999999999999,-1
929,930,1582725386891,11.770891,0.7759423000000001,-10.650564,15.652999999999999,8.387,-7.24,-1
930,931,1582725386901,10.405662,-0.5222969,-10.25731,14.889000000000001,7.45,-6.72,-1
931,932,1582725386912,10.214121,-1.0425997,-9.650446,14.683,6.919,-6.071000000000001,-1
932,933,1582725386922,9.204784,-2.0567159999999998,-7.444724000000001,13.649000000000001,5.865,-3.748,-1
933,934,1582725386932,8.388392999999999,-2.5720243,-5.947460700000001,12.842,5.321000000000001,-2.201,-1
934,935,1582725386942,7.300730000000001,-2.8392096000000002,-5.091266,11.79,5.027,-1.331,-1
935,936,1582725386952,6.1405926,-3.084117,-5.032254,10.7,4.756,-1.3019999999999998,-1
936,937,1582725386962,5.4720106,-3.127266,-5.352275,10.085,4.699,-1.659,-1
937,938,1582725386972,4.247478,-2.8361087000000005,-6.4344177,9.067,4.952,-2.929,-1
938,939,1582725386982,4.3830029999999995,-2.9466615000000003,-6.0263230000000005,9.35,4.803999999999999,-2.6460000000000004,-1
939,940,1582725386992,5.181418,-2.9775152,-4.871679,10.272,4.7219999999999995,-1.5590000000000002,-1
940,941,1582725387003,6.071993,-3.1793256000000003,-3.5551975,11.263,4.466,-0.273,-1
941,942,1582725387013,5.689178500000001,-3.3067260000000003,-2.3093,10.978,4.282,0.948,-1
942,943,1582725387023,4.325145200000001,-3.0788598,-1.1463430000000001,9.735,4.437,2.081,-1
943,944,1582725387033,3.134779,-2.9154633999999997,-0.43912340000000005,8.72,4.485,2.7560000000000002,-1
944,945,1582725387044,2.784491,-2.7285619,0.55684924,8.521,4.5569999999999995,3.748,-1
945,946,1582725387054,2.9840074,-2.694871,2.0914202,8.818,4.502,5.307,-1
946,947,1582725387064,3.2409444,-2.545659,4.003833,9.144,4.579,7.254,-1
947,948,1582725387074,2.8264593999999996,-1.91747,6.464715,8.787,5.142,9.752,-1
948,949,1582725387084,1.9572062,-1.2943811,8.86537,7.968,5.709,12.181,-1
949,950,1582725387095,0.96218634,-0.69164467,10.877939999999999,7.019,6.267,14.204,-1
950,951,1582725387105,0.3561058,0.05106163,11.964922,6.454,6.979,15.28,-1
951,952,1582725387115,0.44006062,0.50039625,12.116485,6.574,7.412000000000001,15.399000000000001,-1
952,953,1582725387125,-0.029179096,1.3487606,12.002944,6.131,8.258,15.241,-1
953,954,1582725387135,-0.6552248,1.6596789,11.976892999999999,5.522,8.576,15.167,-1
954,955,1582725387146,-1.0763621,1.7694855,12.242174,4.603,8.908999999999999,15.770999999999999,-1
955,956,1582725387156,-1.9765248,2.1052303,13.001767999999998,4.208,9.041,16.135,-1
956,957,1582725387166,-2.1771727000000003,2.333014,14.000638,3.9989999999999997,9.273,17.141,-1
957,958,1582725387176,-2.6692883999999997,2.4251002999999995,15.528707999999998,3.489,9.366,18.702,-1
958,959,1582725387187,-2.8767788,2.5328765,16.457829,3.2539999999999996,9.477,19.677,-1
959,960,1582725387197,-2.8362147999999996,2.898056,16.502945,3.259,9.853,19.766,-1
960,961,1582725387207,-2.4368272,3.280704,15.941466,3.6180000000000003,10.257,19.234,-1
961,962,1582725387217,-2.0165968,3.4672050000000003,14.787970999999999,3.9939999999999998,10.48,18.084,-1
962,963,1582725387227,-1.8746599999999998,3.5462441,13.146010999999998,4.083,10.612,16.425,-1
963,964,1582725387237,-2.4516337000000004,3.2232685,11.728439999999999,3.4389999999999996,10.353,14.99,-1
964,965,1582725387248,-3.1409037,3.0194755,10.530757000000001,2.668,10.217,13.79,-1
965,966,1582725387258,-3.2058310000000003,2.8361125,9.7317505,2.512,10.099,13.007,-1
966,967,1582725387268,-2.9512822999999995,2.8010354,9.307898,2.72,10.095,12.595,-1
967,968,1582725387278,-1.8340151000000002,3.1715527000000003,8.27314,3.702,10.559000000000001,11.582,-1
968,969,1582725387288,-0.16632605,4.0474,6.113045,5.247000000000001,11.540999999999999,9.386000000000001,-1
969,970,1582725387299,0.17106056,4.4535956,5.3792715,5.546,11.987,8.624,-1
970,971,1582725387309,0.8881855,4.709246599999999,3.7349436000000003,6.186,12.329,6.904,-1
971,972,1582725387319,1.9883447,4.837425700000001,2.1722412,7.1610000000000005,12.595,5.211,-1
972,973,1582725387329,2.1895474999999998,5.1713023,1.8699408,7.268,13.020999999999999,4.83,-1
973,974,1582725387340,2.4297357,5.131232700000001,2.177323,7.69,13.027999999999999,5.415,-1
974,975,1582725387350,3.3170404,4.667049400000001,3.2531476,8.186,12.693,6.09,-1
975,976,1582725387360,3.3005862,4.58204,3.652371,8.113999999999999,12.652000000000001,6.459,-1
976,977,1582725387370,3.5330220000000003,3.985612,3.9255059,8.177999999999999,12.193,6.615,-1
977,978,1582725387381,4.014621,3.8566580000000004,3.569008,8.55,12.159,6.152,-1
978,979,1582725387391,4.7791543,3.2455673,3.2584087999999998,9.206,11.644,5.716,-1
979,980,1582725387401,4.9931183,3.0338277999999996,3.0582209,9.402000000000001,11.314,5.266,-1
980,981,1582725387411,4.984637,1.9467506,2.7004697,9.175,10.542,4.876,-1
981,982,1582725387421,4.752932,0.8759326999999999,2.31173,8.816,9.568,4.3389999999999995,-1
982,983,1582725387432,4.276938400000001,0.089922905,1.7068265999999999,8.214,8.873,3.585,-1
983,984,1582725387442,3.352301,-0.60100365,0.83806825,7.1770000000000005,8.262,2.5669999999999997,-1
984,985,1582725387452,1.9136894,-1.1877046,0.39291728,5.771,7.685,1.995,-1
985,986,1582725387463,1.0441646999999998,-1.9467238999999998,0.23458672,4.773,7.005,1.695,-1
986,987,1582725387473,0.64059377,-2.9838915,0.23626089,4.224,6.0489999999999995,1.554,-1
987,988,1582725387483,0.52049804,-4.017812999999999,0.1255765,3.9610000000000003,5.091,1.2930000000000001,-1
988,989,1582725387494,0.41041923,-4.796753,-0.62759894,3.714,4.382,0.376,-1
989,990,1582725387504,0.65125847,-5.2737680000000005,-1.6779606,3.824,3.968,-0.845,-1
990,991,1582725387514,0.62294817,-5.7923017,-2.413175,3.6660000000000004,3.5060000000000002,-1.7409999999999999,-1
991,992,1582725387524,0.00274539,-6.1989145,-2.8855517,2.912,3.1510000000000002,-2.351,-1
992,993,1582725387535,-0.7147784,-6.6096916,-3.2007947,2.059,2.787,-2.778,-1
993,994,1582725387545,-1.1045188999999997,-7.1942906,-3.3458633,1.537,2.244,-3.012,-1
994,995,1582725387555,-1.4347957,-7.679189,-2.7398303,1.08,1.796,-2.481,-1
995,996,1582725387565,-2.0361717,-8.124661999999999,-2.2563965,0.35600000000000004,1.3840000000000001,-2.074,-1
996,997,1582725387576,-2.6883798,-8.573808,-2.3446712000000005,-0.414,0.965,-2.251,-1
997,998,1582725387586,-3.2471068,-9.092647,-3.63909,-1.1320000000000001,0.483,-3.7,-1
998,999,1582725387596,-3.3908515,-9.260705,-4.225934,-1.324,0.325,-4.3389999999999995,-1
999,1000,1582725387606,-4.179914,-9.32589,-5.710694,-2.246,0.285,-5.957999999999999,-1
1000,1001,1582725387616,-4.509156,-9.428966,-5.6759458,-2.615,0.18899999999999997,-5.954,-1
1001,1002,1582725387627,-4.9268665,-9.754109,-5.4446115,-3.1010000000000004,-0.124,-5.757000000000001,-1
1002,1003,1582725387637,-5.4814787,-9.910972000000001,-4.496192,-3.7239999999999998,-0.268,-4.803999999999999,-1
1003,1004,1582725387647,-5.6477394,-10.013602,-4.16622,-3.903,-0.368,-4.4639999999999995,-1
1004,1005,1582725387657,-5.543829,-10.082247,-3.6884131,-3.803,-0.435,-3.9539999999999997,-1
1005,1006,1582725387667,-5.0534887,-10.1330185,-4.746832,-3.2880000000000003,-0.49,-5.003,-1
1006,1007,1582725387677,-4.864164,-10.09685,-5.6500297,-3.082,-0.457,-5.91,-1
1007,1008,1582725387687,-4.5747333,-10.276793,-7.197914,-2.761,-0.644,-7.497999999999999,-1
1008,1009,1582725387698,-4.847709,-10.429486,-8.037415,-3.0410000000000004,-0.802,-8.504,-1
1009,1010,1582725387707,-5.2052402,-11.030253,-7.7865477,-3.647,-1.5730000000000002,-8.219,-1
1010,1011,1582725387717,-5.5415773,-11.405744,-6.8593254,-3.815,-2.129,-6.952000000000001,-1
1011,1012,1582725387727,-5.553294,-12.0289755,-5.3368397000000005,-3.7239999999999998,-2.423,-6.077999999999999,-1
1012,1013,1582725387738,-5.183304,-12.386859,-2.81387,-3.1510000000000002,-2.804,-3.2710000000000004,-1
1013,1014,1582725387748,-5.2678847,-12.410072,-2.0307775,-3.156,-2.84,-2.383,-1
1014,1015,1582725387758,-4.896868700000001,-12.521183,-1.1774793,-2.4019999999999997,-2.9210000000000003,-1.0390000000000001,-1
1015,1016,1582725387768,-4.513853,-12.475503,-0.83550733,-2.033,-2.988,-0.78,-1
1016,1017,1582725387778,-4.2662168,-12.468645,-0.75678223,-1.578,-3.0410000000000004,-0.505,-1
1017,1018,1582725387789,-5.236930999999999,-12.493692,-0.7219397,-2.335,-3.137,-0.273,-1
1018,1019,1582725387799,-6.3562374,-13.023752,-0.8541385,-3.111,-3.8,-0.105,-1
1019,1020,1582725387809,-6.322292299999999,-13.229689000000002,-1.2489367,-2.8160000000000003,-4.121,-0.29600000000000004,-1
1020,1021,1582725387820,-5.6852493,-13.245481,-1.5563105,-2.035,-4.205,-0.5,-1
1021,1022,1582725387830,-3.2641554,-12.978753999999999,-2.2840886,0.701,-4.1,-1.013,-1
1022,1023,1582725387840,-0.23723029999999998,-11.58165,-2.0856535,4.243,-3.012,-0.455,-1
1023,1024,1582725387850,0.793931,-10.541832000000001,-0.70444036,5.63,-2.224,1.192,-1
1024,1025,1582725387861,1.2706466,-10.068048,0.2155087,6.291,-1.8940000000000001,2.253,-1
1025,1026,1582725387871,2.6541433,-9.298416,3.006376,8.442,-1.8359999999999999,5.649,-1
1026,1027,1582725387881,3.388091,-9.481731,4.649350599999999,9.552999999999999,-2.469,7.647,-1
1027,1028,1582725387892,3.3996519999999997,-9.223113,5.7035627,9.721,-2.423,8.861,-1
1028,1029,1582725387902,4.9078956,-6.9067526,9.360137,11.654000000000002,-0.759,12.947000000000001,-1
1029,1030,1582725387912,6.384933999999999,-5.600889,10.099476,15.435,1.53,14.077,-1
1030,1031,1582725387922,12.734415,-1.656465,8.908938000000001,20.012,3.5580000000000003,12.911,-1
1031,1032,1582725387933,15.501266500000002,0.32038927,6.9451137,23.006,5.079,11.093,-1
1032,1033,1582725387942,15.745835999999999,1.0209117,5.81148,23.43,5.352,10.097000000000001,-1
1033,1034,1582725387952,13.906239999999999,1.2154924999999999,6.35277,21.718000000000004,5.146,10.790999999999999,-1
1034,1035,1582725387962,11.313977000000001,1.3433061000000002,8.32932,19.21,4.888,12.94,-1
1035,1036,1582725387972,9.126352,2.682371,11.351528,17.076,5.841,16.147000000000002,-1
1036,1037,1582725387983,10.140122999999999,4.6129365,13.136536999999999,18.132,7.376,18.102999999999998,-1
1037,1038,1582725387993,12.968047,6.108016,12.833685000000001,20.999000000000002,8.482999999999999,17.936,-1
1038,1039,1582725388003,14.692025,7.2506949999999994,10.482332000000001,22.752,9.275,15.689,-1
1039,1040,1582725388013,15.040873999999999,7.797815299999999,8.089450999999999,23.116,9.522,13.38,-1
1040,1041,1582725388024,14.077748999999999,7.557788400000001,6.607483,22.156,9.026,11.97,-1
1041,1042,1582725388034,12.547182000000001,7.346315400000001,6.6494827,20.618000000000002,8.588,12.08,-1
1042,1043,1582725388044,10.793315,6.8381240000000005,7.693403999999999,18.848,7.872000000000001,13.190999999999999,-1
1043,1044,1582725388055,9.3913145,6.3540792,8.775192,17.426,7.199,14.334000000000001,-1
1044,1045,1582725388065,8.210896,5.9682129999999995,9.078267,16.226,6.646,14.687999999999999,-1
1045,1046,1582725388075,7.2699375,5.8262715,8.395097999999999,15.265,6.358,14.049000000000001,-1
1046,1047,1582725388086,6.1250653,5.5282297,7.064383,14.08,5.872000000000001,12.789000000000001,-1
1047,1048,1582725388096,5.4408255,5.275303,6.478907599999999,13.366,5.513,12.25,-1
1048,1049,1582725388106,4.804295,5.036522,5.9085374,12.705,5.187,11.716,-1
1049,1050,1582725388117,4.6734843,4.840076,5.546603,12.147,4.857,11.134,-1
1050,1051,1582725388127,4.0631260000000005,4.574768499999999,4.9507384000000005,11.946,4.636,10.784,-1
1051,1052,1582725388137,3.634121,4.462828599999999,3.9947577000000005,11.515,4.4830000000000005,9.831,-1
1052,1053,1582725388148,3.1269011000000004,4.615157599999999,3.0977006,11.007,4.6339999999999995,8.935,-1
1053,1054,1582725388158,2.9480824,4.676812,2.0114765,10.825,4.711,7.853,-1
1054,1055,1582725388168,3.0825872000000003,4.546447799999999,0.80832434,10.957,4.6080000000000005,6.653,-1
1055,1056,1582725388179,2.7624058999999996,4.3457885,-0.016225815,10.636,4.447,5.829,-1
1056,1057,1582725388189,2.0988683999999997,3.988059,-0.23167181,9.972000000000001,4.143,5.6129999999999995,-1
1057,1058,1582725388199,1.704463,3.6467495000000003,-0.1635251,9.577,3.863,5.68,-1
1058,1059,1582725388209,1.5700712,3.1224732000000004,0.40552902,9.437999999999999,3.3930000000000002,6.252999999999999,-1
1059,1060,1582725388220,1.2836332000000001,2.8165544999999996,0.7865361999999999,9.148,3.142,6.636,-1
1060,1061,1582725388230,1.0220752,2.4646387,0.93937063,8.885,2.852,6.787000000000001,-1
1061,1062,1582725388240,0.7922186999999999,2.260339,0.77695274,8.657,2.718,6.617000000000001,-1
1062,1063,1582725388250,0.87161446,1.924427,0.688365,8.738999999999999,2.452,6.519,-1
1063,1064,1582725388261,0.9314575,1.4165357,0.13535309,8.804,2.045,5.949,-1
1064,1065,1582725388271,0.76053524,1.3033226,0.1812892,8.629,1.963,5.997000000000001,-1
1065,1066,1582725388281,0.44012642,1.0601423,0.71660805,8.286,1.7690000000000001,6.557,-1
1066,1067,1582725388291,0.23547649999999998,0.8516921999999999,1.5492743999999998,8.049,1.5919999999999999,7.428999999999999,-1
1067,1068,1582725388301,0.12844706,0.7943834,2.1846967,7.915,1.5590000000000002,8.097000000000001,-1
1068,1069,1582725388312,0.48794174,0.67816025,2.1980567000000004,8.265,1.472,8.119,d
1069,1070,1582725388322,0.66373444,0.64782995,1.055851,8.449,1.506,6.957000000000001,-1
1070,1071,1582725388332,0.6997404,0.5554828,0.19951105,8.497,1.472,6.0760000000000005,-1
1071,1072,1582725388342,1.0435405,0.41913038,-0.3061638,8.856,1.386,5.542000000000001,-1
1072,1073,1582725388353,1.2413197,0.8082204000000001,-0.70930433,9.065,1.827,5.115,-1
1073,1074,1582725388363,1.2181392,0.93743896,-0.44219255,9.041,1.98,5.379,-1
1074,1075,1582725388373,0.6052022,0.98116434,0.16513062,8.413,2.102,5.992000000000001,-1
1075,1076,1582725388383,0.87056494,0.39574432,1.3181796000000001,8.662,1.547,7.1610000000000005,-1
1076,1077,1582725388393,0.9534607,-0.10548258,2.1453485,8.738999999999999,1.056,7.994,-1
1077,1078,1582725388403,0.47257566,0.27374423,2.8879976000000003,8.25,1.4769999999999999,8.738999999999999,-1
1078,1079,1582725388414,0.604218,1.6588477,2.1020502999999997,8.384,2.9139999999999997,7.939,-1
1079,1080,1582725388424,0.86523294,2.353139,1.0750513000000002,8.648,3.645,6.9,-1
1080,1081,1582725388434,2.5626693,4.036983,-2.1065552000000003,10.353,5.446000000000001,3.681,-1
1081,1082,1582725388444,4.2030916,4.0194206,-2.2763592999999998,11.977,5.47,3.523,-1
1082,1083,1582725388454,4.248158999999999,2.8598177000000002,0.3498292,11.987,4.33,6.191,-1
1083,1084,1582725388464,3.1661215,2.3320694,3.8550977999999994,10.863,3.82,9.747,-1
1084,1085,1582725388474,1.9301404999999998,1.6131153,6.542341,9.594,3.137,12.468,-1
1085,1086,1582725388484,-0.19715261,0.9422381999999999,8.099207,7.452999999999999,2.533,14.025,-1
1086,1087,1582725388494,-1.5894747,1.7084984,7.2738504,6.059,3.3960000000000004,13.175,-1
1087,1088,1582725388504,0.1440692,1.986821,5.020134,7.8,3.781,10.88,-1
1088,1089,1582725388514,2.82901,3.1156254,3.3232312000000004,10.502,5.01,9.129,-1
1089,1090,1582725388525,5.888881700000001,4.3036012999999995,1.8205513999999998,13.579,6.289,7.5729999999999995,-1
1090,1091,1582725388535,8.570572,5.291047,1.4357046999999998,16.269000000000002,7.364,7.146,-1
1091,1092,1582725388545,9.978239,5.347446400000001,1.4065232,17.672,7.52,7.086,-1
1092,1093,1582725388555,9.478508,5.336069999999999,2.0652223000000003,17.153,7.63,7.723,-1
1093,1094,1582725388566,8.306583,4.779916,3.2666016,15.948,7.212999999999999,8.911,-1
1094,1095,1582725388576,6.550060299999999,4.3259745,4.7894864,14.147,6.914,10.425,-1
1095,1096,1582725388586,5.422365,4.295645700000001,6.278192,12.966,7.053,11.905,-1
1096,1097,1582725388596,4.9945580000000005,4.0622682999999995,7.0900655,12.482000000000001,7.005,12.698,-1
1097,1098,1582725388606,4.977821400000001,3.5824519999999995,7.0120263,12.41,6.732,12.581,-1
1098,1099,1582725388616,4.795316000000001,2.9253240000000003,6.213669,12.173,6.308,11.718,-1
1099,1100,1582725388626,4.364161,2.3484578,4.8676624,11.685,5.987,10.284,-1
1100,1101,1582725388637,4.18847,1.8979325,3.4647449999999997,11.448,5.803,8.777000000000001,-1
1101,1102,1582725388647,4.276197,2.2210598,2.3655005,11.467,6.392,7.568,-1
1102,1103,1582725388657,5.083874,2.0820928,1.7713013,12.197000000000001,6.5089999999999995,6.867999999999999,-1
1103,1104,1582725388668,5.453315,1.7290773000000002,1.8712654,12.478,6.401,6.871,-1
1104,1105,1582725388678,5.0650973,1.2728376000000001,2.9035835,11.991,6.183,7.812,-1
1105,1106,1582725388688,4.4081545,0.6232052,4.0013185,11.23,5.771,8.811,-1
1106,1107,1582725388699,3.5634900000000003,-0.005833149,4.563237,10.279000000000002,5.3839999999999995,9.256,-1
1107,1108,1582725388709,2.4958487000000003,-0.5402031,4.614402,9.103,5.093999999999999,9.172,-1
1108,1109,1582725388719,1.9454593999999998,-0.97140884,4.674644,8.443999999999999,4.902,9.084,-1
1109,1110,1582725388729,1.593926,-0.879446,4.3320136,7.928999999999999,5.336,8.504,-1
1110,1111,1582725388739,1.6368098,-0.8603673000000001,4.12107,7.917000000000001,5.465,8.21,-1
1111,1112,1582725388750,1.6937513,-1.2820568,3.0016800999999997,7.807,5.355,6.8420000000000005,-1
1112,1113,1582725388760,1.5067391,-1.6233758999999999,2.720886,7.502999999999999,5.204,6.409,-1
1113,1114,1582725388770,0.5825062,-1.8130784,2.5749161,6.456,5.172999999999999,6.162000000000001,-1
1114,1115,1582725388780,-0.29632616,-1.7438011000000002,2.3032587,5.431,5.345,5.925,-1
1115,1116,1582725388790,-0.61726665,-1.6793513,2.3821955000000004,4.936,5.566,5.965,-1
1116,1117,1582725388801,-0.5140996,-1.2707806000000001,2.1724935000000003,4.857,6.119,5.7379999999999995,-1
1117,1118,1582725388811,-0.25616217,-1.2292523000000002,2.1864214,4.928,6.279,5.781000000000001,-1
1118,1119,1582725388821,0.12936115,-1.9886575,1.8800744999999999,5.175,5.645,5.407,-1
1119,1120,1582725388831,0.08389187,-2.762712,1.2738738,4.986000000000001,5.034,4.643,-1
1120,1121,1582725388841,-0.23045015,-3.1297330000000003,0.3990724,4.512,4.842,3.582,-1
1121,1122,1582725388852,-0.21578121,-3.5183787000000004,-0.6120886999999999,4.3580000000000005,4.624,2.38,-1
1122,1123,1582725388861,-0.3427949,-3.7650222999999996,-1.5266258,4.052,4.54,1.281,-1
1123,1124,1582725388871,-0.9302108,-4.099715,-2.0011631999999997,3.273,4.3580000000000005,0.639,-1
1124,1125,1582725388881,-1.3319836,-4.937291,-2.2215662,2.6719999999999997,3.661,0.27,-1
1125,1126,1582725388891,-1.9368806,-5.6622653,-2.3670394,1.865,3.065,-0.011000000000000001,-1
1126,1127,1582725388902,-3.103579,-6.771812,-2.046003,0.498,2.074,0.179,-1
1127,1128,1582725388912,-3.827062,-7.647688400000001,-1.5046372,-0.414,1.305,0.586,-1
1128,1129,1582725388922,-4.092016,-7.9885564,-1.1218989,-0.7659999999999999,1.013,0.898,-1
1129,1130,1582725388932,-3.9818027000000003,-8.421291,-1.3438625,-0.888,0.711,0.445,-1
1130,1131,1582725388942,-4.0104275000000005,-8.337419500000001,-2.6457467,-1.053,0.8690000000000001,-1.013,-1
1131,1132,1582725388953,-3.5003144999999996,-7.997493700000001,-3.934586,-0.67,1.271,-2.4330000000000003,-1
1132,1133,1582725388963,-2.8054580000000002,-7.8258815,-4.1755303999999995,-0.095,1.492,-2.761,-1
1133,1134,1582725388973,-2.825303,-7.7262216,-3.7038836,-0.23199999999999998,1.631,-2.33,-1
1134,1135,1582725388983,-3.7635739999999998,-7.311029400000001,-2.454455,-1.286,2.0780000000000003,-1.084,-1
1135,1136,1582725388993,-4.1278663,-7.1178365,-0.8634917,-1.755,2.296,0.522,-1
1136,1137,1582725389004,-3.705939,-6.531531,0.7092941999999999,-1.4169999999999998,2.9019999999999997,2.102,-1
1137,1138,1582725389014,-3.0330505000000003,-5.750321400000001,1.7579874,-0.807,3.702,3.125,-1
1138,1139,1582725389024,-1.9519123,-5.4744267,0.8534106,0.22899999999999998,3.9989999999999997,2.145,-1
1139,1140,1582725389034,-1.2574153000000001,-4.857851,-0.8572779,0.8859999999999999,4.638999999999999,0.32,-1
1140,1141,1582725389044,-0.74416685,-4.1865797,-2.3375297,1.3619999999999999,5.332999999999999,-1.2830000000000001,-1
1141,1142,1582725389055,-0.49914706,-3.6600566,-3.543623,1.568,5.879,-2.593,-1
1142,1143,1582725389065,-0.43955958,-3.3423615,-3.814828,1.587,6.212000000000001,-2.9330000000000003,-1
1143,1144,1582725389075,-1.1601553,-2.8747863999999996,-3.1192994,0.823,6.691,-2.263,-1
1144,1145,1582725389085,-1.6945133000000001,-2.375193,-2.112004,0.24600000000000002,7.199,-1.252,-1
1145,1146,1582725389096,-1.7638549,-2.2208776,-1.4938996999999998,0.14300000000000002,7.359,-0.622,-1
1146,1147,1582725389106,-1.6350808000000001,-1.499629,-0.7346723000000001,0.24600000000000002,8.085,0.141,-1
1147,1148,1582725389116,-1.1980739,-1.0036545000000001,-0.42032716,0.6629999999999999,8.586,0.44299999999999995,-1
1148,1149,1582725389127,-0.08589780000000001,-0.5995741,-0.58463556,1.7790000000000001,8.993,0.237,-1
1149,1150,1582725389137,1.0152298,-0.075289726,-1.185753,2.948,9.513,-0.479,-1
1150,1151,1582725389147,1.3747719999999999,-0.04869938,-1.9368207,3.3689999999999998,9.536,-1.365,-1
1151,1152,1582725389157,0.84132934,-0.15197086,-2.6016264,2.8739999999999997,9.433,-2.193,-1
1152,1153,1582725389168,-0.541129,-0.508173,-2.2904181,1.453,9.093,-2.184,-1
1153,1154,1582725389178,-1.2286971000000002,-0.6766262,-1.6329821000000002,0.716,8.935,-1.561,-1
1154,1155,1582725389188,-1.2874138000000002,-0.5137625,-1.2472149,0.632,9.103,-1.183,-1
1155,1156,1582725389198,-1.2890129,0.1523056,0.2496992,0.495,9.795,0.32799999999999996,-1
1156,1157,1582725389208,-0.70331097,0.60344696,-0.037396662000000004,1.044,10.253,0.021,-1
1157,1158,1582725389219,-0.010190725,0.84352684,-1.1046708,1.733,10.494000000000002,-1.111,-1
1158,1159,1582725389229,0.35508358,0.79232216,-1.7731580000000002,2.102,10.442,-1.8219999999999998,-1
1159,1160,1582725389240,1.3032871000000001,0.90572643,-3.269629,3.063,10.552,-3.4219999999999997,-1
1160,1161,1582725389250,1.2055441999999998,1.0110226,-2.370276,2.965,10.657,-2.543,-1
1161,1162,1582725389260,0.73578227,0.8441477,-1.2674668,2.4859999999999998,10.492,-1.429,-1
1162,1163,1582725389270,-0.24517715,0.73760223,-0.15691079,1.4769999999999999,10.390999999999998,-0.285,-1
1163,1164,1582725389280,-0.8730094999999999,0.888608,0.93122315,0.807,10.55,0.857,-1
1164,1165,1582725389291,-0.89762723,1.1151447,1.2005321000000002,0.752,10.782,1.168,-1
1165,1166,1582725389301,-0.42695057,1.1991291000000002,0.59174633,1.2109999999999999,10.868,0.5720000000000001,-1
1166,1167,1582725389311,0.20479417,1.2070665,-0.3672862,1.848,10.875,-0.40399999999999997,d
1167,1168,1582725389321,0.8100404999999999,1.2439346000000002,-1.2331181999999998,2.469,10.909,-1.3019999999999998,-1
1168,1169,1582725389331,1.5109735,1.2491292999999999,-1.7271985,3.187,10.911,-1.825,-1
1169,1170,1582725389341,1.5072412,1.250413,-1.5264783000000002,3.19,10.911,-1.635,-1
1170,1171,1582725389352,0.73237646,0.9873228000000001,-0.55937713,2.404,10.65,-0.653,-1
1171,1172,1582725389362,-0.25776982,0.9260731,0.24298796,1.379,10.595,0.18600000000000003,-1
1172,1173,1582725389372,-0.7344046999999999,0.74052143,0.6319686999999999,0.852,10.418,0.62,-1
1173,1174,1582725389382,-0.8335904000000001,0.61722374,0.94025785,0.701,10.302999999999999,0.9740000000000001,-1
1174,1175,1582725389392,-0.5662949,0.6397619000000001,0.8060856,0.9259999999999999,10.332,0.8690000000000001,-1
1175,1176,1582725389403,-0.13924909,0.5656824,0.478339,1.3259999999999998,10.262,0.5479999999999999,-1
1176,1177,1582725389413,0.048734188,0.53835773,0.34847042,1.492,10.238,0.414,-1
1177,1178,1582725389423,0.27308285,0.34452057,0.09740461,1.6980000000000002,10.047,0.141,-1
1178,1179,1582725389433,0.090087414,0.25364113,-0.45439386,1.489,9.96,-0.455,-1
1179,1180,1582725389443,-0.34982485,0.11483669,-0.5461196,0.993,9.829,-0.593,-1
1180,1181,1582725389453,-0.7226471999999999,-0.17859173,-0.4899401,0.541,9.546,-0.5670000000000001,-1
1181,1182,1582725389464,-1.0881355,-0.6190529,-0.5007062,0.1,9.115,-0.584,-1
1182,1183,1582725389474,-1.6310649,-1.3003693,-0.24543709,-0.512,8.442,-0.311,-1
1183,1184,1582725389484,-2.4567827999999996,-1.8660536,0.6811397,-1.405,7.8839999999999995,0.6559999999999999,-1
1184,1185,1582725389494,-3.3026032,-2.6050577,1.0906836000000002,-2.3080000000000003,7.151,1.113,-1
1185,1186,1582725389504,-4.170591399999999,-3.1074896,1.5052199,-3.2230000000000003,6.653,1.578,-1
1186,1187,1582725389515,-5.023224,-3.8693657,1.9105716,-4.112,5.894,2.04,-1
1187,1188,1582725389525,-6.0831456,-4.6739125,2.0833334999999997,-5.742999999999999,4.631,2.201,-1
1188,1189,1582725389535,-7.3719410000000005,-6.5115595,2.2203047000000002,-6.516,3.252,2.553,-1
1189,1190,1582725389545,-7.7731295,-7.1448045,2.6023533,-6.9239999999999995,2.617,2.998,-1
1190,1191,1582725389555,-8.661577000000001,-8.40489,4.3642387000000005,-7.939,1.355,4.9910000000000005,-1
1191,1192,1582725389566,-9.17642,-9.83812,7.113533,-8.495,-0.09300000000000001,7.973,-1
1192,1193,1582725389576,-9.131635000000001,-11.517872,8.591299000000001,-8.346,-1.8030000000000002,9.675,-1
1193,1194,1582725389586,-9.043507,-11.821577,8.264895,-8.205,-2.117,9.4,-1
1194,1195,1582725389596,-8.349041999999999,-12.029682000000001,7.2679996,-7.4,-2.347,8.499,-1
1195,1196,1582725389607,-7.725281,-12.136606,6.4275400000000005,-6.691,-2.481,7.795,-1
1196,1197,1582725389617,-7.4820423,-12.039760000000001,4.8895607000000005,-6.55,-2.457,6.752999999999999,-1
1197,1198,1582725389627,-7.209662400000001,-11.763425999999999,4.312607,-6.2620000000000005,-2.2319999999999998,6.416,-1
1198,1199,1582725389637,-6.3843703000000005,-11.420023,4.1692986,-5.331,-1.906,6.301,-1
1199,1200,1582725389648,-1.6799676,-9.947869,3.8458737999999997,-0.205,-0.502,6.03,-1
1200,1201,1582725389658,0.30143190000000003,-9.349691,3.8349652,3.875,0.754,5.843,-1
1201,1202,1582725389668,5.249733,-6.5857470000000005,3.5513248,7.5729999999999995,2.615,6.025,-1
1202,1203,1582725389679,7.138752,-4.4630035999999995,3.6479275,9.841000000000001,4.61,6.207000000000001,-1
1203,1204,1582725389689,7.9098043,-3.4388342000000005,3.4591839999999996,10.779000000000002,5.577999999999999,6.035,-1
1204,1205,1582725389699,10.314318,-0.16822720000000002,0.92681575,13.649000000000001,8.693,3.4819999999999998,-1
1205,1206,1582725389710,12.195865,1.7799740000000002,-1.6033411,15.815999999999999,10.54,0.912,-1
1206,1207,1582725389720,14.2459,3.751379,-3.9687222999999996,18.13,12.402999999999999,-1.472,-1
1207,1208,1582725389730,16.592575,5.172368,-5.9649305,20.714000000000002,13.704,-3.4360000000000004,-1
1208,1209,1582725389740,18.069138,6.6519710000000005,-6.323746,22.391,15.057,-3.707,-1
1209,1210,1582725389751,18.192816,8.023102,-4.9671650000000005,22.673000000000002,16.305,-2.227,-1
1210,1211,1582725389761,18.292276,8.156678,-3.8766879999999997,22.896,16.329,-1.015,-1
1211,1212,1582725389771,17.998367000000002,8.360428,-3.6514144,22.697,16.445999999999998,-0.6990000000000001,-1
1212,1213,1582725389782,17.403307,8.263698,-4.394986599999999,22.175,16.288,-1.393,-1
1213,1214,1582725389792,16.947231,7.871133,-5.7895885,21.776999999999997,15.857000000000001,-2.778,-1
1214,1215,1582725389802,16.65022,8.074033,-7.3144765,21.528000000000002,16.039,-4.325,-1
1215,1216,1582725389812,17.22162,7.596153,-10.04594,22.156,15.548,-7.115,-1
1216,1217,1582725389823,17.377487,7.373378,-10.880732,22.323,15.325,-7.968,-1
1217,1218,1582725389833,16.633186,6.732479,-12.073464999999999,21.583000000000002,14.690999999999999,-9.187000000000001,-1
1218,1219,1582725389843,15.311473000000001,5.8043857,-12.061809,20.242,13.777999999999999,-9.184,-1
1219,1220,1582725389853,12.783186,4.151083,-10.505923,17.653,12.159,-7.62,-1
1220,1221,1582725389863,11.989367999999999,3.7051199999999995,-10.106753999999999,16.834,11.728,-7.22,-1
1221,1222,1582725389873,10.600136000000001,2.4459286,-9.162791,15.392000000000001,10.504000000000001,-6.2860000000000005,-1
1222,1223,1582725389883,8.758053,0.6149435000000001,-8.341789,13.470999999999998,8.737,-5.515,-1
1223,1224,1582725389894,7.5504603,-0.48700000000000004,-8.196996,12.214,7.683,-5.4270000000000005,-1
1224,1225,1582725389904,6.942455000000001,-1.1101098,-8.133511,11.584000000000001,7.084,-5.398,-1
1225,1226,1582725389914,5.833419,-2.0666695,-7.940257000000001,10.439,6.1739999999999995,-5.285,-1
1226,1227,1582725389924,4.8277225,-2.8765016,-7.495941999999999,9.419,5.405,-4.945,-1
1227,1228,1582725389935,3.8327693999999997,-3.6592007000000004,-6.609659,8.475,4.646,-4.234,-1
1228,1229,1582725389945,2.4720020000000003,-4.6192402999999995,-5.338680999999999,7.309,3.676,-3.3480000000000003,-1
1229,1230,1582725389955,2.0651717,-5.2351694,-4.5986347,6.885,3.0869999999999997,-2.68,-1
1230,1231,1582725389966,1.9590206000000001,-5.5381480000000005,-4.247911,6.765,2.7969999999999997,-2.351,-1
1231,1232,1582725389976,1.8846145,-6.1718473,-2.6620293,6.648,2.1959999999999997,-0.802,-1
1232,1233,1582725389986,1.7745805000000001,-6.7344384,-1.8303778999999998,6.513999999999999,1.652,0.006999999999999999,-1
1233,1234,1582725389996,1.397181,-6.9890776,-1.3985145,6.114,1.4169999999999998,0.40700000000000003,-1
1234,1235,1582725390006,1.2619214,-7.247980999999999,-1.2513148,5.968,1.168,0.536,-1
1235,1236,1582725390016,0.12931585,-7.8713717,-1.2898878999999999,4.803999999999999,0.5720000000000001,0.45,-1
1236,1237,1582725390027,-0.53397465,-8.259446,-1.2960825,4.121,0.196,0.43799999999999994,-1
1237,1238,1582725390037,-1.1107714,-8.586462,-1.2480915000000001,3.53,-0.129,0.514,-1
1238,1239,1582725390047,-1.8887215,-9.114017500000001,-0.7147361999999999,2.7439999999999998,-0.665,1.1079999999999999,-1
1239,1240,1582725390058,-3.1772375,-9.440571,0.43401217,1.456,-1.01,2.339,-1
1240,1241,1582725390068,-4.3768,-9.665449,1.6726756999999999,0.27,-1.264,3.6710000000000003,-1
1241,1242,1582725390078,-5.243448,-10.061997,2.8200617,-0.565,-1.702,4.916,-1
1242,1243,1582725390088,-5.8649035000000005,-10.330499,4.0234284,-1.135,-2.026,6.222,-1
1243,1244,1582725390099,-6.7075024,-10.221182,5.286649,-1.911,-1.992,7.62,-1
1244,1245,1582725390109,-7.445885700000001,-10.12674,6.0004387,-2.596,-2.011,8.605,-1
1245,1246,1582725390119,-8.025539,-9.852806,5.778979,-3.273,-1.9609999999999999,9.141,-1
1246,1247,1582725390129,-8.969904,-9.18047,5.6227875,-4.234,-1.611,9.677999999999999,-1
1247,1248,1582725390140,-8.962675,-9.1409855,5.8511763,-4.184,-1.6780000000000002,10.051,-1
1248,1249,1582725390150,-8.722541,-8.874103999999999,7.6488132,-3.75,-1.765,12.220999999999998,-1
1249,1250,1582725390160,-7.7193445999999994,-8.578125,9.695494,-2.5789999999999997,-1.733,14.48,-1
1250,1251,1582725390171,-5.9037924,-8.0729265,12.202865,-0.57,-1.508,17.165,-1
1251,1252,1582725390181,-4.3890314,-6.95869,14.326306,1.159,-0.675,19.416,-1
1252,1253,1582725390191,-3.0031689999999998,-5.5892434,14.901003,2.7710000000000004,0.426,20.063,-1
1253,1254,1582725390201,-2.5294335,-4.3148737,13.658999,3.463,1.4480000000000002,18.86,-1
1254,1255,1582725390211,-2.0947647000000003,-3.0544496,12.346958,4.09,2.459,17.593,-1
1255,1256,1582725390221,-1.0486693,-2.386305,12.224426,5.295,2.859,17.555,-1
1256,1257,1582725390231,0.5351691,-1.3553197,13.381236,7.002999999999999,3.594,18.844,-1
1257,1258,1582725390241,2.7398290000000003,-0.13265610000000003,16.11598,9.302,4.497,21.744,-1
1258,1259,1582725390251,4.066502,0.638927,17.287062,10.667,5.106,23.000999999999998,-1
1259,1260,1582725390261,6.587694,3.2032123,18.19432,13.27,7.218,24.144000000000002,-1
1260,1261,1582725390272,7.8895073,4.554375,16.653382999999998,14.597000000000001,8.317,22.738000000000003,-1
1261,1262,1582725390282,8.938349,5.562398,14.676585000000001,15.645999999999999,9.115,20.886,-1
1262,1263,1582725390292,9.899939,6.1995773000000005,12.697138,16.583,9.58,19.028,-1
1263,1264,1582725390302,10.218008,6.586608,11.937126,17.335,10.245,17.859,-1
1264,1265,1582725390313,11.864438999999999,8.386239,10.349219999999999,18.434,11.512,16.925,-1
1265,1266,1582725390323,14.021285999999998,9.470902,9.142777,20.513,12.511,15.835,-1
1266,1267,1582725390334,16.38673,10.454943,7.7556210000000005,22.791,13.44,14.556,-1
1267,1268,1582725390344,18.19688,11.102217,6.227363599999999,24.500999999999998,14.068,13.129000000000001,-1
1268,1269,1582725390354,18.962378,11.091898,5.4197555,25.154,14.08,12.413,-1
1269,1270,1582725390364,17.961687,10.323341000000001,5.189593,24.031,13.38,12.26,-1
1270,1271,1582725390374,16.386955,9.530616,5.4315267,22.328000000000003,12.7,12.561,-1
1271,1272,1582725390385,15.474827,8.744518,5.588257,21.289,12.065999999999999,12.753,-1
1272,1273,1582725390395,15.887901000000001,8.207421,4.5236583,21.581,11.720999999999998,11.694,-1
1273,1274,1582725390405,17.085072,7.737976,2.2886438,22.664,11.484000000000002,9.431000000000001,-1
1274,1275,1582725390415,17.578838,6.8021080000000005,-0.03743124,23.044,10.818,7.046,-1
1275,1276,1582725390425,17.33794,5.695241,-2.4570594,22.683000000000003,10.008,4.543,-1
1276,1277,1582725390435,15.939929000000001,4.5051017,-3.7000822999999996,21.159000000000002,9.127,3.197,-1
1277,1278,1582725390445,14.114207999999998,3.5040927,-4.092436,19.203,8.435,2.687,-1
1278,1279,1582725390455,12.623264,2.4001694,-3.9122407,17.579,7.632000000000001,2.739,-1
1279,1280,1582725390465,10.862013000000001,1.5792017,-3.1996808,15.68,7.101,3.3169999999999997,-1
1280,1281,1582725390475,9.542621,1.01368,-3.1227336,14.219000000000001,6.818,3.25,-1
1281,1282,1582725390486,9.078548,-0.099666595,-3.541544,13.62,5.98,2.67,-1
1282,1283,1582725390496,8.527927,-1.0562158000000001,-3.6166706,12.947000000000001,5.287999999999999,2.416,-1
1283,1284,1582725390506,7.741566000000001,-1.8789926,-3.5915362999999996,12.058,4.718,2.241,-1
1284,1285,1582725390516,6.8992070000000005,-2.5561008,-4.007868,11.148,4.282,1.5919999999999999,-1
1285,1286,1582725390526,5.944419,-3.0689561000000003,-4.456338,10.2,3.99,0.857,-1
1286,1287,1582725390536,5.2027874,-3.4531059999999996,-5.0429129999999995,9.599,3.7960000000000003,-0.114,-1
1287,1288,1582725390547,4.8317685,-4.1560793,-5.2942815,9.474,3.238,-0.828,-1
1288,1289,1582725390557,4.051405399999999,-4.541136,-5.03975,8.998,2.9410000000000003,-1.075,-1
1289,1290,1582725390567,3.380268,-5.223031,-4.3613405,8.315,2.4019999999999997,-0.6629999999999999,-1
1290,1291,1582725390577,2.5241685,-5.7976274000000005,-3.5158,7.362,1.983,-0.019,-1
1291,1292,1582725390587,1.6573267,-6.1948843,-3.5020576,6.377000000000001,1.7409999999999999,-0.198,-1
1292,1293,1582725390598,0.98475504,-6.296517,-4.0899854,5.534,1.86,-1.099,-1
