,Seq,Time,ACCx,ACCy,ACCz,ADGx,ADGy,ADGz,Keydown
0,1,1583935890706,-0.9525,-1.1420000000000001,0.45,-0.7876061,9.36175,1.6950851999999998,-1
1,2,1583935890716,-2.2756,0.5453,-0.1399,-2.3771646,9.486642,-0.05872498,-1
2,3,1583935890726,0.0088,-0.033999998,-0.0002,-2.7461493,9.332108999999999,0.29028259999999995,-1
3,4,1583935890736,-0.27339998,-0.1673,0.2367,-3.1285417,9.23798,0.4874786,-1
4,5,1583935890746,-0.5826,-0.2546,0.3337,-3.2614772000000003,9.186542,0.46368983,-1
5,6,1583935890757,-0.54649997,-0.24939999,0.23259999,-3.1527038,9.215742,0.30556718,-1
6,7,1583935890767,-0.35709998,-0.1758,0.0046,-3.0819504,9.248361000000001,0.011329363,-1
7,8,1583935890777,-0.2399,-0.1548,-0.2821,-3.0282152,9.245172,-0.13920847,-1
8,9,1583935890787,-0.053999998,-0.1398,-0.4267,-2.889198,9.228968,-0.10086293,-1
9,10,1583935890797,0.0468,-0.119899996,-0.3518,-2.837397,9.312439999999999,-0.10955867,-1
10,11,1583935890807,0.2024,-0.0063,-0.40089998,-2.4891653,9.46585,-0.03296337,-1
11,12,1583935890817,0.308,0.054899998,-0.185,-2.4911668,9.439705,0.37659836,-1
12,13,1583935890828,0.2007,-0.0063,0.166,-2.7045765,9.449425999999999,0.85424155,-1
13,14,1583935890838,-0.066,-0.0081,0.53319997,-2.8578916000000003,9.37985,1.0143275,-1
14,15,1583935890848,-0.22309999,-0.0611,0.546,-2.8746702999999996,9.345508,0.9934021999999999,-1
15,16,1583935890858,-0.2017,-0.0787,0.4186,-2.8061578,9.3313055,0.9561484,-1
16,17,1583935890868,-0.12019999,-0.11109999599999999,0.3178,-2.6998932,9.351445,0.8980746,-1
17,18,1583935890878,-0.0158,-0.0677,0.23369999,-2.7418303,9.321738,0.6872315999999999,-1
18,19,1583935890889,-0.0638,-0.0962,0.0185,-2.577703,9.393794,0.56827813,-1
19,20,1583935890899,0.34719998,0.0411,-0.053,-2.3076274,9.4745455,0.59555286,-1
20,21,1583935890909,0.34719998,0.0411,-0.053,-2.3236685,9.53238,0.71729326,-1
21,22,1583935890919,0.1059,0.0643,0.4005,-2.4963189999999997,9.510382,1.0390453000000002,-1
22,23,1583935890929,0.18100000000000002,0.1645,0.6562,-2.3842132,9.619241,1.3201915000000002,-1
23,24,1583935890940,0.0977,0.17819999,0.65599996,-2.4714005,9.637054,1.3036811000000001,-1
24,25,1583935890950,-0.0343,0.16399999,0.58629996,-2.566498,9.628109,1.2481548,-1
25,26,1583935890960,-0.0343,0.16399999,0.58629996,-2.5149555,9.623828999999999,1.1609483999999999,-1
26,27,1583935890970,-0.078,0.0866,0.52349997,-2.5804896,9.566033000000001,1.140253,-1
27,28,1583935890981,-0.0394,0.1708,0.63269997,-2.4996424,9.668486,1.239641,-1
28,29,1583935890991,-0.0008,0.196,0.5973,-2.5341284,9.65912,1.1838561,-1
29,30,1583935891001,-0.1454,0.1928,0.7381,-2.6174562000000003,9.685034,1.3248363,-1
30,31,1583935891012,-0.074099995,0.1603,0.79789996,-2.5256147,9.646985,1.3829867,-1
31,32,1583935891022,-0.0624,0.108399995,1.0583999,-2.5271375,9.575639,1.6603023000000001,-1
32,33,1583935891032,-0.1188,-0.0015,1.6127,-2.5783637,9.470342,2.2565637,-1
33,34,1583935891042,-0.17459999,-0.1501,2.1567,-2.6318118999999998,9.305869,2.747452,-1
34,35,1583935891052,-0.2014,-0.23969999,2.2944,-2.5624087,9.259307000000002,2.7606007999999997,-1
35,36,1583935891062,0.012999999,-0.2617,1.9933,-2.3205562,9.20471,2.3257658,-1
36,37,1583935891072,0.2728,-0.4122,1.4179,-1.9405675,9.015021,1.6884101999999999,-1
37,38,1583935891082,0.75979996,-0.5348,0.73609996,-1.4360422,8.925775999999999,1.0698059,-1
38,39,1583935891092,1.1809,-0.65099996,0.2777,-0.9891021999999999,8.811792,0.79512393,-1
39,40,1583935891103,1.1809,-0.65099996,0.2777,-0.6760841999999999,8.609233999999999,0.82993567,-1
40,41,1583935891112,1.2839999,-1.3061999,0.5175,-1.3714658000000002,7.949372299999999,1.2234753,-1
41,42,1583935891123,0.4332,-2.0383,0.9817,-2.0674508,7.316949,1.6652822,-1
42,43,1583935891133,-0.2899,-2.8263,1.5732,-2.8705618,6.4338617,2.3690624,-1
43,44,1583935891143,-0.6594,-3.4078,2.0637999,-3.0170486,5.906429,2.810046,-1
44,45,1583935891153,-0.368,-3.7754,2.3137999,-2.5198492999999997,5.6397433,2.8713853,-1
45,46,1583935891163,0.1619,-4.0373,2.0256,-2.1690605,5.3604546,2.4392702999999996,-1
46,47,1583935891173,0.3277,-4.2808,1.4857,-2.0326486,5.1000137,1.8037533,-1
47,48,1583935891184,0.56119996,-4.5351,0.64449996,-1.7710006,4.8291907,0.8095754,-1
48,49,1583935891194,0.73469996,-4.8686,-0.2758,-1.6243893,4.534129599999999,-0.045566447,-1
49,50,1583935891204,0.73469996,-4.8686,-0.2758,-1.2667434,4.322578,-0.8874540000000001,-1
50,51,1583935891214,1.0605,-5.4477,-1.7594,-1.7168055,3.7429992999999997,-1.4336863000000002,-1
51,52,1583935891224,0.42819998,-5.986799700000001,-1.8542999,-2.3664002,3.2817225,-1.3958386999999999,-1
52,53,1583935891235,-0.35619998,-6.5364,-1.7567999,-3.0804565,2.7971652000000002,-1.0702368999999998,-1
53,54,1583935891245,-0.6645,-6.8047,-1.2890999,-2.9061778,2.5613647,-0.6532244,-1
54,55,1583935891255,-0.22899999,-7.0288,-1.0461999,-2.115718,2.4608849999999998,-0.6297325,-1
55,56,1583935891265,0.5879,-7.081,-1.1718998999999999,-1.1627393,2.4484065,-0.8144212,-1
56,57,1583935891276,1.4777,-7.0871,-1.3733,-0.25416845,2.415692,-0.9790465,-1
57,58,1583935891286,2.231,-7.1628,-1.5634999,0.40254194,2.3618702999999996,-1.1086493999999998,-1
58,59,1583935891296,2.6183,-7.2085,-1.6937,0.67586404,2.4010012,-1.0869771000000001,-1
59,60,1583935891306,2.8098,-7.1545,-1.6565,0.9977117,2.5234406000000003,-0.97587657,-1
60,61,1583935891316,3.0205998,-6.9519997,-1.6256,1.1449361,2.8779645,-0.9321872,-1
61,62,1583935891326,2.9754,-6.5621,-1.6269,1.2133909999999999,3.4760456,-0.85789037,-1
62,63,1583935891337,3.0432,-6.0347,-1.7148999,1.7527951000000002,3.9631605000000003,-1.3129323999999998,-1
63,64,1583935891347,3.5342,-5.5768,-2.2575,2.179097,4.345725,-1.9190197,-1
64,65,1583935891358,3.636,-5.2957,-2.9320998,1.4348835,4.2933015999999995,-2.5118911,-1
65,66,1583935891368,2.6745,-5.3763,-3.6109998,0.7490498999999999,4.487021400000001,-3.3981957,-1
66,67,1583935891378,2.07,-5.1815,-4.4024997,1.160709,5.091797,-3.6902022000000003,-1
67,68,1583935891389,2.4822,-4.4365997,-4.8753,2.1763582,6.0244246,-4.27909,-1
68,69,1583935891399,3.1427999,-3.659,-5.4947,2.6406702999999996,7.038522,-4.2020445,-1
69,70,1583935891409,3.2282,-1.8326,-5.022,2.7234618999999998,7.8434625,-3.472732,-1
70,71,1583935891419,3.2282,-1.8326,-5.022,3.4491541,8.696708000000001,-2.9210217000000003,-1
71,72,1583935891429,4.4329,-0.0645,-4.4425,4.460483999999999,9.557452,-2.487767,-1
72,73,1583935891440,4.4329,-0.0645,-4.4425,5.5090959999999995,10.307067,-2.2660353,-1
73,74,1583935891450,6.0677,1.8254,-4.811899700000001,6.802645699999999,11.536442,-2.5376623,-1
74,75,1583935891460,6.348099700000001,2.8762999,-5.4298,7.230834,12.53605,-3.0589182,-1
75,76,1583935891470,6.278,3.8195998999999996,-6.4038,7.4891586,13.508277,-4.224473000000001,-1
76,77,1583935891480,5.9898,4.8515,-8.0321,7.2915220000000005,14.504773000000002,-5.725034,-1
77,78,1583935891490,5.2957,5.9676,-9.2942,6.749475,15.452952999999999,-6.718331,-1
78,79,1583935891500,5.2957,5.9676,-9.2942,6.249853,15.897269,-6.949582,-1
79,80,1583935891510,4.308399700000001,6.7121,-9.8199,6.14061,16.63338,-6.3707886,-1
80,81,1583935891520,3.9039,7.5424,-9.3269,7.015211999999999,17.346632,-5.1521015,-1
81,82,1583935891530,6.145,9.3546,-7.0785,9.398639999999999,18.341663,-3.6677446000000002,-1
82,83,1583935891540,7.2360997000000005,10.3041,-5.9765997,10.64373,19.12225,-2.3567085,-1
83,84,1583935891550,7.9908,11.2823,-4.5072,11.495156,19.775415,-1.0438336,-1
84,85,1583935891561,8.5091,12.176499,-2.6423,12.425925999999999,20.677120000000002,1.3245681999999999,-1
85,86,1583935891571,8.6596,13.0794,-1.1764,12.710635,21.256603,2.476313,-1
86,87,1583935891581,8.4005995,13.7436,-0.3369,12.689632000000001,21.909616,3.408874,-1
87,88,1583935891591,8.0175,14.0366,0.2007,12.415171,22.007587,3.8446474000000004,-1
88,89,1583935891601,7.5302997000000005,13.987499,0.5986,12.074697,21.870869,4.0980306,-1
89,90,1583935891612,6.8627996,13.5229,0.97889996,11.3775625,21.211067,4.330603599999999,-1
90,91,1583935891622,6.095,12.8265,1.2835,10.955599000000001,20.780205,4.382452,-1
91,92,1583935891632,5.6447,12.160399,1.6667,10.392847,19.926634,4.703677,-1
92,93,1583935891642,5.2432,11.4909,2.2187,10.161548,19.341673,5.002091,-1
93,94,1583935891653,5.2784,10.920799,2.5016,10.458601,18.878366,5.0374102999999995,-1
94,95,1583935891663,6.0699,10.5244,2.8363,11.319824,18.524637,5.2656160000000005,-1
95,96,1583935891673,6.6688,9.9503,3.2870998,11.550079,17.8778,5.62194,-1
96,97,1583935891683,6.5106997,9.0788,3.7968,11.164277,17.052970000000002,6.0343843,-1
97,98,1583935891693,6.1899,8.1470995,4.3155,10.770863,16.109223999999998,6.618139,-1
98,99,1583935891704,5.8587,7.070399799999999,5.2502,10.238132,15.088153,7.741575,-1
99,100,1583935891714,5.4483,6.0361,6.5684,9.870575,14.002115,9.509185,-1
100,101,1583935891724,5.517299700000001,5.0917997,8.0957,9.774797,13.349925,10.8379965,-1
101,102,1583935891734,5.3022,4.3097997,9.6053,9.236227,12.618976,12.243392,-1
102,103,1583935891744,4.7555,3.3594,10.6092,8.2406225,11.538482,13.127445999999999,-1
103,104,1583935891755,4.1988997,2.425,11.025499,7.80209,10.886406,13.188987,-1
104,105,1583935891765,3.9729997999999997,1.4703,10.499599,7.188916000000001,9.909869,11.738282,-1
105,106,1583935891776,3.6172,0.6279,9.0875,6.654674000000001,9.234511999999999,10.627881,-1
106,107,1583935891786,3.5203998,-0.1153,8.2549,6.5268809999999995,8.678186,9.806057000000001,-1
107,108,1583935891796,3.6009998,-0.7449,7.5095997,5.893634,8.074186,9.104871000000001,-1
108,109,1583935891806,2.9187999,-1.5135,6.9993,4.4677242999999995,7.171094,8.700069000000001,-1
109,110,1583935891816,2.0478,-2.3302999,6.8280997,3.9638690000000003,6.6255507,8.612777000000001,-1
110,111,1583935891827,2.0156999,-2.9285997999999998,6.7244997,3.9913160000000003,6.1109504999999995,8.221602,-1
111,112,1583935891837,2.2979998999999998,-3.4854,6.3673,3.7052667,5.5827230000000005,7.947418700000001,-1
112,113,1583935891847,2.2114,-4.0606,6.1176,3.1823442,5.1833315,7.717842999999999,-1
113,114,1583935891857,1.905,-4.5085998,5.8993998,2.8206282000000003,4.7940917,7.423653,-1
114,115,1583935891867,1.9154999,-4.8993998,5.5624,2.3474286,4.3399790000000005,6.994803999999999,-1
115,116,1583935891878,1.5164,-5.4014,5.1906,1.6377202,3.9833002,6.760517,-1
116,117,1583935891888,1.179,-5.7016,4.9228997,1.084334,3.6651397000000006,6.074339,-1
117,118,1583935891898,0.90129995,-6.0706997000000005,4.2141,0.42522937,3.3828058,5.386762,-1
118,119,1583935891908,0.4745,-6.2876997,3.6929,0.30555758,3.3391642999999998,4.639474400000001,-1
119,120,1583935891918,0.5552,-6.339299700000001,2.9817,0.26001987,3.427635,4.0678635000000005,-1
120,121,1583935891929,0.7001,-6.2015,2.3611999,0.09020394,3.5135772000000003,3.511796,-1
121,122,1583935891939,0.4236,-6.0941,1.7415999,-0.37037343,3.567399,3.2860897000000007,-1
122,123,1583935891949,0.061899997000000005,-6.1068997000000005,1.4255999,-0.8940524,3.5499306000000006,2.9279747000000005,-1
123,124,1583935891959,0.0296,-5.8845997,0.94369996,-1.0689249,3.765725,2.3822596000000003,-1
124,125,1583935891970,0.0296,-5.8845997,0.94369996,-0.73467517,4.0286465,1.7805487000000002,-1
125,126,1583935891979,0.5711,-5.5455,0.2171,-0.74813056,4.296567400000001,0.7427676,-1
126,127,1583935891989,0.5934,-5.343999999999999,-0.5492,-1.5070925,4.460992,0.38954622,-1
127,128,1583935892000,-0.2724,-4.88,-1.2562,-1.8467721999999998,4.7442355,-0.1447247,-1
128,129,1583935892010,-0.1401,-4.6094,-1.6590999,-1.8056302,5.009666,-0.6342526999999999,-1
129,130,1583935892020,-0.1255,-4.4270997,-2.2299,-1.8726009,5.1879573,-1.4972284,-1
130,131,1583935892031,-0.17899999,-4.1956,-3.0110997999999998,-2.039994,5.500123,-2.2272587,-1
131,132,1583935892041,-0.123799995,-3.7968998,-3.0677,-1.9749196,5.9039574,-2.271226,-1
132,133,1583935892052,0.21689999,-3.3883997999999997,-3.057,-1.6570078000000001,6.280106,-2.3520925,-1
133,134,1583935892062,0.3076,-3.1169,-3.1624,-1.7940807,6.490115599999999,-2.5388882,-1
134,135,1583935892072,-0.4173,-3.0507,-3.2947,-2.7381241000000003,6.585549,-2.631065,-1
135,136,1583935892082,-0.90309995,-2.9162,-3.0219998,-3.047139,6.724613000000001,-2.2760527,-1
136,137,1583935892093,-0.86179996,-2.7249,-2.6764,-2.9131975,6.9152975,-2.0223534,-1
137,138,1583935892103,-0.5776,-2.5361,-2.4496,-2.4386572999999996,7.140372,-1.9325134999999998,-1
138,139,1583935892113,0.1583,-2.2707,-2.5946,-1.7378648999999997,7.3917720000000005,-2.2954936000000004,-1
139,140,1583935892123,0.67649996,-2.1038,-2.9838,-1.4599077,7.496571,-2.6076975,-1
140,141,1583935892133,0.7583,-1.9844998999999999,-3.0140998,-1.398731,7.685253599999999,-2.4861772,-1
141,142,1583935892143,0.71889997,-1.8241999,-2.6687999,-1.5572462,7.763514999999999,-2.0808869999999997,-1
142,143,1583935892153,0.5868,-1.7407999,-2.3973,-1.7534941000000002,7.8259845,-1.9158496999999999,-1
143,144,1583935892163,0.23169999,-1.7153,-2.0802999,-2.2468912999999997,7.8171740000000005,-1.5504658000000002,-1
144,145,1583935892173,-0.36789998,-1.7484,-1.6682999,-2.8299272,7.7750645,-1.1538903,-1
145,146,1583935892183,-0.6975,-1.8118,-1.3648,-3.0041293999999996,7.751850599999999,-0.9011680000000001,-1
146,147,1583935892193,-0.4777,-1.652,-1.1475999,-2.5568828999999997,7.9600024000000005,-0.84141827,-1
147,148,1583935892204,-0.4777,-1.652,-1.1475999,-1.8033223000000003,8.203549,-1.4555885,-1
148,149,1583935892214,0.7711,-1.2012,-1.9997,-1.243127,8.484113,-1.9044917000000001,-1
149,150,1583935892224,1.1504999,-0.97679996,-2.2704,-1.264943,8.687963499999999,-1.8289403000000002,-1
150,151,1583935892234,0.91779995,-0.80969995,-2.0098999,-1.6176853999999998,8.790848,-1.3757274,-1
151,152,1583935892244,0.5933,-0.7094,-1.4340998999999999,-1.8322154999999998,8.906919,-0.78797966,-1
152,153,1583935892254,0.45729998,-0.5986,-0.93039995,-2.0178142,8.942257000000001,-0.42227972,-1
153,154,1583935892265,0.2341,-0.5758,-0.5913,-2.3132490000000003,8.975594000000001,-0.10344867,-1
154,155,1583935892275,-0.1078,-0.53389996,-0.3556,-2.6275022,8.986866000000001,-0.039715018,-1
155,156,1583935892285,-0.34600000000000003,-0.5324,-0.3978,-2.6946452,9.072799,-0.22415474,-1
156,157,1583935892295,-0.19999999,-0.38599998,-0.5913,-2.3722422,9.270147,-0.35643917,-1
157,158,1583935892305,0.0942,-0.104499996,-0.6649,-1.9736841,9.653948,-0.45928450000000004,d
158,159,1583935892315,0.5108,0.2052,-0.80689996,-1.6452668000000001,9.828313,-0.5691401,-1
159,160,1583935892325,0.77019995,0.3384,-0.843,-1.4518535,9.93587,-0.63901246,-1
160,161,1583935892336,0.88549995,0.46269998,-0.9798,-1.4714955,10.042231,-0.88951296,-1
161,162,1583935892346,0.73179996,0.48049998,-1.1194998999999999,-1.7015879,10.061508,-0.6723014,-1
162,163,1583935892356,0.5742,0.5293,-0.8534,-1.9126033,9.988035,-0.47848599999999997,-1
163,164,1583935892366,0.3125,0.4321,-0.6716,-2.2208040000000002,9.916813000000001,-0.28939193,-1
164,165,1583935892376,-0.026099999,0.3256,-0.42659998,-2.4268107000000003,9.836176,-0.034208353999999996,-1
165,166,1583935892387,-0.1127,0.2871,-0.2739,-2.2196164,9.873353,0.09127654,-1
166,167,1583935892397,0.1388,0.3162,-0.192,-2.1325537999999997,9.820191000000001,0.20863074,-1
167,168,1583935892407,0.1498,0.266,-0.0711,-2.2484523999999997,9.810768,0.49002606,-1
168,169,1583935892417,0.018099999,0.2653,0.2236,-2.2511337000000005,9.78336,0.69089,-1
169,170,1583935892427,0.0799,0.21509999,0.4048,-2.0261266,9.714089,0.736466,-1
170,171,1583935892438,0.27899998,0.1648,0.3768,-1.9991488000000002,9.711697000000001,0.809968,-1
171,172,1583935892449,0.2654,0.17369999,0.4734,-2.0627484000000003,9.698069,0.9144318000000001,-1
172,173,1583935892459,0.2165,0.1343,0.5575,-2.0902913,9.576778,0.7620265,-1
173,174,1583935892469,0.1902,0.0267,0.4242,-2.1894495,9.493231,0.48907796,-1
174,175,1583935892480,0.044299997,-0.0309,-0.1274,-2.2472167,9.528414999999999,0.08288726,-1
175,176,1583935892490,0.039,0.028199999,-0.47529998,-2.2552613999999997,9.578435,-0.29041666,-1
176,177,1583935892500,0.022499999,0.048,-0.6421,-2.2790215,9.590923,-0.40691853,-1
177,178,1583935892510,0.0632,0.1462,-0.6013,-2.2336657000000004,9.696201,-0.358412,-1
178,179,1583935892521,0.0828,0.17549999,-0.4412,-2.2163892000000005,9.685216,-0.19606596,-1
179,180,1583935892531,-0.0546,0.0481,-0.2873,-2.4099844,9.549714,-0.034170046,-1
180,181,1583935892541,-0.2905,-0.0793,-0.0883,-2.6204824,9.464146000000001,0.21728817,-1
181,182,1583935892551,-0.3136,-0.0799,0.0404,-2.5762856,9.484475999999999,0.30996293,-1
182,183,1583935892562,-0.1354,0.0163,0.0616,-2.3777487,9.591038000000001,0.33498713,-1
183,184,1583935892573,-0.0477,0.053299997,0.16149999,-2.2849972000000003,9.638999,0.5557038000000001,-1
184,185,1583935892583,0.049999997000000004,0.1197,0.3996,-2.1866436,9.681979,0.6978619,-1
185,186,1583935892593,0.23799999,0.21599999,0.5042,-1.9191922,9.845148,0.8146511,-1
186,187,1583935892603,0.44009998,0.3621,0.5755,-1.7511956999999998,9.958136,0.84928083,-1
187,188,1583935892614,0.50189996,0.3919,0.527,-1.8177544999999997,9.918642,0.7236714,-1
188,189,1583935892624,0.27789998,0.21759999,0.2902,-2.1842303,9.660172,0.5037496,-1
189,190,1583935892634,-0.2545,-0.0044,0.3238,-2.7257217999999996,9.511292,0.6973639,-1
190,191,1583935892644,-0.4642,-0.011000000000000001,0.5563,-2.7658777000000003,9.53624,0.72604644,-1
191,192,1583935892654,-0.5129,-0.0189,0.4693,-2.7777336,9.530588999999999,0.39734169999999996,-1
192,193,1583935892665,-0.4102,-0.0084999995,0.042999998,-2.61556,9.538443,-0.060544573,-1
193,194,1583935892675,-0.1457,0.0105,-0.4906,-2.2924863999999996,9.597425,-0.6340325,-1
194,195,1583935892685,0.0674,0.0391,-0.76519996,-2.2479734000000002,9.527994,-0.7565869000000001,-1
195,196,1583935892695,0.046099997999999996,-0.0299,-0.7254,-2.3107781000000003,9.499704,-0.5328727,-1
196,197,1583935892705,-0.0034999999,-0.0792,-0.42999998,-2.2727869,9.498286,-0.22595519,-1
197,198,1583935892716,0.0536,-0.0404,-0.141,-2.2426105,9.53443,-0.016203956999999998,-1
198,199,1583935892726,0.0799,0.0471,0.0363,-2.1541016,9.651879,0.17781258,-1
199,200,1583935892736,0.17449999,0.1443,0.19309999,-2.1179683,9.706265,0.2740882,-1
200,201,1583935892746,0.1531,0.1537,0.2826,-2.1880417000000003,9.672938,0.31095892,-1
201,202,1583935892756,0.1056,0.105,0.23879999,-2.2595517999999997,9.573417,0.08942822,-1
202,203,1583935892766,0.0121,0.0178,0.0033,-2.3662949,9.477975,-0.23436362,-1
203,204,1583935892777,-0.0401,-0.0884,-0.2792,-2.2455792000000003,9.450039,-0.46642882,-1
204,205,1583935892787,0.0936,-0.086799994,-0.44619998,-2.2121754,9.440759,-0.37716338,-1
205,206,1583935892797,0.1201,-0.114599995,-0.3146,-2.2328707999999997,9.376173,-0.17663462,-1
206,207,1583935892807,0.0396,-0.1519,-0.021699998999999998,-2.4133267000000003,9.354117,0.12021766,-1
207,208,1583935892817,-0.1096,-0.1893,0.1504,-2.6580617,9.296358999999999,0.26427197,-1
208,209,1583935892828,-0.3676,-0.2563,0.2925,-2.9765097999999997,9.249386,0.42324698,-1
209,210,1583935892838,-0.6763,-0.3041,0.4357,-3.0049722,9.163807,0.53693324,-1
210,211,1583935892848,-0.6256,-0.3821,0.542,-2.8232906000000004,9.161816,0.5789276,-1
211,212,1583935892858,-0.3829,-0.3435,0.5349,-2.5031762000000004,9.169247,0.4509431,-1
212,213,1583935892868,-0.07369999599999999,-0.35439998,0.4348,-2.2176244,9.143907,0.36072,-1
213,214,1583935892881,0.3005,-0.3171,0.39409998,-2.0311449,9.218204,0.35985809999999996,-1
214,215,1583935892891,0.49589998,-0.2093,0.3256,-1.8034371999999999,9.374583,0.21566969,-1
215,216,1583935892902,0.63589996,-0.031999997999999995,0.0167,-1.7286423,9.532035,-0.13990758,-1
216,217,1583935892911,0.4491,0.0196,-0.1722,-1.9804741000000001,9.541459,-0.31917579999999995,-1
217,218,1583935892921,0.1129,-0.015099999499999999,-0.1469,-2.3093033,9.511569,-0.2819316,-1
218,219,1583935892931,-0.1599,-0.0486,-0.1139,-2.5523818,9.472803,-0.28031313,-1
219,220,1583935892941,-0.3829,-0.0427,-0.23959999,-2.8167972999999997,9.471452000000001,-0.45002374,-1
220,221,1583935892951,-0.5006,-0.057,-0.3198,-2.9617999,9.449627,-0.5577245,-1
221,222,1583935892962,-0.5751,-0.0041,-0.46379998,-2.9472240000000003,9.529364,-0.7640281,-1
222,223,1583935892972,-0.3241,0.0955,-0.59499997,-2.7105331,9.612269,-0.8100063,-1
223,224,1583935892982,-0.16749999,0.17379999,-0.4109,-2.622398,9.685024,-0.5750871999999999,d
224,225,1583935892992,-0.081599995,0.23179999,-0.1556,-2.468307,9.739478,-0.31578562,-1
225,226,1583935893002,0.043199997000000004,0.24069999,-0.0797,-2.3731902000000002,9.723964,-0.27303475,-1
226,227,1583935893012,0.0823,0.18159999,-0.0526,-2.355387,9.670094500000001,-0.2079795,-1
227,228,1583935893022,0.046499997,0.123399995,0.0052,-2.4262837999999998,9.605653,-0.18162414,-1
228,229,1583935893032,0.023599999,0.0661,-0.0222,-2.4462322999999997,9.588835000000001,-0.21656033,-1
229,230,1583935893042,-0.0175,0.0779,-0.1158,-2.5067293999999998,9.572238,-0.29740775,-1
230,231,1583935893052,-0.038399998,0.1094,-0.14919999,-2.5270127999999996,9.587466000000001,-0.33403903,-1
231,232,1583935893062,-0.0984,0.0528,-0.2703,-2.6121602000000004,9.536939,-0.45872903,-1
232,233,1583935893072,-0.20709999,0.0158,-0.3137,-2.7263255,9.486286999999999,-0.44694957,-1
233,234,1583935893082,-0.2771,-0.0212,-0.2518,-2.7776666000000003,9.459864999999999,-0.40418909999999997,-1
234,235,1583935893093,-0.24049999,-0.0685,-0.3294,-2.7090294,9.426383999999999,-0.51559615,-1
235,236,1583935893102,-0.0779,-0.0867,-0.4393,-2.5485895,9.371393,-0.5667171,-1
236,237,1583935893112,-0.013499998999999999,-0.18349999,-0.34739998,-2.5300583999999997,9.300535,-0.46552858,-1
237,238,1583935893122,0.2568,-0.20179999,-0.18100000000000002,-2.203403,9.297001,-0.25446534,-1
238,239,1583935893132,0.4003,-0.1513,-0.046,-2.1417954,9.324850999999999,-0.061138335999999995,-1
239,240,1583935893142,0.273,-0.2861,0.2349,-2.3287826000000003,9.1583,0.27856058,-1
240,241,1583935893153,0.129,-0.4592,0.5765,-2.4400554,8.996912,0.66781944,-1
241,242,1583935893163,0.1426,-0.5536,0.6890000000000001,-2.4162282999999998,8.882766,0.68122697,-1
242,243,1583935893173,0.196,-0.6871,0.6038,-2.3395947999999995,8.7331,0.56499326,-1
243,244,1583935893183,0.3093,-0.83,0.41869998,-2.2185917,8.581499,0.32177112,-1
244,245,1583935893193,0.47349998,-0.97249997,0.1713,-2.155768,8.4156,0.08701487,-1
245,246,1583935893204,0.4236,-1.1803,0.0206,-2.2455792000000003,8.156844,-0.100575626,-1
246,247,1583935893213,0.4084,-1.3723999,-0.1094,-2.2678068,8.035736,-0.16388789,-1
247,248,1583935893223,0.2478,-1.5906999,-0.0589,-2.5441747,7.759263000000001,-0.05089115,-1
248,249,1583935893233,-0.0094,-1.8477,0.0678,-2.7681377,7.493382,0.07952580599999999,-1
249,250,1583935893243,-0.0818,-2.0953,0.1836,-2.823664,7.1903143,0.19331743,-1
250,251,1583935893254,-0.1275,-2.4514,0.3581,-2.965937,6.803689,0.35551023,-1
251,252,1583935893264,-0.2753,-2.8871,0.4845,-3.132727,6.1841655,0.43551487,-1
252,253,1583935893274,-0.3906,-3.4522,0.5143,-3.184116,5.6377516,0.5635568,-1
253,254,1583935893284,-0.408,-3.9515998,0.7601,-3.1358392000000004,5.3393955,0.7289674,-1
254,255,1583935893294,-0.1732,-4.2781997,0.7327,-2.728078,5.059839,0.51578766,-1
255,256,1583935893305,0.48009998,-4.3729997,0.46519998,-1.7642776999999998,5.0533557,0.19375795,-1
256,257,1583935893315,1.2436,-4.3719,0.1829,-1.1229955,5.049055,-0.27728686,-1
257,258,1583935893325,1.8031,-4.3601,-0.30969998,-0.6805757,5.1113815,-0.82780963,-1
258,259,1583935893335,2.0591,-4.3745,-0.857,-0.67105645,4.9491787,-1.3473705,-1
259,260,1583935893345,1.8915,-4.58,-1.1575,-1.1433558000000001,4.694005000000001,-1.3542275,-1
260,261,1583935893355,1.2235999,-4.8582,-1.0759,-2.071291,4.362187400000001,-1.4386375,-1
261,262,1583935893365,0.2171,-5.2302,-1.23,-3.1971595,3.9298427000000005,-1.753523,-1
262,263,1583935893375,-0.90419996,-5.7093,-1.6743,-4.1679125,3.4477654,-2.3711693,-1
263,264,1583935893386,-1.6953,-6.1435,-2.2814,-4.705382,3.047177,-2.8686272999999995,-1
264,265,1583935893396,-1.9462999,-6.4596995999999995,-2.6138,-4.519151,2.9687333,-2.8199098,-1
265,266,1583935893406,-1.439,-6.3658,-2.3093998,-3.3458775999999997,3.3511355000000003,-1.9743258000000001,-1
266,267,1583935893416,-0.0625,-5.8795,-1.3686999,-1.8579963,3.9615898,-0.7940225999999999,-1
267,268,1583935893427,0.8549,-5.3964,-0.5654,-1.3828908000000002,4.4385915,0.03865199,-1
268,269,1583935893437,1.2422,-4.9007998,0.38709998,-1.2950333,4.8528457000000005,1.4124641000000002,-1
269,270,1583935893447,1.0696,-4.6152997000000004,1.3242999,-1.2465171999999998,5.046575,2.2434435,-1
270,271,1583935893457,1.1147,-4.4418,1.9941,-0.8714031999999999,5.262427,3.394566,-1
271,272,1583935893467,1.4661,-4.2243,3.1887999,-0.582538,5.496005,5.0719824000000004,-1
272,273,1583935893478,1.6649,-4.013,4.7134,-0.37535337,5.714672599999999,6.383229,-1
273,274,1583935893488,1.81,-3.8100998,5.7924,-0.50519574,5.7981625,5.8036695,-1
274,275,1583935893498,1.6747999,-3.7259998,4.7351,-0.19428468,6.2763042,4.1727104,-1
275,276,1583935893508,1.9969,-3.1538,3.1919999999999997,-0.39605840000000003,6.769595599999999,2.4114207999999997,-1
276,277,1583935893518,1.6468999,-2.6996999,1.4807,-1.2716180000000001,7.0472946,0.8802714,-1
277,278,1583935893528,0.87479997,-2.5295,0.39249998,-1.627157,7.284942999999999,0.60552233,-1
278,279,1583935893539,0.4926,-2.2921999,0.2056,-1.7068933999999998,7.4324827,0.57927233,-1
279,280,1583935893549,0.066199996,-1.926,-0.0014,-1.949541,7.6771803,0.2816539,-1
280,281,1583935893559,0.5261,-1.4354999,-1.4309,-1.3990853,8.195898,-1.2007303999999999,-1
281,282,1583935893569,0.91999996,-1.0073,-2.254,-0.8962646000000001,8.645453,-2.0567436000000003,-1
282,283,1583935893580,1.0835,-0.434,-2.1197999,-0.58509505,9.234962,-1.9030265,-1
283,284,1583935893590,1.43,0.0994,-0.93039995,-0.081316665,9.796393,-0.6646687,-1
284,285,1583935893600,1.6492,0.7222,0.8849,0.34204522,10.443183,1.2307921999999998,-1
285,286,1583935893610,2.3413,1.6705999,1.6906999,1.3885604,11.595530499999999,2.1690127999999995,-1
286,287,1583935893620,2.8974,2.5434,1.8007,1.9973866999999998,12.309911999999999,2.213315,-1
287,288,1583935893630,3.1381997999999998,3.3313,1.1906999,2.5053213,13.259665,1.4925452,-1
288,289,1583935893641,3.0872998,3.8974,0.2686,2.6173987000000003,13.773881,0.5759779,-1
289,290,1583935893651,3.0184999,4.232199700000001,-0.6974,2.8500192,14.137943,-0.48293919999999996,-1
290,291,1583935893661,3.2326,4.8073997,-1.3514999,3.1270955000000002,14.720346,-0.8258559999999999,-1
291,292,1583935893671,2.6253,5.2901,-0.7165,2.6722354999999998,15.160286,-0.017918205,-1
292,293,1583935893681,2.003,5.6706,0.2174,2.2915572999999996,15.554793,0.98717725,-1
293,294,1583935893692,1.775,6.1541,0.8086,2.3453597999999998,16.03236,1.5241488,-1
294,295,1583935893702,2.0005,6.6510997000000005,0.91749996,3.0212526,16.6359,1.514256,-1
295,296,1583935893712,2.3604,7.0329,0.406,3.3313112,16.79816,0.8871665999999999,-1
296,297,1583935893722,2.2944999,7.062599700000001,-0.1004,3.4301730000000004,16.766356,0.6270701,-1
297,298,1583935893732,2.1206,6.8177,-0.2947,3.1561515,16.369646,0.40409335,-1
298,299,1583935893742,1.232,6.3854,-0.60749996,2.1813187999999997,15.868615,0.0050852844,-1
299,300,1583935893752,0.0371,5.9224,-1.0225999,1.220928,15.452063,-0.28233382,-1
300,301,1583935893763,-1.0619,5.5383997,-0.9817,0.08039729,15.004451999999999,-0.021001939,-1
301,302,1583935893773,-2.1332998,5.206,-0.53069997,-0.5782285,14.728707,0.4397478,-1
302,303,1583935893783,-2.3416997999999998,4.9953,-0.345,-0.25128582,14.568918,0.5581649999999999,-1
303,304,1583935893793,-1.6287,5.0048,-0.36159998,0.7157131,14.5870285,0.44988966,-1
304,305,1583935893803,-0.75159997,5.1053,-0.5471,1.7691714,14.703835999999999,0.41474277,-1
305,306,1583935893813,-0.015299999,5.1477,-0.5276,2.6327599999999998,14.556574,0.5218115,-1
306,307,1583935893824,0.60719997,5.0414,-0.37829998,3.2542086,14.4100685,0.88820094,-1
307,308,1583935893834,0.8236,4.8241,0.1103,3.1197214,14.034006,1.5203372,-1
308,309,1583935893844,0.48819998,4.3868,0.6457,2.8883266,13.533407,1.9608607,-1
309,310,1583935893854,0.31219998,3.9262998,0.9264,3.1559505,13.160995000000002,1.8107252,-1
310,311,1583935893865,0.6838,3.6585,0.53459996,3.4374222999999997,12.818643,1.3301802,-1
311,312,1583935893875,0.6839,3.3081,0.096099995,3.150846,12.406044999999999,0.8317936,-1
312,313,1583935893885,0.1871,2.8357,-0.36409998,2.7219775,11.988333,0.47042233,-1
313,314,1583935893895,-0.0067999995999999995,2.4979,-0.7621,2.9901470000000003,11.692064,-0.23556072,-1
314,315,1583935893905,0.3322,2.1787999,-1.5035,3.1491125,11.383577,-0.64867544,-1
315,316,1583935893915,0.2944,1.8982999,-1.4501,2.9266148,11.047382,-0.14034809,-1
316,317,1583935893925,0.0072999996999999995,1.5489,-0.88009995,2.6874914,10.715049,0.41676348,-1
317,318,1583935893935,-0.1591,1.2487,-0.3498,2.6526508,10.43235,0.90410805,-1
318,319,1583935893945,-0.21689999,0.94879997,0.0286,2.553282,10.106223,1.1817396,-1
319,320,1583935893955,-0.3515,0.63839996,0.28149998,2.3821445,9.871408,1.4076948,-1
320,321,1583935893965,-0.5329,0.38549998,0.4131,2.4747715,9.641498,1.3365201,-1
321,322,1583935893975,-0.292,0.2589,0.19219999,2.7764504,9.570055,0.9615879999999999,-1
322,323,1583935893986,0.067999996,0.1893,-0.2032,3.0171537,9.447644,0.5227308,-1
323,324,1583935893996,0.0993,0.0284,-0.5329,2.8220169999999998,9.281765,0.4574649,-1
324,325,1583935894006,-0.122099996,-0.101799995,-0.3809,2.5202037999999995,9.191838,0.7830284000000001,-1
325,326,1583935894016,-0.5146,-0.2244,-0.026899998999999997,2.0168470000000003,9.019743,1.1070502,-1
326,327,1583935894026,-0.83879995,-0.3566,0.2287,2.134536,9.019092,1.0919476000000001,-1
327,328,1583935894037,-0.6281,-0.341,0.1374,2.4776826,9.046644,0.58143663,-1
328,329,1583935894048,-0.2943,-0.3148,-0.37669998,2.6600156000000004,9.093722999999999,0.10223241,-1
329,330,1583935894058,-0.1488,-0.2981,-0.7694,2.5761228,9.034664,0.038728606,-1
330,331,1583935894068,-0.24939999,-0.3297,-0.68509996,2.7393305,9.159919,0.38718072,-1
331,332,1583935894079,-0.0889,-0.21229999,-0.355,3.2304676,9.319545,0.72584534,-1
332,333,1583935894089,0.3888,-0.042999998,-0.0063,3.8250724999999997,9.513973,1.1216643,-1
333,334,1583935894099,1.2091,0.2606,0.6581,4.096575,9.617709,1.3795007,-1
334,335,1583935894110,1.0037999,0.1945,0.83769995,3.8926752000000002,9.552894,1.5566046,-1
335,336,1583935894120,1.0037999,0.1945,0.83769995,3.5058102999999994,9.4104185,1.6350291000000001,d
336,337,1583935894130,0.1722,-0.1413,0.73579997,3.064061,9.216719,1.4289745,-1
337,338,1583935894140,-0.0867,-0.2528,0.5159,2.71988,9.080852499999999,1.0606984,-1
338,339,1583935894150,-0.3954,-0.3446,0.14289999,2.4002828999999997,9.036197,0.6603783000000001,-1
339,340,1583935894161,-0.5121,-0.2681,-0.3121,2.383064,9.139386,0.20177375,-1
340,341,1583935894171,-0.3518,-0.0808,-0.69009995,2.531198,9.284953,-0.1117326,-1
341,342,1583935894181,-0.1885,0.09999999400000001,-0.7241,2.76152,9.516117999999999,-0.109664015,-1
342,343,1583935894191,-0.0501,0.2252,-0.52599996,2.8611956000000003,9.564338000000001,0.20943518,-1
343,344,1583935894201,-0.0501,0.2252,-0.52599996,3.010728,9.677086,0.8663179,-1
344,345,1583935894212,0.0103,0.2974,0.0255,3.3932733999999996,9.912646,1.589453,-1
345,346,1583935894222,0.4434,0.6757,1.0875,3.3772705000000003,10.039366000000001,1.9488035,-1
346,347,1583935894232,0.095,0.8962,1.2868998999999999,2.8100076,10.309576,2.0951755000000003,-1
347,348,1583935894242,-0.61759996,1.2304,1.1291,2.058822,10.736385,1.8367167000000002,-1
348,349,1583935894252,-1.2693,1.7493999,0.73569995,1.5360911,11.334094,1.4315315,-1
349,350,1583935894263,-1.4756,2.4863,0.36949998,1.6172162,12.166605,1.1057860000000002,-1
350,351,1583935894273,-0.9490000000000001,3.4541,0.124,2.3786395000000002,13.218933999999999,1.066119,-1
351,352,1583935894283,-0.129,4.5655,0.38149998,3.067643,14.310412,1.6564523999999998,-1
352,353,1583935894293,0.1898,5.6907997,1.3146,3.2544765,15.407742,2.8757137999999998,-1
353,354,1583935894303,0.3189,6.7198,2.556,3.417608,16.176548,4.002157,-1
354,355,1583935894314,0.7312,7.7,3.7568998,3.9891806000000005,17.27449,5.4013953,-1
355,356,1583935894324,1.2929,8.511000000000001,4.4389,4.760104,18.155279999999998,6.1053963,-1
356,357,1583935894334,1.9997,9.1598,4.7057,5.357457,18.614708,6.407046299999999,-1
357,358,1583935894344,2.5648,9.5159,4.9143,5.6851373,18.858467,6.5524797,-1
358,359,1583935894354,2.7296,9.6348,4.8553,5.446330000000001,18.779304999999997,6.5460443,-1
359,360,1583935894364,2.4945,9.4674,4.7661,5.114589,18.636303,6.504318,-1
360,361,1583935894374,2.2793,9.2498,4.5413,4.7850995,18.383677,6.2531667,-1
361,362,1583935894384,2.0019999,8.769,4.1977,4.1721262999999995,17.697010000000002,5.936710400000001,-1
362,363,1583935894394,1.6399,8.0383,4.002,3.6147177000000004,16.925817000000002,5.832955,-1
363,364,1583935894404,1.3823999,7.1976,3.8674,3.577579,16.13713,5.2956962999999995,-1
364,365,1583935894415,1.8780999,6.4054,2.9859,4.122681,15.508460999999999,4.140801000000001,-1
365,366,1583935894425,2.6211998,5.7700996,1.8729999,4.386264,14.841820000000002,3.133579,-1
366,367,1583935894436,2.8983,4.9584,0.9499,4.311574,14.105324,2.159618,-1
367,368,1583935894446,3.1264,4.3044,-0.011899999,4.362762,13.427947,0.87794423,-1
368,369,1583935894456,3.0895,3.3985,-1.1472,3.4070735,12.450652999999999,0.06660669,-1
369,370,1583935894466,2.1903,2.3511999,-1.5058,2.349392,11.398976,0.13929467,-1
370,371,1583935894476,1.5458,1.3030000000000002,-1.0902,1.542201,10.198657,0.69725853,-1
371,372,1583935894486,1.1546999,0.2941,-0.6235,0.76569444,9.159239,0.7992994000000001,-1
372,373,1583935894496,0.5316,-0.77459997,-0.4888,-0.024669856,8.105781,1.144754,-1
373,374,1583935894507,0.0854,-1.8273,-0.042,-0.03898718,7.2165740000000005,1.5276155,-1
374,375,1583935894517,0.3482,-2.6806997999999997,0.34739998,0.40551075,6.534399,2.1265202000000003,-1
375,376,1583935894527,1.1428,-3.2881,0.92249995,2.5933417999999997,6.3759604,1.1351676000000002,-1
376,377,1583935894537,3.7077,-3.3372998,-0.33249998,4.2550807,6.2054358,-0.32448137,-1
377,378,1583935894547,5.071000000000001,-3.6009998,-1.5752,4.1947756,5.803659400000001,-0.77219707,-1
378,379,1583935894557,4.9395,-4.0171,-1.7519,3.3987513,5.264457,-0.16096696,-1
379,380,1583935894568,4.1382,-4.5748997000000005,-0.9439,1.7891008000000002,4.6786532,1.1203618999999998,-1
380,381,1583935894578,2.556,-5.127999999999999,0.33769998,-0.2577119,4.0155263,1.7565683,-1
381,382,1583935894588,0.7019,-5.7963,0.8822,-2.3625696,3.3998814,1.9727647000000001,-1
382,383,1583935894598,-0.8623,-6.2594,1.0813999,-3.3049178,3.1745389999999998,1.7968676,-1
383,384,1583935894608,-1.828,-6.5207,0.88019997,-2.9962957,3.1110832999999998,0.93262774,-1
384,385,1583935894619,1.0328,-5.9133997,-1.199,-0.7222158000000001,3.7270155,-0.5949017,-1
385,386,1583935894628,1.0328,-5.9133997,-1.199,1.0202938,4.1864243,-2.4619002,-1
386,387,1583935894638,2.7923,-5.4519997,-2.9652998,1.7748121,4.516087000000001,-3.3143125,-1
387,388,1583935894648,3.5856,-5.1247,-3.7482998,1.4988661,4.5909777,-2.6647367,-1
388,389,1583935894659,3.3651,-5.0374,-3.0663998,0.34918955,4.525424500000001,-0.9882594000000001,-1
389,390,1583935894669,2.29,-5.092,-1.3808,-0.97415274,4.468145400000001,0.24319343,-1
390,391,1583935894679,1.0683,-5.1240997,-0.1611,-1.9027773999999997,4.4642186,0.4990090999999999,-1
391,392,1583935894689,0.2189,-5.107,0.1104,-2.0048087,4.6511583,0.26440606,-1
392,393,1583935894699,0.1845,-4.9153,-0.089899994,-1.9819585,4.9031142999999995,-0.61781895,-1
393,394,1583935894710,0.2784,-4.647,-0.9023,-1.8945221999999997,5.1872106,-1.5083278,-1
394,395,1583935894720,0.4508,-4.053499700000001,-2.1966,-1.9206765,5.47326,-2.0149698,-1
395,396,1583935894730,0.2579,-3.8449,-2.0135,-2.166178,5.6633214999999995,-1.8683298,-1
396,397,1583935894740,-0.1444,-3.8325998999999995,-1.7285,-2.623595,5.6677456,-1.6023817,-1
397,398,1583935894750,-0.7181,-3.8016,-1.2106,-3.2286193,5.679947,-1.0952611,-1
398,399,1583935894760,-0.9984,-3.6945998999999996,-0.6116,-3.5813330000000003,5.834708,-0.42337146,-1
399,400,1583935894771,-0.99979997,-3.2974,-0.5125,-3.5172257000000005,6.2742352,-0.43100417,-1
400,401,1583935894781,-0.39949998,-2.8163998,-0.79289997,-2.7726387999999997,6.785311,-0.7571519,-1
401,402,1583935894791,0.7258,-2.1234,-1.1621,-1.6126288999999998,7.465140299999999,-1.1309347,-1
402,403,1583935894801,1.3956,-1.7257999,-1.3612,-1.1435568,7.748144,-1.2567452,-1
403,404,1583935894811,1.2687,-1.5515,-0.8088,-1.3840114,7.946135000000001,-0.29297367,-1
404,405,1583935894822,0.8662,-1.5511999,0.0971,-1.7989553,7.908786,0.40825927,-1
405,406,1583935894832,0.11699999999999999,-1.5493,0.81979996,-2.5391752999999997,7.975852000000001,1.1402625,-1
406,407,1583935894842,-0.2581,-1.3706,1.1337,-2.8405093999999997,8.114457000000002,1.3308886999999998,-1
407,408,1583935894852,-0.39069998,-1.2813,0.96629995,-2.9503365,8.249461,1.0243735,-1
408,409,1583935894862,-0.3013,-1.1539999,0.66999996,-2.7821007,8.348898,0.6999305,-1
409,410,1583935894873,-0.2156,-1.0768,0.3762,-2.7629855,8.408188,0.39052305,-1
410,411,1583935894883,-0.14199999,-1.0490999,0.22569999,-2.519112,8.484467,0.28671044,-1
411,412,1583935894893,0.1926,-0.91429996,0.205,-2.3305062999999997,8.566329,0.21056524,-1
412,413,1583935894903,0.0749,-0.9561,0.2455,-2.5100715,8.542205000000001,0.259225,-1
413,414,1583935894913,-0.0721,-0.89959997,0.3867,-2.628709,8.6100855,0.37424245,-1
414,415,1583935894923,-0.093899995,-0.7844,0.54249996,-2.5654635,8.741853,0.39368337,-1
415,416,1583935894934,-0.0001,-0.6692,0.43179998,-2.4108652999999998,8.915030499999999,-0.013187262,-1
416,417,1583935894944,0.308,-0.4653,-0.3275,-1.9735116999999998,9.176133,-1.1992078000000002,-1
417,418,1583935894954,0.5882,-0.22129999,-1.1547999,-1.7900105,9.388114999999999,-1.8539740000000002,-1
418,419,1583935894964,0.6376,-0.07400000000000001,-1.5121,-1.9203796000000002,9.432302,-1.9410464,d
419,420,1583935894974,0.2911,-0.0628,-1.357,-2.2826703,9.44207,-1.7344555,-1
420,421,1583935894985,0.085,-0.0025,-1.1209999,-2.2183523,9.623446000000001,-1.4660081,-1
421,422,1583935894995,0.3988,0.23359999,-0.8203,-1.8516374,9.848969,-1.1608622,-1
422,423,1583935895005,0.6069,0.34239998,-0.55869997,-2.0729477,9.812981,-1.0178326,-1
423,424,1583935895015,0.21159999,0.3247,-0.3901,-2.4167838,9.826483999999999,-0.76760024,-1
424,425,1583935895026,0.0037999998,0.3561,-0.1845,-2.4248474,9.875249,-0.7660296,-1
425,426,1583935895036,0.0574,0.3867,-0.3315,-2.489759,9.840198,-1.0100563,-1
426,427,1583935895046,-0.0598,0.33769998,-0.45949998,-2.6318405,9.809189,-0.85458636,-1
427,428,1583935895056,-0.20089999,0.3071,-0.20969999,-2.7011766,9.748692,-0.6301539,-1
428,429,1583935895066,-0.23879999,0.2456,-0.012,-2.7044806,9.726942,-0.21786278,-1
429,430,1583935895077,-0.251,0.2322,0.3714,-2.6145065,9.658774000000001,0.002777274,-1
430,431,1583935895087,-0.1374,0.1401,0.4937,-2.430603,9.621433999999999,-0.18680519,-1
431,432,1583935895097,0.0345,0.1365,0.26,-2.1351109,9.725659,-0.52236694,-1
432,433,1583935895107,0.3452,0.2513,-0.095,-1.8661845000000001,9.834978,-0.86655736,-1
433,434,1583935895117,0.5223,0.31829998,-0.38779998,-2.1211476,9.84196,-0.9600556999999998,-1
434,435,1583935895127,0.1748,0.308,-0.39699998,-2.5802696,9.727737,-0.58640707,-1
435,436,1583935895138,-0.18969999,0.2197,-0.0462,-2.8558803,9.713994,-0.09511684599999999,-1
436,437,1583935895148,-0.478,0.2093,0.4605,-2.9745467,9.738128,0.11876198,-1
437,438,1583935895158,-0.6435,0.21759999,0.6673,-3.1484997000000003,9.728963,0.074689515,-1
438,439,1583935895168,-0.79469997,0.225,0.5692,-2.9459883999999996,9.831722000000001,-0.5384846999999999,-1
439,440,1583935895178,-0.59959996,0.31,0.0686,-2.6048913,10.018097000000001,-1.0686183999999999,-1
440,441,1583935895188,-0.1951,0.5606,-0.55329996,-2.078215,10.428443,-1.8736353,-1
441,442,1583935895199,0.2068,0.89919996,-1.1952,-1.7121894,10.77362,-2.2041976,-1
442,443,1583935895209,0.5412,1.2362,-1.4887999,-1.662007,11.026525,-1.9873406999999998,-1
443,444,1583935895219,0.36969998,1.7127999,-0.85749996,-1.8504019,11.250919,-1.5954864,-1
444,445,1583935895229,0.2463,1.9088,-0.852,-1.9721711,11.444456,-1.6055516,-1
445,446,1583935895239,0.2463,1.9088,-0.852,-1.9144898999999997,11.631644,-1.9058803,-1
446,447,1583935895249,0.8365,2.3530998,-2.136,-1.3763883,11.884952,-2.9498767999999997,-1
447,448,1583935895260,0.8365,2.3530998,-2.136,-0.66067517,12.045487,-3.9244220000000003,-1
448,449,1583935895270,1.7909,2.4671,-4.0308,-0.41421604,11.99789,-4.9356084000000005,-1
449,450,1583935895280,2.1657,2.4026,-4.7875,0.063360155,11.906039,-5.822756,-1
450,451,1583935895290,2.1657,2.4026,-4.7875,0.23555115,11.860923,-6.060232,-1
451,452,1583935895300,2.4754999,2.3279998,-5.1733,0.32284373,11.597245,-6.4335933,-1
452,453,1583935895310,2.4722,1.7465998999999999,-5.5176,0.25530810000000004,11.184426,-6.4562426,-1
453,454,1583935895320,2.537,1.3465999,-5.3371997,0.32722035,10.781597999999999,-6.2691116,-1
454,455,1583935895330,2.8158998,0.9259999999999999,-5.361000000000001,0.65965044,10.35115,-6.3268695,-1
455,456,1583935895340,3.2012,0.426,-5.5471997,0.9403754000000001,9.940313,-6.4536858,-1
456,457,1583935895350,3.2359,-0.2699,-5.6716,0.90755564,9.0884,-6.5166535,-1
457,458,1583935895360,2.9424999,-1.0337,-5.5288997,0.5589791000000001,8.316738,-6.326065,-1
458,459,1583935895371,2.3309,-1.9043,-5.5483,-0.19407399,7.400486999999999,-6.352775,-1
459,460,1583935895382,1.5475,-2.8618,-5.678499700000001,-0.89159113,6.3691699999999996,-6.353138400000001,-1
460,461,1583935895392,1.5475,-2.8618,-5.678499700000001,-0.5055788,6.053595,-6.3637404,-1
461,462,1583935895403,2.2069,-3.6683998,-5.6974998,-0.30296227,5.718522,-6.146548,-1
462,463,1583935895412,1.7615,-3.958,-5.2228,-1.1026545,5.3624945,-5.426468,-1
463,464,1583935895422,0.8717,-4.3535,-4.4153,-1.6395683999999997,5.13246,-4.856485,-1
464,465,1583935895432,0.405,-4.7574,-3.61,-2.1891525,4.6282214999999995,-3.825197,-1
465,466,1583935895442,0.24139999,-5.2585998,-3.0628998,-2.4073603,4.068678,-3.2293856,-1
466,467,1583935895453,-0.11800000000000001,-5.9743,-2.4384,-2.910248,3.1423514,-2.3131150000000003,-1
467,468,1583935895463,-0.4696,-6.817199700000001,-1.6504999,-3.2770875,2.2719057,-1.4771171,-1
468,469,1583935895473,-0.69,-7.6808,-0.9456,-3.5059445,1.4914153,-0.6712861999999999,-1
469,470,1583935895483,-0.7655,-8.1355,-0.0023,-3.3772035000000002,1.3176633,0.36651397,-1
470,471,1583935895493,-0.4362,-8.1633,0.8247,-3.0606419999999996,1.1880507,1.2332628,-1
471,472,1583935895503,0.033099998,-8.195499,1.6524999,-2.3427935,1.322873,2.0267875,-1
472,473,1583935895514,0.742,-8.0946,2.3032,-1.8290647,1.3029151,2.8598642000000005,-1
473,474,1583935895524,0.8323,-8.2119,3.4124,-1.9058803,1.1895063999999997,4.247678,-1
474,475,1583935895534,0.5811,-8.3309,4.7948,-2.2317696,1.0199873,5.6669225999999995,-1
475,476,1583935895544,0.1336,-8.5013,5.7527,-2.5772909999999998,0.9520781999999999,6.7829647,-1
476,477,1583935895554,-0.0411,-8.5373,6.8410997,-2.3837821,0.9996845999999999,7.591592299999999,-1
477,478,1583935895564,0.4745,-8.3224,7.751,-1.557409,1.3798552,8.480827,-1
478,479,1583935895575,1.3283,-7.8169,8.4156,-0.6468175,1.9753218000000001,8.944460000000001,-1
479,480,1583935895587,2.0253,-7.156399700000001,8.7647,0.16398366,2.9657838,9.366653,-1
480,481,1583935895597,2.2561,-6.2706,9.106,-0.27517995,3.9603925,9.431967,-1
481,482,1583935895607,1.5634999,-5.5115,9.1123,-1.0606505,4.656358200000001,9.287788,-1
482,483,1583935895617,0.6895,-4.8499,8.9459,-1.1157172,5.335737,8.928371,-1
483,484,1583935895627,0.7337,-4.1693997000000005,8.6628,-0.1479904,6.295582,8.937947,-1
484,485,1583935895638,1.6714,-3.1662,8.7895,1.3610175,7.691239,9.164296,-1
485,486,1583935895648,2.7625,-2.0153,9.0018,1.9588497,8.563398,9.168959,-1
486,487,1583935895658,3.2828998999999994,-0.9499,9.0081,2.0636294,9.575954,8.922472,-1
487,488,1583935895668,3.1130998,0.0014,8.8008995,1.8363048,10.288258,8.837256,-1
488,489,1583935895678,2.6255,0.6423,8.7696,1.0979521,11.051491,8.438976,-1
489,490,1583935895689,1.8615999,1.2563,8.4306,1.4321731000000002,11.698739999999999,7.7052402,-1
490,491,1583935895699,2.0231,1.9013,7.7201996,2.7110217,12.520736999999999,6.7410374000000015,-1
491,492,1583935895709,3.1137,2.7151,6.7574997,3.9843442000000002,13.365354,6.411356,-1
492,493,1583935895719,4.1798997,3.5519998,6.4171,4.487826,14.161329,6.7578735,-1
493,494,1583935895729,4.4725,4.3443,6.7170000000000005,4.309314,14.480535,6.850922,-1
494,495,1583935895740,4.0889997000000005,4.6705,6.7527,4.1538825,14.631206500000001,7.124024,-1
495,496,1583935895750,3.9891998999999996,5.1201,7.4862,4.644444999999999,14.975032,7.8712444,-1
496,497,1583935895760,4.1408,5.4790998,8.0588,4.9046082,15.255949,8.432292,-1
497,498,1583935895770,4.1408,5.4790998,8.0588,5.0643306,15.90156,8.816916,-1
498,499,1583935895780,4.1172,6.1454,8.3434,5.1417975,16.643015,8.67877,-1
499,500,1583935895790,3.3467,7.1896,7.1299996,4.5608582,16.918291,7.6873026,-1
500,501,1583935895801,1.9639,6.7485,4.9086,3.0381367000000004,16.367834,5.0135445999999995,-1
501,502,1583935895811,1.1665,6.2851,2.6316,2.5195236,15.923539000000002,2.6308064,-1
502,503,1583935895821,1.1904,6.0683,0.4766,2.728049,15.775865,0.6382366999999999,-1
503,504,1583935895831,1.6142,6.2086997,-0.2619,3.2260144,15.914660999999999,0.18055154,-1
504,505,1583935895842,1.8597,6.2752,-0.1582,3.5806148,15.951904999999998,0.35740644,-1
505,506,1583935895852,2.6162,6.5025,0.0587,4.632196400000001,16.22583,0.5921914,-1
506,507,1583935895862,3.8967998,6.7226,-0.4983,6.2738523,16.358202,-0.36839099999999997,-1
507,508,1583935895872,5.0962,6.6969,-1.8547,7.272856699999999,16.246161999999998,-1.5957164,-1
508,509,1583935895882,5.825,6.3339996,-3.6588,7.989729,15.710378,-3.613626,-1
509,510,1583935895893,5.7959,5.8187,-4.7219,7.5863633,15.133079,-4.1154895,-1
510,511,1583935895903,5.7959,5.8187,-4.7219,6.625436,14.554602,-4.2768489999999995,-1
511,512,1583935895913,3.5354,4.4098,-5.0815997,5.2880635,13.695523000000001,-4.449987999999999,-1
512,513,1583935895923,2.6675,3.7507,-5.4305,4.5221395,13.03005,-4.9433465,-1
513,514,1583935895933,2.0065,3.0389,-6.0375,3.7967440000000003,12.309012,-5.5746017,-1
514,515,1583935895943,1.2264,2.2749,-6.8308,3.024959,11.566321,-6.563292,-1
515,516,1583935895954,0.76299995,1.6463,-8.065,2.734954,11.039415,-8.039873,-1
516,517,1583935895964,0.746,1.2243,-9.544,2.8890355,10.636921000000001,-9.701995,-1
517,518,1583935895974,1.0737,0.9618,-10.6585,3.4146870000000002,10.494093,-10.316749,-1
518,519,1583935895984,1.7746998999999999,0.87909997,-10.882299,4.0441036,10.441305,-10.295967999999998,-1
519,520,1583935895994,2.3428,0.7107,-10.7092,4.353664,10.203437,-9.843597,-1
520,521,1583935896004,2.4723,0.52349997,-10.1257,4.475806700000001,10.006566000000001,-9.215053,-1
521,522,1583935896015,2.5584,0.28669998,-9.6299,4.335822599999999,9.731529,-8.741566,-1
522,523,1583935896025,2.2514,0.0187,-9.2085,3.766223,9.424142999999999,-8.466892999999999,-1
523,524,1583935896035,1.6597998999999999,-0.34989998,-9.0487995,3.2814449999999997,9.100887,-8.282655,-1
524,525,1583935896046,1.3381,-0.6322,-8.9036,2.8572881000000003,8.783569,-8.31352,-1
525,526,1583935896055,0.9984,-0.91539997,-8.9731,2.4968266,8.540673,-8.239175999999999,-1
526,527,1583935896065,0.5803,-1.2084,-8.7345,1.9929622,8.255666999999999,-7.889814,-1
527,528,1583935896075,0.1583,-1.4811,-8.3952,1.7708665000000001,8.037287,-7.649627000000001,-1
528,529,1583935896085,0.101399995,-1.6545,-8.2578,1.7528621,7.937133,-7.7327447,-1
529,530,1583935896096,0.114999995,-1.7679,-8.3309,1.7526897000000001,7.9205747,-7.74552,-1
530,531,1583935896106,0.1118,-1.7233,-8.2536,1.8183770000000001,7.9923053,-7.6426077,-1
531,532,1583935896116,0.3568,-1.6285,-8.0679,2.2412121,8.182079,-7.321095,-1
532,533,1583935896126,0.7619,-1.4246,-7.5678,2.4908414,8.299185000000001,-6.358405599999999,-1
533,534,1583935896136,0.8506,-1.3867999,-6.6284,2.364073,8.212916,-5.394605599999999,-1
534,535,1583935896146,0.7619,-1.4762,-5.6313996,2.4871254,8.192086999999999,-4.362092,-1
535,536,1583935896157,0.90529996,-1.4769999999999999,-4.579799700000001,2.6079943,8.259286999999999,-3.564382,-1
536,537,1583935896167,1.0058,-1.4088,-3.8019,2.6031868,8.232328,-3.1420927000000005,-1
537,538,1583935896177,0.95589995,-1.4580000000000002,-3.395,2.6710768,8.254633,-2.7592982999999998,-1
538,539,1583935896187,1.0589,-1.4182,-2.9081,2.7938897999999996,8.2320795,-2.261764,-1
539,540,1583935896197,1.1392,-1.4267,-2.2619,2.75496,8.321239,-1.3486633999999997,-1
540,541,1583935896207,1.0243,-1.3450999,-1.1874,2.4928522,8.313999,-0.56687033,-1
541,542,1583935896218,0.7339,-1.3539,-0.4393,1.9162519,8.310369999999999,-0.24937047,-1
542,543,1583935896228,0.2078,-1.36,-0.1139,1.6932561000000002,8.402739,-0.32421324,-1
543,544,1583935896238,0.0087,-1.1868,-0.0954,2.5512996,9.09427,-0.6346933000000001,-1
544,545,1583935896248,0.77459997,-0.55799997,-0.2478,3.6357867999999995,9.617642,-0.8355189000000001,-1
545,546,1583935896259,2.0936,0.1237,-0.2969,5.110711,10.293603,0.008657433,-1
546,547,1583935896269,3.221,0.6696,0.5772,5.3342624,10.457825999999999,1.5005898000000002,-1
547,548,1583935896279,2.9029,0.99079996,4.3810997,4.877908000000001,10.581625,3.6911216000000002,-1
548,549,1583935896289,2.009,1.0596,6.223099700000001,4.019357,10.640397,5.4811416,-1
549,550,1583935896300,1.6452999,1.3151,7.2812,3.6815546,10.885277,6.489512400000001,-1
550,551,1583935896310,2.0649,1.5926,7.4147,4.155903299999999,11.151359,6.5809803,-1
551,552,1583935896320,3.0577998,1.755,7.2792997,5.439588,11.300833,6.414171700000001,-1
552,553,1583935896330,4.1012,1.8001,7.5259,6.307361,11.326336,6.6515803,-1
553,554,1583935896340,4.796,1.8533,7.8188996,7.064379,11.36088,6.9376974,-1
554,555,1583935896350,4.8784,1.8737999,7.444,7.11303,11.358122,6.434896,-1
555,556,1583935896361,4.218899700000001,1.7912999,6.7812996,6.342039,11.269172,5.7957206,-1
556,557,1583935896371,2.9663,1.5956999,6.2058,4.988099,11.031246000000001,5.1402364,-1
557,558,1583935896381,1.4083999,1.3081,5.3037,3.4229808,10.753547,4.1427064,-1
558,559,1583935896391,0.11199999599999999,0.9209,3.8909,2.1886832999999997,10.341592,2.6417527,-1
559,560,1583935896401,-0.6423,0.60289997,2.4859,1.5185847,10.048647,1.3292511999999999,-1
560,561,1583935896411,-1.0792999,0.3058,1.6134,1.1325053,9.778742999999999,0.5966734,-1
561,562,1583935896422,-1.1123999,0.1373,1.3156999,1.2451955,9.6272,0.44761038,-1
562,563,1583935896432,-0.59319997,0.0295,1.5485,1.9190964,9.515525,1.0413245,-1
563,564,1583935896442,0.0823,-0.0177,2.6022,2.6331717999999995,9.497023,2.4958882,-1
564,565,1583935896452,0.5965,-0.0241,3.8789999999999996,3.2222412,9.512537,3.8183591,-1
565,566,1583935896462,1.0917,0.039499998,4.9005,3.6450953,9.557633000000001,4.7273226,-1
566,567,1583935896473,1.1913999,0.0055,5.2682,3.530442,9.426202,4.9107184,-1
567,568,1583935896484,0.7644,-0.1768,4.9783,3.0669916,9.246244,4.3530703,-1
568,569,1583935896494,0.2631,-0.3416,4.285599700000001,2.5226555,9.098196000000002,3.6383536,-1
569,570,1583935896504,-0.3441,-0.49859998,3.1415,1.8683679,8.881808,2.1830716,-1
570,571,1583935896514,-0.7787,-0.627,2.0242,1.6016923,8.861956,1.3969401000000001,-1
571,572,1583935896524,-0.9695,-0.6271,1.2609,1.5239573,8.894382,0.6094967,-1
572,573,1583935896534,-0.9223,-0.5566,0.7787,1.6992607,9.010616,0.30367097,-1
573,574,1583935896545,-0.72819996,-0.4152,0.581,1.9168458,9.127588000000001,-0.060180653,-1
574,575,1583935896555,-0.5333,-0.3108,0.1873,2.1690794999999996,9.325453999999999,-0.47319004,-1
575,576,1583935896565,-0.22749999,-0.0677,-0.2049,2.5423167,9.532629,-0.93366206,-1
576,577,1583935896575,0.114199996,0.1369,-0.7014,2.8379814999999997,9.689009,-1.3792229999999999,-1
577,578,1583935896585,0.3394,0.27249998,-1.0461,3.013419,9.765842999999998,-1.4569579,d
578,579,1583935896595,0.38279998,0.32819998,-0.9241,2.9724493,9.75574,-1.1493222,-1
579,580,1583935896606,0.2751,0.2941,-0.5987,2.8334134,9.712022,-0.8423185,-1
580,581,1583935896617,0.1328,0.25869998,-0.4206,2.6849442000000003,9.609397,-0.67624706,-1
581,582,1583935896627,-0.0063,0.1637,-0.2699,2.6357193,9.528971,-0.68653256,-1
582,583,1583935896637,-0.0844,0.0682,-0.3017,2.4813888,9.457671000000001,-0.6704818,-1
583,584,1583935896647,-0.2395,0.0116,-0.27339998,2.3684304,9.395316000000001,-0.6874998000000001,-1
584,585,1583935896657,-0.3556,-0.0252,-0.3126,2.3690817,9.442981,-0.89662856,-1
585,586,1583935896667,-0.2969,0.0169,-0.5664,2.6652062,9.494341,-1.1431451000000001,-1
586,587,1583935896678,-0.015199998999999999,0.0695,-0.75369996,2.8473667999999996,9.507863,-1.0948876,-1
587,588,1583935896688,0.1094,0.063099995,-0.6803,2.725818,9.364709,-0.86226696,-1
588,589,1583935896698,-0.0775,-0.0616,-0.4057,2.6122463,9.327331,-0.44996628,-1
589,590,1583935896708,-0.1556,-0.0887,-0.024899999,2.4428327000000003,9.258636,-0.20975122,-1
590,591,1583935896718,-0.3218,-0.155,0.1514,2.2234279999999997,9.32532,-0.057939682,-1
591,592,1583935896728,-0.55649996,-0.0839,0.29279998,2.1684477,9.444724,-0.11207737,-1
592,593,1583935896738,-0.59599996,0.066199996,0.1968,2.4968076,9.667202,-0.37271017,-1
593,594,1583935896748,-0.3141,0.2663,-0.0084,2.6538866000000003,9.92976,-0.33469984,-1
594,595,1583935896758,-0.152,0.6242,0.0835,2.6845033,10.449216,0.086219996,-1
595,596,1583935896768,-0.14,1.1887,0.5814,3.1282449,11.391688,0.83051986,-1
596,597,1583935896778,0.2687,2.0094,1.1865,3.5905937999999993,12.260352000000001,1.2980883,-1
597,598,1583935896788,0.7999,3.1060000000000003,1.7633,3.7448761,13.563038,1.9910755,-1
598,599,1583935896799,0.8346,4.1916,2.3257,3.2968733,14.773278,2.6097562,-1
599,600,1583935896809,0.3718,5.401,2.9322999,3.256545,15.825807999999999,3.0137732,-1
600,601,1583935896819,0.3417,6.4603,3.3342,4.4268503,16.992145999999998,3.2007222,-1
601,602,1583935896829,4.2128,8.837,3.5988,7.151921000000001,18.198988,3.2886276,-1
602,603,1583935896840,6.8227,9.5667,3.8172,9.771398,18.933289000000002,3.5600343,-1
603,604,1583935896850,7.8016996,9.4765,4.8293,10.748299000000001,18.740547,4.995502,-1
604,605,1583935896860,7.4340997,8.7583,6.3251995999999995,10.357489999999999,18.130523999999998,6.3072175999999995,-1
605,606,1583935896870,6.7833,7.9217997,7.3329,9.450852000000001,17.134892,7.5334509999999995,-1
606,607,1583935896880,5.8489,6.9279,7.3602996,8.321154,16.17879,7.470790400000001,-1
607,608,1583935896890,4.6474,5.9052,6.6661,6.9319224,15.167067000000001,6.6662526,-1
608,609,1583935896900,3.3281,4.8276,5.625499700000001,5.43456,14.150889999999999,5.606713,-1
609,610,1583935896910,1.8700999,3.7981,4.6015,4.0638413,13.360172,4.707987,-1
610,611,1583935896920,0.3663,2.7138999,3.2751,2.3642359,12.329583,3.2771928,-1
611,612,1583935896930,-0.3383,2.0795999,1.9626,1.3611514999999998,11.617538,1.5937625,-1
612,613,1583935896940,-0.2351,1.5725,0.9421,1.590382,11.222513000000001,0.51481086,-1
613,614,1583935896951,0.93789995,1.3481,0.1334,2.4422965,11.050611,-0.22100396,-1
614,615,1583935896962,1.8263999,0.9518,-0.8165,3.2192342000000003,10.659896,-1.2607962,-1
615,616,1583935896973,2.2352,0.4691,-1.4611,3.5734515,9.947496000000001,-2.1303222,-1
616,617,1583935896983,2.3874,-0.0525,-1.8457999,3.4776354,9.458236999999999,-2.4694946,-1
617,618,1583935896993,2.162,-0.6627,-1.915,3.0236278,8.821925,-2.3525424,-1
618,619,1583935897003,1.6594,-1.3319,-1.5746,2.4018056,8.161355,-1.8277814,-1
619,620,1583935897013,1.3556,-1.9512999,-0.8376,2.1167808,7.4659059999999995,-1.0152565,-1
620,621,1583935897024,1.3124,-2.5197,-0.3442,1.9637050999999999,6.933196000000001,-0.6377387,-1
621,622,1583935897034,1.2422,-3.0469,-0.0224,1.7768423999999998,6.389673999999999,-0.49262136,-1
622,623,1583935897044,1.1718998999999999,-3.6309,-0.036599997,1.7318411,5.9964123,-0.6346837,-1
623,624,1583935897054,1.4832,-3.9383,-0.4131,2.2137651000000003,5.734189499999999,-1.4740908000000001,-1
624,625,1583935897064,1.9146999,-4.146,-1.3192999,2.197906,5.4879794,-2.3542473,-1
625,626,1583935897075,1.7601999,-4.3627,-1.9848,1.8328955000000002,5.372694,-2.7684824,-1
626,627,1583935897085,1.4571999,-4.4804997,-2.2368,1.3050985000000002,5.2090073,-2.9246802000000005,-1
627,628,1583935897095,0.87899995,-4.6464,-2.2897,0.2611212,5.0712066,-2.9350615,-1
628,629,1583935897106,0.0536,-4.7422,-2.25,0.057001155,5.048873400000001,-2.9408939999999997,-1
629,630,1583935897116,-0.7693,-4.8559,-2.3418,-1.1937202,4.86316,-3.2698667,-1
630,631,1583935897127,-1.3219999,-4.9578,-2.6222,-1.7994821,4.846487000000001,-3.6290063999999997,-1
631,632,1583935897137,-1.5210999,-4.9012,-2.9161,-1.7507168999999998,4.958507,-4.1786766,-1
632,633,1583935897147,-1.2615,-4.7749,-3.3843,-1.2632669,5.2026386,-4.794255000000001,-1
633,634,1583935897157,-0.66099995,-4.4916,-3.9441,-0.7576212,5.551148,-5.335354,-1
634,635,1583935897167,-0.16659999,-4.0912,-4.4062,-0.654613,5.9770765,-5.579649,-1
635,636,1583935897178,-0.0576,-3.6822,-4.5403,-0.7704349,6.293533,-5.489186,-1
636,637,1583935897187,-0.1549,-3.4022,-4.3587,-1.0518398000000002,6.463425,-5.031511,-1
637,638,1583935897197,-0.36049998,-3.2609,-3.9192998,-1.330343,6.451683999999999,-4.636812,-1
638,639,1583935897207,-0.5512,-3.2665,-3.5200998999999995,-1.3172514,6.5003724,-4.232671,-1
639,640,1583935897217,-0.44869998,-3.1971998,-3.1304998,-1.1807245000000002,6.6392937000000005,-3.9224877,-1
640,641,1583935897228,-0.2926,-3.0502,-2.8892,-1.0863353999999998,6.853469400000001,-3.7717294999999997,-1
641,642,1583935897238,-0.1643,-2.8456,-2.7635999,-1.2000122,6.977709299999999,-3.4212663,-1
642,643,1583935897248,-0.33499998,-2.7401,-2.4017,-1.5197531000000002,7.090619599999999,-2.7013013,-1
643,644,1583935897258,-0.6344,-2.6251,-1.7034999,-1.7218428,7.0968356,-2.0623653,-1
644,645,1583935897268,-0.7786,-2.6473,-1.1724,-1.8376552,7.1569777000000006,-1.5990872,-1
645,646,1583935897278,-0.8375,-2.5807,-0.8616,-1.8046343,7.1396723,-1.5026298,-1
646,647,1583935897289,-0.56589997,-2.4264,-0.8885,-1.5893667999999999,7.313654400000001,-1.5440207000000001,-1
647,648,1583935897299,-0.0502,-2.0742,-0.9982,-1.0726407,7.666119,-1.6427479,-1
648,649,1583935897309,-0.0502,-2.0742,-0.9982,-0.64809126,7.9211016,-1.7098335,-1
649,650,1583935897319,0.2857,-1.7114999,-1.1294999,-0.7551694999999999,8.030622,-1.7464456999999998,-1
650,651,1583935897329,-0.1055,-1.7012999,-0.93509996,-1.1512662,8.039346,-1.539012,-1
651,652,1583935897339,-0.4867,-1.8872999,-0.7434,-1.5428523,7.8606240000000005,-1.3324115,-1
652,653,1583935897350,-0.4867,-1.8872999,-0.7434,-1.8848784,7.878274,-0.9944076999999999,-1
653,654,1583935897360,-0.8131,-1.8678,-0.415,-1.7900393,8.105771,-0.92931414,-1
654,655,1583935897370,-0.2347,-1.3307999,-0.69269997,-1.2986534,8.411693,-1.2529528,-1
655,656,1583935897380,-0.031999997999999995,-1.1759,-0.95879996,-1.0796031000000001,8.562643,-1.5018635,-1
656,657,1583935897390,-0.2224,-1.2372,-0.92829996,-1.25709,8.511655000000001,-1.451863,d
657,658,1583935897400,-0.4446,-1.1815,-0.3883,-1.4612195,8.570724499999999,-0.88775086,-1
658,659,1583935897410,-0.48499998,-1.0873,0.2138,-1.4828153,8.670199,-0.24188142,-1
659,660,1583935897421,-0.34399998,-0.8953,0.6394,-1.3189753,8.867338,0.23674825,-1
660,661,1583935897431,-0.0786,-0.6149,0.81659997,-0.9713468000000001,9.214507000000001,0.45427582,-1
661,662,1583935897441,0.15779999,-0.3926,0.7112,-0.74756557,9.373634,0.3525127,-1
662,663,1583935897451,0.48709998,-0.2184,0.3649,-0.36496252,9.57853,-0.07433517,-1
663,664,1583935897461,0.55869997,-0.19999999,0.039699998,-0.30767408,9.580753,-0.38243064,-1
664,665,1583935897472,0.5203,-0.1413,-0.043899997999999996,-0.39696825,9.624231,-0.4592366,-1
665,666,1583935897482,0.3211,-0.15079999,-0.0075999996999999994,-0.6562028,9.671636999999999,-0.39703524,-1
666,667,1583935897492,0.0371,-0.0323,0.0488,-0.86826205,9.74601,-0.37632063,-1
667,668,1583935897502,-0.2173,0.037000000000000005,-0.0028,-1.1993706,9.811630000000001,-0.5299805000000001,-1
668,669,1583935897513,-0.4748,0.0865,-0.1642,-1.3907152,9.908710000000001,-0.63083386,-1
669,670,1583935897523,-0.56259996,0.2039,-0.17359999,-1.3469204,9.982739,-0.6552164,-1
670,671,1583935897534,-0.33519998,0.2713,-0.1686,-1.0406734,10.1126,-0.60287917,-1
671,672,1583935897544,-0.0665,0.45549998,-0.0111,-0.757286,10.286151,-0.34700602,-1
672,673,1583935897555,0.1399,0.6002,0.35959998,-0.55159533,10.511628,0.114835486,-1
673,674,1583935897565,0.2977,0.853,0.7127,-0.26116910000000004,10.816869,0.40456262,-1
674,675,1583935897575,0.5661,1.1259999,0.9363,-0.032762256000000003,11.081525,0.62633276,-1
675,676,1583935897585,0.6753,1.3611,1.2113,-0.16258545,11.096855999999999,0.74162793,-1
676,677,1583935897596,0.42200000000000004,1.3132,1.2354,-0.40467754,11.225023,0.6711905,-1
677,678,1583935897605,0.2818,1.4825,1.1854,-0.39324284,11.367824,0.27018088,-1
678,679,1583935897615,0.3658,1.6919999,0.5812,-0.10444465,11.603278,-0.7800309,-1
679,680,1583935897625,0.7091,1.9219998999999999,-0.57089996,0.25762567,11.784806,-2.1279762000000004,-1
680,681,1583935897635,0.95739996,2.0737997999999997,-1.9174999,0.41886082,11.897152,-3.5741887,-1
681,682,1583935897645,1.1909,2.1762,-3.1929998,0.9072492,12.023336,-4.5178394,-1
682,683,1583935897656,1.7759,2.3466,-3.6752,1.5855361000000001,12.226288,-4.4804325,-1
683,684,1583935897666,2.3868,2.5266,-3.324,1.9869767,12.405114999999999,-3.9597892999999997,-1
684,685,1583935897676,2.5976999,2.7366,-2.8007,2.048508,12.5608635,-3.8353194999999998,-1
685,686,1583935897686,2.7224998,2.8302,-2.9803,2.268535,12.565297,-4.506836,-1
686,687,1583935897696,2.9747,2.847,-3.7991,2.5752606,12.589651,-5.589886,-1
687,688,1583935897706,3.3263998,2.8362,-4.8564997000000005,2.7851652999999996,12.43918,-6.719145,-1
688,689,1583935897717,3.4687,2.6114,-5.874399700000001,2.6778188,11.979637,-7.658303999999999,-1
689,690,1583935897727,3.3549,2.1617,-6.4806,2.299372,11.317677999999999,-8.026399000000001,-1
690,691,1583935897737,3.0033998,1.4663,-6.742999999999999,1.6437439999999999,10.518504,-8.009783,-1
691,692,1583935897748,2.4094,0.6616,-6.6288,1.04369,9.699542999999998,-7.651064,-1
692,693,1583935897758,1.9681,-0.1354,-6.2272997000000005,0.7779815,9.083764,-7.121237,-1
693,694,1583935897768,1.8304,-0.85609996,-5.5452,0.5468548000000001,8.191953,-6.042055,-1
694,695,1583935897778,1.7497,-1.4799,-4.8413,0.38261259999999997,7.6834335000000005,-5.487500700000001,-1
695,696,1583935897789,1.6583999,-2.1037,-4.2560997,0.21532492,7.0841270000000005,-4.9791636,-1
696,697,1583935897799,1.4951,-3.2401,-3.5168998,-0.016539145,6.415685,-4.4819837,-1
697,698,1583935897809,1.4951,-3.2401,-3.5168998,-0.37428075,5.8646064,-4.0161104,-1
698,699,1583935897820,0.8545,-4.2694,-2.5951998,-0.8617115,5.3719187,-3.4223487,-1
699,700,1583935897830,0.8545,-4.2694,-2.5951998,-1.4059231,4.73575,-2.7141627999999995,-1
700,701,1583935897840,-0.2421,-5.5924,-1.1226,-2.3380241,3.862537,-1.6369061000000003,-1
701,702,1583935897850,-1.0554,-6.2806,-0.2852,-3.289432,3.1755736,-0.73826647,-1
702,703,1583935897860,-1.0554,-6.2806,-0.2852,-3.938912,2.6678302000000005,-0.17586848,-1
703,704,1583935897871,-2.2115998,-7.3174,0.7495,-4.4602637000000005,2.1594837000000005,0.33364636,-1
704,705,1583935897881,-2.2087,-7.5825,0.9009,-4.4142660000000005,1.9013121,0.47536394,-1
705,706,1583935897891,-1.8124,-7.8145,0.8998,-4.022048000000001,1.7227238,0.5580022,-1
706,707,1583935897901,-1.3924999,-7.8167995999999995,1.1154,-3.5814862,1.7307491999999998,0.8673044,-1
707,708,1583935897912,-0.9439,-7.8629999999999995,1.5727999,-3.1318169,1.7000843,1.4256608,-1
708,709,1583935897922,-0.9439,-7.8629999999999995,1.5727999,-2.8754458,1.8600265999999999,2.0712717,-1
709,710,1583935897932,-0.6716,-7.7030997,2.2536,-2.6943579,2.0874565,3.3338970000000003,-1
710,711,1583935897942,-0.6191,-7.2703,4.4419,-2.8281843999999996,2.5308723,5.030294400000001,-1
711,712,1583935897952,-0.7226,-6.7356,6.2226,-2.7009562999999996,3.0370257,6.815488,-1
712,713,1583935897963,-0.5129,-6.2412996,7.845,-2.407973,3.6914184000000003,8.399242,-1
713,714,1583935897973,-0.3631,-5.2971997,8.7549,-2.2085457,4.787751999999999,8.957341,-1
714,715,1583935897983,-0.23249999,-4.2464,8.8706,-1.8229738000000002,5.8090997,8.943750999999999,-1
715,716,1583935897993,0.3126,-3.0783,8.8624,-1.0805128000000002,7.172817,9.01168,-1
716,717,1583935898003,1.0196,-1.7335999,9.171599,-0.41834366,8.184215,9.363063,-1
717,718,1583935898014,1.5396,-0.6818,9.8871,0.20654299999999998,9.403485,10.209766,-1
718,719,1583935898024,1.6673,0.1848,10.4279995,0.41907150000000004,10.266931,10.552280999999999,-1
719,720,1583935898034,1.8081,0.797,10.6445,0.8196502,11.036456,10.609186,-1
720,721,1583935898044,2.0907,1.6737,10.514299000000001,1.1827356000000002,11.820566,10.288095,-1
721,722,1583935898054,2.5318,2.5895,10.1823,1.8328093,12.713489,10.049671,-1
722,723,1583935898064,3.1058,3.4278998,9.9876995,2.6724367,13.67409,9.552358,-1
723,724,1583935898075,3.5746998999999997,4.141,9.3755,3.280468,14.273905,8.977807,-1
724,725,1583935898085,3.9757998,4.6804,8.831099499999999,3.7439663,14.688158999999999,8.369019,-1
725,726,1583935898095,4.1693,4.9877,8.2112,3.9306949999999996,14.933248999999998,7.693547,-1
726,727,1583935898106,4.1493998,5.2587,7.4596995999999995,4.145886,15.274920000000002,6.6842856,-1
727,728,1583935898116,4.2984,5.5811,6.3332,4.4372025,15.514762,5.466278599999999,-1
728,729,1583935898126,4.4109,5.8073,5.1815,4.380843,15.864670000000002,4.2542667000000005,-1
729,730,1583935898136,4.1172,6.1033998,4.205899700000001,4.1239934,15.952164000000002,3.2797690000000004,-1
730,731,1583935898146,3.6924,6.1355,3.0307,3.6318602999999996,15.873251000000002,2.0319971999999997,-1
731,732,1583935898157,3.1561,6.0204997,2.0832,3.1765022000000003,15.614973999999998,1.3943161,-1
732,733,1583935898167,2.5275,5.6308,1.3434,2.5314183,15.045882,0.68243366,-1
733,734,1583935898177,1.9691,5.1524,0.83339995,2.2372665,14.519042,0.25316289999999997,-1
734,735,1583935898187,1.7106999,4.6347,0.3998,2.2896229999999997,14.282964999999999,0.0072783735,-1
735,736,1583935898198,1.7572,4.4604,0.212,2.4615266,14.067831,-0.36166809999999994,-1
736,737,1583935898208,1.8757999,4.2095,-0.2366,2.7260668,13.781092000000001,-1.1364508999999998,-1
737,738,1583935898218,2.1729998999999998,3.9459,-1.0961,3.2371619,13.627815,-2.212271,-1
738,739,1583935898228,2.6452,3.8016998999999996,-2.1669,3.6838434,13.4129305,-3.3460019999999995,-1
739,740,1583935898238,3.0305,3.5786998,-3.2895,3.640786,12.862446,-4.533086,-1
740,741,1583935898249,2.9338,3.08,-4.2139997000000005,3.151775,12.354809,-4.8680634000000005,-1
741,742,1583935898259,1.6492,2.0193,-4.2760997000000005,2.3250092999999996,11.804765,-4.627341,-1
742,743,1583935898269,1.6492,2.0193,-4.2760997000000005,1.8044523999999997,11.47131,-4.4997873,-1
743,744,1583935898279,0.8666,1.3682,-4.4228997,1.4292905,11.125999,-4.8953667,-1
744,745,1583935898290,0.72139996,1.1805999,-5.0645,1.2724512,10.931761999999999,-5.6257515,-1
745,746,1583935898300,0.64059997,1.0131,-5.9002,1.1842966000000001,10.806191,-6.308683,-1
746,747,1583935898310,0.58629996,0.8653,-6.5325,1.1099518999999998,10.663966,-6.957435,-1
747,748,1583935898320,0.6685,0.75659996,-6.7794,1.1656698,10.545021,-7.210196000000001,-1
748,749,1583935898330,0.8113,0.5494,-6.6526,1.3221261999999998,10.226593,-7.0086710000000005,-1
749,750,1583935898340,0.8305,0.116299994,-6.2967,1.2462872999999999,9.831722000000001,-6.6035914,-1
750,751,1583935898350,0.83339995,-0.2285,-6.1275,1.3033843,9.464068,-6.597405,-1
751,752,1583935898361,1.101,-0.524,-6.4417995999999995,1.5293586000000001,9.246091,-6.932947,-1
752,753,1583935898371,1.101,-0.524,-6.4417995999999995,1.8215756,9.134032000000001,-7.261537,-1
753,754,1583935898381,1.7742,-0.88839996,-7.101,2.1149322999999995,8.870038000000001,-7.530272,-1
754,755,1583935898392,1.7742,-0.88839996,-7.101,2.1366047999999997,8.824798,-7.535261,-1
755,756,1583935898401,1.9192,-1.1244,-7.0327997,2.1440938,8.4011965,-7.200408,-1
756,757,1583935898411,1.7858,-1.6452999,-6.565,1.9111571,8.094451,-6.987860700000001,-1
757,758,1583935898421,1.6156,-1.8709999,-6.4224,1.7707611,7.906774499999999,-6.873533,-1
758,759,1583935898431,1.7881,-2.0175,-6.3992,1.9381733,7.7716174,-6.912175,-1
759,760,1583935898441,1.9605999,-2.1045,-6.4270997,2.0102484,7.681240600000001,-6.967060000000001,-1
760,761,1583935898452,1.989,-2.2007,-6.3915,1.9660418999999998,7.5799656,-6.9392776,-1
761,762,1583935898462,1.6781,-2.3553,-6.3244996,1.3695121000000001,7.386323,-6.876157000000001,-1
762,763,1583935898472,0.9784,-2.49,-6.2011,0.5587970999999999,7.215702499999999,-6.8281484,-1
763,764,1583935898482,0.2963,-2.6934,-6.212999999999999,-0.07950665,7.0114,-6.86205,-1
764,765,1583935898492,-0.1002,-2.8681997999999997,-6.0525,-0.43153092,6.886634,-6.5660405,-1
765,766,1583935898502,-0.3324,-2.9757,-5.5476,-0.6210941999999999,6.760124,-5.9587083,-1
766,767,1583935898513,-0.3326,-3.1238,-4.9227,-0.5586534000000001,6.630760700000001,-5.3195043,-1
767,768,1583935898523,-0.17899999,-3.2533,-4.3401,-0.35391090000000003,6.446264,-4.7240663,-1
768,769,1583935898533,0.110999994,-3.4129,-3.7847,-0.10150458,6.3854413,-4.236089700000001,-1
769,770,1583935898544,0.3436,-3.3274998999999994,-3.1833,0.266331,6.5487833,-3.5107519999999997,-1
770,771,1583935898553,0.6688,-3.1634998,-2.8365,0.5935226,6.6918416,-3.2045527000000003,-1
771,772,1583935898563,0.92319995,-3.0286,-2.5860999,0.7662882,6.818399,-2.9357414,-1
772,773,1583935898573,0.86399996,-3.0112,-2.5605,0.5285919,6.769749000000001,-3.0222678,-1
773,774,1583935898583,0.40309998,-3.0916,-2.7517998,0.07815632,6.725944999999999,-3.125372,-1
774,775,1583935898593,0.1356,-3.0935,-2.7301998,-0.0025378538,6.7039657,-2.8857985,-1
775,776,1583935898604,0.26389998,-3.1246998,-2.3009999,0.27126306,6.636143,-2.2006161,-1
776,777,1583935898614,0.41459998,-3.3421,-1.3713,0.24490768,6.2086053,-0.8737878000000001,-1
777,778,1583935898624,0.1874,-3.7454998,-0.25869998,0.042300752999999996,5.840521,0.40983945,-1
778,779,1583935898634,-0.0079,-4.1089,0.8818,0.083461866,5.58121,1.4611048,-1
779,780,1583935898645,0.16049999,-4.285,1.7556,0.42935696,5.457104,2.4269927000000004,-1
780,781,1583935898655,0.3909,-4.46,2.705,0.61270493,5.2536062999999995,3.582128,-1
781,782,1583935898665,0.4811,-4.6047997,3.7774,0.8632820999999999,5.1556835,4.3513947,-1
782,783,1583935898675,0.792,-4.71,4.2646,1.5355357,5.0906663,4.789811,-1
783,784,1583935898685,1.4577,-4.7068,4.683,2.124308,5.0972266,5.2338977,-1
784,785,1583935898695,1.8512,-4.7324,5.1106,2.4888779999999997,5.0027323,5.715343,-1
785,786,1583935898706,2.0014,-4.8352,5.6266,2.641427,4.975534,6.448907,-1
786,787,1583935898716,2.0923998,-4.8479,6.5186,2.8853385,4.866406400000001,7.365991,-1
787,788,1583935898726,2.3086,-4.9662,7.4041996,3.3903716,4.9119825,8.462603,-1
788,789,1583935898736,2.7876,-4.7288,8.592999,4.1892495,5.286541000000001,10.057983,-1
789,790,1583935898746,3.2709,-4.4305,9.9354,4.440593,5.4655027,11.406638000000001,-1
790,791,1583935898756,3.2680000000000002,-4.2393,11.2241,4.3653483,5.6638193,12.326106,-1
791,792,1583935898767,3.1072,-3.9996,12.0296,4.36394,6.1190434,12.477775,-1
792,793,1583935898777,2.9334998,-3.5054998,12.0582,4.0735908,6.476344,11.778399,-1
793,794,1583935898787,2.5093,-3.1583997999999998,11.3674,4.030524,7.037315400000001,11.02435,-1
794,795,1583935898797,2.5037,-2.5245,10.7174,4.787283,7.678654700000001,10.016564,-1
795,796,1583935898807,3.2595,-1.8562,9.7678995,6.085275,8.459356,8.871972999999999,-1
796,797,1583935898818,4.4899,-0.9855,8.777999999999999,7.161105,9.25607,8.109794,-1
797,798,1583935898828,5.2686996,-0.21759999,8.1763,7.6928573,9.945561,7.839995399999999,-1
798,799,1583935898838,5.555,0.5531,8.0927,7.741842699999999,10.697371,7.8981075,-1
799,800,1583935898848,5.3616,1.2571,8.1263,7.569565299999999,11.10243,7.7411823,-1
800,801,1583935898858,5.0235,1.9038,7.9045997,7.7943525,12.222686999999999,7.223306699999999,-1
801,802,1583935898869,5.1375,2.7779999,7.4876,8.125758,13.054135,6.3952193,-1
802,803,1583935898879,5.3336997,3.6536,6.6426,7.9159107,13.603260999999998,5.4934,-1
803,804,1583935898889,4.9807997,4.2341,5.7181997,7.275213000000001,13.929723999999998,4.9937687,-1
804,805,1583935898899,4.2187,4.5968,5.1826,6.97318,14.068023,4.5766506,-1
805,806,1583935898909,3.7968998,4.7725,4.7114,6.9499655,14.201735000000001,4.2723474999999995,-1
806,807,1583935898919,3.6618,4.9491997,4.3547997,7.272454700000001,14.492372,3.8799665,-1
807,808,1583935898929,3.8701,5.2847,3.8923997999999997,7.976723700000001,14.763663000000001,3.3350654000000004,-1
808,809,1583935898939,4.9521,5.8219,2.6576998,8.578358,14.946273999999999,2.794924,-1
809,810,1583935898949,5.2082,5.9308996,2.0456998,8.927442,15.014269,2.2508847999999997,-1
810,811,1583935898959,5.3719,5.9273,1.5639,9.176582000000002,14.976144,1.8447611000000002,-1
811,812,1583935898970,5.2209,5.7893,1.0687,9.091416,14.810245000000002,1.4143316000000001,-1
812,813,1583935898980,5.2209,5.7893,1.0687,8.822566,14.467807,0.9729556999999999,-1
813,814,1583935898990,4.1215997,5.014199700000001,-0.1149,8.047725999999999,14.010342000000001,0.30502132,-1
814,815,1583935899000,3.247,4.6328,-0.9447,7.032642,13.554151000000001,-0.74235576,-1
815,816,1583935899012,2.5758,4.3947997,-2.0283,6.397345,13.344370000000001,-1.8501720000000001,-1
816,817,1583935899021,2.1299,4.2257,-3.2803998,5.99239,13.163369,-3.1602695,-1
817,818,1583935899031,1.9538,3.9022,-4.5032,5.873695,12.891292,-4.101238700000001,-1
818,819,1583935899041,2.1657,3.7087,-5.6313,6.1142072999999995,12.645703999999999,-5.4143243,-1
819,820,1583935899051,2.2814,3.4266,-6.5817,6.216334,12.356139,-6.2583,-1
820,821,1583935899061,2.1713,3.0914998,-7.1717997,6.0351696,11.998648,-6.751821499999999,-1
821,822,1583935899072,1.8294,2.6232998,-7.3903,5.606559799999999,11.519509,-6.861542699999999,-1
822,823,1583935899082,1.0504,2.0516,-7.2225,4.4903636,10.823142,-6.4675145,-1
823,824,1583935899092,0.0471,1.4273,-6.7135997000000005,3.5906417,10.274401,-5.904283,-1
824,825,1583935899102,-0.61,0.9305,-6.1945,2.9097595000000003,9.83992,-5.2930150000000005,-1
825,826,1583935899113,-0.61,0.9305,-6.1945,2.5947592,9.573186999999999,-4.9113407,-1
826,827,1583935899123,-1.0856,0.35689998,-5.5309,2.6945207000000004,9.373089,-4.610323,-1
827,828,1583935899133,-0.8103,0.261,-5.1889,2.9345345000000003,9.270253,-4.1895657,-1
828,829,1583935899143,-0.45229998,0.1173,-4.882,3.3570921,9.162457,-3.9977517,-1
829,830,1583935899153,0.0115,0.041699997999999995,-4.9709997,3.7038107000000005,9.0757,-4.11751,-1
830,831,1583935899164,0.1056,-0.0951,-4.9477997,3.6325593,8.944116000000001,-3.9590902000000003,-1
831,832,1583935899174,-0.1091,-0.26459998,-4.686,3.3347877999999995,8.743778,-3.7135696000000005,-1
832,833,1583935899184,-0.2821,-0.48529997,-4.4586,3.1811087000000002,8.574191,-3.4910336,-1
833,834,1583935899194,-0.3087,-0.6282,-4.1513,3.2423909,8.495997000000001,-3.2215612,-1
834,835,1583935899204,-0.0707,-0.6196,-3.8701,3.439692,8.523117999999998,-2.8753405,d
835,836,1583935899215,-0.0034999999,-0.61869997,-3.4429998,3.3538647000000004,8.509386,-2.446491,-1
836,837,1583935899225,-0.118599996,-0.75159997,-3.0393,3.1864526,8.329599,-2.1362984,-1
837,838,1583935899235,-0.2232,-0.93369997,-2.7015,3.051343,8.1865225,-1.8461593,-1
838,839,1583935899245,-0.35819998,-1.0763,-2.3472,2.7331345000000002,8.022395,-1.5135471999999999,-1
839,840,1583935899255,-0.8175,-1.2775999,-1.8959999,2.1449175,7.9403605,-1.1269987,-1
840,841,1583935899265,-1.2023,-1.2519,-1.5444,2.2759569,8.141425,-1.1016966000000001,-1
841,842,1583935899276,-0.6854,-1.0066,-1.7249,3.0043497,8.392501,-1.7352216,-1
842,843,1583935899286,-0.08,-0.8063,-2.3378,3.3445084,8.504893,-2.1961915000000003,-1
843,844,1583935899296,0.1586,-0.7507,-2.5033998,3.4822419,8.51336,-2.2565255,-1
844,845,1583935899306,0.26749998,-0.7719,-2.6303,3.5732407999999998,8.436784,-2.5266395,-1
845,846,1583935899316,0.3333,-0.7909,-2.7134,3.4474974,8.604244,-1.9884421,-1
846,847,1583935899326,0.1396,-0.6408,-2.0702,3.1790497,8.680178999999999,-1.0901087999999999,-1
847,848,1583935899337,-0.1171,-0.5571,-1.2085,3.1362798,8.734632000000001,-0.36747164,-1
848,849,1583935899347,-0.1143,-0.49049997,-0.6051,3.3514035000000004,8.826138499999999,0.13377841,-1
849,850,1583935899357,0.0802,-0.38259998,-0.1999,3.3539126000000006,8.823198,0.45600924,-1
850,851,1583935899367,-0.02,-0.4116,0.062699996,3.0615616,8.821877,0.947127,-1
851,852,1583935899378,-0.3346,-0.38239998,0.5597,2.9303974999999998,8.890513,1.4550426,-1
852,853,1583935899388,-0.4233,-0.3048,0.98969996,3.139105,8.962809,1.7165468999999998,-1
853,854,1583935899398,-0.1399,-0.20799999,1.1786,3.6336226000000003,9.097342999999999,1.6735852999999998,-1
854,855,1583935899408,0.3108,-0.063,1.0562999,3.8700836000000005,9.283805000000001,1.2667626,-1
855,856,1583935899418,0.452,0.0993,0.7078,3.6873772000000002,9.473464,1.1470621,-1
856,857,1583935899429,0.25599998,0.28869998,0.5995,3.4970765,9.845092,1.1714541,-1
857,858,1583935899439,-0.081999995,1.1654,0.71309996,3.3618230000000002,10.346753,1.2347665,-1
858,859,1583935899449,-0.31599998,1.7759,0.8235,3.1367586,10.954258,1.3365775,-1
859,860,1583935899459,-0.31599998,1.7759,0.8235,3.239077,11.644689,1.4188519,-1
860,861,1583935899470,0.26369998,3.2566998,0.7029,3.9213288,12.596585000000001,1.1476556999999998,-1
861,862,1583935899480,1.2052,4.196000000000001,0.6398,4.8868339999999995,13.543262,1.1367478000000002,-1
862,863,1583935899490,2.0037,5.0463,0.7,5.768398,14.469023000000002,1.2459617,-1
863,864,1583935899501,2.6587,5.9115996,0.80009997,6.1835337,15.0595,1.3485868,-1
864,865,1583935899511,2.6587,5.9115996,0.80009997,6.361978,15.976201000000001,1.4597064,-1
865,866,1583935899521,2.4881,7.4091997,1.1074,5.852042,16.69859,1.7726095000000002,-1
866,867,1583935899531,2.2333998999999998,7.9316998,1.5554,5.598802,17.211763,2.1781585,-1
867,868,1583935899541,2.1354,8.319099000000001,1.6754999,5.408339,17.630796,2.173581,-1
868,869,1583935899551,2.1232998,8.4848995,1.4509,5.281025,17.764353,1.8071817,-1
869,870,1583935899562,1.9016,8.3526,0.9655,4.895558,17.620317,1.2153256000000001,-1
870,871,1583935899571,1.615,8.0413,0.2699,4.5578895,17.408863,0.5692741,-1
871,872,1583935899581,1.3568,7.7007,-0.4015,4.103556,17.067201999999998,-0.43208638,-1
872,873,1583935899591,1.6498,7.3925,-1.4827,4.4803557000000005,16.80653,-1.6860255000000002,-1
873,874,1583935899602,2.8325,7.1376,-2.7698998,5.500850700000001,16.567320000000002,-3.042695,-1
874,875,1583935899612,3.5486,6.7275996,-3.6330998,6.0399769999999995,16.067852,-3.729764,-1
875,876,1583935899622,3.8446998999999997,6.1408,-3.3725,5.9167905,15.383656,-3.0898323,-1
876,877,1583935899632,3.5368998,5.2398,-2.4054,5.281303,14.483876,-1.9613588,-1
877,878,1583935899642,3.0145,4.242,-1.2221,4.711703,13.682267999999999,-0.9418790000000001,-1
878,879,1583935899652,2.5356998,3.2674,-0.11229999,3.9484982000000004,12.590656,0.4403416,-1
879,880,1583935899663,2.134,2.2875,0.7122,3.4212759,11.591154,1.1725842,-1
880,881,1583935899673,1.9614999,1.2536,1.1827999,3.1743667,10.615737,1.6413403000000002,-1
881,882,1583935899683,2.1615999,0.391,1.5394,3.5808926,9.887219,1.899416,-1
882,883,1583935899694,3.1761,-0.2619,1.3126,4.334003,9.231803,1.4489421999999998,-1
883,884,1583935899704,3.5239999999999996,-1.0301,0.7622,4.2354574000000005,8.308253,0.97430605,-1
884,885,1583935899714,3.576,-1.7571,0.4527,4.1236963,7.558801,0.71395093,-1
885,886,1583935899724,3.4901,-2.5503,0.15879999,3.57778,6.89555,0.49590623,-1
886,887,1583935899735,2.6,-3.4289,-0.0442,2.117221,5.8759646,0.45193908,-1
887,888,1583935899745,1.5756999,-4.2056,0.0442,1.4177697,5.4637117,0.55759996,-1
888,889,1583935899755,0.96459997,-4.7725,0.3337,0.6040858,4.7586675000000005,1.0118663,-1
889,890,1583935899765,0.62299997,-5.2576,0.5394,-0.14913961,4.207618,1.1482974,-1
890,891,1583935899775,0.1104,-5.7597,0.72069997,-0.4433008,3.9053931000000004,1.5285063,-1
891,892,1583935899786,0.2783,-5.8875,0.9693,-0.21597615,3.8640212999999997,1.4095621999999999,-1
892,893,1583935899795,0.4324,-5.9655,0.6544,-0.34193029999999996,3.7588296000000003,1.2617443000000002,-1
893,894,1583935899805,0.3356,-6.1898,0.5809,-0.6226457,3.4205193999999994,1.1623563000000001,-1
894,895,1583935899815,0.23369999,-6.3842998,0.41869998,-0.85476834,3.292899,0.86700743,-1
895,896,1583935899825,0.1264,-6.4709997,0.073,-1.0737419,3.2961836000000004,0.60493815,-1
896,897,1583935899835,0.0037,-6.3813,-0.115899995,-1.2908962,3.453339,0.6743604000000001,-1
897,898,1583935899846,-0.0749,-6.2327,0.024,-1.6547381999999997,3.5886497000000004,0.64240265,-1
898,899,1583935899856,-0.3935,-6.0937,-0.0189,-1.9278400000000002,3.6545956,0.55593365,-1
899,900,1583935899866,-0.6295,-5.9743,-0.039699998,-2.345494,3.8602769999999995,0.6041146,-1
900,901,1583935899876,-0.82449996,-5.7771,-0.029399997999999997,-2.1449366000000003,4.296203599999999,0.38489187,-1
901,902,1583935899886,-0.53859997,-5.2669997,-0.253,-2.363326,4.6174574,0.14867993,-1
902,903,1583935899897,-0.81659997,-5.012,-0.419,-2.9102192000000002,4.776136,0.16386874,-1
903,904,1583935899907,-1.4805,-4.7569,-0.3046,-3.4924315999999997,5.058134,0.29727367,-1
904,905,1583935899917,-1.7116,-4.5519,-0.261,-3.492374,5.329244,0.06797618,-1
905,906,1583935899927,-1.6606,-4.2313,-0.5007,-3.3842041,5.680196,-0.21961533,-1
906,907,1583935899937,-1.4743998999999999,-3.8832,-0.7015,-3.1312425,6.0734096,-0.10687716,-1
907,908,1583935899947,-1.2099,-3.4568,-0.5268,-2.9754946,6.510141,0.026805482999999998,-1
908,909,1583935899958,-1.0667,-3.0439999999999996,-0.4533,-2.7286334,6.893031,0.01892377,-1
909,910,1583935899968,-0.7398,-2.6513999,-0.45839998,-2.3108162999999995,7.307946,0.0045394064,-1
910,911,1583935899978,-0.3775,-2.2495,-0.4553,-2.1580281,7.5755796,0.029103916,-1
911,912,1583935899988,-0.3002,-2.0241,-0.44689998,-2.4280367000000003,7.6061587,0.010381259,-1
912,913,1583935899998,-0.5464,-2.0142,-0.4642,-2.5867624,7.7571845,0.5049276,-1
913,914,1583935900009,-0.7086,-1.8672999,0.0095999995,-2.3655863,8.057772,0.97587657,-1
914,915,1583935900019,-0.5061,-1.5647,0.45709997,-1.8475767,8.413359,1.1617146,-1
915,916,1583935900029,0.0016,-1.2145,0.6288,-1.3797306,8.739621000000001,1.2894691,-1
916,917,1583935900039,0.4371,-0.8944,0.7240000000000001,-1.1632181000000001,8.949631,1.3799795,-1
917,918,1583935900049,0.6299,-0.68189996,0.80399996,-1.142513,9.146463,1.4516715,-1
918,919,1583935900059,0.6333,-0.48819998,0.86219996,-1.1622701000000002,9.309394000000001,1.4625412,-1
919,920,1583935900070,0.35,-0.196,0.9177,-1.4227687,9.446447000000001,1.4988563999999998,-1
920,921,1583935900080,-0.23169999,-0.1761,0.7475,-2.0019932000000003,9.463571,1.3130758999999999,-1
921,922,1583935900090,-0.6351,-0.2446,0.047799997000000004,-2.441875,9.421903,0.48133034,-1
922,923,1583935900100,-0.534,-0.0103,-0.45229998,-2.251766,9.693069,-0.045815445,-1
923,924,1583935900110,-0.534,-0.0103,-0.45229998,-1.863503,9.896566,-0.45625824,-1
924,925,1583935900120,0.0637,0.4858,-0.9098,-1.7148997,10.122895,-0.46645752,-1
925,926,1583935900131,-0.27429998,0.33769998,-0.45569998,-2.1585646,9.973688000000001,0.10736558,-1
926,927,1583935900141,-0.6906,0.2783,0.1951,-2.4886003,9.905636,0.8078801999999999,-1
927,928,1583935900151,-0.66069996,0.2868,0.5998,-2.3370857000000003,9.960473,1.0701603000000002,d
928,929,1583935900161,-0.1379,0.4407,0.23619999,-1.7374817,10.132367,0.55951536,-1
929,930,1583935900171,0.4878,0.6523,-0.5527,-1.1411818,10.314997,-0.22885695,-1
930,931,1583935900182,0.74189997,0.6976,-1.0289999,-0.92818415,10.359893,-0.6658850000000001,-1
931,932,1583935900192,0.8736,0.7245,-1.1014,-0.72632414,10.38393,-0.60239077,-1
932,933,1583935900202,0.8736,0.7245,-1.1014,-0.6723589,10.271623,-0.3483755,-1
933,934,1583935900212,0.7733,0.4298,-0.37829998,-1.1144435,9.970921,0.46974236,-1
934,935,1583935900222,0.2622,0.20709999,0.4684,-1.5085386,9.837324,1.1570315,-1
935,936,1583935900232,0.0092,0.0927,0.9271,-1.6747919999999998,9.733512,1.474292,-1
936,937,1583935900242,0.2838,0.1048,0.7694,-1.3051655,9.734862,1.204542,-1
937,938,1583935900253,0.51739997,0.0376,0.259,-1.2118586999999998,9.628197,0.5967978,-1
938,939,1583935900263,0.419,-0.0981,-0.2368,-1.3261005,9.474373,0.21626346,-1
939,940,1583935900273,0.4102,-0.2434,-0.4014,-1.3362996999999999,9.361500999999999,0.15488570000000002,-1
940,941,1583935900283,0.2166,-0.4764,-0.3464,-1.6937061999999998,9.026237,0.28271693,-1
941,942,1583935900293,-0.1902,-0.7967,-0.1318,-2.100548,8.664128,0.67703235,-1
942,943,1583935900304,-0.4208,-1.0774,0.2636,-2.2994199,8.451724,1.0679864,-1
943,944,1583935900314,-0.67249995,-1.3680999,0.7448,-2.5534258,8.115874,1.528851,-1
944,945,1583935900324,-0.789,-1.6689999,0.94369996,-2.6378548,7.759425599999999,1.6137302,-1
945,946,1583935900334,-0.7902,-1.9804,0.99069995,-2.5077443,7.547979400000001,1.6331999,-1
946,947,1583935900344,-0.5387,-2.2238998,0.99359995,-2.2618982999999995,7.2937727,1.6415796000000002,-1
947,948,1583935900354,-0.3069,-2.5266,1.0297999,-2.0179577,6.988387599999999,1.7049685,-1
948,949,1583935900365,-0.0338,-2.8192,1.1367999,-1.7902403999999998,6.575272999999999,1.8869948,-1
949,950,1583935900375,0.0964,-3.2384999,1.3046,-1.6364847,6.013258,2.0217214,-1
950,951,1583935900385,0.29099998,-3.8727,1.3957,-1.4424298999999998,5.341751599999999,2.0093002,-1
951,952,1583935900395,0.5496,-4.4862,1.3297,-1.0969753,4.7929330000000006,1.9856071,-1
952,953,1583935900405,0.9684,-5.0396,1.4432,-0.9542425999999999,4.1039104,2.674783,-1
953,954,1583935900416,0.8893,-5.6013,2.2654,-1.5446144,3.6215843999999997,4.1931477,-1
954,955,1583935900426,0.32819998,-6.0536,3.8014997999999998,-2.0183218000000003,3.1804576,5.6519923,-1
955,956,1583935900436,-0.12539999,-6.4968996,5.1268997,-2.3096384999999997,2.8519921000000004,6.5812774,-1
956,957,1583935900446,-0.33139998,-6.8153996,6.1238,-2.024968,2.6735094,7.370904400000001,-1
957,958,1583935900456,0.34129998,-6.9426,6.674299700000001,-0.96226794,2.8557653,7.804753,-1
958,959,1583935900467,1.0037999,-6.6331,6.9406,-0.8147946999999999,3.3645620000000003,8.186963,-1
959,960,1583935900476,1.0659999999999998,-6.1601,7.2792997,-0.46876553,3.7021732000000003,8.041185,-1
960,961,1583935900486,1.4338,-5.7885,6.9136,-0.11036312,4.1808224,7.420368700000001,-1
961,962,1583935900496,1.7182,-5.1945,6.1832,0.09146808,4.738345,6.7612834,-1
962,963,1583935900506,1.7092999,-4.7103,5.5485997000000005,-0.007833828000000001,5.3047657,5.809434400000001,-1
963,964,1583935900517,1.5367998999999999,-4.2076,4.812999700000001,-0.33655772,6.0318847,5.0688124000000006,-1
964,965,1583935900527,1.1204,-3.4998,4.1015997,-0.6254708000000001,6.697501700000001,3.8631114999999996,-1
965,966,1583935900537,0.77,-2.8316998,2.9692,-0.95032567,7.414345,2.925743,-1
966,967,1583935900547,0.254,-1.8889999,1.9359,-1.2970253,8.592886,1.5529654,-1
967,968,1583935900558,0.0265,-0.94619995,0.88409996,-1.0317669,9.585809,0.09294291,-1
968,969,1583935900567,0.2393,0.074999996,-0.47599998,-0.460405,10.740188,-1.4281317,-1
969,970,1583935900577,0.7479,1.2248,-1.8159999999999998,-0.02809835,11.792295,-2.4818296,-1
970,971,1583935900587,0.90529996,2.171,-2.6812,-0.021701043,12.355804,-3.0277648,-1
971,972,1583935900598,0.7813,2.8358,-3.2217999,-0.097951576,13.000477,-3.4593627000000002,-1
972,973,1583935900608,0.5154,3.2582,-3.3974998,-0.33068714,13.248323999999998,-3.5265253,-1
973,974,1583935900618,0.1945,3.5061,-3.392,-0.15718412,13.651411999999999,-3.4476410000000004,-1
974,975,1583935900628,0.3419,3.9515998,-3.2796,0.48710513,14.184401000000001,-3.821395,-1
975,976,1583935900639,0.7384,4.3791,-3.6311998,0.9420801,14.416264000000002,-4.706474,-1
976,977,1583935900649,1.0623,4.6026,-4.4789,1.2916143999999998,14.646173999999998,-5.9017550000000005,-1
977,978,1583935900659,1.2672,4.838,-5.6366,1.9257043999999999,14.8970585,-7.327004400000001,-1
978,979,1583935900669,1.7760999,5.0853,-7.0319996,2.4513272999999995,15.029476,-8.189013000000001,-1
979,980,1583935900679,2.3371,5.2597,-8.0008,2.745862,15.063397,-8.3292265,-1
980,981,1583935900689,2.0156,5.1461,-7.2728,2.5345308999999996,14.945201,-7.574038000000001,-1
981,982,1583935900700,2.0156,5.1461,-7.2728,2.390438,14.8058,-6.7525205999999995,-1
982,983,1583935900710,1.7832999,5.0129,-6.5031,2.6965895,14.667376999999998,-6.321333999999999,-1
983,984,1583935900720,2.3502998,4.7681,-6.048899700000001,3.1311464,14.554697,-6.230805,-1
984,985,1583935900730,2.5637,4.4796,-6.5315,3.4132025,14.259798000000002,-6.702768300000001,-1
985,986,1583935900740,2.8660997999999998,4.0927997000000005,-7.2718,3.855814,13.771170999999999,-7.605814,-1
986,987,1583935900750,3.1318,3.5484998,-8.0394,4.1013923,13.175436,-8.363081,-1
987,988,1583935900761,3.1179,2.8460999,-8.5359,4.133751999999999,12.466483,-8.823314,-1
988,989,1583935900771,3.1671,2.1132,-8.7947,4.1830726,11.726484,-9.074695,-1
989,990,1583935900781,3.0526998,1.3201,-8.965199,4.0232167,10.881695,-9.301215,-1
990,991,1583935900791,2.7919,0.3103,-9.499599,3.7614824999999996,9.859782000000001,-9.937536,-1
991,992,1583935900802,2.7214,-0.7097,-10.2644,3.7108116,8.865211500000001,-10.749583,-1
992,993,1583935900812,2.5897,-1.6906999,-11.218699,3.5487718999999998,7.893281,-11.696344999999999,-1
993,994,1583935900822,2.3941,-2.3581,-11.7063,3.3400166,7.2421727,-12.000113,-1
994,995,1583935900832,2.3291,-2.6627998,-11.6349,3.3242915,7.1052246,-11.804199,-1
995,996,1583935900842,2.238,-2.5943,-11.3045,3.1926296,7.244509700000001,-11.064544999999999,-1
996,997,1583935900853,2.1032,-2.3681997999999997,-10.0531,3.1282449,7.4572970000000005,-9.788692999999999,-1
997,998,1583935900863,2.0414,-2.0718,-8.5693,3.1585937000000004,7.814923299999999,-8.060463,-1
998,999,1583935900873,2.415,-1.6953,-7.5723,3.7954513999999997,8.260236,-7.0633454,-1
999,1000,1583935900883,3.174,-1.2486,-6.8103,4.5914087,8.533232,-6.45631,-1
1000,1001,1583935900893,3.7242,-1.2329999,-6.3266,4.988328500000001,8.502403999999999,-5.616136,-1
1001,1002,1583935900904,3.9032998,-1.3158,-5.1552,5.166563,8.3614235,-4.475213,-1
1002,1003,1583935900914,3.8974998,-1.3895,-4.0712,5.0087366,8.392605999999999,-3.1606145,-1
1003,1004,1583935900924,3.3736,-1.199,-2.3693,4.0629029999999995,8.854687,-0.7590577,-1
1004,1005,1583935900934,2.3509998,-0.5877,-0.22309999,3.4339172999999996,9.301838,0.43822510000000003,-1
1005,1006,1583935900944,1.3368,0.16059999,1.314,2.220603,10.138468,2.0087447,-1
1006,1007,1583935900954,0.6609,0.4978,2.1083,2.297744,10.268511,2.5455533999999997,-1
1007,1008,1583935900965,1.5164,0.5933,2.5973,4.7055545,10.476192999999999,2.9258294,-1
1008,1009,1583935900975,4.7578,1.0188999,3.2194998,8.600585,11.210696,4.1711974000000005,-1
1009,1010,1583935900985,8.1319,1.7849,5.0249,10.956863,11.822156,6.7115800000000005,-1
1010,1011,1583935900995,9.5803995,2.3284,7.7851996,11.380033500000001,12.148495,9.785658,-1
1011,1012,1583935901005,9.3239,2.6304,10.3793,10.786626,12.518993,12.231517,-1
1012,1013,1583935901015,8.4515,3.0567,12.6202,9.863632,12.933755,13.610270499999999,-1
1013,1014,1583935901026,7.4437,3.5175,13.3616,8.810366,13.331719,13.741847,-1
1014,1015,1583935901036,6.3508997,3.8123,13.082999000000001,7.533710000000001,13.452684,12.998313000000001,-1
1015,1016,1583935901046,4.9223,3.8646,12.2286,5.442595,13.535438000000001,11.710844999999999,-1
1016,1017,1583935901056,3.1397,3.952,11.1889,3.8274187999999993,13.989378,10.603824000000001,-1
1017,1018,1583935901066,1.7083,4.5188,10.1481,3.0728621,14.648979999999998,9.653163000000001,-1
1018,1019,1583935901076,1.0117999,5.371,9.0513,2.797845,15.812706,8.269516000000001,-1
1019,1020,1583935901087,1.0776,6.3521,7.9670997,3.4618432999999995,16.86717,7.123047,-1
1020,1021,1583935901097,1.9066999,7.3931,6.9322996,4.5778,17.709785,6.397632,-1
1021,1022,1583935901107,3.1204998,8.1987,6.3444,5.6119223,18.275469,6.3328739999999994,-1
1022,1023,1583935901117,4.0787,8.6402,6.3898997,5.8804083,18.39965,6.9569564,-1
1023,1024,1583935901128,4.2892,8.706699,7.0803,5.791124,18.317453,8.051442,-1
1024,1025,1583935901138,4.295099700000001,8.565599,8.0183,5.8157744000000005,18.094773999999997,8.525397,-1
1025,1026,1583935901148,4.4796,8.3253,8.3026,5.942101999999999,17.703274,8.426977,-1
1026,1027,1583935901158,4.7172,7.8682,7.9897,5.857682700000001,17.041764999999998,7.899764,-1
1027,1028,1583935901168,4.718899700000001,7.1256,7.3444996,5.2240910000000005,16.171923,7.2628493,-1
1028,1029,1583935901178,4.1449,6.1959,6.6846,3.8235303999999997,14.966222,6.620437,-1
1029,1030,1583935901189,3.2001,5.1791,6.1387,2.6589527000000004,13.959670999999998,5.9324775,-1
1030,1031,1583935901199,2.2877998,4.1558,5.4618,1.5565854,13.167334,4.716089,-1
1031,1032,1583935901209,1.5613999,3.3528,4.2918997,1.2254673999999999,12.623389999999999,3.25961,-1
1032,1033,1583935901219,1.6623,2.2015,1.4568,1.2632958,12.004891,1.8053143,-1
1033,1034,1583935901230,1.9922999,1.5363,0.5042,1.3508468999999999,11.328385,0.8131571,-1
1034,1035,1583935901240,1.9245,0.562,-0.21239999,0.91020846,10.113605999999999,-0.04164953,-1
1035,1036,1583935901250,1.1884999,-0.46679997,-0.58559996,0.12950715,9.284303,-0.31484709999999994,-1
1036,1037,1583935901260,0.8619,-1.4826,-0.7887,-0.40624815,8.078573,-0.54833925,-1
1037,1038,1583935901270,1.3146,-2.2119999999999997,-1.1496,-0.14281893,7.4910455,-0.83876544,-1
1038,1039,1583935901280,1.7754999,-3.0082,-1.4907999,0.18511009,6.492931400000001,-1.1388163999999998,-1
1039,1040,1583935901290,1.7901,-3.8212998,-1.2262,0.010649408999999999,5.6848693,-0.6667181,-1
1040,1041,1583935901301,1.8398,-4.5042,-0.4707,-0.14929284,4.969252,0.15837166,-1
1041,1042,1583935901311,1.7761999,-5.1951,0.0313,-0.32262346,4.263623,0.6409278,-1
1042,1043,1583935901321,1.7369999999999999,-5.8556,0.1337,-0.56966674,3.5257301,0.68902254,-1
1043,1044,1583935901331,1.4805,-6.5738997,-0.0885,-0.90959555,2.9336919999999997,0.5180478000000001,-1
1044,1045,1583935901341,1.2635,-7.2812996,-0.49519998,-1.30054,2.0534973,0.012066776000000001,-1
1045,1046,1583935901352,1.3421,-7.8499,-1.1457,-1.3444303999999998,1.4464713,-0.7366001,-1
1046,1047,1583935901362,1.3256999,-8.5043,-1.9957999,-1.6279998,0.57337296,-1.7912363000000002,-1
1047,1048,1583935901372,1.1178,-9.213699,-2.7803,-2.0544837,-0.15361199,-2.5119867,-1
1048,1049,1583935901382,0.5288,-9.8804,-3.1660000000000004,-2.83032,-0.76073366,-2.6738827,-1
1049,1050,1583935901392,-0.36659998,-10.5246,-2.8184,-4.063525,-1.5632414,-2.106476,-1
1050,1051,1583935901403,-1.2161,-11.1102,-2.1568,-5.0892587,-2.154255,-1.4486836,-1
1051,1052,1583935901413,-2.0793,-11.504499000000001,-1.4848,-5.955078599999999,-2.5106366,-0.8768524,-1
1052,1053,1583935901423,-2.5814,-11.8298,-1.2113,-6.2801730000000004,-2.893096,-0.8571049999999999,-1
1053,1054,1583935901434,-2.4575999,-12.108299,-1.5171,-5.8886538,-3.1865099999999997,-1.4353622,-1
1054,1055,1583935901444,-1.7759,-12.2816,-2.0109,-4.9049053,-3.2300272,-1.8634453999999998,-1
1055,1056,1583935901454,-0.74719995,-12.279099,-2.2963998,-4.0136204,-3.2929754,-1.9639252,-1
1056,1057,1583935901464,0.049799997,-12.3418,-2.1821,-3.527157,-3.3521986000000004,-1.6734895,-1
1057,1058,1583935901474,0.1223,-12.4962,-1.8258,-3.9033723,-3.5927105000000004,-1.2536136,-1
1058,1059,1583935901485,-0.3315,-12.7415,-1.3528999,-4.1245966,-3.7569047999999996,-0.8244577,-1
1059,1060,1583935901495,-0.5033,-12.893499,-0.9568,-4.1944404,-3.914989,-0.6548429,-1
1060,1061,1583935901505,-0.45479998,-13.002399,-0.9481,-3.8867760000000002,-3.89166,-0.7862175,-1
1061,1062,1583935901515,-0.1489,-12.9902,-1.0033,-3.2196937,-3.6965036000000002,-0.9158108,-1
1062,1063,1583935901525,0.6085,-12.690499,-1.155,-2.4336295,-3.2973232000000006,-1.0330694,-1
1063,1064,1583935901535,1.2691,-12.3474,-1.2191,-1.6031669,-2.85272,-1.1179676,-1
1064,1065,1583935901546,1.9238,-11.900499,-1.2281,-1.1235414,-2.358777,-1.1261941999999998,-1
1065,1066,1583935901556,2.0458,-11.416699000000001,-1.0959999999999999,-0.93801945,-1.7471926,-0.76029307,-1
1066,1067,1583935901566,2.1648,-10.8466,-0.6389,-0.61098117,-1.0986799999999999,-0.31081527,-1
1067,1068,1583935901576,2.3660997999999998,-10.092299,-0.1191,-0.009461885,0.20011696,0.48991114,-1
1068,1069,1583935901586,2.7505999,-9.024799,0.5573,0.47685793,1.2147605,0.5903335,-1
1069,1070,1583935901597,2.8659,-8.1314,0.42100000000000004,0.054559067,1.9934316000000003,-0.031804577,-1
1070,1071,1583935901607,2.1804,-7.0768,-0.3241,-0.16088079,3.438878,-0.8059075,-1
1071,1072,1583935901617,1.9136,-5.8522997000000005,-0.77309996,-0.43266097,5.08245,-0.8967243,-1
1072,1073,1583935901627,1.4282,-4.2246,-0.76199996,-0.5052723,6.3669677,-0.98688036,-1
1073,1074,1583935901637,1.2914,-3.0581,-0.802,0.6446819,7.908555499999999,-0.762831,-1
1074,1075,1583935901647,2.5119,-1.4017,-0.6035,3.0932512,10.170119,-1.2668966,-1
1075,1076,1583935901657,4.7549,0.9626,-1.1425999,5.492969,12.684069000000001,-0.9595769000000001,-1
1076,1077,1583935901668,6.7303,3.3736,-0.5516,6.763658,14.749757,-0.26876350000000004,-1
1077,1078,1583935901678,7.3287997,5.2553997,-0.006,6.145485,16.0335,-0.08233181,-1
1078,1079,1583935901688,6.2483997,6.4603996,0.1765,5.227596,17.222403,-0.6962434000000001,-1
1079,1080,1583935901698,5.2918997,7.4080997,-0.4114,6.0495253,18.343033,-1.9347638999999999,-1
1080,1081,1583935901708,5.8627996,8.539,-1.5981,8.080517,19.337670000000003,-3.1975903999999997,-1
1081,1082,1583935901719,7.6141996,9.5398,-2.8170998,9.647254,20.055721,-3.0245566000000004,-1
1082,1083,1583935901728,8.894199,10.2732,-2.6481,9.555259,20.396423000000002,-2.0751982,-1
1083,1084,1583935901738,8.353,10.6782,-1.435,7.5818143,20.494165,-0.23317608,-1
1084,1085,1583935901749,6.3384,10.7512,0.048699997,5.1077037,19.984966,0.5747711999999999,-1
1085,1086,1583935901759,3.6962998,10.2737,0.8239,3.1091392000000004,19.541101,0.5415014,-1
1086,1087,1583935901769,1.5591999,9.8537,0.8052,2.0062740000000003,19.092026,-0.4261775,-1
1087,1088,1583935901779,-0.0273,9.0189,-1.0853,1.7883346000000002,18.539509,-1.6596223,-1
1088,1089,1583935901790,0.0173,8.5879,-1.4513999,1.9550955,18.202215,-1.9115593000000002,-1
1089,1090,1583935901800,0.89949995,8.2892,-1.8082999,3.0024054000000002,17.864481,-2.2984335,-1
1090,1091,1583935901810,0.89949995,8.2892,-1.8082999,4.281532,17.584599,-2.625022,-1
1091,1092,1583935901820,2.2609,7.7092,-2.5117,4.663005,17.145876,-3.0462960999999997,-1
1092,1093,1583935901830,1.6119999999999999,7.2834997,-2.2918,4.180295500000001,16.742577,-2.7637804,-1
1093,1094,1583935901840,0.4376,6.6763,-1.6697999,2.9954336,16.003725,-1.9492058,-1
1094,1095,1583935901851,0.1125,6.2033,-0.92319995,2.9554696,15.524223000000001,-1.2219718000000002,-1
1095,1096,1583935901861,0.44419998,5.7581997000000005,-0.42839998,3.3146381000000003,15.145692000000002,-0.7873284,-1
1096,1097,1583935901871,0.9841,5.242000000000001,0.1227,4.030313,14.480094,-0.14024276,-1
1097,1098,1583935901881,1.1962999,4.6533,0.3227,4.2445655,13.860971,0.05230852,-1
1098,1099,1583935901892,1.1420000000000001,3.9615,0.3394,4.1605096,13.009335499999999,-0.07066726,-1
1099,1100,1583935901902,0.8796,3.2844,-0.0685,3.8603532,12.463247,-0.57311445,-1
1100,1101,1583935901912,0.3475,2.6325,-1.2751,3.4453232000000003,11.943628,-1.6350387,-1
1101,1102,1583935901922,0.20449999,2.1746,-2.5221999,3.163995,11.279189,-3.227202,-1
1102,1103,1583935901932,-0.309,1.6464,-2.8808,2.5310063,10.794172,-3.1060457,-1
1103,1104,1583935901942,-0.932,1.235,-2.3246999,1.9756857,10.346255000000001,-2.331646,-1
1104,1105,1583935901952,-1.2579,0.8347,-1.4376999,1.8937465,10.020892,-1.3258514,-1
1105,1106,1583935901963,-1.0927,0.5846,-0.45189998,2.1328027,9.8616495,-0.46484864,-1
1106,1107,1583935901973,-0.59029996,0.50409997,0.3737,2.7851942000000003,9.753173,0.5871445,-1
1107,1108,1583935901983,-0.177,0.41489998,1.0232999,3.1526754,9.652004,1.2076066,-1
1108,1109,1583935901993,0.0348,0.32479998,1.5131999,3.2429748,9.585588000000001,1.662773,-1
1109,1110,1583935902003,-0.058199997999999996,0.2712,1.5583,3.120545,9.501055000000001,1.4763509,-1
1110,1111,1583935902013,-0.093899995,0.24399999,1.0446,3.258978,9.507107000000001,0.758033,-1
1111,1112,1583935902024,0.16,0.23449999,0.094299994,3.5504382000000003,9.519069,-0.45604753,-1
1112,1113,1583935902034,0.42729998,0.24329999,-0.7973,3.7422712,9.463379,-1.1439496,-1
1113,1114,1583935902044,0.5197,0.134,-1.203,3.7334607,9.349568,-1.2340959999999999,-1
1114,1115,1583935902054,0.435,-0.0436,-1.035,3.5858343,9.068336,-0.7828082,-1
1115,1116,1583935902064,0.2792,-0.2794,-0.49429998,3.4431398,8.893358000000001,-0.25972298,-1
1116,1117,1583935902074,0.0924,-0.5146,0.0727,3.1820185000000003,8.637858,0.32052615,-1
1117,1118,1583935902084,-0.15259999,-0.6911,0.4148,3.0051157,8.479055,0.5407927,d
1118,1119,1583935902095,-0.3066,-0.83919996,0.53389996,2.8349168,8.406922999999999,0.58268166,-1
1119,1120,1583935902105,-0.3985,-0.812,0.515,2.8375122999999998,8.477888,0.44461283,-1
1120,1121,1583935902115,-0.3999,-0.80509996,0.37539998,2.7093074,8.432484,0.27045858,-1
1121,1122,1583935902126,-0.4692,-0.8473,0.23449999,2.8393319,8.48167,0.024104822,-1
1122,1123,1583935902136,-0.2766,-0.78059995,-0.0224,3.086557,8.605478999999999,-0.33432633,-1
1123,1124,1583935902146,0.0284,-0.5355,-0.29549998,3.3838690000000002,8.917722,-0.48448107,-1
1124,1125,1583935902156,0.2298,-0.3081,-0.3258,3.5891763999999995,9.254049,-0.36516362,-1
1125,1126,1583935902167,0.40699998,0.0481,-0.1732,3.6060220999999997,9.569807,-0.093335554,-1
1126,1127,1583935902177,0.3655,0.366,0.107,3.5581283999999997,9.975221000000001,0.24671769,-1
1127,1128,1583935902187,0.33269998,0.78239995,0.43429998,3.5028989999999998,10.397664,0.53573614,-1
1128,1129,1583935902197,0.2419,1.2279999,0.7082,3.5204150000000003,10.975413,0.66745555,-1
1129,1130,1583935902207,0.3162,1.8411,0.7879999999999999,3.7592604,11.635264,0.47110230000000003,-1
1130,1131,1583935902218,0.525,2.5008,0.55649996,3.9396112000000003,12.334123,0.15998057,-1
1131,1132,1583935902227,0.6989,3.2373998,0.30339998,3.9009879,13.133365,0.21627302,-1
1132,1133,1583935902237,0.58169997,4.0318,0.4219,3.4616613,14.019372,0.42276812,-1
1133,1134,1583935902247,0.08549999400000001,4.9522,0.6374,3.1675098,15.010975,0.7130603,-1
1134,1135,1583935902257,-0.086899996,5.9704,0.9266,3.4414446000000005,16.111675,1.0745368999999998,-1
1135,1136,1583935902267,0.2969,7.0776,1.2569,4.121168,17.211945,1.2511715,-1
1136,1137,1583935902278,1.0245,8.155,1.3632,4.969261,18.155203,1.5638447,-1
1137,1138,1583935902288,1.8888999,9.072599,1.6629,5.592472,18.921557999999997,1.9785682,-1
1138,1139,1583935902298,2.3904,9.7485,1.9978,5.269829799999999,19.50872,2.4521124,-1
1139,1140,1583935902308,2.116,10.2191,2.3393,4.9376483,19.887445,2.6133957000000003,-1
1140,1141,1583935902318,1.7996,10.651999,2.4328,4.5159720000000005,20.260529000000002,2.2474658,-1
1141,1142,1583935902328,1.5436,10.9025,2.0504,4.680339,20.460404999999998,1.8877897000000001,-1
1142,1143,1583935902338,1.9489,11.0814,1.5912,5.682293,20.499989000000003,1.5909086000000001,-1
1143,1144,1583935902349,3.79,10.6305,1.3277,6.356998,20.103306,1.640938,-1
1144,1145,1583935902359,4.2084,9.9501,1.67,6.6075563,19.46668,2.0351768,-1
1145,1146,1583935902369,4.3471,9.1303,1.7129999,6.5462456,18.685356,2.1373997000000005,-1
1146,1147,1583935902379,4.3471,9.1303,1.7129999,6.7056227,17.9199,1.590315,-1
1147,1148,1583935902389,4.7374,8.3187,1.1347,6.6515135999999995,17.056820000000002,0.7424898,-1
1148,1149,1583935902400,4.5179,6.1977,-0.5341,5.9595127,15.89456,-0.0641263,-1
1149,1150,1583935902410,3.5881998999999998,4.9235,-0.97859997,4.4446917,14.3781,-0.58287317,-1
1150,1151,1583935902420,2.4708997999999998,3.4622998,-1.2404,3.065009,12.956021,-0.73552746,-1
1151,1152,1583935902430,1.6326,2.0119998,-1.2161,1.9799378,11.490272000000001,-0.6078111999999999,-1
1152,1153,1583935902440,1.0909,0.5431,-0.8638,1.35236,10.341888,-0.23990859,-1
1153,1154,1583935902450,0.6324,-1.0340999,-0.4046,0.5241099,8.472323,0.48602295,-1
1154,1155,1583935902460,0.45909998,-2.3985999,0.34399998,0.1396873,7.097457400000001,1.1815864,-1
1155,1156,1583935902470,0.3901,-3.7391998999999996,0.5256,-0.055966858,6.027518,1.3813586000000002,-1
1156,1157,1583935902480,2.0913,-4.3325,-0.21079999,1.7911884999999999,5.321726,0.31155267,-1
1157,1158,1583935902490,2.0913,-4.3325,-0.21079999,2.355626,4.5987824999999996,-0.8881435,-1
1158,1159,1583935902501,3.9308,-5.8676,-1.8944,3.1298057999999997,3.7075841,-0.6291100000000001,-1
1159,1160,1583935902511,4.067199700000001,-6.5909,-0.65889996,3.0192702000000002,2.980216,0.8121706,-1
1160,1161,1583935902521,3.4083,-7.1057,0.7703,2.0271802,2.4557135,2.2983859,-1
1161,1162,1583935902531,2.1262999,-7.638999999999999,1.9215,0.3205453,1.8197178,3.5023817999999998,-1
1162,1163,1583935902542,0.4509,-8.2625,2.5565,-1.5257768999999999,1.1827836,3.9032958,-1
1163,1164,1583935902552,-0.6418,-8.5873995,2.3522,-2.1873807999999997,1.0590511999999999,3.2196457,-1
1164,1165,1583935902562,-0.0477,-8.4291,0.3356,-1.3636894,1.2479056999999998,0.254858,-1
1165,1166,1583935902572,1.3629999,-7.9901995999999995,-2.6705,-0.21893539,1.7523066999999999,-2.2187930000000002,-1
1166,1167,1583935902582,2.0112997999999997,-7.4314,-4.7043,-0.006780379499999999,2.163506,-3.95457,-1
1167,1168,1583935902592,1.1919,-7.3759,-4.589699700000001,-1.4149828000000002,2.2442290000000003,-3.2786964999999997,-1
1168,1169,1583935902603,-0.0133,-7.148699799999999,-3.1362997999999997,-2.641427,2.486972,-1.6063944,-1
1169,1170,1583935902612,-0.9605,-6.8629999999999995,-1.4656,-3.3487603999999997,2.7327703999999997,-0.39638403,-1
1170,1171,1583935902622,-1.2156999,-6.4247,-0.5057,-3.5010412000000004,3.178753,0.44388500000000003,-1
1171,1172,1583935902632,-0.7116,-5.8658,-0.2802,-2.7182617000000002,3.8810394,0.34381697,-1
1172,1173,1583935902642,0.2145,-5.2834997,-0.7829,-1.7825981,4.4046129999999994,-0.23357832,-1
1173,1174,1583935902652,1.3098999,-4.7823,-1.2530999,-0.60987973,4.936183,-0.60156715,-1
1174,1175,1583935902663,2.5088,-4.1721997,-1.2556,0.46305776,5.479188,-0.5638824,-1
1175,1176,1583935902673,3.2363,-3.8514998,-0.96889997,0.789579,5.682513,-0.16375381,-1
1176,1177,1583935902683,2.924,-3.6992998,-0.0296,-0.20677285,5.7093186,0.7692283000000001,-1
1177,1178,1583935902693,1.1395998999999999,-4.0,0.0874,-2.4310532000000005,5.3042197,0.39365464,-1
1178,1179,1583935902703,-0.9687,-4.1204,-0.3335,-4.434033,5.388351999999999,-0.18997511,-1
1179,1180,1583935902714,-2.3309999,-3.8816998,-1.3921,-5.628385,5.729344,-2.0394769,-1
1180,1181,1583935902724,-2.8107,-3.4178,-2.8839998,-5.583019999999999,6.244701,-2.9999156000000005,-1
1181,1182,1583935902734,-2.2779,-2.7707,-3.5128,-4.690087999999999,6.848499,-3.2419884,-1
1182,1183,1583935902744,-0.97099996,-2.1346,-3.1115,-2.8415343999999996,7.6953759999999996,-2.1677008,-1
1183,1184,1583935902754,0.61829996,-1.4351,-1.9009999,-1.5953906999999998,8.195563,-0.9844383,-1
1184,1185,1583935902764,1.7055999,-0.9604,-0.3506,-0.7896365,8.708115,0.9222944,-1
1185,1186,1583935902775,1.9266,-0.6076,0.96099997,-0.9017904,8.932729,1.8708770000000001,-1
1186,1187,1583935902785,1.6617,-0.4542,1.5825,-1.3091208,9.005896,2.0924654,-1
1187,1188,1583935902795,1.0586,-0.44219998,1.5165,-2.0734649,8.902034,1.5900564,-1
1188,1189,1583935902806,0.2986,-0.59279996,0.7558,-2.8960552,8.750299,0.62662005,-1
1189,1190,1583935902816,-0.4806,-0.7316,-0.1981,-3.645718,8.602988999999999,-0.56908256,-1
1190,1191,1583935902826,-0.9558,-0.8117,-1.1445,-4.075458,8.610258,-1.5211128999999999,-1
1191,1192,1583935902836,-1.3427,-0.8057,-1.9705,-4.2402654,8.642225,-1.7622282999999999,-1
1192,1193,1583935902846,-1.4405,-0.73469996,-1.984,-4.13288,8.725457,-1.237515,-1
1193,1194,1583935902857,-1.2909,-0.6579999999999999,-1.4255999,-3.8680242999999996,8.910442999999999,-0.48483542,-1
1194,1195,1583935902867,-1.0289999,-0.4673,-0.71199995,-3.4776163,9.034013,0.17483418,-1
1195,1196,1583935902877,-0.6404,-0.3477,-0.1379,-2.9103055,9.292011,0.6012510999999999,-1
1196,1197,1583935902887,-0.080699995,-0.0918,0.1779,-2.5001787999999996,9.456091,0.73921454,-1
1197,1198,1583935902897,0.3225,0.09559999400000001,0.3109,-2.0842676,9.646574000000001,0.99476206,-1
1198,1199,1583935902908,0.60359997,0.21609999,0.44979998,-1.8185303,9.718562,1.0780228,-1
1199,1200,1583935902918,0.83379996,0.28939998,0.5079,-1.7484853999999999,9.693116999999999,1.1474643,-1
1200,1201,1583935902928,0.80869997,0.2278,0.5541,-2.1132374,9.551734,1.2733802,-1
1201,1202,1583935902938,0.48009998,0.0999,0.64629996,-2.4199345,9.369765,1.3247501,-1
1202,1203,1583935902949,0.1683,-0.075399995,0.696,-2.614296,9.21782,1.4414243999999998,-1
1203,1204,1583935902959,-0.0137,-0.23089999,0.8103,-2.4633462,9.175452,1.352293,-1
1204,1205,1583935902969,0.1356,-0.2696,0.7233,-2.3789842,9.094988,1.2179303999999997,-1
1205,1206,1583935902979,0.2615,-0.3786,0.57809997,-2.3292615000000003,9.076122,1.1903299999999999,-1
1206,1207,1583935902989,0.43379998,-0.3019,0.5965,-2.1606137999999997,9.151548,1.2055285,-1
1207,1208,1583935903000,0.479,-0.3134,0.61689997,-2.1082861,9.145094,1.2074341999999998,-1
1208,1209,1583935903010,0.38979998,-0.36339998,0.6579,-2.261381,9.064821,1.2731981,-1
1209,1210,1583935903020,0.38979998,-0.36339998,0.6579,-2.4551773,9.012436,1.3361368999999998,-1
1210,1211,1583935903030,-0.065299995,-0.4615,0.8508,-2.661682,8.999191,1.4108264,-1
1211,1212,1583935903040,-0.092599995,-0.4129,0.62409997,-2.6476040000000003,9.061661,1.1182646,-1
1212,1213,1583935903050,0.1134,-0.2572,0.3328,-2.4479373,9.215886,0.76245743,-1
1213,1214,1583935903060,0.28869998,-0.14119999,-0.1715,-2.3065548,9.317371000000001,0.2136011,-1
1214,1215,1583935903071,0.121999994,-0.1423,-0.4139,-2.474168,9.30948,0.058475982,-1
1215,1216,1583935903081,-0.31649998,-0.2795,-0.0477,-3.0348709,9.132749,0.5009149,-1
1216,1217,1583935903091,-0.9119,-0.49469998,0.38819999,-3.608761,8.921743,0.93318325,-1
1217,1218,1583935903102,-1.2276,-0.52459997,0.89599997,-3.8234443999999996,8.926886999999999,1.3546585,-1
1218,1219,1583935903112,-1.3268,-0.4096,1.3709999,-3.8840847000000003,9.102171,1.8606203999999997,d
1219,1220,1583935903122,-0.9755,-0.1407,1.2113999,-3.1540256,9.435903999999999,1.4234487,-1
1220,1221,1583935903132,-0.0047999997999999995,0.1453,0.4696,-2.2634494,9.710872,0.68373615,-1
1221,1222,1583935903142,0.71029997,0.2547,-0.1313,-1.5960132,9.755366,0.15461753,-1
1222,1223,1583935903152,0.98179996,0.2681,-0.3216,-1.5114691,9.725389999999999,0.267327,-1
1223,1224,1583935903163,0.87289995,0.13769999,0.2085,-1.7170831000000002,9.504952000000001,0.93615204,-1
1224,1225,1583935903174,0.4617,-0.1266,0.9309999999999999,-2.3221552000000005,9.224802,1.6727234,-1
1225,1226,1583935903184,-0.0207,-0.35009998,1.2843,-2.6317449,9.083238,1.7238634999999998,-1
1226,1227,1583935903194,-0.22819999,-0.48569998,1.1176,-2.708819,8.982277999999999,1.2603556999999999,-1
1227,1228,1583935903204,-0.1832,-0.5247,0.58629996,-2.644731,9.00893,0.59498787,-1
1228,1229,1583935903214,-0.13509999,-0.4667,-0.0753,-2.556136,9.0526495,-0.06637685,-1
1229,1230,1583935903225,0.0052,-0.4008,-0.65889996,-2.4220892999999997,9.178460000000001,-0.5744551999999999,-1
1230,1231,1583935903235,0.0731,-0.2571,-0.9932,-2.4188812,9.255122,-0.6173784000000001,-1
1231,1232,1583935903245,0.0025,-0.2409,-0.8759999999999999,-2.4695904,9.239846,-0.4542854,-1
1232,1233,1583935903255,-0.0187,-0.2733,-0.7,-2.5134043999999998,9.164525,-0.20210893,-1
1233,1234,1583935903265,-0.1573,-0.4229,-0.42319998,-2.7786147999999997,8.988292999999999,0.11115799999999999,-1
1234,1235,1583935903275,-0.3937,-0.5724,-0.120299995,-2.8299847000000002,8.8774605,0.33334949999999997,-1
1235,1236,1583935903286,-0.38819999,-0.6933,-0.0809,-2.7248982999999996,8.725831,0.12694058,-1
1236,1237,1583935903296,-0.2794,-0.81549996,-0.2929,-2.4662669999999998,8.649341,-0.036133293,-1
1237,1238,1583935903306,0.040799998,-0.9191,-0.48349997,-2.1505964,8.534716,-0.23621194,-1
1238,1239,1583935903316,0.2911,-1.0524,-0.6451,-1.9700736,8.339196000000001,-0.29909328,-1
1239,1240,1583935903326,0.3672,-1.3615,-0.7416,-1.9812306,7.715803,-0.36748123,-1
1240,1241,1583935903337,0.3495,-1.9240999,-0.7170000000000001,-1.8942254,7.058135000000001,-0.04139096,-1
1241,1242,1583935903347,0.4131,-2.6620998,-0.3886,-1.9808092000000002,5.9682565,0.63138926,-1
1242,1243,1583935903357,0.253,-3.8207,0.37799999999999995,-2.1619162999999997,4.7302527,1.9782236,-1
1243,1244,1583935903367,0.1019,-5.0569,1.7579,-2.1352255,3.4299622000000003,3.5115084999999997,-1
1244,1245,1583935903377,0.1515,-6.3427,3.2182,-1.9704471999999997,2.3044957999999998,4.8959603,-1
1245,1246,1583935903387,0.3006,-7.4536,4.4755,-1.5377573999999998,1.3140624,5.781403500000001,-1
1246,1247,1583935903398,0.79209995,-8.3812,5.2061996,-0.7687973000000001,0.5870390999999999,6.2720613,-1
1247,1248,1583935903408,1.4778999,-9.086599,5.6495,-0.47647485,0.2975035,6.662536599999999,-1
1248,1249,1583935903418,1.6051999,-9.285,5.9811,-0.5554739000000001,0.18265843,6.747339200000001,-1
1249,1250,1583935903429,1.4386,-9.4077,6.0327997,-0.31479922,0.76763856,6.780408,-1
1250,1251,1583935903438,1.6103,-8.827499000000001,6.0766,-0.11219229,1.4070532,6.664586,-1
1251,1252,1583935903448,1.7253,-8.0644,5.9061,-0.10846691,2.5389645,6.124329599999999,-1
1252,1253,1583935903458,1.5998,-7.1073,5.4814,-0.086047605,3.5567398,5.6225915,-1
1253,1254,1583935903468,1.5482,-5.8181,4.8595,0.30687922,5.421564599999999,4.3830647,-1
1254,1255,1583935903478,1.7289,-4.2743,3.8342998,0.77187145,7.0836,3.1113223999999997,-1
1255,1256,1583935903489,2.0395,-2.641,2.6204998,1.0808,8.789344999999999,1.8182429,-1
1256,1257,1583935903500,2.194,-0.9562,1.3927,1.0818919,10.154853999999998,0.91185564,-1
1257,1258,1583935903510,2.0549,0.3988,0.5611,0.36697367,11.3954525,0.6607805,-1
1258,1259,1583935903520,0.2986,2.5312997999999998,0.57129997,-0.46059653,12.324689999999999,0.7696592,-1
1259,1260,1583935903530,-0.51339996,3.2872999,0.5359,-1.1633618000000001,13.081142,0.65832883,-1
1260,1261,1583935903540,-0.9975,3.7703998,-0.6059,-1.4928231,13.717397,-0.88756883,-1
1261,1262,1583935903550,-0.9975,3.7703998,-0.6059,-1.0814801,14.197818,-1.8210490000000001,-1
1262,1263,1583935903561,0.45709997,5.3299,-3.6141,0.42409929999999996,15.312882,-4.096307,-1
1263,1264,1583935903571,1.4081,6.2012997,-4.7802997000000005,1.5364168,16.176212,-5.1941633000000005,-1
1264,1265,1583935903581,2.2587,6.9375,-5.2883997,2.4704425,16.867342,-5.608149500000001,-1
1265,1266,1583935903591,2.5507,7.3908997,-5.0003,2.7358446,17.25481,-5.1317987,-1
1266,1267,1583935903601,1.9909999,7.5217,-3.9782,2.1834066,17.318659,-4.0618495999999995,-1
1267,1268,1583935903612,1.1775,7.4470997,-3.1996,1.5385043999999999,17.2611,-3.4218411,-1
1268,1269,1583935903622,0.8854,7.4417995999999995,-3.3860997999999998,1.5153860000000001,17.245722,-3.8197476999999997,-1
1269,1270,1583935903632,1.4508,7.5455,-4.4579997,2.2846048,17.362453,-4.967691,-1
1270,1271,1583935903642,2.3548,7.6011996,-5.6198997,3.457706,17.402428,-6.366000700000001,-1
1271,1272,1583935903652,3.2303,7.549299700000001,-6.7523,4.406471,17.295923000000002,-7.552758,-1
1272,1273,1583935903663,4.1316,7.428,-7.7762,5.3019595,17.156897,-8.402019500000002,-1
1273,1274,1583935903673,4.644,7.295099700000001,-8.179399499999999,5.5322337,16.925713000000002,-8.541745,-1
1274,1275,1583935903683,4.3138,6.9041996,-7.8855996,4.9986334,16.525959,-8.17844,-1
1275,1276,1583935903693,3.5321,6.382999999999999,-7.607199700000001,4.098614700000001,15.902575500000001,-8.132452,-1
1276,1277,1583935903703,2.8974,5.8111997,-7.839299700000001,3.6214216,15.411620000000001,-8.403868,-1
1277,1278,1583935903713,2.7837,5.3856997,-8.1693,3.5627062000000005,14.961903,-8.865614,-1
1278,1279,1583935903723,2.8156998,4.9108996,-8.6573,3.5046227,14.499870000000001,-9.216097,-1
1279,1280,1583935903733,2.6912,4.4256997,-8.6796,3.2488456,14.103044500000001,-9.108166,-1
1280,1281,1583935903743,2.3428,3.8911,-8.4435,2.7773217999999997,13.454426999999999,-8.842007,-1
1281,1282,1583935903753,2.1595,3.2976,-8.2432995,2.6154740000000003,12.854258,-8.601255,-1
1282,1283,1583935903764,2.2268999,2.7143998,-7.8314,2.6046902999999997,12.29617,-8.02523,-1
1283,1284,1583935903774,2.3281999,2.1613998,-7.1865997,2.69703,11.616361,-7.4179454,-1
1284,1285,1583935903784,2.5997,1.5504999,-6.8651,2.9002402000000003,10.974935,-7.1939535,-1
1285,1286,1583935903794,2.9141998,0.9016,-6.727999700000001,3.081807,10.265485,-7.1197433000000006,-1
1286,1287,1583935903805,3.1555998,0.146,-6.6397996,3.0908186,9.493862,-7.030449000000001,-1
1287,1288,1583935903815,3.2168,-0.6278,-6.6050997,3.0402915,8.712777,-7.058222,-1
1288,1289,1583935903825,3.2925,-1.3808,-6.7075,2.852404,7.9666104,-7.016878599999999,-1
1289,1290,1583935903835,3.1555,-2.1325998,-6.4638,2.4918754,7.2026496,-6.2873654000000005,-1
1290,1291,1583935903846,2.8221998,-2.8637,-5.569,1.9034096,6.463262,-5.057512,-1
1291,1292,1583935903856,2.3657,-3.6524,-4.3097997,1.3657771,5.744782,-3.6064148,-1
1292,1293,1583935903866,2.0156,-4.3122997000000005,-2.9638999,1.2522825,5.1029344000000005,-2.1994479,-1
1293,1294,1583935903876,2.2177,-4.8729,-1.726,1.6101103,4.457831,-0.69290113,-1
1294,1295,1583935903886,2.6081,-5.4328,-0.6555,1.9239613000000002,3.894399,0.28671044,-1
1295,1296,1583935903896,3.014,-5.9625998,0.1161,2.2239356,3.430307,0.8851938,-1
1296,1297,1583935903906,3.438,-6.5118,0.73139995,2.6099287999999996,2.8687134,1.7506881,-1
1297,1298,1583935903916,3.7273,-6.9336996,1.3606,2.5627918,2.4963189999999997,2.4347596,-1
1298,1299,1583935903926,3.6511,-7.2869997,1.9671999,2.2177203,2.2627409,3.1899385,-1
1299,1300,1583935903936,3.3298,-7.5035996,2.6617,1.678661,2.0105357,3.8398587999999996,-1
1300,1301,1583935903946,2.7738,-7.7506,3.2512999,1.1631031,1.8200721999999998,4.307696,-1
1301,1302,1583935903956,2.1964,-7.999399700000001,3.7587,0.5426123,1.4734204,4.722639599999999,-1
1302,1303,1583935903966,1.7298,-8.2998,4.055,0.0006512229,1.1995622,4.8260403,-1
1303,1304,1583935903976,1.2669,-8.5048,4.1644,-0.33576286,1.2026937,4.733537999999999,-1
1304,1305,1583935903987,0.95449996,-8.4869995,4.0676,-0.7763343,1.3644843,4.6685877,-1
1305,1306,1583935903997,0.46449998,-8.2869,4.089299700000001,-1.206285,1.6557245999999999,4.8031707,-1
1306,1307,1583935904007,-0.126,-7.9131,4.3986,-1.7541646,2.1794035,5.1269817,-1
1307,1308,1583935904017,-0.5631,-7.4536,4.7103,-1.6975657,2.6149185,5.4701379999999995,-1
1308,1309,1583935904029,-0.428,-7.0161,5.1317,-0.31385112,3.2731802000000005,5.7168555,-1
1309,1310,1583935904039,0.7071,-6.4824,5.357,1.6445293,3.6993098,5.9661975,-1
1310,1311,1583935904049,2.4923,-6.076699700000001,5.6576,2.9914113999999996,4.0133905,6.8695297,-1
1311,1312,1583935904059,3.6847,-5.767299700000001,6.6173,3.537615,4.4485225999999995,8.0774145,-1
1312,1313,1583935904069,4.0727997,-5.3471,7.8697,2.8068470000000003,4.879871400000001,9.169908,-1
1313,1314,1583935904080,3.1931998999999998,-4.923899700000001,9.0147,1.7841017,5.0330143,9.867405,-1
1314,1315,1583935904090,0.904,-4.3243,9.9337,0.8424334000000001,5.4949226,9.910386,-1
1315,1316,1583935904100,0.9769,-3.9696998999999997,9.1401,1.0845733999999998,5.8469467,8.977107,-1
1316,1317,1583935904110,1.6847,-3.5992,8.4664,2.0066762,6.2118519999999995,8.178009,-1
1317,1318,1583935904120,2.4981,-3.0349,8.453,3.0663786,6.752233,8.045303,-1
1318,1319,1583935904130,3.2654998,-2.2168999,9.3182,4.297391,7.7453475,9.01416,-1
1319,1320,1583935904141,3.8,-1.2816,10.3033,5.083053,8.638241,9.855013,-1
1320,1321,1583935904151,4.0238,-0.3166,10.696199,5.4917050000000005,9.537761999999999,10.068987,-1
1321,1322,1583935904161,3.9053,0.58019996,10.6103,5.6795635,10.382255,9.802475,-1
1322,1323,1583935904171,3.9073,1.4689,10.0463,5.973859,11.216854,9.033178999999999,-1
1323,1324,1583935904181,3.8618998999999996,2.3695,8.901299,6.207619,12.054432,7.623818400000001,-1
1324,1325,1583935904192,3.7853,3.4782998999999997,7.1322,6.582790400000001,13.275445999999999,5.198664,-1
1325,1326,1583935904202,3.7853,3.4782998999999997,7.1322,7.412745,14.194054000000001,3.5130407999999997,-1
1326,1327,1583935904212,4.1643,4.671,5.1474,8.860251,15.798034,1.5070158,-1
1327,1328,1583935904222,5.7956,7.4521,2.2826998,9.438977000000001,16.960562,0.86414397,-1
1328,1329,1583935904232,5.7778997,8.5538,2.1989,9.547319,17.870570999999998,1.0385759,-1
1329,1330,1583935904243,5.433,9.4456,2.5263,9.4237795,18.513384,1.4615643,-1
1330,1331,1583935904253,5.1513,10.0996,2.8909,9.571453,19.119529999999997,1.977668,-1
1331,1332,1583935904263,5.3115,10.783,3.2459998,9.85033,19.43995,2.265384,-1
1332,1333,1583935904273,5.9256,11.3098,3.4896998,11.115895,19.972775,2.8861525,-1
1333,1334,1583935904283,6.7180995999999995,11.618,3.9097,11.992106,20.054705,3.6229348,-1
