,Seq,Time,ACCx,ACCy,ACCz,ADGx,ADGy,ADGz,Keydown
0,1,1580693044257,1.574,0.9356,-1.3097999,0.66399837,-2.2178352,7.685253599999999,-1
1,2,1580693044267,1.574,0.9356,-1.3097999,-0.41404366,3.2432528,9.057074,-1
2,3,1580693044277,0.0072999996999999995,-0.0852,-0.2305,-0.18602946,3.3492582000000004,8.942725999999999,-1
3,4,1580693044287,0.2936,0.022599999,-0.2805,0.074095756,3.466785,8.952236,-1
4,5,1580693044297,0.36949998,0.126,-0.1308,0.046150632000000004,3.5607812000000005,9.261528,-1
5,6,1580693044307,0.2717,0.0998,0.19209999,-0.11500787,3.4962910000000003,9.589428999999999,-1
6,7,1580693044317,0.0815,-0.0162,0.55289996,-0.31229967,3.4133465,9.982930999999999,-1
7,8,1580693044327,-0.21059999,0.0072,0.9306,-0.5739476,3.3979945,10.286371,-1
8,9,1580693044338,-0.40469998,-0.0665,1.1808,-0.7815249,3.3352475,10.492569,-1
9,10,1580693044348,-0.68369997,-0.0945,1.4225,-1.0968987,3.2800848,10.6600685,-1
10,11,1580693044358,-0.8258,-0.1677,1.4017,-1.2431940000000001,3.212444,10.54055,-1
11,12,1580693044368,-1.0971,-0.1467,1.2164,-1.5478992,3.2028866000000003,10.313206,-1
12,13,1580693044379,-1.1682999,-0.2164,1.0323,-1.5671487,3.1644547000000003,10.114189999999999,-1
13,14,1580693044389,-1.0871,-0.2164,0.79929996,-1.4061912,3.2190714,9.811342999999999,-1
14,15,1580693044399,-0.8605,-0.16239999,0.59459996,-1.5114404,3.4265144,9.819866000000001,-1
15,16,1580693044409,-0.96879995,0.0936,0.6534,-1.6117574,3.5469809999999997,10.110004,-1
16,17,1580693044419,-0.95339996,0.1815,1.0141,-1.673748,3.6196115,10.489879,-1
17,18,1580693044429,-1.0131999,0.3444,1.4519,-1.9353004,3.6665955,11.043992999999999,-1
18,19,1580693044440,-1.2269,0.38259998,1.8896998999999999,-2.4892898,3.5831047999999996,11.2912655,-1
19,20,1580693044450,-1.7205,0.2629,2.1622999,-3.1627212000000005,3.249219,11.684336,-1
20,21,1580693044460,-2.3701,-0.0374,2.506,-3.9804082000000003,3.0116472,11.701027999999999,-1
21,22,1580693044470,-3.0317,-0.3172,2.4708997999999998,-4.534733,2.5356607,11.63198,-1
22,23,1580693044481,-3.4894998,-0.7935,2.4301999,-5.054399500000001,2.1306287999999998,11.529116,-1
23,24,1580693044491,-3.9268,-1.1796,2.2654998,-5.4720917,1.7377881999999998,11.0156555,-1
24,25,1580693044501,-4.1521,-1.5137999,1.8499999,-5.681249,1.5361965,10.528808999999999,-1
25,26,1580693044511,-4.3106,-1.7743,1.2421,-5.8735514,1.2851787000000001,9.947669,-1
26,27,1580693044522,-4.3749,-2.0465999,0.69589996,-6.0221834,1.0912579,9.149547,-1
27,28,1580693044532,-4.3925,-2.2105,0.044099998,-6.2717547,0.7780581,8.56834,-1
28,29,1580693044542,-4.5167,-2.5273,-0.50729996,-6.7098265,0.48306373,7.9114766,-1
29,30,1580693044553,-4.8219,-2.8377,-1.1349,-7.218000999999999,0.07855855,6.940628,-1
30,31,1580693044563,-5.1488,-3.4726,-2.4680998,-7.370692999999999,-0.2667428,6.4024787000000005,-1
31,32,1580693044573,-5.1347,-3.8449,-3.0561,-7.518472999999999,-0.6306039999999999,5.7386813,-1
32,33,1580693044583,-4.9581,-4.18,-3.7371,-7.495153999999999,-0.95063215,4.963678400000001,-1
33,34,1580693044593,-4.553,-4.2794,-4.646,-7.2363214000000005,-1.0318913,4.0110154,-1
34,35,1580693044604,-3.8207998,-4.1547,-5.4764,-6.699369,-0.95839894,3.1621563,-1
35,36,1580693044614,-2.7905998,-4.0319,-6.0931997,-5.928254,-0.9217964,2.5318587000000004,-1
36,37,1580693044624,-1.4494,-3.8969,-6.114,-5.054074,-0.96458554,2.5033677000000005,-1
37,38,1580693044634,-0.1598,-3.6237998,-5.7362,-4.410838,-0.9365829,2.6506207,-1
38,39,1580693044644,0.4499,-3.5839,-5.7721995999999995,-3.8185315,-0.89659977,2.589243,-1
39,40,1580693044654,1.0310999,-3.5495,-5.8427,-3.2900162,-0.79664665,2.4715822,-1
40,41,1580693044665,1.6516998999999999,-3.659,-6.0485997000000005,-2.4991157000000004,-1.0752456,2.1687827,-1
41,42,1580693044675,2.1929998,-4.1738,-6.3862996,-1.9830981,-1.5621687,1.7327317,-1
42,43,1580693044685,2.6799998,-4.621299700000001,-7.0007,-1.5598415,-1.8412081000000002,1.1785122,-1
43,44,1580693044695,3.3527,-5.0501,-7.4923,-0.848189,-2.1784554,0.7748307,-1
44,45,1580693044706,3.9366999,-4.9677997000000005,-7.4059,-0.07075345,-1.7643447,0.95479804,-1
45,46,1580693044717,4.5978,-4.3408,-7.0764,0.93335557,-1.1622221000000001,1.8456613999999998,-1
46,47,1580693044727,5.5271,-4.1549,-6.1594996,1.839647,-1.1228709,2.4976504,-1
47,48,1580693044737,6.4168,-4.1032,-5.7854,2.8616837999999998,-1.0228988,2.5358522,-1
48,49,1580693044747,7.147,-4.1653,-6.0250998,3.9439397000000005,-1.3708338,2.294258,-1
49,50,1580693044757,8.2901,-4.4744,-6.2511,5.1306400000000005,-1.4780077,2.134421,-1
50,51,1580693044768,9.4846,-4.4761,-6.3866,6.149651,-1.6048622,2.2454834,-1
51,52,1580693044778,10.7857,-4.711,-5.9424,7.125843,-1.9184164000000001,3.4003315,-1
52,53,1580693044788,10.8728,-4.8368,-4.595,6.661397,-2.2005779999999997,4.736593,-1
53,54,1580693044798,9.965799,-5.1744,-3.5498,5.361853,-2.8605251,5.358912999999999,-1
54,55,1580693044809,8.7738,-5.6808996,-3.2452,4.5627260000000005,-3.3475344,5.472293,-1
55,56,1580693044819,8.4235,-5.8094997,-3.2702,5.741631,-2.95954,5.262809799999999,-1
56,57,1580693044829,9.6746,-5.1598997,-3.5965998,7.206920599999999,-2.019739,4.98378,-1
57,58,1580693044839,11.1201,-4.0985,-3.8592,9.027308,-1.3972658000000002,5.562238,-1
58,59,1580693044849,12.9198,-3.4075,-3.0667999,10.916352999999999,-0.95520985,7.483077499999999,-1
59,60,1580693044860,14.7182,-2.7926998,-1.0738,12.556267,-0.8113661999999999,9.693700999999999,-1
60,61,1580693044870,16.031,-2.5419998,1.135,12.736329,-1.1198639,12.043275999999999,-1
61,62,1580693044880,15.842099,-2.6452,3.2417,11.617011999999999,-1.9308758000000001,13.173903,-1
62,63,1580693044890,14.563498999999998,-3.3235997999999998,4.0573,10.336103,-2.9961995999999997,13.535141000000001,-1
63,64,1580693044900,13.2915,-3.9615998,4.3282,9.547463,-2.8385557999999995,13.377123000000001,-1
64,65,1580693044910,12.605499,-3.2802,3.9531998999999995,9.334581,-1.9396482,12.756038,-1
65,66,1580693044921,12.4727,-2.1501,3.5093,9.617059,-1.3588243999999998,14.119863,-1
66,67,1580693044931,12.7062,-1.4095,4.8066998,9.868928,-0.71428615,15.307682999999999,-1
67,68,1580693044941,13.0021,-0.33609998,6.2253,11.009191,-0.60960203,16.631954,-1
68,69,1580693044951,13.988299,-0.087,7.2949996,12.757877,-1.1426184,16.797929999999997,-1
69,70,1580693044961,15.6607,-0.3412,7.4586,14.0907,-1.417693,16.602238,-1
70,71,1580693044972,16.9144,-0.3292,7.2667,14.485418,-1.4351995000000002,17.90476,-1
71,72,1580693044982,17.2186,-0.0341,8.585,14.029638,-1.3943352,19.985014000000003,-1
72,73,1580693044992,14.752899,0.23339999,14.053498999999999,11.764619,-1.9730712,23.771742,-1
73,74,1580693045002,12.4296,-0.21409999,16.2564,9.580197,-2.807556,25.817816,-1
74,75,1580693045013,10.3914995,-0.74689996,17.673,8.044949,-3.4661337999999997,26.812884999999998,-1
75,76,1580693045023,8.8751,-1.0216,17.774399,6.671309,-3.9759934,26.871984,-1
76,77,1580693045033,8.3895,-1.0811,17.232,6.453293,-4.222625,26.190956,-1
77,78,1580693045043,8.8868,-0.5706,16.7008,7.148453999999999,-3.7167489999999996,25.61337,-1
78,79,1580693045053,9.4018,0.1397,15.922,7.687523,-3.2137752,24.987920000000003,-1
79,80,1580693045063,9.6184,0.55289996,15.0478,8.038705,-2.8123348,23.94872,-1
80,81,1580693045074,9.3193,0.3522,14.0109,7.827019,-3.219732,22.937918,-1
81,82,1580693045083,8.0281,-0.6041,13.2437,6.805383999999999,-4.03241,22.354471,-1
82,83,1580693045093,5.4933,-2.0196,12.677899,3.8246129,-5.720820400000001,21.779469,-1
83,84,1580693045103,2.0105999,-3.4245,12.686299,1.1301016000000002,-6.8122125,21.857193,-1
84,85,1580693045113,-1.4951999,-4.3157,13.0027,-2.8330781000000003,-7.769606,22.263912,-1
85,86,1580693045124,-4.5551,-4.8145,12.691199000000001,-5.5627265,-8.0862055,21.726882999999997,-1
86,87,1580693045134,-6.8391,-5.0389,11.073899,-7.4686259999999995,-8.111422,19.977182,-1
87,88,1580693045144,-7.8775997,-5.0132,9.007999,-7.9876413,-7.665515400000001,17.835520000000002,-1
88,89,1580693045154,-6.701699700000001,-4.3749,7.8546,-5.6342273,-6.584925999999999,17.056283999999998,-1
89,90,1580693045164,-4.1088,-3.4261,7.2177,-3.0457788,-5.5626307,16.494220000000002,-1
90,91,1580693045175,-2.3301,-3.1759999,6.5785,-1.9366218000000002,-5.568377,15.862554000000001,-1
91,92,1580693045185,-2.6327999,-3.9038,5.8953,-3.0808206,-6.2807283,15.289879999999998,-1
92,93,1580693045195,-4.7015,-5.1231,5.4304,-5.1739273,-7.271641000000001,14.948754000000001,-1
93,94,1580693045205,-6.9990997,-6.2398,5.075,-7.639141,-8.133994,14.635964999999999,-1
94,95,1580693045215,-9.3621,-7.1024,4.6440997,-9.8166485,-8.50884,14.087723,-1
95,96,1580693045226,-11.1433,-7.4944997,3.6694,-11.034310000000001,-8.401647,12.869686,-1
96,97,1580693045236,-11.6226,-7.3977,2.1145,-11.027244,-7.9135833,11.154307000000001,-1
97,98,1580693045246,-11.1845,-7.3328,0.177,-10.348237,-7.5637813,9.217121,-1
98,99,1580693045256,-10.3221,-7.3272996,-1.624,-9.426509,-7.234195,7.614806,-1
99,100,1580693045266,-9.371799000000001,-7.1485,-2.85,-8.328517999999999,-6.590279600000001,6.5154176,-1
100,101,1580693045276,-8.0504,-6.9112,-3.4634,-7.1142364,-6.1866937,6.2628965,-1
101,102,1580693045287,-6.6926,-6.1928997,-3.5728,-6.0720019999999995,-5.121628299999999,6.2202797,-1
102,103,1580693045297,-5.6123,-5.4691,-3.4522998,-5.1007032,-4.3246655,6.4306054,-1
103,104,1580693045307,-4.732,-4.9179,-3.2293,-4.545276599999999,-3.6113470000000003,6.494703299999999,-1
104,105,1580693045317,-4.4263,-4.4988,-3.4817998,-4.492853599999999,-3.2144265,6.1614876,-1
105,106,1580693045327,-4.6026,-4.5179,-4.0037,-5.006611,-3.1494575,5.3235936,-1
106,107,1580693045337,-4.9729,-4.843,-4.6679997,-5.225355,-3.3000144999999996,4.4813805,-1
107,108,1580693045347,-4.9368,-5.1370000000000005,-5.5733,-5.0493426,-3.3341364999999996,3.6154839999999995,-1
108,109,1580693045358,-4.5102997,-5.2643,-6.7116,-4.4058003,-3.0755532000000003,2.5589228,-1
109,110,1580693045368,-3.6868,-4.9941,-6.9491,-3.5769277,-2.5058672000000004,2.8531127,-1
110,111,1580693045378,-2.3560998,-4.1593,-6.1815996,-1.9772946,-1.2044941,3.8230324,-1
111,112,1580693045388,-1.0442,-3.1882,-5.4381,-0.98807746,-0.34849042,4.3786883,-1
112,113,1580693045398,-0.1357,-2.5547,-4.9514,-0.49088797,0.11530475,4.6463504,-1
113,114,1580693045408,0.46719998,-2.2114,-4.8174,0.25800875,0.4915679,4.4302209999999995,-1
114,115,1580693045419,1.0814999,-2.1355999,-5.0446,0.6115653,0.54460424,4.401692,-1
115,116,1580693045429,1.4197999,-2.1487,-4.9574,0.781726,0.7989834,4.67624,-1
116,117,1580693045439,1.7106999,-1.7960999,-4.5469,1.2836368,1.5240818,5.0389037000000005,-1
117,118,1580693045449,2.2705,-1.2255,-4.2739,1.7888613000000002,2.1239538,5.105616,-1
118,119,1580693045460,2.7984,-0.7326,-4.2064,2.014893,2.544069,4.933128,-1
119,120,1580693045470,2.9859,-0.44439998,-4.442,1.7628793999999999,2.5685092999999997,4.3530703,-1
120,121,1580693045480,2.7161999,-0.5873,-5.0392,1.450685,2.3574745999999998,3.6183763,-1
121,122,1580693045490,2.5008,-0.8364,-5.7247,1.5214386,2.419542,3.4014518,-1
122,123,1580693045500,2.7498999,-0.76559997,-5.7465997,2.3647435000000003,2.9506526,3.9843538,-1
123,124,1580693045511,3.4915,-0.34829998,-5.1863,2.767266,3.3385993999999997,4.4043255,-1
124,125,1580693045521,3.9354,0.076299995,-4.6812997,2.775033,3.7336620000000003,4.7196803,-1
125,126,1580693045531,3.8862997999999997,0.42929998,-4.348099700000001,2.3544004000000003,4.031031,5.261516599999999,-1
126,127,1580693045541,3.5398,0.66999996,-3.8820998999999996,2.0667899,4.1621666,5.667861,-1
127,128,1580693045551,3.2193,0.80259997,-3.3711,1.9425691000000003,4.1803913,6.5041459999999995,-1
128,129,1580693045561,3.1583997999999998,0.8303,-2.6375,2.1936345,4.260155999999999,7.098644999999999,-1
129,130,1580693045572,3.5077,0.9636,-1.9157,3.085628,4.5109444000000005,7.947773,-1
130,131,1580693045582,4.7906,1.3729,-0.44419998,3.6623433,4.721289,8.715545,-1
131,132,1580693045592,4.7906,1.3729,-0.44419998,3.8573556000000004,4.9124517,9.163338000000001,-1
132,133,1580693045602,4.9308,1.5630000000000002,-0.0063,3.6050167,5.032353400000001,9.044068,-1
133,134,1580693045612,4.6509,1.6725,-0.1251,2.9546173,4.8389406,8.679144,-1
134,135,1580693045623,3.2858998999999995,1.0529,-0.6049,2.2728827000000003,4.419304,8.560708,-1
135,136,1580693045633,2.7768,0.73569995,-0.7528,1.7905084999999998,4.111619999999999,8.409787,-1
136,137,1580693045644,2.1877,0.4199,-0.4023,1.1198639,3.7342556000000005,8.897572,-1
137,138,1580693045655,1.7155,0.2148,0.20109999,0.7920498,3.5823097,9.371681,-1
138,139,1580693045665,1.564,0.1786,0.6271,0.7688356,3.5799443999999996,9.889605,-1
139,140,1580693045675,1.8576,0.3109,0.80789995,1.2344313,3.7186358,10.035086,-1
140,141,1580693045686,2.2968,0.4271,0.85109997,1.6171396999999998,3.8312589999999997,10.05151,d
141,142,1580693045696,2.5822,0.45,0.8839,1.8565023,3.7807605000000004,10.066305999999999,-1
142,143,1580693045706,2.623,0.3875,0.7892,1.7870896,3.65925,9.963567,-1
143,144,1580693045716,2.3737,0.25599998,0.7929999999999999,1.4005411,3.5464354,10.0511465,-1
144,145,1580693045726,1.7861999,0.18899999999999997,0.9058,0.773059,3.4438004,10.205494999999999,-1
145,146,1580693045737,1.1687,0.074999996,1.1087999,0.10069054,3.3196277999999997,10.425054,-1
146,147,1580693045747,0.6662,-0.01,1.1773,-0.24830745,3.2351122,10.186983,-1
147,148,1580693045757,0.4104,-0.1259,0.7687,-0.22101355,3.1748455,9.628722,-1
148,149,1580693045767,0.49629998,-0.1495,0.2153,-0.038077384,3.2460587000000003,9.154336,-1
149,150,1580693045777,0.64629996,-0.062699996,-0.2109,0.24232194,3.3998334000000003,8.762203,-1
150,151,1580693045787,0.92359996,0.0901,-0.5312,0.525307,3.6198031999999998,8.641612,-1
151,152,1580693045798,1.1942999,0.3356,-0.4439,0.75432676,3.8107550000000003,9.111757,-1
152,153,1580693045809,1.3477,0.4777,0.1977,0.78861177,3.8332797999999997,9.811639999999999,-1
153,154,1580693045819,1.2802,0.46949998,0.8372,0.50249505,3.7165482000000005,10.33098,-1
154,155,1580693045829,1.0162,0.34149998,1.1344,0.2952051,3.489501,10.343182,-1
155,156,1580693045839,0.797,0.1269,1.091,0.10233776,3.3225870000000004,10.207678999999999,-1
156,157,1580693045849,0.5129,-0.0383,0.884,-0.27865633,3.2897959,9.830247,-1
157,158,1580693045859,0.2512,-0.0455,0.5424,-0.23405716,3.2725098,9.6211195,-1
158,159,1580693045870,0.41579998,-0.0374,0.3197,0.08110598,3.3785730000000003,9.393880000000001,-1
159,160,1580693045880,0.6296,0.0501,0.1556,0.32369608,3.3643322,9.393009,-1
160,161,1580693045890,0.81949997,-0.0047,0.1961,0.41478106,3.3911471,9.47355,-1
161,162,1580693045900,0.8785,0.0832,0.24479999,0.50208324,3.5831239999999998,9.390116,-1
162,163,1580693045910,0.96169996,0.2722,0.15529999,0.4878138,3.6312665999999996,9.366633,-1
163,164,1580693045921,0.90999997,0.29659998,0.15339999,0.24467784,3.6320326,9.349224000000001,-1
164,165,1580693045931,0.65279996,0.2837,0.14109999,0.0009959879,3.4496138,9.454386999999999,-1
165,166,1580693045941,0.40299999999999997,0.0848,0.2364,-0.34518644,3.3207674,9.529776,-1
166,167,1580693045951,0.051,-0.0168,0.3024,-0.5306125,3.2613049,9.681721000000001,-1
167,168,1580693045961,-0.0909,-0.052199997000000005,0.44739997,-0.42369708,3.3337152000000003,9.887564999999999,-1
168,169,1580693045972,0.2883,0.1862,0.6994,-0.11308293,3.503943,9.933428,-1
169,170,1580693045982,0.2883,0.1862,0.6994,0.28171134,3.6778002,9.972252000000001,-1
170,171,1580693045992,0.6412,0.3733,0.73749995,0.6085486,3.7856542999999996,10.053837,-1
171,172,1580693046002,0.9978,0.493,0.82449996,0.6699550999999999,3.8699489999999996,10.10988,-1
172,173,1580693046012,0.9984,0.5652,0.87189996,0.62752026,3.8352811,10.168557,-1
173,174,1580693046022,0.7528,0.42819998,0.8486,0.42323738,3.7341216,10.087337,-1
174,175,1580693046033,0.3644,0.27449998,0.76919997,-0.042578485,3.5242457000000003,10.034741,-1
175,176,1580693046043,-0.0268,0.0695,0.8768,-0.382603,3.3700589999999995,10.113539,-1
176,177,1580693046053,-0.4017,-0.0709,0.89739996,-0.8084836,3.1936352,10.149125999999999,-1
177,178,1580693046063,-0.6232,-0.0689,0.9784,-0.9744688,3.233829,10.215014,-1
178,179,1580693046073,-0.44509998,0.0273,0.9823,-0.7157993,3.383007,10.188516,-1
179,180,1580693046084,-0.1091,0.1205,0.75189996,-0.37917449999999997,3.4754902999999997,9.908002,-1
180,181,1580693046093,0.1056,0.14479999,0.3651,-0.20644721,3.481179,9.537158999999999,-1
181,182,1580693046103,0.18959999,0.083,0.1345,-0.15126567,3.4364742999999995,9.324563000000001,-1
182,183,1580693046113,0.2272,0.0832,-0.0087,-0.10106404,3.4763904,9.195314,-1
183,184,1580693046123,0.3414,0.19309999,0.0041,0.012938266,3.5986574,9.256922,-1
184,185,1580693046134,0.34399998,0.3538,0.3202,-0.03700478,3.7687800000000005,9.610795,-1
185,186,1580693046144,0.22639999,0.4851,0.67539996,-0.16450079999999997,3.8882697,9.919742999999999,-1
186,187,1580693046154,-0.0486,0.4957,0.7474,-0.4699435,3.8787506,9.938944000000001,-1
187,188,1580693046164,-0.3321,0.3653,0.5854,-0.76001537,3.6886604,9.6319685,-1
188,189,1580693046175,-0.4851,0.1245,0.1303,-0.9115109,3.4530327000000005,9.12303,-1
189,190,1580693046185,-0.5758,-0.0665,-0.32479998,-0.9547789000000001,3.3430622000000003,8.800358000000001,-1
190,191,1580693046195,-0.5592,-0.107,-0.4479,-0.9010722,3.3637865,8.752139,-1
191,192,1580693046206,-0.3394,0.033999998,-0.318,-0.62462807,3.5659049,8.973094999999999,-1
192,193,1580693046216,-0.1118,0.2083,-0.071899995,-0.45474508,3.7250330000000003,9.190708,-1
193,194,1580693046226,0.1147,0.3645,0.0656,-0.12406754,3.8645098,9.270733,-1
194,195,1580693046236,0.4288,0.4423,0.1443,0.17504488,3.9317582000000004,9.383135000000001,-1
195,196,1580693046247,0.5664,0.4319,0.2818,0.16389747,3.8799858,9.500001,-1
196,197,1580693046257,0.3911,0.34149998,0.32189998,-0.06668331,3.7262014999999997,9.490453,-1
197,198,1580693046267,0.1674,0.1406,0.2944,-0.43398258,3.527933,9.463494,-1
198,199,1580693046277,-0.1925,0.0162,0.25779998,-0.7539724,3.3887532,9.312918,-1
199,200,1580693046287,-0.4328,-0.1885,0.025899999,-0.8655518,3.206085,8.989299,-1
200,201,1580693046297,-0.4585,-0.3175,-0.303,-0.78116095,3.1778720000000003,8.747015,-1
201,202,1580693046307,-0.2915,-0.31039998,-0.4551,-0.5590556999999999,3.239259,8.719147,-1
202,203,1580693046317,0.066199996,-0.2434,-0.41169998,-0.20068198,3.30758,8.795627,-1
203,204,1580693046327,0.3533,-0.1357,-0.3297,0.12303323,3.4833717000000006,8.820889999999999,-1
204,205,1580693046337,0.613,0.0138,-0.3075,0.3948709,3.6067786,8.849592,-1
205,206,1580693046348,0.74899995,0.117199995,-0.31559998,0.32033459999999997,3.7193252999999995,8.820200999999999,-1
206,207,1580693046358,0.6035,0.19319999,-0.3146,0.14298172,3.7548456,8.897399,-1
207,208,1580693046368,0.41099998,0.23199999999999998,-0.19659999,-0.14725298,3.7336620000000003,9.036982,-1
208,209,1580693046378,0.17019999,0.1639,-0.108399995,-0.38014176,3.5888507000000005,9.068133999999999,-1
209,210,1580693046388,-0.0195,0.0178,-0.0791,-0.5101565,3.4481485,9.096606,-1
210,211,1580693046399,-0.12019999,-0.1389,-0.0592,-0.59126246,3.2809373999999996,9.084319,-1
211,212,1580693046409,-0.2136,-0.3279,-0.0874,-0.6617957,3.1397562000000003,9.027127,-1
212,213,1580693046419,-0.2832,-0.41349998,-0.16309999,-0.6572180000000001,3.253136,8.827910000000001,-1
213,214,1580693046429,-0.2523,-0.2688,-0.3647,-0.5267626999999999,3.4261985,8.63057,-1
214,215,1580693046439,-0.088999994,-0.1554,-0.52639997,-0.3667917,3.4380832000000003,8.598488,-1
215,216,1580693046449,0.006,-0.1469,-0.5324,-0.32590833,3.4393952000000003,8.59394,-1
216,217,1580693046459,0.0276,-0.1629,-0.5401,-0.32270965,3.3590937000000007,8.606811,-1
217,218,1580693046469,0.0126,-0.26319999,-0.5198,-0.39504328,3.329281,8.600873,-1
218,219,1580693046479,-0.0574,-0.2914,-0.5301,-0.41734767,3.2839446000000003,8.727651,-1
219,220,1580693046489,-0.0501,-0.31599998,-0.3752,-0.20441695,3.3112192000000005,8.9625025,-1
220,221,1580693046499,0.1813,-0.2409,-0.122899994,-0.024526202999999996,3.5203767,9.188458,-1
221,222,1580693046509,0.33399999999999996,-0.0285,0.0999,-0.07161536,3.5610492,9.333729,-1
222,223,1580693046519,0.2321,-0.0343,0.21579999,-0.3356958,3.4741879,9.400862,-1
223,224,1580693046530,-0.0543,-0.121999994,0.26459998,-0.5557804000000001,3.3525527000000004,9.375425,-1
224,225,1580693046540,-0.2525,-0.2333,0.21679999,-0.6015958,3.3133836000000003,9.141742,-1
225,226,1580693046550,-0.266,-0.2705,-0.0646,-0.52886,3.3779793,8.875172000000001,-1
226,227,1580693046560,-0.183,-0.2025,-0.2862,-0.47421476,3.5004282,8.722824000000001,-1
227,228,1580693046573,-0.24419999,0.0044,-0.39699998,-0.56733,3.6317549,8.731328,-1
228,229,1580693046583,-0.21409999,0.074499995,-0.3645,-0.51227295,3.7142496,8.764492,-1
229,230,1580693046594,-0.159,0.1244,-0.3516,-0.45689029,3.7594137,8.765077,-1
230,231,1580693046604,-0.1148,0.077599995,-0.2706,-0.39211276,3.7242095,8.844698,-1
231,232,1580693046614,-0.1083,0.014699998999999998,-0.0634,-0.37098634,3.645919,9.093628,-1
232,233,1580693046624,-0.1083,0.014699998999999998,-0.0634,-0.41854477,3.606386,9.240249,-1
233,234,1580693046634,-0.26659998,-0.0414,0.2391,-0.51793283,3.596656,9.350852,-1
234,235,1580693046644,-0.3337,0.022000000000000002,0.3256,-0.5935034,3.6524599,9.443354,-1
235,236,1580693046654,-0.2024,0.0178,0.4019,-0.46685020000000005,3.6451528,9.524709,-1
236,237,1580693046665,-0.06839999599999999,0.072299995,0.3803,-0.32663614,3.6973848,9.504425,-1
237,238,1580693046675,0.097799994,0.0674,0.36879998,-0.18009186,3.6872334,9.493623,-1
238,239,1580693046686,0.1379,0.0416,0.30879998,-0.1412579,3.681947,9.392434,-1
239,240,1580693046696,0.1591,0.1218,0.2006,-0.12197021400000001,3.7517047,9.321058,-1
240,241,1580693046706,0.19909999,0.1218,0.2304,-0.12608825,3.7065787000000006,9.437531,-1
241,242,1580693046717,0.1964,0.0901,0.3198,-0.13935211,3.6838815,9.402842999999999,-1
242,243,1580693046727,0.1525,0.035299998,0.2144,-0.18497603,3.616681,9.254011,-1
243,244,1580693046737,0.1175,-0.042,0.0709,-0.1934132,3.5651386,9.168941,-1
244,245,1580693046747,0.1405,-0.081199996,0.025899999,-0.22745875,3.5785654,9.109938,-1
245,246,1580693046757,0.0659,-0.0714,0.0299,-0.33592567,3.5905074999999997,9.188018,-1
246,247,1580693046767,-0.096599996,-0.041899998,0.083,-0.5359085,3.6494339,9.141867,-1
247,248,1580693046777,-0.2294,0.0058,-0.0201,-0.5753458,3.6592212,9.039643,-1
248,249,1580693046788,-0.24479999,-0.0558,-0.18159999,-0.5689390000000001,3.6175623,8.822192,-1
249,250,1580693046798,-0.1837,-0.0598,-0.43089998,-0.44329122,3.6860843,8.530292,-1
250,251,1580693046808,-0.0356,-0.0433,-0.5825,-0.25342146,3.6801274,8.49501,-1
251,252,1580693046818,0.101799995,-0.0337,-0.54899997,-0.25409183,3.7423290000000002,8.604637,-1
252,253,1580693046829,0.0524,0.048,-0.40899998,-0.2900336,3.8196616000000003,8.802244,-1
253,254,1580693046839,0.0121,0.1029,-0.1819,-0.34010112,3.8075852,8.974981,-1
254,255,1580693046849,-0.029099998999999998,0.0413,-0.0142,-0.43373358,3.7345238,9.133171,-1
255,256,1580693046859,-0.0906,-0.0109,0.0458,-0.44255382,3.6680989999999998,9.025661,-1
256,257,1580693046869,-0.08339999599999999,-0.0839,-0.0603,-0.38211459999999997,3.6135209,8.990006,-1
257,258,1580693046879,-0.0083,-0.1374,-0.07809999599999999,-0.24150792,3.6224656000000004,8.91821,-1
258,259,1580693046890,0.13679999,-0.11199999599999999,-0.1942,-0.18175821,3.6380851,8.857934,-1
259,260,1580693046900,0.1955,-0.055999997999999995,-0.1636,-0.20124702,3.8186943999999996,9.030431,-1
260,261,1580693046911,0.1188,0.0901,-0.0063,-0.27630046,3.8591945,9.119782,-1
261,262,1580693046921,0.033099998,0.078999996,0.053,-0.4240706,3.7672763,9.036760000000001,-1
262,263,1580693046931,-0.1026,-0.0033999997999999997,-0.043199997000000004,-0.45641148,3.7511873,8.949889,-1
263,264,1580693046941,-0.094299994,-0.0104,-0.1188,-0.3170785,3.7712796,8.772986999999999,-1
264,265,1580693046951,0.0081,-0.0098,-0.2819,-0.25740543,3.790232,8.650136,-1
265,266,1580693046962,0.069699995,-0.00029999999,-0.40539998,-0.110928155,3.8653714999999997,8.576797000000001,-1
266,267,1580693046972,0.2602,0.0898,-0.5003,0.047587153,3.9776022000000006,8.566004,-1
267,268,1580693046982,0.3082,0.2331,-0.28309998,-0.015035586,4.025199,8.772182,-1
268,269,1580693046992,0.2139,0.2263,-0.039,-0.10967359,4.0168095,9.020289,-1
269,270,1580693047002,0.2139,0.2263,-0.039,-0.20996192,3.9744897000000003,9.152391,-1
270,271,1580693047013,0.0683,0.184,0.1742,-0.26437733,3.97245,9.228977,-1
271,272,1580693047023,0.1325,0.1752,0.15439999,-0.20512563,3.9556425,9.210915,-1
272,273,1580693047033,0.1859,0.1838,0.0766,-0.15380351,3.9731011,9.129714,-1
273,274,1580693047043,0.14029999,0.1802,-0.0884,-0.20900422,3.9701612,8.960128,-1
274,275,1580693047053,0.0743,0.1556,-0.2333,-0.27594609999999997,3.9493794,8.81819,-1
275,276,1580693047063,0.112799995,0.1501,-0.2311,-0.23727496,3.9471192000000004,8.812645,-1
276,277,1580693047074,0.19649999,0.233,-0.22899999,-0.14689864,4.034249,8.819894999999999,-1
277,278,1580693047084,0.2701,0.2294,-0.159,-0.04825753,4.0197687,8.899219,-1
278,279,1580693047094,0.32729998,0.19049999,-0.0219,-0.010266337,3.9999259,9.060827,-1
279,280,1580693047105,0.21249999,0.16489999,0.18239999,-0.12478579,3.9735034,9.23138,-1
280,281,1580693047115,0.050699997999999996,0.12109999,0.3766,-0.31708807,3.9275919999999998,9.446361999999999,-1
281,282,1580693047125,-0.033,0.1046,0.4637,-0.39134663,3.9023287000000004,9.526749,-1
282,283,1580693047135,-0.0694,0.1048,0.36569998,-0.4281982,3.9049144,9.416607,-1
283,284,1580693047145,-0.0469,0.121599995,0.11199999599999999,-0.36734718,3.910804,9.132185,d
284,285,1580693047155,0.14989999,0.10759999599999999,0.0157,-0.1560828,3.9249394,9.060014,-1
285,286,1580693047166,0.2949,0.1721,0.0174,-0.0081402855,4.0149803,9.097967,-1
286,287,1580693047176,0.4193,0.2472,0.1265,0.10319967,4.0587273,9.213395,-1
287,288,1580693047186,0.4073,0.2252,0.24509999,0.04652413,4.0226517,9.3040495,-1
288,289,1580693047196,0.2408,0.1548,0.24589999,-0.19140205,3.940291,9.254192999999999,-1
289,290,1580693047206,0.0665,0.0255,0.17809999,-0.30443709999999996,3.7946181000000005,9.229916000000001,-1
290,291,1580693047217,0.039,-0.044099998,0.2276,-0.34728375,3.772151,9.332311,-1
291,292,1580693047227,-0.0185,-0.043199997000000004,0.4529,-0.35305858,3.802519,9.653872,-1
292,293,1580693047237,-0.0163,-0.0116,0.67759997,-0.36382288,3.796275,9.7460575,-1
293,294,1580693047247,0.0162,-0.0301,0.8145,-0.31247205,3.8010057999999995,9.899229,-1
294,295,1580693047257,0.0663,-0.0231,0.8452,-0.27404029999999996,3.7611952000000004,9.811946,-1
295,296,1580693047268,0.06399999599999999,-0.0704,0.7014,-0.30199504,3.7452497000000005,9.688262,-1
296,297,1580693047278,0.050499998,-0.1013,0.5883,-0.2997349,3.7719116,9.584171000000001,-1
297,298,1580693047288,0.0853,-0.0058999998,0.5543,-0.24386382,3.8918517,9.574641999999999,-1
298,299,1580693047298,0.2179,0.1582,0.5985,-0.089935794,4.035436600000001,9.58578,-1
299,300,1580693047308,0.4691,0.28419998,0.5248,0.20569065,4.2033467,9.677258,-1
300,301,1580693047318,0.5870000000000001,0.3453,0.7732,0.30071172,4.2412324,9.904065,-1
301,302,1580693047328,0.6314,0.3597,0.9325,0.25129542,4.2398725,9.950569999999999,-1
302,303,1580693047339,0.5426,0.3635,0.93549997,0.11952812,4.2511253,9.975029,-1
303,304,1580693047349,0.4642,0.3349,0.9888,0.019536685,4.192611,10.098839,-1
304,305,1580693047359,0.33519998,0.2339,1.2006,-0.19363345,4.1101737,10.329371,-1
305,306,1580693047369,0.1558,0.1767,1.3459999999999999,-0.29396009999999995,4.0741076000000005,10.302537,-1
306,307,1580693047379,0.0729,0.102,1.2398,-0.33169273,3.9990256,10.013183999999999,-1
307,308,1580693047389,0.0764,0.0,0.98999995,-0.2088127,3.9645586,9.74624,-1
308,309,1580693047399,0.2656,-0.098699994,0.6058,0.008724471999999999,3.9078925000000004,9.227903999999999,-1
309,310,1580693047410,0.45769998,-0.20109999,0.0766,0.19212031,3.8130726999999998,8.682016,-1
310,311,1580693047420,0.60719997,-0.3117,-0.2859,0.18275422,3.7343895,8.555066,-1
311,312,1580693047431,0.52919996,-0.4858,-0.317,-0.011683704,3.5415892999999996,8.502317,-1
312,313,1580693047440,0.4414,-0.68329996,-0.39909998,-0.07431602,3.3590362000000002,8.255897500000001,-1
313,314,1580693047450,0.4123,-0.8879,-0.67789996,-0.1005469,3.2543523,7.918189999999999,-1
314,315,1580693047460,0.47689998,-1.0547,-1.1025,-0.08827901,2.9831464,7.223814,-1
315,316,1580693047470,0.50189996,-1.3539,-1.75,-0.014623783999999999,2.6499217,6.294289,-1
316,317,1580693047481,0.6224,-1.7585,-2.7368,0.025656266,2.131031,5.019482,-1
317,318,1580693047491,0.659,-2.3379,-4.0137997,-0.1430296,1.5421053,3.5698027999999997,-1
318,319,1580693047501,0.5591,-2.8745,-5.1702,-0.21094832,1.2820854,2.334021,-1
319,320,1580693047511,0.49769998,-3.2077,-6.3746,-0.36453158,1.1694046999999999,0.8359306999999999,-1
320,321,1580693047521,0.35259998,-3.3641,-7.8437996,-0.49093586,1.1403391,-0.35685098,-1
321,322,1580693047531,0.2083,-3.4856,-9.2859,-0.7997112,0.8038867,-2.062097,-1
322,323,1580693047542,-0.1241,-3.9208,-11.046,-1.3299981,0.24995466,-4.1520243,-1
323,324,1580693047552,-0.5408,-4.4142,-12.732699,-1.5204426000000002,-0.0060429648,-5.38501,-1
324,325,1580693047562,-0.72319996,-4.6882997,-13.9513,-1.8243912,-0.4006553,-6.5615587,-1
325,326,1580693047572,-1.361,-5.4098997,-15.453899,-2.2408102000000003,-0.75621337,-6.8796234,-1
326,327,1580693047583,-1.9733,-5.6145997,-16.0889,-2.6203005,-1.0919858,-7.8545046,-1
327,328,1580693047593,-1.9733,-5.6145997,-16.0889,-2.1168575,-1.4604629999999998,-7.889755999999999,-1
328,329,1580693047603,-1.2581999,-6.0803,-15.6917,-1.5901331,-1.5808052,-6.7171245,-1
329,330,1580693047613,-0.64849997,-6.1133,-14.1668,-0.8758948000000001,-1.7294756000000002,-5.115480000000001,-1
330,331,1580693047623,0.14379999,-5.8219,-12.657,-0.12399092,-1.5910429,-3.8251681000000004,-1
331,332,1580693047633,1.2346,-5.4855,-10.7261,1.2883200000000001,-1.4531558999999998,-1.3906288999999998,-1
332,333,1580693047644,1.8707999,-5.232,-9.063499,1.7891582,-1.4475917999999999,-0.028835766000000002,-1
333,334,1580693047654,1.5059999,-5.4757,-8.3691,1.4705378999999998,-1.9363728999999998,0.78468525,-1
334,335,1580693047664,1.5059999,-5.4757,-8.3691,-0.033116598,-3.0663404,0.41304767,-1
335,336,1580693047674,-0.8002,-7.6886997,-8.5484,-0.8016840999999999,-4.9499927,1.0033429,-1
336,337,1580693047684,-1.3532,-8.2459,-7.1812,-1.1798339,-5.492098,2.2383869,-1
337,338,1580693047694,-1.1178,-8.012199,-3.7359998,-0.5097447,-5.591208,6.711081500000001,-1
338,339,1580693047704,0.3954,-7.3648,0.7881,1.1849096000000001,-5.1530309999999995,11.221911,-1
339,340,1580693047714,2.1857998,-6.0116,4.8578,2.722619,-4.392326000000001,14.525862,-1
340,341,1580693047724,4.6693,-4.245899700000001,7.3430995999999995,5.610333,-2.8223138,17.122374,-1
341,342,1580693047734,5.6565,-3.0031,7.0443997000000005,6.1885805,-2.2603755000000003,16.819035999999997,-1
342,343,1580693047744,4.6833,-3.4434998,7.8156,4.810583599999999,-3.3786974,17.989391,-1
343,344,1580693047754,2.592,-4.5197,9.9875,3.1248164000000003,-4.5437255,19.786104,-1
344,345,1580693047765,0.6179,-5.0857997,12.7332,0.89908975,-5.541140599999999,22.993118,-1
345,346,1580693047775,-0.8655,-5.0014,14.2247,-0.53108186,-5.487846,23.828255,-1
346,347,1580693047785,-1.1761,-4.2187,13.2501,-0.29797277,-5.0479827,22.659029999999998,-1
347,348,1580693047795,-0.2538,-3.6322,11.374499,0.78744334,-4.5890527,20.049582,-1
348,349,1580693047805,0.17729999,-3.0024,8.606999,1.0464003000000002,-4.305234400000001,17.39399,-1
349,350,1580693047816,0.65749997,-2.6892998,7.3724,1.3974476,-4.276379599999999,17.028328,-1
350,351,1580693047826,1.9059,-1.8127999,9.441,3.0284927,-3.1865962000000003,20.20985,-1
351,352,1580693047836,2.5792,-0.71099997,12.351299000000001,3.1172986000000003,-2.6616435000000003,22.956745,-1
352,353,1580693047846,1.7895,-0.39389998,14.3626995,2.1890377999999995,-2.7115674,23.975307,-1
353,354,1580693047856,0.59279996,-0.4486,14.1728,0.9127175999999999,-3.014597,23.215406,-1
354,355,1580693047866,-0.0928,-0.3554,12.875299,0.33891362,-2.8269968,21.089363,-1
355,356,1580693047877,-0.1706,-0.0416,10.6455,0.6287653,-2.7287962,18.986632999999998,-1
356,357,1580693047887,0.4289,0.081,8.0341,1.1260313999999998,-2.6898952,16.506413000000002,-1
357,358,1580693047897,0.7021,0.1759,5.9083,1.2839912,-2.6119592000000003,14.648109,-1
358,359,1580693047907,0.8128,0.3071,4.5962,1.2743761999999998,-2.5324812000000003,13.707695000000001,-1
359,360,1580693047917,0.6653,0.39569998,4.4246,0.88490653,-2.5313609,14.367642000000002,-1
360,361,1580693047927,0.26999998,0.49519998,5.5813,0.5808429,-2.3523417,15.685718,-1
361,362,1580693047937,-0.0084999995,0.7015,6.6823997,0.42030690000000004,-2.382068,16.165678,-1
362,363,1580693047948,-0.1363,0.6611,6.8513,0.24515668,-2.4756715,16.058016000000002,-1
363,364,1580693047958,-0.4003,0.7572,6.5066,0.017535133,-2.2985868,15.310585000000001,-1
364,365,1580693047968,-0.3691,0.9533,5.6461997,0.27162698,-2.2021484,14.262087,-1
365,366,1580693047978,-0.0288,1.1209999,4.554199700000001,0.605168,-1.9677944,13.179276000000002,-1
366,367,1580693047988,0.2977,1.3059,3.5367,0.8455554,-1.9058707,12.31767,-1
367,368,1580693047998,0.5121,1.3878,2.7628,1.0261931,-1.6810744,11.682717,-1
368,369,1580693048008,0.6902,1.6465,2.2835,1.1711861000000001,-1.5184027,11.491105000000001,-1
369,370,1580693048018,0.7629,1.7824,2.1984,1.1591672,-1.4882262,11.543787,-1
370,371,1580693048028,0.6583,1.7397,2.3221,0.84561294,-1.7216991999999998,11.626741,-1
371,372,1580693048038,0.3383,1.4907999,2.4487,0.39845264,-2.09349,12.033593,-1
372,373,1580693048048,-0.20699999,1.0625,3.0677998,-0.12632766,-2.4203942000000005,12.645283000000001,-1
373,374,1580693048059,-0.65709996,0.88729995,3.5684,-0.38696045,-2.5271757000000004,12.727307000000001,-1
374,375,1580693048069,-0.72249997,0.8346,3.3379998,-0.31794040000000007,-2.5917902,11.952563,-1
375,376,1580693048079,-0.6258,0.7608,2.5705,-0.24619098,-2.6328366,11.342004,-1
376,377,1580693048089,-0.4899,0.7176,1.8359,-0.07783071,-2.5353541,10.522047,-1
377,378,1580693048099,-0.3716,0.7999,1.1366999,0.09133401,-2.429722,9.810462,-1
378,379,1580693048109,-0.19559999,0.83959997,0.4463,0.46020390000000005,-2.3055396,9.383872,-1
379,380,1580693048119,0.2183,0.9623,0.091,0.8673139000000001,-2.1261566000000003,9.472669,-1
380,381,1580693048130,0.5999,1.1064,0.27899998,0.9225530000000001,-2.1357715,9.929453,-1
381,382,1580693048140,0.5599,1.0570998999999999,0.73579997,0.60765797,-2.2944114,10.081974,-1
382,383,1580693048150,0.275,0.84709996,0.77269995,0.31305623,-2.5846270000000002,9.890467,d
383,384,1580693048160,0.015899998999999998,0.5588,0.5743,0.06656838,-2.8412375,9.740867999999999,-1
384,385,1580693048170,-0.1765,0.3168,0.434,-0.05083369,-2.9922543,9.575514,-1
385,386,1580693048181,-0.22699999999999998,0.14899999,0.2826,-0.208851,-3.2090442,9.430464,-1
386,387,1580693048191,-0.3441,-0.052899998,0.12979999,-0.26187778,-3.3021214,9.272312,-1
387,388,1580693048201,-0.37019998,-0.1814,-0.06359999599999999,-0.16541061,-3.3379195,9.14835,-1
388,389,1580693048211,-0.2843,-0.2139,-0.15959999,0.04102704,-3.32614,9.235192,-1
389,390,1580693048221,-0.0233,-0.2048,-0.019299998999999998,0.46647668,-3.1518132999999997,9.759666000000001,-1
390,391,1580693048232,0.33859998,-0.0722,0.4464,0.63340044,-3.0414214,10.17325,-1
391,392,1580693048242,0.5305,0.0363,0.8551,0.49337792,-3.0581713,10.106241,-1
392,393,1580693048252,0.1331,-0.1197,0.6917,0.1970811,-3.1775177,10.020213,-1
393,394,1580693048262,0.1331,-0.1197,0.6917,0.08064629,-3.2911558,9.918546000000001,-1
394,395,1580693048272,0.0345,-0.24149999,0.57919997,-0.19870916,-3.4569495000000003,9.72701,-1
395,396,1580693048282,-0.20799999,-0.42700000000000005,0.3867,-0.45984949999999997,-3.544022,9.6342,-1
396,397,1580693048292,-0.4649,-0.547,0.2816,-0.48541963,-3.4974977999999997,9.630571,-1
397,398,1580693048302,-0.33429998,-0.40089998,0.4159,-0.28069618,-3.3331980000000003,9.810251,-1
398,399,1580693048313,0.0084999995,-0.2191,0.73499995,0.053189587,-3.1257452999999997,10.185939999999999,-1
399,400,1580693048323,0.2479,-0.011899999,1.1932,0.26260559999999994,-2.9242396,10.665374,-1
400,401,1580693048333,0.3936,0.1301,1.6428,0.38336915,-2.7501812,11.111911,-1
401,402,1580693048343,0.4059,0.2624,1.8964,0.31627405,-2.6658862,11.332771000000001,-1
402,403,1580693048353,0.35099998,0.3041,2.0414,0.24423730000000002,-2.6164508,11.459157000000001,-1
403,404,1580693048364,0.2514,0.37359998,2.2545,0.13022542,-2.5119677000000005,11.719024000000001,-1
404,405,1580693048374,0.2522,0.5887,2.9378998,0.15237658,-2.2772787,12.538339,-1
405,406,1580693048384,0.2074,0.75509995,4.1018,0.06978619,-2.1076636000000004,13.676245000000002,-1
406,407,1580693048394,-0.0637,0.84919995,4.8135,-0.37349546,-2.0660524,14.381642999999999,-1
407,408,1580693048404,-0.5381,0.57339996,5.2486,-0.67173636,-2.2886462000000005,14.642678,-1
408,409,1580693048414,-1.1565,0.10529999400000001,5.6229997,-1.4477642,-2.7909113999999997,15.041926,-1
409,410,1580693048424,-1.7991999,-0.25169998,5.6721,-2.0436044,-3.1046283,15.138460999999998,-1
410,411,1580693048435,-2.1346,-0.5157,6.2495,-2.3760154,-3.272194,15.829360000000001,-1
411,412,1580693048445,-2.4585,-0.4617,7.0216,-2.6998932,-3.1265593,16.598656,-1
412,413,1580693048455,-2.5279999,-0.3814,7.6334995999999995,-2.6555338,-2.9977417,17.265573999999997,-1
413,414,1580693048465,-2.2402,-0.311,8.0146,-2.4277875,-2.8537352000000005,17.524760999999998,-1
414,415,1580693048475,-2.0181,-0.2747,7.9291,-2.1998403,-2.7468867,17.327719000000002,-1
415,416,1580693048485,-1.851,-0.4105,7.2303,-2.0649797999999997,-2.774621,16.460567,-1
416,417,1580693048495,-1.7630000000000001,-0.57409996,6.4605,-1.9439578000000002,-2.7788445999999998,15.762495000000001,-1
417,418,1580693048506,-1.6465,-0.7107,5.8472,-1.883145,-2.6692765,15.268657999999999,-1
418,419,1580693048516,-1.5340999,-0.5826,5.4405,-1.7092589,-2.42185,15.012285999999998,-1
419,420,1580693048526,-1.1645,-0.4258,5.1721,-1.27429,-2.0189824,14.679894,-1
420,421,1580693048536,-0.9677,-0.3285,4.5913997,-1.0833858,-1.8100643,13.944432999999998,-1
421,422,1580693048546,-0.8481,-0.4551,3.6211,-1.0284054,-1.7733182,12.967829,-1
422,423,1580693048557,-0.8901,-0.6422,2.6155,-1.0801585,-1.7906426,11.923411999999999,-1
423,424,1580693048567,-1.0143,-0.88449997,1.4083999,-1.215268,-1.8466287000000001,10.706994,-1
424,425,1580693048578,-1.111,-0.99899995,0.4219,-1.3776715,-1.5832184999999999,10.045285,-1
425,426,1580693048588,-1.2724999,-0.8904,0.4303,-1.6361879,-1.2975328000000002,10.909831,-1
426,427,1580693048598,-1.5451,-0.8064,1.2365,-1.997923,-1.1187912,11.294015,-1
427,428,1580693048608,-1.8834,-0.82909995,1.4958,-2.0184557,-1.1622795,11.210016,-1
428,429,1580693048619,-1.8259999999999998,-1.0471,1.3355,-1.7530345,-1.1710519,10.874014,-1
429,430,1580693048629,-1.5359,-1.1862,0.96199995,-1.2806681,-0.9776386999999999,10.376183000000001,-1
430,431,1580693048639,-1.0388,-1.1711,0.4838,-0.8449233,-0.8853375,9.987728,-1
431,432,1580693048649,-0.65209997,-1.2309999999999999,0.0871,-0.7735283000000001,-0.6667852,9.40068,-1
432,433,1580693048659,-0.6155,-1.1520000000000001,-0.5516,-0.9017809000000001,-0.40145975,8.600863,-1
433,434,1580693048670,-0.72279996,-1.0457,-1.3246,-1.1043878,-0.12682566,7.790311,-1
434,435,1580693048679,-0.935,-0.99109995,-2.1926,-1.4974008,-0.058284447,6.642933,-1
435,436,1580693048689,-1.3406999,-1.0931,-3.3225,-1.8130236000000002,-0.063704915,5.8346504999999995,-1
436,437,1580693048699,-1.6722,-1.3228999,-4.2545,-2.1015537,-0.14095144,4.994094400000001,-1
437,438,1580693048709,-1.8519999999999999,-1.4764,-4.7843,-2.078799,-0.051235918,4.9215403,-1
438,439,1580693048719,-1.6754999,-1.5282999,-4.6096,-1.59586,-0.12947842,5.713580599999999,-1
439,440,1580693048730,-1.2458999,-1.7019999,-3.761,-1.0717788000000001,-0.15588169,6.6591845,-1
440,441,1580693048740,-0.615,-1.7961999,-2.8167999,-0.25388116,-0.038728606,7.296942,-1
441,442,1580693048750,0.3983,-1.6256,-2.2265,0.5832371000000001,0.36991373,7.250638499999999,-1
442,443,1580693048760,0.9259,-1.3571,-2.5277,0.5679238,0.63949126,6.592607000000001,-1
443,444,1580693048771,0.8257,-1.2198,-3.1116998,0.08359595,0.53525734,6.420607599999999,-1
444,445,1580693048781,0.3757,-1.4717,-3.1815999,-0.50128835,0.014853627,6.1207004000000005,-1
445,446,1580693048791,-0.0916,-2.0274,-3.4671,-0.9603526,-0.42962512,5.607824,-1
446,447,1580693048802,-1.2955999,-3.0382,-4.6408,-1.7074201,-0.8807405999999999,4.92472,-1
447,448,1580693048812,-1.2955999,-3.0382,-4.6408,-1.9973484000000001,-0.9348975,4.6459193,-1
448,449,1580693048822,-1.6062,-3.1836,-4.8959,-1.8514936000000002,-0.68352544,4.573940299999999,-1
449,450,1580693048832,-0.5748,-2.6639999999999997,-4.6734,-0.9009573000000001,-0.24902572,4.832572,-1
450,451,1580693048842,0.6046,-2.1055,-4.1960998,0.34045547,0.38554308,5.2864547,-1
451,452,1580693048852,1.5130999,-1.8637999,-3.9355,1.2937787,0.69230735,5.539646599999999,-1
452,453,1580693048863,1.5130999,-1.8637999,-3.9355,1.1051444,0.6941653,5.598965,-1
453,454,1580693048873,0.68909997,-1.9017998999999999,-3.7405998999999994,0.53608096,0.76376945,5.705929,-1
454,455,1580693048883,0.44219998,-1.8147,-3.7366998,0.30717608,0.90616703,5.6950874,-1
455,456,1580693048893,0.7319,-1.6611999,-3.6141,0.6465494,1.1049241,5.80614,-1
456,457,1580693048903,1.4370999,-1.3036,-3.2159998,1.4110466999999998,1.5175121,6.1875176,-1
457,458,1580693048913,2.1441,-1.0044,-2.6211,2.3000712000000005,1.9193069999999999,6.9286284,-1
458,459,1580693048924,2.3599,-0.87189996,-1.8783,2.4748096,2.0632272,7.493094999999999,-1
459,460,1580693048934,2.1943998,-0.7507,-1.7717999,2.3559612999999997,2.2363087999999998,7.5765275999999995,-1
460,461,1580693048944,1.8984,-0.88589996,-2.0567,2.1123562000000002,2.1620214,7.2761416,-1
461,462,1580693048954,1.3715,-0.9022,-2.3909,1.6008111,2.1954830000000003,6.921512599999999,-1
462,463,1580693048964,0.81,-1.0114,-2.8149998,0.9923487,2.0966406,6.3796186,-1
463,464,1580693048975,0.6611,-1.2197,-3.2519,0.9180519,1.9704088,6.0308504,-1
464,465,1580693048985,1.1041,-1.0136,-3.3007,1.5859767,2.3436362999999996,6.1022167000000005,-1
465,466,1580693048995,1.6743,-0.70519996,-2.8443,2.0393522,2.5813900000000003,6.547806700000001,-1
466,467,1580693049005,2.0948,-0.3083,-2.1561,2.3881203999999996,3.1129029,7.3541255,-1
467,468,1580693049016,2.1598,0.053299997,-1.6064,2.4181821,3.3315508,7.7697015,-1
468,469,1580693049025,2.1076,0.0409,-1.4877,2.3078667999999998,3.2419791,7.763582,-1
469,470,1580693049035,1.6918,-0.1721,-1.6811999,1.7505924,3.0135336,7.415474400000001,-1
470,471,1580693049046,1.2911,-0.3202,-2.0499,1.5321167,2.9052583999999997,7.151901700000001,-1
471,472,1580693049056,1.3442999,-0.3392,-1.9578999,1.7184335,2.9996953,7.479112599999999,-1
472,473,1580693049066,1.5306,-0.18439999,-1.4172,1.8285668000000002,3.1234467,8.031599,-1
473,474,1580693049076,1.4475,-0.1301,-1.0655999,1.6494134999999999,3.1283596,8.236399,-1
474,475,1580693049086,1.0899999,-0.1691,-1.0395,1.3376118000000001,3.0642237999999997,8.201921,-1
475,476,1580693049097,0.7762,-0.32389998,-1.1122999,0.94136184,2.8889298,8.093110000000001,-1
476,477,1580693049107,0.4005,-0.3602,-1.2148,0.67962766,2.8940535,8.186513,-1
477,478,1580693049117,0.3883,-0.2972,-0.8955,0.83347905,2.9905397999999996,8.627966,-1
478,479,1580693049127,0.5712,-0.18349999,-0.5078,1.0571262,3.0623565,8.877767,-1
479,480,1580693049137,0.7107,-0.1094,-0.3355,1.1801882,3.1067355,9.000005,-1
480,481,1580693049147,0.81979996,-0.0069999998,-0.29009998,1.2685246000000001,3.2109597,8.909561,-1
481,482,1580693049157,0.8247,0.065799996,-0.41149998,1.2583925,3.2310805,8.816456,-1
482,483,1580693049168,0.74539995,0.023,-0.4454,1.0510641,3.126684,8.9618225,d
483,484,1580693049178,0.4511,0.0026,-0.2252,0.80774623,3.1697602000000002,9.345335,-1
484,485,1580693049188,0.2823,0.1017,0.26909998,0.7788816999999999,3.2449477000000004,9.776368,-1
485,486,1580693049198,0.2874,0.191,0.6755,0.8398476999999999,3.3302864999999997,9.999728,-1
486,487,1580693049208,0.3155,0.2681,0.65099996,0.9019245000000001,3.3142072999999996,9.918756,-1
487,488,1580693049218,0.3292,0.2358,0.5582,0.8604378,3.2521207000000003,9.770038000000001,-1
488,489,1580693049229,0.24859999,0.2417,0.38709998,0.78915757,3.283389,9.723744,-1
489,490,1580693049239,0.2067,0.2767,0.44169998,0.80081254,3.3635662,9.845915,-1
490,491,1580693049249,0.21229999,0.4098,0.5455,0.8655613999999999,3.5236902000000003,9.872548,-1
491,492,1580693049259,0.2555,0.56119996,0.5518,0.96656793,3.5308633,9.938514,-1
492,493,1580693049269,0.3549,0.5345,0.61759996,1.0098646999999998,3.4474492,10.030699,-1
493,494,1580693049279,0.3419,0.4073,0.7435,0.9322159,3.2633736,10.226411,-1
494,495,1580693049290,0.2455,0.27719998,0.94909996,0.8902599,3.1062279,10.603335000000001,-1
495,496,1580693049300,0.162,0.1339,1.3328999,0.9643749,3.0988729999999998,10.962111,-1
496,497,1580693049310,0.25849998,0.16239999,1.6895,1.3941245,3.2925443999999997,11.238153,-1
497,498,1580693049320,0.76299995,0.3924,1.9399998999999999,2.2469294,3.5941565000000004,11.295413,-1
498,499,1580693049331,1.9645,0.8454,1.9562,3.9566865,4.317636,11.246245,-1
499,500,1580693049341,3.3284,1.4444,1.943,5.1182194,4.631880000000001,11.32875,-1
500,501,1580693049351,4.376,1.6212,2.0569,5.567151,4.504623400000001,11.450107000000001,-1
501,502,1580693049361,4.5973,1.4422,2.1417,5.1895185,3.877611,11.396889,-1
502,503,1580693049371,4.2253,0.85569996,2.1101,4.8224105999999995,3.4345303,11.380953,-1
503,504,1580693049381,3.7886998999999997,0.3111,2.1207,5.017403599999999,3.3572165999999997,11.674252000000001,-1
504,505,1580693049392,3.9847,0.2802,2.4097,5.577609,3.6455742999999994,11.896903,-1
505,506,1580693049402,5.0097,0.78529996,2.7900999,7.293572,4.3075137,12.399388,-1
506,507,1580693049412,6.4944,1.2609,3.2495,9.209747,4.762153,12.870577,-1
507,508,1580693049422,8.030499,1.5897,3.6488998,10.686711,4.8667607,12.864658,-1
508,509,1580693049433,10.0478,1.3095,3.8588998,11.258780999999999,4.571115,13.043285000000001,-1
509,510,1580693049443,9.9713,0.7233,4.0653,11.1792555,4.035494,13.226652,-1
510,511,1580693049453,9.4425,-0.062299997,4.0894,10.647761000000001,3.3298267999999998,13.234333,-1
511,512,1580693049463,8.7834,-0.61399996,4.0783,9.854295,2.8334612999999997,13.171748000000001,-1
512,513,1580693049473,8.7834,-0.61399996,4.0783,9.76366,2.9289419999999997,12.988774000000001,-1
513,514,1580693049484,8.7044,-0.7144,3.5219,9.840083,2.8574892999999997,12.257786,-1
514,515,1580693049494,8.810699000000001,-0.988,2.7886999,9.885467,2.70065,11.686242,-1
515,516,1580693049505,8.903999,-1.4728,2.3713999,9.827116,2.2565255,11.254041,-1
516,517,1580693049515,8.5771,-2.1706,1.8405999,9.143207,1.4710933000000002,10.462297,-1
517,518,1580693049525,7.8616996,-3.0916997999999998,1.04,8.20423,0.58788186,9.448841999999999,-1
518,519,1580693049535,7.1809997999999995,-3.9761998999999997,0.036599997,7.532992,-0.066932306,8.380825999999999,-1
519,520,1580693049546,6.4579,-4.7808,-1.3176,6.449357,-0.7091147,6.855385000000001,-1
520,521,1580693049556,5.1972,-5.4056997,-2.8072,5.2061725,-1.0913346000000002,5.6921096,-1
521,522,1580693049566,3.78,-5.936,-3.8937,3.4220324,-1.5646586,4.3966064000000005,-1
522,523,1580693049576,2.5777,-6.3223996,-4.9203997,2.1993709999999997,-1.7833738000000001,3.2472365,-1
523,524,1580693049586,1.7524998999999999,-6.5256,-6.1236,1.5574473999999998,-1.8280208999999998,2.2286859,-1
524,525,1580693049596,1.4003999,-6.6998,-7.2606997,1.014385,-1.9493015,0.94217587,-1
525,526,1580693049606,0.9179999999999999,-6.9177,-7.9434,0.35211045,-2.1146164,0.42456856,-1
526,527,1580693049617,0.2251,-7.204799700000001,-8.253099,-0.5344433000000001,-2.4402470000000003,0.027274746000000002,-1
527,528,1580693049627,-0.7542,-7.6572,-8.867499,-2.170928,-2.9075377000000002,-0.9472037,-1
528,529,1580693049637,-2.2294,-7.9406996,-9.7081995,-3.7287872,-3.0210326000000003,-1.7161639,-1
529,530,1580693049647,-3.4973998,-7.9389,-10.333799,-4.92879,-2.8960838,-2.085474,-1
530,531,1580693049657,-4.6303,-7.6682997,-10.6737995,-5.906639,-2.5832956,-2.4295115000000003,-1
531,532,1580693049667,-5.5115,-7.3164,-10.9501,-6.530482,-2.3870766,-2.542652,-1
532,533,1580693049677,-5.8438,-7.2627997,-10.9944,-7.037574,-2.4650412,-2.5654352000000005,-1
533,534,1580693049688,-6.5699997,-7.4272,-11.1107,-7.8926487000000005,-2.9054403,-2.9190202000000003,-1
534,535,1580693049698,-7.4771,-8.0573,-11.6775,-8.790532,-3.8534962999999998,-3.2625213,-1
535,536,1580693049708,-8.5748,-8.9307995,-11.8721,-10.0071125,-4.504346,-3.1492085,-1
536,537,1580693049718,-9.8063,-9.2217,-11.307,-10.895964,-4.6515699999999995,-2.049513,-1
537,538,1580693049728,-10.7799,-8.9532995,-9.5575,-11.751614,-4.153308,0.45595178,-1
538,539,1580693049738,-11.1938,-8.077,-7.4354997,-11.79172,-3.4478705,2.7494917,-1
539,540,1580693049749,-11.095099000000001,-7.2444,-5.4881,-11.542053999999998,-3.1021862000000002,4.046037999999999,-1
540,541,1580693049759,-10.8446,-6.8680997,-4.7755,-11.025634,-3.1169057000000002,4.4984465,-1
541,542,1580693049769,-10.2731,-6.8662,-4.4718,-10.293592,-3.428813,4.7258863,-1
542,543,1580693049779,-9.48,-7.1489997,-4.5123,-10.0338125,-4.1136026,4.6529584,-1
543,544,1580693049789,-10.057799000000001,-7.5094,-4.6001,-11.424384,-4.799780999999999,4.813428,-1
544,545,1580693049799,-11.6327,-8.0106,-4.3774,-12.893848,-5.2911954,5.429896,-1
545,546,1580693049810,-13.5076,-8.2219,-3.5319,-14.753395999999999,-5.6889873,7.2646213,-1
546,547,1580693049820,-14.8643,-8.3301,-1.7181,-15.265123999999998,-6.191884,9.962052,-1
547,548,1580693049831,-15.1988,-8.573999,0.92289996,-14.0966,-6.9165516,12.304166,-1
548,549,1580693049842,-12.0552,-8.5756,3.3783998,-11.887652000000001,-6.8703246,13.036916999999999,-1
549,550,1580693049852,-12.0552,-8.5756,3.3783998,-10.480178,-6.611875500000001,12.681388,-1
550,551,1580693049862,-9.9516,-7.6955,1.8218,-9.557893,-6.4730597,11.558717999999999,-1
551,552,1580693049872,-9.5184,-7.2046,2.7965,-9.052313999999999,-6.237824400000001,12.550252,-1
552,553,1580693049882,-9.5184,-7.2046,2.7965,-8.694122,-6.3641996,15.054060999999999,-1
553,554,1580693049893,-9.2147,-7.0445,5.2757,-8.498832,-6.788614999999999,17.348616,-1
554,555,1580693049903,-8.9939995,-7.2798,8.0668,-7.820458400000001,-7.434369599999999,19.61512,-1
555,556,1580693049913,-7.7348,-7.9076,10.008699,-6.851189999999999,-8.267054,19.60584,-1
556,557,1580693049923,-7.7348,-7.9076,10.008699,-6.3133183,-8.527285000000001,19.024279,-1
557,558,1580693049933,-7.0195,-8.0981,9.2436,-5.5734905999999995,-8.903663,18.57863,-1
558,559,1580693049943,-5.4068,-8.215899,9.500199,-4.673846,-9.089846000000001,19.250032,-1
559,560,1580693049953,-3.7928,-7.8476,10.9635,-3.0674322,-8.939776,20.687054,-1
560,561,1580693049963,-1.6251,-7.2745,12.979899000000001,-0.9195171,-8.590894,22.682533,-1
561,562,1580693049974,0.4016,-6.5245,14.026299,1.0880115,-8.037163,23.693089,-1
562,563,1580693049984,2.6025,-5.4282,14.0989,3.2308986,-7.1154337,23.759953,-1
563,564,1580693049994,3.945,-4.7929,12.3013,4.511968599999999,-6.589514,21.935226,-1
564,565,1580693050004,3.3153,-5.5239997,8.818399000000001,3.519965,-7.6044254,17.789972,-1
565,566,1580693050014,2.2821999,-6.335,6.5474,2.7798979999999998,-8.323481,16.037254,-1
566,567,1580693050024,3.4269,-6.4189,6.9357,4.2456574,-8.247662,16.88569,-1
567,568,1580693050035,5.5144,-5.6658998,9.191,6.40969,-7.481573599999999,19.379856,-1
568,569,1580693050045,7.7288,-4.7818,11.7709,8.994374,-6.439139,21.9408,-1
569,570,1580693050055,9.6317,-3.7991998,12.571,10.332063,-5.6525664,22.082039,-1
570,571,1580693050066,10.8103,-2.8637,11.4007,11.345231,-4.7809625,20.589407,-1
571,572,1580693050076,11.6356,-2.2663999,9.2402,12.053676,-4.015124,17.838545,-1
572,573,1580693050086,12.0077,-1.8795998999999999,6.4147,12.193162,-3.6803381,14.792738,-1
573,574,1580693050096,11.9148,-1.8531,3.2997,12.080864,-3.5649089999999997,11.852764,-1
574,575,1580693050106,12.007,-1.9323,0.6648,12.216510000000001,-3.5286417,9.549082,-1
575,576,1580693050116,12.2308,-1.8865,-0.9367,12.549754,-3.2018042,8.473013,-1
576,577,1580693050126,12.770599,-1.3535,-1.2868998999999999,13.031659,-2.5358331,8.488595,-1
577,578,1580693050136,13.5561,-0.5068,-0.77889997,13.938583,-1.456412,9.165741,-1
578,579,1580693050147,14.0567,0.1083,-0.4437,14.275035,-0.9779260000000001,9.045505,-1
579,580,1580693050157,14.2203,0.28219998,-0.9503,14.248048,-0.73845804,8.248714,-1
580,581,1580693050167,14.267798999999998,0.45899999999999996,-1.8386999,14.249638000000001,-0.61259,7.6840754,-1
581,582,1580693050177,14.474998999999999,0.44939998,-2.4617999,14.490770999999999,-0.666201,6.982488,-1
582,583,1580693050187,14.4261,0.3667,-2.9378998,14.057403,-0.6336206999999999,6.6772943,-1
583,584,1580693050197,13.9539995,0.26729998,-3.3458997999999998,13.889933,-0.7888033,6.232318,-1
584,585,1580693050207,13.8729,0.16239999,-3.7835998999999996,13.485609,-0.51405424,5.6438136,-1
585,586,1580693050218,13.3926,0.4195,-4.4467,13.193794,-0.41582495,4.943528,-1
586,587,1580693050228,13.162498999999999,0.3001,-5.442199700000001,13.043851,-0.46459004,3.8732724000000003,-1
587,588,1580693050238,13.0708,0.2668,-5.9751997,13.006480999999999,-0.59645313,4.1681805,-1
588,589,1580693050248,12.8967,-0.0402,-5.2015,12.605108,-0.93732995,5.071408,-1
589,590,1580693050258,12.0758,-0.4861,-3.9843998,11.516618,-1.4978508,6.5696416,-1
590,591,1580693050268,11.162,-0.9371,-2.7073,10.567307000000001,-2.0955776999999998,7.6717887000000005,-1
591,592,1580693050279,10.1353,-1.5557,-1.8519,9.459759,-2.6559167,8.0384655,-1
592,593,1580693050289,9.0492,-2.0314,-1.8899,8.47058,-3.0621552000000003,7.442251700000001,-1
593,594,1580693050299,8.1401,-2.3567998,-2.6059,7.841911,-3.2771356,6.7837404999999995,-1
594,595,1580693050309,7.2867,-2.6207,-3.6655998,6.812394599999999,-3.6438599999999997,5.2027054,-1
595,596,1580693050319,6.6112,-2.9187,-4.7935,6.2990775,-3.8707538,4.5003233,-1
596,597,1580693050331,6.0913,-3.0825,-5.311899700000001,5.959599,-4.0316343,5.079117299999999,-1
597,598,1580693050341,5.7978,-3.1922,-4.7002997,6.1167164000000005,-4.129835,6.1616693,-1
598,599,1580693050351,5.9811997,-3.2386,-3.2719,6.3983893,-4.2175775,8.077452000000001,-1
599,600,1580693050361,6.0866,-3.2961,-1.2427,5.462084,-4.755737,10.404003999999999,-1
600,601,1580693050371,5.1219,-3.6885998,0.6512,3.6926919999999996,-5.425864,11.588386999999999,-1
601,602,1580693050381,3.283,-4.2750998,1.8492,2.047454,-5.7005367,11.862186999999999,-1
602,603,1580693050391,1.1817,-4.5201,2.134,0.41629422,-5.7610908,11.809178999999999,-1
603,604,1580693050401,-0.3746,-4.505,2.0448,-0.5669278,-5.600948000000001,11.365515,-1
604,605,1580693050411,-1.2111,-4.3424,1.6509,-0.90509444,-5.6123533,10.7228155,-1
605,606,1580693050422,-1.6480999,-4.3542,1.0122,-1.2158905,-5.786976999999999,10.579353999999999,-1
606,607,1580693050432,-2.7087,-4.6702,1.2389,-1.7947128,-5.9819703,10.920375,-1
607,608,1580693050442,-3.9197998,-4.950599700000001,2.0749,-2.946295,-6.3053794000000005,11.749315,-1
608,609,1580693050452,-5.6748,-4.7985,2.6855,-4.8930297,-6.160482,12.394629,-1
609,610,1580693050462,-5.6748,-4.7985,2.6855,-5.4380937000000005,-6.147994000000001,12.488185000000001,-1
610,611,1580693050473,-6.5263,-4.7043,2.8441,-5.7616177,-6.0484905,12.437591000000001,-1
611,612,1580693050483,-7.3317,-4.1776,2.3539999,-6.111899,-5.641055000000001,11.989989,-1
612,613,1580693050493,-6.9591,-3.7405,1.8917999,-5.680646,-5.2161613,11.519319,-1
613,614,1580693050503,-6.1914,-3.0778,2.0376,-4.6870804,-4.432768299999999,11.7745495,-1
614,615,1580693050514,-6.1914,-3.0778,2.0376,-4.180803,-3.9997629999999997,12.275321,-1
615,616,1580693050524,-5.6783,-2.4580998,2.5925,-4.362877,-3.9700843999999997,12.073269999999999,-1
616,617,1580693050534,-5.6783,-2.4580998,2.5925,-5.015096,-4.1694927,11.300929,-1
617,618,1580693050544,-6.924299700000001,-2.7436,1.0406,-5.5222644999999995,-4.2270392999999995,10.490511,-1
618,619,1580693050554,-7.1464996,-2.6510000000000002,0.61079997,-5.6594714999999995,-4.094151999999999,10.169678,-1
619,620,1580693050565,-6.9399,-2.276,0.57339996,-5.301998,-3.66264,10.184617999999999,-1
620,621,1580693050575,-6.18,-1.7952,0.9288,-4.4897795,-3.1889427,10.631922,-1
621,622,1580693050585,-5.4294996,-1.3489,1.4516,-3.7670083,-2.766481,11.068883,-1
622,623,1580693050595,-4.7465997,-1.0315,1.5229,-3.014999,-2.4909562999999997,11.106098,-1
623,624,1580693050605,-4.3540998,-0.9518,1.5245999,-2.801915,-2.4873745,11.085861999999999,-1
624,625,1580693050616,-4.3580000000000005,-0.94229996,1.4369,-2.9074228,-2.4819252,10.986360000000001,-1
625,626,1580693050626,-4.3661,-0.9447,1.4362999,-2.8234917999999998,-2.507773,11.039760000000001,-1
626,627,1580693050636,-4.2641,-0.9406,1.4642,-2.6909487000000003,-2.4525243999999997,10.989942,-1
627,628,1580693050646,-4.0158,-0.81589997,1.2459999,-2.3022068,-2.2583257999999997,10.519289,-1
628,629,1580693050656,-3.5328998999999994,-0.63,0.6933,-1.8391109,-2.0806186,10.058357,-1
629,630,1580693050667,-2.8720999,-0.4075,0.2184,-1.0224869,-1.7680605999999999,9.631729,-1
630,631,1580693050677,-2.2184,-0.1327,-0.030599998,-0.43839750000000005,-1.5069583999999998,9.527429,-1
631,632,1580693050687,-1.7091,0.0989,-0.0634,-0.1366706,-1.3168396999999998,9.597004,-1
632,633,1580693050697,-1.3345,0.29709998,0.119899996,0.20515436,-1.2062372,9.924914,-1
633,634,1580693050707,-1.1752,0.2817,0.47039998,0.09456139,-1.3169738000000002,10.198227000000001,-1
634,635,1580693050718,-1.3808,0.1361,0.59529996,-0.26407087,-1.5431108,10.055398,-1
635,636,1580693050728,-1.7156999,-0.1431,0.2586,-0.49132848,-1.820618,9.512269,-1
636,637,1580693050738,-1.875,-0.3969,-0.2746,-0.62244457,-1.9883462,9.125701,-1
637,638,1580693050748,-1.9180000000000001,-0.49179998,-0.5622,-0.41379467,-1.9324558999999997,9.020538,-1
638,639,1580693050758,-1.6299,-0.3951,-0.5937,0.030894779,-1.753408,9.097076,-1
639,640,1580693050769,-1.1695,-0.2147,-0.4865,0.51474375,-1.485784,9.219966000000001,-1
640,641,1580693050779,-0.682,0.078899994,-0.37809998,0.92876834,-1.3481079,9.355736,-1
641,642,1580693050789,-0.2996,0.1929,-0.2102,1.0686089,-1.307895,9.645061,-1
642,643,1580693050799,-0.2059,0.235,0.0953,0.89112186,-1.4648588,9.941578,-1
643,644,1580693050809,-0.41259998,0.0545,0.39119998,0.5206814000000001,-1.744923,10.18321,-1
644,645,1580693050819,-0.7809,-0.1691,0.6087,0.32217336,-1.8656673,10.249262,-1
645,646,1580693050830,-0.895,-0.2739,0.6397,0.43471040000000005,-1.8791802,10.144969999999999,-1
646,647,1580693050840,-0.7637,-0.23969999,0.51379997,0.6370395999999999,-1.7130130000000001,10.00694,d
647,648,1580693050850,-0.53,-0.062099997000000004,0.3978,0.98358595,-1.6003227,9.961843,-1
648,649,1580693050860,-0.2096,0.0372,0.3409,1.260777,-1.4882646000000002,9.908644,-1
649,650,1580693050871,0.0462,0.1305,0.3135,1.5617378,-1.4848839,10.060282,-1
650,651,1580693050881,0.3478,0.1514,0.5118,1.6933996999999998,-1.4648013,10.386718,-1
651,652,1580693050891,0.4109,0.1771,0.85719997,1.4834187,-1.5300002000000001,10.659015,-1
652,653,1580693050901,0.1646,0.095,1.0842999,1.0723437,-1.7549403000000001,10.646861,-1
653,654,1580693050911,-0.1806,-0.081,1.0459,0.67972344,-1.921682,10.542446,-1
654,655,1580693050921,-0.5689,-0.2447,0.9478,0.5385038000000001,-1.8984008999999997,10.40928,-1
655,656,1580693050931,-0.66749996,-0.24769999,0.8002,0.77143097,-1.9396672,10.319258999999999,-1
656,657,1580693050941,-0.4355,-0.23529999,0.66209996,0.92493755,-1.7076501,10.045889,-1
657,658,1580693050951,-0.2803,-0.028999999999999998,0.3861,1.2350346,-1.6344545,9.723284,-1
658,659,1580693050961,-0.0143,0.0111,0.1295,1.3499658,-1.5680393,9.615286,-1
659,660,1580693050971,0.138,0.0845,0.0299,1.4040365,-1.5895296,9.846689999999999,-1
660,661,1580693050981,0.1664,0.055099998,0.2445,1.201985,-1.5912534999999999,9.930344,-1
661,662,1580693050991,-0.0667,0.029299999,0.32209998,0.8327704,-1.7932474999999999,9.958721,-1
662,663,1580693051002,-0.38689998,-0.1433,0.3505,0.4581161,-1.8944936,10.040449,-1
663,664,1580693051011,-0.7489,-0.23889999,0.4378,0.3911455,-1.991612,10.149183,-1
664,665,1580693051021,-0.8017,-0.3365,0.54499996,0.47348690000000004,-1.9936421999999998,10.294732000000002,-1
665,666,1580693051031,-0.7222,-0.34739998,0.682,0.57260686,-1.878098,10.32762,-1
666,667,1580693051041,-0.57339996,-0.2311,0.7306,0.6744658,-1.9382881999999997,10.372554,-1
667,668,1580693051051,-0.5099,-0.29009998,0.76919997,0.42722136,-2.0102580000000003,10.340452,-1
668,669,1580693051062,-0.75439996,-0.3565,0.7291,0.2400714,-2.0680733,10.303792,-1
669,670,1580693051072,-0.91429996,-0.4003,0.6888,0.11236468,-2.017048,10.313196000000001,-1
670,671,1580693051082,-1.0297999,-0.3524,0.6975,0.022744916,-1.929085,10.37309,-1
671,672,1580693051092,-1.0918,-0.25149998,0.7653,0.007881711999999999,-1.8325987000000001,10.649016,-1
672,673,1580693051102,-1.0411,-0.0197,1.6669999,-0.014863204,-1.7374147,11.275656,-1
673,674,1580693051113,-1.1097,-0.0896,2.3437997999999998,-0.15677233,-1.8457476000000002,12.093084,-1
674,675,1580693051123,-1.4268999,-0.19479999,2.9610999,-0.53474975,-1.9721519,12.675038,-1
675,676,1580693051133,-1.8656,-0.3389,3.3516998,-0.91517884,-2.0944479,12.959574,-1
676,677,1580693051143,-2.1876,-0.35639998,3.2796,-1.2988353000000001,-2.0965834,12.863433,-1
677,678,1580693051153,-2.2689,-0.2631,3.0978,-1.3609121000000002,-1.9350129,12.691491000000001,-1
678,679,1580693051164,-2.1231,-0.013499998999999999,2.9543,-1.2033353,-1.6742653000000003,12.566725,-1
679,680,1580693051174,-1.7888998999999999,0.2583,3.036,-0.9193543,-1.3930806,12.733677,-1
680,681,1580693051184,-1.5159999,0.4545,3.4805998999999996,-0.6801065,-1.2197691000000002,13.398172,-1
681,682,1580693051195,-1.3813,0.43269998,4.1705,-0.78047144,-1.2810607,14.023098000000001,-1
682,683,1580693051205,-1.6098,0.3506,4.5849,-1.0230709999999998,-1.3023308999999998,14.274834,-1
683,684,1580693051215,-1.8534,0.34809998,4.615,-1.3249511999999999,-1.2974179,14.199810000000001,-1
684,685,1580693051225,-2.1290998,0.1709,4.3001,-1.5873462,-1.4121002,13.896598000000001,-1
685,686,1580693051235,-2.5282,-0.0673,3.9448998,-2.0223343000000003,-1.5550628,13.523696,-1
686,687,1580693051246,-2.6285,-0.1519,3.7071,-2.0143664,-1.5557426,13.408804,-1
687,688,1580693051256,-2.5279999,-0.22129999,3.8033997999999998,-2.0025103,-1.5821364,13.642783999999999,-1
688,689,1580693051266,-2.5458,-0.3319,4.0964,-2.0673165,-1.6126767,13.879895000000001,-1
689,690,1580693051276,-2.4473999,-0.4289,4.1249,-1.943814,-1.6885252,13.782471,-1
690,691,1580693051286,-2.2287,-0.5875,4.0064,-1.9015516,-1.8056113,13.814803,-1
691,692,1580693051296,-2.2152,-0.7446,4.2214,-1.9696522,-1.8408251,14.003648000000002,-1
692,693,1580693051307,-2.1266,-0.8315,4.132,-1.8169978999999998,-1.8140675,13.658729999999998,-1
693,694,1580693051317,-1.7847998999999999,-0.8268,3.4141998,-1.5374606000000002,-1.6178483000000001,12.860684,-1
694,695,1580693051327,-1.5525999,-0.75689995,2.5788,-1.3203638999999998,-1.4140443,12.014105,-1
695,696,1580693051337,-1.298,-0.7281,2.0684,-0.9379716,-1.1923986999999998,11.755042,-1
696,697,1580693051347,-0.853,-0.61039996,1.9133999,-0.49833873,-0.93185204,11.699899,-1
697,698,1580693051357,-0.20099999,-0.4472,1.9569999,0.14591223,-0.63341,11.899528,-1
698,699,1580693051368,0.2671,-0.278,2.2772,0.44232398,-0.32671276,12.151694,-1
699,700,1580693051378,0.3105,-0.2145,2.3148,0.31550792,-0.24645913,12.015042999999999,-1
700,701,1580693051388,0.21499999,-0.3689,2.011,0.2591005,-0.39663303,11.409185,-1
701,702,1580693051398,0.1664,-0.6839,1.2973,-0.028739998,-0.5853919,10.738980999999999,-1
702,703,1580693051409,-0.0826,-0.97969997,0.8994,-0.3129413,-0.7388219,10.771828999999999,-1
703,704,1580693051419,-0.38459998,-1.2737,1.0625,-0.48117709999999997,-0.7528998,10.967398,-1
704,705,1580693051429,-0.3951,-1.3449,1.1689,-0.45947605,-0.59085065,10.799928,-1
705,706,1580693051439,-0.41579998,-1.3434,0.9640000000000001,-0.6983216,-0.39469853,10.396180000000001,-1
706,707,1580693051450,-0.6631,-1.2951,0.52599996,-0.75393414,-0.31443530000000003,9.853969000000001,-1
707,708,1580693051460,-0.6455,-1.4085,-0.037499998,-0.70318663,-0.33975637,9.196387,-1
708,709,1580693051471,-0.5761,-1.5519999,-0.6588,-0.6702233,-0.31629320000000005,8.809274,-1
709,710,1580693051481,-0.5248,-1.6445999,-0.91679996,-0.7207983,-0.31927156,9.221459,-1
710,711,1580693051491,-0.5233,-1.767,-0.48799998,-0.6237661999999999,-0.21226035,9.7442,-1
711,712,1580693051501,-0.4012,-1.7737,0.059899997,-0.31568986,0.18818425,9.627603,-1
712,713,1580693051511,-0.0887,-1.5207,-0.0359,0.38040033,0.7577648,8.995782,-1
713,714,1580693051521,0.5694,-1.0864,-0.6472,1.0407115,1.1937777,8.512728,-1
714,715,1580693051532,1.8988999,-0.4375,-2.1857998,1.7486962,1.7121702,7.399913000000001,-1
715,716,1580693051542,1.8988999,-0.4375,-2.1857998,1.8826278000000003,1.8647383000000002,6.7289615000000005,-1
716,717,1580693051552,1.5379,-0.63729995,-2.9896,1.369876,1.7620271,6.524171,-1
717,718,1580693051562,0.9083,-0.87649995,-2.9438,0.728115,1.616814,6.5528345,-1
718,719,1580693051573,0.9083,-0.87649995,-2.9438,0.398807,1.623106,6.637158400000001,-1
719,720,1580693051583,0.3446,-1.0152999,-2.6136,0.16428055,1.6476992,6.830973599999999,-1
720,721,1580693051593,0.17300000000000001,-1.0429,-2.7219,-0.031239542999999998,1.6934189,6.712853,-1
721,722,1580693051603,0.15619999,-1.0099,-2.9017,-0.06413587,1.7762487,6.505065,-1
722,723,1580693051613,0.371,-1.1899998999999999,-2.8688998,0.21016303,1.6447017,6.520206,-1
723,724,1580693051624,0.371,-1.1899998999999999,-2.8688998,0.39525396,1.7727436,6.4748697,-1
724,725,1580693051634,1.202,-1.0525,-2.8205,1.0337492,1.8431427,6.608072999999999,-1
725,726,1580693051644,1.3659999,-0.92429996,-2.5,1.0346016,2.0224013,6.947551700000001,-1
726,727,1580693051654,1.1371,-0.81439996,-2.1701,0.816576,2.112567,7.198339999999999,-1
727,728,1580693051664,0.7181,-0.9346,-2.1132998,0.28804162,1.963255,7.2325864,-1
728,729,1580693051674,0.2349,-1.15,-2.2604,-0.19944657,1.7937646,6.999458,-1
729,730,1580693051685,0.24139999,-1.1976,-2.7581,-0.032264262,1.8265173,6.4881043,-1
730,731,1580693051695,1.0078,-1.0739,-3.1269,0.85045874,2.0469275000000002,6.164657599999999,-1
731,732,1580693051705,1.7554,-0.71489996,-3.1917999,1.6480345,2.5080697999999995,6.095714599999999,-1
732,733,1580693051715,2.1792998,-0.5674,-3.1597998,1.86742,2.5750883,6.177021,-1
733,734,1580693051725,1.8826,-0.6699,-3.0605,1.5746186000000002,2.5081465,6.2273855000000005,-1
734,735,1580693051735,1.2207,-1.0338,-3.3444998,0.70838684,2.0135427,5.8002696,-1
735,736,1580693051745,0.7565,-1.3168,-3.6093998,0.36924338,1.912019,5.588009400000001,-1
736,737,1580693051756,0.6666,-1.3421999,-3.6402,0.37882975,1.912134,5.616098,-1
737,738,1580693051766,0.9066,-1.2943,-3.1922998,0.77458173,1.990319,6.2307568,-1
738,739,1580693051776,1.0933,-1.3561,-2.8160000000000003,0.9032365,1.8651215,6.570637700000001,-1
739,740,1580693051786,1.0246998999999999,-1.5245,-2.3843,0.76460266,1.7145452,7.057378999999999,-1
740,741,1580693051797,0.9395,-1.6335,-1.9756999,0.7878264,1.6804231,7.349978999999999,-1
741,742,1580693051807,1.1034,-1.4164,-1.9013,0.98304963,1.9117796000000002,7.3261899999999995,-1
742,743,1580693051817,1.7019999,-1.0759,-2.1295,1.9140971999999998,2.330832,7.1007039999999995,-1
743,744,1580693051827,2.3221,-0.8163,-2.1021,2.3764653,2.5527265,7.2573422999999995,-1
744,745,1580693051837,2.82,-0.5361,-1.8201,2.798142,2.7885747000000003,7.6010633,-1
745,746,1580693051847,3.1204998,-0.42119998,-1.4993,2.8050659,2.8405383,7.963631599999999,-1
746,747,1580693051858,2.6285,-0.4042,-1.1392,2.1749215,2.7697754,8.336266,-1
747,748,1580693051868,2.0295,-0.5448,-0.80829996,1.6148795,2.5603497,8.514921000000001,-1
748,749,1580693051878,1.4527999,-0.76519996,-0.7514,1.0366893,2.3089395,8.653861000000001,-1
749,750,1580693051888,1.0346999,-0.9281,-0.59599996,0.83188933,2.3230364,8.692877000000001,-1
750,751,1580693051898,0.8594,-0.81839997,-0.63589996,0.89621675,2.5075243,8.571222,-1
751,752,1580693051909,1.0054,-0.6422,-0.7438,1.2395261999999998,2.6842832999999997,8.457211000000001,-1
752,753,1580693051919,1.3941,-0.4465,-0.87119997,1.7947990000000003,2.967364,8.330884,-1
753,754,1580693051929,2.0609,-0.1002,-0.9016,2.6244185,3.4171484,8.611206,-1
754,755,1580693051939,2.6457,0.2726,-0.5913,2.9662914000000002,3.6808648,9.025844000000001,-1
755,756,1580693051949,2.9548,0.5248,-0.1361,2.8484201000000002,3.7454221,9.558237,-1
756,757,1580693051959,2.7113,0.5247,0.3278,2.2098482,3.5092964,9.881695,-1
757,758,1580693051970,2.0309,0.2865,0.6261,1.4951406999999999,3.106065,10.081199,-1
758,759,1580693051980,1.3276,-0.1162,0.8192,0.7368778,2.686026,10.145612,-1
759,760,1580693051990,0.69449997,-0.4612,0.84919995,0.27597484,2.5503805,9.842075,-1
760,761,1580693052001,0.2206,-0.6106,0.5395,0.054817643,2.5957744,9.328298,-1
761,762,1580693052011,-0.0202,-0.57989997,0.0457,0.25495374,2.7061662999999996,9.054094000000001,-1
762,763,1580693052021,0.17109999,-0.4892,-0.23259999,0.61375844,2.8397818,8.950617999999999,-1
763,764,1580693052031,0.5257,-0.3615,-0.32729998,0.8198129999999999,2.9218645,9.147891,-1
764,765,1580693052041,0.7346,-0.2819,-0.13149999,0.81375086,3.0245855,9.455210000000001,-1
765,766,1580693052052,0.73719996,-0.174,0.1689,0.72168905,3.09531,9.649275,-1
766,767,1580693052063,0.63699996,-0.0927,0.3998,0.5590844,3.0183702,9.823266,-1
767,768,1580693052073,0.0931,-0.3053,0.6502,0.12627977,2.857384,9.942314999999999,-1
768,769,1580693052083,-0.3092,-0.47829998,0.52489996,-0.34838507,2.6748022999999996,9.743615,-1
769,770,1580693052093,-0.542,-0.4824,0.0884,-0.52388006,2.7076792999999997,9.372256,-1
770,771,1580693052103,-0.62259996,-0.5092,-0.15079999,-0.57219505,2.7174957,9.100649,-1
771,772,1580693052114,-0.48979998,-0.4166,-0.40039998,-0.40136397,2.830952,8.815633,-1
772,773,1580693052124,-0.24599999,-0.22029999,-0.4951,-0.13564589999999999,3.0612264,8.829077999999999,-1
773,774,1580693052134,0.0033999997999999997,-0.0927,-0.092999995,0.12828133,3.152091,9.278499,-1
774,775,1580693052144,-0.0661,-0.0075,0.33609998,0.025464728,3.2099829,9.605816,-1
775,776,1580693052154,-0.3464,-0.038399998,0.4606,-0.34957259999999996,3.146316,9.716532,d
776,777,1580693052164,-0.6665,-0.053299997,0.253,-0.65466094,3.1728918999999998,9.488422,-1
777,778,1580693052175,-0.80719995,-0.023899998999999998,0.106,-0.7712873,3.1742232000000006,9.379477,-1
778,779,1580693052185,-0.9377,-0.1153,0.1268,-0.87742704,3.0709372000000004,9.426059,-1
779,780,1580693052195,-1.0189999,-0.22899999,0.3251,-0.90816855,2.9706297000000004,9.652080999999999,-1
780,781,1580693052205,-0.9632,-0.30629998,0.5836,-0.84088194,2.9256860000000002,9.861689,-1
781,782,1580693052215,-0.8434,-0.2977,0.72529995,-0.5915785,2.9954336,9.936751,-1
782,783,1580693052226,-0.5919,-0.17099999,0.5826,-0.30784646,3.0959997,9.836433,-1
783,784,1580693052236,-0.2261,-0.0708,0.6056,0.21676144,3.2841934999999998,9.8492,-1
784,785,1580693052246,0.3387,0.16929999,0.53929996,0.93817276,3.5135581,9.78041,-1
785,786,1580693052256,1.0776,0.3417,0.6199,1.8852422999999998,3.6575356,10.183785,-1
786,787,1580693052267,1.8757999,0.4066,1.2009999999999998,2.5436382,3.6859884,10.735783,-1
787,788,1580693052277,2.6534,0.4007,1.8619,3.2788591,3.6502957,11.383175,-1
788,789,1580693052287,3.2196999,0.40109998,2.5539,3.7759626,3.6987445,11.917369,-1
789,790,1580693052297,3.7779,0.5452,3.0806,4.7642026,3.8857703000000003,12.460785000000001,-1
790,791,1580693052307,4.6872997000000005,0.5979,3.2846,5.991203,4.026693,12.565384,-1
791,792,1580693052317,5.9884996,0.89239997,3.4111,7.0856204,4.447411499999999,12.664733,-1
792,793,1580693052327,7.2777,1.3217,3.6265,8.474411,4.7385373,13.233107999999998,-1
793,794,1580693052338,8.2012,1.405,4.3132,8.993828,4.8481336,13.787001,-1
794,795,1580693052348,8.5851,1.5212,4.8939,9.439131,5.0285707,14.146227,-1
795,796,1580693052359,9.061399,1.5759,4.8803,9.983285,4.9424653,13.589097,-1
796,797,1580693052369,9.452499000000001,1.3981999,4.2448997,10.096932,4.881145,12.942986999999999,-1
797,798,1580693052379,9.5694,1.2326,3.0964,10.3137045,4.676412,11.449522,-1
798,799,1580693052389,9.841499,0.9482,2.2075999,10.476835000000001,4.3948730000000005,10.759313,-1
799,800,1580693052400,9.9858,0.5421,1.5762,10.234762,4.066962999999999,10.192662,-1
800,801,1580693052410,9.6064,-0.0015,0.84739995,9.454741499999999,3.4295120000000003,9.259087,-1
801,802,1580693052420,8.987599000000001,-0.6523,0.1487,9.007351,3.0490732000000005,8.881799,-1
802,803,1580693052430,8.2397995,-1.4201,-0.5193,7.654799499999999,2.0278602,7.423577000000001,-1
803,804,1580693052440,7.2692,-2.2593,-1.7529999,6.529601,1.4021881,6.140246,-1
804,805,1580693052450,6.2434998,-2.9352999,-2.9633,5.2947006,1.0088687,4.727447,-1
805,806,1580693052461,5.2939997000000005,-3.3262,-4.0836,4.727140400000001,0.8198129999999999,3.8387191,-1
806,807,1580693052471,4.6605,-3.6511,-5.088,4.0474553,0.5968266,3.192304,-1
807,808,1580693052481,4.049299700000001,-3.9096,-5.6095,3.1951387,0.4430231,2.887369,-1
808,809,1580693052491,3.4004,-4.1078,-5.8167995999999995,2.489673,0.18346289,2.8452406000000003,-1
809,810,1580693052501,2.7719,-4.3942,-5.8271,2.0273811999999998,-0.00980665,2.6650147,-1
810,811,1580693052511,2.2751,-4.6379,-6.0688,1.0407691,-0.31774887,2.3069665,-1
811,812,1580693052521,1.5079,-4.9144,-6.3525,-0.12776418,-0.73461765,2.0420146,-1
812,813,1580693052532,-0.7948,-5.5691,-7.0216,-1.4170513999999999,-0.9656869,1.6141803999999997,-1
813,814,1580693052542,-0.7948,-5.5691,-7.0216,-2.3712845000000002,-1.0655444,1.0971093,-1
814,815,1580693052552,-2.5158,-5.7089996,-8.1779995,-3.186213,-1.0873411,0.45389277,-1
815,816,1580693052562,-2.5158,-5.7089996,-8.1779995,-3.847894,-1.1925136,-0.26111165,-1
816,817,1580693052573,-4.1482997,-5.9542,-9.019899,-5.110347,-1.4042856000000001,-0.37790078,-1
817,818,1580693052582,-5.414,-6.0390997,-8.6965,-6.1619663000000005,-1.5203563999999998,-0.03992571,-1
818,819,1580693052592,-6.5992,-6.2518,-7.9056997,-7.6489,-1.8980368000000003,0.9923103999999999,-1
819,820,1580693052602,-7.8521,-6.3415,-7.053,-8.689583,-2.016167,1.7188643,-1
820,821,1580693052613,-8.793,-6.2359,-6.1425,-9.634632,-2.016301,2.6809312999999997,-1
821,822,1580693052623,-8.9634,-6.2483997,-5.1510997000000005,-9.772499,-2.1274493,3.7187697999999996,-1
822,823,1580693052634,-9.2901,-6.4466996,-4.4704,-10.039845,-2.4101374,4.435843,-1
823,824,1580693052644,-10.3698,-6.9181,-4.200599700000001,-11.641241,-3.1336365,4.799081299999999,-1
824,825,1580693052654,-12.804899,-7.2528,-4.0917997,-14.345128,-3.5197256,4.9877067,-1
825,826,1580693052664,-15.6491995,-7.3684997999999995,-3.7654998,-17.320719,-3.7919652000000004,5.641936299999999,-1
826,827,1580693052676,-17.7418,-7.604099799999999,-2.7979998999999998,-19.070026000000002,-4.207484,6.7715592000000004,-1
827,828,1580693052686,-18.948,-7.6899,-1.7514,-19.926003,-4.315587,7.666617,-1
828,829,1580693052696,-18.586,-7.4262,-1.5022999,-18.258411,-4.067088,7.642301,-1
829,830,1580693052706,-15.664000000000001,-6.8483996,-1.8242999,-15.203047,-3.5316677000000003,7.4601983999999995,-1
830,831,1580693052717,-13.3371,-6.1993,-1.7118,-13.071556,-2.8848693,7.8552895000000005,-1
831,832,1580693052726,-11.7362995,-5.1703997,-1.0716,-11.654007,-1.8606776999999999,8.687225999999999,-1
832,833,1580693052736,-10.9066,-3.9968,0.16309999,-11.172619000000001,-1.2913748999999999,9.591967,-1
833,834,1580693052746,-10.9832,-3.5539,2.7784998,-11.308724,-1.1336257,13.359607999999998,-1
834,835,1580693052756,-11.5334,-3.8291998,5.1224,-11.663976,-1.8210297999999998,15.198172,-1
835,836,1580693052766,-11.608399,-4.5888,6.219599700000001,-11.234963,-2.8565316000000003,15.933163,-1
836,837,1580693052777,-10.724,-5.5748997000000005,6.0315,-9.832124,-3.9939115,15.207146,-1
837,838,1580693052787,-8.9627,-6.3236,4.9584,-7.811590700000001,-4.4917808,14.374479999999998,-1
838,839,1580693052797,-6.950599700000001,-6.2574,4.7906,-5.5550747000000005,-4.4432936,14.847535999999998,-1
839,840,1580693052807,-4.7695,-5.7971,6.436,-2.8242385,-3.6466086000000004,17.573795,-1
840,841,1580693052817,-2.5591,-4.6144,8.8938,-0.7997783,-2.499489,20.110577,-1
841,842,1580693052828,-0.92499995,-3.3686,11.3712,0.33782187,-1.8922237000000002,22.290285,-1
842,843,1580693052838,-0.093499996,-2.9452,13.086599,1.2119161,-2.1164744,23.064917,-1
843,844,1580693052848,0.9133,-3.1861,12.8953,2.2669928,-2.6573055,21.223862,-1
844,845,1580693052858,1.9214,-3.7328,10.198999,3.315318,-3.3792434,18.480623,-1
845,846,1580693052868,3.0672,-4.2739997,8.2907,4.686065,-3.4006089999999998,18.299103,-1
846,847,1580693052878,4.666,-3.7975,9.090199,6.4999413,-2.593045,19.750996,-1
847,848,1580693052889,6.4933996,-2.7378,10.4781,8.194251,-1.4330447,20.724505999999998,-1
848,849,1580693052899,8.0394,-1.5225999,11.071799,9.401226,-0.47968310000000003,20.760727,-1
849,850,1580693052910,9.0328,-0.6204,10.627399,10.106624,0.4343465,19.023761999999998,-1
850,851,1580693052920,9.5077,0.016099999,8.812099,10.362335,0.7419055999999999,16.805563,-1
851,852,1580693052930,9.783899,0.1633,6.5677,11.006039999999999,0.5020162,13.914026999999999,-1
852,853,1580693052941,10.3894,-0.14559999,4.1292,11.725602,0.30713776,12.143823,-1
853,854,1580693052951,11.3242,-0.4145,2.0159,13.194885999999999,0.65198904,10.808135,-1
854,855,1580693052961,12.582499499999999,-0.1454,1.0408,14.530947,1.1481346000000001,11.120358,-1
855,856,1580693052971,13.9193,0.2905,1.3596,15.278032999999999,1.6778950000000001,11.4919,-1
856,857,1580693052981,14.743098999999999,0.91969997,1.7459999,15.898467000000002,2.339451,11.444744,-1
857,858,1580693052991,15.2806,1.4193,1.6899998999999999,16.27676,2.805181,11.088526,-1
858,859,1580693053002,15.6619,1.8521999,1.3292999,16.572186,3.2060564,10.258598,-1
859,860,1580693053012,15.9746,2.2229,0.5075,16.904644,3.2261772,9.435089,-1
860,861,1580693053022,16.1917,2.0636,-1.0842,16.755505,3.1236286,8.658294999999999,-1
861,862,1580693053033,15.712198999999998,1.6347,-1.2067,16.1084,2.6395786,8.583845,-1
862,863,1580693053043,14.7296,1.1261,-1.0533999,15.008023999999999,2.156898,8.618091999999999,-1
863,864,1580693053053,14.7296,1.1261,-1.0533999,14.513191,1.96269,8.278785000000001,-1
864,865,1580693053063,13.6044,0.5952,-1.9391999,14.142385999999998,1.8117020000000001,7.6824183,-1
865,866,1580693053073,13.1109,0.2786,-2.1759999,13.757705,1.5952950000000001,7.5351467,-1
866,867,1580693053083,12.0562,-0.39389998,-2.3748,12.493443,0.83360356,7.322369,-1
867,868,1580693053093,10.8997,-1.1077,-2.2707999,11.354578,0.14916836,7.4772929999999995,-1
868,869,1580693053104,9.8733,-1.7554,-1.9228,10.368627,-0.44290817,7.859935000000001,-1
869,870,1580693053114,9.0416,-2.1934,-1.4771,9.574135,-0.8324831,8.306013,-1
870,871,1580693053124,8.289,-2.6106,-1.1492,8.844535,-1.2214928999999999,8.557547,-1
871,872,1580693053134,7.437,-3.0365999,-1.0376999,7.918381,-1.6347897,8.657309,-1
872,873,1580693053145,6.4014997000000005,-3.5094,-1.153,7.0797977,-1.9953851999999999,8.514548,-1
873,874,1580693053155,5.6116,-4.0109997,-1.7103,5.9540544,-2.6832871,7.825342699999999,-1
874,875,1580693053165,4.7054,-4.5113,-2.0716,4.898546,-3.0807724,7.3872232,-1
875,876,1580693053175,3.7196998999999997,-4.7939,-2.6978998,3.9717891000000005,-3.2923815000000003,6.8198929999999995,-1
876,877,1580693053185,2.8646998,-4.9839,-2.9027,3.0765011,-3.4738047,6.751898,-1
877,878,1580693053196,1.9149,-5.147,-2.9514,2.1215117,-3.6273785000000003,6.721482000000001,-1
878,879,1580693053206,1.0474,-5.3433,-2.9614,1.0628245,-3.9417752999999998,6.593411,-1
879,880,1580693053216,0.103999995,-5.6043997,-3.1875,0.080914445,-4.1334743,6.3315525,-1
880,881,1580693053227,-0.7897,-5.7264,-3.3741,-0.4227777,-4.1317983,6.3164305999999995,-1
881,882,1580693053236,-1.2688999,-5.6373,-3.3746998,-0.9092315999999999,-4.0224504,6.2443366,-1
882,883,1580693053246,-1.9078,-5.5284,-3.495,-1.6342055,-3.9719615,6.208136,-1
883,884,1580693053256,-2.6597998,-5.5035,-3.3144,-2.4043627,-3.9995332,6.4612513,-1
884,885,1580693053266,-3.4366999,-5.5836,-3.1462998,-3.219119,-4.289806400000001,6.516241,-1
885,886,1580693053276,-4.5593,-6.0216,-3.3418998999999996,-4.684342,-4.840243,6.101106,-1
886,887,1580693053286,-6.4158998,-6.5039,-4.0852,-6.7806954,-5.336235,5.321946,-1
887,888,1580693053296,-8.6392,-6.9449997,-4.776799700000001,-8.8868265,-5.772449,4.6821103,-1
888,889,1580693053307,-10.5133,-7.2078,-5.3396,-10.517593,-5.9604800000000004,4.316918,-1
889,890,1580693053317,-11.7894,-7.1403,-5.2072997,-11.480186999999999,-5.872258,4.9745669999999995,-1
890,891,1580693053327,-12.106299,-6.9874,-4.3224998,-11.278538000000001,-5.7859044,5.8684564,-1
891,892,1580693053337,-11.6247,-6.7216,-3.1455,-10.640752,-5.623462,7.23183,-1
892,893,1580693053347,-11.2748995,-6.5288997,-2.1259,-10.592207,-5.636985,7.952101700000001,-1
893,894,1580693053358,-11.754000000000001,-6.4982,-1.4485999,-11.777059,-5.697817,8.345048,-1
894,895,1580693053368,-13.141399,-6.273,-1.4954,-13.178692000000002,-5.411949,8.145026,-1
895,896,1580693053378,-14.3425,-5.7864,-1.7364,-13.62682,-5.000970400000001,7.8187447,-1
896,897,1580693053388,-14.332499499999999,-5.3283,-2.0146,-12.920894,-4.697012,7.564011,-1
897,898,1580693053399,-13.278198999999999,-4.776799700000001,-2.281,-11.566523,-4.3175116,7.4548454,-1
898,899,1580693053409,-11.823,-4.3327,-2.2809,-9.961229,-4.1158147000000005,7.62944,-1
899,900,1580693053419,-10.3639,-4.1203,-1.9554,-8.924837,-4.2761974,8.360973,-1
900,901,1580693053429,-9.7196,-4.2352,-0.88259995,-8.875036999999999,-4.658254599999999,9.796202000000001,-1
901,902,1580693053439,-9.9452,-4.3605,0.2617,-9.448505,-4.8727846,10.719636,-1
902,903,1580693053450,-10.5880995,-4.3816,1.145,-10.021745,-5.147332700000001,11.507414,-1
903,904,1580693053460,-11.118,-4.4725,1.8557999,-10.162495,-5.208231400000001,11.715586,-1
904,905,1580693053470,-11.1441,-4.3726997,1.9619999,-9.400469000000001,-5.18088,11.482582,-1
905,906,1580693053480,-10.3103,-4.1724,1.7468,-7.661934,-5.203577,11.4138775,-1
906,907,1580693053490,-8.3826,-4.1022,1.7487999,-5.3335824,-5.3242254,11.783494000000001,-1
907,908,1580693053501,-6.1319,-4.0154,2.3009999,-3.4490583,-5.32481,12.791367999999999,-1
908,909,1580693053511,-4.3427,-3.8332,3.3945,-2.2754302,-5.4262,13.787010999999998,-1
909,910,1580693053521,-3.2940998,-3.7659,4.3333,-1.9499335999999998,-5.537712,14.496796,-1
910,911,1580693053531,-3.1304,-3.6611998,5.0776997,-2.063955,-5.360828,15.363717000000001,-1
911,912,1580693053541,-3.1515,-3.3065,5.99,-1.5300768999999999,-5.165423400000001,16.158466,-1
912,913,1580693053551,-1.9113,-2.7378,7.0076,-0.8357392,-5.0229487,16.498079999999998,-1
913,914,1580693053562,-0.77989995,-2.5646,6.883899700000001,0.27480647,-4.9620120000000005,16.345608,-1
914,915,1580693053572,0.63659996,-2.5751,6.0881996,1.6268026000000002,-5.073840000000001,15.524932999999999,-1
915,916,1580693053582,1.8856,-2.3931,5.2592,2.9417555,-4.9047136,14.56255,-1
916,917,1580693053592,2.6102998,-1.9906,4.88,3.5095072,-4.5945497,14.288097,-1
917,918,1580693053603,3.0965998,-1.6386,5.0213,3.8943796,-4.304171599999999,14.486901999999999,-1
918,919,1580693053613,3.0965998,-1.6386,5.0213,4.326274400000001,-3.870112,14.872188000000001,-1
919,920,1580693053623,3.6209,-1.1345999,5.3984,4.638708599999999,-3.7171035000000003,15.052910999999998,-1
920,921,1580693053633,4.1488,-0.83129996,5.6744,4.752586,-3.6394260000000003,14.759132000000001,-1
921,922,1580693053643,4.6473,-0.6308,4.8178997,5.0050597,-3.5652057999999998,14.174401999999999,-1
922,923,1580693053653,5.0039997000000005,-0.68189996,3.7731998,5.319897,-3.6058495,13.140920999999999,-1
923,924,1580693053663,5.0,-0.93539995,2.3513,5.2709402999999995,-3.8329542,11.728562,-1
924,925,1580693053674,4.9845,-0.9801,1.0354,5.298186299999999,-3.7526336000000002,10.284821,-1
925,926,1580693053685,5.7538,-0.2827,0.87899995,6.216678599999999,-2.9266818,10.38009,-1
926,927,1580693053695,7.0674,0.72319996,1.5115,7.4571815,-1.8978645,11.051587,-1
927,928,1580693053705,8.045,1.5819,1.9704,8.272953,-1.1098752,11.386987,-1
928,929,1580693053715,8.313399,1.8730999,1.9494,8.212974,-0.99485785,11.353686999999999,-1
929,930,1580693053725,7.6457996,1.5997,1.8975999,7.196281,-1.4096389,11.195967,-1
930,931,1580693053735,6.5576,0.9885,1.5182999,6.10939,-1.989639,10.808278,-1
931,932,1580693053746,5.4146,0.49589998,1.1432999,5.0618596,-2.4324036,10.251589,-1
932,933,1580693053756,4.6245,-0.102699995,0.14559999,4.388657599999999,-2.9846406,9.136292999999998,-1
933,934,1580693053766,4.018,-0.4971,-0.91359997,3.8912193999999998,-3.0836650000000003,8.273681,-1
934,935,1580693053776,3.7623,-0.3685,-1.5888,3.9275824999999998,-2.7680802000000004,7.719136,-1
935,936,1580693053786,4.0857997,0.0412,-1.8865999,4.3878536,-2.2536428,7.6251493,-1
936,937,1580693053797,4.6128,0.4655,-1.6876,4.8327727,-1.8591168000000002,8.061766,-1
937,938,1580693053807,4.9003997,0.80579996,-0.9824,5.045291400000001,-1.578957,8.844085,-1
938,939,1580693053817,5.0060997,0.9332,-0.2347,5.013046299999999,-1.5871738000000002,9.470101,-1
939,940,1580693053827,4.7591,0.69629997,0.1988,4.3826056,-2.0786843,9.815413000000001,-1
940,941,1580693053837,3.8751,0.1741,0.3356,3.2899876000000003,-2.6244377999999995,9.865853,-1
941,942,1580693053847,2.7854997999999997,-0.3613,0.3807,2.3197134,-3.0822856,9.847380000000001,-1
942,943,1580693053857,1.8499999,-0.79029995,0.24669999,1.4452933000000001,-3.3554163,9.532399,-1
943,944,1580693053868,1.0310999,-1.0002,-0.1532,0.9816323,-3.3591800000000003,9.136054,-1
944,945,1580693053878,0.7468,-0.9259,-0.50409997,1.0964773,-3.147408,8.897782000000001,-1
945,946,1580693053889,1.003,-0.667,-0.7058,1.5015763,-2.8171325,8.810328,-1
946,947,1580693053899,1.3922,-0.4147,-0.63989997,1.8609076,-2.669918,9.238832,-1
947,948,1580693053909,1.6180999,-0.32529998,-0.1787,1.7904415,-2.6519136000000003,9.8295,-1
948,949,1580693053919,1.517,-0.3459,0.4017,1.6670346999999999,-2.7512537999999997,10.311069999999999,-1
949,950,1580693053929,1.4024,-0.4188,0.8247,1.4853818,-2.72645,10.454464,-1
950,951,1580693053940,1.0838,-0.36499998,0.8824,1.0550289,-2.7653701,10.205294,-1
951,952,1580693053950,0.6228,-0.4705,0.45679998,0.63251936,-2.7359788,9.445394,-1
952,953,1580693053960,0.33679998,-0.43799999999999994,-0.2258,0.5803545,-2.6502664,8.922835000000001,d
953,954,1580693053970,0.3178,-0.32889998,-0.8501,0.6149843,-2.4334187999999997,8.362046000000001,-1
954,955,1580693053980,0.353,-0.1457,-1.2573999,0.8573156999999999,-2.1970918,8.228268,-1
955,956,1580693053990,0.6403,0.0973,-1.3093,1.1623083,-1.96563,8.468177,-1
956,957,1580693054001,1.0030999,0.38259998,-0.8975,1.5127141000000002,-1.6924898999999998,9.171679,-1
957,958,1580693054011,1.252,0.5589999999999999,-0.3856,1.5972294,-1.7095175,9.455143,-1
958,959,1580693054021,1.3529999,0.5503,-0.099,1.5617378,-1.7162308999999998,9.623225,-1
959,960,1580693054031,1.3012999,0.53749996,0.1083,1.2780919,-1.8404133000000003,9.694822,-1
960,961,1580693054041,1.0353,0.4199,0.1475,0.90377283,-2.0727658,9.375273,-1
961,962,1580693054051,0.6558,0.1871,-0.1775,0.48184744,-2.199218,9.122282,-1
962,963,1580693054061,0.2269,0.0502,-0.43449998,0.29104874,-2.2888377,8.999747,-1
963,964,1580693054072,-0.0019999999,0.0337,-0.58309996,0.2511805,-2.2044756000000003,8.969033999999999,-1
964,965,1580693054082,0.1591,0.1282,-0.2974,0.41195592,-2.1219425,9.254883,-1
965,966,1580693054092,0.3689,0.20799999,0.1758,0.6218986999999999,-2.0551062,9.722958,-1
966,967,1580693054102,0.4881,0.3083,0.5316,0.7361979000000001,-1.9611671999999998,10.075366,-1
967,968,1580693054112,0.3997,0.27789998,0.5926,0.64738256,-1.9949637999999998,10.133085000000001,-1
968,969,1580693054123,0.3997,0.27789998,0.5926,0.52415776,-2.0241540000000002,10.044462,-1
969,970,1580693054133,0.0392,0.12539999,0.4565,0.2908668,-2.1609201000000002,10.002668,-1
970,971,1580693054143,-0.13329999,-0.0143,0.2403,0.1283292,-2.2947657,9.785629,-1
971,972,1580693054153,-0.2351,-0.0657,0.1516,0.033193212,-2.340131,9.693807000000001,-1
972,973,1580693054163,-0.2351,-0.0657,0.1516,0.015351621000000001,-2.3227205,9.833063000000001,-1
973,974,1580693054173,-0.2543,-0.0451,0.2793,0.051120992999999997,-2.3216958,9.948032000000001,-1
974,975,1580693054183,0.0184,0.0256,0.5367,0.30253133,-2.2508367999999996,10.106213,-1
975,976,1580693054194,0.22899999,0.1215,0.6362,0.45862368,-2.1723932999999995,10.170827000000001,-1
976,977,1580693054204,0.1951,0.0975,0.5489,0.35140178,-2.237458,10.024905,-1
977,978,1580693054214,0.0508,0.011000000000000001,0.3529,0.15777789,-2.3353330000000003,9.803011,-1
978,979,1580693054224,-0.1059,-0.1078,0.14649999,0.03664086,-2.4209785,9.641719,-1
979,980,1580693054235,-0.1774,-0.1103,0.028099999,-0.02252465,-2.4031465,9.545577,-1
980,981,1580693054245,-0.1733,-0.093499996,-0.0019999999,0.020484788,-2.3743203,9.53577,-1
981,982,1580693054255,-0.0526,-0.084699996,0.0565,0.26082435,-2.358461,9.649992999999998,-1
982,983,1580693054265,0.23629999,-0.033299997000000005,0.22369999,0.42906009999999994,-2.293607,9.859264999999999,-1
983,984,1580693054275,0.2942,0.0326,0.4998,0.45035893,-2.3075125,10.190614,-1
984,985,1580693054286,0.2985,-0.0242,0.8849,0.45430458,-2.375527,10.536862,-1
985,986,1580693054296,0.30789998,-0.0404,1.1820998999999999,0.45109636,-2.37885,10.821026,-1
986,987,1580693054306,0.36859998,-0.0784,1.3316,0.5121676,-2.4299424,10.816811999999999,-1
987,988,1580693054316,0.45889997,-0.052699998,1.2152,0.6511654,-2.3535863999999997,10.744238000000001,-1
988,989,1580693054326,0.74259996,0.0676,1.2745999,0.87133616,-2.2745109,10.852169,-1
989,990,1580693054336,0.9813,0.1567,1.5590998999999999,1.0585148000000002,-2.1592443,11.254137,-1
990,991,1580693054347,0.9683,0.25419998,1.9707999,0.98598975,-2.1337987999999997,11.651086,-1
991,992,1580693054357,0.87259996,0.1739,2.3135998,0.9186264999999999,-2.2061994,11.974581,-1
992,993,1580693054367,0.8576,0.1335,2.6271,0.8792945,-2.2243473999999996,12.304636,-1
993,994,1580693054378,0.8325,0.0969,2.9807,0.8460247,-2.2688412999999996,12.738695,-1
994,995,1580693054388,0.8656,0.1117,3.3546,0.9444742,-2.156285,13.025233,-1
995,996,1580693054398,1.1675,0.3114,3.7184,1.3692249,-1.9444653000000003,13.526569,-1
996,997,1580693054408,1.5659999999999998,0.5255,4.227999700000001,1.6793888,-1.6695535,14.070312,-1
997,998,1580693054419,1.821,0.78959996,4.6865,1.7501805000000001,-1.4886571000000002,14.352339,-1
998,999,1580693054430,1.7459999,0.8365,4.8872,1.2664369,-1.6202712,14.511142000000001,-1
999,1000,1580693054440,1.2234,0.617,4.9772997000000005,0.7687399,-1.846054,14.460605,-1
1000,1001,1580693054450,0.6681,0.2803,4.7908,0.3985484,-2.1422741000000003,14.072227,-1
1001,1002,1580693054460,0.47849998,0.035299998,4.4460998,0.25911966,-2.2665523999999997,13.832873999999999,-1
1002,1003,1580693054470,0.3254,-0.11229999,4.1995997,0.23127031,-2.2324972,13.504207000000001,-1
1003,1004,1580693054481,0.3689,-0.1294,3.9150998999999995,0.69454837,-1.9900031000000002,13.544525,-1
1004,1005,1580693054491,0.8663,0.075399995,3.9462,1.0182539000000002,-1.7744578000000002,14.081783999999999,-1
1005,1006,1580693054501,1.2365999,0.2566,4.4792,1.0808096999999999,-1.7010706999999998,14.822359,-1
1006,1007,1580693054511,1.3422999,0.29839998,5.2082996,0.9737697,-1.6604458999999998,15.0604,-1
1007,1008,1580693054521,1.2709,0.2852,5.4438996,0.77091384,-1.6799921999999998,14.58722,-1
1008,1009,1580693054531,0.7109,0.0787,4.1777,0.36269283,-1.7010611,13.822636,-1
1009,1010,1580693054541,0.7109,0.0787,4.1777,-0.033241097000000004,-1.8390055,12.965214999999999,-1
1010,1011,1580693054551,0.36089998,-0.1777,3.2961998,-0.43468168,-1.8895134999999998,12.301083,-1
1011,1012,1580693054561,-0.0069999998,-0.3373,2.6125,-0.5982919,-1.8780596999999999,12.082885000000001,-1
1012,1013,1580693054571,-0.1217,-0.4301,2.3832998,-0.4387614,-1.6239871000000001,12.014555,-1
1013,1014,1580693054581,0.1147,-0.2679,2.3048,-0.11066,-1.3432046,11.842056,-1
1014,1015,1580693054592,0.52239996,-0.071499996,2.1313,0.018253393,-1.1406744,11.863385000000001,-1
1015,1016,1580693054602,0.7144,0.07279999599999999,2.1649,-0.004185064699999999,-1.0593385,11.804055,-1
1016,1017,1580693054612,0.75,0.0075999996999999994,1.9813,-0.23373155,-1.0312209,11.095554,-1
1017,1018,1580693054622,0.57809997,-0.0791,1.3532,-0.36076787,-0.97297484,10.843129,-1
1018,1019,1580693054633,-0.11889999,-0.39519998,0.8567,-0.9104957,-1.0470419,10.612414,-1
1019,1020,1580693054643,-0.6306,-0.6890000000000001,0.75689995,-1.4584806000000001,-1.2195393,10.493527,-1
1020,1021,1580693054653,-0.99679995,-0.9737,0.4732,-1.8125734,-1.3148572,10.2062235,-1
1021,1022,1580693054663,-1.3461,-1.0404999,0.14379999,-2.0470042,-1.182276,9.863938000000001,-1
1022,1023,1580693054673,-1.1359,-0.93549997,-0.2706,-1.7397227,-0.91564804,9.435176,-1
1023,1024,1580693054684,-0.7216,-0.7364,-0.57449996,-1.2990077,-0.52354485,9.200285000000001,-1
1024,1025,1580693054694,-0.1862,-0.2564,-0.68,-0.7527944999999999,0.11197203,9.091282000000001,-1
1025,1026,1580693054705,0.3969,0.0501,-0.6268,-0.05035485,0.57345915,9.361434,-1
1026,1027,1580693054715,0.9256,0.2502,-0.0525,0.45698604,0.9027194,9.875805,-1
1027,1028,1580693054725,1.2451,0.24129999,0.072399996,0.6319256,0.7982269000000001,9.733713,-1
1028,1029,1580693054735,1.0867,-0.1945,-0.35889998,0.39132747,0.4951209,9.178431,-1
1029,1030,1580693054746,0.78099996,-0.5557,-0.8663,-0.008082825,0.42325658,8.796047999999999,-1
1030,1031,1580693054756,0.3338,-0.6617,-0.9011,-0.47042233,0.4796352,8.915845,-1
1031,1032,1580693054767,-0.22479999,-0.7848,-0.7086,-1.1241926000000002,0.46791320000000003,9.049183,-1
1032,1033,1580693054777,-0.7578,-0.9087,-0.6318,-1.5374031000000001,0.51009905,9.079014,-1
1033,1034,1580693054787,-1.1134,-1.0663999,-0.62119997,-1.7972122,0.40294415,8.977136,-1
1034,1035,1580693054797,-1.2709,-1.2577,-0.77449995,-1.5983307,0.6244844,8.748356,-1
1035,1036,1580693054808,-0.87869996,-1.0373,-0.9252,-0.82260936,1.1042058000000001,8.623818,-1
1036,1037,1580693054818,-0.0802,-0.69589996,-1.0246998999999999,-0.14662091,1.4983968,8.581748,-1
1037,1038,1580693054828,0.82519996,-0.37919998,-0.94589996,0.8547109,1.9390543999999998,8.695922999999999,-1
1038,1039,1580693054838,1.2793,-0.2741,-0.9536,0.7816973,1.9636668000000002,8.438786,-1
1039,1040,1580693054848,0.6518,-0.5656,-1.3031,-0.23783042,1.6742748,8.148724000000001,-1
1040,1041,1580693054858,-0.1174,-0.9851,-1.2405,-0.8883638,1.3538923,8.476039,-1
1041,1042,1580693054868,-0.73899996,-1.4233999,-0.87469995,-1.4659792,1.1240011,8.554338000000001,-1
1042,1043,1580693054879,-1.4502,-1.739,-1.0182999,-2.2611032000000004,0.8764405999999999,8.261289,-1
1043,1044,1580693054889,-1.9628999,-2.0844,-1.1896,-2.6887939999999997,0.91305274,7.885140400000001,-1
1044,1045,1580693054899,-2.1983,-2.0115,-1.6036999,-2.6594121,1.1569357,7.281591000000001,-1
1045,1046,1580693054909,-1.8077999,-1.8067,-2.2113,-1.615205,1.6666995,6.981463400000001,-1
1046,1047,1580693054919,-0.57159996,-1.2497,-2.3274999,-0.45891099999999996,2.3233716,6.8327928,-1
1047,1048,1580693054929,0.3647,-0.9235,-2.5126,0.03257072,2.2456942000000004,6.307429,-1
1048,1049,1580693054940,0.5248,-1.2849,-2.9636,-0.15408124,1.8584273,6.0324397,-1
1049,1050,1580693054950,0.2033,-1.8663,-3.1827,-0.6866187,1.4754412000000001,5.846985299999999,-1
1050,1051,1580693054960,-0.3832,-2.1748,-3.3574998,-1.6611737000000002,1.3742718,5.540547,-1
1051,1052,1580693054970,-1.1623,-2.253,-3.5855,-2.160317,1.5161809,5.507066,-1
1052,1053,1580693054980,-1.4808999,-2.1938999,-3.4831998,-2.272605,1.560397,5.9018125999999995,-1
1053,1054,1580693054991,-1.5474,-2.1785,-3.0992,-2.3636231,1.6431215000000001,5.806514,-1
1054,1055,1580693055000,-1.5884999,-2.164,-3.2157,-2.1965747,1.6253468999999998,5.926549400000001,-1
1055,1056,1580693055010,-1.3112,-2.2408,-2.9592,-1.7356620999999999,1.5938106,6.292316400000001,-1
1056,1057,1580693055020,-0.8803,-2.2888,-2.7129998,-1.5087684,1.5819063999999998,5.965536599999999,-1
1057,1058,1580693055030,-0.7044,-2.3774,-3.0347,-1.3415956,1.6119874,5.950539599999999,-1
1058,1059,1580693055040,-0.5282,-2.3551,-2.9456,-1.1685428999999998,1.7910831000000003,6.0445356,-1
1059,1060,1580693055051,-0.3498,-2.2194,-2.8976998,-1.0185126,2.0103824,5.7993120000000005,-1
1060,1061,1580693055061,-0.22549999,-2.0586,-3.1065998,-0.9602185,2.1807346,5.9609013,-1
1061,1062,1580693055071,-0.1585,-1.9204999,-2.9259999,-0.894761,2.2715325,6.0826416,-1
1062,1063,1580693055081,-0.085099995,-1.8457999,-2.7872999,-0.9039165000000001,2.3658447,5.813782700000001,-1
1063,1064,1580693055091,-0.093499996,-1.7699,-3.0514997999999998,-0.8752914,2.6417813,6.0395365,-1
1064,1065,1580693055101,-0.0692,-1.5238,-2.8176,-0.77170867,3.0078642,6.467677,-1
1065,1066,1580693055112,0.39319998,-0.79029995,-1.9167,-0.38459498,3.3956964,6.927392500000001,-1
1066,1067,1580693055122,0.77059996,-0.5488,-1.4053999,0.007661445500000001,3.6322818,7.4488883,-1
1067,1068,1580693055132,0.77059996,-0.5488,-1.4053999,-0.018406622,3.7562629999999997,7.5421949999999995,-1
1068,1069,1580693055142,0.3906,-0.4439,-1.3048999,-0.39376956,3.748075,7.5424055999999995,-1
1069,1070,1580693055153,0.052699998,-0.5201,-1.2064999,-0.82093346,3.6614047999999997,7.6493692,-1
1070,1071,1580693055163,-0.1363,-0.4966,-1.1186,-0.95812124,3.6939757000000006,7.7256675,-1
1071,1072,1580693055173,-0.13069999,-0.39409998,-0.9133,-0.9718351999999999,3.7832410000000003,7.936434299999999,-1
1072,1073,1580693055183,-0.13069999,-0.39409998,-0.9133,-0.90489334,3.8366508,8.155925,-1
1073,1074,1580693055193,-0.0134,-0.2532,-0.37379998,-0.87404644,3.9182449999999998,8.474928,-1
1074,1075,1580693055203,0.0534,-0.0828,-0.1161,-0.7942429,4.1538057,8.752866000000001,-1
1075,1076,1580693055213,0.0534,-0.0828,-0.1161,-0.72257006,4.307399,8.738023,-1
1076,1077,1580693055223,0.1444,0.1558,-0.23189999,-0.7192374,4.3708544,8.55453,-1
1077,1078,1580693055233,0.1444,0.1558,-0.23189999,-0.71076185,4.3527164,8.312265,-1
1078,1079,1580693055243,0.27019998,0.041899998,-0.9044,-0.5683355999999999,4.276743,7.881415,-1
1079,1080,1580693055253,0.4202,0.0345,-0.8505,-0.46351746,4.275881299999999,7.9587092,-1
1080,1081,1580693055264,0.4202,0.0345,-0.8505,-0.44774446,4.264168700000001,8.259115,-1
1081,1082,1580693055275,0.35189998,0.15959999,-0.24919999,-0.56474435,4.442307,8.59844,-1
1082,1083,1580693055285,0.3312,0.3182,-0.023599999,-0.5907358,4.5847620000000004,8.846153999999999,-1
1083,1084,1580693055295,0.2807,0.4368,0.16309999,-0.6320597,4.692405,8.968632000000001,-1
1084,1085,1580693055305,0.3974,0.51339996,0.0276,-0.49345455,4.758035,8.79759,-1
1085,1086,1580693055315,0.5933,0.5281,-0.0866,-0.290771,4.769815,8.694821000000001,-1
1086,1087,1580693055325,0.6907,0.50159997,-0.1706,-0.2368919,4.766463,8.541822,-1
1087,1088,1580693055336,0.67939997,0.4928,-0.3322,-0.31205067,4.7344093,8.482696,-1
1088,1089,1580693055346,0.5496,0.4452,-0.2489,-0.4897579000000001,4.6723514,8.547473,-1
1089,1090,1580693055356,0.3231,0.32099998,-0.3035,-0.7734995,4.5369544,8.395987,-1
1090,1091,1580693055366,0.010199999,0.1683,-0.5056,-1.0755616000000001,4.380853,8.235145,-1
1091,1092,1580693055376,-0.19469999,-0.0117,-0.5811,-1.2791741,4.2668029999999995,8.161019,-1
1092,1093,1580693055387,-0.42999998,-0.0415,-0.6583,-1.5379107,4.2462125,8.09855,-1
1093,1094,1580693055397,-0.588,-0.0002,-0.67789996,-1.5432642,4.3070059999999994,8.127749,d
1094,1095,1580693055407,-0.42459998,0.053799997999999995,-0.56189996,-1.3541413999999998,4.377692,8.26783,-1
1095,1096,1580693055417,-0.1927,0.1883,-0.54499996,-1.0128622,4.514928299999999,8.152956,-1
1096,1097,1580693055428,0.1371,0.29279998,-0.69449997,-0.7495767,4.6037917,7.9125495,-1
1097,1098,1580693055438,0.2995,0.3466,-1.0198,-0.7821090999999999,4.6085415,7.6162333,-1
1098,1099,1580693055448,0.0993,0.2721,-1.3643,-1.2474365,4.4111156,7.300975,-1
1099,1100,1580693055458,-0.4148,0.051599998,-1.5230000000000001,-1.919872,4.075544399999999,7.176858999999999,-1
1100,1101,1580693055469,-0.9878,-0.2258,-1.6629,-2.5485032000000003,3.6516172999999994,6.841603299999999,-1
1101,1102,1580693055479,-1.6268,-0.69699997,-2.0195,-3.0614083,3.2016606,6.596744,-1
1102,1103,1580693055489,-2.3237,-1.2535,-2.2694,-4.071914700000001,2.5710852,6.428948999999999,-1
1103,1104,1580693055500,-3.1274998,-1.7472999,-2.4328,-4.67397,2.1354556000000002,6.132968,-1
1104,1105,1580693055511,-3.7126,-2.1404,-2.7442,-5.208767400000001,1.7866298999999999,5.741094599999999,-1
1105,1106,1580693055521,-4.1667,-2.4431998999999998,-3.1736999,-5.3763523,1.624169,4.8958835999999994,-1
1106,1107,1580693055531,-4.2464,-2.5209,-3.9262998,-5.515494,1.4161701999999998,3.9979818,-1
1107,1108,1580693055541,-4.3606,-2.7110999,-4.8374,-5.786307,1.0488901000000002,3.1516504000000003,-1
1108,1109,1580693055551,-4.6257997,-3.0595,-5.6863,-6.0864053,0.61604726,2.6100152000000003,-1
1109,1110,1580693055562,-4.9265,-3.4664998,-6.2464,-6.622314,0.10725065,2.2131522,-1
1110,1111,1580693055572,-5.9532,-4.4598,-6.4968,-7.0846729999999996,-0.46223417,2.3879770000000002,-1
1111,1112,1580693055582,-6.2053,-4.643399700000001,-6.2760997000000005,-7.2816863,-0.688084,2.6408715,-1
1112,1113,1580693055592,-6.1387997,-4.7437997,-5.901799700000001,-7.1556177,-0.84000087,3.0439974999999997,-1
1113,1114,1580693055602,-5.8694,-4.6306,-4.9234,-6.8111496,-0.7741507,4.048403700000001,-1
1114,1115,1580693055613,-5.8694,-4.6306,-4.9234,-6.362246,-0.43585962,4.1820865,-1
1115,1116,1580693055623,-5.0537,-4.1054997,-3.7872,-5.858889,-0.37467340000000005,5.257619,-1
1116,1117,1580693055633,-4.8852,-4.0452,-2.3772,-5.6293239999999996,-0.40810606,6.710191,-1
1117,1118,1580693055643,-4.848799700000001,-3.8416997999999998,-1.7907,-5.474476,-0.3328036,7.3894734,-1
1118,1119,1580693055654,-4.2934,-3.8978,-1.7200999,-4.802213,-0.4709299,7.3952103000000005,-1
1119,1120,1580693055664,-3.4027998,-4.0429997,-2.5074,-3.8653622000000003,-0.7358435000000001,6.428517299999999,-1
1120,1121,1580693055674,-2.9731998,-4.2365,-4.0161,-3.6103125,-1.0057563,4.9247775,-1
1121,1122,1580693055684,-3.1267,-4.6791,-4.6928997,-3.6752047999999995,-1.6037799,4.674018,-1
1122,1123,1580693055695,-3.0767999,-4.8873,-3.7191,-3.4636245000000003,-1.6330563,6.2328157,-1
1123,1124,1580693055705,-2.5349998,-4.4189,-1.9668,-2.7430081000000004,-1.3785048,7.743136,-1
1124,1125,1580693055715,-1.3054,-4.071000000000001,-0.3945,-1.0016190999999999,-0.80470073,9.440922,-1
1125,1126,1580693055725,0.2994,-2.7463,0.60789996,0.92099196,0.48205814,10.354261,-1
1126,1127,1580693055736,2.2424,-1.716,1.109,2.780214,0.8398764000000001,10.464069,-1
1127,1128,1580693055746,3.7010998999999996,-1.7313,0.44399998,3.743507,0.5960221,9.485769,-1
1128,1129,1580693055756,4.0403,-1.7363,-0.6874,3.836124,0.29880595,8.746678999999999,-1
1129,1130,1580693055766,4.0081,-2.2024,-0.5405,3.675272,-0.5075229,9.44888,-1
1130,1131,1580693055777,3.9743998,-2.7393,0.4233,3.966675,-1.0041665000000002,10.383337,-1
1131,1132,1580693055787,4.8259,-2.7054,1.4597,5.603993,-0.92037904,12.060791,-1
1132,1133,1580693055798,6.242999999999999,-2.3806998999999998,2.951,6.9203152999999995,-0.7458704,13.434373,-1
1133,1134,1580693055808,7.4723997,-1.8708999,4.0442,8.549809,-0.12292789999999999,13.866220000000002,-1
1134,1135,1580693055818,9.3269,-1.0397999,3.8369999999999997,10.858203,0.49226704,12.884349,-1
1135,1136,1580693055828,11.6634,-0.3457,2.642,13.122848999999999,0.82930356,12.005581,-1
1136,1137,1580693055838,13.886398999999999,-0.0245,2.2136,15.313448000000001,0.7125526999999999,12.374105,-1
1137,1138,1580693055849,15.9242,0.0,3.0131,17.037636,0.8107629,14.19188,-1
1138,1139,1580693055859,16.9909,0.39929998,4.845,16.883718,0.9138955,16.24871,-1
1139,1140,1580693055869,16.3184,0.6142,7.6124997,15.359263,0.4227777,19.41027,-1
1140,1141,1580693055879,15.026,0.3631,9.9344,14.125588,0.07351156,20.716454000000002,-1
1141,1142,1580693055889,13.940598999999999,0.26459998,11.0554,13.769648000000002,-0.2507687,21.122692,-1
1142,1143,1580693055899,13.8961,0.1188,11.2477,14.536654,-0.5384751,20.132573999999998,-1
1143,1144,1580693055909,14.844299,-0.0316,9.9292,15.45936,-0.5480136,18.4886,-1
1144,1145,1580693055920,16.0873,0.15959999,8.0688,17.160583,0.22360885,16.798925,-1
1145,1146,1580693055930,17.521,0.9884,6.6668997,17.648092000000002,1.0017532,14.804153,-1
1146,1147,1580693055940,17.7087,1.6093,4.548,16.415289,0.9118364999999999,12.678744,-1
1147,1148,1580693055950,16.1496,1.3036,2.5274,13.957344,-0.091956496,11.231324,-1
1148,1149,1580693055961,13.728,0.19309999,1.1844,11.554159,-1.5093143,9.940888000000001,-1
1149,1150,1580693055971,11.8441,-0.97419995,0.1462,10.247595,-2.412091,9.761946,-1
1150,1151,1580693055981,10.227699000000001,-2.0634,0.0202,8.596927,-3.202762,10.087548,-1
1151,1152,1580693055991,8.664599,-2.745,0.3645,7.460246000000001,-3.6368690000000004,10.267994,-1
1152,1153,1580693056001,7.5881,-3.1153,0.4332,6.489091,-4.0767317,9.753451,-1
1153,1154,1580693056011,6.772,-3.5005,-0.038,5.602298,-4.444548,9.30472,-1
1154,1155,1580693056022,5.8415,-3.8664,-0.4897,4.4880457,-4.7137427,8.907627,-1
1155,1156,1580693056032,4.6933,-4.1184998,-0.8822,3.468547,-5.190792,8.837936000000001,-1
1156,1157,1580693056042,3.6374998,-4.5733,-0.9598,2.8872826000000003,-5.5838339999999995,9.096051,-1
1157,1158,1580693056052,2.1789,-5.756,-0.3741,2.0494847,-6.491562,9.421299000000001,-1
1158,1159,1580693056063,2.1789,-5.756,-0.3741,0.72467697,-7.276697,9.761208,-1
1159,1160,1580693056072,0.8517,-6.4611998,-0.0149,-1.1475600000000001,-7.7112064,10.441621000000001,-1
1160,1161,1580693056083,-2.8708,-6.8132,1.2833999,-2.9676034,-7.7898417,11.053924,-1
1161,1162,1580693056093,-4.3757,-6.5368,1.7894,-4.6294956,-7.536017999999999,11.582803,-1
1162,1163,1580693056103,-5.5408998,-6.4289,1.6475999,-5.5047293,-7.5119039999999995,11.404396,-1
1163,1164,1580693056113,-6.781399700000001,-6.3567995999999996,0.9762,-6.8914413,-7.4399147,10.620535,-1
1164,1165,1580693056123,-7.5273,-6.0154,0.5506,-7.410351299999999,-7.1887913,10.300124,-1
1165,1166,1580693056133,-7.6352997,-5.5228996,0.5679,-7.517707000000001,-6.639983,10.363302000000001,-1
1166,1167,1580693056144,-7.8279,-4.8413,0.8517,-7.824758999999999,-6.0482035000000005,10.635187,-1
1167,1168,1580693056154,-8.377,-4.3149,0.98929995,-8.457355,-5.623204,10.671139,-1
1168,1169,1580693056164,-9.103499000000001,-3.9601998,0.7626,-9.160848,-5.353244,10.437704,-1
1169,1170,1580693056174,-9.103499000000001,-3.9601998,0.7626,-9.465639999999999,-5.0829763,10.318406,-1
1170,1171,1580693056184,-9.8571,-3.3924,0.30179998,-9.748213,-4.871674,10.003625999999999,-1
1171,1172,1580693056194,-10.282499000000001,-3.3653998,0.7769,-10.196254,-4.8836923,10.708306,-1
1172,1173,1580693056206,-10.992599499999999,-3.3834,2.0,-11.005819,-4.982956,12.321242,-1
1173,1174,1580693056217,-11.799399000000001,-3.4422,3.5098,-11.829233,-5.0537,13.887232000000001,-1
1174,1175,1580693056227,-12.3856,-3.3651,4.5592,-12.216022,-4.9961624,14.738581,-1
1175,1176,1580693056237,-12.646899000000001,-3.3242998,5.361799700000001,-12.28939,-4.995961,15.169126,-1
1176,1177,1580693056248,-12.4630995,-3.178,5.3957,-11.622547,-4.665552,14.688667,-1
1177,1178,1580693056258,-11.5794,-2.7094,4.6791,-10.839327,-4.1443343,13.739519,-1
1178,1179,1580693056268,-11.002999,-2.3327,3.6936998,-10.638387,-3.9333574999999996,12.867646,-1
1179,1180,1580693056278,-10.9472,-2.2226999,2.9710999,-10.519596,-3.8169131000000003,12.483941999999999,-1
1180,1181,1580693056288,-10.7837,-2.1646,2.8267999,-10.40046,-3.7925785000000003,12.638206,-1
1181,1182,1580693056299,-10.6105995,-2.1847,3.0946,-10.115492,-3.7788547999999995,12.972331,-1
1182,1183,1580693056309,-10.2072,-2.2431997999999997,3.2840998,-9.315762,-3.7050845999999997,12.792755999999999,-1
1183,1184,1580693056319,-9.3827,-2.1557999,3.0419,-8.241628,-3.5744282999999997,12.632756,-1
1184,1185,1580693056329,-8.219399000000001,-2.0801,2.9073,-6.8925333,-3.3464715,12.570373,-1
1185,1186,1580693056339,-6.8127,-1.8312998999999999,2.8706,-5.3789477,-2.8719406000000003,12.780306,-1
1186,1187,1580693056349,-5.2658,-1.4295,3.1671,-4.061753700000001,-2.456834,13.542716,-1
1187,1188,1580693056360,-4.0206,-1.0213,3.9638,-3.0489297000000004,-1.9442737,14.118386,-1
1188,1189,1580693056370,-3.0658,-0.6209,4.4755,-2.372491,-1.7266983,14.513229,-1
1189,1190,1580693056380,-2.4795,-0.5069,4.7901,-2.0222863999999996,-1.7218237,14.384823,-1
1190,1191,1580693056390,-2.1392,-0.6691,4.5646,-1.6447686999999998,-2.0140502000000002,14.167784,-1
1191,1192,1580693056400,-1.7336999,-1.0425999,4.3883,-1.1770948,-2.2690040000000002,14.22875,-1
1192,1193,1580693056410,-1.3495,-1.3389,4.4576,-0.8480358,-2.4017673,14.498470999999999,-1
1193,1194,1580693056421,-0.9999,-1.568,4.7139,-0.4379857,-2.3125593999999996,14.6517,-1
1194,1195,1580693056431,-0.46339998,-1.548,4.9216,0.16233645,-2.1793457999999997,14.834807999999999,-1
1195,1196,1580693056442,0.0093,-1.5468998999999999,5.0415998,0.38736266,-2.1244805,14.831055,-1
1196,1197,1580693056452,0.9736,-1.5212,4.8817997,1.113141,-1.9054972,14.682201999999998,-1
1197,1198,1580693056462,1.5287,-1.6293,4.907,1.6819842,-1.8716816000000003,14.722137,-1
1198,1199,1580693056472,1.4972999,-1.8887,5.0224,1.6474693999999999,-1.9898497,14.836054,-1
1199,1200,1580693056482,1.3037,-2.1338,4.973,1.454286,-2.0981252,14.753060999999999,-1
1200,1201,1580693056492,1.3332,-2.3065999,4.6513,1.4728075,-2.0779755,14.368812,-1
1201,1202,1580693056502,1.3332,-2.3065999,4.6513,1.5967698000000001,-1.8746983,13.979237,-1
1202,1203,1580693056512,2.0966,-1.8847,3.1437,2.210509,-1.3543233000000001,12.945592,-1
1203,1204,1580693056528,2.7659,-1.6714,2.1155999,3.2831593,-0.8245152,11.453917500000001,-1
1204,1205,1580693056538,3.3983,-1.6597998999999999,1.4248999,3.6180794,-0.72926426,10.938705,-1
1205,1206,1580693056548,3.6499998999999996,-1.9032999,0.8131,3.7085322999999994,-0.8684823,10.244464,-1
1206,1207,1580693056559,3.4617998999999995,-2.2202,0.3979,3.3659506,-0.99625605,10.056422999999999,-1
1207,1208,1580693056569,2.7769999999999997,-2.4029,0.070599996,2.3714569,-0.8708860999999999,9.314383,-1
1208,1209,1580693056579,2.1864998,-2.4838,-0.4204,1.9835482,-0.7648421,9.090209,-1
1209,1210,1580693056589,1.8529999,-2.52,-0.6052,1.7683765999999999,-0.6249441,8.871044,-1
1210,1211,1580693056599,1.6485,-2.5530999,-0.95409995,1.7800411,-0.44626963,8.163250999999999,-1
1211,1212,1580693056609,1.7874,-2.5661,-1.5451,2.2312524,-0.24635378,7.391246000000001,-1
1212,1213,1580693056620,2.2982,-2.5002,-2.3488,2.8442543,0.008130709,6.371028400000001,-1
1213,1214,1580693056630,2.9282,-2.4311,-3.3167998999999995,3.2291844,0.21351491,5.6076417,-1
1214,1215,1580693056640,3.2303,-2.4012,-3.9706998,3.225622,0.50259084,5.0328517,-1
1215,1216,1580693056650,3.2033,-2.2305,-4.419699700000001,2.952003,0.8276468000000001,5.122011,-1
1216,1217,1580693056660,2.8927999,-2.0254,-4.1844,2.5194376,1.1204768,5.4505534,-1
1217,1218,1580693056670,2.4759998,-1.9162999,-3.8235997999999998,1.9967258999999997,1.2271528,5.5921845,-1
1218,1219,1580693056680,1.992,-1.91,-3.7373998,1.6919249,1.3057976,5.319916200000001,-1
1219,1220,1580693056690,1.7673999,-1.9463999,-4.0113,1.6450368000000002,1.4582700000000002,4.9066005,-1
1220,1221,1580693056700,1.8048999,-1.8719999999999999,-4.3891,1.9819488999999997,1.770809,4.261851999999999,-1
1221,1222,1580693056710,2.1936998,-1.6667999,-5.1059,2.6557345000000003,2.2308407000000003,3.0852737,-1
1222,1223,1580693056720,2.8809,-1.3369,-6.2609,3.065009,2.5506580000000003,2.3016514999999997,-1
1223,1224,1580693056731,3.225,-1.0590000000000002,-7.0144997,3.0224595,3.1064383999999996,1.8732331000000002,-1
1224,1225,1580693056741,3.0449,-0.69629997,-7.1355996,2.721269,3.3528402,1.964318,-1
1225,1226,1580693056751,2.597,-0.5708,-6.9491,1.8466574,3.4800777000000003,2.0089555,-1
1226,1227,1580693056761,1.9417,-0.5669,-6.9353,1.1225263,3.4152424,1.9163381000000002,-1
1227,1228,1580693056771,1.2432,-0.6986,-6.9944997,0.6686814,3.3071492,1.6069787,-1
1228,1229,1580693056782,0.79649997,-0.8635,-7.2816,0.39695865,3.1183520000000002,1.2779578999999999,-1
1229,1230,1580693056792,0.53889996,-1.1031,-7.5898,0.63562226,3.0690793999999997,0.7889182,-1
1230,1231,1580693056802,0.8540000000000001,-1.2109999999999999,-8.1448,1.0591182,3.083885,0.55613476,-1
1231,1232,1580693056812,1.3998,-1.1326,-8.2782,1.2641672,3.2011435,0.5355542,-1
1232,1233,1580693056823,1.5802,-1.0110999,-8.436999,1.4546691,3.37004,0.35060690000000005,-1
1233,1234,1580693056833,1.4739,-1.0318,-8.603,1.2598577,3.2901695,0.14317326,-1
1234,1235,1580693056843,1.0313,-1.175,-8.7761,0.87122124,3.1697889999999997,0.030856472000000003,-1
1235,1236,1580693056853,1.0313,-1.175,-8.7761,0.7195055,3.047972,-0.13061807,-1
1236,1237,1580693056863,1.3234,-1.2681999,-8.5418,1.1205438,3.01136,0.29004318,-1
1237,1238,1580693056873,1.6206,-1.3295,-8.024799,1.4203745,2.9051435000000003,0.836467,-1
1238,1239,1580693056884,2.2472,-1.4972,-8.332,2.0479236000000003,2.6845417,0.55242854,-1
1239,1240,1580693056894,2.7493,-1.8337,-8.8243,2.5756342,2.213248,0.029774291,-1
1240,1241,1580693056904,2.2768,-2.2653,-9.092299,1.7558403999999999,1.6515586,-0.3866923,-1
1241,1242,1580693056914,1.5367998999999999,-2.764,-9.5709,1.2741367000000001,1.1305611,-0.69029623,-1
1242,1243,1580693056925,1.0735999,-3.4192998,-9.7534,0.892568,0.53304505,-0.78448415,-1
1243,1244,1580693056935,0.2796,-3.9229998999999998,-9.3371,0.08229349999999999,-0.097568505,-0.32312146,-1
1244,1245,1580693056945,-0.3448,-4.111799700000001,-8.4178,-0.77258015,-0.38633797,1.0466205,-1
1245,1246,1580693056955,-0.72859997,-3.8388998999999995,-7.6576,-1.1675277,-0.20625569,1.819737,-1
1246,1247,1580693056965,-1.3701999,-3.8111,-6.9739,-1.8832311999999998,-0.5172625,2.1377827999999996,-1
1247,1248,1580693056976,-1.6746,-3.9824,-7.6569996,-1.6627252000000001,-0.74384975,0.9896289,-1
1248,1249,1580693056986,-0.77709997,-4.0182,-9.1292,-0.39547426,-0.93285763,-0.19190006,-1
1249,1250,1580693056996,0.65959996,-4.2367,-9.535399,1.0116556,-1.308163,-0.042521022,-1
1250,1251,1580693057006,1.2498,-4.5036,-8.7355995,1.0540425,-1.8834802,1.4486932,-1
1251,1252,1580693057017,0.6227,-5.0216,-6.2901998,0.49935386,-2.4571883999999997,3.7474236000000003,-1
1252,1253,1580693057027,0.2189,-5.0745997,-3.4875998,0.056809615,-2.4839845,7.207447,-1
1253,1254,1580693057038,-0.1838,-4.4526997,-1.9758999,-0.5585768,-2.2867117,7.774203,-1
1254,1255,1580693057048,-1.0422,-4.3848,-1.7588999,-1.3763404,-2.7623532,8.001,-1
1255,1256,1580693057058,-1.4063,-4.4296,-1.5315,-1.0627766,-2.8470697,8.915395,-1
1256,1257,1580693057068,-0.9765,-4.2718997000000005,-0.5104,-0.7237863,-3.302169,10.4136,-1
1257,1258,1580693057078,-0.8512,-4.5720997,0.9302,-0.8771876000000001,-3.7685212999999997,11.258742999999999,-1
1258,1259,1580693057089,-1.1129999,-4.7873,1.6523,-0.8520964,-3.936489,11.425169,-1
1259,1260,1580693057099,-0.8024,-4.615,1.4089,-0.13665146,-3.9986233999999996,11.047604,-1
1260,1261,1580693057109,0.2722,-4.3568,1.4153999,1.6192657,-3.3243492,12.523197,-1
1261,1262,1580693057119,1.5206,-3.2566,3.2519999,2.4803642999999997,-2.8077188,14.929054,-1
1262,1263,1580693057129,2.4448,-2.5542998,6.3620996,3.0050678,-2.8545012,18.139035999999997,-1
1263,1264,1580693057139,2.6231,-2.4243,8.6679,2.3793004,-3.5660293,19.050978,-1
1264,1265,1580693057150,1.7579999,-3.0293999,9.284599,0.42378327,-5.102484,18.578487,-1
1265,1266,1580693057161,0.0413,-4.0745,8.816999000000001,-0.8043752,-6.0172989999999995,16.847355,-1
1266,1267,1580693057171,-1.4937999,-4.9193,6.5663,-1.9410366999999997,-6.043175700000001,14.937971,-1
1267,1268,1580693057181,-2.3528,-4.5044,5.2495,-1.0688673999999998,-4.9607954,16.832579,-1
1268,1269,1580693057191,-1.5087999,-3.3398,7.1556997,0.35029086,-3.6302226,19.584274,-1
1269,1270,1580693057201,-0.1301,-1.7953,9.9519,1.546798,-3.1205354,21.322474,-1
1270,1271,1580693057211,1.2912999,-0.9855,11.988,2.622331,-2.5909762,21.916801,-1
1271,1272,1580693057222,2.6283,0.1759,11.5341,3.1029619999999998,-2.2580385,21.039106,-1
1272,1273,1580693057232,2.6283,0.1759,11.5341,2.5944335,-2.462312,19.420354999999997,-1
1273,1274,1580693057242,0.9801,-0.3974,8.6867,1.4106348999999998,-3.0761182000000002,18.12582,-1
1274,1275,1580693057252,0.9801,-0.3974,8.6867,0.34198776,-3.4111434999999997,16.901646,-1
1275,1276,1580693057263,-1.0747,-0.6062,6.1136,-0.6533968000000001,-3.4459169999999997,15.501709,-1
1276,1277,1580693057272,-0.7057,0.111499995,5.701699700000001,-0.260221,-2.785539,15.069957999999998,-1
1277,1278,1580693057282,-0.7057,0.111499995,5.701699700000001,0.960841,-2.0289040000000003,15.457664999999999,-1
1278,1279,1580693057292,1.1726999,1.3823999,6.8248,1.6775213,-1.6560118000000001,16.154856,-1
1279,1280,1580693057302,1.1485,1.4691,6.9652996,1.6701089,-1.6202041999999999,16.262384,-1
1280,1281,1580693057312,1.2257999,1.4512999,6.407099700000001,1.7451336,-1.7085023000000001,15.692048000000002,-1
1281,1282,1580693057322,1.1962,1.4149,5.5712,1.7056292000000002,-1.7993383,14.843457,-1
1282,1283,1580693057333,1.1962,1.4149,5.5712,1.5581848999999999,-1.8731276999999997,14.271473,-1
1283,1284,1580693057343,1.0606999,1.379,5.0264,1.0823611000000002,-2.056868,13.600952,-1
1284,1285,1580693057353,0.754,1.2830000000000001,4.586,0.7464833000000001,-2.20098,13.00718,-1
1285,1286,1580693057363,-0.0234,0.97489995,2.7981,0.5149928,-2.3220596000000002,11.7945175,-1
1286,1287,1580693057373,0.0796,1.0769,2.2972,0.6156738,-2.2180842999999997,11.537917,-1
1287,1288,1580693057383,0.0796,1.0769,2.2972,0.8023161999999999,-2.1054703999999997,11.298621,-1
1288,1289,1580693057394,0.64599997,1.2522,2.0784,1.1791252,-2.0608044,11.30996,-1
1289,1290,1580693057404,1.0279,1.3483,2.322,1.5879973,-2.0101240000000002,11.63333,-1
1290,1291,1580693057414,1.157,1.2186999,2.7814,1.5579933000000001,-2.198241,12.073039999999999,-1
1291,1292,1580693057424,0.5496,0.8221,3.0605,0.841332,-2.6791692000000005,12.255343,-1
1292,1293,1580693057434,-0.3964,0.239,2.7252,-0.12265974,-3.2261868,11.796605,-1
1293,1294,1580693057445,-1.056,-0.078,1.854,-0.6906505999999999,-3.458769,10.850541,-1
1294,1295,1580693057455,-1.2717999,-0.15869999,0.6854,-0.82631564,-3.4655400000000003,9.722691000000001,-1
1295,1296,1580693057465,-1.0941,-0.059299998,-0.1488,-0.5390784000000001,-3.2931097,8.965777000000001,-1
1296,1297,1580693057475,-0.79429996,0.0734,-0.2924,-0.33897108,-3.1941428,8.994288000000001,-1
1297,1298,1580693057485,-0.5029,0.1524,0.0396,-0.037723042000000005,-3.086691,9.49368,-1
1298,1299,1580693057495,-0.2376,0.259,0.5118,0.27175146,-2.984583,9.880459,-1
1299,1300,1580693057505,0.1713,0.42369998,0.70949996,0.51016605,-2.8418407,9.942708,-1
1300,1301,1580693057516,0.0624,0.3863,0.60139996,0.23151929999999998,-2.954761,9.842092999999998,-1
1301,1302,1580693057525,-0.52849996,0.1264,0.5305,-0.40870938,-3.2060084,9.727412,-1
1302,1303,1580693057535,-1.03,-0.0614,0.1732,-0.86669147,-3.3709786,9.375214999999999,d
1303,1304,1580693057545,-1.3691,-0.2626,0.0109,-1.2633341999999999,-3.5317540000000003,9.235471,-1
1304,1305,1580693057555,-1.5302999,-0.22749999,-0.0823,-1.2592542,-3.4508586,9.116335000000001,-1
1305,1306,1580693057565,-1.2215999,-0.0804,-0.2135,-0.8114906999999999,-3.2491423999999998,9.089051,-1
1306,1307,1580693057575,-0.6616,0.0905,-0.1081,-0.28492916,-3.0503662,9.20536,-1
1307,1308,1580693057586,-0.17809999,0.3132,-0.0016999998999999999,0.0812209,-2.8889492000000003,9.293707000000001,-1
1308,1309,1580693057596,0.2638,0.5064,0.13409999,0.6294451999999999,-2.626334,9.43145,-1
1309,1310,1580693057606,0.61899996,0.6665,0.0924,0.7450946999999999,-2.6093638,9.246597999999999,-1
1310,1311,1580693057616,0.44349998,0.5078,-0.0782,0.23624067,-2.8790276,9.177502,-1
1311,1312,1580693057627,-0.15349999,0.19919999,-0.1223,-0.22604136,-3.1075494,9.146856,-1
1312,1313,1580693057637,-0.6965,-0.1389,-0.1369,-0.82229334,-3.5277317000000004,9.209211,-1
1313,1314,1580693057647,-1.179,-0.4355,-0.0526,-1.1462767,-3.66151,9.2853365,-1
1314,1315,1580693057657,-1.4092,-0.53249997,0.07200000000000001,-1.2126057,-3.7123342000000004,9.373471,-1
1315,1316,1580693057668,-1.4092,-0.53249997,0.07200000000000001,-1.02649,-3.6521727999999993,9.417497000000001,-1
1316,1317,1580693057678,-0.43649998,-0.1757,0.1872,0.037914578,-3.2066310000000002,9.503055999999999,-1
1317,1318,1580693057688,0.083299994,0.0009,0.1771,0.48412675,-3.0256963,9.477611,-1
1318,1319,1580693057698,0.5042,0.2065,0.1669,0.7895310999999999,-2.89708,9.5778885,-1
1319,1320,1580693057708,0.6742,0.2437,0.3033,0.6080601999999999,-2.9948304,9.645099,-1
1320,1321,1580693057718,0.3927,0.1302,0.3505,0.101609915,-3.2134304,9.737314,-1
1321,1322,1580693057729,-0.1131,-0.1236,0.49469998,-0.352369,-3.3473620000000004,9.965164999999999,-1
