,Seq,Time,ACCx,ACCy,ACCz,ADGx,ADGy,ADGz,Keydown
0,1,1580693192602,1.2824,1.1287999,-1.1927,1.2778046,-1.5038843000000002,8.045648,-1
1,2,1580693192613,1.2696999,-0.2663,-1.8181,-0.19541475,2.1477618,8.79534,-1
2,3,1580693192623,0.0050999997,-0.2086,-0.79859996,-0.22468145,2.1553178,8.733205,-1
3,4,1580693192633,0.0050999997,-0.2086,-0.79859996,-0.559592,2.1093778999999997,9.304366,-1
4,5,1580693192643,-0.74759996,-0.3768,0.46089998,-1.041449,1.9963523999999997,9.986569,-1
5,6,1580693192654,-1.2649,-0.6889,1.1149,-1.8293808,1.5394333999999998,10.760213,-1
6,7,1580693192664,-2.0162,-0.8384,1.4991,-2.7132146,1.4014412,11.06172,-1
7,8,1580693192674,-2.6524,-1.0424,1.5166,-3.2588055000000002,1.1744803999999998,11.062225999999999,-1
8,9,1580693192684,-3.0792,-1.4736999,1.4196,-3.8794112000000003,0.64458615,10.922711999999999,-1
9,10,1580693192695,-3.4009,-1.949,1.3046,-4.1761394,0.23489034,10.844882,-1
10,11,1580693192705,-3.8434,-1.8859999,0.9371,-4.8057756,0.31154308,10.324057,-1
11,12,1580693192715,-3.9152,-2.1385999,0.4931,-4.984479,-0.09412086,10.021237,-1
12,13,1580693192725,-4.2792,-2.5289,0.4619,-5.603313,-0.55312765,9.920921,-1
13,14,1580693192735,-4.464299700000001,-2.727,0.3058,-5.7823324000000005,-0.71539706,9.7307825,-1
14,15,1580693192745,-4.4088,-2.9399,-0.2193,-5.8697586,-1.036019,9.152554499999999,-1
15,16,1580693192756,-4.4502997,-3.1949,-0.74909997,-6.289012400000001,-1.0495989,8.30425,-1
16,17,1580693192766,-4.5209,-2.8995,-1.5953,-6.331093,-1.103976,7.7401860000000005,-1
17,18,1580693192776,-4.3448,-3.0681,-1.8463,-6.5187597,-1.2813385,7.401416,-1
18,19,1580693192786,-4.2957997,-2.9636,-2.2338,-6.7052298,-1.1711477,6.9108825,-1
19,20,1580693192796,-3.9420998,-2.972,-2.4301999,-6.682322500000001,-1.0982011999999999,6.488746,-1
20,21,1580693192806,-3.5577,-2.3473,-3.4241998,-6.422829,-0.8179647,5.6457863,-1
21,22,1580693192817,-2.2666,-2.021,-4.0358,-5.391177,-0.5889065,4.677121,-1
22,23,1580693192827,-0.2233,-0.9614,-4.3305,-4.486849299999999,-0.505981,3.9630358,-1
23,24,1580693192837,0.4682,-0.8707,-4.8104997,-4.6035330000000005,0.036181173999999997,3.0328884,-1
24,25,1580693192847,0.6247,-0.49809998,-6.200599700000001,-4.098758,-0.12755350000000001,1.6137494,-1
25,26,1580693192858,1.1736,-1.0555,-7.0471997,-3.8185794,-0.44324335,1.0059190999999998,-1
26,27,1580693192868,1.3791,-1.3831999,-7.7091,-3.7164330000000003,-0.77599907,0.505234,-1
27,28,1580693192878,1.4647,-1.8469,-7.790499700000001,-3.5432269999999995,-1.2987203999999999,0.6367811,-1
28,29,1580693192888,1.8082999,-2.3862,-7.6122,-2.9030172999999997,-1.657343,0.78054804,-1
29,30,1580693192898,2.5937,-2.7001998,-7.4343996,-1.9805986,-2.0152571,1.1425992,-1
30,31,1580693192908,3.3174998999999996,-3.0918999,-7.0374,-1.4405912,-2.3214371,1.5444038,-1
31,32,1580693192919,4.0803,-3.3657,-6.6257,-0.6729814000000001,-2.36369,1.6632711,-1
32,33,1580693192929,4.9045997,-3.3599,-6.5989,0.06366661,-2.2280919999999997,1.4685746000000002,-1
33,34,1580693192939,5.5516996,-3.0767,-6.9486,0.54772633,-1.6921451,0.8925584000000001,-1
34,35,1580693192949,6.0954,-2.5449,-7.4719,1.4741195,-1.3450722,0.44442129999999996,-1
35,36,1580693192959,7.0773997,-2.4025,-7.7682996,2.616508,-1.6628688999999999,0.093718626,-1
36,37,1580693192969,8.2153,-2.8279,-8.0552,3.3499765,-2.2318747,0.31940567,-1
37,38,1580693192979,8.8578,-3.5426998,-7.5091996,3.6007738,-2.6936972000000003,1.3679991000000002,-1
38,39,1580693192989,9.0,-3.813,-6.3525996,4.0496964,-2.8726206000000003,2.5263522000000003,-1
39,40,1580693192999,9.5175,-3.9382,-5.2998,4.836670400000001,-3.169837,3.6444538,-1
40,41,1580693193009,10.344299000000001,-4.1949,-4.2236,5.818455999999999,-3.0687057999999996,4.60608,-1
41,42,1580693193020,11.0545,-3.8363998,-3.6244998,6.073285,-2.6793895,5.014684,-1
42,43,1580693193030,11.2051,-3.3664,-3.2284,5.861992400000001,-2.3397958,5.2216005,-1
43,44,1580693193040,10.9414,-2.9398,-3.0958,5.4946547,-2.4890790000000003,5.1886277000000005,-1
44,45,1580693193050,10.595999999999998,-3.1376998,-3.0579998,5.525971,-2.6743042,5.557210400000001,-1
45,46,1580693193060,10.8933,-3.0263,-2.6139997999999998,6.943731,-2.4113443,6.129108400000001,-1
46,47,1580693193071,12.5266,-2.6252,-2.1578,9.458208,-2.1250935,6.708601,-1
47,48,1580693193081,15.079598999999998,-2.2035,-1.5302,12.05178,-2.0268164,7.954428699999999,-1
48,49,1580693193091,17.475899,-2.019,-0.0936,14.135759,-2.0610532999999998,10.444054,-1
49,50,1580693193101,19.1253,-1.8055999,1.9978999,14.357126999999998,-1.9073265,11.89903,-1
50,51,1580693193111,19.2528,-1.3503,3.8463,12.986332,-2.047052,13.998466500000001,-1
51,52,1580693193122,18.0551,-1.2178999,5.6309,11.48422,-2.2781307999999996,14.8153305,-1
52,53,1580693193132,16.237299,-1.196,6.6006,10.110216000000001,-2.8154664,14.987741,-1
53,54,1580693193142,15.2002,-1.3874999,6.7286997,10.037288,-3.7463222000000003,14.455423000000001,-1
54,55,1580693193152,15.0734,-2.0551,6.2032,11.067409,-4.486217,13.423924,-1
55,56,1580693193163,16.923899,-2.381,5.1805,12.334525,-4.523662,13.608039000000002,-1
56,57,1580693193173,17.951399,-1.9224,6.9951,13.210745000000001,-4.4020753,15.225235999999999,-1
57,58,1580693193183,18.5438,-1.8016,10.643499,13.874197,-4.633287999999999,18.791716,-1
58,59,1580693193193,18.711199,-1.734,14.4237995,14.114049,-4.9499260000000005,22.472417999999998,-1
59,60,1580693193203,18.711199,-1.734,14.4237995,13.691223999999998,-5.412208000000001,24.923813,-1
60,61,1580693193213,17.1045,-2.2477999,18.1569,12.231095,-6.5262970000000005,26.131514000000003,-1
61,62,1580693193224,15.1677,-3.077,18.3116,10.349817999999999,-7.6003169999999995,26.035631,-1
62,63,1580693193234,13.207,-3.4647,18.1716,8.861458,-8.05761,25.914036,-1
63,64,1580693193244,12.012799000000001,-3.4938998,18.256899,8.138523,-8.269658999999999,26.008682,-1
64,65,1580693193254,12.012799000000001,-3.4938998,18.256899,7.742858,-8.392366,25.941826000000002,-1
65,66,1580693193265,10.394299499999999,-3.9715998,18.1015,7.012253,-9.264277,25.928621,-1
66,67,1580693193275,8.5503,-5.196000000000001,18.4089,4.7313833,-11.114124,26.292988,-1
67,68,1580693193285,8.5503,-5.196000000000001,18.4089,2.5634334,-12.574223,26.472229,-1
68,69,1580693193295,2.4012,-8.3102,18.9142,-1.3736972,-14.150163000000001,26.831903000000004,-1
69,70,1580693193305,-1.1974,-8.8838,19.0714,-4.4829893,-14.310853,26.855827,-1
70,71,1580693193316,-3.8314,-8.529799,18.635199,-6.168794999999999,-13.728391,26.133602,-1
71,72,1580693193326,-4.8736997,-7.7254996,17.2789,-6.5935836,-12.76122,24.585548,-1
72,73,1580693193336,-4.8863,-6.7984,15.3413,-5.9852552,-11.709141,22.685387,-1
73,74,1580693193346,-3.6222,-6.0292997,13.2929,-4.1360980000000005,-10.973775999999999,20.770906,-1
74,75,1580693193357,-2.1697,-5.7851,11.3695,-3.2274222000000004,-10.805444999999999,18.958044,-1
75,76,1580693193367,-2.6006,-6.2297997,10.145599,-4.329004,-11.287263000000001,18.44089,-1
76,77,1580693193377,-4.8152,-7.0299997,9.5505,-6.7639933,-11.683925,17.975552,-1
77,78,1580693193387,-7.2970996,-7.2756,8.8236,-9.180242,-11.664168,17.176998,-1
78,79,1580693193397,-8.997,-7.5291,7.976,-10.450566,-11.721351,16.262318,-1
79,80,1580693193407,-10.346499,-7.8395996,6.7261,-11.377303999999999,-11.651689999999999,14.694182000000001,-1
80,81,1580693193418,-10.9086,-8.0601,4.7623,-11.284351,-11.304597,12.688637,-1
81,82,1580693193428,-10.662399,-7.899399799999999,2.6287,-10.841376,-10.769627,10.868249,-1
82,83,1580693193438,-10.1634,-7.5948997,0.86179996,-9.949594,-9.954085000000001,9.370484,-1
83,84,1580693193448,-8.953899,-7.0527997000000004,-0.5243,-8.678272,-9.094203,8.651152,-1
84,85,1580693193459,-7.6945996,-6.4971,-0.96989995,-7.739142,-8.306367,8.4377985,-1
85,86,1580693193469,-6.9672,-6.0492,-1.2435,-7.4346285000000005,-7.686344999999999,8.174714,-1
86,87,1580693193479,-6.7685,-5.8016996,-1.6251,-7.4658675,-7.289942,7.4638186,-1
87,88,1580693193489,-6.8071,-5.8052998,-2.4218,-7.6769886,-7.177682400000001,6.1906586,-1
88,89,1580693193500,-6.9672,-6.0443997000000005,-3.7712,-7.610784,-7.158146,5.014952,-1
89,90,1580693193510,-6.8036,-6.2362,-4.955899700000001,-7.209047,-6.7415256999999995,4.0682464,-1
90,91,1580693193520,-6.2962,-6.0631,-5.7879,-6.689686999999999,-6.319917,3.8853872000000003,-1
91,92,1580693193530,-5.5794997,-5.7844996,-5.8841996,-5.8670297,-5.657355,3.8990532999999994,-1
92,93,1580693193540,-4.8475,-5.4445,-5.8831997000000005,-4.954044000000001,-4.9451279999999995,3.728567,-1
93,94,1580693193550,-3.7161,-4.8526998,-6.1294,-3.4773288,-3.9276497000000004,3.0880797,-1
94,95,1580693193561,-2.0505,-4.0099998,-6.8111997,-1.9391788,-3.0173166,2.3885417,-1
95,96,1580693193571,-0.5275,-3.2582998,-7.4895,-1.1202565,-2.1363175,1.7202147,-1
96,97,1580693193581,0.23169999,-2.59,-8.0879,-1.0009296,-1.6030425,1.431091,-1
97,98,1580693193591,0.30249998,-2.315,-8.2747,-1.2962017,-1.4510201999999999,1.5101666,-1
98,99,1580693193602,0.021499999,-2.3207,-8.1191,-1.4716966,-1.21364,1.7474416000000002,-1
99,100,1580693193612,-0.065,-2.2424,-7.915499700000001,-1.3415096000000002,-0.85812974,2.188243,-1
100,101,1580693193622,0.249,-1.4753,-6.7549,-1.0989194,-0.046610318,3.0714542999999996,-1
101,102,1580693193632,0.249,-1.4753,-6.7549,-0.56071246,0.36722267,3.3681629,-1
102,103,1580693193642,2.2082,-0.56009996,-6.2889,0.6798765999999999,0.8498554,3.3050517999999998,-1
103,104,1580693193652,3.5921998,-0.1997,-6.1147,2.014194,1.2771246,3.4612784,-1
104,105,1580693193662,4.4059,-0.020499998999999998,-5.5013,2.7976725,1.5213236,4.0523686,-1
105,106,1580693193673,4.4479,-0.061499998,-4.8796,2.8165102,1.5353729,4.6732135,-1
106,107,1580693193683,4.4479,-0.061499998,-4.8796,2.4208062000000004,1.7997118000000003,5.262905,-1
107,108,1580693193693,4.1011,0.5054,-4.078,2.4246082,2.2150772,5.4477954,-1
108,109,1580693193703,4.6245,0.7637,-4.3286,2.9339986000000002,2.5324332999999997,5.17771,-1
109,110,1580693193713,5.2032,1.0803,-4.6087,3.6150146,2.9665885,4.8922067,-1
110,111,1580693193723,5.7746997,1.2535,-4.2236,4.0815487,3.1703446,5.3840904,-1
111,112,1580693193734,5.6513,1.3765999,-3.5553,3.9126906000000004,3.2973904999999997,5.9102783,-1
112,113,1580693193744,5.0752997,1.0956,-3.2789998,3.1864142,2.9858665,6.1816273,-1
113,114,1580693193755,4.4224997,0.79679996,-3.4048,2.5139692000000005,2.768358,5.9750843,-1
114,115,1580693193765,3.8971998999999995,0.73179996,-3.6004998999999995,2.0389118,2.7552664,5.854149,-1
115,116,1580693193775,3.6546,0.6656,-3.4271998,1.8341022,2.7243334999999997,6.0920267,-1
116,117,1580693193785,3.6365,0.6094,-3.1792998,1.9589357,2.7216806,6.3836694000000005,-1
117,118,1580693193796,4.027,0.64519995,-2.8167999,2.6081667,2.8444076000000003,6.752673,-1
118,119,1580693193806,4.7095,0.8364,-2.4856,3.1997645,3.1189169999999997,7.0593805,-1
119,120,1580693193816,4.9782,1.0986,-2.1850998,3.3690536,3.307379,7.3519707,-1
120,121,1580693193826,4.9811997,1.2559,-1.8661,3.3172143,3.4380927000000003,7.725361,-1
121,122,1580693193836,4.7897997000000005,1.245,-1.4016,3.047924,3.341252,8.328394,-1
122,123,1580693193846,4.3375,1.0128,-0.6056,2.5550919999999997,3.0276117,9.117005,d
123,124,1580693193857,3.6987,0.6806,-0.0263,1.827791,2.5544217000000002,9.633702,-1
124,125,1580693193867,3.0609,0.3315,0.20019999,1.3886658,2.4020259999999998,9.63193,-1
125,126,1580693193877,2.6122,0.2487,0.0552,1.1222007,2.3802388,9.485636,-1
126,127,1580693193887,2.3954,0.2994,-0.030199998999999998,1.0705433000000002,2.4999487,9.46833,-1
127,128,1580693193897,2.4153,0.41189998,0.0018999999,1.2706218999999999,2.6344072999999995,9.540118,-1
128,129,1580693193907,2.6279,0.54109997,0.10229999599999999,1.5932741000000001,2.802298,9.789077,-1
129,130,1580693193917,2.8989999999999996,0.7481,0.40809998,1.8370517,2.9452896,10.099931,-1
130,131,1580693193928,3.0523,0.79639995,0.6940000000000001,1.8174863999999997,2.8144033,10.354338,-1
131,132,1580693193938,2.8497,0.6422,0.9309999999999999,1.4476684,2.6096032000000005,10.604101,-1
132,133,1580693193948,2.3813,0.4948,1.1491,0.9852331,2.4807856,10.768811999999999,-1
133,134,1580693193958,1.8757999,0.3385,1.2114999,0.49343538,2.2129512000000005,10.609617,-1
134,135,1580693193968,1.3521999,0.052699998,0.9127,0.1789618,2.1053174,10.164353,-1
135,136,1580693193978,1.2148,0.0618,0.48799998,0.27163655,2.1941135,9.971428999999999,-1
136,137,1580693193989,1.2224,0.13849999,0.4657,0.2687252,2.2828236,10.118606,-1
137,138,1580693193999,1.1266,0.22999999,0.60969996,0.21644539999999998,2.3513741,10.211806,-1
138,139,1580693194009,1.0495,0.268,0.67509997,0.053103395,2.3441725,10.2521925,-1
139,140,1580693194019,0.8440000000000001,0.24159999,0.70129997,-0.07336792,2.293243,10.141982,-1
140,141,1580693194030,0.7337,0.18769999,0.5414,-0.12876974,2.2496495,9.956346,-1
141,142,1580693194040,0.6667,0.1734,0.3818,-0.22010374,2.2655087000000003,10.075605,-1
142,143,1580693194050,0.5402,0.1889,0.57519996,-0.35878548,2.2407622000000003,10.360219,-1
143,144,1580693194060,0.3707,0.1636,0.8275,-0.49200845,2.1903593999999997,10.423836999999999,-1
144,145,1580693194070,0.21679999,0.094,0.8355,-0.6137009,2.1330996,10.292683,-1
145,146,1580693194081,0.070999995,0.0191,0.68759996,-0.60922855,2.1046853,10.133189999999999,-1
146,147,1580693194091,0.15169999,0.010799999,0.43249997,-0.44156742,2.1260607000000005,9.856899,-1
147,148,1580693194101,0.3042,0.0519,0.109,-0.32308316,2.1718569,9.650299,-1
148,149,1580693194111,0.322,0.087299995,0.108399995,-0.2603072,2.1831958,9.875017999999999,-1
149,150,1580693194121,0.3502,0.078499995,0.3029,-0.22654894,2.2181895000000003,10.140613,-1
150,151,1580693194131,0.369,0.122099996,0.56549996,-0.27777526,2.187333,10.332780999999999,-1
151,152,1580693194142,0.27199998,0.0687,0.779,-0.4751437,2.089937,10.44708,-1
152,153,1580693194152,0.08800000000000001,0.0039999996999999995,0.8653,-0.66865265,2.0077488000000003,10.393363,-1
153,154,1580693194162,-0.124299996,-0.0739,0.8153,-0.7980832,1.8630528000000002,10.385377,-1
154,155,1580693194172,-0.4608,-0.3401,0.6591,-0.96980494,1.7547583999999998,10.244119,-1
155,156,1580693194182,-0.4192,-0.3633,0.2198,-0.91302407,1.7502093,9.788933,-1
156,157,1580693194192,-0.2021,-0.3002,-0.1012,-0.67431253,1.8200914000000001,9.480234,-1
157,158,1580693194203,0.0158,-0.10669999599999999,-0.14829999,-0.44881704,2.0248146,9.427322,-1
158,159,1580693194214,0.070199996,0.0025,-0.117699996,-0.36392823,2.1525693,9.457365,-1
159,160,1580693194224,0.0385,0.0256,-0.077599995,-0.39287895,2.1735903999999997,9.525255,-1
160,161,1580693194234,-0.0525,0.0095999995,0.0016,-0.51029056,2.162529,9.548114,-1
161,162,1580693194244,-0.19479999,-0.0484,-0.19299999,-0.60302275,2.0965643,9.318684,-1
162,163,1580693194254,-0.18100000000000002,-0.10789999,-0.4953,-0.58185804,2.0784256,9.027376,-1
163,164,1580693194265,-0.28300000000000003,-0.1451,-0.5627,-0.6886969000000001,2.0310395,9.047344,-1
164,165,1580693194275,-0.3642,-0.1681,-0.39569998,-0.7054372,2.025916,9.173987,-1
165,166,1580693194285,-0.3642,-0.1681,-0.39569998,-0.37536293,2.0670197,9.111269,-1
166,167,1580693194295,0.0064999997,-0.0711,-0.38639998,-0.33530316,2.140493,9.213731,-1
167,168,1580693194305,0.0174,-0.03,-0.2302,-0.31026940000000003,2.1674805,9.294062,-1
168,169,1580693194315,0.0605,0.039499998,-0.40719998,-0.20296127,2.2818658,9.07165,-1
169,170,1580693194326,0.1653,0.118099995,-0.574,-0.15289372,2.3032892000000005,8.913259,-1
170,171,1580693194336,0.1542,0.1783,-0.71169996,-0.19535728,2.3776817,8.870975999999999,-1
171,172,1580693194346,0.095,0.2302,-0.6044,-0.2482021,2.4254699,8.992602,-1
172,173,1580693194357,-0.0232,0.2243,-0.46799999999999997,-0.39093485,2.3339925,9.086043,-1
173,174,1580693194367,-0.0826,0.11889999,-0.5667,-0.35231155,2.2790022,8.877134,-1
174,175,1580693194377,0.0028,0.1085,-0.7432,-0.20413922,2.3374972,8.785896000000001,-1
175,176,1580693194387,0.14379999,0.1955,-0.7725,-0.14838304,2.4270215,8.856066,-1
176,177,1580693194398,0.15609999,0.2751,-0.6749,-0.15170619,2.484243,8.998789,-1
177,178,1580693194408,0.1784,0.2995,-0.48009998,-0.12947842,2.4201164,9.344225,-1
178,179,1580693194418,0.1418,0.25849998,-0.1389,-0.2502611,2.4011066000000003,9.669635000000001,-1
179,180,1580693194428,-0.0327,0.2285,0.251,-0.4006936,2.3079243,10.022857,-1
180,181,1580693194438,-0.1601,0.1082,0.5629,-0.48130158,2.226301,10.255946,-1
181,182,1580693194448,-0.24039999,0.0911,0.6895,-0.48124412,2.2592359,10.16465,-1
182,183,1580693194458,-0.1828,0.11800000000000001,0.4446,-0.34853829999999997,2.1853411,9.771455,-1
183,184,1580693194469,-0.0436,-0.0044,0.063099995,-0.06783252,2.1712825000000002,9.493613,-1
184,185,1580693194479,0.30339998,0.071899995,-0.1326,0.29276296,2.3055685,9.465150999999999,-1
185,186,1580693194489,0.593,0.1629,-0.0255,0.41198465,2.3360512000000004,9.896298,-1
186,187,1580693194500,0.6084,0.2003,0.4138,0.26727912,2.3405237000000003,10.389159,-1
187,188,1580693194510,0.41779998,0.2105,0.89199996,-0.025435999,2.2874392999999995,10.690839,-1
188,189,1580693194520,0.1405,0.1313,1.1252999,-0.28527394,2.113563,10.696192,-1
189,190,1580693194530,-0.096499994,-0.0403,1.0849999,-0.39982212,2.0160424999999997,10.598968,-1
190,191,1580693194541,-0.18789999,-0.1191,0.93789995,-0.31362128,1.9661471999999998,10.346686,-1
191,192,1580693194551,-0.0672,-0.15359999,0.7133,-0.0984783,1.9919950000000002,10.172532,-1
192,193,1580693194561,0.1494,-0.11199999599999999,0.59709996,0.109501205,2.0799005,10.337349,-1
193,194,1580693194571,0.2883,-0.0394,0.82379997,0.18899828,2.2163029,10.605088,-1
194,195,1580693194581,0.3538,0.0752,1.0303,0.24860433,2.2262247000000004,10.581653999999999,-1
195,196,1580693194591,0.4463,0.083299994,0.9916,0.297628,2.2536142000000003,10.458160000000001,-1
196,197,1580693194602,0.4096,0.0775,0.5128,0.21996010000000002,2.2313194,10.086225500000001,-1
197,198,1580693194612,0.4096,0.0775,0.5128,-0.040529046,2.1127968,9.8246355,-1
198,199,1580693194622,-0.20629999,-0.2013,-0.0817,-0.44323376,1.9587634999999999,9.49189,-1
199,200,1580693194632,-0.5825,-0.3768,-0.1776,-0.8273787,1.791131,9.391908,-1
200,201,1580693194642,-0.5825,-0.3768,-0.1776,-1.0471281,1.7370508000000002,9.327178,-1
201,202,1580693194653,-0.82839996,-0.5287,-0.46829998,-1.0776111000000002,1.6611642,9.098971,-1
202,203,1580693194663,-0.7755,-0.5044,-0.60429996,-1.0289991,1.6862172,8.956306,-1
203,204,1580693194673,-0.7755,-0.5044,-0.60429996,-0.86074424,1.7793802,8.785772,-1
204,205,1580693194683,-0.5985,-0.42029998,-0.77989995,-0.785528,1.8837580000000003,8.622382,-1
205,206,1580693194693,-0.54179996,-0.3162,-0.94579995,-0.75982386,1.9394470000000001,8.551179,-1
206,207,1580693194704,-0.5670000000000001,-0.2173,-0.92649996,-0.80445176,1.9779074,8.646688000000001,-1
207,208,1580693194714,-0.583,-0.2047,-0.7017,-0.8448466999999998,1.9853392,8.920182,-1
208,209,1580693194724,-0.6519,-0.2521,-0.5945,-0.8883446,1.9314407999999998,8.93269,-1
209,210,1580693194734,-0.50729996,-0.23359999,-0.88869995,-0.68822765,1.9742587,8.624067,-1
210,211,1580693194745,-0.295,-0.1467,-1.1142,-0.5008383,2.0503273,8.456061,-1
211,212,1580693194755,-0.14029999,-0.1143,-1.0856999,-0.23082020000000003,2.1438928,8.603497500000001,-1
212,213,1580693194765,0.1442,0.101399995,-0.6665,-0.00029688101000000005,2.3345284,9.030259,-1
213,214,1580693194775,0.22569999,0.3821,0.045599997,0.06457641,2.5961576,9.763114,-1
214,215,1580693194785,0.16399999,0.4974,0.5909,-0.06950846,2.631218,10.336813000000001,-1
215,216,1580693194796,0.053999998,0.46949998,0.8727,-0.14190912,2.5789766,10.4219885,-1
216,217,1580693194806,0.047599997000000005,0.38149998,0.7058,-0.094762504,2.5127435,10.152516,-1
217,218,1580693194816,0.1427,0.3125,0.3548,0.04006936,2.4753554,9.763995,-1
218,219,1580693194826,0.27249998,0.3173,-0.0244,0.20958841,2.5017014,9.506905999999999,-1
219,220,1580693194837,0.5992,0.4633,-0.012399998999999998,0.5597451999999999,2.8342560000000003,9.827565,-1
220,221,1580693194848,0.6662,0.77669996,0.5367,0.68823725,3.0757256,10.61772,-1
221,222,1580693194858,0.8376,0.96309996,1.3090998999999999,0.8350496999999999,3.1229296000000004,11.115025,-1
222,223,1580693194868,0.9869,0.9568,1.5905,0.93248415,3.0244706000000003,11.214949,-1
223,224,1580693194878,1.0033,0.8599,1.6078,0.83799934,2.8926554,11.13185,-1
224,225,1580693194888,0.84419996,0.6516,1.4983,0.607409,2.641609,11.018883,-1
225,226,1580693194899,0.5966,0.42049998,1.37,0.31359252,2.3864925,10.829146000000001,-1
226,227,1580693194909,0.2906,0.1769,1.1539999,-0.05953901,2.191547,10.693922,-1
227,228,1580693194919,-0.0438,-0.028199999,1.1343,-0.34330934,1.9937953999999998,10.7314625,-1
228,229,1580693194929,-0.2118,-0.1458,1.1442,-0.4312915,1.9741724999999999,10.691088,-1
229,230,1580693194939,-0.2532,-0.1486,1.1057,-0.39018783,2.0311737,10.789325999999999,-1
230,231,1580693194950,-0.23009999,-0.0863,1.2347,-0.4281503,2.0430968000000003,10.638415,-1
231,232,1580693194960,-0.2562,-0.125,0.95239997,-0.5209304,1.8904903999999998,10.167944,-1
232,233,1580693194970,-0.34489998,-0.2907,0.5525,-0.48607084,1.9385085,10.140948,-1
233,234,1580693194980,-0.26319999,-0.1759,0.5926,-0.23182575,2.190953,10.307335,-1
234,235,1580693194990,0.0058999998,0.1002,0.77879995,-0.032647334,2.5290048,10.580619,-1
235,236,1580693195001,0.2065,0.4466,1.0627999,0.05398446,2.8554974,10.86165,-1
236,237,1580693195011,0.249,0.7521,1.3176999,0.011377247,2.9685707000000003,10.877701,-1
237,238,1580693195021,0.2316,0.81799996,1.2794,-0.03767516,2.9273615,10.854208999999999,-1
238,239,1580693195031,0.20269999,0.76199996,1.3105999,0.007240066,2.86992,10.883303999999999,-1
239,240,1580693195041,0.2871,0.7033,1.3130000000000002,0.14253162,2.912259,11.016833,-1
240,241,1580693195051,0.4077,0.7714,1.5213,0.061454367,3.276149,11.657474,-1
241,242,1580693195062,0.1025,1.3958,2.7582,-0.17708473,3.5746867999999994,12.326404,-1
242,243,1580693195072,0.1025,1.3958,2.7582,-0.26837084,3.5176377,12.9476795,-1
243,244,1580693195082,0.14109999,1.0454999,3.5707998,-0.19104771,3.2143497,13.147039999999999,-1
244,245,1580693195092,0.14109999,1.0454999,3.5707998,-0.13581827,2.9667606,13.030127,-1
245,246,1580693195102,0.2539,0.7181,3.3862,0.06479668,2.5284207000000003,12.483961,-1
246,247,1580693195113,0.47959998,0.1646,2.6715,0.12371319,2.3754501,12.225493,-1
247,248,1580693195123,0.47959998,0.1646,2.6715,0.09889968,2.3579247000000003,12.29074,-1
248,249,1580693195133,0.44599998,-0.023799999,2.6006,0.07516836,2.2646658,12.141447,-1
249,250,1580693195143,0.36769998,-0.2075,2.1905,-0.0789895,2.100433,11.588233,-1
250,251,1580693195153,0.1927,-0.49789998,1.5083,-0.25537515,1.8552095000000002,10.842497,-1
251,252,1580693195163,0.1484,-0.6178,0.58309996,-0.26543078,1.8531792,9.891099,-1
252,253,1580693195174,0.1484,-0.6178,0.58309996,-0.05980716,1.9391788,9.279332,-1
253,254,1580693195184,0.5451,-0.52349997,-0.4913,0.10994174,2.0921203999999998,8.894239,-1
254,255,1580693195194,0.6037,-0.57589996,-0.6329,0.13801137,1.9916215,8.820803999999999,-1
255,256,1580693195204,0.6155,-0.8197,-0.6773,0.09780793,1.7943968000000001,8.688768,-1
256,257,1580693195214,0.43339998,-1.0817,-0.91779995,-0.18749472,1.6237092,8.441007,-1
257,258,1580693195224,-0.0026999997999999996,-1.1873,-1.1578,-0.56450486,1.5748004999999998,8.253283,-1
258,259,1580693195234,-0.2529,-1.3019999,-1.0641999,-0.9153991,1.5159128000000002,8.352747,-1
259,260,1580693195244,-0.6895,-1.0936999,-1.1075,-1.3669934,1.8206658,8.218805,-1
260,261,1580693195254,-0.8307,-0.9468,-1.4340000000000002,-1.4465288,1.9819488999999997,7.836136,-1
261,262,1580693195264,-0.657,-0.9271,-1.7109999999999999,-1.168696,2.0520415,7.5509580000000005,-1
262,263,1580693195274,-0.2311,-0.8876,-2.037,-0.8276851000000001,2.1413262000000004,7.171448,-1
263,264,1580693195284,-0.2311,-0.8876,-2.037,-0.3351691,2.1815007,6.678827,-1
264,265,1580693195294,0.7406,-0.8768,-2.6985,0.09578723,2.2655852000000003,6.5685787,-1
265,266,1580693195304,0.75799996,-0.77019995,-2.7326,-0.06791872,2.4191492,6.6199965,-1
266,267,1580693195314,0.415,-0.75519997,-2.4449,-0.43301532,2.4238706000000003,6.877689,d
267,268,1580693195325,-0.1301,-0.73429996,-2.1292,-1.1580274,2.544596,7.166832,-1
268,269,1580693195335,-0.6137,-0.6041,-2.0295,-1.474359,2.6427963,7.223546000000001,-1
269,270,1580693195345,-0.79609996,-0.5934,-1.9782,-1.6560502000000001,2.6750127999999997,7.1926417,-1
270,271,1580693195355,-0.93079996,-0.5668,-2.406,-1.7831057000000001,2.7196982000000003,6.666520599999999,-1
271,272,1580693195365,-0.70269996,-0.7292,-3.0583,-1.410089,2.5840044,5.930313,-1
272,273,1580693195375,-0.2835,-0.773,-3.4757998,-1.0566474,2.622168,5.605956,-1
273,274,1580693195385,0.0409,-0.74399996,-3.6108,-0.75911516,2.734322,5.5668063,-1
274,275,1580693195396,0.2732,-0.48369998,-3.5619998,-0.62198484,3.0235894,5.667333999999999,-1
275,276,1580693195406,0.28959998,-0.3631,-3.2707999,-0.6980439,3.0658135,6.0514503,-1
276,277,1580693195416,0.1002,-0.373,-3.0016,-0.9254643,3.0453862999999997,6.048328,-1
277,278,1580693195426,-0.22369999,-0.47849998,-3.3607,-1.3252864,2.9404626,5.612143,-1
278,279,1580693195436,-0.6139,-0.57129997,-3.6813998,-1.7114999,2.8810866,5.4825974,-1
279,280,1580693195446,-0.89959997,-0.5498,-3.5145,-1.9095961,2.954981,5.7225823,-1
280,281,1580693195457,-1.0145,-0.4745,-3.35,-1.9910468999999997,2.976328,5.782323,-1
281,282,1580693195467,-1.0173,-0.5358,-3.4118998,-1.8710783,2.8589162999999997,5.7289699999999995,-1
282,283,1580693195477,-0.65569997,-0.6089,-3.5328,-1.3953598999999999,2.8046446,5.509068,-1
283,284,1580693195487,-0.1765,-0.61689997,-3.9278,-0.8228009,2.7521446,4.89574,-1
284,285,1580693195497,0.2669,-0.77419996,-4.4305,-0.2616575,2.4917892999999998,4.476103299999999,-1
285,286,1580693195507,0.85749996,-1.0457,-4.7971,0.23275472,2.143749,4.286387400000001,-1
286,287,1580693195518,1.0911,-1.4667,-4.9206,0.15966453,1.6348566999999998,4.153758,-1
287,288,1580693195528,0.85539997,-1.9693999,-5.172999999999999,-0.20784545,1.1837604,3.6633777999999997,-1
288,289,1580693195538,0.3854,-2.3724,-5.7879,-0.91327304,0.75554305,2.9561687,-1
289,290,1580693195548,-0.38059998,-2.7656999,-6.5685997,-1.6245617,0.45230302,2.0305511999999997,-1
290,291,1580693195558,-1.0189999,-2.935,-7.6233997,-2.055604,0.3163315,0.8259709000000001,-1
291,292,1580693195568,-1.2182,-3.0995998,-8.8538,-2.0308864,0.12246821,-0.21036413,-1
292,293,1580693195579,-1.1333,-3.3165998,-9.8004,-1.7794282,-0.25264573,-1.1238191000000002,-1
293,294,1580693195589,-0.84959996,-3.753,-10.5348,-1.5194465,-0.7873284,-1.5608853999999999,-1
294,295,1580693195599,-0.6872,-4.2879,-10.8153,-1.2136784,-1.3449476,-1.4878432,-1
295,296,1580693195609,-0.2985,-4.704799700000001,-10.565599,-0.78177387,-1.6970581000000002,-1.0960463,-1
296,297,1580693195619,-0.0274,-4.8431,-10.1388,-0.86657655,-1.7136546000000001,-0.35249352,-1
297,298,1580693195629,-0.2067,-4.6387997,-9.5322,-1.101122,-1.3953311000000002,0.0896006,-1
298,299,1580693195640,-0.42200000000000004,-4.1169,-9.2513,-1.1704581,-0.8584361999999999,0.12476664,-1
299,300,1580693195650,-0.44149998,-3.4343998,-9.3013,-0.92507166,-0.37111083,-0.28100264,-1
300,301,1580693195660,-0.218,-2.9387,-9.8468,-0.63909864,-0.6255474,-0.96541876,-1
301,302,1580693195670,0.0628,-3.2663,-10.5546,-0.048094723,-1.4679904,-1.731027,-1
302,303,1580693195680,0.47489998,-4.0376997,-11.378799,0.45092395,-2.267328,-2.2508847999999997,-1
303,304,1580693195690,0.8447,-4.6868,-11.745299000000001,0.70830065,-2.9312308,-1.6053601999999998,-1
304,305,1580693195701,0.9533,-5.1502,-10.826799000000001,0.64801466,-3.1084110000000003,0.8073726999999999,-1
305,306,1580693195711,0.8527,-4.9332,-8.0858,0.90798664,-3.1209854999999997,5.0907335,-1
306,307,1580693195721,1.2311,-4.639199700000001,-3.6919999999999997,1.2512671999999998,-2.8917742000000004,9.219889,-1
307,308,1580693195732,1.4554,-3.9878998,0.092,0.62738615,-2.9961424,11.536000999999999,-1
308,309,1580693195742,0.456,-4.525,1.9794999,0.19295351,-4.0028944,11.775058,-1
309,310,1580693195752,0.456,-4.525,1.9794999,-0.32151255,-4.651646599999999,10.3715,-1
310,311,1580693195762,0.0583,-4.8964,-1.0672,-0.078826696,-4.7765374000000005,8.751306,-1
311,312,1580693195773,1.6227,-4.4582,-0.6762,1.5825002000000001,-4.5397606,9.136369,-1
312,313,1580693195783,2.7052999,-3.2222,1.5356,2.7138565,-3.5648513,11.346342,-1
313,314,1580693195793,3.6186,-3.0679,6.3094997,3.6326647000000003,-3.7561767,16.101448,-1
314,315,1580693195803,3.6739,-3.7947998,11.3448,3.6904705,-4.8620296,21.099583,-1
315,316,1580693195813,1.5294,-4.7623,13.8531,0.949052,-6.5443397,23.710518,-1
316,317,1580693195823,-1.2145,-6.1309,13.8151,-1.7162787,-8.155063,23.233908,-1
317,318,1580693195833,-3.0477998,-6.6512,12.067699000000001,-3.1801223999999997,-8.642628,21.251682000000002,-1
318,319,1580693195844,-2.892,-5.9207,10.5913,-2.5767643,-7.8511043,20.139738,-1
319,320,1580693195854,-0.87979996,-4.2015,11.5021,-0.29627767,-6.237211,21.426687,-1
320,321,1580693195864,1.7849,-2.2956,13.952499,2.3667164,-4.5951915,23.97184,-1
321,322,1580693195874,3.7078,-0.9313,16.7341,3.9466214,-3.655582,26.544503999999996,-1
322,323,1580693195884,3.4285997999999998,-0.53709996,17.806099,3.2005115,-3.6636648000000003,26.980365999999997,-1
323,324,1580693195894,1.51,-0.992,16.167099,1.1832528,-4.271486,24.9861,-1
324,325,1580693195905,-0.29,-1.2292,13.8174,-0.4722419,-4.5004387,22.557392,-1
325,326,1580693195914,-1.1129999,-0.8673,11.007299,-1.0867473,-4.0944199999999995,19.619038,-1
326,327,1580693195924,-0.8921,-0.32709998,8.171599,-0.7734133000000001,-3.6304717000000006,16.936707000000002,-1
327,328,1580693195934,-0.2215,0.32569999,6.7563,-0.07839574,-2.9289036,15.914776000000002,-1
328,329,1580693195944,0.5869,1.1,7.1766996,0.735585,-2.3041797,16.563029999999998,-1
329,330,1580693195954,1.2641,1.5022,8.293799,1.350368,-1.9651798999999999,17.668067999999998,-1
330,331,1580693195964,1.4273,1.7583,8.946899,1.3980126,-1.8296298,18.066570000000002,-1
331,332,1580693195975,1.2337999,1.6187999,8.437799,1.2469673000000001,-2.0176130000000003,17.242247,-1
332,333,1580693195985,1.1386,1.4971,7.2377,1.0758106,-2.1791928,16.002508,-1
333,334,1580693195995,0.9219,1.4541998999999999,6.0339,0.95513326,-2.0958650000000003,14.683993,-1
334,335,1580693196005,1.1022,1.5576999,4.875,1.2234658,-2.0294404,13.597648999999999,-1
335,336,1580693196015,1.2890999,1.5826,3.9475,1.1579700000000002,-2.0690691,12.798283,-1
336,337,1580693196025,0.91749996,1.3852,3.3118,0.71179616,-2.3351512000000003,12.264969,-1
337,338,1580693196036,0.4545,0.9956,2.8797,0.1830032,-2.714948,11.966086,-1
338,339,1580693196046,-0.2093,0.5708,2.8278,-0.5500535,-3.124979,12.090422,-1
339,340,1580693196056,-0.9363,0.15879999,3.0187,-1.1258016000000002,-3.4678862,12.147078500000001,-1
340,341,1580693196066,-1.3154,-0.2047,2.6863,-1.3442389,-3.6411211000000003,11.55459,-1
341,342,1580693196076,-1.3413999,-0.2332,1.7727,-1.1978669,-3.5471725,10.58036,-1
342,343,1580693196086,-1.0433999,-0.1339,0.5751,-0.80342704,-3.3117843000000002,9.312573,-1
343,344,1580693196097,-0.5458,0.2086,-0.5606,-0.25623703,-2.8736357999999997,8.499367999999999,-1
344,345,1580693196107,0.0909,0.6242,-0.8673,0.4865784000000001,-2.4442882999999997,8.35405,-1
345,346,1580693196117,0.6299,0.80649996,-0.9932,0.85059285,-2.3072345000000003,8.191742,-1
346,347,1580693196127,0.91319996,0.9632,-1.1274998999999999,0.8570093000000001,-2.1780722000000003,8.286524,-1
347,348,1580693196137,0.7459,0.993,-0.7908,0.47590026,-2.3052142000000004,8.9238405,-1
348,349,1580693196147,0.2755,0.6897,-0.14019999,-0.11745953599999999,-2.6822145,9.393373500000001,-1
349,350,1580693196158,-0.37719998,0.2862,0.1174,-0.6198779999999999,-2.966234,9.360869000000001,-1
350,351,1580693196168,-0.7863,0.096099995,-0.047199998,-0.7894161999999999,-2.9984312,8.998502,-1
351,352,1580693196178,-0.80249995,0.0758,-0.5442,-0.6568636,-3.0230148,8.485481,-1
352,353,1580693196188,-0.58169997,0.062699996,-0.9507,-0.48168465,-2.9149024,8.286332000000002,-1
353,354,1580693196198,-0.3412,0.2043,-1.0210999,-0.05377377,-2.7837669999999997,8.370818,-1
354,355,1580693196208,0.1841,0.3108,-0.94299996,0.37400302,-2.6752427000000005,8.330002,d
355,356,1580693196218,0.4937,0.3962,-1.0516,0.3917584,-2.6921935,8.295727000000001,-1
356,357,1580693196229,0.3746,0.35009998,-0.8969,0.07007349,-2.7245727000000004,8.850789,-1
357,358,1580693196239,0.081,0.3026,-0.3897,-0.20808485,-2.8445895,9.161374,-1
358,359,1580693196249,-0.1767,0.1788,-0.1564,-0.35761714,-3.0143668999999997,9.256453500000001,-1
359,360,1580693196259,-0.3073,0.0004,-0.059000000000000004,-0.48635814,-3.0569935,9.417392,-1
360,361,1580693196269,-0.4175,-0.0061999997,0.1479,-0.53545845,-3.101899,9.752110499999999,-1
361,362,1580693196279,-0.4333,-0.069299996,0.4538,-0.501116,-3.1640909,9.705433,-1
362,363,1580693196290,-0.39399999999999996,-0.1157,0.3078,-0.51896715,-3.1367586,9.267533,-1
363,364,1580693196300,-0.3741,-0.070199996,-0.1541,-0.36721307,-3.1021384999999997,8.779049,-1
364,365,1580693196310,-0.18769999,-0.039699998,-0.6471,-0.19707154,-2.9855409,8.463082,-1
365,366,1580693196320,-0.0468,0.0694,-0.88519996,-0.13994588,-2.9281757,8.645655,-1
366,367,1580693196331,0.010799999,0.0865,-0.631,-0.19942743,-3.0906847,9.020787,-1
367,368,1580693196341,-0.0989,-0.1051,-0.2472,-0.4457812,-3.346443,9.508294,-1
368,369,1580693196351,-0.305,-0.3014,0.1677,-0.32251814,-3.3388195,9.82158,-1
369,370,1580693196361,-0.18419999,-0.2801,0.4854,-0.12023681,-3.2624636000000002,10.1188345,-1
370,371,1580693196372,0.0288,-0.1998,0.7933,-0.12336843,-3.1697602000000002,10.43169,-1
371,372,1580693196382,0.1348,-0.087699994,1.2002,-0.03266649,-3.1669445,10.524049,-1
372,373,1580693196392,0.2854,0.074599996,0.99289995,0.13578954,-3.0034301,10.320714,-1
373,374,1580693196402,0.51919997,0.1995,0.4102,0.36919546,-2.8548462000000003,9.736939999999999,-1
374,375,1580693196412,0.59029996,0.2618,0.1891,0.45480254,-2.784514,9.523541,-1
375,376,1580693196423,0.59029996,0.2618,0.1891,0.23029347,-2.7410161,9.274322999999999,-1
376,377,1580693196433,0.12789999,0.1856,0.0558,-0.024861392000000003,-2.8429708,9.389102000000001,-1
377,378,1580693196443,0.1291,0.0932,0.4303,-0.012612655,-2.935253,9.8348055,-1
378,379,1580693196453,0.1432,0.162,0.78669995,0.016156072,-2.8889587000000003,10.175654,-1
379,380,1580693196463,0.2057,0.2207,1.1036999,0.09758766,-2.8080635,10.5118475,-1
380,381,1580693196473,0.34299999999999997,0.3161,1.5473,0.2274779,-2.730788,10.96192,-1
381,382,1580693196484,0.3011,0.3779,1.8130000000000002,0.16490303,-2.682109,11.143994000000001,-1
382,383,1580693196494,0.084,0.2588,1.587,-0.11001836,-2.8278779999999997,10.855300999999999,-1
383,384,1580693196504,-0.0694,0.1011,1.3219999,-0.25970384,-2.9844873,10.632267,-1
384,385,1580693196514,-0.2481,-0.080299996,1.2649,-0.42000043,-3.1414034,10.59033,-1
385,386,1580693196524,-0.3078,-0.1175,1.5532999,-0.45067495,-3.171532,10.984166,-1
386,387,1580693196534,-0.0841,0.0177,2.1771,-0.22613715,-3.0287992999999998,11.641614,-1
387,388,1580693196544,0.11669999,0.29209998,2.9584,-0.024114398,-2.7265935000000003,12.423235,-1
388,389,1580693196554,0.33179998,0.7004,3.7285998,0.21889707,-2.3866456,13.168138,-1
389,390,1580693196564,0.47169998,0.7768,4.2214,0.30810505,-2.3641784,13.529366,-1
390,391,1580693196574,0.40879998,0.63589996,4.171,0.2584493,-2.5593827,13.380876999999998,-1
391,392,1580693196584,0.13669999,0.3198,3.6567,-0.07660488,-2.843124,12.888907000000001,-1
392,393,1580693196595,-0.0823,0.1726,3.4668998999999996,-0.20834343,-2.947559,12.799364,-1
393,394,1580693196605,0.091,0.1955,3.6444,0.052509632,-2.8995888,13.065158,-1
394,395,1580693196615,0.3094,0.26459998,4.1122,0.18547401,-2.8860474,13.763442000000001,-1
395,396,1580693196625,0.0802,0.15519999,5.2532,-0.39824194,-3.1898046,15.237867999999999,-1
396,397,1580693196635,-0.6813,-0.3883,7.0734997,-1.2240212,-3.9758400000000003,17.063658,-1
397,398,1580693196645,-1.5916,-1.1947,8.6324,-2.1908479,-4.6700053,18.115402,-1
398,399,1580693196656,-2.5661,-1.6523,8.6165,-2.9521754000000002,-4.952253,17.429981,-1
399,400,1580693196665,-2.9143999,-1.8066,7.1025996,-2.9316904999999998,-4.8993125,15.650732999999999,-1
400,401,1580693196675,-2.4775999,-1.5791998999999999,5.2559,-2.3014407,-4.4475074,14.015474,-1
401,402,1580693196686,-1.8011999,-1.2185,4.0174,-1.6985424999999998,-4.0482597,13.08935,-1
402,403,1580693196696,-1.2436,-1.0115,3.4022,-1.2776418999999999,-3.8388917,12.747534,-1
403,404,1580693196706,-0.64629996,-0.8754,3.3132,-0.6417993000000001,-3.674094,12.724225,-1
404,405,1580693196716,-0.1695,-0.95659995,3.2275999,-0.31121750000000004,-3.6826653,12.498451,-1
405,406,1580693196727,0.0396,-0.8921,2.7303998,-0.18503347,-3.4751741999999997,11.932308,-1
406,407,1580693196736,0.192,-0.6759,2.2224998,-0.14477259,-3.196719,11.600214,-1
407,408,1580693196746,0.1481,-0.5317,2.165,-0.40351877,-2.9902046,11.781464,-1
408,409,1580693196756,-0.3728,-0.4675,2.5489,-1.0432112,-3.0017447,12.131794000000001,-1
409,410,1580693196766,-0.9590000000000001,-0.7402,2.5503,-1.6214587999999999,-3.1828997,11.925661999999999,-1
410,411,1580693196777,-1.4245,-0.8824,2.1787999,-1.9892657,-3.2034418999999996,11.499428,-1
411,412,1580693196787,-1.4245,-0.8824,2.1787999,-1.6566153000000001,-3.1474557,11.059555,-1
412,413,1580693196797,-0.92249995,-0.94119996,1.2002,-1.2478579,-2.8706574000000002,10.215425999999999,-1
413,414,1580693196807,-0.41489998,-0.7144,0.2694,-0.76851,-2.5260262000000004,9.33278,-1
414,415,1580693196817,0.0309,-0.4486,-0.5513,-0.7178199000000001,-2.1673846,9.108013,-1
415,416,1580693196827,0.0307,-0.24759999,-0.104899995,-0.8728206000000001,-1.9391501,10.253829,-1
416,417,1580693196838,-0.1118,-0.1319,0.92719996,-1.0175261,-1.618509,10.653642999999999,-1
417,418,1580693196848,-0.1559,0.0735,0.9036,-0.9104479,-1.3766661,10.415610000000001,-1
418,419,1580693196858,-0.0676,0.0616,0.53139997,-0.94606405,-1.3765032,10.060369,-1
419,420,1580693196868,-0.289,-0.22309999,0.1689,-1.1782920000000001,-1.548244,9.466386,-1
420,421,1580693196878,-0.6472,-0.6487,-0.6992,-1.6622846000000002,-1.9456145,8.365427,-1
421,422,1580693196888,-1.1972,-1.2145,-1.8357999,-2.0887113,-2.0363834,7.364325,-1
422,423,1580693196898,-1.5193,-1.234,-2.6720998,-2.1906849999999998,-1.7584836,6.911802000000001,-1
423,424,1580693196909,-1.4051,-1.0073,-3.1211,-1.9652278000000003,-1.3668498,6.483651,-1
424,425,1580693196919,-1.1935999,-0.8973,-3.3407998,-1.8522981,-1.2667912000000001,6.487357599999999,-1
425,426,1580693196929,-1.0763,-0.99369997,-3.1755998,-1.8183483,-1.306832,6.835063000000001,-1
426,427,1580693196939,-1.003,-1.1561999,-2.872,-1.615205,-1.5081938999999998,7.0238023,-1
427,428,1580693196949,-0.80039996,-1.4221,-2.7052999,-1.532969,-1.465012,7.40336,-1
428,429,1580693196959,-0.7177,-1.2645998999999999,-2.0779,-1.0511982,-0.86216164,8.099948,-1
429,430,1580693196969,-0.088199995,-0.8156,-1.6369,-0.14291468,-0.1937005,8.039508999999999,-1
430,431,1580693196979,0.75729996,-0.22489999,-1.8126999,0.33991918,0.27710490000000004,7.682504700000001,-1
431,432,1580693196990,1.153,0.031799997999999996,-2.1633,0.47930002,0.35024297,7.343946000000001,-1
432,433,1580693197000,1.2149999,-0.0316,-2.5123,0.20632273,0.14916836,6.942141,-1
433,434,1580693197010,0.89839995,-0.3575,-2.8896,-0.10264422,-0.03740701,6.7573757,-1
434,435,1580693197020,0.61439997,-0.66319996,-3.0509,-0.32683724,-0.2873521,6.8890185,-1
435,436,1580693197030,0.4042,-0.96,-2.8104,-0.7978055000000001,-0.44803172,7.0471315,-1
436,437,1580693197040,-0.1033,-1.1409,-2.7366,-1.2222973999999998,-0.32602322,6.9054427,-1
437,438,1580693197050,-0.4971,-1.0983,-2.8778,-1.3556162,-0.139649,6.7855797,-1
438,439,1580693197060,-0.60569996,-0.91719997,-2.9691,-1.2329086,0.20052876,6.718704700000001,-1
439,440,1580693197070,-0.4005,-0.72429997,-3.0793,-0.7666521,0.38965154,6.3932557,-1
440,441,1580693197080,0.0359,-0.6947,-3.4041997999999998,-0.36411020000000005,0.41239646,6.141223,-1
441,442,1580693197090,0.3658,-0.80439997,-3.6206,-0.34473634,0.15627433,5.987439,-1
442,443,1580693197100,0.3269,-1.1464,-3.7389997999999998,-0.54396266,0.036181173999999997,5.9975996,-1
443,444,1580693197111,0.1646,-1.2669,-3.6715,-0.6427185999999999,0.12763968,6.1987987,-1
444,445,1580693197121,0.119799994,-1.1961,-3.4482,-0.6904974,0.31928116,6.4515696,-1
445,446,1580693197131,0.11599999999999999,-0.98899996,-3.1962,-0.5952177,0.7039144,6.7238665,-1
446,447,1580693197142,0.2905,-0.61359996,-2.8959,-0.29880595,0.97874004,6.969176299999999,-1
447,448,1580693197152,0.625,-0.4389,-2.6845,0.17619409,1.2498498,6.9801226,-1
448,449,1580693197162,1.3659999,-0.014099998999999998,-2.7912998,0.55623055,1.4992969999999999,6.8690414,-1
449,450,1580693197172,1.4625,-0.1295,-2.8936,0.674303,1.4289266,6.7692413,-1
450,451,1580693197183,1.3895,-0.34849998,-3.2310000000000003,0.61866176,1.2565346000000002,6.417466,-1
451,452,1580693197193,1.3895,-0.34849998,-3.2310000000000003,0.3665044,1.1144625,6.436945400000001,-1
452,453,1580693197203,0.66359997,-0.60719997,-2.7514,-0.13058934,1.0512652,6.888971000000001,-1
453,454,1580693197213,0.1901,-0.6976,-2.3566,-0.6113738000000001,0.9702453999999999,7.287452,-1
454,455,1580693197223,-0.0578,-0.79319996,-1.9427999,-0.8697655999999999,0.8892448000000001,7.6902814,-1
455,456,1580693197234,-0.0122,-0.81979996,-1.9705,-0.7804331999999999,0.8701965,7.6165970000000005,-1
456,457,1580693197244,0.27019998,-0.7879999999999999,-2.2628,-0.55142295,0.90726835,7.382616499999999,-1
457,458,1580693197254,0.55189997,-0.5291,-2.4377,-0.18098250000000002,1.2467088,7.191348599999999,-1
458,459,1580693197264,1.0028,-0.19999999,-2.3192,0.30267498,1.5412337999999999,7.3787575,-1
459,460,1580693197274,1.3543999,-0.076799996,-1.8780999,0.5576671,1.6614131999999997,7.8447647,-1
460,461,1580693197285,1.3543999,-0.076799996,-1.8780999,0.469819,1.6891092,8.145026,-1
461,462,1580693197294,1.0148,-0.11800000000000001,-1.3396,0.25135288,1.596741,8.29996,-1
462,463,1580693197304,0.616,-0.032199997,-1.1926,-0.23067655,1.7212682000000001,8.466165,-1
463,464,1580693197314,0.3441,0.029099998999999998,-1.1242,-0.4740710999999999,1.7363613000000002,8.50113,-1
464,465,1580693197324,0.2136,-0.0832,-1.203,-0.58967274,1.5487708,8.409624,-1
465,466,1580693197336,0.1103,-0.38149998,-1.3017,-0.702047,1.2391334999999999,8.306788000000001,-1
466,467,1580693197346,0.1082,-0.57269996,-1.3615999,-0.60403794,1.1124322,8.319621000000001,-1
467,468,1580693197356,0.265,-0.5187,-1.1180999,-0.44026494,1.2675,8.732266000000001,-1
468,469,1580693197366,0.4254,-0.23789999,-0.5909,-0.27110025,1.5594393,9.209114999999999,-1
469,470,1580693197376,0.5372,-0.035099998,-0.34809998,-0.2240111,1.7369933000000002,9.244252000000001,-1
470,471,1580693197386,0.47959998,0.2172,-0.5657,-0.25297135,1.9613013,8.981742,-1
471,472,1580693197397,0.5385,0.3852,-0.72459996,-0.12053369,2.0939975,8.886127,-1
472,473,1580693197407,0.7779,0.4516,-0.71739995,0.17718050000000002,2.0677187,9.0223,-1
473,474,1580693197417,0.9578,0.36589998,-0.41689998,0.17937359,1.9169990000000001,9.443584,-1
474,475,1580693197427,0.7316,0.2041,0.1575,-0.22035275,1.6762093,10.125059,-1
475,476,1580693197437,0.32119998,-0.0199,0.5751,-0.63189685,1.3869706,10.315389999999999,-1
476,477,1580693197447,0.0115,-0.19389999,0.60139996,-0.67263657,1.4284766000000002,10.134503,-1
477,478,1580693197458,0.0328,-0.100099996,0.3834,-0.6594014,1.4671285,9.968977,-1
478,479,1580693197468,0.0191,-0.085,0.15609999,-0.6616041,1.5095059,9.676817,-1
479,480,1580693197479,0.061199997,0.0022,-0.012499999,-0.4463271,1.655715,9.82906,-1
480,481,1580693197489,0.2742,0.1349,0.22019999,-0.31267315,1.6814574,10.090755,-1
481,482,1580693197499,0.3525,0.14559999,0.4818,-0.33214283,1.5964824,10.157161,-1
482,483,1580693197509,0.33609998,0.0499,0.41,-0.37119702,1.5202893,9.984183999999999,-1
483,484,1580693197519,0.2809,0.0517,0.3187,-0.5238225999999999,1.4626178,10.227082000000001,-1
484,485,1580693197530,0.1248,-0.0049,0.6195,-0.7151385,1.3487496,10.486948,-1
485,486,1580693197540,-0.085599996,-0.113199994,0.82229996,-0.9481995999999999,1.182726,10.607731,-1
486,487,1580693197550,-0.3206,-0.25669998,0.9472,-0.9952888000000001,1.0414778,10.759628999999999,d
487,488,1580693197560,-0.31489998,-0.37629998,1.0726,-0.85334134,1.0322266,10.692772999999999,-1
488,489,1580693197570,-0.1915,-0.34289998,0.97309995,-0.701865,1.1127291000000001,10.575878999999999,-1
489,490,1580693197580,-0.0287,-0.26819998,0.8634,-0.5061343,1.260346,10.533118,-1
490,491,1580693197591,0.1665,-0.0775,0.8333,-0.25318202,1.567072,10.501467,-1
491,492,1580693197601,0.41579998,0.24479999,0.8029999999999999,0.006483498000000001,1.7901063000000002,10.444973,-1
492,493,1580693197611,0.6986,0.4339,0.7233,0.38744888,1.8998182000000001,10.417985,-1
493,494,1580693197621,1.0971,0.5827,0.72209996,0.7200035,2.0903392,10.572000000000001,-1
494,495,1580693197631,1.401,0.7484,0.93659997,1.0906546,2.0246615,11.053158,-1
495,496,1580693197642,1.7087,0.68549997,1.3472998999999999,1.3210343,1.9522703999999997,11.239877,-1
496,497,1580693197652,1.9280000000000002,0.6092,1.5329,1.3786675,1.8379807000000001,11.561753,-1
497,498,1580693197662,1.9837999,0.4912,1.8563999,1.44039,1.8876845000000002,11.621216,-1
498,499,1580693197672,2.0502,0.5459,1.9156,1.8930378,1.8919557,11.051635000000001,-1
499,500,1580693197682,2.5008,0.53529996,1.3483,2.5381505,1.7959098000000002,10.734212,-1
500,501,1580693197692,3.9060998,0.2899,1.2526,3.3041322,1.6737194,10.953799,-1
501,502,1580693197702,3.9060998,0.2899,1.2526,4.1175194,1.7707803,11.486383,-1
502,503,1580693197712,4.7016,0.3847,1.7819999999999998,4.716309,1.911454,12.134437,-1
503,504,1580693197722,5.3043,0.5341,2.4384,4.9283013,1.7622665000000002,12.746385,-1
504,505,1580693197732,5.5091,0.3908,3.036,5.0202003,1.6962824,13.086257000000002,-1
505,506,1580693197743,5.6724997,0.29189998,3.6657998999999997,5.097935700000001,1.6891764,13.36316,-1
506,507,1580693197753,5.6724997,0.29189998,3.6657998999999997,5.229941999999999,1.6099952,13.164278,-1
507,508,1580693197763,6.1531,0.0743,2.7049,5.7875996,1.5688725000000001,12.2224,-1
508,509,1580693197773,6.9181,0.0762,1.9972999,6.435920200000001,1.6262472,11.67703,-1
509,510,1580693197784,7.4919996,0.039,1.6829,7.11618,1.6844646,11.321097,-1
510,511,1580693197794,7.686,0.0865,1.5647,7.273824,1.7754825,11.242664,-1
511,512,1580693197804,7.5617,0.052199997000000005,1.6915,7.062196000000001,1.7737683000000002,11.356838,-1
512,513,1580693197814,6.9893,-0.1074,1.5834999,6.430232,1.6521715,11.161749,-1
513,514,1580693197824,6.9893,-0.1074,1.5834999,5.9014773,1.4879388999999998,10.856182,-1
514,515,1580693197835,5.8160996,-0.6793,0.853,5.274627,1.2045228000000001,10.384352,-1
515,516,1580693197846,5.474,-0.8014,0.3391,4.9492364,1.1622508999999999,9.7163315,-1
516,517,1580693197856,5.3327,-0.94229996,-0.24039999,4.6980267,1.0463811,9.024541000000001,-1
517,518,1580693197866,5.0144997,-1.3154,-1.2193999,4.3196282,0.65108883,7.778215400000001,-1
518,519,1580693197876,4.604,-1.8578999,-2.6664999,3.634829,0.10356359,5.943989,-1
519,520,1580693197887,4.0601,-2.3962998,-4.2889,3.2680566000000004,-0.24718696,4.4452667,-1
520,521,1580693197897,3.6922998,-2.8016999,-6.1271996,2.773405,-0.4890109,2.8629959,-1
521,522,1580693197907,3.0649998,-3.0393999,-6.87,1.8817371999999999,-0.6241684000000001,2.626535,-1
522,523,1580693197917,1.9218998999999999,-3.2577,-6.5888,0.57687813,-0.8692675999999999,3.0193852999999997,-1
523,524,1580693197927,0.7161,-3.6827998,-6.2929997,-0.6660573000000001,-1.3829770000000001,3.14827,-1
524,525,1580693197937,-0.56659997,-4.3094997,-6.2556996,-2.079077,-2.0883472,3.1749127,-1
525,526,1580693197948,-1.6054,-4.8726,-6.2794,-3.239939,-2.518298,3.0022142000000005,-1
526,527,1580693197958,-2.8760998,-5.2021,-6.5688996,-4.6093364,-2.7859986,2.5601293999999997,-1
527,528,1580693197968,-4.2334,-5.5499997,-7.1046,-5.8074617,-3.0719047,1.7713645,-1
528,529,1580693197978,-5.3259,-5.6572,-8.1321,-6.589676400000001,-2.8550282000000005,0.5002541,-1
529,530,1580693197988,-5.7521996,-5.3842,-9.3873,-6.545642,-2.6121986,-0.5173199,-1
530,531,1580693197998,-5.6247,-5.071399700000001,-10.2056,-6.4124765,-2.15278,-1.0523474,-1
531,532,1580693198009,-5.5495996,-4.5413,-10.4993,-6.279808999999999,-1.5788611000000001,-0.7279521999999999,-1
532,533,1580693198019,-5.5436997,-4.1231,-10.004399000000001,-6.562142999999999,-1.7203872,-0.12669158,-1
533,534,1580693198029,-6.2541,-4.4968,-9.3186,-7.8168,-2.6510518,0.5310531,-1
534,535,1580693198039,-7.8901997,-5.5734997,-8.7153,-9.717758,-3.8501828000000002,1.1190593999999998,-1
535,536,1580693198049,-10.0022,-6.5089999999999995,-8.2121,-12.552694,-4.3545547,1.7050356,-1
536,537,1580693198060,-12.462999,-6.6092997,-7.7187996,-14.399676000000001,-4.641629,2.393675,-1
537,538,1580693198070,-14.181,-6.8322997,-7.0481,-15.102711,-4.7111472999999995,2.8645856,-1
538,539,1580693198080,-14.764299,-6.7497997000000005,-6.7082996,-14.646759,-4.6404895999999995,2.7470207,-1
539,540,1580693198090,-14.2561,-6.6208,-6.9055,-13.718660999999999,-4.815984200000001,2.6776178,-1
540,541,1580693198101,-13.4445,-6.7506,-6.916599799999999,-12.810808,-5.0748167,2.9648836,-1
541,542,1580693198111,-12.3868,-7.0469,-4.9895,-11.713842,-5.470971,4.6984677,-1
542,543,1580693198121,-11.8161,-7.0469,-4.9895,-11.681847,-5.3913975,6.221801999999999,-1
543,544,1580693198132,-12.7269,-6.1794,-2.4569,-12.526722,-5.0161204,7.284081,-1
544,545,1580693198142,-13.2887,-6.1246,-1.8403,-13.024927,-5.1561337,7.9220495,-1
545,546,1580693198153,-12.2239,-6.0504,-1.227,-11.561408,-5.2937902999999995,8.687332000000001,-1
546,547,1580693198163,-11.1004,-6.2658,-0.4804,-10.4964485,-5.8558435,9.488566,-1
547,548,1580693198173,-10.3143,-7.0506,0.5351,-9.49572,-6.8606906,10.537916000000001,-1
548,549,1580693198183,-9.143499,-7.7001,1.6422,-8.317523,-7.65885,11.691414,-1
549,550,1580693198193,-8.471,-7.9363,3.3799998999999996,-7.616377000000001,-8.019025,13.625297,-1
550,551,1580693198204,-7.9662,-7.8408,5.5731,-7.2281046,-8.173306,15.71556,-1
551,552,1580693198214,-8.2597,-7.6176,6.9178,-7.654980999999999,-8.182509,16.852068,-1
552,553,1580693198224,-8.682,-7.5083,7.6877,-7.9657100000000005,-8.379477,17.585086999999998,-1
553,554,1580693198234,-8.207399,-7.6671,8.1666,-7.1009917,-8.799706,17.861473,-1
554,555,1580693198244,-6.8919,-7.7432,7.7836,-5.862576,-9.031388,17.355729999999998,-1
555,556,1580693198255,-4.5566998,-8.1498995,7.2047,-3.3644089999999998,-9.604005,16.86486,-1
556,557,1580693198265,-1.4241999,-8.1779995,7.1568,-0.31898427,-9.684181,16.877216,-1
557,558,1580693198275,1.1173999,-7.5618,7.7597,2.2860892,-8.954391000000001,17.91991,-1
558,559,1580693198285,1.1173999,-7.5618,7.7597,3.0578363,-8.511905,19.16256,-1
559,560,1580693198295,2.5527,-6.3064,9.9015,2.3837533,-8.260168,19.631804000000002,-1
560,561,1580693198305,2.0582,-5.803499700000001,10.2789,2.1091290000000003,-8.036616,19.837742000000002,-1
561,562,1580693198315,2.7675998,-5.5945,10.3891,2.8847737,-7.934662299999999,19.716835,-1
562,563,1580693198325,3.2675,-5.321399700000001,9.8172,3.2724714,-7.6873125999999985,19.101862,-1
563,564,1580693198335,4.2574,-5.0758,9.4264,4.6036954,-7.616664,18.785671,-1
564,565,1580693198345,6.1226,-4.9199,9.090199,6.2914449999999995,-7.317744,18.408958,-1
565,566,1580693198356,7.5281,-4.388099700000001,8.7312,7.5155144,-6.9344415999999995,18.012423000000002,-1
566,567,1580693198366,8.7727995,-4.3389,8.1645,8.483586,-6.957569,17.275928,-1
567,568,1580693198376,9.6382,-4.0552998,7.468899700000001,9.234925,-6.3326635,16.886983999999998,-1
568,569,1580693198387,10.644,-3.1452,7.8238997,10.480597999999999,-5.3771853,17.74343,-1
569,570,1580693198397,11.818399000000001,-2.4798,8.514,11.309414,-4.7004504,17.66648,-1
570,571,1580693198408,12.6131,-1.7799,7.7994,11.875116,-4.1120796,16.321005,-1
571,572,1580693198418,13.2855,-1.3679999,6.3731,12.389074,-3.8986413,14.983047500000001,-1
572,573,1580693198429,13.9051,-1.2922,5.0762997,13.121738,-3.7270440000000002,13.471053,-1
573,574,1580693198439,14.581698999999999,-1.1674,3.8493,13.70445,-3.3297790999999997,12.725508,-1
574,575,1580693198449,15.151198999999998,-0.8364,3.2539999999999996,13.835737,-2.9087252999999995,12.938706,-1
575,576,1580693198459,15.392098999999998,-0.51019996,3.5902,14.575201000000002,-2.5082709999999997,13.070503,-1
576,577,1580693198469,16.029,-0.1356,3.5375,14.685862,-2.1718472999999996,12.624866,-1
577,578,1580693198479,16.1066,0.1374,2.8899999,14.75513,-1.9321783,11.757895,-1
578,579,1580693198490,16.247598999999997,0.2514,2.1769,14.906471,-1.8132151,11.295135,-1
579,580,1580693198500,16.3535,0.3331,1.7883999,14.767331,-1.7060698,11.151809,-1
580,581,1580693198510,16.2679,0.387,1.6531999,14.856376000000001,-1.5644864,10.953223,-1
581,582,1580693198520,16.3585,0.4538,1.3959,14.7624655,-1.6654546000000001,10.543691,-1
582,583,1580693198531,16.144000000000002,0.254,0.9371,13.953398000000002,-1.9594433,9.738864999999999,-1
583,584,1580693198541,15.133498999999999,-0.1545,-0.0563,12.799747,-2.3443928,8.260953,-1
584,585,1580693198551,13.9147,-0.6307,-1.5819,11.540474,-2.7520868999999997,6.9362416,-1
585,586,1580693198561,12.5876,-1.1313,-2.8504,10.059994999999999,-3.2555587000000004,5.8995523,-1
586,587,1580693198571,11.303699499999999,-1.5902,-3.6906,9.207189999999999,-3.6729352,5.885733,-1
587,588,1580693198581,10.415199000000001,-2.0417,-3.7199,8.467937,-3.9192796000000003,6.3203096,-1
588,589,1580693198592,9.6482,-2.2935,-3.2933998,7.9243483999999995,-4.381944,6.639064,-1
589,590,1580693198602,9.0587,-2.7536,-2.9745998,7.209372,-4.879575,6.548352700000001,-1
590,591,1580693198612,7.0706,-3.9606998,-3.5995998,6.115355999999999,-5.5545,6.0390863,-1
591,592,1580693198623,5.6882997,-4.740999700000001,-4.4539,4.8832617,-6.291540599999999,5.203826,-1
592,593,1580693198633,4.3774,-5.104,-5.2661,3.7273793,-6.612957499999999,4.411919999999999,-1
593,594,1580693198644,3.6334998999999994,-5.1047997,-5.5702996,3.053086,-6.592262299999999,4.1505594,-1
594,595,1580693198654,3.1281,-5.0146,-4.9235997000000005,2.609584,-6.5138474,5.0755258,-1
595,596,1580693198664,2.4457998,-4.5632997,-3.0532,2.0245081999999996,-6.056516,7.050138499999999,-1
596,597,1580693198674,1.7363,-4.1946,-1.2865,1.4698962,-5.8716364,8.55977,-1
597,598,1580693198684,1.7363,-4.1946,-1.2865,1.3976008999999998,-5.9740314,8.735167500000001,-1
598,599,1580693198695,0.8384,-4.6007,-1.176,0.7398945,-6.5585804,8.460448,-1
599,600,1580693198705,-0.47919998,-5.446000000000001,-0.7736,-0.5470559,-7.446839,9.076255999999999,-1
600,601,1580693198715,-2.2740998,-5.8076,0.4867,-2.5567682,-7.6540046,10.828534,-1
601,602,1580693198725,-4.0424,-5.5783997,2.4693,-3.7416391000000004,-7.4634643,12.762609,-1
602,603,1580693198735,-5.1278996,-5.1907,4.6032,-4.455092400000001,-7.082134700000001,14.488731,-1
603,604,1580693198745,-5.6962,-4.618,5.5793,-4.823311,-6.612804400000001,15.16293,-1
604,605,1580693198755,-5.8522,-4.5016,5.3251,-4.8300433,-6.62625,14.859613000000001,-1
605,606,1580693198765,-6.2988,-4.389199700000001,4.2513,-5.407132,-6.4356046,13.349532,-1
606,607,1580693198775,-6.8086,-4.0973,3.3725998,-5.719173400000001,-6.185018,12.659255,-1
607,608,1580693198785,-7.2207,-4.0113,3.1065,-6.0983477,-6.148942,12.650426,-1
608,609,1580693198795,-8.1723995,-3.8711,3.6567,-7.1658936,-5.929212000000001,13.3836355,-1
609,610,1580693198805,-9.020599,-3.7831,4.0787,-7.801995,-5.9362699999999995,13.492044,-1
610,611,1580693198815,-9.6122,-3.8360999,3.7812997999999998,-8.320655,-5.905346400000001,13.0039625,-1
611,612,1580693198825,-10.007299,-3.7501998,3.1169999,-8.3819475,-5.7901278,12.306253,-1
612,613,1580693198835,-9.5689,-3.4132998,2.4492,-7.607193,-5.193071400000001,11.720613499999999,-1
613,614,1580693198846,-8.2483,-2.5411,2.064,-6.0784183,-4.2635083,11.462336,-1
614,615,1580693198856,-6.786299700000001,-1.6494,1.9919,-4.800154,-3.4773097,11.448297,-1
615,616,1580693198866,-5.6064,-1.0203999,1.8212,-3.9674987999999995,-3.021837,11.214316,-1
616,617,1580693198876,-5.1015997,-0.76669997,1.3452,-3.6044612000000003,-2.8226779,10.71095,-1
617,618,1580693198886,-5.2578,-0.78639996,0.9073,-3.9444184,-2.8033805,10.091953,-1
618,619,1580693198897,-5.6035,-0.85749996,0.1541,-4.1434917,-2.9322076,9.382714,-1
619,620,1580693198907,-5.5369997,-0.9909,-0.47169998,-3.9199595,-2.9906547000000003,8.993398,-1
620,621,1580693198917,-4.99,-0.96519995,-0.2924,-3.040435,-2.737607,9.556772,-1
621,622,1580693198927,-4.033,-0.63409996,0.2411,-2.1004426,-2.4786882,10.009181,-1
622,623,1580693198937,-3.1878,-0.48700000000000004,0.5588,-1.59699,-2.3758334999999997,10.148033999999999,-1
623,624,1580693198948,-2.8718998,-0.3829,0.6012,-1.494068,-2.3412992999999998,10.071247999999999,-1
624,625,1580693198957,-2.7466,-0.44099998,0.46679997,-1.4556171999999998,-2.425719,9.879472999999999,-1
625,626,1580693198967,-2.7423,-0.513,0.028199999,-1.5253458999999998,-2.5125518,9.342855,-1
626,627,1580693198977,-2.7856,-0.6145,-0.66539997,-1.6565002,-2.4977365000000002,8.471786999999999,-1
627,628,1580693198987,-2.8165998,-0.5258,-1.2212,-1.5045738000000002,-2.3664672,8.40926,-1
628,629,1580693198997,-2.4692,-0.3698,-1.0097,-1.0813267,-2.161993,8.669404,-1
629,630,1580693199008,-2.085,-0.1281,-0.87479997,-0.8032451,-1.8507371,8.649523,-1
630,631,1580693199018,-1.6607,0.1849,-0.9748,-0.19462945,-1.6679925,8.581278,d
631,632,1580693199028,-0.9945,0.3724,-0.93649995,0.37280595,-1.4556556,8.815289,-1
632,633,1580693199038,-0.5632,0.5038,-0.5926,0.46050078,-1.5395484,9.248045,-1
633,634,1580693199049,-0.6034,0.38099998,-0.2572,0.28460354,-1.712132,9.402854,-1
634,635,1580693199060,-0.84599996,0.1697,-0.0976,-0.04093127,-2.0528459999999997,9.596726,-1
635,636,1580693199070,-1.1093998999999999,-0.0993,0.0916,-0.35369065,-2.3217149,9.881503,-1
636,637,1580693199080,-1.4159,-0.355,0.3988,-0.60406667,-2.4244359,10.164036999999999,-1
637,638,1580693199090,-1.6042999,-0.4008,0.6077,-0.47379336,-2.4217157000000005,9.959861,-1
638,639,1580693199100,-1.3535,-0.34,0.32529998,-0.038996756,-2.2306204,9.635178,-1
639,640,1580693199111,-0.8591,-0.07809999599999999,0.0324,0.86200833,-1.7819563999999999,9.578052,-1
640,641,1580693199121,-0.0808,0.30789998,0.033999998,1.5165256,-1.5205861,9.910366999999999,-1
641,642,1580693199131,0.6728,0.64309996,0.4779,1.7710484,-1.3835038,10.413753,-1
642,643,1580693199141,0.7967,0.70089996,0.9421,1.3906863999999999,-1.6735278000000002,10.633186,-1
643,644,1580693199151,0.4173,0.45119998,1.0921,0.86627966,-2.0650275000000002,10.41788,-1
644,645,1580693199162,-0.5887,-0.2848,0.7132,0.39267778,-2.4127424,10.247969,-1
645,646,1580693199172,-0.7051,-0.42369998,0.77379996,0.28568572,-2.5609436000000003,10.305802,-1
646,647,1580693199182,-0.6993,-0.3947,0.9126,0.28562826,-2.5391272999999996,10.442396,-1
647,648,1580693199192,-0.6314,-0.3087,0.93299997,0.34390312,-2.4649744,10.462480000000001,-1
648,649,1580693199202,-0.3981,-0.1978,0.84459996,0.5660659,-2.3509336,10.372515,-1
649,650,1580693199212,-0.3981,-0.1978,0.84459996,0.89943457,-2.0389214,10.28346,-1
650,651,1580693199223,0.23429999,0.20539999,0.5479999999999999,1.2352549,-1.9281656000000003,10.046042,-1
651,652,1580693199233,0.3322,0.2766,0.35999998,1.314637,-1.8420508999999998,9.867549,-1
652,653,1580693199243,0.2841,0.2127,0.2411,1.2069075,-1.9549710999999999,9.778926,-1
653,654,1580693199253,-0.0052,0.045599997,0.319,0.8719491,-2.1239060000000003,9.883964,-1
654,655,1580693199263,-0.0052,0.045599997,0.319,0.59715223,-2.2362132000000003,10.066612,-1
655,656,1580693199273,-0.56159997,-0.17009999,0.80939996,0.36573824,-2.3155284,10.347816,-1
656,657,1580693199284,-0.56159997,-0.17009999,0.80939996,0.31340100000000004,-2.3306596,10.489313000000001,-1
657,658,1580693199294,-0.5148,-0.1174,0.8174,0.4032123,-2.2434053,10.308436,-1
658,659,1580693199304,-0.4093,-0.0196,0.5104,0.524809,-2.140493,9.982739,-1
659,660,1580693199314,-0.2681,0.024899999,0.19309999,0.6248483,-2.1031720000000003,9.737074,-1
660,661,1580693199324,-0.2349,0.0611,0.042799998,0.6757969,-2.0478563000000003,9.579201,-1
661,662,1580693199334,-0.26909998,0.0033,-0.047799997000000004,0.5822124,-2.1393821,9.489735000000001,-1
662,663,1580693199345,-0.371,-0.0691,-0.0982,0.51524174,-2.1609585,9.456752,-1
663,664,1580693199355,-0.3852,-0.0777,0.0486,0.48045883,-2.213813,9.67089,-1
664,665,1580693199365,-0.4985,-0.1784,0.6186,0.32340875,-2.281023,10.321183,-1
665,666,1580693199375,-0.8068,-0.1757,1.4446,-0.06394434,-2.3460975,11.268502,-1
666,667,1580693199385,-1.1403999,-0.3884,2.0448,-0.5477741999999999,-2.6263146,11.789978999999999,-1
667,668,1580693199395,-1.6474999,-0.5693,2.3685,-0.9403275,-2.7215562,11.860263,-1
668,669,1580693199405,-1.7500999,-0.5866,2.0713,-0.91683555,-2.7173805,11.512375,-1
669,670,1580693199416,-1.6151999,-0.4885,1.5261999,-0.81826156,-2.5997295,11.083814,-1
670,671,1580693199426,-1.2099999,-0.20709999,1.3232,-0.21514297,-2.1674132,10.956336,-1
671,672,1580693199437,-0.6275,0.1201,1.6211,0.24636336,-1.7780682,11.39955,-1
672,673,1580693199447,-0.5481,0.4308,2.2051,0.021040246000000002,-1.7036086,12.071631,-1
673,674,1580693199457,-0.963,0.0578,3.0458998999999998,-0.73593926,-2.2468912999999997,13.033708,-1
674,675,1580693199467,-1.9032999,-0.4172,4.0452,-2.2481362999999996,-2.8390923,14.3484125,-1
675,676,1580693199477,-3.273,-1.0049,5.2502,-3.4278936,-3.4596312000000005,15.385619,-1
676,677,1580693199488,-4.3213,-1.4907,6.0703998,-4.214637799999999,-3.6112892999999997,15.715913,-1
677,678,1580693199498,-4.6861,-1.4992,6.0622,-4.1860027,-3.4891372000000005,15.346239,-1
678,679,1580693199508,-4.239,-1.4024999,5.4217,-3.3120236000000003,-3.243674,14.467404,-1
679,680,1580693199518,-3.1711,-1.0943999,4.4844,-2.4196281,-2.6646411,13.645389000000002,-1
680,681,1580693199528,-2.3655999,-0.5254,3.7824,-1.7843316000000002,-2.1475415,13.095527,-1
681,682,1580693199539,-1.652,-0.17119999,3.2189,-1.4204223,-1.7930655,12.479125,-1
682,683,1580693199549,-1.5069,0.0667,2.5295,-1.9073073,-1.6417424999999999,11.577096000000001,-1
683,684,1580693199559,-1.9534999,0.024799999,1.7734,-2.3224810000000002,-1.7824353,11.026937,-1
684,685,1580693199569,-2.4068,-0.1954,1.0784999,-2.9191830000000003,-1.9305118000000001,10.528435,-1
685,686,1580693199579,-2.8165,-0.355,0.8864,-3.3051572,-1.9825618000000003,10.9352,-1
686,687,1580693199589,-3.1439998,-0.4016,1.5897,-3.3904388,-1.8819863000000001,12.243086,-1
687,688,1580693199599,-2.9833,-0.33899999999999997,2.8246999,-3.072527,-1.8757803,13.1828575,-1
688,689,1580693199609,-2.4471998,-0.30789998,3.7556,-2.3465377999999997,-1.5539901000000003,13.471637,-1
689,690,1580693199619,-1.7500999,0.040599998,3.7034,-1.5546126,-1.1067245,12.760367,-1
690,691,1580693199629,-0.92929995,0.42859998,2.8344998,-1.0853683,-0.8818707,11.806727,-1
691,692,1580693199639,-0.4709,0.5409,1.6214,-1.0932786,-0.8223125,10.329697999999999,-1
692,693,1580693199649,-0.5381,0.4784,0.38,-1.3605291000000002,-1.1555758,9.29047,-1
693,694,1580693199660,-0.8009999999999999,0.042999998,-0.575,-1.6829323,-1.3867983,8.846355,-1
694,695,1580693199670,-1.0847,-0.33089998,-0.9011,-1.8752441000000002,-1.6570078000000001,9.029176,-1
695,696,1580693199680,-1.2235,-0.4391,-0.5897,-1.8837962,-1.5297896,9.557269999999999,-1
696,697,1580693199690,-1.1208999,-0.36389998,-0.0437,-1.6499019,-1.5556566,10.495280000000001,-1
697,698,1580693199700,-0.97889996,-0.38349998,0.99969995,-1.5911386,-1.3773363,11.63968,-1
698,699,1580693199710,-0.93189996,-0.1945,2.0964,-1.4605683,-1.2519183999999999,12.119746000000001,-1
699,700,1580693199721,-0.76159996,-0.16129999,2.3664,-1.3094081,-1.4451976,12.018702000000001,-1
700,701,1580693199731,-0.73429996,-0.3645,2.2439,-1.4819822,-1.3700005,11.895093,-1
701,702,1580693199741,-0.8648,-0.3507,2.1316,-1.49968,-1.5594584999999999,11.705979,-1
702,703,1580693199751,-0.8932,-0.6203,1.8528,-1.6837080000000002,-1.7321953,11.04723,-1
703,704,1580693199761,-1.0287,-0.8425,1.1229,-1.5845305,-1.913197,9.941711999999999,-1
704,705,1580693199772,-0.4094,-1.1808,-0.53389996,-1.1379161,-1.9268056,9.224974000000001,-1
705,706,1580693199782,-0.4094,-1.1808,-0.53389996,-0.657352,-1.7141813999999997,8.812194,-1
706,707,1580693199792,0.6745,-0.86179996,-0.8854,-0.09379524,-1.4515278,8.879328,-1
707,708,1580693199802,1.1965,-0.48799998,-0.3685,0.44174936,-1.0140593,9.405832,-1
708,709,1580693199812,1.1965,-0.48799998,-0.3685,1.1027501,-0.6044785,10.188161000000001,-1
709,710,1580693199822,2.2143,0.35889998,0.9302,1.4534049,0.07252515,10.763881,-1
710,711,1580693199833,2.1255999,0.51309997,0.9666,1.3164757,0.17451814,10.688148,-1
711,712,1580693199843,2.1255999,0.51309997,0.9666,1.0230232,-0.28103140000000004,10.148159,-1
712,713,1580693199853,1.2742,-0.732,-0.69449997,0.5170327,-0.84307504,9.0893,-1
713,714,1580693199863,0.9895,-1.1517998999999999,-1.4010999,0.22450908,-1.1515248,8.380633999999999,-1
714,715,1580693199873,0.7374,-1.5777999,-1.5090000000000001,-0.123837695,-1.5109518999999998,8.27599,-1
715,716,1580693199883,0.2667,-1.7242998999999999,-1.6357,-0.63440603,-1.5397973,8.059361,-1
716,717,1580693199894,-0.014099998999999998,-1.7673999,-1.8887999,-0.76231384,-1.39219,7.864406599999999,-1
717,718,1580693199904,0.19659999,-1.5390999,-1.9352,-0.41113234,-1.1099806,7.863133,-1
718,719,1580693199914,0.7489,-1.4142,-1.9813,0.21792981,-0.8576988000000001,7.708400200000001,-1
719,720,1580693199924,1.2899,-1.0525,-2.3406,0.65489084,-0.4247601,7.38255,-1
720,721,1580693199934,1.6731,-0.78499997,-2.4643,1.00635,-0.14098018,7.318250999999999,-1
721,722,1580693199945,1.7098999,-0.7090000000000001,-2.3918,0.9595290000000001,0.024459165,7.3804240000000005,-1
722,723,1580693199955,1.5919999999999999,-0.69299996,-2.4368,0.90422297,0.06968085,7.2494130000000006,-1
723,724,1580693199965,1.5171,-0.7924,-2.6190999,0.87654597,0.060573302,7.089403599999999,-1
724,725,1580693199975,1.5195999,-0.8322,-2.7421,0.95919377,0.12239160000000002,6.9726143,-1
725,726,1580693199985,1.554,-0.82019997,-3.0015,1.0506332,0.20936815,6.6297646,-1
726,727,1580693199996,1.4071,-0.94549996,-3.2694,0.89158154,0.19046353,6.3838615,-1
727,728,1580693200006,1.2469,-0.95479995,-3.4285997999999998,0.9387665000000001,0.3136117,6.2631836,-1
728,729,1580693200016,1.2829,-0.93329996,-3.5386998999999997,0.9843521000000001,0.3894121,6.156661,-1
729,730,1580693200027,1.1438,-0.97929996,-3.6292998999999995,0.8267466,0.34193987,6.037535,-1
730,731,1580693200037,0.91569996,-1.1825,-3.6615998999999997,0.52743304,0.12829089999999999,6.1976304,-1
731,732,1580693200047,0.643,-1.3567,-3.3515,0.44923842,0.10939587,6.651006,-1
732,733,1580693200057,0.5567,-1.3377,-2.8557,0.39655644,0.24089499999999997,7.0062003,-1
733,734,1580693200067,0.5535,-1.265,-2.6153,0.61763704,0.29062736,7.1538076,-1
734,735,1580693200077,0.8208,-1.2387999,-2.5907,0.86986136,0.38733396,6.9088616,-1
735,736,1580693200088,1.0179,-1.1811,-2.9291,1.1295077,0.44249636,6.538660500000001,-1
736,737,1580693200098,1.2899,-1.12,-3.2777,1.3797784,0.7049295999999999,6.3247147,-1
737,738,1580693200108,1.4945998999999999,-0.81769997,-3.3428998,1.5833335,0.96107084,6.3514919999999995,-1
738,739,1580693200119,1.6566,-0.6861,-3.3207,1.5942223,0.9681002000000001,6.412611,-1
739,740,1580693200129,1.4442999,-0.7438,-3.1525,1.0962379,0.863081,6.943980000000001,-1
740,741,1580693200139,0.9956,-0.862,-2.5934,0.7524018,0.6745614999999999,7.4734335000000005,-1
741,742,1580693200149,0.5445,-1.1026,-1.9664999,0.2987006,0.36863044,8.105877,-1
742,743,1580693200160,0.1981,-1.3438,-1.4669999999999999,0.24781904,0.19604681,8.629881,-1
743,744,1580693200170,0.1586,-1.4623,-0.95669997,0.23086809,0.36222357,8.900483,-1
744,745,1580693200181,0.1338,-1.2547,-0.7589,0.42574653,0.67644817,8.828139,-1
745,746,1580693200191,0.3473,-0.9454,-0.90309995,0.9425110000000001,1.0634853000000002,8.48349,-1
746,747,1580693200201,0.9016,-0.54039997,-1.2822,1.6091526000000003,1.5348653,8.031187,-1
747,748,1580693200211,1.5251,-0.1325,-1.6913999,2.0889888,1.6161628000000001,8.105532,-1
748,749,1580693200221,1.8923,-0.10969999400000001,-1.5527999,1.9650936999999997,1.621995,8.515265,-1
749,750,1580693200232,1.7728,-0.0995,-1.1409999,1.2950811000000002,1.4119757,8.903902,-1
750,751,1580693200242,0.4601,-0.6306,-0.5423,0.6651763,1.1009018,9.121917999999999,-1
751,752,1580693200252,0.4601,-0.6306,-0.5423,0.07483317,0.9002485999999998,9.009678,-1
752,753,1580693200262,-0.1496,-0.8351,-0.6583,-0.20950224,0.8028141,8.840695,-1
753,754,1580693200273,-0.4287,-0.9543,-0.79319996,-0.02828031,0.9071343000000001,8.831588,-1
754,755,1580693200282,-0.25059998,-0.8576,-0.82019997,0.24091415,1.1172016000000002,8.977414,-1
755,756,1580693200292,0.046499997,-0.6044,-0.6016,0.7233745,1.4986266000000001,9.444455,-1
756,757,1580693200302,0.4337,-0.27519998,-0.2082,1.3283893,1.9113295,9.509194,-1
757,758,1580693200312,1.6142,0.4288,-0.24409999,1.942416,2.218927,9.411971000000001,-1
758,759,1580693200322,1.6142,0.4288,-0.24409999,2.2689946,2.4048222999999997,9.344693,-1
759,760,1580693200333,2.1187,0.691,-0.3216,2.4409654,2.4556944,9.349117999999999,-1
760,761,1580693200343,1.8029,0.4026,-0.1068,2.1493900000000004,2.1910586,9.546391,-1
761,762,1580693200353,1.2494999,0.115899995,0.27429998,1.5945958,1.8892359,9.930028,-1
762,763,1580693200363,1.2494999,0.115899995,0.27429998,0.9766619000000001,1.7459093,10.267591,-1
763,764,1580693200373,0.6107,-0.0262,0.617,0.6195906999999999,1.6768893,10.391602,-1
764,765,1580693200384,0.0481,-0.015,0.7575,0.45853752,1.7645457999999998,10.408600999999999,-1
765,766,1580693200393,-0.022599999,-0.0131,1.0148,0.3971502,1.7810849999999998,10.66592,-1
766,767,1580693200403,0.2374,-0.0042,1.214,0.6815047,1.7988308999999998,10.851403,-1
767,768,1580693200413,0.5259,0.19469999,1.1007,1.021692,2.0350618000000003,10.716571,-1
768,769,1580693200423,0.44329998,0.1437,0.83129996,0.9438135,1.9759921000000003,10.459214,-1
769,770,1580693200433,0.3586,0.0337,0.3362,0.9175443000000001,1.8852901000000002,9.8734865,-1
770,771,1580693200444,0.6048,0.0756,-0.0424,1.1970530000000001,1.9936421999999998,9.552233,-1
771,772,1580693200454,0.84489995,0.30089998,-0.079399996,1.3691865,2.2396127999999997,9.564731,-1
772,773,1580693200464,0.84239995,0.49409997,0.0977,1.3646184,2.4095533,9.769511999999999,-1
773,774,1580693200474,0.7028,0.5248,0.53889996,1.1933755,2.4104536,10.287511,-1
774,775,1580693200484,0.5202,0.47689998,1.2057999,0.9727929,2.3199142999999998,11.039013,-1
775,776,1580693200495,0.3416,0.3527,1.5999999,0.8730983,2.2012866,11.241218,-1
776,777,1580693200505,0.2455,0.2153,1.3989999,0.79736495,2.128589,10.904554,d
777,778,1580693200515,0.2342,0.1336,0.8772,0.8494053,2.0814614,10.349692999999998,-1
778,779,1580693200525,0.59389997,0.2014,0.1709,1.5098219,2.3352947,9.49957,-1
779,780,1580693200535,1.347,0.5821,-0.4369,2.2133627000000002,2.7809324,9.005091,-1
780,781,1580693200545,1.8016,0.87149996,-0.5855,2.4867997,2.9942173999999997,9.162533,-1
781,782,1580693200556,1.8151,0.958,-0.0901,2.4403906,3.0066576,9.708353,-1
782,783,1580693200566,1.7005999,0.7014,0.4416,2.2493715,2.6359584,10.1459,-1
783,784,1580693200576,1.3927,0.3676,0.62979996,1.9162233,2.3745406000000004,10.205582000000001,-1
784,785,1580693200586,1.2488999,0.1278,0.7209,1.9584953,2.2474467999999996,10.359845,-1
785,786,1580693200596,1.4706,0.22819999,0.81329995,2.3456283,2.4600422,10.306731,-1
786,787,1580693200606,2.1534998,0.4357,0.5920000000000001,3.1465267999999997,2.6721877999999997,10.053578,-1
787,788,1580693200617,3.0351999,0.6353,0.3996,4.062079,2.881709,9.944374,-1
788,789,1580693200627,3.0351999,0.6353,0.3996,5.13517,2.7616827,10.260945,-1
789,790,1580693200637,4.7367,0.4425,0.9158,5.6301190000000005,2.511556,10.875719,-1
790,791,1580693200647,5.0811996,0.25059998,1.6560999,5.9902067,2.4056172,11.787,-1
791,792,1580693200657,5.4888997,0.17459999,2.6522,6.5495114,2.4529457000000003,12.737191000000001,-1
792,793,1580693200668,6.0460997,0.3028,3.5016,6.9752383,2.6957178,13.273051999999998,-1
793,794,1580693200677,6.4245,0.47739998,3.8109998999999997,7.3250027,2.7697659,13.260363,-1
794,795,1580693200687,6.4245,0.47739998,3.8109998999999997,7.726864999999999,2.7434967,12.657646000000002,-1
795,796,1580693200697,7.2439,0.38149998,2.7131998999999998,8.034596,2.6206164,11.915626,-1
796,797,1580693200707,7.4547,0.1721,2.2598,8.135622,2.3748565,11.533560000000001,-1
797,798,1580693200718,7.5544,-0.16489999,1.8585,8.102764,2.0986998,11.088275999999999,-1
798,799,1580693200727,7.507999999999999,-0.46519998,1.4811,8.017425,1.9019825000000001,10.870768,-1
799,800,1580693200737,7.4322996,-0.912,1.3033,7.906324400000001,1.5257002,10.645607,-1
800,801,1580693200747,7.2121,-1.2586,0.92289996,7.5162897,1.2416521,10.038734,-1
801,802,1580693200757,6.854099799999999,-1.5914999,0.3978,7.1616797000000005,0.94112235,9.440903,-1
802,803,1580693200768,6.4816,-1.9847,-0.19469999,6.7382800000000005,0.7075153000000001,8.7803135,-1
803,804,1580693200778,6.1453,-2.2803,-0.8552,6.324667,0.55980265,8.166354,-1
804,805,1580693200788,5.5959997,-2.4708997999999998,-1.3471,5.484158,0.44161528,7.9013157000000005,-1
805,806,1580693200798,4.7018,-2.7547,-1.3459999999999999,4.617333,0.18746600000000002,7.860844,-1
806,807,1580693200808,3.8204,-3.1259,-1.6344,3.5269847000000003,-0.04852568,6.973103,-1
807,808,1580693200818,2.7110000000000003,-3.4248998,-2.9452999,2.4286972999999996,-0.25741497,5.039986,-1
808,809,1580693200829,1.7745999,-3.8269,-5.0529,1.6311792,-0.5034719,2.2070324,-1
809,810,1580693200839,1.1725,-4.0664,-7.3914,1.0520697,-0.44836694,0.1417942,-1
810,811,1580693200849,0.5789,-4.1584,-9.2212,0.36366963,-0.3977152,-0.9159258,-1
811,812,1580693200859,-0.185,-4.1972,-9.9895,-0.614084,-0.32061234,-0.80356115,-1
812,813,1580693200869,-1.2099,-4.2216,-9.6529,-1.5966069999999999,-0.29305990000000004,-0.14355634,-1
813,814,1580693200879,-2.4431,-4.2271,-8.7347,-2.831182,-0.35430357,0.98300177,-1
814,815,1580693200890,-3.3971,-4.2881,-7.8314,-3.6449997000000005,-0.17539921,1.6734129,-1
815,816,1580693200900,-4.1528997,-4.0337,-7.2124996,-4.1106050000000005,0.10187807,2.0762422,-1
816,817,1580693200910,-4.5243998,-3.7394998,-6.8826,-4.140772,0.28464183,2.2123477000000005,-1
817,818,1580693200920,-4.5063,-3.5985,-6.7697,-4.434866400000001,0.023223756,2.4418175,-1
818,819,1580693200931,-4.917,-3.9041,-6.5508,-5.3388686,-0.7488776,2.4586442,-1
819,820,1580693200941,-5.9586997,-4.6898,-6.6309,-7.069895699999999,-1.5070734,2.2191567,-1
820,821,1580693200952,-10.2289,-5.8536,-7.0743,-10.01348,-2.2294326,2.0316334,-1
821,822,1580693200962,-10.2289,-5.8536,-7.0743,-12.263359,-2.8827338,2.3722997,-1
822,823,1580693200972,-12.427799,-6.4177,-6.7787,-13.995325,-3.2707189999999997,3.105021,-1
823,824,1580693200982,-15.250298999999998,-7.0516996,-5.2078,-15.157701000000001,-3.7517235,4.028962600000001,-1
824,825,1580693200992,-15.2609,-7.5782,-4.2472,-15.188068,-4.41351,5.037755000000001,-1
825,826,1580693201002,-15.2609,-7.5782,-4.2472,-15.117429999999999,-4.8948975,5.828310500000001,-1
826,827,1580693201013,-15.4207,-7.7783,-2.7258,-15.381854999999998,-4.9489584,6.673626400000001,-1
827,828,1580693201023,-15.8516,-7.1787996,-1.6502,-15.828527,-4.5281343000000005,7.801353,-1
828,829,1580693201034,-15.7738,-6.7170997,-0.7374,-15.736485,-4.237785,8.7576065,-1
829,830,1580693201044,-15.277498999999999,-6.4452996,0.0817,-15.075626999999999,-4.120316000000001,9.742227,-1
830,831,1580693201054,-14.5220995,-6.2457,0.5916,-14.229029,-4.1325164,10.263684,-1
831,832,1580693201065,-13.7404995,-6.1815996,1.0261999,-13.102843,-4.2932153,10.887374000000001,-1
832,833,1580693201075,-12.440499,-6.1175,1.6877999,-11.610729,-4.343762,11.662500999999999,-1
833,834,1580693201085,-10.982699,-6.0211,2.5860999,-10.174562,-4.49249,12.774367999999999,-1
834,835,1580693201095,-9.5988,-5.9834,4.1342,-8.777469,-4.671595,14.765089999999999,-1
835,836,1580693201105,-8.397699000000001,-5.8725,6.4512997,-7.755623299999999,-4.714212,17.047376999999997,-1
836,837,1580693201115,-7.8108997,-5.6528997,8.1858,-7.240908599999999,-4.646532499999999,18.256392,-1
837,838,1580693201126,-7.0157,-5.357599700000001,8.6515,-5.937697,-4.5061655,18.394337,-1
838,839,1580693201136,-5.1793,-5.0537,8.2585,-4.0410104,-4.337374,17.70536,-1
839,840,1580693201146,-3.2926,-4.6988,7.4551997000000005,-2.0690596,-4.141787,17.086594,-1
840,841,1580693201156,-1.1996,-4.4374,7.2412,-0.037330396,-4.0998980000000005,17.11767,-1
841,842,1580693201167,0.50659996,-4.1615,7.6861997,1.3788781,-3.8225919999999998,17.962547,-1
842,843,1580693201177,1.9066999,-3.5038998,9.1539,3.0958176,-3.1283693,20.13559,-1
843,844,1580693201187,3.3904998,-2.7493,11.0561,4.227412999999999,-2.4306892999999996,21.613953,-1
844,845,1580693201197,4.2278,-1.8457999,11.9598,4.9493895,-1.6643245,21.498734,-1
845,846,1580693201208,5.1974998,-1.1074,11.2456,6.4434476,-1.3330723999999998,19.997492,-1
846,847,1580693201218,7.0056996,-0.9640000000000001,9.392999999999999,8.283114,-1.3161118,18.08308,-1
847,848,1580693201228,8.8073,-0.9309999999999999,7.6772,9.73219,-1.3293469,17.023588,-1
848,849,1580693201238,9.992499,-0.81009996,7.2756,10.50342,-0.9891501,17.849186,-1
849,850,1580693201248,10.6851,-0.3696,8.9049,11.202183,-0.6039613,20.12133,-1
850,851,1580693201259,11.4143,0.080699995,11.162499,11.869848,0.0017812860999999998,21.760372,-1
851,852,1580693201268,12.151299,0.8441,12.046499,12.647083,0.82995486,21.300331,-1
852,853,1580693201278,12.9648,1.6142,10.8293,13.252069,1.5089695,19.290878,-1
853,854,1580693201288,13.4057,2.0337,8.4119,13.624529999999998,1.6913023999999997,16.44241,-1
854,855,1580693201298,13.7980995,1.885,5.3294,14.016136,1.419982,13.210114,-1
855,856,1580693201308,14.0868,1.4494,2.2368999,14.216052,1.1625477,10.709465,-1
856,857,1580693201318,14.2716,1.0792999,0.3236,14.335761999999999,1.087772,9.739124,-1
857,858,1580693201329,14.2980995,1.0027,-0.0581,14.274404,1.1524825,10.211424000000001,-1
858,859,1580693201339,14.080998999999998,0.9264,0.5219,13.780095999999999,1.0397061,10.731454,-1
859,860,1580693201349,13.5952,0.7463,0.96519995,13.314175,0.9609368,10.707167,-1
860,861,1580693201359,13.0651,0.5535,0.84059995,12.705444,0.67583525,10.408936,-1
861,862,1580693201369,12.374499,0.1642,0.48229998,12.247519500000001,0.40836462,9.427313,-1
862,863,1580693201379,11.9348,-0.1672,-0.6489,12.173519,0.27953740000000005,8.032977,-1
863,864,1580693201390,11.833099,-0.38689998,-2.0040998,12.100344,0.12264059,6.9926205,-1
864,865,1580693201401,11.6806,-0.6206,-2.9171999,11.973517,0.16546807,6.645882,-1
865,866,1580693201411,11.4312,-0.6433,-3.2228,11.457874,0.12020808,6.414478,-1
866,867,1580693201421,10.9873,-0.76659995,-3.3530998,10.860816999999999,-0.013244724,6.2073220000000005,-1
867,868,1580693201432,10.372399,-0.92759997,-3.5528,10.247174000000001,-0.15093048,5.9964886,-1
868,869,1580693201442,9.712299,-1.1148,-3.7522,9.743366,-0.16969144,5.8671637,-1
869,870,1580693201452,9.1729,-1.1869999,-3.8813998999999995,9.259518,-0.36231935,5.267990599999999,-1
870,871,1580693201462,8.615,-1.4431,-4.4591,8.82362,-0.7103691999999999,4.680616400000001,-1
871,872,1580693201473,8.1055,-1.8599999,-5.0445,8.26896,-1.1419193,4.367234,-1
872,873,1580693201483,7.468499700000001,-2.3476999,-5.3357,7.353982000000001,-1.7851552,4.554854,-1
873,874,1580693201496,5.1782,-3.9664,-4.436899700000001,6.0854764,-2.710696,5.2573989999999995,-1
874,875,1580693201506,3.6629,-4.6587996,-3.6692,4.103968,-3.6421745000000003,6.188216000000001,-1
875,876,1580693201517,2.4292998,-5.2074,-3.4912998999999996,2.9764428,-4.141671700000001,6.107857,-1
876,877,1580693201527,1.3893,-5.4834,-3.862,1.9593188999999998,-4.240044999999999,5.428824,-1
877,878,1580693201537,0.74,-5.4,-4.4761,1.5842528,-4.0605564,4.9298720000000005,-1
878,879,1580693201547,0.26369998,-5.2151,-4.8143997,1.0299281,-4.0006056,4.9558635,-1
879,880,1580693201557,-0.78669995,-5.3311,-4.388499700000001,-0.50489885,-4.392757,5.754512,-1
880,881,1580693201567,-2.3587,-5.8104997,-3.6319999999999997,-2.2635549999999998,-5.1376123,6.408972,-1
881,882,1580693201578,-4.1717997,-6.5747,-3.1058,-3.9755528,-5.91183,6.771348,-1
882,883,1580693201588,-5.8485,-7.1689,-2.7791997999999998,-5.541465799999999,-6.373892,6.958335400000001,-1
883,884,1580693201598,-7.311,-7.3697,-2.8148,-6.496082,-6.4245529999999995,6.4415617,-1
884,885,1580693201608,-7.8220997,-7.2098,-3.6797,-6.326975,-6.0315113,5.353454,-1
885,886,1580693201618,-7.3803,-6.5719,-4.6863,-5.7395525,-5.2970467,4.781575,-1
886,887,1580693201628,-7.1541996,-5.8711,-4.7778,-6.173842,-5.0742902999999995,5.460705,-1
887,888,1580693201639,-8.2258,-5.9898,-3.6046,-8.279245,-6.016926,7.618197,-1
888,889,1580693201649,-10.2205,-6.8251995999999995,-1.6880000000000002,-10.295086999999999,-6.988397,9.1273,-1
889,890,1580693201659,-12.2996,-7.6148,-0.3319,-11.81121,-7.5348687000000005,9.823984,-1
890,891,1580693201669,-14.1951,-8.1055,0.4052,-13.429059,-7.810269,10.236505000000001,-1
891,892,1580693201679,-15.4656,-7.9365997,0.5331,-13.689326999999999,-7.4107533,9.904775,-1
892,893,1580693201689,-14.910198999999999,-7.2471,-0.035499997,-11.740274000000001,-6.471709,9.221919,-1
893,894,1580693201700,-13.0667,-6.2332,-0.4558,-10.346322,-5.715055,9.243831,-1
894,895,1580693201710,-11.5675,-5.2453,-0.35439998,-9.313655,-4.967489700000001,9.401301,-1
895,896,1580693201720,-11.0061,-4.5245,-0.21849999,-9.294616,-4.817459599999999,9.700692,-1
896,897,1580693201730,-11.1216,-4.4123,0.1686,-9.672775999999999,-5.029643,10.10695,-1
897,898,1580693201741,-11.7335,-4.5964,0.6493,-10.3857975,-5.4886117,10.692812,-1
898,899,1580693201751,-12.230499,-4.8364997,1.1113,-10.645741000000001,-5.839161,10.752158999999999,-1
899,900,1580693201761,-12.421499,-5.0129,1.1225,-10.527103,-6.0111985,10.848827,-1
900,901,1580693201771,-12.1403,-5.0151,1.3406999,-9.388987,-5.984853,11.688886,-1
901,902,1580693201781,-10.786099,-4.7128997,2.3465,-8.115721,-5.6761349999999995,12.647715,-1
902,903,1580693201791,-9.310599,-4.2084,3.4928,-6.654808,-5.6491194,13.823545000000001,-1
903,904,1580693201801,-8.3164,-4.1091,4.277199700000001,-5.980955000000001,-5.5796294,14.150077,-1
904,905,1580693201812,-7.6057997,-3.8816,4.6201,-5.5486584,-5.428479,14.395253,-1
905,906,1580693201823,-6.115999700000001,-3.0755,5.4131,-4.6097383,-5.070249,14.902814000000001,-1
906,907,1580693201833,-4.7121997,-2.5816998,5.9426,-3.2737644,-4.7183204000000005,15.410260000000001,-1
907,908,1580693201843,-4.7121997,-2.5816998,5.9426,-2.078119,-4.688680000000001,15.228425,-1
908,909,1580693201853,-3.0460000000000003,-2.4029999,5.3693,-1.8534281000000004,-4.877075,14.696856,-1
909,910,1580693201863,-3.0793998,-2.6866999,4.9736,-1.9379338,-5.3802886,14.233147,-1
910,911,1580693201873,-2.9773998,-3.2807998999999994,4.3624,-1.9718933,-6.043319,13.665576000000001,-1
911,912,1580693201883,-2.8829,-3.5584,4.1440997,-1.9460646000000001,-6.299930000000001,13.562837,-1
912,913,1580693201893,-2.1446,-3.4185,4.5062,-1.1282818000000001,-6.1907544,13.976382000000001,-1
913,914,1580693201903,-0.7093,-2.8909,5.0460997,-0.06535213,-5.8151617,14.395434,-1
914,915,1580693201913,0.4883,-2.2335,5.4091997,1.0253313,-5.239145300000001,14.747487,-1
915,916,1580693201924,1.8253,-1.7644,4.9565997,2.225851,-4.853478,14.267546,-1
916,917,1580693201934,3.0263999,-1.2429,3.7851,3.4339172999999996,-4.272223,12.849412,-1
917,918,1580693201944,3.0263999,-1.2429,3.7851,3.9650470999999996,-3.9585252,12.095564999999999,-1
918,919,1580693201954,4.1596,-0.6746,2.1746,3.9571462,-4.090666000000001,11.210409,-1
919,920,1580693201965,3.6072,-1.3335999,1.7047,3.2830157,-4.777581700000001,10.911622,-1
920,921,1580693201975,2.7536,-2.2284,1.5554999,2.3090541,-5.7950025,10.863862,-1
921,922,1580693201985,2.5016,-2.7356,1.9049,2.4367228,-6.020642,11.468696000000001,-1
922,923,1580693201996,3.4401998999999996,-2.4191,2.784,3.3962517,-5.5801754,12.209814999999999,-1
923,924,1580693202006,5.0239,-1.5351,3.5358998999999995,5.1691199999999995,-4.456835,12.848196000000002,-1
924,925,1580693202016,6.3015,-0.55939996,3.4924998,6.2937627,-3.4995089,12.433932,-1
925,926,1580693202026,7.5569,0.3778,2.5455,7.3488493,-2.6644015,11.305507,-1
926,927,1580693202036,8.3276,0.8856,1.4991,7.627629799999999,-2.3826904,10.406216,-1
927,928,1580693202046,8.0058,0.74189997,0.81399995,6.5103517,-2.8571062,9.880382,-1
928,929,1580693202057,6.8054,0.24139999,0.7047,5.486581299999999,-3.171417,10.12164,-1
929,930,1580693202068,5.8052998,-0.114,1.4459,4.5173607,-3.4922209000000004,11.232272,-1
930,931,1580693202078,5.1327,-0.33699998,2.2331998,3.8941786,-3.6282690000000004,11.48784,-1
931,932,1580693202088,4.5899997,-0.4608,1.9880999,3.3338300000000003,-3.6719775,10.576328,-1
932,933,1580693202098,4.062599700000001,-0.5159,0.7412,2.7853281,-3.5957077000000006,9.03815,-1
933,934,1580693202108,3.6998,-0.46499997,-0.7979999999999999,2.7224371,-3.6283072999999995,7.7984032999999995,-1
934,935,1580693202118,3.9629998,-0.64169997,-1.7349,3.4093527999999997,-3.7679082999999998,7.417697,-1
935,936,1580693202129,5.1105,-0.639,-1.7169,4.831997,-3.1958189999999997,8.119292999999999,-1
936,937,1580693202139,6.6011996,0.24,-0.608,6.215443,-2.1280718,9.934894,-1
937,938,1580693202149,7.5292997,0.9938,0.97239995,6.106603,-1.7250990000000002,11.154959,-1
938,939,1580693202159,7.0989,1.2816,2.0131,5.014368,-1.9468306,11.401015,-1
939,940,1580693202169,5.5273,0.8206,2.0324,3.0995717000000003,-2.7282598,10.732803,-1
940,941,1580693202179,4.0653,0.17559999,1.314,2.1591103,-3.2292514,10.075835000000001,-1
941,942,1580693202189,3.2024999,-0.3259,0.7416,1.5033097,-3.6856915999999997,9.974014,-1
942,943,1580693202199,2.6123,-0.7661,0.71889997,1.229911,-3.817047,10.201818,-1
943,944,1580693202209,2.4222999,-0.821,0.9813,1.3663805,-3.6306730000000003,10.478558999999999,-1
944,945,1580693202219,2.6238,-0.58199996,1.2435,1.7136930000000001,-3.1640046,10.594496000000001,-1
945,946,1580693202230,2.9528,-0.1012,1.2987,1.9489089,-2.7496831000000004,10.356675,-1
946,947,1580693202240,3.1536999,0.2667,0.9503,1.8892741000000002,-2.439634,9.767107000000001,-1
947,948,1580693202250,3.02,0.5324,0.3552,1.5270697,-2.4143035,9.324563000000001,-1
948,949,1580693202260,2.5791,0.46539998,-0.0144,0.8897523999999999,-2.6032345,9.216796,-1
949,950,1580693202270,1.9281,0.2563,-0.0692,0.21497057,-2.8873882,9.421145,-1
950,951,1580693202280,1.3519999999999999,0.0122,0.1024,0.012181697,-3.0701709999999998,9.4885845,-1
951,952,1580693202291,1.1222,-0.2138,0.1355,-0.24642082,-3.1954837000000005,9.44004,-1
952,953,1580693202301,0.77199996,-0.3399,0.1407,-0.42589018,-3.1168196,9.497558999999999,-1
953,954,1580693202311,0.6708,-0.2539,0.1637,-0.072266586,-2.8522985,9.424286,-1
954,955,1580693202321,1.0705999,0.0647,0.0685,0.22135831,-2.5258634,9.37171,d
955,956,1580693202331,1.2559,0.3141,0.0321,0.062239666,-2.4849514999999998,9.516502000000001,-1
956,957,1580693202342,1.0681,0.3401,0.163,-0.06666415,-2.5730197,9.663103,-1
957,958,1580693202352,0.9474,0.2394,0.31379998,-0.27163655,-2.6716992999999998,9.691834,-1
958,959,1580693202362,0.70849997,0.1284,0.3369,-0.48949933,-2.7394743,9.47783,-1
959,960,1580693202372,0.47489998,0.037699997,0.105799995,-0.6157408000000001,-2.8703701,9.392491,-1
960,961,1580693202382,0.3439,-0.090799995,0.1797,-0.608223,-2.860161,9.554445,-1
961,962,1580693202392,0.3119,-0.0349,0.32569999,-0.6401138000000001,-2.7975001,9.697178,-1
962,963,1580693202402,0.3119,-0.0349,0.32569999,-0.602927,-2.6346178,9.596936999999999,-1
963,964,1580693202412,0.4662,0.3363,-0.1621,-0.47366884,-2.4116316,9.222331,-1
964,965,1580693202423,0.59389997,0.3119,-0.35369998,-0.3330526,-2.4185076000000003,9.037432,-1
965,966,1580693202433,0.5528,0.3003,-0.3189,-0.3758801,-2.4152324,9.110416,-1
966,967,1580693202443,0.5117,0.254,-0.037699997,-0.3831776,-2.4529650000000003,9.351704,-1
967,968,1580693202453,0.4437,0.1925,0.3234,-0.49102202,-2.5454388,9.771436999999999,-1
968,969,1580693202463,0.20539999,0.1041,0.4604,-0.6819644,-2.6071419999999996,9.863498,-1
969,970,1580693202474,-0.1136,-0.0727,0.28419998,-1.0092806,-2.7839777000000003,9.678646,-1
970,971,1580693202484,-0.36089998,-0.1348,-0.039499998,-1.2817502,-2.8146139999999997,9.287357,-1
971,972,1580693202494,-0.31739998,-0.005,-0.2963,-1.1916229999999999,-2.688114,9.070022,-1
972,973,1580693202504,-0.1525,0.092099994,-0.42700000000000005,-1.044255,-2.5745904,8.964207,-1
973,974,1580693202514,-0.050699997999999996,0.19899999999999998,-0.4012,-0.93606585,-2.4889354999999997,9.036522,-1
974,975,1580693202524,0.0501,0.2401,-0.2864,-0.8492042,-2.3962896000000002,9.138103,-1
975,976,1580693202534,0.1047,0.2952,-0.1996,-0.78005004,-2.4031944,9.230309,-1
976,977,1580693202545,0.0046,0.2068,-0.1214,-0.9700252,-2.4992304,9.326411,-1
977,978,1580693202555,-0.23339999,0.0999,-0.0822,-1.1585254999999999,-2.5981112,9.315178,-1
978,979,1580693202565,-0.46299999999999997,0.0219,-0.09219999599999999,-1.357474,-2.6741414,9.337012,-1
979,980,1580693202575,-0.5187,-0.12459999,0.17199999,-1.4033374,-2.790241,9.646861,-1
980,981,1580693202585,-0.4879,-0.1338,0.3969,-1.3118119,-2.7461683999999997,9.7743,-1
981,982,1580693202595,-0.3757,-0.026899998999999997,0.2981,-1.1432408,-2.657468,9.668571,-1
982,983,1580693202605,-0.1524,0.059899997,0.24849999,-0.93262774,-2.6065865,9.67721,-1
983,984,1580693202616,0.1504,0.1099,0.47419998,-0.6080601999999999,-2.4987135,9.983074,-1
984,985,1580693202626,0.3269,0.25939998,0.6416,-0.5035006,-2.3822113999999996,10.032825,-1
985,986,1580693202636,0.3976,0.3098,0.53429997,-0.44884579999999996,-2.3602326000000002,9.885612,-1
986,987,1580693202646,0.4192,0.3004,0.4856,-0.49629885,-2.3773847000000004,9.916725,-1
987,988,1580693202656,0.2412,0.2521,0.6229,-0.65738076,-2.4361097999999997,10.065769,-1
988,989,1580693202666,0.0394,0.1245,0.80869997,-0.8591065999999999,-2.6249740000000004,10.297385,-1
989,990,1580693202677,-0.087299995,-0.0354,0.9737,-0.94963616,-2.7343888,10.408859,-1
990,991,1580693202687,-0.0783,-0.100999996,0.98069996,-0.8432379000000001,-2.7531597999999997,10.382743,-1
991,992,1580693202697,0.089899994,-0.0901,0.9971,-0.6373748,-2.76356,10.523636999999999,-1
992,993,1580693202707,0.2512,-0.10759999599999999,1.2005,-0.49646166,-2.6746297,10.661638,-1
993,994,1580693202717,0.34899998,0.0139,1.2085999,-0.38416404,-2.5549197,10.545367,-1
994,995,1580693202727,0.5226,0.1384,1.0807999,-0.12332054,-2.4049757,10.581844,-1
995,996,1580693202738,0.81689996,0.3073,1.2981,0.07880754,-2.2635932,10.901183,-1
996,997,1580693202748,0.97059995,0.5001,1.8005999,0.101964265,-2.0764337,11.606333,-1
997,998,1580693202758,0.94299996,0.5855,2.4205,0.14399686,-2.1321418,12.076678,-1
998,999,1580693202769,1.0170000000000001,0.4793,2.705,0.26193523,-2.1660824,12.260123,-1
999,1000,1580693202779,1.0863,0.5028,2.8790998,0.2904071,-2.1020997,12.392627000000001,-1
1000,1001,1580693202789,1.1136999,0.5611,3.0026,0.25420675,-1.9994456999999999,12.512338,-1
1001,1002,1580693202799,0.96819997,0.6774,3.1165,0.099024184,-1.9115881999999997,12.515891,-1
1002,1003,1580693202809,0.9138,0.6996,3.0069999999999997,0.22801419,-1.895231,12.222639,-1
1003,1004,1580693202819,1.1417,0.7387,2.5674999,0.30107567,-1.8270824,11.792937,-1
1004,1005,1580693202829,1.0866,0.79829997,2.3774,-0.16686629,-1.8733863000000002,12.203035,-1
1005,1006,1580693202840,0.6519,0.7341,3.0052998,-0.5066417999999999,-2.1405697,13.471110000000001,-1
1006,1007,1580693202850,0.3618,0.4992,4.3694,-0.6902292,-2.271111,14.872359,-1
1007,1008,1580693202860,0.2599,0.4525,5.7197,-0.5412811,-2.2298062,15.751625,-1
1008,1009,1580693202870,0.43179998,0.4872,6.4563,-0.30302933,-2.145971,16.016262,-1
1009,1010,1580693202880,0.6924,0.60069996,6.6088,0.13715902,-1.9557084999999998,15.706614499999999,-1
1010,1011,1580693202890,1.1566,0.73829997,6.1987,0.56150734,-1.905727,15.241066,-1
1011,1012,1580693202901,1.5677999,0.74759996,5.7177,0.9599504000000001,-1.7693436999999999,14.630162,-1
1012,1013,1580693202911,1.9413999,0.8365,5.0973997,1.0874655,-1.7901447,14.306428,-1
1013,1014,1580693202921,2.0231,0.74009997,4.8666,0.8274265,-1.8828384999999999,14.337264999999999,-1
1014,1015,1580693202931,1.66,0.5476,4.8778996,0.250807,-2.0562842,14.2245655,-1
1015,1016,1580693202941,1.1589,0.33609998,4.7490997,0.06540959,-2.2921417,14.350855,-1
1016,1017,1580693202951,0.9341,0.0093,4.843999999999999,0.036363136000000004,-2.4616416,14.268676000000001,-1
1017,1018,1580693202962,0.87009996,-0.2473,4.740999700000001,-0.18559851,-2.6424422,14.125656,-1
1018,1019,1580693202972,0.63519996,-0.5239,4.5680000000000005,-0.37336138,-2.8032749,14.033660999999999,-1
1019,1020,1580693202982,0.3301,-0.97459996,4.397,-0.41324878,-2.8637908,14.005841,-1
1020,1021,1580693202992,0.1475,-1.099,4.4885,-0.560473,-2.8670373,14.122620999999999,-1
1021,1022,1580693203002,0.1475,-1.099,4.4885,-0.5716779000000001,-2.7825412999999997,14.328876000000001,-1
1022,1023,1580693203012,0.1113,-0.9945,4.2588,-0.52603483,-2.4802396,13.947632999999998,-1
1023,1024,1580693203022,0.1113,-0.9945,4.2588,-0.5717641,-2.15029,12.8552065,-1
1024,1025,1580693203033,0.047,-0.8236,1.6156,-0.47920427,-1.8388044,11.053637,-1
1025,1026,1580693203043,0.17449999,-0.69979995,0.7992,-0.19333658,-1.5477268999999998,10.385549000000001,-1
1026,1027,1580693203053,0.35999998,-0.6785,0.28239998,-0.08908345599999999,-1.4194360000000001,10.057199,-1
1027,1028,1580693203064,0.29729998,-0.78349996,0.0357,-0.15298949,-1.3680085,9.80983,-1
1028,1029,1580693203074,0.2581,-0.8588,-0.0403,-0.12827174,-1.3126355,9.681434,-1
1029,1030,1580693203084,0.2968,-0.9027,-0.4962,-0.11248917,-1.2009315,9.187567999999999,-1
1030,1031,1580693203094,0.3199,-0.8215,-1.0974,-0.11052592,-0.98486924,8.608094,-1
1031,1032,1580693203104,0.27449998,-0.7701,-1.4715999,-0.19455282,-0.88278043,8.308109,-1
1032,1033,1580693203114,-0.0453,-0.8059,-1.5699999,-0.6445383000000001,-0.7952963000000001,8.229216000000001,-1
1033,1034,1580693203125,-0.4603,-0.8314,-1.6577,-0.97938174,-0.78586316,8.094643,-1
1034,1035,1580693203135,-0.8215,-1.063,-1.9504999,-1.3302472,-0.95392656,7.805787,-1
1035,1036,1580693203145,-0.8833,-1.155,-2.0760999,-1.2280531000000001,-0.8604091,7.831481500000001,-1
1036,1037,1580693203155,-0.44219998,-0.9181,-1.6229,-0.6483211,-0.50490844,8.48573,-1
1037,1038,1580693203165,0.2729,-0.45619997,-0.856,-0.024516625,0.03266649,9.168519,-1
1038,1039,1580693203176,0.7224,-0.1072,-0.53,0.324558,0.2849483,9.175184,-1
1039,1040,1580693203186,0.7874,-0.2261,-0.89959997,0.19496463,0.062277973,8.586775999999999,-1
1040,1041,1580693203196,0.5732,-0.6683,-1.7975999,-0.082456306,-0.39991787,7.5745454,-1
1041,1042,1580693203206,0.1662,-1.2622,-2.8219,-0.6281619,-0.88473415,6.7009490000000005,-1
1042,1043,1580693203216,-0.4628,-1.7709999,-3.2865,-1.2120407,-1.1890275,6.4654746,-1
1043,1044,1580693203227,-0.8322,-1.9891,-3.2115998,-1.4929093,-1.2341822,6.66427,-1
1044,1045,1580693203237,-1.1165,-2.0391,-3.0284998,-1.8128129000000002,-1.150615,6.703870299999999,-1
1045,1046,1580693203247,-1.4889,-2.0564,-3.0607,-2.2227097000000002,-1.1467459,6.7178235,-1
1046,1047,1580693203257,-1.8553,-2.0736,-2.9943,-2.5673312999999998,-1.1645302,6.770448,-1
1047,1048,1580693203267,-1.9769,-2.2229,-3.0549,-2.6504388,-1.2154691,6.5526237,-1
1048,1049,1580693203277,-1.9553,-2.2751,-3.497,-2.6207507000000003,-1.2135441,5.835838,-1
1049,1050,1580693203287,-1.8765,-2.3155,-4.1214,-2.6882384,-1.1692898,5.438573,-1
1050,1051,1580693203298,-1.8225,-2.2633997999999997,-4.3988,-2.5213146,-1.0092517,5.2942696,-1
1051,1052,1580693203308,-1.2466999,-2.0577,-4.4191,-1.3441718999999999,-0.44897029999999993,5.2729610000000005,-1
1052,1053,1580693203318,-0.0603,-1.3621,-4.4207997,-0.6049764,0.22471978,5.3488665,-1
1053,1054,1580693203328,0.54969996,-0.7805,-4.1292,-0.19672675,0.6897408,5.802166000000001,-1
1054,1055,1580693203338,0.7335,-0.6586,-3.7208,-0.11656889,0.6961476,6.2055697,-1
1055,1056,1580693203348,0.7193,-0.7043,-3.352,-0.49951667,0.5571786999999999,6.4765167,-1
1056,1057,1580693203358,0.1219,-0.9808,-3.1107,-1.356976,0.2038998,6.6906447,-1
1057,1058,1580693203369,-0.7479,-1.4233999,-2.9377,-2.273515,-0.25994328,6.7086678,-1
1058,1059,1580693203379,-1.6446999,-1.9016998999999999,-2.99,-3.2365009999999996,-0.7777708000000001,6.4814487000000005,-1
1059,1060,1580693203389,-2.3422,-2.3041,-3.2282999,-3.5763052,-0.8285949,6.2487416,-1
1060,1061,1580693203399,-2.6079,-2.3552,-3.3978,-3.5538287000000004,-0.7229244,6.350103,-1
1061,1062,1580693203409,-2.4647,-2.1834,-3.1952999,-3.0901196,-0.09138189,6.5253205,-1
1062,1063,1580693203419,-2.0839999,-1.6436,-3.0911999,-2.6022387000000005,0.4179893,6.5866690000000006,-1
1063,1064,1580693203429,-1.3133999,-1.0416,-2.958,-1.5288701,1.0235021,6.845041999999999,-1
1064,1065,1580693203440,-0.4152,-0.5999,-2.7373,-0.82254237,1.2913078000000002,6.9510570000000005,-1
1065,1066,1580693203450,0.2738,-0.41079998,-2.6641998,-0.47748044,1.348673,6.9010277,-1
1066,1067,1580693203460,0.61719996,-0.4024,-2.758,-0.59402055,1.1954536,6.8609967,-1
1067,1068,1580693203470,0.35889998,-0.5597,-2.705,-1.260959,1.0610527,7.090629600000001,-1
1068,1069,1580693203480,-0.3214,-0.6695,-2.4761999,-1.9877237,1.0667318000000001,7.204325,-1
1069,1070,1580693203490,-0.9932,-0.6563,-2.3753998,-2.3534236,1.0559386999999998,7.3545375,-1
1070,1071,1580693203501,-1.2766,-0.6781,-2.2161999,-2.3269342999999996,1.0763948,7.513818700000001,-1
1071,1072,1580693203511,-1.0943,-0.6864,-2.0379,-1.7246966000000001,1.0467163000000002,7.3957367,-1
1072,1073,1580693203521,-0.6566,-0.72969997,-2.2029,-1.4513747,1.1141753,7.342279400000001,-1
1073,1074,1580693203531,-0.3234,-0.652,-2.2110999,-1.1019074,1.3547063,8.052381,-1
1074,1075,1580693203541,-0.0169,-0.38459998,-1.5437,-1.0879635,1.6329221999999999,8.814991000000001,-1
1075,1076,1580693203552,-0.3356,-0.1029,-0.51339996,-1.414073,1.6946734,9.085737,-1
1076,1077,1580693203562,-0.45139998,-0.033299997000000005,-0.71709996,-1.5476311000000003,1.7596138,8.870307,-1
1077,1078,1580693203572,-0.4042,-0.025999999,-1.3120999,-1.5117181999999998,1.7796580000000002,8.283899,-1
1078,1079,1580693203582,-0.4042,-0.025999999,-1.3120999,-1.5373552,1.7675147,7.660641,-1
1079,1080,1580693203592,-0.3633,-0.25939998,-2.3948998,-1.4437227,1.5874131999999999,7.185181,-1
1080,1081,1580693203602,-0.3057,-0.3621,-2.2091,-1.3582306,1.5028117,7.3816686,-1
1081,1082,1580693203612,-0.32099998,-0.1933,-1.4864998999999999,-1.3411743999999999,1.6680403000000001,8.100035,-1
1082,1083,1580693203623,-0.3163,0.0805,-0.4718,-1.3231508,1.9220747,9.118422500000001,-1
1083,1084,1580693203633,-0.1584,0.2728,0.1794,-1.1554897,2.0922832,9.772672,-1
1084,1085,1580693203643,0.0094,0.26459998,0.0764,-0.98636323,2.06475,9.673466000000001,-1
1085,1086,1580693203653,0.1214,0.0611,-0.1136,-0.8610411,1.8468296999999998,9.496151,-1
1086,1087,1580693203664,0.41509998,-0.022699999,-0.097799994,-0.5283715999999999,1.7549306,9.512651,-1
1087,1088,1580693203674,0.92539996,0.085599996,0.045399997000000004,0.14505988,1.9009673999999999,9.732391,-1
1088,1089,1580693203684,1.1625,0.2464,0.5512,0.32134017,2.0452611000000003,10.287961,-1
1089,1090,1580693203694,1.1141,0.4534,1.1155,0.25744373,2.2345563999999998,10.836377,-1
1090,1091,1580693203704,0.81149995,0.4285,1.5722,-0.057240575999999994,2.151238,11.253036,-1
1091,1092,1580693203714,0.4547,0.3026,1.6671,-0.42574653,2.0162435000000003,11.290365,-1
1092,1093,1580693203724,0.0897,0.0916,1.6163,-0.78766364,1.7624964,11.24387,-1
1093,1094,1580693203735,-0.2566,-0.1361,1.5174999,-1.0436804,1.5901712,11.153666000000001,-1
1094,1095,1580693203745,-0.2916,-0.34239998,1.1259,-0.996122,1.3162076,10.575389999999999,-1
1095,1096,1580693203755,-0.1531,-0.4576,0.7353,-0.860524,1.3242711999999999,10.327504,-1
1096,1097,1580693203765,0.18959999,-0.3784,0.66859996,-0.31431079999999995,1.4464426000000001,10.337358,-1
1097,1098,1580693203775,0.7021,-0.17819999,0.8369,0.11165599,1.684589,10.514501,-1
1098,1099,1580693203785,1.0482,0.067499995,1.0734999,0.37008613,1.9113200000000001,10.752264,-1
1099,1100,1580693203796,1.0346999,0.212,1.3097,0.31285512,2.0767976999999997,10.96144,-1
1100,1101,1580693203806,0.96209997,0.33859998,1.2914,0.23345383,2.1782446,10.80734,-1
1101,1102,1580693203816,0.9784,0.3717,0.9604,0.23033179999999998,2.1828415,10.312526,d
1102,1103,1580693203826,0.8125,0.2879,0.2678,-0.069738306,2.070793,9.692072999999999,-1
1103,1104,1580693203836,0.2865,0.0506,-0.2278,-0.7203291,1.8053718,9.262591,-1
1104,1105,1580693203846,-0.2669,-0.1891,-0.49809998,-1.1738579,1.6020561000000002,9.0186615,-1
1105,1106,1580693203857,-0.6662,-0.4477,-0.68039995,-1.5515577,1.4170035,8.90306,-1
1106,1107,1580693203867,-0.9853,-0.4861,-0.6379,-1.7304236000000002,1.4353048000000002,8.962176,-1
1107,1108,1580693203877,-0.99429995,-0.33159998,-0.3608,-1.7626400000000002,1.7753197,9.326516,-1
1108,1109,1580693203887,-1.1116999,0.014699998999999998,-0.2606,-2.1127392999999994,2.1694436,9.220684,-1
1109,1110,1580693203897,-1.5116999,0.3126,-0.55189997,-2.4493737,2.2859933,8.772019,-1
1110,1111,1580693203907,-1.9370999,0.2792,-1.3708,-3.003191,2.0389214,7.4526710000000005,-1
1111,1112,1580693203917,-2.3421,-0.1416,-2.7071,-3.2995641000000004,1.6539911,6.2629633,-1
1112,1113,1580693203928,-2.7821,-0.6278,-4.1498,-3.9506435,1.2282159,4.727543,-1
1113,1114,1580693203938,-3.383,-0.89739996,-5.1222997,-4.3784204,1.1815386,4.2609129999999995,-1
1114,1115,1580693203948,-3.7926,-0.9054,-5.2837,-4.56807,1.2672893,4.3635283,-1
1115,1116,1580693203958,-4.0062,-0.91029996,-4.9886,-4.720686,1.1963347,4.9180255,-1
1116,1117,1580693203969,-4.1387997,-1.0201,-4.3262997,-4.686516,1.0493306999999998,5.759798,-1
1117,1118,1580693203979,-4.0561,-1.1481,-3.4334998,-4.7174873,0.77767503,6.666942,-1
1118,1119,1580693203989,-4.3210998,-1.4340000000000002,-2.602,-5.452334400000001,0.20852539,7.3457365,-1
1119,1120,1580693203999,-5.0315,-1.9042,-2.2207,-6.2420287000000005,-0.3084115,7.3504963000000005,-1
1120,1121,1580693204010,-6.0888,-2.4657,-2.3459,-7.6451936,-0.9155426999999999,6.637924000000001,-1
1121,1122,1580693204020,-7.2293,-2.9721,-3.1920998,-8.743433,-1.6921165,5.095685,-1
1122,1123,1580693204030,-8.2109995,-3.7652,-4.9648,-9.047085000000001,-2.3354769,3.1524742000000003,-1
1123,1124,1580693204040,-8.2996,-4.549299700000001,-7.4198,-8.155915,-2.915247,0.7559931,-1
1124,1125,1580693204050,-7.2843,-4.9628997,-9.07,-6.904705,-3.0269413,0.054827217000000004,-1
1125,1126,1580693204060,-6.1735,-5.027,-9.5378,-6.0774989999999995,-2.8049798,0.51787543,-1
1126,1127,1580693204071,-5.500099700000001,-4.7476997,-8.8069,-5.6033797,-1.8184345000000002,2.657181,-1
1127,1128,1580693204081,-5.2030997,-3.7872,-6.9480996,-5.6219019999999995,-1.357273,4.640374700000001,-1
1128,1129,1580693204091,-5.2288,-3.2136998,-4.9899,-5.791612000000001,-1.5634042,5.6827335,-1
1129,1130,1580693204101,-5.361799700000001,-3.2893999,-3.9657998,-5.6494349999999995,-2.1560072999999997,5.54816,-1
1130,1131,1580693204111,-5.2015,-3.7447,-4.125,-4.391483,-2.9240482000000005,4.8424644,-1
1131,1132,1580693204122,-3.9587,-4.4031,-4.8487,-2.51848,-3.8069053,4.2511544,-1
1132,1133,1580693204131,-2.1334999,-5.2033,-5.4614997,-1.2936829,-4.0657663,4.9878116,-1
1133,1134,1580693204141,-0.7542,-5.2716,-4.4077997,-0.22986251,-3.2833316,7.125622999999999,-1
1134,1135,1580693204151,0.13679999,-4.2289,-2.0140998,0.387401,-1.8891592000000001,11.001395,-1
1135,1136,1580693204161,0.5645,-2.8885,1.24,0.7984758000000001,-1.3222889,13.038047,-1
1136,1137,1580693204171,1.0828,-2.0382,3.5839,1.855334,-1.296556,13.80194,-1
1137,1138,1580693204182,2.065,-1.8754,4.0116,3.6362562000000005,-1.6991554,13.033201,-1
1138,1139,1580693204191,3.8746998,-2.1117,3.2287998,5.802166000000001,-2.2008843,12.514004,-1
1139,1140,1580693204201,6.0344,-2.4773998,2.7042,7.7641086999999995,-2.1516787999999996,13.141438,-1
1140,1141,1580693204211,7.9914,-2.3005,3.3286,9.462757,-1.7299448,14.893907999999998,-1
1141,1142,1580693204221,9.675,-1.7372999,5.0822997,9.773093,-1.0989673,16.50013,-1
1142,1143,1580693204231,9.9528,-0.76519996,6.986000000000001,9.551926,-0.1494269,17.127792000000003,-1
1143,1144,1580693204241,9.8327,0.1584,7.3244996,9.541364,0.25524107,15.906569000000001,-1
1144,1145,1580693204252,9.9149,0.68329996,6.107199700000001,9.938514,0.06634811,14.579741,-1
1145,1146,1580693204262,10.4016,0.6076,4.7935,10.7983,-0.41691673,14.050220000000001,-1
1146,1147,1580693204272,12.3403,-0.115399994,5.0264997000000005,11.785871,-0.87651724,14.796281,-1
1147,1148,1580693204282,12.3403,-0.115399994,5.0264997000000005,12.171049,-0.94544154,16.554163,-1
1148,1149,1580693204293,12.7155,-0.070999995,6.7907,11.930105000000001,-1.0703326000000002,18.03377,-1
1149,1150,1580693204303,12.3897,-0.3759,8.4915,11.802495,-1.4377373,18.107623999999998,-1
1150,1151,1580693204313,12.469999000000001,-0.41869998,7.558399700000001,11.870251,-1.4763223,17.302398999999998,-1
1151,1152,1580693204323,12.968599000000001,-0.12719999,6.4579997,12.307632,-1.218505,16.190464000000002,-1
1152,1153,1580693204334,13.594000000000001,0.39479998,5.1022,12.937538,-0.6016725,14.523917,-1
1153,1154,1580693204344,13.594000000000001,0.39479998,5.1022,13.106731,-0.24328920000000004,13.327438,-1
1154,1155,1580693204354,13.7498,0.9824,2.3384,12.81167,-0.17582060000000002,11.835717,-1
1155,1156,1580693204364,13.2671995,0.6773,1.4501,12.22531,-0.55637413,11.020127,-1
1156,1157,1580693204374,12.4871,-0.115499996,0.78669995,11.372123,-1.4725202,10.351857,-1
1157,1158,1580693204384,11.4403,-1.1909,0.06359999599999999,10.233009,-2.5182884,9.6484995,-1
1158,1159,1580693204395,10.253799,-2.1273,-0.24859999,9.2874155,-3.2614677000000003,9.457028999999999,-1
1159,1160,1580693204405,9.1159,-2.8051999,-0.27699998,7.732946000000001,-4.1642345999999995,9.2594795,-1
1160,1161,1580693204415,8.0162,-3.1885,-0.92329997,6.8372655,-4.3548903,8.60003,-1
1161,1162,1580693204425,7.1059,-3.1115,-1.9420998999999999,6.028935,-4.2049556,7.5680523,-1
1162,1163,1580693204435,6.8926,-2.6088998,-2.6267998,6.0326796,-3.6594894,6.97318,-1
1163,1164,1580693204445,7.2802997000000005,-2.4191,-2.6833,6.4974327,-3.6788442000000003,7.1048990000000005,-1
1164,1165,1580693204456,7.562999700000001,-2.6273,-2.4052,6.711253999999999,-4.0563910000000005,7.407899400000001,-1
1165,1166,1580693204466,7.8111997,-3.0863,-2.1257,6.931012599999999,-4.633632700000001,7.6313070000000005,-1
1166,1167,1580693204476,7.697499799999999,-3.7803998,-2.0022,6.451167,-5.4906135,7.7035356,-1
1167,1168,1580693204486,6.5283,-4.4504,-1.8398999,4.9954730000000005,-5.967835,7.995446,-1
1168,1169,1580693204496,4.8054,-4.5713,-1.2966,3.3926988,-6.08427,8.700261,-1
1169,1170,1580693204506,3.3253,-4.6057,-0.4895,2.124174,-6.1862535,9.4473095,-1
1170,1171,1580693204517,1.9834,-4.7802997000000005,0.0332,0.9206089,-6.6284336999999995,9.694956,-1
1171,1172,1580693204527,0.8696,-5.4396996,-0.1002,0.19165106,-7.289032499999999,9.506484,-1
1172,1173,1580693204537,-0.0089,-6.3062997,-0.21249999,-0.9617508,-8.504511,9.666551,-1
1173,1174,1580693204547,-0.9086,-6.9995,0.20709999,-1.7840058999999997,-9.027797,10.187510000000001,-1
1174,1175,1580693204557,-1.7802,-7.2233,0.72789997,-2.6774359,-8.860682,10.485291499999999,-1
1175,1176,1580693204568,-2.8597,-6.5702,0.8779,-3.5790634,-7.769309,10.597828,-1
1176,1177,1580693204578,-3.5528998,-5.3682,1.1271,-3.9624612,-6.8812804000000005,10.975222,-1
1177,1178,1580693204588,-3.9959998,-4.5801,1.5138999,-4.4295697,-6.4864955,11.199108,-1
1178,1179,1580693204598,-4.7476997,-4.345,1.6851,-5.555467,-6.6602573000000005,11.391850999999999,-1
1179,1180,1580693204608,-6.0551,-4.6739999999999995,1.9442999,-6.5289397000000005,-7.0899589999999995,11.676503,-1
1180,1181,1580693204619,-7.0783,-5.0,2.4383,-7.2551594,-7.313501,12.392656,-1
1181,1182,1580693204629,-7.5992,-5.0199,3.0591998,-8.067215,-7.4133195999999995,12.631032000000001,-1
1182,1183,1580693204639,-8.5522995,-5.0792,3.0412998,-9.087643,-7.355514,12.378158,-1
1183,1184,1580693204649,-9.9772,-4.8606997000000005,2.7772,-10.298189,-7.0221553,12.322227999999999,-1
1184,1185,1580693204659,-11.019299499999999,-4.4266,2.8764,-10.989041,-6.5831539999999995,12.471924000000001,-1
1185,1186,1580693204669,-11.7058,-3.9803998,3.0056,-11.784098,-6.041308,12.650588,-1
1186,1187,1580693204680,-12.390699,-3.4645998,3.2231998,-11.737622,-5.645537,13.033536,-1
1187,1188,1580693204690,-12.1888,-3.0783,3.6266,-11.117896,-5.3824625,13.293652,-1
1188,1189,1580693204700,-11.5997,-2.7851,3.872,-10.45952,-5.1489415,13.550348000000001,-1
1189,1190,1580693204710,-10.9569,-2.5177999,4.174299700000001,-10.0997095,-4.781412,13.903129000000002,-1
1190,1191,1580693204721,-10.802899,-2.1204,4.4944,-10.326067,-4.384128,13.924189000000002,-1
1191,1192,1580693204730,-11.0589,-1.7235999,4.4391,-10.415199000000001,-4.002042299999999,13.626876999999999,-1
1192,1193,1580693204740,-11.1146,-1.3658999,4.1356997,-10.415016,-3.7269769999999998,13.535639000000002,-1
1193,1194,1580693204750,-11.1705,-1.1391,4.0954,-10.671675,-3.815285,13.490167999999999,-1
1194,1195,1580693204760,-11.4477,-1.3143,4.0148997,-10.7332535,-4.0922556000000005,13.321903,-1
1195,1196,1580693204770,-11.4269,-1.6004,3.8344,-10.442924,-4.344969,13.080691999999999,-1
1196,1197,1580693204781,-11.0085,-1.8253,3.5338,-9.396974,-4.2827096,12.4833765,-1
1197,1198,1580693204791,-9.7939,-1.7361,2.9071,-7.840167999999999,-3.819336,12.360641000000001,-1
1198,1199,1580693204801,-8.2126,-1.2174,2.9466,-6.5839205000000005,-3.2914239999999997,12.855723,-1
1199,1200,1580693204811,-7.0642996,-0.7714,3.4872,-6.034279,-2.9991397999999996,13.428264000000002,-1
1200,1201,1580693204822,-6.5824,-0.53819996,4.0477,-5.847244,-2.9471092,13.905619,-1
1201,1202,1580693204832,-6.2755,-0.8240000000000001,4.2233,-5.765793,-3.1837614,13.739892999999999,-1
1202,1203,1580693204842,-6.2755,-0.8240000000000001,4.2233,-5.6408059999999995,-3.5422692000000002,13.243669500000001,-1
1203,1204,1580693204852,-5.6987,-1.8607,2.6583,-5.242545,-4.0873237,12.203563,-1
1204,1205,1580693204862,-4.6949,-2.2191,2.0992,-4.253644,-4.3581843000000005,11.6703825,-1
1205,1206,1580693204872,-4.6949,-2.2191,2.0992,-2.6573627,-4.1217046,12.095239999999999,-1
1206,1207,1580693204883,-1.6351,-1.5608,3.5296998,-1.0319393,-3.4689970000000003,13.409838,-1
1207,1208,1580693204892,-0.8807,-1.2228,5.0589,-0.5050712,-3.1795096000000003,14.663423000000002,-1
1208,1209,1580693204902,-0.35959998,-1.0701,6.304199700000001,-0.0071155676,-2.994792,15.925837,-1
1209,1210,1580693204912,-0.2649,-1.0618,6.6935997,0.07789774,-2.9285972,16.321465,-1
1210,1211,1580693204922,-0.2649,-1.0618,6.6935997,0.2055949,-3.1898522000000002,16.222229000000002,-1
1211,1212,1580693204932,0.06359999599999999,-2.1203,6.3532,0.37497032,-3.7887763999999997,16.026049,-1
1212,1213,1580693204942,-0.0103,-2.7670999,6.3616,0.30611306,-4.306432,16.059414,-1
1213,1214,1580693204953,0.24039999,-3.1641998,5.9575996,0.59487295,-4.539186,15.542468,-1
1214,1215,1580693204963,0.5466,-2.9471,5.3577,0.8445882,-4.191433,15.084572,-1
1215,1216,1580693204973,0.5466,-2.9471,5.3577,1.2583828000000001,-3.7613962,14.893553,-1
1216,1217,1580693204983,1.1459,-2.5779,5.1028,2.2474754,-3.197236,14.482057000000001,-1
1217,1218,1580693204993,2.4101999,-2.1415,4.0899997,2.6382859,-2.8666255,13.749345000000002,-1
1218,1219,1580693205003,2.3697,-2.2628,3.6757998,2.4217157000000005,-2.822237,13.294016000000001,-1
1219,1220,1580693205014,1.9596,-2.3423,2.8820999,2.0345926,-2.6980642999999995,12.476913,-1
1220,1221,1580693205024,1.9596,-2.3423,2.8820999,1.9042810000000001,-2.5290432000000003,11.619943,-1
1221,1222,1580693205034,1.9405999,-2.4977999,1.0007,2.0777457,-2.5729337,10.709465,-1
1222,1223,1580693205044,1.8104,-3.0442,0.6788,1.8108592000000001,-2.9320257,10.510814,-1
1223,1224,1580693205054,1.2324,-3.4211998,0.76269996,1.2536326999999998,-3.0986523999999998,10.565095,-1
1224,1225,1580693205064,0.8972,-3.6896,0.5071,1.0377811,-3.1057490000000003,10.186294,-1
1225,1226,1580693205075,1.0745,-3.3997998,-0.1369,1.2766075000000001,-2.473622,9.514653,-1
1226,1227,1580693205085,1.5202999,-2.5286999,-0.72859997,1.9795068999999998,-1.1999068000000002,8.852542,-1
1227,1228,1580693205095,2.3536,-1.8589,-1.327,2.7991759999999997,-0.5088541,8.04899,-1
1228,1229,1580693205105,2.9764,-1.5789,-2.2753,3.197964,-0.23770592,7.232634,-1
1229,1230,1580693205115,3.3337998,-1.6718,-3.3771,3.5512523999999996,-0.21158996,5.906073999999999,-1
1230,1231,1580693205126,3.5152,-1.8153,-4.3083,3.701589,-0.071787745,5.0535755,-1
1231,1232,1580693205136,3.5175,-1.8499,-4.9712,3.6053803,0.09941683,4.4580708,-1
1232,1233,1580693205146,3.1796,-1.7311,-5.3571,3.1969776000000003,0.43108082,4.1759667,-1
1233,1234,1580693205156,2.7352998,-1.6494,-5.4481997,2.8474145,0.58640707,4.1162267,-1
1234,1235,1580693205166,2.3792999,-1.6804999,-5.3146,2.4903432999999997,0.69281495,4.298588,-1
1235,1236,1580693205177,2.0955,-1.7677,-5.1819997,2.1154304,0.64077455,4.0866823,-1
1236,1237,1580693205187,1.7852,-2.0355,-5.6475,1.9138863999999998,0.54064906,3.5160959000000003,-1
1237,1238,1580693205197,1.6872,-2.2533998,-6.4544997,1.8686936,0.48553452,2.6457078,-1
1238,1239,1580693205207,1.8733,-2.3906999,-7.3093,2.4231333999999998,0.45996445,1.3989991000000002,-1
1239,1240,1580693205217,2.4786,-2.592,-8.359799,2.894561,0.4112281,0.5162282,-1
1240,1241,1580693205227,2.9257,-2.5558,-8.9122,3.1959049999999998,0.88443726,0.5854206,-1
1241,1242,1580693205238,3.0593998,-2.0372,-8.3527,3.0708797000000003,1.3866545,1.3198563,-1
1242,1243,1580693205248,2.6509,-1.5538,-7.4670997,2.2640815,2.0105164,2.0358663,-1
1243,1244,1580693205258,1.8936,-1.1738,-7.2430997,1.5689013,2.2713888,1.6323763,-1
1244,1245,1580693205269,1.4327999,-1.0454,-8.0202,1.4165341999999999,2.3212072999999998,0.120322995,-1
1245,1246,1580693205279,1.4832,-1.0862,-9.364699,1.5512224,2.3380625,-1.0254462,-1
1246,1247,1580693205289,1.7774999,-1.1445,-10.731299,1.9803591,2.3184779,-2.25393,-1
1247,1248,1580693205299,2.2812,-1.1197,-11.8166,2.41551,2.5999496,-3.1766365000000003,-1
1248,1249,1580693205309,2.6474,-0.8509,-12.4699,2.4522470000000003,2.7465707999999998,-3.0839713,-1
1249,1250,1580693205320,2.4731,-0.8038,-12.043699,2.1060262,2.780942,-2.0968323,-1
1250,1251,1580693205330,2.154,-0.78859997,-11.0201,2.0232728,2.583966,-1.2568601000000001,-1
1251,1252,1580693205340,2.1049,-0.99869996,-10.3081,2.1262426,2.222614,-0.8402210999999999,-1
1252,1253,1580693205350,2.23,-1.3134999,-9.894899,2.4836588,1.8800421000000003,-0.24554934,-1
1253,1254,1580693205360,2.5572,-1.5874,-9.279799,2.5743032,1.5375946000000003,0.54473835,-1
1254,1255,1580693205371,2.541,-1.8989999,-8.5309,2.338752,0.96572524,1.1793358,-1
1255,1256,1580693205381,2.2244,-2.4290000000000003,-7.9898,1.8396758999999998,0.20684946,1.548876,-1
1256,1257,1580693205391,1.6373999,-3.1341,-7.7328,0.8645654,-0.6615274999999999,1.36232,-1
1257,1258,1580693205401,0.62259996,-3.9006998999999998,-8.0429,-0.09985736,-1.5165064,0.7690751,-1
1258,1259,1580693205412,-0.1556,-4.5215,-8.5676,-0.604105,-2.0707452,0.07716033,-1
1259,1260,1580693205422,-1.1417,-5.1605,-10.0539,-1.0695568000000002,-2.3327665,-0.6739774000000001,-1
1260,1261,1580693205432,-0.9106,-4.8903,-10.312999999999999,-0.84120756,-2.1758217999999996,-0.9073353999999999,-1
1261,1262,1580693205442,-0.2956,-4.5787997,-9.7722,-0.20513521,-1.9939293999999999,-0.31639853,-1
1262,1263,1580693205453,-0.2956,-4.5787997,-9.7722,0.06376238,-2.1346703,0.378485,-1
1263,1264,1580693205463,-0.096999995,-4.8985,-7.5284996,0.071251445,-2.6372132,2.0158412,-1
1264,1265,1580693205473,-0.6623,-5.0845,-5.6851997,-0.47116932,-2.9995036,3.9022424,-1
1265,1266,1580693205483,-1.1768,-5.2876997,-4.3092,-1.0358657,-3.4314177000000003,5.453436,-1
1266,1267,1580693205493,-1.5935999,-5.1714997,-3.9778998,-1.3363955,-3.3980617999999994,5.6756754,-1
1267,1268,1580693205503,-1.7366999,-4.6587996,-4.211,-1.3825653,-3.09577,5.4766026,-1
1268,1269,1580693205514,-1.3572999,-3.9819,-4.6068,-0.94552773,-2.5919247000000003,5.1037099999999995,-1
1269,1270,1580693205524,-0.7309,-3.3881,-4.362,-0.17424041,-2.1239060000000003,5.5250699999999995,-1
1270,1271,1580693205534,-0.3574,-3.2549,-3.3804,0.37784332,-2.306296,6.680273,-1
1271,1272,1580693205544,0.4526,-3.6669998,-1.5843999,1.2489688,-3.042293,8.605929,-1
1272,1273,1580693205554,0.8344,-4.2929997,0.60469997,1.2106712,-4.132574,11.468867999999999,-1
1273,1274,1580693205565,-0.2183,-4.8501,3.3562,-0.26389850000000004,-4.7974440000000005,13.991532999999999,-1
1274,1275,1580693205575,-1.68,-4.773,4.7323,-1.5248958000000001,-4.844169,14.566065,-1
1275,1276,1580693205585,-2.1848,-4.2194,4.5585,-1.7073243999999999,-4.470405599999999,14.282629,-1
1276,1277,1580693205595,-1.5594,-3.0519,4.2957997,-0.73975086,-3.4031086000000004,14.219048499999998,-1
1277,1278,1580693205605,-0.1866,-2.0792,4.9533,0.87515736,-2.8503067000000004,15.03846,-1
1278,1279,1580693205616,1.7576,-1.5342,5.6370997,2.748122,-2.7059362,15.551901999999998,-1
1279,1280,1580693205626,3.0625,-1.3302,6.218,3.2403223999999997,-3.1308017,16.651777,-1
1280,1281,1580693205637,2.5111,-1.8517,7.4803996,2.2574546000000004,-3.942101,17.503845000000002,-1
1281,1282,1580693205647,0.91999996,-2.7296,8.237599000000001,0.23650882,-5.2179804,18.25798,-1
1282,1283,1580693205657,-0.8215,-3.4294998999999997,8.9901,-1.2985672,-5.9169339999999995,19.18945,-1
1283,1284,1580693205667,-1.9425999,-3.7872,10.0925,-1.6718328000000002,-6.188465,20.048298000000003,-1
1284,1285,1580693205677,-1.7250999,-3.5335,11.24,-0.7824443,-5.889812999999999,21.28612,-1
1285,1286,1580693205687,-0.6101,-2.9673,12.144999499999999,0.27910644,-5.4850874,21.715984,-1
1286,1287,1580693205698,0.3067,-2.2526999,12.2722,0.9261251,-4.8951945,21.186272,-1
1287,1288,1580693205708,0.9169,-1.5655999,11.5875,1.2227858,-4.42165,20.481506,-1
1288,1289,1580693205718,0.89879996,-0.9436,10.9134,0.9312007999999999,-4.013343,19.769547,-1
1289,1290,1580693205728,0.5362,-0.4173,9.8489,0.5954188,-3.5861502,18.455704,-1
1290,1291,1580693205738,0.2627,0.0359,9.0731,0.36593935,-3.3022745000000002,18.135407999999998,-1
1291,1292,1580693205749,0.27249998,0.34289998,8.8793,0.7216411,-2.9248142,17.730137,-1
1292,1293,1580693205758,0.79359996,0.79999995,8.3914995,1.0584381999999999,-2.7941196,17.381864999999998,-1
1293,1294,1580693205768,0.99729997,0.8578,8.2786,1.0513801999999999,-2.8531606,17.34692,-1
1294,1295,1580693205778,1.0742999,0.9605,8.1164,1.0652473,-2.7425294,16.733373999999998,-1
1295,1296,1580693205788,1.0820999,1.1345,7.3107996,1.0110043,-2.7266223,15.721123,-1
1296,1297,1580693205798,1.0497,1.1502,6.3104997,0.7636736999999999,-2.808293,14.891522,-1
1297,1298,1580693205809,0.66969997,1.0501,5.6949,0.23835714,-2.9581895,14.469492,-1
1298,1299,1580693205819,0.105399996,0.958,5.4467,-0.22892399,-2.9708786,14.524635,-1
1299,1300,1580693205829,-0.21869999,1.0151,5.5874,-0.29962954,-2.932313,14.498692000000002,-1
1300,1301,1580693205839,-0.1721,0.9966,5.4210997,-0.119317435,-2.9288845,13.771247,-1
1301,1302,1580693205849,0.060099997,1.0101,4.5557,0.20417751,-2.9040133999999997,12.906136,-1
1302,1303,1580693205859,0.6762,1.0203999,3.4048,1.1071459,-2.7807696,11.74832,-1
1303,1304,1580693205870,1.4071,1.1779,2.7052999,1.7228580000000002,-2.5297806,11.3472805,-1
1304,1305,1580693205880,2.0237,1.4352,2.2421,1.8702450000000002,-2.4081932999999998,11.076976,-1
1305,1306,1580693205890,2.0572999,1.4758999,2.0528,1.3929657,-2.4432924,11.025912,-1
1306,1307,1580693205900,1.5257,1.4280000000000002,2.01,0.7748403,-2.5949795,10.969189,-1
1307,1308,1580693205910,0.88369995,1.2305,1.9657999,0.05020162,-2.801484,11.145814,-1
1308,1309,1580693205921,0.1955,1.0196999,2.1455998,-0.41869799999999996,-3.0235415,11.087223,-1
1309,1310,1580693205931,-0.2355,0.76519996,1.9900999,-0.6208452,-3.2662560000000003,10.664579,-1
1310,1311,1580693205941,-0.38239998,0.5155,1.5483999,-0.5688526999999999,-3.4168800999999998,10.369431500000001,-1
1311,1312,1580693205951,-0.2548,0.3715,1.2728,-0.098669834,-3.3840702000000005,10.099259,d
1312,1313,1580693205961,0.17189999,0.38259998,1.0359,0.574867,-3.082506,9.804371000000002,-1
1313,1314,1580693205971,0.8444,0.6558,0.7295,0.93803865,-2.8683877,9.377322,-1
1314,1315,1580693205982,1.23,0.85819995,0.1574,0.6837840000000001,-2.937331,8.921705000000001,-1
1315,1316,1580693205992,0.4802,0.475,-0.0431,0.20921493,-3.1648664,9.078698,-1
1316,1317,1580693206002,0.023899998999999998,0.22659999,0.40809998,-0.25194663,-3.3901896000000002,9.530128999999999,-1
1317,1318,1580693206013,-0.3523,-0.0084999995,0.6845,-0.61422765,-3.6017318,9.809619,-1
1318,1319,1580693206023,-0.5636,-0.2523,0.8046,-0.82741696,-3.8308473,9.948665,-1
