,Seq,Time,ACCx,ACCy,ACCz,ADGx,ADGy,ADGz,Keydown
0,1,1583237600259,0.59139997,-0.4355,-0.71419996,9.416424000000001,1.0310965,3.2493818,-1
1,2,1583237600270,0.59139997,-0.4355,-0.71419996,2.9962957,10.308714,2.5548048,-1
2,3,1583237600280,0.3333,1.1645,0.2825,2.8714044,10.370705000000001,2.4274907000000003,-1
3,4,1583237600290,0.106,1.12,0.0578,2.2288964,10.224285,1.9536878,-1
4,5,1583237600300,-0.5117,1.0119,-0.32729998,1.6650428,10.168731,1.8695267,-1
5,6,1583237600311,-0.9727,0.9501,-0.3392,1.3759379999999999,10.134426,1.9562542,-1
6,7,1583237600321,-1.1338,0.9274,-0.21899999999999997,1.5999108999999998,10.362699000000001,2.304352,-1
7,8,1583237600331,-0.79359996,1.2013,0.1953,1.9556319,10.694621000000001,2.810448,-1
8,9,1583237600341,-0.3258,1.5962,0.8903,2.2472265,11.125415,3.6809702000000004,-1
9,10,1583237600351,-0.0883,1.9045,1.5064,2.2821243,11.101397,4.1548405,-1
10,11,1583237600361,-0.0871,1.7803999,1.9224999,1.8308653000000001,10.71049,4.647768,-1
11,12,1583237600371,-0.5155,1.3585,2.3638,1.2483368000000001,10.20925,5.1007123,-1
12,13,1583237600381,-1.0241,0.8477,2.6980999,0.7234703,9.855741499999999,5.3231053,-1
13,14,1583237600391,-1.5659999999999998,0.4357,2.8655999,-0.1478276,9.457001,5.614163400000001,-1
14,15,1583237600402,-2.2206,0.1437,3.0511,-0.94909984,9.184981,6.1322017,-1
15,16,1583237600411,-2.8249,-0.12459999,3.4989998,-1.2234658,8.912502,6.7446384,-1
16,17,1583237600421,-2.8314,-0.3506,3.971,-1.0757818000000001,8.74509,7.3194194,-1
17,18,1583237600432,-2.52,-0.5004,4.4537,-0.7874338000000001,8.669874,7.834757000000001,-1
18,19,1583237600442,-2.1018999,-0.6899,4.9075,-0.74017227,8.167005,8.084826,-1
19,20,1583237600452,-2.1025,-1.1423,4.8624997,-1.399794,7.6029789999999995,7.961515400000001,-1
20,21,1583237600462,-2.7335,-1.6779,4.6187,-2.3848453,7.038905000000001,7.782984700000001,-1
21,22,1583237600472,-3.5769,-2.2238,4.2741,-3.3979661,6.4002085,7.5075746,-1
22,23,1583237600482,-4.3757997,-2.8063,3.8753998,-4.3180676,5.684687,7.629459,-1
23,24,1583237600493,-4.9175,-3.345,3.8279,-4.854139,4.952473,7.955559,-1
24,25,1583237600503,-5.236399700000001,-4.0074,3.9541998,-5.0657864,4.3906116,8.109832,-1
25,26,1583237600513,-5.2502,-4.6005,3.9231,-5.3318205,3.7102752,7.9633636,-1
26,27,1583237600523,-5.2527,-5.1653,3.5054,-5.4592967,3.04915,7.265033,-1
27,28,1583237600533,-5.1073,-5.6291,2.6856,-5.7578062999999995,2.4521412999999996,6.4856434,-1
28,29,1583237600543,-5.0906997,-6.0843997000000005,1.6994,-6.0340395,1.9176885,5.780944,-1
29,30,1583237600554,-4.9467998,-6.4144998,0.7008,-5.954744,1.441568,5.3827972,-1
30,31,1583237600564,-3.9984998999999997,-6.361399700000001,-0.2523,-6.2413106,0.5944037,5.173889,-1
31,32,1583237600574,-4.4673,-8.048699000000001,-0.6917,-6.842647599999999,-0.56579775,4.9425324999999996,-1
32,33,1583237600584,-4.4673,-8.048699000000001,-0.6917,-6.910728999999999,-1.2311847,4.8311443,-1
33,34,1583237600594,-4.548,-8.9389,-0.7543,-6.4410157,-2.0877345000000003,4.482060400000001,-1
34,35,1583237600604,-4.0467,-9.8288,-1.0195,-5.465455,-2.7216806,3.9293637,-1
35,36,1583237600615,-3.0753,-10.5414,-1.4892,-4.0219336000000006,-2.9722579,3.1263103,-1
36,37,1583237600625,-0.3093,-11.342199,-3.0321999,-2.3210156000000004,-3.4233255,2.0191738999999997,-1
37,38,1583237600635,0.6182,-11.7206,-3.6155,-1.3975242,-3.6788344,1.4142358,-1
38,39,1583237600645,0.6182,-11.7206,-3.6155,-0.89207953,-3.7924345,1.2088898000000001,-1
39,40,1583237600655,1.7330999,-12.2146,-3.6046998999999995,-0.014211981,-3.9917376000000004,1.4182006,-1
40,41,1583237600665,2.4011,-12.5132,-3.0742998,0.8938033999999999,-4.256469200000001,1.8659163,-1
41,42,1583237600675,2.4011,-12.5132,-3.0742998,2.7809992,-4.386455000000001,2.080389,-1
42,43,1583237600685,5.6366997,-12.6484995,-3.0026999,4.6935644,-4.096929,1.5392035,-1
43,44,1583237600695,6.6092,-12.615999,-3.8525,5.624994999999999,-4.176522,0.4148577,-1
44,45,1583237600705,7.0123997000000005,-13.038899,-5.2239,6.211536,-4.5599775000000005,-1.1038419,-1
45,46,1583237600715,7.2384,-13.4093,-6.4632998,6.536535,-4.797204499999999,-2.055968,-1
46,47,1583237600726,7.3455997,-13.2967,-7.0771,6.931386,-4.5766125,-2.6190841000000002,-1
47,48,1583237600736,7.982599700000001,-12.979199000000001,-7.1839,7.9942779999999996,-4.2503785999999995,-2.5135767,-1
48,49,1583237600746,9.4801,-12.5612,-6.6798997,9.901182,-3.8480282,-1.9534675,-1
49,50,1583237600756,11.2317,-11.9465,-6.6064997000000005,11.889922,-3.226388,-1.8730509999999998,-1
50,51,1583237600766,12.9108,-10.872,-6.8378997,13.867733,-2.2236102000000004,-1.9959598000000003,-1
51,52,1583237600776,15.087898999999998,-9.9765,-7.6239,16.435476,-1.4652323,-2.7578619,-1
52,53,1583237600786,17.1057,-8.882999,-8.9704,18.639129999999998,-0.24692840000000002,-3.8844870000000005,-1
53,54,1583237600797,17.9938,-7.5951996,-9.2079,19.748314,0.7621318,-3.3954952000000005,-1
54,55,1583237600807,18.977,-6.657,-8.5437,20.748697,1.2980691,-2.1645787,-1
55,56,1583237600817,19.3977,-6.002999999999999,-7.0937996,21.138464000000003,1.5289468000000002,-0.16859968,-1
56,57,1583237600827,19.5837,-5.9649997,-5.5364,21.508465,1.1638215,1.1706208999999999,-1
57,58,1583237600837,20.523498999999997,-5.811,-4.8802,22.949092999999998,1.2708327,1.9479417,-1
58,59,1583237600847,21.678798999999998,-4.861000000000001,-4.9296,24.323595,2.0995138,2.2662652000000003,-1
59,60,1583237600858,23.057299,-3.4943,-4.6775,25.79125,3.0209653,2.9717119,-1
60,61,1583237600867,23.9499,-2.3832998,-3.7561998,26.335366999999998,3.7333267,4.417742700000001,-1
61,62,1583237600877,23.7698,-1.4569999999999999,-2.3757,26.215607000000002,4.060432,5.746457599999999,-1
62,63,1583237600887,24.0107,-0.8092,-1.1889,26.912245000000002,4.322597,7.1407833,-1
63,64,1583237600898,24.786299,-0.19559999,-0.8745,27.713938,4.576373,7.3573437,-1
64,65,1583237600909,25.3753,0.5911,-1.0649998999999999,28.562146999999996,5.3478613,7.599923599999999,-1
65,66,1583237600919,26.0619,2.0091999,-0.76769996,29.475199,6.601657,8.26735,-1
66,67,1583237600930,27.0166,3.5753,-0.1487,30.353344,7.6564464999999995,9.151147,-1
67,68,1583237600940,27.4793,4.9982,0.6565,30.474108,8.552097,9.8949,-1
68,69,1583237600950,27.353899,5.9803,1.1618,30.239618,8.693489999999999,10.276067999999999,-1
69,70,1583237600960,26.7801,6.1601,1.4569,29.731112,8.377781,10.653537,-1
70,71,1583237600971,26.176899,6.0174,1.9125999,29.104279,7.729402499999999,11.396927,-1
71,72,1583237600981,25.287699,5.6912,2.6411998,27.669529999999998,7.249528,12.493146000000001,-1
72,73,1583237600991,23.5159,5.4363,3.8915,25.921782999999998,6.80728,13.981659,-1
73,74,1583237601001,21.576,5.1214,5.4670997,24.428738,6.1379665999999995,15.478082999999998,-1
74,75,1583237601011,19.9142,4.5238,7.0374,23.391745,5.4367532999999995,16.462329999999998,-1
75,76,1583237601021,18.3925,3.5091998999999996,8.1726,21.887266,3.7665772000000004,17.362598000000002,-1
76,77,1583237601032,16.8715,2.0974,9.066,20.25532,2.6062322,18.559689000000002,-1
77,78,1583237601042,14.8502,0.9729,10.5561,18.355864999999998,1.9588113,20.396414,-1
78,79,1583237601052,12.7415,0.3304,12.655999999999999,16.721218,1.7622761999999998,22.441034,-1
79,80,1583237601062,10.9987,0.1252,14.8179,15.740344,1.8796302,23.741305999999998,-1
80,81,1583237601072,9.9086,0.0464,16.060799,15.056560000000001,1.7215171999999999,24.001623000000002,-1
81,82,1583237601082,9.0278,-0.3376,16.3113,14.069919,1.4187847,23.384216000000002,-1
82,83,1583237601093,7.8356,-0.9402,15.740398999999998,12.820299,1.0491583,22.268538,-1
83,84,1583237601103,6.4347,-1.6344,14.836499,11.819341,0.63218415,21.252945,-1
84,85,1583237601113,5.4757,-2.3574,14.0567,11.247950999999999,0.33754414,20.36984,-1
85,86,1583237601123,4.7974,-2.9601,13.384,10.216136,0.020341137,19.599068,-1
86,87,1583237601133,3.6510000000000002,-3.6827,12.8603,8.518282000000001,-0.65118456,18.955181,-1
87,88,1583237601144,2.2401,-4.6205997000000005,12.545899,7.1975737,-1.1248341999999998,18.229605,-1
88,89,1583237601154,0.96999997,-5.477999700000001,12.016399,5.810948000000001,-1.4484538,17.165545,-1
89,90,1583237601164,-0.33899999999999997,-6.1826,11.156899000000001,4.6230215999999995,-1.6682606,16.10975,-1
90,91,1583237601174,-1.4136,-6.7760997000000005,10.2978,3.7518290999999997,-1.7643734,15.182063000000001,-1
91,92,1583237601184,-2.6062999,-7.5316,8.547299,3.041929,-1.6762668,13.6699915,-1
92,93,1583237601194,-2.6062999,-7.5316,8.547299,2.79886,-1.5288798000000001,12.285425,-1
93,94,1583237601205,-2.748,-7.6858997,7.0309,2.4664203999999996,-1.572234,10.492560000000001,-1
94,95,1583237601215,-3.2422,-8.4156,4.3842,1.7648810000000001,-1.6883814,9.165636,-1
95,96,1583237601226,-3.5091,-8.7434,3.8051998999999994,1.3453115,-1.744061,8.452815,-1
96,97,1583237601236,-3.5784998,-9.1286,3.2408997999999998,1.0522612,-1.9277633,7.7642812999999995,-1
97,98,1583237601246,-3.6887999,-9.564899,2.5297,0.6756629,-2.1265874,6.874184,-1
98,99,1583237601256,-3.9708997999999998,-9.7404995,1.6360999,0.16556384,-2.0327442,5.8076153,-1
99,100,1583237601266,-4.3589997,-9.7429,0.76489997,-0.4681526,-1.8183291000000001,4.846113,-1
100,101,1583237601277,-4.3589997,-9.7429,0.76489997,-1.0251780000000001,-1.6976519,4.1672325,-1
101,102,1583237601287,-5.1776,-9.752,-0.4071,-1.676305,-1.5430917,3.4320977,-1
102,103,1583237601297,-5.2711997,-9.7786,-0.6414,-1.8564448,-1.4162853000000002,2.9783583,-1
103,104,1583237601307,-5.1296,-9.7694,-1.1916,-1.7887654999999998,-1.3214270000000001,2.367492,-1
104,105,1583237601317,-4.5014997,-9.5994,-2.0822,-0.9015798,-0.85186654,0.93171793,-1
105,106,1583237601328,-3.2918,-9.0159,-3.5339,0.002078167,-0.19044438,-0.44971728,-1
106,107,1583237601338,-2.2028,-8.139,-5.2620997,1.0854832,0.9815173,-2.6492417,-1
107,108,1583237601348,-1.6291,-7.3426,-6.633899700000001,1.3694066999999999,1.7462542,-3.8923303999999996,-1
108,109,1583237601358,-1.6130999,-6.7837,-7.3524,1.1951855,2.2988262,-4.508425,-1
109,110,1583237601369,-1.7206999,-6.4033,-7.4124,1.131787,2.8022406,-4.40378,-1
110,111,1583237601379,-1.5612999,-6.0346,-6.9623,1.4651748,3.1856098,-3.889122,-1
111,112,1583237601389,-1.1840998999999999,-5.7665997,-6.3438,1.6492889,3.4143517,-3.5841486000000002,-1
112,113,1583237601399,-1.0778999,-5.5523,-6.0839,1.688209,3.6984574999999995,-3.6561567999999998,-1
113,114,1583237601409,-0.97819996,-5.3241,-6.2374,1.8861521,3.9864511,-4.1840877999999995,-1
114,115,1583237601420,-0.6624,-4.9837,-6.7534,2.3693786,4.5425572,-4.811072,-1
115,116,1583237601430,-0.035099998,-4.3238997,-7.1542997,3.1857438,5.290007599999999,-5.1405234,-1
116,117,1583237601440,0.7782,-3.6578,-7.2601,3.7353377,5.766961599999999,-5.1468344,-1
117,118,1583237601450,1.1761,-3.1137,-7.0376,3.989152,6.361307599999999,-4.925917,-1
118,119,1583237601460,1.3205,-2.6834998,-6.7721,4.1414423,6.757892999999999,-4.702758,-1
119,120,1583237601471,1.3199999,-2.3688,-6.4591,3.8305695,6.939267999999999,-4.387987,-1
120,121,1583237601481,0.9005,-2.2884998,-6.0456,3.5234891999999998,6.906496000000001,-4.0341053,-1
121,122,1583237601491,0.6369,-2.3047,-5.4799,3.4306992999999997,7.195658,-3.2593799,-1
122,123,1583237601501,0.6612,-1.9554,-4.8778996,3.6625733,7.6650558,-2.7864294,-1
123,124,1583237601511,0.91359997,-1.505,-4.3869,3.8926559999999997,8.088878,-2.4478988999999998,-1
124,125,1583237601522,1.1218,-1.0618,-4.0673,4.274214700000001,8.561358,-2.2801322999999996,-1
125,126,1583237601532,1.5045998999999999,-0.6166,-3.892,4.7128997,8.914676,-2.229969,-1
126,127,1583237601542,1.8880999,-0.2488,-3.8211,4.911092,9.207181,-2.0897357,-1
127,128,1583237601552,1.9814999,-0.0087,-3.6279,4.662229,9.3319,-1.7556490000000002,-1
128,129,1583237601563,1.6488999,0.1226,-3.2531998,4.44247,9.477572,-1.3920368,-1
129,130,1583237601573,1.4764,0.26319999,-2.8904998,4.3962335999999995,9.511148,-0.9306645,-1
130,131,1583237601583,1.3735,0.266,-2.3694,3.9473777,9.448707,-0.1138395,d
131,132,1583237601594,0.9677,0.21859999,-1.6473999,3.703217,9.314785,0.41116104,-1
132,133,1583237601604,0.69799995,0.0919,-1.1230999,3.4127908,9.268692,0.5741966,-1
133,134,1583237601614,0.39659998,0.0429,-0.9328,3.389098,9.340000999999999,0.3025409,-1
134,135,1583237601624,0.3225,0.2119,-1.4715999,3.4053879,9.465026,-0.121587135,-1
135,136,1583237601634,0.3225,0.2119,-1.4715999,3.4199927000000003,9.524842999999999,-0.16440505,-1
136,137,1583237601645,0.3353,0.30339998,-1.5335,3.3591225,9.607864,0.07309977,-1
137,138,1583237601655,0.2385,0.3965,-1.2864,3.3956006000000003,9.734604,0.3211103,-1
138,139,1583237601665,0.2487,0.5297,-1.0027,3.4546223,9.706381,0.44483310000000004,-1
139,140,1583237601675,0.31039998,0.50119996,-0.70629996,3.5307864999999996,9.687036500000001,0.5813313,-1
140,141,1583237601685,0.4023,0.555,-0.4689,3.6244383,9.739239999999999,0.8159535,-1
141,142,1583237601695,0.38889998,0.6278,-0.2034,3.6614337,9.839221,1.0268540000000002,-1
142,143,1583237601706,0.38889998,0.6278,-0.2034,3.6854042999999996,9.923372,0.9842468000000001,-1
143,144,1583237601716,0.3214,0.7905,-0.29979998,3.5903068,9.965175,0.8540021999999999,-1
144,145,1583237601726,0.2086,0.72389996,-0.27249998,3.4847029999999997,9.884250999999999,0.8439082,-1
145,146,1583237601736,0.0975,0.6083,-0.27109998,3.3974008999999996,9.760900999999999,0.81332946,-1
146,147,1583237601746,0.1732,0.5132,-0.1891,3.5579178,9.68535,0.9485923,-1
147,148,1583237601757,0.522,0.6155,0.1131,3.9501455,9.826934,1.2484517,-1
148,149,1583237601767,0.81189996,0.7963,0.3854,4.2088730000000005,9.953156,1.4355441,-1
149,150,1583237601777,0.76159996,0.7008,0.2411,4.060844,9.815728,1.2316539,-1
150,151,1583237601787,0.4015,0.52459997,-0.0624,3.6862566,9.64371,0.901235,-1
151,152,1583237601797,0.24859999,0.3768,-0.1743,3.5712677999999998,9.451906,0.82010984,-1
152,153,1583237601807,-0.022000000000000002,0.0624,-0.1871,3.2924967000000005,9.157475999999999,0.8029960999999999,-1
153,154,1583237601817,-0.254,-0.19229999,-0.0385,3.1798064999999998,8.937909,0.9931532,-1
154,155,1583237601828,-0.0297,-0.25849998,0.1537,3.5109339999999998,8.894017999999999,1.1517834999999998,-1
155,156,1583237601838,0.2393,-0.2445,0.2464,3.7376935,8.932585000000001,1.1427238000000002,-1
156,157,1583237601848,0.4779,-0.1516,0.1733,3.9516492,9.015118,1.0323797,-1
157,158,1583237601858,0.5318,-0.1281,0.0431,3.984689,9.048846000000001,0.92903644,-1
158,159,1583237601868,0.5297,-0.0764,0.0324,3.9601629000000003,9.081044,0.88893837,-1
159,160,1583237601878,0.3937,-0.0849,-0.035099998,3.7606013,9.018144,0.7857674,-1
160,161,1583237601889,0.065299995,-0.2617,-0.101399995,3.393436,8.758507,0.6980246999999999,-1
161,162,1583237601899,-0.2807,-0.5765,-0.1467,3.130735,8.511808,0.65196025,-1
162,163,1583237601909,-0.3443,-0.6651,-0.2192,3.2081918999999997,8.502002000000001,0.48749778,-1
163,164,1583237601919,-0.0976,-0.6152,-0.3786,3.5287757000000006,8.598602,0.316705,-1
164,165,1583237601929,0.0691,-0.5153,-0.44309998,3.5055327000000003,8.713438,0.23547453,-1
165,166,1583237601939,-0.096,-0.39589998,-0.5427,3.329243,8.765652000000001,0.17310078,-1
166,167,1583237601950,-0.259,-0.42389998,-0.5311,3.1374674,8.662375,0.21577504,-1
167,168,1583237601960,-0.4603,-0.5105,-0.4086,2.9224297999999997,8.581106,0.4597825,-1
168,169,1583237601970,-0.5933,-0.56729996,-0.1724,3.0095308,8.588979,0.5624363,-1
169,170,1583237601980,-0.3658,-0.5448,-0.15079999,3.2363958,8.555527,0.51620907,-1
170,171,1583237601990,-0.287,-0.5906,-0.25329998,3.272797,8.613064999999999,0.24990676,-1
171,172,1583237602000,-0.2487,-0.42049998,-0.6058,3.4870975,8.834872,-0.22739169,-1
172,173,1583237602011,0.062299997,-0.21079999,-1.0323,3.8004026,9.04086,-0.5004648,-1
173,174,1583237602021,0.2852,-0.0106999995,-1.1363,3.7738364,9.170483,-0.36162025,-1
174,175,1583237602031,0.1184,0.0512,-0.95059997,3.6124767999999996,9.083821,-0.043287165,-1
175,176,1583237602041,0.012499999,-0.0635,-0.6134,3.5616144999999997,9.017972,0.15718412,-1
176,177,1583237602051,0.0144,-0.0997,-0.43609998,3.7858362000000003,9.021199000000001,0.30635247,-1
177,178,1583237602061,0.2014,-0.096099995,-0.3081,3.8391406999999997,8.964772,0.43141598,-1
178,179,1583237602072,0.2113,-0.1512,-0.17989999,3.8039940000000003,8.918296,0.5656445,-1
179,180,1583237602082,0.1722,-0.1866,-0.0703,3.7624114,8.884652,0.53156066,-1
180,181,1583237602092,0.102699995,-0.2122,-0.1241,3.6098912000000003,8.886999000000001,0.46647668,-1
181,182,1583237602102,-0.0656,-0.19829999,-0.18419999,3.521775,8.939174000000001,0.29260975,-1
182,183,1583237602112,-0.1282,-0.14459999,-0.3696,3.6804721,9.025097,0.025742456,-1
183,184,1583237602123,0.0512,-0.030499997999999997,-0.597,4.064760700000001,9.215282,0.03139277,-1
184,185,1583237602133,0.4632,0.1832,-0.56619996,4.464525,9.324219,0.07562804,-1
185,186,1583237602143,0.7769,0.26999998,-0.52169997,4.432309,9.316739,0.28038973,d
186,187,1583237602153,0.6922,0.2575,-0.33299999999999996,4.254918,9.280951,0.5239088,-1
187,188,1583237602163,0.5036,0.23349999,-0.105,3.9454818,9.25516,0.6636919,-1
188,189,1583237602174,0.18069999,0.2082,0.0371,3.5374904000000003,9.220778999999999,0.85595584,-1
189,190,1583237602184,-0.2289,0.1724,0.2207,3.4162769999999996,9.31241,1.067067,-1
190,191,1583237602194,-0.36609998,0.27449998,0.43519998,3.664249,9.483816000000001,1.1888169,-1
191,192,1583237602205,0.28059998,0.7773,0.3983,4.1961164,9.882786,0.9729653,-1
192,193,1583237602215,0.28059998,0.7773,0.3983,4.6613765,10.214786,0.718634,-1
193,194,1583237602225,0.8315,1.1963999,0.0976,5.281829,10.581452,0.34038845,-1
194,195,1583237602235,1.5396,1.6493,-0.4596,5.401701999999999,10.671101,0.10181104,-1
195,196,1583237602245,1.564,1.6909,-0.5902,5.438764,10.710624000000001,0.057240575999999994,-1
196,197,1583237602256,1.5440999,1.7795,-0.45639998,5.4026785,10.820853,0.23985112,-1
197,198,1583237602266,1.6941998999999999,2.0625,-0.022499999,5.6053242999999995,11.137444,0.6929776999999999,-1
198,199,1583237602276,2.0721,2.4615,0.33269998,6.0245394999999995,11.601947000000001,0.9754360999999999,-1
199,200,1583237602286,2.8946998,3.1917,0.2676,6.957866,12.322448,0.81243885,-1
200,201,1583237602296,3.9682998999999994,3.6348,0.1409,8.084567999999999,12.794509,0.7451139,-1
201,202,1583237602307,4.5631,3.9164,0.2855,8.485031,13.020857000000001,0.8649962999999999,-1
202,203,1583237602317,4.7599,3.9183,0.373,8.507671,12.936753,0.8978351999999999,-1
203,204,1583237602327,4.6078997,3.6013,0.42200000000000004,8.239185,12.583522,0.9520112,-1
204,205,1583237602338,4.1252,3.0349998,0.5427,7.617267599999999,12.02844,1.0840753,-1
205,206,1583237602348,3.5451,2.4064,0.7881,6.9604425,11.3097105,1.4287159999999999,-1
206,207,1583237602358,3.3451,1.8736999,1.0367,6.731461,10.750741,1.461641,-1
207,208,1583237602368,3.3193,1.2995,0.9194,6.672544500000001,10.364642,1.3796636,-1
208,209,1583237602379,3.1366,0.47739998,0.7389,6.1798462999999995,9.375397999999999,1.1703433,-1
209,210,1583237602389,2.6030998,-0.40629998,0.74539995,5.33544,8.322618499999999,1.2946407,-1
210,211,1583237602399,1.9031999,-1.4093,0.9359999999999999,4.239882499999999,7.253281599999999,1.6200222,-1
211,212,1583237602409,0.79929996,-2.5502,1.3098999,2.9506142000000004,6.206096,1.884457,-1
212,213,1583237602420,-0.2633,-3.5424,1.5263,2.0305896,5.420913,1.98577,-1
213,214,1583237602430,-0.87979996,-4.2862,1.5316,1.4970082,4.8040905,1.8407581000000002,-1
214,215,1583237602440,-1.1587,-4.8932,1.3412,1.0844488,4.2723856,1.4253928999999999,-1
215,216,1583237602450,-1.5223999,-5.4802,0.7834,0.64240265,3.7570004,0.7534457,-1
216,217,1583237602460,-2.1657999,-6.1858997,-0.2499,-0.60502434,2.777791,-0.7808162,-1
217,218,1583237602470,-2.9805999,-6.9381,-1.1747,-1.431206,2.1931557999999995,-1.3338098999999999,-1
218,219,1583237602480,-3.9696998999999997,-7.6477,-1.7452999,-2.5618916,1.5953236000000002,-1.7072668999999998,-1
219,220,1583237602491,-4.9693,-8.2261,-1.9462999,-3.904378,0.77146924,-1.9153229999999999,-1
220,221,1583237602501,-6.0608,-9.035999,-2.1413999,-5.004475,-0.19355685,-2.291251,-1
221,222,1583237602511,-7.0397997000000005,-10.0286,-2.5639999999999996,-6.049218700000001,-1.300789,-2.8273895,-1
222,223,1583237602521,-8.1326,-11.184299000000001,-3.1220999,-7.342844,-2.424493,-3.3429663,-1
223,224,1583237602531,-9.368899,-12.2486,-3.6157,-8.797514,-3.31731,-3.628767,-1
224,225,1583237602541,-10.8424,-13.0734,-3.8739,-9.9169655,-3.8087343999999996,-3.8627187999999997,-1
225,226,1583237602552,-11.834000000000001,-13.5204,-4.1303,-10.224247,-4.1978307,-4.003105000000001,-1
226,227,1583237602562,-12.0473995,-13.8722,-4.2625,-10.006499,-4.4897504,-4.128686,-1
227,228,1583237602572,-11.8876,-14.1468,-4.4275,-9.547416,-4.775388700000001,-4.288915599999999,-1
228,229,1583237602582,-11.4907,-14.4408,-4.6071,-8.88039,-5.2529262999999995,-4.215471,-1
229,230,1583237602593,-11.020599,-14.870398999999999,-4.5035,-8.247392999999999,-5.78803,-3.4159894,-1
230,231,1583237602603,-10.6901,-15.257098999999998,-3.9182,-7.8684573,-6.0101933,-2.7636368,-1
231,232,1583237602613,-10.479000000000001,-15.4217,-3.3154,-6.753698299999999,-6.119733,-1.7981316999999999,-1
232,233,1583237602623,-9.6921,-15.4394,-2.5797,-5.6652656,-6.338285,-1.1631989999999999,-1
233,234,1583237602633,-8.896299,-15.5329,-2.109,-4.919931,-6.752376600000001,-0.8414278000000001,-1
234,235,1583237602644,-8.234099,-15.9057,-1.8819,-3.3801053,-7.3840437,-0.38222954,-1
235,236,1583237602654,-7.2637,-16.2791,-1.6639999,-1.9619716,-8.063767,0.15894626,-1
236,237,1583237602664,-6.2176,-16.7669,-1.3289,-0.6990111,-8.516702,0.9559664000000001,-1
237,238,1583237602674,-5.3371,-16.982,-0.7328,1.6743131000000002,-8.400076,1.8601415000000001,-1
238,239,1583237602684,-3.3909,-16.5857,-0.0409,4.0937405,-8.276553999999999,2.9728804,-1
239,240,1583237602694,-1.3718,-16.1323,0.8192,6.5124874,-8.139194,4.2989135,-1
240,241,1583237602705,3.4020998,-14.9203,3.1966999,10.29231,-7.826741,6.3556767,-1
241,242,1583237602715,3.4020998,-14.9203,3.1966999,12.814927,-7.637637599999999,8.595482,-1
242,243,1583237602725,9.1722,-12.8421,7.9674997,16.836744,-6.515954,11.493642999999999,-1
243,244,1583237602735,11.3647995,-10.721399,8.5685,18.997751,-4.8826103,12.045228999999999,-1
244,245,1583237602745,12.683,-8.3578,8.5973,20.842454999999998,-3.0533254000000003,12.265677,-1
245,246,1583237602755,12.683,-8.3578,8.5973,23.853432,-1.5512607,11.795083,-1
246,247,1583237602766,15.9621,-5.8933,7.8946,28.91804,0.544882,11.393239,-1
247,248,1583237602776,24.411798,-0.8287,8.496799000000001,32.909290000000006,2.5623703,13.404465,-1
248,249,1583237602786,24.780499,0.4326,10.745399,32.662773,3.0050488,15.865244,-1
249,250,1583237602796,21.131698999999998,0.43039998,12.6991,28.390903,2.3403897000000002,17.89455,-1
250,251,1583237602806,16.178,-0.0378,13.9885,23.582302,1.5452082,19.184,-1
251,252,1583237602817,12.7459,0.1326,14.100598999999999,20.49315,1.6402389,18.630077,-1
252,253,1583237602827,12.1895,1.048,12.0138,20.733068,2.4936566000000004,16.219279999999998,-1
253,254,1583237602837,12.8551,2.4555,9.855,21.346885999999998,3.5202906,14.675575,-1
254,255,1583237602847,13.495,3.4478,8.8565,21.807241,3.906887,14.101215,-1
255,256,1583237602857,13.555698999999999,3.7027997999999998,8.6629,21.468443,3.7211928,14.358104999999998,-1
256,257,1583237602868,12.8461,3.7142,9.0882,20.401041,3.4173687000000004,14.804039000000001,-1
257,258,1583237602878,11.363,3.4987,9.3022995,18.681572,2.900518,14.911307999999998,-1
258,259,1583237602888,9.7199,3.2394,9.000899,17.140589000000002,2.630088,14.350289000000002,-1
259,260,1583237602898,8.469299000000001,3.3544,7.8711996,16.060582999999998,2.676459,13.001923,-1
260,261,1583237602908,7.5462,3.4894998,6.4749,14.8982935,2.6268895,11.480409,-1
261,262,1583237602918,6.6035,3.5569,5.2054996,14.120273999999998,2.6526222,10.42784,-1
262,263,1583237602929,5.7173,3.7029998,3.8869,13.297826999999998,2.7105331,9.205657,-1
263,264,1583237602939,5.2033997,3.8560998,2.7626998,12.950352,2.8377802000000005,8.115232,-1
264,265,1583237602949,5.1240997,4.0453,1.9397999,12.821753999999999,2.8699298,7.5256658,-1
265,266,1583237602959,5.0278,4.0874,1.4986,12.599544,2.7309604,7.462018,-1
266,267,1583237602969,4.7876997,3.9259,1.5468998999999999,12.417689,2.4943942999999997,7.430778500000001,-1
267,268,1583237602980,4.6482997,3.7726998,1.3384,12.237733,2.4148111,7.127653,-1
268,269,1583237602990,4.2527,3.698,0.9535,11.687707000000001,2.2549452999999997,6.7270746,-1
269,270,1583237603000,3.7347998999999996,3.4715998,0.64989996,11.085949000000001,1.9044246999999999,6.3763623,-1
270,271,1583237603010,3.0904999,3.0598,0.3231,10.316366,1.4597543,6.1542187,-1
271,272,1583237603020,2.2443,2.6146998,0.1963,9.455055999999999,1.0604973,6.038627,-1
272,273,1583237603030,1.4331,2.1987997999999997,0.0718,8.798432,0.69003767,5.9913077,-1
273,274,1583237603040,0.9219,1.8837999,0.08779999599999999,8.492224,0.4928991,6.1063730000000005,-1
274,275,1583237603050,0.7072,1.7184,0.1601,8.353484,0.32224998,6.0660453,-1
275,276,1583237603060,0.65709996,1.5129,0.0585,8.396867,0.104798995,5.9644637000000005,-1
276,277,1583237603070,0.8271,1.2745,-0.085599996,8.614137,-0.12682566,5.6775044999999995,-1
277,278,1583237603080,0.89239997,1.0406,-0.39899999999999997,8.436525,-0.42689574,5.601819,-1
278,279,1583237603091,0.6976,0.78279996,-0.30449998,8.13748,-0.6641228,5.9716754000000005,-1
279,280,1583237603101,0.33339998,0.4942,0.107,7.622257,-0.97441137,6.3625627,-1
280,281,1583237603111,-0.20709999,0.1757,0.4596,7.2835445000000005,-1.1375331,6.497672000000001,d
281,282,1583237603121,-0.5682,-0.0435,0.5538,7.029797599999999,-1.2839912,6.445257700000001,-1
282,283,1583237603131,-0.738,-0.1419,0.48529997,6.961993700000001,-1.3140048999999998,6.339137,-1
283,284,1583237603141,-0.75549996,-0.1768,0.3619,7.060003,-1.3122715,6.231063,-1
284,285,1583237603151,-0.6423,-0.1783,0.2548,7.2962050000000005,-1.2612367,6.087621700000001,-1
285,286,1583237603161,-0.3439,-0.110199995,0.0709,7.673646499999999,-1.1671542,5.8572516,-1
286,287,1583237603171,0.1151,-0.015299999,-0.20359999,8.100636999999999,-0.97201717,5.6728888,-1
287,288,1583237603181,0.4192,0.15339999,-0.2825,8.113758,-0.91663444,5.673396,-1
288,289,1583237603191,0.32909998,0.1336,-0.2512,7.7553654000000005,-1.1394963,5.858267,-1
289,290,1583237603202,-0.061499998,-0.1408,-0.028299998,7.401301400000001,-1.343693,6.158816000000001,-1
290,291,1583237603212,-0.4071,-0.35259998,0.2564,7.248455,-1.4502063,6.332778500000001,-1
291,292,1583237603222,-0.4831,-0.42299998,0.4082,7.404681699999999,-1.3883976,6.3119583,-1
292,293,1583237603232,-0.3105,-0.36229998,0.3306,7.5033710000000005,-1.3272879,6.1967305999999995,-1
293,294,1583237603242,-0.2244,-0.3002,0.1723,7.4703307,-1.2779387,5.966983,-1
294,295,1583237603252,-0.2556,-0.2773,-0.0058,7.621041,-1.2386066999999998,5.773971599999999,-1
295,296,1583237603262,-0.053799997999999995,-0.2446,-0.2593,7.9510765,-1.0841998,5.527034,-1
296,297,1583237603272,0.2323,-0.10439999400000001,-0.45889997,8.403476,-0.85265183,5.500123,-1
297,298,1583237603283,0.6829,0.12459999,-0.4886,8.689745,-0.71878725,5.645748,-1
298,299,1583237603293,1.0071,0.2967,-0.28419998,8.828026,-0.5345295,5.994056,-1
299,300,1583237603303,1.1377,0.47959998,0.10349999,8.96959,-0.42018240000000007,6.715075,-1
300,301,1583237603313,1.2598,0.5546,0.715,8.810375,-0.46773124,7.2540674,-1
301,302,1583237603323,1.0975,0.4991,1.2477,8.799017,-0.45576980000000006,7.410696000000001,-1
302,303,1583237603334,1.0917,0.4983,1.3880000000000001,8.928543,-0.34667084,7.3020277,-1
303,304,1583237603344,1.234,0.5829,1.2814,9.137336999999999,-0.2254476,7.092918400000001,-1
304,305,1583237603354,1.5253999,0.7245,1.0249,9.786041,0.050575115,6.951105,-1
305,306,1583237603364,2.1041,0.9346,0.9022,10.502367,0.48527595,7.132691,-1
306,307,1583237603375,3.4577,1.7997999,1.3619999999999999,11.248075,1.0811735,7.589226700000001,-1
307,308,1583237603385,3.7647,2.0942,1.8641,11.4803505,1.3434632,8.180489999999999,-1
308,309,1583237603395,3.9787998,2.2523,2.7828999,11.713881,1.5251256000000002,9.227167,-1
309,310,1583237603405,4.2401,2.3743,4.0369,11.970444,1.6826929,10.396897000000001,-1
310,311,1583237603416,4.7483,2.5778,5.3469996,12.598433,1.9590218999999998,11.688827999999999,-1
311,312,1583237603426,5.9175,3.0386,6.4263997,13.873804999999999,2.5621407000000005,12.673487,-1
312,313,1583237603436,7.4428,3.7986,6.8146,15.6378145,3.5687203000000003,12.897066,-1
313,314,1583237603446,8.6459,4.504699700000001,6.5333,16.459438000000002,4.183523,12.569196,-1
314,315,1583237603456,9.2102995,4.9339,5.9884996,16.922321,4.669613,12.0012045,-1
315,316,1583237603467,9.2311,4.7715,5.8037996,16.764210000000002,4.5542693,12.082991,-1
316,317,1583237603477,9.2311,4.7715,5.8037996,16.555838,4.5246673,12.833113,-1
317,318,1583237603487,8.933,4.1988997,7.2735,16.589655,4.383726,13.797316,-1
318,319,1583237603497,8.8126,3.7475,8.228,16.264875,4.0496583,14.6583185,-1
319,320,1583237603508,8.276299,3.0656998,8.6737995,15.712523000000001,3.6089620000000004,14.561735999999998,-1
320,321,1583237603518,7.7401,2.2986,7.7646,15.184152,3.207646,13.183403,-1
321,322,1583237603528,7.1917,1.7292,6.250499700000001,14.641415,3.0301015,11.748184,-1
322,323,1583237603538,6.7152,1.2731999,5.3806,14.232810999999998,2.9447436000000002,11.10471,-1
323,324,1583237603548,6.3194,0.8107,5.0973,13.709017000000001,2.826748,10.900801,-1
324,325,1583237603558,5.7746997,0.2714,5.2323,13.157144,2.563759,11.044452,-1
325,326,1583237603569,5.2924,-0.4849,5.501,12.476664,2.0423977,11.056835000000001,-1
326,327,1583237603579,4.6180997,-1.2731,5.4761,11.432016,1.8237113,10.594323,-1
327,328,1583237603589,3.4812999,-1.8168999,4.9891996,10.245009,1.6803848999999997,9.765986999999999,-1
328,329,1583237603599,2.3462,-2.3241,4.3195,8.935247,1.7267557,8.836356,-1
329,330,1583237603609,1.1171,-2.5883,3.6248,7.998203999999999,1.7983613999999997,8.184453999999999,-1
330,331,1583237603619,0.36229998,-3.0526,3.2222,7.391446000000001,1.4579826999999999,7.7636685,-1
331,332,1583237603630,0.1671,-3.8488998,3.4020998,7.152285000000001,0.9433729,8.024302,-1
332,333,1583237603640,-0.019299998999999998,-4.673899700000001,3.9685998,6.637052499999999,0.62011737,8.164535,-1
333,334,1583237603650,-0.4922,-5.1594996,4.151,6.005932,0.6454959,7.5872636,-1
334,335,1583237603660,-0.91929996,-5.3954997,3.698,5.5435156999999995,0.77892,6.653275999999999,-1
335,336,1583237603670,-1.3405,-5.4990997,2.7069,4.9951377,0.8344176,5.2320199999999994,-1
336,337,1583237603680,-1.6184,-5.8199,1.9156,4.5534654,0.6164399,4.7200637,-1
337,338,1583237603691,-2.0967,-6.4042997,1.6782,3.7719212,0.25362256,4.4085774,-1
338,339,1583237603701,-2.8632998,-6.9986997,1.6278,2.5922022,-0.17147273,3.8599989999999997,-1
339,340,1583237603711,-3.7043998,-7.545099700000001,1.3235999,1.8547593,-0.46367067,3.2052615,-1
340,341,1583237603721,-4.3873,-8.0728,0.6568,1.1938926,-0.63928056,1.826345,-1
341,342,1583237603731,-4.6521,-8.3154,-0.3831,1.1114458999999999,-0.6401138000000001,0.49886546,-1
342,343,1583237603742,-4.5316997,-8.4487,-1.4362999,1.1333194,-0.6080698,-0.26615859999999997,-1
343,344,1583237603751,-4.4188,-8.5532,-1.8175,0.89340115,-0.49692136,-0.30669725,-1
344,345,1583237603761,-4.5955,-8.5441,-1.5893999,0.2852356,-0.35171779999999997,-0.15453136,-1
345,346,1583237603771,-5.1877,-8.5029,-1.3201,-0.65966964,-0.16855179999999997,-0.24717738,-1
346,347,1583237603781,-5.9328,-8.401199,-1.3079,-0.9726109000000001,-0.013656527,-0.60150003,-1
347,348,1583237603791,-5.9841,-8.3645,-1.5769,-0.79588056,0.120457076,-1.1371692,-1
348,349,1583237603802,-5.678999999999999,-8.2838,-1.9693999,-0.3453684,0.41695502,-1.4217248,-1
349,350,1583237603812,-5.0861998,-8.0128,-2.0493999,0.44910434,0.86485267,-1.544241,-1
350,351,1583237603822,-4.2145,-7.562599700000001,-2.108,1.1521952,1.48384,-1.8579101999999998,-1
351,352,1583237603832,-3.5117,-6.9621,-2.3144999,1.8351651000000002,2.1441798,-2.3471987000000003,-1
352,353,1583237603842,-2.7753,-6.3342,-2.8343,2.5161815,2.8057554,-3.040023,-1
353,354,1583237603852,-2.2024,-5.8057,-3.3123,2.6037326000000003,3.2341547000000004,-2.9137435000000003,-1
354,355,1583237603863,-2.0814,-5.3936,-3.1329,2.266543,3.3509437999999996,-2.5831904,-1
355,356,1583237603873,-2.4693,-5.2757,-2.6437,1.9285678,3.5555427,-1.9668653999999999,-1
356,357,1583237603883,-2.7229,-5.057699700000001,-1.9525,1.8884313999999998,3.9202564,-1.2372755,-1
357,358,1583237603893,-2.6992,-4.7572,-1.2892,2.1043212000000002,4.449921,-1.1389216999999998,-1
358,359,1583237603903,-2.4799,-4.2349,-1.1201,2.422166,4.9332047,-1.543245,-1
359,360,1583237603913,-2.1541997999999998,-3.7552,-1.4656,3.0301687999999998,5.336311299999999,-2.075141,-1
360,361,1583237603924,-1.5547999,-3.3479997999999997,-1.9341999,3.6296864,5.6600556,-2.3603477,-1
361,362,1583237603934,-0.8463,-2.9559,-2.2254999,4.4199553,6.136655,-2.4140255,-1
362,363,1583237603944,-0.2003,-2.5228,-2.2393,4.9024825,6.6535725999999995,-2.1128638,-1
363,364,1583237603954,0.25939998,-2.0017,-1.9228,4.9360585,6.999333999999999,-1.5110284999999999,-1
364,365,1583237603964,0.2723,-1.6496998999999999,-1.3263999,4.7230225,7.1992207,-0.98646855,-1
365,366,1583237603974,0.0552,-1.4376,-0.80109996,4.424887,7.2736616,-0.82552075,-1
366,367,1583237603985,-0.2471,-1.3542,-0.61359996,4.0124807,7.2659616,-0.65264976,-1
367,368,1583237603995,-0.8152,-1.3225,-0.42819998,3.9250352,7.3080997000000005,-0.7479774,-1
368,369,1583237604005,-0.8152,-1.3225,-0.42819998,4.228208,7.470397999999999,-0.92027366,-1
369,370,1583237604015,-0.0079,-0.8253,-0.5554,4.808945700000001,7.833090299999999,-0.852671,-1
370,371,1583237604025,0.2154,-0.4646,-0.5064,5.0356574,8.164525,-0.8438315999999999,-1
371,372,1583237604035,0.457,-0.1227,-0.5787,5.3189106,8.471021,-0.89610183,d
372,373,1583237604046,0.602,0.061699998,-0.5112,5.4548726,8.626424,-0.80272794,-1
373,374,1583237604056,0.5057,0.2149,-0.47669998,5.3273954,8.753039,-0.7834594,-1
374,375,1583237604066,0.29639998,0.2677,-0.44489998,5.1597443,8.771042999999999,-0.74834126,-1
375,376,1583237604076,0.13859999,0.15269999,-0.25149998,5.0202675,8.640646,-0.5662191,-1
376,377,1583237604087,-0.028299998,0.1749,-0.0349,4.890310299999999,8.695501,-0.3114952,-1
377,378,1583237604097,0.1166,0.2669,0.17300000000000001,5.258414299999999,8.780266000000001,-0.227679,-1
378,379,1583237604108,0.5128,0.4298,0.1326,5.6071916,8.956267,-0.27934590000000004,-1
379,380,1583237604118,0.72069997,0.6426,0.1805,5.730493,9.118921,-0.17936401,-1
380,381,1583237604128,0.68369997,0.6881,0.306,5.666414700000001,9.105255,-0.058485555999999994,-1
381,382,1583237604138,0.4516,0.6838,0.45549998,5.3866762999999995,9.074858,0.20418711,-1
382,383,1583237604148,0.1821,0.66889995,0.72709996,5.24222,9.059928,0.38044822,-1
383,384,1583237604158,0.0995,0.7428,0.7704,5.172874,9.198216,0.2928013,-1
384,385,1583237604169,0.0471,0.955,0.5136,5.2628484,9.391821,-0.23652796,-1
385,386,1583237604179,0.20089999,1.1192,0.0689,5.5634445999999995,9.540549,-0.6398265000000001,-1
386,387,1583237604189,0.57989997,1.2354,-0.15529999,5.9810514,9.577171,-0.75519824,-1
387,388,1583237604199,1.0854,1.3323,-0.1551,6.40584,9.722958,-0.69579333,-1
388,389,1583237604209,1.1891999,1.4769,0.0224,6.3446155,9.8009615,-0.52855355,-1
389,390,1583237604220,1.0796,1.5408,0.2559,6.2927,9.768276,-0.2835022,-1
390,391,1583237604230,0.9734,1.4261999,0.4604,6.159927,9.619462,-0.18553148,-1
391,392,1583237604240,0.862,1.2803999,0.5008,6.1279593,9.41381,-0.28111759999999997,-1
392,393,1583237604250,0.8527,0.9668,0.2723,6.240257,9.031666,-0.9433155000000001,-1
393,394,1583237604260,1.0515,0.76119995,-0.50229996,6.671424000000001,9.054114,-1.9500486000000001,-1
394,395,1583237604270,1.7109,0.8908,-1.5605999,7.952561,9.233295,-3.6253097000000003,-1
395,396,1583237604281,2.8801,1.0711,-2.9742,9.028984,9.386803,-5.095177,-1
396,397,1583237604291,3.8760000000000003,1.1617,-4.2699,9.662146,9.201203999999999,-5.7656684,-1
397,398,1583237604301,4.4677997000000005,0.9629,-4.6889,10.101989,8.899219,-5.9149423,-1
398,399,1583237604311,4.8826,0.64059997,-4.7581,10.451427,8.559272,-6.1931005,-1
399,400,1583237604321,5.1998,0.3029,-5.04,10.39231,8.186418,-6.869443400000001,-1
400,401,1583237604332,5.0958,-0.0991,-5.7019,10.223616,7.6786647,-7.7980203999999995,-1
401,402,1583237604342,5.0197997,-0.63379997,-6.593,10.192692,7.1320586,-8.7384815,-1
402,403,1583237604352,5.0369997,-1.2117,-7.4449,10.084713,6.5914865,-9.562834,-1
403,404,1583237604362,4.9702,-1.735,-8.2017,10.021486,6.264065,-10.147297,-1
404,405,1583237604372,4.96,-2.0692,-8.7009,10.032528,6.032785,-10.539535,-1
405,406,1583237604382,5.0638,-2.3395998,-9.042399000000001,10.079445,5.704492,-10.698404,-1
406,407,1583237604392,5.1867,-2.7337,-9.097000000000001,10.167695,5.3051295,-10.581835,-1
407,408,1583237604402,5.3603997,-3.1938999,-9.0026,9.952304,4.7906156,-10.595453,-1
408,409,1583237604412,5.125499700000001,-3.7991,-8.9852,9.371567,4.140695,-10.316357,-1
409,410,1583237604422,4.6899,-4.5204997,-8.652999999999999,9.003463,3.5678105,-9.962455,-1
410,411,1583237604433,4.4453,-5.1502,-8.3553,8.428672,2.9090412,-9.681548,-1
411,412,1583237604443,3.9325997999999998,-5.9129,-8.0568,7.542147,2.0993319,-8.970892,-1
412,413,1583237604454,3.1618998,-6.8473997,-7.2597,6.0399294,0.90836966,-7.639936,-1
413,414,1583237604464,2.0392,-7.9424,-6.1527,4.5038385000000005,0.066396005,-6.1792336,-1
414,415,1583237604474,0.6726,-8.871699000000001,-4.7518997,3.0680257999999996,-0.76293635,-4.7616076,-1
415,416,1583237604485,-0.59679997,-9.759299,-3.4431,1.8733671000000003,-1.3759573,-3.3584519999999998,-1
416,417,1583237604495,-2.5132,-10.9428,-1.0067999,0.8097861,-1.8177450000000002,-1.7443099999999998,-1
417,418,1583237604505,-2.5132,-10.9428,-1.0067999,0.34020647,-2.0306276999999997,-0.80772704,-1
418,419,1583237604516,-3.3149998,-11.2364,0.80789995,-0.19077957,-1.9315366999999999,0.40667909999999996,-1
419,420,1583237604526,-3.6143,-11.0126,1.28,-0.5600611999999999,-1.7390715,0.9750435,-1
420,421,1583237604536,-3.9494998,-11.0636,1.5991,-0.9896193000000001,-1.8217769,1.6064136,-1
421,422,1583237604546,-4.49,-11.222999999999999,2.5239,-1.6230294,-2.0045502,2.8954612999999996,-1
422,423,1583237604556,-5.1702,-11.6564,3.9211,-2.2269810000000003,-2.4748384999999997,4.366296,-1
423,424,1583237604567,-5.8065996,-12.3714,5.5084,-2.9757152000000002,-3.3611815000000003,6.642425,-1
424,425,1583237604577,-6.6268,-12.894899,7.4455,-4.0330900000000005,-3.6982946000000005,8.969091,-1
425,426,1583237604587,-8.1315,-12.8235,9.6676,-5.394289499999999,-3.3757095,11.401427,-1
426,427,1583237604597,-9.0306,-12.2741995,11.638499000000001,-5.621240599999999,-2.89074,13.385598000000002,-1
427,428,1583237604607,-8.7109995,-11.6298,13.122,-5.0589004,-2.3701448,14.95382,-1
428,429,1583237604618,-8.373799,-11.1382,14.6029,-4.57123,-2.062557,16.335878,-1
429,430,1583237604628,-7.3174996,-10.7702,16.1314,-2.632942,-1.9184164000000001,18.452276,-1
430,431,1583237604638,-6.2114997,-10.7504,17.3645,-1.8352705000000002,-2.0040426,19.488035,-1
431,432,1583237604649,-5.7135997000000005,-10.596399,18.5338,-1.2085451999999999,-1.6101676999999999,21.043682,-1
432,433,1583237604659,-5.5559998,-9.7167,19.619099,-0.5919807,-0.5458684,22.075870000000002,-1
433,434,1583237604669,-4.9055,-8.403399,20.2818,0.33534145,0.7116142,22.868382,-1
434,435,1583237604679,-4.3675,-6.9220996,21.041199,1.2070512,1.7825023000000002,24.091866,-1
435,436,1583237604689,-3.5867,-5.8367996,22.104599,2.5568732999999995,2.4384081,25.000887,-1
436,437,1583237604699,-2.358,-5.1555,22.4984,3.9953672999999994,2.5643144,24.938972,-1
437,438,1583237604710,-1.186,-5.0439997000000005,21.9105,5.354326,2.2162743,23.812835999999997,-1
438,439,1583237604720,-0.27019998,-5.1218,20.5112,6.0500517,2.2595901,22.710747,-1
439,440,1583237604730,0.0229,-4.7056,19.7466,6.854761999999999,2.5379877,22.658342,-1
440,441,1583237604740,0.5868,-4.2077,19.7664,7.8303137000000005,3.0421875,22.932842,-1
441,442,1583237604750,1.4707999,-3.3996,19.9189,9.636499,3.4357846,22.915804,-1
442,443,1583237604760,3.2624998,-2.8437997999999998,19.5901,11.422315,3.4907171999999997,22.104324,-1
443,444,1583237604770,5.4035,-2.5789999999999997,17.9356,13.322439000000001,3.3891745,20.302351,-1
444,445,1583237604781,7.3766,-2.6265,15.0952,15.500445000000001,2.6983802000000003,16.747795,-1
445,446,1583237604790,8.4282,-2.9819999,12.7657995,16.032772,2.0661674,15.732854999999999,-1
446,447,1583237604800,8.8621,-3.5769,11.7757,16.498884,1.3065926,15.513163,-1
447,448,1583237604810,9.3525,-3.9764998,11.5517,17.447945,0.9917263000000001,15.269298999999998,-1
448,449,1583237604820,10.5717,-3.8625998,10.9562,19.23493,1.1815289,14.205766,-1
449,450,1583237604830,12.4675,-3.3335998,9.2386,21.601944,1.8274463,11.171164,-1
450,451,1583237604840,14.315498999999999,-2.5324,6.2925997,22.77109,2.2134204,8.673685,-1
451,452,1583237604851,15.4807,-1.9855,3.2066,23.469314999999998,2.2411642000000005,5.9637456,-1
452,453,1583237604861,15.729799,-2.0114,1.2139,22.755346,1.3822972,4.7246413,-1
453,454,1583237604872,14.777999999999999,-2.9385998,-0.046299997999999995,21.305819,-0.22076456,4.107416000000001,-1
454,455,1583237604882,13.423699,-4.4554996,-0.585,21.357563,-1.134344,3.383687,-1
455,456,1583237604892,13.930598999999999,-4.9604,-1.6123999,23.441945999999998,-0.30947453,1.309523,-1
456,457,1583237604902,16.272999,-3.8026998,-3.9450998,26.380568,1.2817216,-1.534262,-1
457,458,1583237604912,19.190898999999998,-2.1592999,-6.8563,28.132875,2.433754,-4.0822769999999995,-1
458,459,1583237604922,20.4701,-1.0706999,-9.347099,27.679625,3.0817301,-6.324418,-1
459,460,1583237604933,19.63,-0.52849996,-11.454499,25.342999,3.0301687999999998,-7.4451339999999995,-1
460,461,1583237604942,17.0123,-0.7488,-12.332499499999999,22.247017,2.3297498,-7.2136245,-1
461,462,1583237604952,14.038198999999999,-1.5879999,-11.9297,20.004198000000002,1.1618678999999998,-6.1935697,-1
462,463,1583237604962,12.0598,-2.7826,-10.892000000000001,18.795748,0.51059705,-5.5821867,-1
463,464,1583237604972,11.0802,-3.3076,-10.5274,18.80547,0.5431773,-6.190764,-1
464,465,1583237604982,11.3338995,-3.2396,-11.325999000000001,19.588276,0.9719214,-8.110042,-1
465,466,1583237604993,11.9909,-2.9120998,-12.9495,19.544674,1.3210629999999999,-9.496774,-1
466,467,1583237605003,11.8519,-2.5913,-14.593499,18.989735,1.441319,-10.776963,-1
467,468,1583237605013,11.2669,-2.5581,-15.712,18.209274,1.2694919,-11.578206,-1
468,469,1583237605023,10.6208,-2.8068,-16.2746,17.134449,0.94951165,-11.832335,-1
469,470,1583237605033,9.5693,-3.1787999,-16.5169,16.31183,0.6940599000000001,-11.590589,-1
470,471,1583237605044,8.7659,-3.4845,-16.2596,15.768298999999999,0.29194894,-10.856622,-1
471,472,1583237605054,8.2353,-3.9280998999999994,-15.5167,15.119144,-0.05692454,-9.836443,-1
472,473,1583237605064,7.6025996,-4.2873,-14.4881,14.443233,-0.5588546,-8.701822,-1
473,474,1583237605074,6.9349,-4.8301997000000005,-13.3345995,13.646595999999999,-1.1312699,-7.415541999999999,-1
474,475,1583237605085,6.1339999999999995,-5.4407,-12.0257,12.641969,-1.8790556,-6.091337,-1
475,476,1583237605095,4.3455,-6.8272,-9.4592,11.747686,-2.588582,-4.6655809999999995,-1
476,477,1583237605105,3.8416997999999998,-7.3381,-8.2368,11.273760000000001,-3.039803,-3.4708742999999993,-1
477,478,1583237605116,3.5328998999999994,-7.5414996,-7.2700996,11.010110000000001,-3.160576,-2.6121217999999997,-1
478,479,1583237605126,3.3479997999999997,-7.4691,-6.7103996,10.842698,-3.1133242,-2.0808678,-1
479,480,1583237605136,3.1752,-7.574,-6.2643,10.666303,-3.2875165999999996,-1.6513001,-1
480,481,1583237605146,2.9339999999999997,-7.7015996,-5.7009,10.519241000000001,-3.4061157999999994,-0.8716618,-1
481,482,1583237605156,2.9656,-7.6333,-4.7538,10.577449,-3.3774428,-0.04555687,-1
482,483,1583237605167,2.7921999,-7.6826,-3.6334,10.400497999999999,-3.499547,1.0786071000000002,-1
483,484,1583237605177,2.6698,-7.6847,-2.4566,10.450872,-3.4708360000000003,2.41664,-1
484,485,1583237605187,2.7561998,-7.383899700000001,-1.3231,10.4400215,-3.1404839,3.4852107000000005,-1
485,486,1583237605197,2.3402998,-6.8409996,-0.3658,9.852006,-2.5838799999999997,4.249296,-1
486,487,1583237605207,1.2989,-6.1257997,0.3786,8.713113,-1.9196038,5.0451193,-1
487,488,1583237605218,0.005,-5.3343,1.3204,7.514489,-1.2339332,5.9595222,-1
488,489,1583237605228,-0.9285,-4.7114,2.2625,7.011659,-0.8328757,6.851305,-1
489,490,1583237605238,-0.7722,-4.4922,3.0305998,7.845875299999999,-0.9472707,7.3639517,-1
490,491,1583237605249,0.9687,-4.7093,3.5705,10.638357000000001,-1.3330819999999999,8.695836,-1
491,492,1583237605259,3.3681,-4.7878,5.7901998,12.771687,-1.3262631999999999,11.90081,-1
492,493,1583237605269,4.756,-4.6275997,9.4211,13.111089000000002,-1.2446305,15.101370000000001,-1
493,494,1583237605279,4.3184,-4.495899700000001,12.404799,12.114478,-1.1367861000000001,17.322653,-1
494,495,1583237605289,2.9129999,-4.2565,14.3046,10.323586,-0.9619328000000001,18.53634,-1
495,496,1583237605300,0.88909996,-4.0587,15.377398999999999,8.87611,-0.8384398999999999,19.082629999999998,-1
496,497,1583237605310,-0.9041,-3.7285998,15.710099,6.8181405,-0.25672546,18.627522,-1
497,498,1583237605320,-2.281,-3.0077999,14.449698999999999,6.0317984000000004,0.6430538,16.629425,-1
498,499,1583237605331,-2.6731,-2.0637,12.259999,6.3669970000000005,1.7494813999999999,14.109548,-1
499,500,1583237605341,-2.1764997999999998,-1.026,10.2014,6.783463,2.6936302000000003,12.125339,-1
500,501,1583237605351,-1.9201,-0.17469999,8.3207,6.7020793,2.9747095,10.845245,-1
501,502,1583237605361,-2.1067,0.0848,6.9466,6.3638069999999995,3.1130560000000003,9.897907,-1
502,503,1583237605372,-2.4098,0.1716,6.4772997000000005,6.1915874,3.0303984,9.858403,-1
503,504,1583237605381,-2.6113,0.0624,6.4897,5.9387217,2.9176794999999998,9.823046000000001,-1
504,505,1583237605391,-2.8683,-0.0312,6.4691,5.7496943,2.8567709999999997,9.705117,-1
505,506,1583237605401,-3.0103,-0.0471,6.3519998,5.9804287,2.9955868999999997,9.574892,-1
506,507,1583237605411,-2.7010999,0.162,6.1579,6.428086799999999,3.241797,9.081906,-1
507,508,1583237605422,-2.2547,0.4342,5.5882,6.8783503,3.5399327000000005,8.298141000000001,-1
508,509,1583237605432,-1.7895,0.77559996,4.7555,7.4714220000000005,3.8102953,7.535032000000001,-1
509,510,1583237605442,-1.2179999,1.0465,4.0365,7.8618307000000005,3.9841144,6.886260000000001,-1
510,511,1583237605453,-0.8728,1.2056999,3.4113,8.146769,3.9847370000000004,6.316929,-1
511,512,1583237605463,-0.61469996,1.2135999,2.865,8.290269,3.8152945,5.901209,-1
512,513,1583237605473,-0.5204,1.0615,2.5391998,8.319142,3.5758263999999995,5.8983455000000005,-1
513,514,1583237605483,-0.5198,0.752,2.5556,8.159488,3.1487392999999995,6.1965675000000005,-1
514,515,1583237605493,-0.672,0.31559998,2.8748999,8.062991,2.6085114,6.794495599999999,-1
515,516,1583237605504,-0.7348,-0.0995,3.3665,8.23907,2.4972768,7.121869,-1
516,517,1583237605514,-0.5536,-0.1997,3.6646,8.506828,2.6019992999999997,6.974041499999999,-1
517,518,1583237605524,-0.27719998,-0.0766,3.5010000000000003,8.770669999999999,2.9069152000000003,6.0699906,-1
518,519,1583237605534,-0.022799998999999998,0.23779999,2.5922,8.864091,3.277078,4.923513400000001,-1
519,520,1583237605544,0.074099995,0.61649996,1.4427999,9.238641000000001,3.5991077000000007,3.9931068,-1
520,521,1583237605555,0.8438,0.9808,0.1278,9.645664,3.6090293,3.6408052000000004,-1
521,522,1583237605565,0.8438,0.9808,0.1278,9.518666,3.4009826000000003,3.8799093,-1
522,523,1583237605575,0.46289998,0.25509998,0.70519996,9.160857,2.7880382999999997,4.316008,-1
523,524,1583237605585,0.113,-0.0769,0.9374,8.787755,2.5747723999999996,4.595076000000001,d
524,525,1583237605595,-0.16149999,0.2179,1.1482999,8.578405,2.9311732999999998,4.785760400000001,-1
525,526,1583237605606,0.1077,0.64089996,1.1659,8.959372,3.364457,4.7621720000000005,-1
526,527,1583237605616,0.83379996,1.1329,0.9183,9.755509,3.798133,4.4997489999999996,-1
527,528,1583237605626,1.6386,1.0345,0.7701,10.464098,3.5563949999999998,4.398704,-1
528,529,1583237605636,1.584,0.2034,0.83379996,10.086006,2.6106374,4.49792,-1
529,530,1583237605646,-0.2112,-0.8448,1.1294,8.068182,1.688707,4.9106894,-1
530,531,1583237605656,-1.7321,-1.0352,1.7529,6.9497160000000004,1.9144229,5.456587,-1
531,532,1583237605667,-1.2278,-0.1078,1.5573,7.727850999999999,2.8606207,5.038808,-1
532,533,1583237605677,0.0112,1.1869,0.4701,9.063864,4.2073116,3.8319006,-1
533,534,1583237605687,0.6493,1.6861999,0.1052,9.402192999999999,4.3078585,4.0934434,-1
534,535,1583237605697,0.4319,1.3536,1.1931,8.813037,3.8439099999999997,5.447517400000001,-1
535,536,1583237605707,-0.8340000000000001,0.66969997,3.0995998,7.292499,3.038855,7.726433800000001,-1
536,537,1583237605718,-1.9819,-0.0786,5.1370000000000005,6.328191,2.3021016,9.580389,-1
537,538,1583237605728,-2.6627998,-0.8232,6.3441,5.8629975,1.6842825000000001,10.125472,-1
538,539,1583237605738,-2.7354,-1.1854,5.9042,6.178534,1.6562703999999997,9.030928999999999,-1
539,540,1583237605750,-1.8679999,-0.73069996,4.2606,7.7152004000000005,2.8077188,6.556339299999999,-1
540,541,1583237605760,-0.3184,0.541,2.0555,9.871121,4.3547273,4.081884,-1
541,542,1583237605770,1.5259999,1.7486999,0.18699999,11.086599,5.113019,3.2573592999999996,-1
542,543,1583237605780,2.8715,2.5835,-0.4306,12.079953999999999,5.810497799999999,3.4800966,-1
543,544,1583237605791,3.6954,3.1838,0.2069,12.637928,6.1696568,4.9354267,-1
544,545,1583237605801,4.022599700000001,3.3634,1.4818,12.395605,6.292728,6.133954,-1
545,546,1583237605811,3.7026,3.477,2.6131,12.177112,6.406376,7.491821000000001,-1
546,547,1583237605821,3.6265,3.5242,4.0357,12.384812,6.4408913,9.382531,-1
547,548,1583237605832,3.8337,3.5393999,5.9908,12.559446000000001,6.8029804,11.019734,-1
548,549,1583237605842,4.1119,3.8748998999999995,7.4515996,13.338614999999999,7.1951313,11.694258,-1
549,550,1583237605852,5.0143,4.1949,7.9412,14.285972000000001,7.681126,11.500414,-1
550,551,1583237605862,5.9565,4.5857,7.6102,14.922483999999999,8.089021,10.865683,-1
551,552,1583237605872,6.5888,4.8173,6.9277,15.079811999999999,8.153406,10.26265,-1
552,553,1583237605883,6.647,4.6828,6.3273,14.494295999999999,8.078813,9.841462,-1
553,554,1583237605893,6.0618,4.4477997,5.9407,13.645446,7.871110400000001,9.723772,-1
554,555,1583237605903,5.4579997,4.0576,5.8519998,13.241257000000001,7.7120686,9.711867999999999,-1
555,556,1583237605913,5.1549,3.7133,5.8331,13.298402,7.82563,9.650989,-1
556,557,1583237605923,5.318,3.6160997999999998,5.7654,13.475735999999998,7.900558999999999,9.460286,-1
557,558,1583237605933,5.626,3.4529,5.5790997,13.561523999999999,7.864578999999999,9.051864,-1
558,559,1583237605944,5.8106,3.2268999,5.1934,13.697869,7.8390474,8.492511,-1
559,560,1583237605954,5.9687,2.5935,4.6198997,13.390185,7.637427000000001,8.402154,-1
560,561,1583237605965,5.9687,2.5935,4.6198997,12.905398,7.3241887000000006,8.447519,-1
561,562,1583237605975,4.942199700000001,1.1937,4.7398,12.037355999999999,6.6812015,8.235422,-1
562,563,1583237605985,4.942199700000001,1.1937,4.7398,11.44665,6.014455,7.4475183000000005,-1
563,564,1583237605995,4.4974,0.2437,4.1994,11.129744,5.609356,6.4607434,-1
564,565,1583237606005,4.2111998,-1.295,2.1715,10.933333,5.059858,5.014521599999999,-1
565,566,1583237606015,4.145,-1.8798,1.104,10.600155,4.8251495,3.7873970999999997,-1
566,567,1583237606025,3.6843,-2.088,0.5039,9.947830999999999,4.864261,3.1580095,-1
567,568,1583237606035,3.1327,-2.398,0.83419997,9.133802000000001,4.7529407,3.5057718999999996,-1
568,569,1583237606046,3.1327,-2.398,0.83419997,8.260561000000001,4.5554,4.1863575,-1
569,570,1583237606056,1.3312,-3.4519,2.3583998999999998,6.9571576,4.0662646,4.521746599999999,-1
570,571,1583237606066,0.86969995,-4.0634,2.2879,6.343954599999999,3.5520568,4.087314,-1
571,572,1583237606076,0.5639,-4.9488,1.8399999,5.7662816,2.8963232000000003,3.3000622,-1
572,573,1583237606086,-0.24159999,-5.4498,0.99869996,4.591437,2.676344,1.9367846000000002,-1
573,574,1583237606096,-0.24159999,-5.4498,0.99869996,3.9653056,2.5013852,0.73456025,-1
574,575,1583237606106,-1.5153999,-6.0709995999999995,-1.4121,3.001247,2.4385328,-0.97463167,-1
575,576,1583237606117,-2.2051,-6.167000000000001,-2.353,2.1498112999999996,2.3583748,-1.9887675999999999,-1
576,577,1583237606127,-2.8551,-6.6071,-3.0507,1.1987193999999999,1.9297552,-2.916042,-1
577,578,1583237606137,-3.8613,-7.2653,-3.9136998999999997,-0.023060951,1.2478483999999999,-3.9309344,-1
578,579,1583237606147,-4.69,-7.7795,-4.5095,-0.6119101,1.0716639,-4.3609905,-1
579,580,1583237606157,-4.8501,-7.9424996,-4.5077,-0.80561054,1.0514376,-4.2831407,-1
580,581,1583237606168,-4.567199700000001,-7.7174997,-4.0453997,-0.25154442,1.5213141000000001,-3.7805593,-1
581,582,1583237606178,-3.2891,-6.9800997,-3.4041997999999998,1.2963931999999998,2.3015556,-3.2128942000000005,-1
582,583,1583237606188,-1.8097999,-6.450999700000001,-2.9501998,2.3915393,2.6659627,-3.0686102,-1
583,584,1583237606198,-1.2325,-6.254699700000001,-3.0460000000000003,2.6237578,2.7798595,-3.3572263999999996,-1
584,585,1583237606208,-1.1582,-6.3055997,-3.3818998,2.5351052000000003,2.6615957999999997,-3.7640107000000005,-1
585,586,1583237606218,-1.2943,-6.4758997,-3.4253,2.239316,2.518049,-3.5830953,-1
586,587,1583237606229,-1.7213999,-6.7943997000000005,-2.8959,1.5556374,2.1288762,-2.6802416,-1
587,588,1583237606239,-2.3281999,-7.141,-1.8632,0.7850109000000001,1.8023262999999998,-1.6575633,-1
588,589,1583237606249,-3.0741,-7.434,-1.0848,0.20972249,1.6787376,-1.2991608000000001,-1
589,590,1583237606260,-3.2519999,-7.3559,-0.93149996,0.46408248,2.0584102,-1.437249,-1
590,591,1583237606270,-2.4656,-6.580899700000001,-1.2806,1.8877897000000001,3.1352646,-1.9771221999999997,-1
591,592,1583237606280,-0.97609997,-5.6106997000000005,-1.7940999,3.6804053999999997,4.1176534,-2.608339,-1
592,593,1583237606291,0.7265,-4.7145,-2.3864,4.7687610000000005,4.7546835,-3.0105459999999997,-1
593,594,1583237606300,1.2444998999999999,-4.2316,-2.5345,4.7917166,5.0230927,-2.5979959999999997,-1
594,595,1583237606310,1.1545,-4.0081997000000005,-1.7847998999999999,4.805153400000001,5.2009053,-1.7556777,-1
595,596,1583237606320,1.1812,-3.7684998999999997,-0.69089997,4.6634264000000005,5.5321956,-0.62402475,-1
596,597,1583237606330,0.9018,-3.4231,-0.0583,4.378430000000001,6.0313004999999995,-0.649116,-1
597,598,1583237606341,0.7256,-2.9901,-0.2796,4.377721299999999,6.31464,-1.025992,-1
598,599,1583237606351,0.72709996,-2.6251,-0.6859999999999999,4.202772,6.688853699999999,-1.4060476,-1
599,600,1583237606361,0.4437,-2.3181,-0.9612,3.922392,6.840818400000001,-1.6007825,-1
600,601,1583237606371,0.2056,-2.2456,-0.9866,3.8537550000000005,6.841652000000001,-1.4728172,-1
601,602,1583237606381,0.273,-2.2401,-0.7254,4.113277,7.0262733,-1.0703231000000002,-1
602,603,1583237606391,0.5081,-1.9875,-0.37109998,4.5098047,7.3783449999999995,-0.83018464,-1
603,604,1583237606402,0.89489996,-1.6257,-0.22549999,4.7961507,7.8010273,-0.9106011,-1
604,605,1583237606413,1.0946,-1.1753,-0.3759,4.7888055,8.308876,-1.1040143,-1
605,606,1583237606423,1.0237,-0.65749997,-0.58,4.65995,8.699216999999999,-1.1692036,-1
606,607,1583237606433,0.88,-0.3081,-0.6184,4.538449,8.819472,-1.0152565,-1
607,608,1583237606443,0.73219997,-0.2447,-0.4104,4.2193685,8.645999,-0.70909554,-1
608,609,1583237606454,0.37289998,-0.45709997,-0.0938,3.9378583,8.437061,-0.55173904,-1
609,610,1583237606464,0.1619,-0.6106,0.0347,3.7041557000000003,8.411386,-0.72637206,-1
610,611,1583237606475,-0.092,-0.62509996,-0.118499994,3.5614707,8.701727,-0.9174101999999998,-1
611,612,1583237606486,-0.0442,0.0698,-0.5015,3.8430002,9.162044999999999,-1.1662157,-1
612,613,1583237606495,-0.0442,0.0698,-0.5015,4.1401873,9.43008,-1.2449753000000001,-1
613,614,1583237606505,0.27879998,0.4154,-0.61829996,4.461087,9.569280000000001,-1.2602598999999999,-1
614,615,1583237606515,0.5724,0.5744,-0.6532,4.4382277000000006,9.412057,-1.1747007,d
615,616,1583237606526,0.5286,0.4173,-0.58739996,4.074529,9.134032000000001,-0.761088,-1
616,617,1583237606536,-0.5459,-0.228,0.2746,3.2847776,8.713889,-0.28970799999999997,-1
617,618,1583237606546,-0.90849996,-0.24159999,0.28239998,2.9927807,8.7399,-0.37193444,-1
618,619,1583237606557,-0.9051,-0.124,0.1818,3.1273255,8.902886,-0.5159026,-1
619,620,1583237606567,-0.45979998,0.24309999,-0.0349,3.6729638999999996,9.264775,-0.8276372,-1
620,621,1583237606577,0.242,0.5352,-0.5537,4.539397,9.539964999999999,-1.4677126,-1
621,622,1583237606588,0.77349997,0.6611,-0.8336,4.9000497,9.555661,-1.5053016000000001,-1
622,623,1583237606598,0.797,0.6087,-0.61719996,4.8997720000000005,9.478501,-1.2852267,-1
623,624,1583237606608,0.7869,0.583,-0.4917,4.901831,9.440127,-1.2339332,-1
624,625,1583237606618,0.6173,0.41759998,-0.5233,4.563109,9.252967,-1.3428502,-1
625,626,1583237606628,0.1907,0.3872,-0.696,4.3931684,9.265597999999999,-1.5818874,-1
626,627,1583237606638,0.4055,0.4447,-1.0015,4.714777,9.315217,-1.9858754,-1
627,628,1583237606649,0.7011,0.5118,-1.4361,4.979585,9.372591,-2.492517,-1
628,629,1583237606659,1.0681,0.5388,-1.8396,5.533824,9.403361,-2.8864113999999996,-1
629,630,1583237606669,1.77,0.6333,-2.1513,6.1442685,9.5019455,-3.226972,-1
630,631,1583237606679,2.112,0.6766,-2.4131,6.2457347,9.422065,-3.5222824,-1
631,632,1583237606689,1.9090999,0.51089996,-2.5867999,5.951899500000001,9.210053,-3.697883,-1
632,633,1583237606699,1.6701,0.3134,-2.7891,5.7716637,9.031426,-4.037419,-1
633,634,1583237606709,1.5595,0.0862,-3.2159998,5.886154,8.733426,-4.712038,-1
634,635,1583237606720,1.969,-0.1398,-4.0144997,6.740894,8.695252,-5.6149487,-1
635,636,1583237606730,3.0542,-0.069299996,-4.9151998,7.912674000000001,8.8768,-6.6040415999999995,-1
636,637,1583237606740,4.1798997,0.14,-5.8104,8.920643,9.053981,-7.4224562999999995,-1
637,638,1583237606750,5.106,0.2402,-6.4016,9.685734,9.116316000000001,-7.879805999999999,-1
638,639,1583237606760,5.7662997,0.3563,-6.7096995999999995,10.116536,9.200247000000001,-8.14246,-1
639,640,1583237606771,6.1134996,0.2802,-6.8806,10.231171,8.89918,-8.332482,-1
640,641,1583237606781,6.1579,-0.12619999,-7.0269,10.058931,8.402958,-8.457757,-1
641,642,1583237606791,5.9372997000000005,-0.6868,-7.0551,9.815403,7.883752,-8.3477955,-1
642,643,1583237606801,5.8314,-1.2437,-6.7921996,9.459663,7.089576200000001,-7.618197,-1
643,644,1583237606811,5.5155997,-1.9727999,-6.0706997000000005,9.088111999999999,6.573664,-6.8601446,-1
644,645,1583237606822,5.2267,-2.4902,-5.4294,8.679737,6.0382055999999995,-6.3991456,-1
645,646,1583237606832,4.8866997,-3.0688,-5.0045,8.111162,5.536122,-5.969415000000001,-1
646,647,1583237606842,4.428,-3.5611,-4.6643,7.4874253,5.089211,-5.644675299999999,-1
647,648,1583237606852,3.8200998,-4.0842,-4.3506,6.7324660000000005,4.601081,-5.353435,-1
648,649,1583237606862,3.1388998,-4.647599700000001,-4.0994997,5.826491000000001,3.8995225,-5.0433855,-1
649,650,1583237606873,2.3223999,-5.4177,-3.8112998,4.827131700000001,3.161438,-4.545737,-1
650,651,1583237606883,1.4254999,-6.1779,-3.2765,3.8185601000000005,2.5570362,-3.4808053999999995,-1
651,652,1583237606893,0.5046,-6.7897997000000005,-2.222,2.6539917,2.388331,-1.9865841,-1
652,653,1583237606903,-0.3554,-6.9084,-1.0754,1.8221791,2.1423794999999997,-0.9572497,-1
653,654,1583237606913,-1.1055,-7.1995997,-0.1413,0.9792476000000001,1.9077861,-0.29338548,-1
654,655,1583237606924,-1.8730999,-7.4568996,0.4105,0.27289109999999994,1.6077542,0.31756693,-1
655,656,1583237606934,-2.6684,-7.8861,1.0854,-0.5626949,1.0801393,1.4851712,-1
656,657,1583237606944,-3.2682,-8.3398,1.9825,-1.5539326999999998,0.8591065999999999,2.5508973999999998,-1
657,658,1583237606954,-4.2244997,-8.582399,2.9496999,-2.6400287000000002,0.8225806999999999,3.668664,-1
658,659,1583237606964,-6.3259,-8.5581,4.9217997,-3.8860288,0.9210398000000001,4.98876,-1
659,660,1583237606975,-7.1850996,-8.4053,6.0053997,-4.6244005999999995,1.0322074,6.3229337,-1
660,661,1583237606985,-7.3251,-8.349,7.5326996,-4.555246400000001,1.1058435,8.161422,-1
661,662,1583237606995,-6.9473996,-8.163899,9.4169,-4.029489,1.2820568,10.231516000000001,-1
662,663,1583237607005,-6.9473996,-8.163899,9.4169,-3.5546522000000005,1.3829675,11.63312,-1
663,664,1583237607015,-6.6408997,-7.712000000000001,12.444699,-3.7973665999999997,1.7117490000000002,13.535169,-1
664,665,1583237607026,-7.5498996,-6.9975,13.9539995,-4.6358833,2.4114974,15.269596,-1
665,666,1583237607036,-8.3252,-6.3143997,15.9493,-5.1933489999999995,2.9947060000000003,17.457378,-1
666,667,1583237607046,-8.559,-5.8069997,17.9823,-5.2071586,3.4150126000000003,19.583584,-1
667,668,1583237607057,-8.3491,-5.5239,19.675,-4.6675916,3.5494902,21.306843,-1
668,669,1583237607067,-7.1636996,-5.3394,20.586899,-3.2147712999999998,3.7015602999999997,22.134222,-1
669,670,1583237607077,-6.1084,-5.0102,20.3828,-1.9018197000000001,4.039008600000001,21.61585,-1
670,671,1583237607087,-5.3536,-4.3029,19.216099,-0.95859045,4.8656120000000005,20.418892,-1
671,672,1583237607097,-4.4765,-3.3037998999999996,18.123998999999998,0.30682173,5.6710400000000005,19.600285,-1
672,673,1583237607108,-3.27,-2.4524,17.4202,1.5257291000000002,6.4512053,19.161898,-1
673,674,1583237607118,-2.6820998,-1.5532,17.2123,2.2748937999999996,6.9968057,19.260088,-1
674,675,1583237607128,-1.8873999,-1.3838999,17.5194,3.5168237999999996,6.8401003,19.69884,-1
675,676,1583237607138,-0.42659998,-1.4952999,17.677398999999998,5.3132124,6.617497,19.65019,-1
676,677,1583237607148,1.1335,-1.5468,17.1117,7.524899499999999,6.5121617,18.547901,-1
677,678,1583237607158,3.1485999,-1.2933999,15.6578,10.245909,7.052455999999999,16.407484,-1
678,679,1583237607169,5.8055997,-0.3301,13.106299,12.449428,7.895052400000001,14.155842000000002,-1
679,680,1583237607179,8.1673,1.0002,10.3073,15.282295000000001,9.390136,11.115089999999999,-1
680,681,1583237607189,10.0815,2.332,8.0218,16.877474,10.342846,9.359882,-1
681,682,1583237607200,11.2099,3.2056,6.5474997,17.678947,10.500777000000001,8.431574000000001,-1
682,683,1583237607210,11.5455,3.0028,5.7847,17.693085,9.588567999999999,7.832056,-1
683,684,1583237607220,11.293799,2.0621,5.1542,17.76241,8.856985,7.0950823000000005,-1
684,685,1583237607230,11.8777,1.8018,3.9489,20.142198999999998,9.151463,4.1527715,-1
685,686,1583237607240,14.207398999999999,2.3027,1.0339999,22.33589,9.803385,1.173245,-1
686,687,1583237607251,16.7163,3.3388,-2.6936,24.4423,10.839682,-2.4261498,-1
687,688,1583237607260,18.3267,4.2956,-5.9614,25.319113,11.29231,-5.096833999999999,-1
688,689,1583237607270,18.4207,4.5078998,-8.0995,24.359192,11.085442,-6.3203096,-1
689,690,1583237607280,16.982899,4.0776997,-8.6746,22.750345000000003,10.166478999999999,-6.475569,-1
690,691,1583237607290,15.838799,3.1927,-8.8448,22.260876,9.288478,-7.102265400000001,-1
691,692,1583237607300,15.3518,2.0516,-9.913199,21.877610999999998,8.2154255,-8.879827,-1
692,693,1583237607310,15.027498999999999,1.0785999,-11.9499,21.50538,7.5220647,-11.380014,-1
693,694,1583237607321,14.5124,0.3858,-14.401898999999998,20.57509,6.7971580000000005,-13.863778,-1
694,695,1583237607331,13.339,-0.47329998,-16.542599,18.741407000000002,5.799293,-15.913836499999999,-1
695,696,1583237607341,11.7335,-1.3659999,-17.7644,17.077602,5.079261,-16.403824,-1
696,697,1583237607351,10.1441,-2.1492,-17.952799,15.777444000000001,4.3368473,-16.325066,-1
697,698,1583237607363,8.9598,-2.9671,-17.6996,14.721841,3.6234998999999997,-15.984839000000001,-1
698,699,1583237607373,7.982199700000001,-3.6824,-17.234999,13.831235999999999,3.1693962000000004,-15.605119,-1
699,700,1583237607383,7.1713996,-4.1688,-16.7586,12.754909,2.6706362,-15.055488,-1
700,701,1583237607393,6.2924,-4.6428,-16.2008,11.853069999999999,2.2897189,-14.319346,-1
701,702,1583237607403,5.4435,-5.0657,-15.3755,11.335559,1.9948105999999999,-13.598835999999999,-1
702,703,1583237607413,4.848799700000001,-5.486000000000001,-14.406699,10.624921,1.5630785,-12.604246,-1
703,704,1583237607424,4.3018,-5.8841996,-13.516399,10.209114999999999,1.2563908000000001,-11.739930000000001,-1
704,705,1583237607434,3.9297,-6.2405996,-12.5675,9.9271555,0.95771897,-10.654648,-1
705,706,1583237607444,3.6738,-6.5743,-11.408199,9.520246499999999,0.56351846,-9.358494,-1
706,707,1583237607454,3.3095999,-7.0133,-10.0652,9.031407000000002,0.15416743,-8.084846,-1
707,708,1583237607465,2.8560998,-7.4491,-8.75,8.531747,-0.15886964,-6.673568700000001,-1
708,709,1583237607475,2.0642,-7.9712,-5.6370000000000005,8.169064,-0.33357933,-4.704549,-1
709,710,1583237607485,2.0642,-7.9712,-5.6370000000000005,8.406435,-0.22025697,-3.6817362,-1
710,711,1583237607496,2.7524998,-7.8388,-3.3858,8.887018,-0.15799816,-2.6175425,-1
711,712,1583237607506,3.0235999,-7.746,-2.9215,9.182358,-0.06225882,-2.2133627000000002,-1
712,713,1583237607516,3.2431,-7.8174996,-2.5498,9.305075,-0.20262608,-1.7768712,-1
713,714,1583237607526,2.9424999,-8.151999,-1.6672,8.762731,-0.62329686,-0.4675014,-1
714,715,1583237607536,2.2595,-8.484099,-0.1433,8.178181,-0.85516095,0.9717969000000001,-1
715,716,1583237607546,1.4369,-8.5767,1.703,7.3249164,-0.8880669,2.8392357999999995,-1
716,717,1583237607557,0.6191,-8.389299000000001,3.0904999,6.429744,-0.6689783,4.270183,-1
717,718,1583237607567,0.0298,-8.2354,3.6481998,6.0189753,-0.5742636999999999,4.67397,-1
718,719,1583237607578,-0.5284,-8.1729,4.249399700000001,5.3719187,-0.5839075,5.6881638,-1
719,720,1583237607588,-0.997,-8.2984,5.5217,4.9568405,-0.87772393,7.4075933,-1
720,721,1583237607598,-1.4934,-8.6979,7.8353,4.421812999999999,-1.3076746000000001,10.200324,-1
721,722,1583237607608,-2.1833,-8.8905,10.5791,3.4489818,-1.5014326999999998,13.511436999999999,-1
722,723,1583237607618,-3.3609,-9.022699000000001,13.6394,2.5356607,-1.56395,15.873059,-1
723,724,1583237607628,-4.8508997,-8.6729,15.939699,0.9879720999999999,-0.9126601000000001,18.038921,-1
724,725,1583237607639,-5.9206,-7.5860996,16.7689,0.24815422,-0.06087976,18.485882,-1
725,726,1583237607649,-6.4242,-6.9793997,16.7149,-0.18350118,0.42293093,18.605494,-1
726,727,1583237607659,-6.8499,-6.5396,16.9798,-0.56557745,0.6629449000000001,19.307867,-1
727,728,1583237607669,-7.3229,-6.2667,17.791199,-0.76766723,0.7021524,20.386053,-1
728,729,1583237607679,-7.5681,-6.0804996,18.8689,-0.84326655,0.8670266,21.522081,-1
729,730,1583237607689,-7.6821,-5.6958,19.7974,-0.6971628000000001,1.2598672,22.171679,-1
730,731,1583237607699,-7.5655,-5.1233,19.9597,-0.45411304,1.7037714,21.6977,-1
731,732,1583237607709,-7.4412,-4.4228997,19.011599,0.013426684,2.3950062,20.569198999999998,-1
732,733,1583237607719,-6.8272,-3.4947998999999994,17.8281,1.3369414,3.139641,19.713214999999998,-1
733,734,1583237607729,-5.3097997,-2.6894,17.049,3.0448117000000003,3.5347322999999995,19.460712,-1
734,735,1583237607739,-3.8755,-2.2072,17.0009,4.2695704,3.6604376000000003,19.874613,-1
735,736,1583237607750,-2.9910997999999998,-2.0455,17.3682,4.8911147,3.424235,20.234901,-1
736,737,1583237607760,-2.3227,-2.2784998,17.3463,5.8256097,2.872544,19.82558,-1
737,738,1583237607770,-1.6248,-2.5154,16.5038,6.6001053,2.4542577000000003,18.752057999999998,-1
738,739,1583237607780,-1.1415,-2.6348,15.486899,7.051230400000001,2.350474,18.096142,-1
739,740,1583237607791,-0.529,-2.4268,14.474898999999999,8.047104,2.5580513,17.157923,-1
740,741,1583237607801,0.60289997,-1.9683,13.3449,9.381794000000001,2.8189043999999996,16.096611,-1
741,742,1583237607811,1.9196999,-1.5675,11.9788,11.001414,2.8463802000000005,14.313065,-1
742,743,1583237607821,3.2749,-1.4187,10.217899000000001,12.494937,2.6445396,12.436595,-1
743,744,1583237607831,4.6493,-1.4879,8.211599,13.501344,2.2172509999999996,10.937125,-1
744,745,1583237607841,5.5929,-1.7579,6.6923,14.223751000000002,1.7371848,9.763047,-1
745,746,1583237607852,6.2338,-2.0902,5.4103,14.568047,1.2301503,8.838559,-1
746,747,1583237607862,6.5227,-2.4141998,4.401799700000001,15.048132,1.0712712,7.8096559999999995,-1
747,748,1583237607872,7.1464,-2.352,3.1317,16.031307,1.2237818,6.260493,-1
748,749,1583237607882,8.1919,-2.0273,1.3445,16.797682000000002,1.3824503000000001,4.5029283,-1
749,750,1583237607892,8.8836,-1.7764,-0.5434,17.132707999999997,1.3136123,3.0801022000000002,-1
750,751,1583237607903,9.2005,-1.7492,-2.009,17.403651999999997,1.1244512,2.1085446,-1
751,752,1583237607913,9.4844,-1.7894,-2.9122,17.730423000000002,0.93685114,1.5282573,-1
752,753,1583237607923,9.8601,-1.8795998999999999,-3.6311,18.37111,1.0811161,1.0267965000000001,-1
753,754,1583237607933,10.774799,-1.5408,-4.4743,19.663473,1.7840633000000001,-0.35615185,-1
754,755,1583237607943,12.1491995,-0.6653,-6.0888995999999995,20.812634,2.8382112999999998,-2.1944582,-1
755,756,1583237607953,13.0987,0.27269998,-7.6777997000000004,20.785597,3.279405,-2.8162613,-1
756,757,1583237607964,13.1122,0.75159997,-8.3868,19.61311,3.0318542,-1.9532664,-1
757,758,1583237607974,11.9744,0.5373,-7.5811,17.875444,2.1311842999999997,-0.11434708,-1
758,759,1583237607984,10.2737,-0.3462,-5.7927,16.106579999999997,1.2909536,1.4504264999999998,-1
759,760,1583237607994,8.5287,-1.1825,-4.2957997,15.21429,0.9719597,1.9510923999999998,-1
760,761,1583237608004,7.6593,-1.4997,-3.8244,14.817167999999999,1.0518016000000001,1.4663911,-1
761,762,1583237608014,7.2802997000000005,-1.4351,-4.3164,14.787413,1.5101858,0.3289729,-1
762,763,1583237608025,7.2527,-0.9999,-5.4452,14.922293,2.2333689,-1.3473035,-1
763,764,1583237608035,7.1436996,0.1296,-7.9796996,14.571045000000002,2.8193066000000004,-2.4752982000000006,-1
764,765,1583237608045,6.2506,0.4447,-8.525499,13.611976,3.1121939999999997,-2.9117036,-1
765,766,1583237608055,4.9417995999999995,0.4087,-8.016399,12.304646,3.0763382999999997,-2.2389426,-1
766,767,1583237608065,4.9417995999999995,0.4087,-8.016399,11.288986,3.0227754,-1.0089071,-1
767,768,1583237608076,2.6353998,0.1753,-4.629699700000001,10.187769,2.8902802000000003,1.1421204,-1
768,769,1583237608086,2.0093,-0.0166,-3.141,9.673935,2.7391197999999997,2.4620535,-1
769,770,1583237608096,1.6870999,-0.0805,-2.1808999,9.449023,2.7221882,3.2280924,-1
770,771,1583237608106,1.6909999999999998,-0.076699995,-1.8306999,9.523358,2.7754831,3.4204235,-1
771,772,1583237608116,1.7967999,0.0437,-1.8277999,9.710192999999999,2.949618,3.3091795,-1
772,773,1583237608126,2.1141,0.3398,-2.0672,10.037384,3.2737355,3.003909,-1
773,774,1583237608136,2.1643999,0.51739997,-2.2384999,9.907397999999999,3.4335341,2.7951443,-1
774,775,1583237608147,1.6358,0.4193,-2.1784,9.386161,3.3200300000000005,2.949513,d
775,776,1583237608157,0.84099996,0.1261,-1.5333999,8.486555000000001,2.9447722,3.9118285000000004,-1
776,777,1583237608167,0.3259,-0.26139998,-0.5062,8.10217,2.6206646,4.8854833,-1
777,778,1583237608177,0.058399998,-0.5475,0.319,7.8473697,2.3545728,5.6013307999999995,-1
778,779,1583237608187,-0.12979999,-0.8336,0.8393,7.687236,2.1047332,6.0339246,-1
779,780,1583237608198,-0.19139999,-1.0043,1.1856999,7.7718563,2.0467167,6.230517,-1
780,781,1583237608208,0.0885,-0.99249995,1.0665,8.002188,2.1487577,5.914339,-1
781,782,1583237608218,0.1414,-0.8491,0.5808,7.969253500000001,2.344642,5.3074665,-1
782,783,1583237608228,0.057099998,-0.6807,-0.0686,7.8587084,2.5626482999999998,4.730665,-1
783,784,1583237608238,-0.19999999,-0.5117,-0.3611,7.4180984,2.7366203999999996,4.6072483,-1
784,785,1583237608248,-0.5688,-0.45499998,-0.382,7.042333599999999,2.7539737,4.5865912,-1
785,786,1583237608259,-0.8537,-0.5383,-0.3373,6.878483999999999,2.6519613,4.7945709999999995,-1
786,787,1583237608269,-0.922,-0.594,-0.0637,7.005271400000001,2.7387083,5.1537013,-1
787,788,1583237608280,-0.5821,-0.41759998,0.25079998,7.436649000000001,2.9375706000000004,5.354699,-1
788,789,1583237608290,0.0349,-0.2004,0.3108,8.186264,3.264925,5.2409077,-1
789,790,1583237608300,0.6659,0.09999999400000001,0.108399995,8.656092999999998,3.5820705999999998,4.94621,-1
790,791,1583237608310,0.8912,0.3534,-0.1812,8.551514,3.7084748999999997,4.647662599999999,-1
791,792,1583237608320,0.7033,0.3529,-0.46289998,8.384408,3.7731087,4.4450655,-1
792,793,1583237608330,0.5268,0.4182,-0.53889996,8.1982155,3.794829,4.531027,-1
793,794,1583237608340,0.4138,0.35909998,-0.3396,8.10467,3.7180324000000002,4.753036,-1
794,795,1583237608350,0.3164,0.2968,-0.0852,8.027854,3.7329434999999997,5.148788,-1
795,796,1583237608361,0.3031,0.3006,0.38099998,8.207994,3.8569824999999995,5.6787686,-1
796,797,1583237608372,0.5379,0.428,0.731,8.511311,4.1173754,5.8643384,-1
797,798,1583237608382,0.92149997,0.7223,0.8724,9.059391,4.509038400000001,5.9174037,-1
798,799,1583237608392,1.5227,1.1191,0.86789995,9.850589,4.961705,5.6698527,-1
799,800,1583237608402,2.3562,1.5597999,0.4974,10.685878,5.346280999999999,4.988807700000001,-1
800,801,1583237608413,3.2164998,1.8968999,-0.2065,11.437723,5.6606016,4.397296400000001,-1
801,802,1583237608423,3.912,2.1678,-0.7513,11.897439,5.8218365,4.113899,-1
802,803,1583237608434,4.3863,2.2573,-0.9851,12.348708,6.002599,4.1818085,-1
803,804,1583237608444,4.7692,2.375,-0.9137,12.619138000000001,6.325375599999999,4.4474883,-1
804,805,1583237608454,5.0828,2.661,-0.6699,13.019936999999999,6.486122,4.478545700000001,-1
805,806,1583237608464,5.5313,2.7923,-0.6831,13.739787,6.970650999999999,4.452066,-1
806,807,1583237608474,6.2978997,3.2279,-0.76049995,14.9287,7.6303496,4.4927483,-1
807,808,1583237608485,7.5656996,3.8334,-0.7819,15.855811,8.227243,4.088923,-1
808,809,1583237608495,9.0164995,4.6131,-1.7759,16.35572,8.529085,3.399661,-1
809,810,1583237608505,9.1132,4.5692,-2.3165,16.408910000000002,8.579353,2.8643463,-1
810,811,1583237608515,9.1132,4.5692,-2.3165,16.581131,8.728302000000001,2.5682504,-1
811,812,1583237608525,9.502299,4.5288997,-2.7029,16.744529999999997,8.769635000000001,2.406843,-1
812,813,1583237608536,9.550099000000001,4.417,-2.4125,16.764315,8.804687,2.6857387999999998,-1
813,814,1583237608546,9.550099000000001,4.417,-2.4125,16.66848,8.703421,3.1689557999999995,-1
814,815,1583237608556,9.3909,3.9146998,-0.7754,16.552426999999998,8.585397,4.2173195,-1
815,816,1583237608566,9.376599,3.7565,0.2676,16.534203,8.630561,5.1291366,-1
816,817,1583237608577,9.4591,3.7821,1.1683999,16.590546,8.853900999999999,5.8279757000000005,-1
817,818,1583237608587,9.493199,3.7228,1.8147,16.480957,8.881981,6.3192177,-1
818,819,1583237608597,9.1627,3.4689,2.2316,16.117172,8.865489,6.3704247,-1
819,820,1583237608607,8.4831,2.9831998,2.3639997999999998,15.069861999999999,8.423127000000001,6.3042397,-1
820,821,1583237608617,7.4287996,2.1694,2.4933,13.970999999999998,7.7718754,6.080458599999999,-1
821,822,1583237608628,6.4897,1.2797999,2.5562,12.985633,7.2282767,6.077135,-1
822,823,1583237608638,5.6334,0.715,3.1759,12.063435,6.983206699999999,6.616366999999999,-1
823,824,1583237608648,4.8893,0.25599998,4.0463,11.220627,6.679114299999999,7.2578883,-1
824,825,1583237608658,4.033,-0.36929998,4.9907,10.105284,6.268269,7.96278,-1
825,826,1583237608668,2.9659,-0.95549995,5.8401,8.816916,5.8876004,8.562717999999998,-1
826,827,1583237608679,1.6364,-1.5229,6.5105,7.631326,5.66947,8.804103,-1
827,828,1583237608689,0.7574,-1.7865,6.4665,6.586152,5.5966473,8.061947,-1
828,829,1583237608699,0.56,-1.9994999,5.7584,6.266995,5.558091,6.9462113,-1
829,830,1583237608709,0.292,-2.2605,4.8072,5.691553599999999,5.2850757,5.943385,-1
830,831,1583237608719,-0.0624,-2.8753,4.1011,5.2039886,4.5736246,5.3761606,-1
831,832,1583237608730,-0.5427,-3.9524,3.8711998,3.9060156000000004,3.3793392,5.416805,-1
832,833,1583237608740,-2.0518,-5.3367,4.1851997,2.0184843999999997,2.3691584999999997,5.683930999999999,-1
833,834,1583237608750,-3.5477,-6.2538,4.4031,0.70555204,1.9126894,5.418538,-1
834,835,1583237608760,-4.433,-6.6809997999999995,3.9689998999999996,-0.068024054,1.7832781000000002,4.534446,-1
835,836,1583237608771,-4.9172997,-6.9209,2.9045,-1.0016478000000002,1.4274901000000002,2.6527752999999996,-1
836,837,1583237608782,-5.4905996,-7.4026,1.5213,-1.4181527,1.0664636,1.5581559999999999,-1
837,838,1583237608792,-5.6073,-7.8287997,0.6615,-1.0513994,0.8709627000000001,1.017009,-1
838,839,1583237608802,-4.9377,-8.061299,0.3127,-0.25181255,0.87991697,1.3499371,-1
839,840,1583237608812,-3.9692998,-8.0539,0.87759995,0.65107924,1.2290107,2.3929663,-1
840,841,1583237608822,-3.0486999,-7.7229,1.9095,0.98286766,1.4556075000000002,3.268478,-1
841,842,1583237608832,-2.6292,-7.6124997,2.6478,1.1195575,1.5729905,3.8437376000000003,-1
842,843,1583237608842,-2.4826999,-7.500499700000001,3.1139,0.78758705,1.7983425,4.015383,-1
843,844,1583237608853,-2.7166,-7.3306,3.0976999,0.26187778,1.8632921999999998,3.3886763999999996,-1
844,845,1583237608863,-3.2066998,-7.3482,2.3862997999999997,-0.8324543,1.8959683999999997,2.4065845,-1
845,846,1583237608873,-3.9757998,-7.3652,1.5991,-1.400675,2.1319695,1.8025848999999998,-1
846,847,1583237608883,-4.4428997,-7.171,1.0365,-1.4850563,2.4398925,1.9431531000000002,-1
847,848,1583237608893,-4.3789997000000005,-6.8012,1.3089,-0.9232904000000001,2.9660041,2.4145044999999996,-1
848,849,1583237608903,-3.6378998999999994,-6.2651,1.775,0.13453498,3.6785376000000003,3.0037367,-1
849,850,1583237608913,-2.6968,-5.6822,2.2237,0.9231563,4.326313,3.1540542,-1
850,851,1583237608923,-1.8626,-5.0559,2.3365998,1.5804316999999999,4.9119825,2.8944747000000004,-1
851,852,1583237608933,-1.1501,-4.4772997000000005,2.0309,1.6712964,5.4985523,2.5862453,-1
852,853,1583237608943,-1.0345,-3.7526998999999996,1.6401,1.568451,6.201719799999999,2.3637571,-1
853,854,1583237608953,-1.0719,-3.2173,1.4663999,1.1384045,6.315837,2.1123178,-1
854,855,1583237608963,-1.4482,-3.1165,1.2294999,0.5500535,6.4212394,1.5904107,-1
855,856,1583237608975,-1.9799999,-3.0275,0.75909996,0.15324806,6.5203690000000005,1.0313838,-1
856,857,1583237608985,-2.3197,-2.9475,0.2394,0.17642394,6.738577,0.49098372,-1
857,858,1583237608995,-1.8909999,-2.4529998,-0.4218,0.63431984,7.1300669999999995,0.23489992,-1
858,859,1583237609006,-1.1043,-2.0665,-0.57409996,1.443627,7.524420299999999,0.17583017,-1
859,860,1583237609016,-0.5488,-1.5985,-0.21939999,1.8348588,7.9818373,0.6383708,-1
860,861,1583237609026,-0.5488,-1.5985,-0.21939999,1.789752,8.211499,1.0268731,-1
861,862,1583237609036,-0.48369998,-1.0048,0.3053,1.8349928,8.569796,1.0697103000000001,-1
862,863,1583237609046,-0.4148,-0.68549997,0.16129999,1.9427606,8.889325999999999,0.87176716,-1
863,864,1583237609057,-0.2663,-0.6131,-0.0223,2.0340849999999997,8.901010000000001,0.72542393,-1
864,865,1583237609067,-0.2145,-0.6107,-0.1626,2.0568584999999997,8.938684,0.53142655,-1
865,866,1583237609077,-0.3092,-0.6283,-0.2882,1.8649395,8.878696000000001,0.43027636,-1
866,867,1583237609087,-0.6695,-0.6647,-0.2444,1.4449486,8.939202,0.43288127,-1
867,868,1583237609097,-0.83769995,-0.434,-0.2956,1.3482133,9.236044999999999,0.4008947,-1
868,869,1583237609108,-0.7276,-0.112399995,-0.15959999,1.6124566,9.588471,0.64301556,-1
869,870,1583237609118,-0.2994,0.23089999,-0.0157,2.081816,9.897217999999999,0.7016448000000001,-1
870,871,1583237609128,0.2838,0.4766,-0.2031,2.716241,10.072761,0.41084499999999996,-1
871,872,1583237609138,0.83889997,0.574,-0.5554,3.12722,10.151291,0.045298297,-1
872,873,1583237609148,1.0260999,0.6105,-0.8161,3.1123376,10.091664999999999,-0.15576677,d
873,874,1583237609159,0.7884,0.48799998,-0.8623,2.6606572,10.070559,-0.090979666,-1
874,875,1583237609169,0.35979998,0.5701,-0.7097,2.3151738999999996,10.1394825,0.09398678,-1
875,876,1583237609179,-0.0473,0.5735,-0.4306,1.8194209,10.105523,0.4517667,-1
876,877,1583237609189,-0.38639998,0.5087,-0.17459999,1.6080321000000002,10.069744,0.55963033,-1
877,878,1583237609200,-0.4434,0.47419998,-0.1283,1.6586647,10.001174,0.5258146,-1
878,879,1583237609210,-0.2986,0.4016,-0.24139999,1.9230037,9.980814,0.28997615,-1
879,880,1583237609220,0.067099996,0.44759998,-0.55079997,2.4450831,10.111202,-0.16313133,-1
880,881,1583237609230,0.6556,0.58239996,-0.99619997,2.891353,10.181486,-0.49437392,-1
881,882,1583237609240,0.96019995,0.6289,-1.1962999,3.0179486,10.270206,-0.5778454000000001,-1
882,883,1583237609250,1.1114,0.7434,-1.2407,3.1788104,10.410066,-0.54453725,-1
883,884,1583237609260,1.2772,0.8472,-1.0800999,3.3067849999999996,10.484850999999999,-0.25521234,-1
884,885,1583237609270,1.4101,0.9106,-0.7443,3.4331605000000005,10.497358,0.10494265,-1
885,886,1583237609280,1.4918,0.82549995,-0.45819998,3.2034707,10.258503,0.27198133,-1
886,887,1583237609290,1.1024,0.513,-0.3479,2.7491276,10.001441999999999,0.36235765,-1
887,888,1583237609301,0.65169996,0.1601,-0.1179,2.350924,9.595817,0.72866094,-1
888,889,1583237609311,0.5282,-0.10529999400000001,0.1873,2.217232,9.498286,0.9778398000000001,-1
889,890,1583237609321,0.38799998,-0.16569999,0.4614,1.7248308999999997,9.360822,1.1953483,-1
890,891,1583237609331,-0.2481,-0.4224,0.6378,0.75850224,9.051385,1.1670583,-1
891,892,1583237609341,-0.99979997,-0.6785,0.5295,-0.004185064699999999,8.855433,0.9445796000000001,-1
892,893,1583237609351,-1.6265,-0.8642,0.30629998,-0.41218576,8.668438,0.82447684,-1
893,894,1583237609362,-1.9059999,-1.0573,0.2329,-0.55684346,8.498219,1.1740781999999998,-1
894,895,1583237609372,-1.9561,-1.2289,0.64849997,-0.5330068,8.335901,1.8464658,-1
895,896,1583237609382,-1.9304999,-1.4679999,1.5308,-0.8579478000000001,7.9202775999999995,2.916741,-1
896,897,1583237609392,-2.2668,-1.8836998999999999,2.3576999,-1.3464223,7.388190299999999,3.777016,-1
897,898,1583237609403,-2.7477,-2.4277,3.1852999,-2.1723645,6.7939878,4.613196,-1
898,899,1583237609413,-3.5897,-3.0514,4.0302997000000005,-3.308624,6.106028599999999,5.410647,-1
899,900,1583237609423,-4.746,-3.7642998999999997,4.7553997,-4.7156671999999995,5.3011550000000005,5.8388643,-1
900,901,1583237609433,-6.1231,-4.5846,5.1712,-6.1844625,4.5073147,6.360915,-1
901,902,1583237609443,-7.5427,-5.3532,5.7591,-7.349864500000001,3.6303666,7.2887254,-1
902,903,1583237609454,-8.434899,-6.0881,6.5313,-7.6776203999999995,2.9373503,8.197987,-1
903,904,1583237609464,-8.776,-6.789499799999999,7.3996,-7.742877,2.3530787999999996,9.195794,-1
904,905,1583237609474,-8.8888,-7.3603997,8.3685,-7.606714,1.63071,10.298888,-1
905,906,1583237609484,-8.818399000000001,-8.0667,9.4506,-7.7124515,0.98466814,11.298813,-1
906,907,1583237609494,-9.382,-9.2122,11.3276,-7.975009399999999,0.36524984,12.231525999999999,-1
907,908,1583237609505,-9.382,-9.2122,11.3276,-7.662153999999999,-0.12300451,12.586203999999999,-1
908,909,1583237609515,-8.4481,-10.5131,12.1075,-6.534810500000001,-0.9978458,12.701182000000001,-1
909,910,1583237609525,-7.6516,-11.033999,11.9337,-5.5952497,-1.531226,12.371845,-1
910,911,1583237609535,-6.7486997,-11.4942,11.507299,-4.1604424,-2.1029902000000003,11.681272,-1
911,912,1583237609545,-5.3301,-11.842,10.3967,-2.595487,-2.293693,10.2411785,-1
912,913,1583237609555,-5.3301,-11.842,10.3967,-1.7273494999999999,-1.7896371,9.119342,-1
913,914,1583237609565,-2.4967,-10.2108,7.6024,1.0623456,-0.6742741999999999,7.4862665999999995,-1
914,915,1583237609575,0.3443,-9.09,6.0051,4.215806,0.38639542,5.718656,-1
915,916,1583237609586,2.8509998,-7.9698997,4.0716,6.97973,1.2700187,3.6093836,-1
916,917,1583237609596,4.8696,-7.3834,1.9231,9.261777,1.6358048,1.3205459,-1
917,918,1583237609606,6.5337,-6.9797997,-0.46629998,11.205735,1.9303395,-1.240206,-1
918,919,1583237609616,7.9315,-6.3289,-2.7772,12.848225,2.4315127999999997,-3.4769557,-1
919,920,1583237609626,8.8173,-5.354,-4.1039,14.230762,3.7000089,-4.7887,-1
920,921,1583237609637,9.984099,-3.5152997999999998,-4.913,15.657283999999999,5.113134,-5.4930262999999995,-1
921,922,1583237609646,11.9908,-1.6947,-6.0582,18.062815,6.678433999999999,-6.5867167,-1
922,923,1583237609656,14.160998999999999,-0.0458,-6.8984,20.467379,8.098023,-7.3756065,-1
923,924,1583237609666,15.7991,1.1862,-8.205,22.18158,8.981005,-8.823160000000001,-1
924,925,1583237609676,16.500999999999998,1.8446,-10.1201,22.919722,9.347777,-10.672317,-1
925,926,1583237609686,16.3866,1.9817,-11.5102,22.940464000000002,9.296771000000001,-11.835621000000002,-1
926,927,1583237609696,16.4413,2.2752,-12.243199,23.305866,9.582361,-12.355881,-1
927,928,1583237609707,16.5528,2.7565,-12.4506,23.35449,9.900530999999999,-12.209873,-1
928,929,1583237609717,16.184,2.9606,-12.059299000000001,22.874807,9.7763,-11.468053999999999,-1
929,930,1583237609727,15.2373,2.5702999,-11.2606,21.699635999999998,9.103377,-10.572718,-1
930,931,1583237609738,13.6507,1.6724,-10.6764,20.383276000000002,8.2487335,-10.208809,-1
931,932,1583237609748,11.917299,0.6343,-10.9886,18.405647000000002,7.0533185,-10.832699,-1
932,933,1583237609758,10.5378,-0.1907,-11.8362,17.231665,6.2987137,-11.6417,-1
933,934,1583237609768,9.6236,-0.6764,-12.5462,16.495045,5.9768376,-12.249962,-1
934,935,1583237609778,9.014299000000001,-0.8659,-13.025,15.916385,5.752261,-12.522469500000001,-1
935,936,1583237609788,8.3972,-1.1420000000000001,-13.184099,15.312663,5.380068,-12.422622,-1
936,937,1583237609799,7.7549,-1.5861,-12.8504,14.588867,4.8555465,-11.752417999999999,-1
937,938,1583237609809,6.9023,-2.2408,-11.9522,13.459052999999999,3.9404727999999993,-10.284083,-1
938,939,1583237609819,5.9168997,-3.0591,-10.6876,12.647256,3.276082,-9.281573,-1
939,940,1583237609829,4.9330997000000005,-3.8435,-9.7856,11.377495,2.3905146,-8.466768,-1
940,941,1583237609839,3.8602,-4.5125,-9.4008,10.561638,1.8445696,-8.314441,-1
941,942,1583237609850,3.2635999,-5.0502,-9.245,10.275656,1.3687076999999999,-8.003836,-1
942,943,1583237609860,3.1601,-5.3731,-9.000299,10.497713000000001,1.2280053,-7.8984426999999995,-1
943,944,1583237609870,3.5786998,-5.4491,-9.01,11.14793,1.0638875,-7.721280999999999,-1
944,945,1583237609880,4.2362,-5.6706,-8.6602,11.859639999999999,0.8161546,-6.9840016,-1
945,946,1583237609890,5.1061,-5.7355,-7.9721,13.004624,0.8486104,-6.243082,-1
946,947,1583237609901,6.1424,-5.7068,-7.3283997,13.603145999999999,0.65986115,-5.4382377,-1
947,948,1583237609911,6.3798,-5.9553,-6.6584,13.231020000000001,0.19070296,-4.5560317,-1
948,949,1583237609921,5.831,-6.3592997,-5.9827,12.219938,-0.42113048,-3.55809,-1
949,950,1583237609931,4.7194,-6.9268,-5.0741997,10.870489,-1.0414394,-2.3928802000000005,-1
950,951,1583237609941,3.3931,-7.4849,-3.9368,10.018988,-1.4022073,-0.94978935,-1
951,952,1583237609952,2.6784,-7.7615,-2.5477998,10.020078999999999,-1.4316465,0.5685846,-1
952,953,1583237609962,2.8646,-7.633899700000001,-1.1906999,11.049126,-1.0202364,1.7904988999999998,-1
953,954,1583237609972,4.06,-7.1201,-0.106,12.702494,-0.5029452,2.7619512000000004,-1
954,955,1583237609982,5.6621,-6.5067997,0.7636,13.518332999999998,0.1915074,3.971454,-1
955,956,1583237609992,6.1201,-5.712999999999999,1.9718,13.323119,1.2672318,6.2994413,-1
956,957,1583237610003,5.9282,-4.7263,3.8794,13.018865,1.6769179,8.583319,-1
957,958,1583237610013,5.4553,-4.2084,6.7158,11.835918,1.7884208,12.054681,-1
958,959,1583237610023,4.1108,-4.0866,10.1928,10.2799835,1.7224845000000002,15.640381,-1
959,960,1583237610033,2.4615998,-4.125099700000001,13.743,8.454903999999999,1.7925483,19.015984,-1
960,961,1583237610043,0.5748,-3.9943,17.003,6.5770345,2.3887238999999996,21.95185,-1
961,962,1583237610053,-0.94369996,-3.3734998999999997,19.3555,6.3461475,3.2523217,22.693336,-1
962,963,1583237610063,-1.2025,-2.4694998,20.0971,7.346062,4.2781224,22.799187,-1
963,964,1583237610073,-0.2286,-1.3958,20.1922,8.410802,5.3989825,23.379332,-1
964,965,1583237610083,0.7959,-0.2146,20.7349,9.3490505,6.428039,23.999153,-1
965,966,1583237610094,1.9425999,1.1336,21.4527,10.048647,7.799322599999999,24.71295,-1
966,967,1583237610104,2.3803,2.3033,21.9818,9.588213,8.654636,24.70843,-1
967,968,1583237610116,0.86329997,3.8040998,21.0274,8.328000999999999,9.347739,23.440403,-1
968,969,1583237610126,0.0858,4.0582,19.2146,7.716684299999999,9.593336,21.567898,-1
969,970,1583237610136,0.1319,4.1926,17.359999,7.8553185,9.723697,19.383104,-1
970,971,1583237610146,0.35619998,4.1523,15.813298999999999,8.096127000000001,9.6546955,18.024038,-1
971,972,1583237610156,0.6703,3.9180998999999996,14.5651,8.364652,9.450106,16.722416,-1
972,973,1583237610167,0.9535,3.7421,13.012899,8.533978,9.390863000000001,15.435629,-1
973,974,1583237610177,1.1531,3.6409,11.4586,8.635933999999999,9.37556,13.570584,-1
974,975,1583237610187,1.1312,3.5851,9.9744,8.520591,9.459931,12.078595,-1
975,976,1583237610199,1.1244999,3.5486,8.5898,8.532954,9.428673,10.726685,-1
976,977,1583237610209,1.2516,3.2907998999999997,7.402199700000001,8.745598,9.19858,9.296598,-1
977,978,1583237610219,1.6982,3.0117,6.2581,9.4078045,9.120252,8.263769,-1
978,979,1583237610229,2.6583,2.9006,5.4013,10.525926,9.1339655,7.549013599999999,-1
979,980,1583237610240,3.9053,2.82,4.6889997,11.575199000000001,9.193907000000001,6.741842299999999,-1
980,981,1583237610250,4.9606,2.8636,3.9698,12.456226,9.412929,6.0836473,-1
981,982,1583237610260,5.8054,2.9791,3.3288998999999997,13.00426,9.6747875,5.1997656999999995,-1
982,983,1583237610270,6.245199700000001,3.0455,2.6364,13.233538000000001,9.582180000000001,4.6254444,-1
983,984,1583237610281,6.5355,2.7187,2.2001998,13.08119,9.13772,4.422914,-1
984,985,1583237610291,6.4424996,2.0981998,2.1534998,12.997988000000001,8.525522,4.2173386,-1
985,986,1583237610301,6.5653,1.3438,1.9605,13.216606,8.12637,3.717975,-1
986,987,1583237610311,6.9421,0.84209996,1.5354999,13.433310500000001,7.753852,3.1637747000000003,-1
987,988,1583237610321,7.2792997,0.3099,1.1104,13.502196,7.390325999999999,2.6471252,-1
988,989,1583237610331,7.410599700000001,-0.1935,0.71419996,13.177302,7.0544004000000005,2.3999572,-1
989,990,1583237610342,7.0527997000000004,-0.8057,0.621,12.304875,6.492711,2.3443353,-1
990,991,1583237610352,6.4014997000000005,-1.4275,0.73249996,11.3958645,5.9834933,2.6281630000000002,-1
991,992,1583237610362,5.74,-2.1262,1.1567,10.6705065,5.2420278,2.9089646,-1
992,993,1583237610372,5.1549,-3.0481,1.4668,9.723581,4.407782599999999,2.5103207000000003,-1
993,994,1583237610382,4.3707,-4.0074,1.0166,8.586632,3.7982285000000005,1.4374117,-1
994,995,1583237610392,3.4538998999999997,-4.6893997,0.0011,7.5371003,3.5122747000000003,-0.25682122,-1
995,996,1583237610402,2.8049,-5.0323997,-1.2499,6.814645,3.3851714,-1.2243469,-1
996,997,1583237610412,2.0992,-5.3279,-2.2310998,5.898192400000001,3.1603557999999996,-1.9433448,-1
997,998,1583237610422,1.3758999,-5.6924,-2.72,4.9197974,2.8936036,-2.2350447,-1
998,999,1583237610432,0.6141,-6.0762997,-2.7635,3.9608428,2.4441447,-2.3306212000000004,-1
999,1000,1583237610442,-0.14,-6.6562,-2.7912,3.127469,2.006973,-2.7436402,-1
1000,1001,1583237610452,-0.6721,-7.1482997,-3.1522,2.5155494,1.6560693,-3.3850849999999997,-1
1001,1002,1583237610462,-1.1410999,-7.5920997,-3.6341,1.8685116000000002,1.3049357,-3.6578326,-1
1002,1003,1583237610472,-1.5752,-8.0082,-3.7361998999999995,1.1637161,0.96342677,-3.7145753,-1
1003,1004,1583237610482,-2.0636,-8.4394,-3.6144,0.35481113,0.64378166,-3.7059464,-1
1004,1005,1583237610492,-2.7788,-8.7899,-3.5716998999999996,-0.92091537,0.36388034,-3.8812307999999995,-1
1005,1006,1583237610503,-3.6601998999999994,-9.0574,-3.6276,-1.6549776000000003,0.26114038,-4.1172895,-1
1006,1007,1583237610513,-4.4163,-9.2390995,-3.853,-2.5412154,0.15458882,-4.446530999999999,-1
1007,1008,1583237610523,-5.1082997,-9.3257,-4.0702,-3.1111214,0.13900736,-4.496474,-1
1008,1009,1583237610533,-5.4817,-9.415999000000001,-4.0337,-3.5561843,0.009289502,-4.3691883,-1
1009,1010,1583237610543,-5.723,-9.55,-3.8695998,-4.098614700000001,-0.23910414,-4.115604,-1
1010,1011,1583237610553,-6.1442,-9.7976,-3.5677998,-4.7813454,-0.67472434,-3.5621412000000006,-1
1011,1012,1583237610564,-6.7433,-10.2576,-2.9887998,-5.3403529999999995,-1.1108042,-3.2030876,-1
1012,1013,1583237610574,-7.384999799999999,-10.8319,-2.5598,-6.613944,-1.7880856,-3.2940097,-1
1013,1014,1583237610584,-8.4141,-11.392699,-2.6601,-7.9187746,-2.384558,-3.9282625,-1
1014,1015,1583237610595,-11.0267,-12.5218,-3.9164,-9.512469,-2.9740295,-4.6432195,-1
1015,1016,1583237610605,-11.7241,-12.8438,-4.0590997,-9.994595,-3.2676830000000003,-4.7026143,-1
1016,1017,1583237610615,-11.580199,-13.080999,-3.9952998,-9.669013,-3.4884763,-4.595785,-1
1017,1018,1583237610625,-11.0731,-13.0559,-3.8541,-9.08475,-3.4589608,-4.431131,-1
1018,1019,1583237610635,-10.6853,-13.1117,-3.9118998,-8.565841,-3.5607523999999997,-4.4684805999999995,-1
1019,1020,1583237610646,-10.3039,-13.2286,-3.8715,-8.0537405,-3.712114,-4.3483014,-1
1020,1021,1583237610656,-9.985499,-13.4745,-3.6385998999999996,-7.571002,-4.093319,-4.058861299999999,-1
1021,1022,1583237610666,-9.8874,-14.044398999999999,-3.2965998999999995,-7.327895,-4.7119803,-3.6338234,-1
1022,1023,1583237610676,-9.748799,-14.5432,-2.911,-6.709664,-5.3847227,-3.068294,-1
1023,1024,1583237610687,-9.290299000000001,-14.9866,-2.5584,-5.9265013,-5.869921700000001,-2.6543941,-1
1024,1025,1583237610697,-8.6493,-15.3904,-2.2635999,-5.012405,-6.370195,-2.2112846,-1
1025,1026,1583237610707,-8.184999000000001,-15.7904,-1.8311,-4.237938,-6.883416,-1.6264865,-1
1026,1027,1583237610717,-7.5495996,-16.1831,-1.531,-3.2965765,-7.336590299999999,-1.2844222,-1
1027,1028,1583237610727,-6.2297997,-16.6042,-1.2361,-1.0702177,-8.051164,-0.6080409999999999,-1
1028,1029,1583237610737,-4.4263997,-16.7372,-0.6669,1.1319881999999999,-8.10918,0.2443618,-1
1029,1030,1583237610747,-4.4263997,-16.7372,-0.6669,2.2704885,-8.068144,0.9311721,-1
1030,1031,1583237610757,-0.6932,-16.0602,0.9388,5.9723744000000005,-7.932574300000001,2.3197997000000004,-1
1031,1032,1583237610767,1.6944,-15.475999999999999,2.0595,8.705308,-7.644303,4.1075115,-1
1032,1033,1583237610777,4.0562997,-14.744599,3.8511,11.735304,-7.2322893,6.129137,-1
1033,1034,1583237610787,7.0596,-13.738199,5.2989999999999995,14.935317000000001,-6.5337477,7.759684,-1
1034,1035,1583237610797,9.1783,-12.4247,6.6411,17.044168,-5.454796,9.407671,-1
1035,1036,1583237610808,10.793699,-10.3461,7.7236,19.141356,-3.5620548999999997,10.502156,-1
1036,1037,1583237610818,13.089499,-7.6748,8.0187,22.064224,-1.4017859,10.77702,-1
1037,1038,1583237610828,16.1321,-4.9873,7.7163997,24.85347,0.31031725,10.698797,-1
1038,1039,1583237610838,20.0141,-2.3213,7.4059,30.63878,3.0665605,10.672547,-1
1039,1040,1583237610849,23.482198999999998,-0.1479,7.4529,32.992283,4.390592,11.522306,-1
1040,1041,1583237610859,24.714699,1.4603,8.3903,32.615356,4.9916615,12.917944,-1
1041,1042,1583237610869,23.043298999999998,2.1083,9.6254,29.473263,4.5794086,14.442611,-1
1042,1043,1583237610879,19.2365,1.9893999,10.8574,26.144424,4.2301617,15.443442999999998,-1
1043,1044,1583237610889,15.290999,2.2161999,11.5116,22.375404,4.678116999999999,15.491893,-1
1044,1045,1583237610899,13.2006,3.3899,10.331799499999999,21.202246,5.777735,13.107785,-1
1045,1046,1583237610910,12.3477,4.6885,7.3006997,20.746025,6.4707136,10.113721,-1
1046,1047,1583237610920,12.0533,5.3564,4.6204,20.30922,6.499932299999999,8.506081,-1
1047,1048,1583237610930,11.4471,5.450999700000001,3.6334998999999994,19.51376,6.1919227,8.454644,-1
1048,1049,1583237610940,10.7226,5.2956,3.8234,18.976519,5.6992154,8.960463,-1
1049,1050,1583237610950,10.2348995,4.9030000000000005,4.2708,18.556807,5.2771654,9.27462,-1
1050,1051,1583237610961,9.3312,4.3931,4.737,17.211237,4.4941273,9.8371525,-1
1051,1052,1583237610971,8.3637,4.1773,4.7785997,15.902192000000001,4.2302480000000005,9.346457000000001,-1
1052,1053,1583237610981,7.2356,4.1306,4.1548,14.920627,4.160586400000001,8.645682,-1
1053,1054,1583237610991,6.0555997,4.0793,3.1956,13.691358,3.7332593999999997,7.718916,-1
1054,1055,1583237611001,5.1102,3.7472,2.5233998,12.626101,3.2714276,7.467428699999999,-1
1055,1056,1583237611012,4.0088,3.3384,2.3806,11.730439,2.8849267999999997,7.773973,-1
1056,1057,1583237611022,3.0849,2.995,2.8746,11.177896,2.6019799999999997,8.359872,-1
1057,1058,1583237611032,2.8095,2.8967,3.2303998,11.406647999999999,2.6572572999999995,8.314822999999999,-1
1058,1059,1583237611042,3.2005,3.0688999,2.9991999,12.004977,2.8890355,7.64301,-1
1059,1060,1583237611053,3.7856998,3.359,2.2712998,12.197155,3.0333195,7.075996000000001,-1
1060,1061,1583237611063,3.8674998,3.4873,1.7635,11.7423725,2.8074505000000003,6.771061,-1
1061,1062,1583237611073,3.2784998,3.1962,1.4472,10.843245,2.3750577,6.480692400000001,-1
1062,1063,1583237611083,2.3513,2.7804,1.1759,9.786731,1.9637146,6.2963867,-1
1063,1064,1583237611094,1.3327,2.3934999,1.0067999,9.075394000000001,1.683459,6.1865406,-1
1064,1065,1583237611105,0.593,1.7730000000000001,0.7222,8.817864,1.2154213,6.001861,-1
1065,1066,1583237611115,0.593,1.7730000000000001,0.7222,8.710650999999999,0.9934978999999999,5.9307632,-1
1066,1067,1583237611125,0.6913,1.3264999,0.2843,9.002467,0.84319955,5.4871464,-1
1067,1068,1583237611135,0.9755,1.2842,0.0098,9.308838,0.799309,5.2668610000000005,-1
1068,1069,1583237611145,0.9755,1.2842,0.0098,9.62698,0.67662054,5.4227233,-1
1069,1070,1583237611155,1.4393,0.9913,0.57879996,9.693711,0.48625278,5.9631805,-1
1070,1071,1583237611166,1.3802999,0.7594,0.9708,9.650758999999999,0.29464003,6.3055997,-1
1071,1072,1583237611176,1.3802999,0.7594,0.9708,9.723868,0.23154804,6.3385434,d
1072,1073,1583237611186,1.4837999,0.6058,0.8423,9.746641,0.17350301,6.065336,-1
1073,1074,1583237611196,1.4882,0.5848,0.5592,9.762203999999999,0.18368316,5.802251999999999,-1
1074,1075,1583237611206,1.6494,0.56009996,0.20729999,9.967013,0.18437268,5.4252415,-1
1075,1076,1583237611216,1.7888,0.5613,0.103999995,10.075700999999999,0.22511242,5.4564047,-1
1076,1077,1583237611227,1.7888,0.5613,0.103999995,10.114085000000001,0.19090407,5.5657053,-1
1077,1078,1583237611237,1.9073999,0.45069999,0.4517,10.186867999999999,0.17430747,5.889171599999999,-1
1078,1079,1583237611247,1.9901999,0.48839998,0.816,10.313608,0.31800744,6.2890987,-1
1079,1080,1583237611257,2.2233,0.61399996,1.146,10.571962,0.44671014,6.558532700000001,-1
1080,1081,1583237611267,2.4784,0.75549996,1.2566998999999999,10.859715,0.6707595000000001,6.680072,-1
1081,1082,1583237611278,2.9405,1.0783,1.4247,11.416282,1.1298046999999998,6.886452,-1
1082,1083,1583237611288,3.6076,1.4534,1.5748,12.069994,1.4102039,6.9528193,-1
1083,1084,1583237611298,4.2331,1.6315998999999999,1.4542999,12.712071,1.7214694,6.7654586,-1
1084,1085,1583237611308,4.9740996,1.9259,1.2494,13.460069,2.0853019,6.5997699999999995,-1
1085,1086,1583237611318,5.5365996,2.1495,1.137,13.776303,2.312866,6.5975194,-1
1086,1087,1583237611328,5.598099700000001,2.2732,1.3411,13.765845,2.5716982,6.9129605,-1
1087,1088,1583237611339,5.5223,2.4555,1.7827,13.680957000000001,2.858198,7.3882093,-1
1088,1089,1583237611349,5.4579997,2.6404998,2.3223,13.662320000000001,3.226388,8.157457,-1
1089,1090,1583237611359,5.611799700000001,2.8295,3.0572,14.006568,3.4586828,8.772708999999999,-1
1090,1091,1583237611369,6.2874,3.0026,3.8116999,15.015753,3.8442644999999995,9.636298,-1
1091,1092,1583237611380,7.2082996,3.1545,4.4233,15.746022,4.006524,10.058635,-1
1092,1093,1583237611390,7.803999999999999,3.1385,4.7007,16.305788,4.156765,9.936761,-1
1093,1094,1583237611400,8.3497,3.0688,4.3694997,16.703503,4.293444999999999,9.297911000000001,-1
1094,1095,1583237611410,8.6777,3.0391998,3.6357,16.819782,4.406624,8.613648,-1
1095,1096,1583237611421,8.588699,2.8948998,3.2031999,16.426695000000002,4.4175415000000005,8.36445,-1
1096,1097,1583237611431,8.2081995,2.6109998,3.1476,15.876698499999998,4.312158,8.442798,-1
1097,1098,1583237611441,7.6709,2.1975,3.31,15.461332999999998,4.043031,8.449578,-1
1098,1099,1583237611451,7.134299799999999,1.548,3.3795,14.665788000000001,3.648907,8.333219999999999,-1
1099,1100,1583237611461,6.4175997,0.91169995,3.3992998999999995,13.993439000000002,3.3438091,8.2181835,-1
1100,1101,1583237611472,5.8687997,0.3152,3.4108,13.663125,3.189479,7.980554,-1
1101,1102,1583237611482,5.5878997,-0.1371,3.2916,13.252203,3.2849019999999998,7.6471279999999995,-1
1102,1103,1583237611492,5.2124,-0.3173,3.1302998,12.75804,3.4985225,7.349835400000001,-1
1103,1104,1583237611502,4.8792,-0.48200000000000004,3.049,12.258591000000001,3.5249064,7.0682387,-1
1104,1105,1583237611513,4.2957,-0.7795,2.8724,11.396104,3.5484940000000003,6.7602773,-1
1105,1106,1583237611523,3.5811,-1.1192,2.7456,10.903012,3.5256343,6.253080000000001,-1
1106,1107,1583237611533,3.2949998,-1.5897,2.4714,10.558448,3.6074587999999994,5.597385,-1
1107,1108,1583237611544,3.1109,-1.7198,2.0525,10.127962,3.5227232,5.332778,-1
1108,1109,1583237611554,2.8283,-2.1352,1.9807999,9.382475,3.4193222999999997,5.480643700000001,-1
1109,1110,1583237611564,2.2488,-2.5551,2.3462,8.270721,3.2835137999999997,5.673836,-1
1110,1111,1583237611575,0.5378,-3.3685,2.9729,7.177319000000001,3.2099636,5.647931,-1
1111,1112,1583237611585,0.19309999,-3.6055,2.9954,6.624363400000001,3.3179517,5.44452,-1
1112,1113,1583237611595,-0.1726,-3.5988,2.9836,6.0613527000000005,3.601406,5.2077813,-1
1113,1114,1583237611605,-0.59029996,-3.5934,2.9157999,5.378287,3.8609852999999994,4.924154799999999,-1
1114,1115,1583237611615,-0.89479995,-3.5813,2.6983,4.935005,4.093089,4.399355,-1
1115,1116,1583237611625,-0.9704,-3.5733,1.8176999,4.65836,4.3149066,3.2123005,-1
1116,1117,1583237611635,-1.0321,-3.6295,0.57809997,4.2997375,4.418978,1.7382096000000002,-1
1117,1118,1583237611645,-1.2455,-3.7401998,-0.615,3.8912480000000005,4.532176,0.35049197,-1
1118,1119,1583237611655,-1.2693,-3.8449998,-1.5159999,3.6195733999999997,4.558321,-0.64856046,-1
1119,1120,1583237611666,-1.5849999,-4.0719,-1.6990999,2.972181,4.4779615,-0.8776185999999999,-1
1120,1121,1583237611676,-2.2421,-4.3241,-1.4685,2.0044928,4.352601,-0.7364373000000001,-1
1121,1122,1583237611686,-3.1166,-4.7095,-0.9116,0.8989461,4.093865,-0.26301742,-1
1122,1123,1583237611696,-3.6653998,-5.1486998,-0.3103,0.19804837,3.7610419000000004,0.13091494,-1
1123,1124,1583237611706,-3.6653998,-5.1486998,-0.3103,-0.48956640000000007,3.5514822,-0.15307568,-1
1124,1125,1583237611717,-4.4874997,-5.8953,-0.7831,-0.92426723,3.1153447999999995,-0.75500673,-1
1125,1126,1583237611727,-4.0411997,-6.3315,-1.0659999999999998,-0.5271745,2.7450767000000003,-1.0939202,-1
1126,1127,1583237611737,-3.395,-6.7075996,-1.1748999,0.11239339999999999,2.5638068,-1.3478972,-1
1127,1128,1583237611747,-2.5037,-6.821099799999999,-1.5023999,0.56950396,2.396366,-1.770991,-1
1128,1129,1583237611757,-2.5175998,-7.2538,-1.7756,0.10913729,1.9542432,-1.9420327000000002,-1
1129,1130,1583237611768,-2.9634,-7.6833,-1.4796,-0.59956557,1.6793026000000002,-1.4661516,-1
1130,1131,1583237611778,-3.6304,-8.0008,-0.87039995,-1.4300375,1.3399006000000002,-0.76550287,-1
1131,1132,1583237611788,-4.1622,-8.2736,0.1047,-1.9164915,1.2589574,0.11070789,-1
1132,1133,1583237611798,-4.4965997,-8.2556,1.3039,-2.2957234,1.3646757999999999,1.5498147,-1
1133,1134,1583237611808,-4.2363,-8.0541,2.1487,-1.8171895,1.7187686999999998,1.9770168000000001,-1
1134,1135,1583237611819,-3.3720999,-7.4637,2.0115,-0.6226553000000001,2.6481404,1.5535879,-1
1135,1136,1583237611829,-2.2331,-6.6036,1.5402,0.12899001,3.4955822999999997,1.0658985,-1
1136,1137,1583237611839,-1.7628,-5.9073,1.1127,0.28200823,4.073514,0.47880203,-1
1137,1138,1583237611849,-1.5626999,-5.3567,0.3924,0.5559528,4.527991,-0.25039518,-1
1138,1139,1583237611860,-1.2495999,-4.9423,-0.19319999,0.59944105,4.873752,-0.6137679,-1
1139,1140,1583237611870,-1.3026999,-4.6941,-0.26729998,0.49660529999999997,5.0520434000000005,-0.20688775,-1
1140,1141,1583237611880,-1.3113999,-4.5235,0.2968,0.5447,5.230938,0.45506114,-1
1141,1142,1583237611890,-1.2389,-4.3222,0.8691,0.658846,5.581995,0.78759664,-1
1142,1143,1583237611900,-1.0187,-3.8147998,0.99759996,1.1535455,6.437501,0.4478785,-1
1143,1144,1583237611910,-0.53389996,-3.0799,0.5663,1.6054941,7.1502740000000005,-0.27915433,-1
1144,1145,1583237611920,-0.14549999,-2.3530998,-0.1559,1.6796857,7.6574425999999995,-0.8333736999999999,-1
1145,1146,1583237611931,-0.16309999,-1.7827,-0.7772,1.6822907,8.229752000000001,-1.3000706,-1
1146,1147,1583237611941,-0.0642,-1.3399,-1.0299,2.0024624,8.565237,-1.1043973,-1
1147,1148,1583237611951,0.2311,-1.0545,-0.7668,2.068667,8.659971,-0.5458970999999999,-1
1148,1149,1583237611961,0.25599998,-0.9661,-0.2078,2.1032872000000005,8.708076,-0.17819566,-1
1149,1150,1583237611972,0.22699999999999998,-0.9177,0.14729999,1.8108686999999999,8.782842,0.1220181,-1
1150,1151,1583237611982,-0.1899,-0.72279996,0.3556,1.3629233,9.301511999999999,0.15659994,-1
1151,1152,1583237611992,-0.49899998,-0.24319999,0.2516,1.2367967,9.801871,-0.20062453,-1
1152,1153,1583237612002,-0.5771,0.2568,-0.109,1.4032798999999998,10.199692,-0.674437,-1
1153,1154,1583237612012,-0.3762,0.61079997,-0.5869,1.598934,10.393546,-1.007662,-1
1154,1155,1583237612023,-0.1793,0.7694,-0.85649997,1.9970419999999998,10.461503,-1.0732535,-1
1155,1156,1583237612033,0.2604,0.83989996,-0.8918,2.4917797999999998,10.527985000000001,-0.69747883,-1
1156,1157,1583237612043,0.6426,0.89049995,-0.5652,2.7874637000000004,10.468829,-0.342888,-1
1157,1158,1583237612053,0.9417,0.8322,-0.2436,2.7938322999999996,10.484765,-0.1100854,-1
1158,1159,1583237612063,0.9334,0.8709,0.022599999,2.752288,10.683971000000001,0.20734744,d
1159,1160,1583237612073,0.91099995,1.0361999,0.23779999,2.6614711,10.728954,0.21610065,-1
1160,1161,1583237612084,0.8242,1.0831,0.23719999,2.4071496,10.696814999999999,0.16557339999999998,-1
1161,1162,1583237612094,0.5934,1.0411,0.1845,2.2486248,10.587543,0.24099077,-1
1162,1163,1583237612104,0.44129997,0.9403,0.26,2.3272312000000004,10.545721,0.31632194,-1
1163,1164,1583237612114,0.5807,0.7597,0.28300000000000003,2.3662755,10.389639,0.26711630000000003,-1
1164,1165,1583237612124,0.5807,0.7597,0.28300000000000003,2.4850953,10.3785,0.19816329,-1
1165,1166,1583237612135,0.7061,0.7191,0.183,2.7857017999999996,10.387186,-0.038134847,-1
1166,1167,1583237612145,1.0758,0.7161,-0.3267,2.7851557999999996,10.38212,-0.34455436,-1
1167,1168,1583237612156,1.0758,0.7161,-0.3267,2.6757407000000004,10.306177,-0.35339373,-1
1168,1169,1583237612165,0.68869996,0.4059,-0.24129999,2.337689,10.030996,-0.17215268,-1
1169,1170,1583237612175,0.3105,0.1566,-0.0413,1.9297266,9.784116000000001,0.021997925,-1
1170,1171,1583237612185,0.3105,0.1566,-0.0413,1.5604066,9.58422,0.114117235,-1
1171,1172,1583237612195,-0.5186,-0.3232,0.33319998,1.0740771,9.294339,0.45035893,-1
1172,1173,1583237612206,-0.7959,-0.6317,0.5846,0.74256647,8.992189999999999,0.65495783,-1
1173,1174,1583237612216,-1.1715,-0.9302,0.6113,0.3564583,8.69258,0.67238766,-1
1174,1175,1583237612226,-1.4981999,-1.2679,0.65639997,-0.102558024,8.255868,0.814584,-1
1175,1176,1583237612236,-1.9332,-1.7034999,0.9425,-0.6080026999999999,7.845071300000001,1.1383855,-1
1176,1177,1583237612246,-2.5946999,-2.1878,1.3987,-1.2506831,7.408761,1.6199263000000002,-1
1177,1178,1583237612257,-3.3565998,-2.7501,2.0159,-2.032706,6.827171300000001,2.2965472,-1
1178,1179,1583237612267,-4.1317997,-3.449,2.9538999,-3.0044742,5.944113300000001,3.5227422999999995,-1
1179,1180,1583237612277,-4.9803,-4.3138,4.0003,-3.9023093999999996,4.984776,4.5933714000000005,-1
1180,1181,1583237612287,-5.8947,-5.3149,5.0908,-4.856121,3.9598181000000006,5.679142,-1
1181,1182,1583237612297,-6.8402996,-6.3143997,5.9926,-5.862806299999999,2.9468791000000003,6.4161444,-1
1182,1183,1583237612307,-7.9308996,-7.3996,6.5653,-6.7885575,1.9624505,6.938387,-1
1183,1184,1583237612318,-8.7032995,-8.0591,7.0688,-7.4094605,1.442018,7.481708,-1
1184,1185,1583237612328,-9.1719,-8.4685,7.6723,-7.540864,1.0726118999999998,8.236657000000001,-1
1185,1186,1583237612338,-8.9262,-8.8328,8.5893,-6.987793400000001,0.64795715,9.111239999999999,-1
1186,1187,1583237612348,-8.464499,-9.269199,9.2633,-6.236378,0.13556927,9.5443125,-1
1187,1188,1583237612358,-7.9298997,-9.6202,9.4275,-5.488382,-0.34603876,9.406235,-1
1188,1189,1583237612368,-7.3504,-10.090199,9.1494,-4.7913914,-0.7269946,8.840686,-1
1189,1190,1583237612379,-6.5306,-10.3828,8.2521,-3.4913971,-0.8321478999999999,7.4152255,-1
1190,1191,1583237612389,-5.6691,-10.092899000000001,7.0262,-2.5900090000000002,-0.38452795,6.2846932,-1
1191,1192,1583237612399,-4.6099997,-9.2673,5.7935,-0.77131605,0.6823858,4.95775,-1
1192,1193,1583237612409,-3.2133,-8.2869,5.0878997,1.1526549,1.3127695,4.3307085,-1
1193,1194,1583237612419,-1.5486,-7.7014,4.4831,3.0444477,1.5005037,3.3818386,-1
1194,1195,1583237612429,-0.163,-7.562,3.4722,4.4873185,1.3595618,2.2978687,-1
1195,1196,1583237612440,0.86289996,-7.5374,2.508,5.825275,1.5031085,1.0772089,-1
1196,1197,1583237612450,2.1434,-6.9105,1.1256,7.96956,2.6270523,-0.75852144,-1
1197,1198,1583237612460,4.2488,-5.2854,-0.7398,11.037835000000001,4.650737,-2.8019056,-1
1198,1199,1583237612470,6.4556,-3.4182,-2.1703,12.8067665,5.779124299999999,-3.3792434,-1
1199,1200,1583237612480,8.2167,-1.9627,-2.5958997999999998,14.707189000000001,6.671787700000001,-3.2859077000000005,-1
1200,1201,1583237612490,9.6633,-1.0733,-2.224,16.387707000000002,7.1774144,-2.4804504,-1
1201,1202,1583237612500,10.715,-0.50119996,-1.6442,17.632960999999998,7.635856599999999,-2.7388902,-1
1202,1203,1583237612510,12.162,0.39139998,-2.4808,19.417551,8.565563000000001,-4.399460299999999,-1
1203,1204,1583237612520,13.7436,1.685,-4.5257,21.363796,9.868402,-6.6630635,-1
1204,1205,1583237612530,15.4106,3.2786998999999994,-6.7781,22.857012,11.261778999999999,-8.646927999999999,-1
1205,1206,1583237612540,16.3639,4.6656,-8.5043,23.4251,12.042614,-9.754715,-1
1206,1207,1583237612551,16.3857,5.2081,-9.1214,23.304134,12.001664,-9.672814,-1
1207,1208,1583237612561,16.0581,5.2039,-8.9411,22.995808,11.598125999999999,-9.5864315,-1
1208,1209,1583237612571,15.712299,4.9181,-9.1339,22.840733,11.272208000000001,-10.612805999999999,-1
1209,1210,1583237612581,15.509198999999999,4.698,-10.3019,22.928244,11.061969,-12.100526,-1
1210,1211,1583237612592,15.6173,4.6321,-11.8276,23.16122,11.026917,-13.849212,-1
1211,1212,1583237612602,15.711499,4.5822997,-13.5666,22.731346,10.713402,-15.2758875,-1
1212,1213,1583237612612,15.210899,4.2851,-14.712299,21.841766,10.242911999999999,-15.711144,-1
1213,1214,1583237612622,14.1816,3.7482,-15.008598999999998,20.533413,9.511512,-15.300070000000002,-1
1214,1215,1583237612632,12.839999,2.9210000000000003,-14.430698999999999,19.401442000000003,8.709589,-14.708893,-1
1215,1216,1583237612643,11.381499,1.8339,-13.7272,17.28131,7.3050065,-13.590504000000001,-1
1216,1217,1583237612653,9.5506,0.5473,-12.6437,14.760742,5.7106023,-12.352739999999999,-1
1217,1218,1583237612663,7.5227,-0.88699996,-11.6581,12.552014,4.217798,-11.446583,-1
1218,1219,1583237612673,5.4128,-2.4933999,-10.7713995,10.503017999999999,2.8236928,-10.620008,-1
1219,1220,1583237612683,3.4710998999999996,-3.9996998,-9.9557,8.648221000000001,1.6790346,-9.847045,-1
1220,1221,1583237612693,1.7311,-5.2619,-9.179299,7.290258000000001,0.7678301,-8.77902,-1
1221,1222,1583237612704,0.4912,-6.2746,-8.103,6.419850299999999,-0.009921572,-7.4579864,-1
1222,1223,1583237612714,-0.2729,-7.1425,-6.7764997000000005,5.562889,-0.7141042,-6.1535964000000005,-1
1223,1224,1583237612724,-1.0336,-7.9437,-5.4803,4.79798,-1.341385,-4.982602,-1
1224,1225,1583237612734,-1.6935999,-8.658299000000001,-4.3307,4.357284,-1.7297436000000002,-3.906274,-1
1225,1226,1583237612744,-2.3458,-9.6758995,-2.1908,3.8881836000000005,-2.313814,-2.538189,-1
1226,1227,1583237612754,-2.7596,-10.1565,-0.9338,3.4256525,-2.6977002999999997,-1.240752,-1
1227,1228,1583237612764,-2.7596,-10.1565,-0.9338,3.0129976000000003,-3.0075867,-0.32275754,-1
1228,1229,1583237612775,-3.7689998,-10.8807,1.2134,2.2594178,-3.3078098,0.96542835,-1
1229,1230,1583237612785,-4.4677,-10.915199000000001,2.1626,1.5481675,-3.2497554,1.9397631000000002,-1
1230,1231,1583237612795,-5.1468,-10.6202,2.6897,0.88790405,-2.908457,2.4046404,-1
1231,1232,1583237612806,-5.4269,-10.2677,2.8674998,0.7574488,-2.5919054,2.6758175,-1
1232,1233,1583237612816,-5.0931997,-9.984099,3.3797998,1.2366913999999998,-2.3072157000000004,3.3992972000000004,-1
1233,1234,1583237612826,-4.4851,-9.6729,4.3845997,2.006255,-2.1490355,4.928962,-1
1234,1235,1583237612836,-4.1063,-9.8382,5.8971995999999995,2.3523798,-2.4490192000000004,6.790014,-1
1235,1236,1583237612846,-3.9926998999999994,-9.9618,7.9427,2.367808,-2.5649276000000003,8.617201,-1
1236,1237,1583237612856,-4.7613,-10.033999,10.1363,1.5138824,-2.725243,10.925117,-1
1237,1238,1583237612867,-5.9528,-10.0429,12.0317,0.25663927,-2.776843,13.193995000000001,-1
1238,1239,1583237612877,-6.9358997,-9.7269,13.6847,-0.4527244000000001,-2.4683933,15.009403,-1
1239,1240,1583237612887,-7.254699700000001,-9.303699499999999,15.4862995,-0.07198885,-2.207435,17.108545,-1
1240,1241,1583237612897,-6.263999999999999,-8.8152,17.680999999999997,1.3841933000000002,-1.8618173999999998,19.477577,-1
1241,1242,1583237612907,-4.830899700000001,-8.1242,19.75,3.0877922000000004,-1.3121088,21.567370999999998,-1
1242,1243,1583237612917,-3.1322,-7.1794996,21.2579,5.0171356,-0.45825022,22.815217999999998,-1
1243,1244,1583237612927,-1.7275,-5.9912996,21.5141,6.2311974,0.42855249999999995,22.603628,-1
1244,1245,1583237612937,-1.3337,-4.8851,20.4642,6.5662127,1.2026075,21.513128,-1
1245,1246,1583237612947,-1.1536,-3.8830998,19.2752,6.9274119999999995,2.0069826,20.558214000000003,-1
1246,1247,1583237612957,-0.9729,-2.6176999,18.485198999999998,7.476048,3.06431,20.264982,-1
1247,1248,1583237612967,0.12,-1.2213,18.6728,9.176209,4.1379657,20.919691,-1
1248,1249,1583237612978,1.9798,0.1117,19.4222,11.297242,5.1258230000000005,21.812910000000002,-1
1249,1250,1583237612988,4.1316,1.4212999,19.9912,13.296888000000001,6.021331,22.415934,-1
1250,1251,1583237612998,5.7662997,2.5184,20.1505,15.079717,6.7576339999999995,22.60065,-1
1251,1252,1583237613008,7.3974,3.3404,19.7377,16.667475,7.125116,21.88421,-1
1252,1253,1583237613018,8.446,3.6608998999999995,17.9352,17.615818,7.0901312999999995,19.27972,-1
1253,1254,1583237613030,9.1741,3.9476,15.3032,18.515165,7.291981699999999,16.865025,-1
1254,1255,1583237613040,10.1348,4.4206,12.7478,19.647270000000002,7.747225299999999,14.334957000000001,-1
1255,1256,1583237613050,11.4303,5.1597,10.1193,20.926395,8.250016,12.669319999999999,-1
1256,1257,1583237613060,13.2301,5.9073997,8.3531,23.108632999999998,8.907838,10.794871,-1
1257,1258,1583237613070,14.530999,6.321399700000001,7.0248,23.901096,8.709177,9.564778,-1
1258,1259,1583237613081,15.1886,6.0720997,5.7633,24.211308,8.427877,8.456733,-1
1259,1260,1583237613091,15.5511,5.8894,4.5207,24.910606,8.457259,6.657719,-1
1260,1261,1583237613101,16.3562,5.93,2.4898,25.895897,8.74939,4.3356695,-1
1261,1262,1583237613111,17.435799,6.2555,0.104499996,26.849133000000002,9.282119,2.1084394,-1
1262,1263,1583237613121,18.306099,6.6861997,-2.0946,26.882890000000003,9.467094,0.6253367,-1
1263,1264,1583237613131,18.187898999999998,6.6352,-3.3736,26.264985999999997,9.286783,0.25523147,-1
1264,1265,1583237613142,17.1848,6.1671,-3.5205,24.510239000000002,8.740838,0.5328823,-1
1265,1266,1583237613152,15.71,5.49,-3.181,23.117119,8.365877000000001,0.7037515999999999,-1
1266,1267,1583237613162,14.425699,4.9082,-2.9550998,22.138838,8.281113000000001,0.5754895000000001,-1
1267,1268,1583237613172,13.5633,4.598099700000001,-3.0537,21.035791,8.207419,0.016644489,-1
1268,1269,1583237613182,12.4112,4.1905,-3.5031,19.495275,7.6386433,-0.4488362,-1
1269,1270,1583237613193,10.9424,3.2048,-3.7231,17.55491,6.285124,-0.35299152,-1
1270,1271,1583237613203,9.44,1.7221999,-3.4411,15.811078,4.941,0.05147534,-1
1271,1272,1583237613213,7.8047,0.0412,-2.8655999,14.117285999999998,3.6967049,0.79921323,-1
1272,1273,1583237613223,6.2507997,-1.5277,-1.885,12.637343,2.7837095,1.7017316000000002,-1
1273,1274,1583237613233,4.9137,-2.7723,-0.72969997,10.907523,2.1977333999999997,1.6487813999999998,-1
1274,1275,1583237613243,3.3332998999999996,-3.6883,-0.47669998,9.612471000000001,1.673748,0.31887895,-1
1275,1276,1583237613254,2.2054,-4.5327,-1.4649,9.018737,1.3255928999999997,-1.2587947,-1
1276,1277,1583237613264,1.7817999,-5.166,-2.6739,8.563456,1.1607186,-2.4526105,-1
1277,1278,1583237613274,1.5216,-5.5829997,-3.5398,7.848308,0.90489334,-3.5797239999999997,-1
1278,1279,1583237613285,0.982,-6.0790997,-4.3436,7.2231913,0.6622361999999999,-4.5891676,-1
1279,1280,1583237613294,0.5518,-6.5193,-5.0657,6.908057,0.5014799,-5.105328599999999,-1
1280,1281,1583237613304,0.5022,-7.1477,-4.9782,6.787131,0.36196500000000004,-4.996402,-1
1281,1282,1583237613315,0.5022,-7.1477,-4.9782,6.7577686,0.37564066,-4.712603,-1
1282,1283,1583237613325,0.7170000000000001,-7.6050997,-4.0032,6.589896700000001,0.109319255,-4.679247,-1
1283,1284,1583237613335,0.2676,-8.1974,-4.3644,5.7749486,-0.36526898,-5.400486,-1
1284,1285,1583237613345,-0.6532,-8.8154,-5.0185,4.682043599999999,-0.8766129999999999,-6.3473544,-1
1285,1286,1583237613355,-1.0367,-9.1911,-5.8092,4.3285922999999995,-1.1029799999999998,-7.3123994,-1
1286,1287,1583237613365,-0.4797,-9.3918,-6.2981,4.7888246,-1.2228338,-7.9238786999999995,-1
1287,1288,1583237613375,-0.070599996,-9.538799000000001,-6.5025997,4.993979,-1.3472364,-8.297029499999999,-1
1288,1289,1583237613386,0.119899996,-9.7845,-6.8248997000000005,4.98648,-1.5667752000000001,-8.80165,-1
1289,1290,1583237613396,0.174,-10.012899,-7.1663,5.004235700000001,-1.6752037,-9.228144,-1
1290,1291,1583237613406,0.79219997,-9.9011,-7.4385996,5.669230000000001,-1.4648876,-9.633128,-1
1291,1292,1583237613416,1.9195,-9.6263,-7.8806,6.8143864,-1.1020796999999998,-10.379314,-1
1292,1293,1583237613426,2.7865,-9.3984995,-8.4677,7.2825007,-0.95520985,-10.971468,-1
1293,1294,1583237613436,2.9826999,-9.4559,-9.2382,7.209612,-1.0187329,-11.952027000000001,-1
1294,1295,1583237613447,2.5909,-9.7205,-10.339399,6.616376400000001,-1.3154606000000002,-13.216367000000002,-1
1295,1296,1583237613457,2.1392,-10.054399499999999,-11.842299,6.177098,-1.5796847,-15.29778,-1
1296,1297,1583237613467,2.4203,-10.064099,-13.58,6.6223717,-1.3309368000000001,-16.90471,-1
1297,1298,1583237613478,3.1864,-9.6448,-14.756499,7.449874400000001,-0.91017014,-17.60941,-1
1298,1299,1583237613488,4.0999,-9.331099499999999,-14.7611,8.232242999999999,-0.44512996,-16.9984,-1
1299,1300,1583237613498,4.5955,-8.9386,-13.9844,8.536335000000001,-0.19754079,-16.01559,-1
1300,1301,1583237613508,4.9207997,-8.8384,-12.3298,8.565438,-0.15696387,-13.785143,-1
1301,1302,1583237613518,4.5232997,-9.1165,-9.930099499999999,7.8965564,-0.48733497,-11.399761999999999,-1
1302,1303,1583237613528,3.8497,-9.5718,-8.129,7.3244567,-0.7949803000000001,-10.068164,-1
1303,1304,1583237613538,3.1831,-9.9347,-7.2490997,6.3366,-1.1500691,-8.936999,-1
1304,1305,1583237613548,2.3472,-10.1447,-6.2404,5.5172176,-1.1076822,-7.144719,-1
1305,1306,1583237613558,2.0169,-10.044,-4.4539,5.433593,-0.9309805,-5.1572733,-1
1306,1307,1583237613568,1.8125999,-9.679999,-1.7451999,5.157321499999999,-0.35992515,-1.9722667,-1
1307,1308,1583237613579,1.8826,-9.0896,1.3587999,5.964761,0.18468872,2.2544087999999998,-1
1308,1309,1583237613589,3.072,-8.7983,4.8329997,7.951795,0.6949314,6.207121,-1
1309,1310,1583237613599,5.4158,-8.0595,8.6631,10.381364,1.5561545,10.4986515,-1
1310,1311,1583237613609,7.276799700000001,-7.1007,12.8334,11.300181,2.740767,14.952670999999999,-1
1311,1312,1583237613620,7.5972,-5.75,16.8466,11.818307,4.470003599999999,19.163698,-1
1312,1313,1583237613630,8.0201,-4.210099700000001,19.667799,12.135624,5.7716346,20.805593,-1
1313,1314,1583237613641,8.066,-2.6469998,21.1992,11.7922,7.218594599999999,21.782743,-1
1314,1315,1583237613651,7.6671996,-1.5324999,21.555899,11.407786999999999,8.155819000000001,21.552498,-1
1315,1316,1583237613661,7.1621,-0.6077,21.0856,10.488375,8.792782,20.670303,-1
1316,1317,1583237613671,6.1018996,-0.011000000000000001,19.9869,9.493785,9.10038,19.664938,-1
1317,1318,1583237613681,4.7528996,0.38369998,18.511599,7.896575,9.536317,17.43176,-1
1318,1319,1583237613691,3.4276998,0.76129997,16.2791,6.445392,9.928161,14.523926999999999,-1
1319,1320,1583237613702,1.8791,1.1797,13.2081995,4.6813064,10.312947,11.172091499999999,-1
1320,1321,1583237613712,0.1443,1.5022,9.8532,3.3804116,10.428425,8.066248,-1
1321,1322,1583237613722,-0.99759996,1.6056,6.9378,2.8368225,10.489639,6.2449975,-1
1322,1323,1583237613732,-1.4058,1.6322,5.4930997,2.7409298,10.5039,5.9393153,-1
1323,1324,1583237613743,-1.4545,1.6427,5.3828,3.0491116000000003,10.403103999999999,6.292795,-1
1324,1325,1583237613753,-1.044,1.548,5.6768,3.4454187999999997,10.322524000000001,6.327453599999999,-1
1325,1326,1583237613763,-0.7693,1.4733,5.6187,3.3293769999999996,10.193667999999999,5.9324775,-1
1326,1327,1583237613773,-0.9305,1.2974,5.0091,2.9875805,9.989394,4.652345700000001,-1
1327,1328,1583237613784,-1.2141,1.1475999,3.8736,2.6386786,9.880248,3.6709146,-1
1328,1329,1583237613794,-1.5439999,1.0254999,2.8813999,2.302092,9.931848,3.2635076,-1
1329,1330,1583237613804,-1.8641,1.0803,2.4452999,2.5904592999999996,9.9757,3.4694949999999998,-1
