,Seq,Time,ACCx,ACCy,ACCz,ADGx,ADGy,ADGz,Keydown
0,1,1583237886115,2.0217,0.36249998,-1.4117,8.914647,1.1479527,5.181627,-1
1,2,1583237886125,2.0217,0.36249998,-1.4117,-0.009155426999999999,8.845139,1.7795144,-1
2,3,1583237886136,0.046699997,-0.9072,-0.1546,-0.55130804,8.698681,1.5130205,-1
3,4,1583237886146,-0.1805,-1.1989,0.0514,-0.74432856,8.434073,1.7500561000000001,-1
4,5,1583237886156,-0.0448,-1.1553,0.235,-0.60833794,8.5456915,1.9540707999999998,-1
5,6,1583237886166,0.021399999,-0.9343,0.4201,-0.62173593,8.782995,2.174481,-1
6,7,1583237886177,0.0632,-0.7514,0.5586,-0.520126,8.969704,2.3439042999999997,-1
7,8,1583237886187,0.2674,-0.5898,0.7413,-0.18730319,9.165453999999999,2.6526892,-1
8,9,1583237886197,0.8655,-0.23189999,1.1654,0.6307668000000001,9.602654,3.101717,-1
9,10,1583237886207,1.8483,0.2436,1.4562,1.3876506000000002,9.941616,3.2382247000000004,-1
10,11,1583237886217,2.1292,0.3762,1.1927,1.4052432,9.996157,2.8393509999999997,-1
11,12,1583237886227,1.5719,0.3462,0.6967,0.8686834000000001,9.973094999999999,2.3699436,-1
12,13,1583237886237,0.8652,0.3161,0.24929999,0.22020909,9.891912,2.0463433,-1
13,14,1583237886248,0.21609999,0.1415,0.1978,-0.42258617,9.643251,2.1995819,-1
14,15,1583237886258,-0.38819999,-0.09559999400000001,0.45549998,-0.8014734,9.515688,2.5601966,-1
15,16,1583237886268,-0.47469997,-0.0815,0.84639996,-0.7235948,9.538988,3.0386345,-1
16,17,1583237886278,-0.265,-0.0826,1.2018,-0.41951203,9.475465,3.572264,-1
17,18,1583237886288,0.014699998999999998,-0.0815,1.5119,-0.20916703,9.545902,3.8528738,-1
18,19,1583237886298,0.2546,0.17289999,1.7245,0.0595007,9.843387,4.0993233,-1
19,20,1583237886308,0.6491,0.5415,1.8959,0.6123219,10.174716,4.3432636,-1
20,21,1583237886319,1.0725,0.6617,1.964,0.78420645,10.0487995,4.2351035999999995,-1
21,22,1583237886329,0.9737,0.40739998,1.6588,0.37128323,9.798893,3.9003843999999996,-1
22,23,1583237886339,0.17559999,0.1532,1.1607,-0.61940867,9.515821,3.4730003,-1
23,24,1583237886349,-0.82799995,-0.2742,0.8698,-1.9224961,8.856917999999999,3.4266292999999997,-1
24,25,1583237886359,-1.9275,-0.87149996,0.9619,-3.1281872,8.186838999999999,3.7811913,-1
25,26,1583237886369,-2.9519,-1.4688,1.3222,-3.9550872000000004,7.7388452999999995,4.4167466,-1
26,27,1583237886380,-3.4206998,-1.7601,1.959,-4.2233624,7.433105499999999,5.2638435,-1
27,28,1583237886390,-3.4354,-2.0867,2.6768,-4.348464,7.017347999999999,5.9089849999999995,-1
28,29,1583237886400,-3.4710998999999996,-2.5428998,3.2768,-4.6348294999999995,6.419046400000001,6.844544,-1
29,30,1583237886410,-3.5279998999999997,-2.9099,3.8298997999999997,-4.832887599999999,6.050234,7.5083027,-1
30,31,1583237886420,-3.4856,-3.139,4.1289997000000005,-5.1171846,5.6567135,7.757376700000001,-1
31,32,1583237886430,-3.6132998,-3.4826,3.9403,-5.6751294,5.049304,7.608955,-1
32,33,1583237886441,-3.9701998,-3.9545,3.4111998,-6.371967,4.3767443,7.0731896999999995,-1
33,34,1583237886451,-4.541,-4.611399700000001,2.7382,-6.9987205999999995,3.5702910000000005,6.258568,-1
34,35,1583237886461,-4.9646,-5.2846,2.1121,-7.5703892999999995,2.7341497,5.711914,-1
35,36,1583237886471,-5.4831,-6.1292,1.6017,-8.165645,1.9510637999999998,5.30806,-1
36,37,1583237886481,-6.2211,-7.1703997,1.1702,-9.0640545,0.5932831999999999,4.9402056,-1
37,38,1583237886491,-6.8008,-8.2904,0.9709,-9.1309395,-0.407292,5.0347285,-1
38,39,1583237886502,-6.6555,-9.2469,1.1007999,-8.503975,-1.3607111,5.161449,-1
39,40,1583237886512,-5.9416,-10.191199000000001,1.2393,-7.2814283,-2.1191463,5.0747404000000005,-1
40,41,1583237886522,-4.5968,-10.9212,1.0574,-5.933981,-2.5630502999999996,4.7272654,-1
41,42,1583237886532,-3.0217,-11.4472,0.6755,-4.4013376,-3.0747294,4.3883514,-1
42,43,1583237886542,-2.0262,-11.8649,0.44619998,-3.6982946000000005,-3.3628957,4.032094,-1
43,44,1583237886552,-1.4749999,-12.200999000000001,0.0655,-3.0243554,-3.7530644,3.4217739999999996,-1
44,45,1583237886563,-0.9037,-12.6493,-0.54609996,-1.9926462,-4.081357499999999,2.5371832999999997,-1
45,46,1583237886573,0.0997,-12.9628,-1.4691,-0.29033047,-4.156401,1.0597982,-1
46,47,1583237886583,1.3291,-13.0695,-2.6891,0.7480252,-4.177365,-0.10699209,-1
47,48,1583237886594,2.1703,-13.130799,-3.8133,2.166877,-3.9335203,-1.1894298,-1
48,49,1583237886604,3.3774,-12.9169,-4.8993,3.3126557,-3.6531303,-1.6802412,-1
49,50,1583237886614,4.5273,-12.629499000000001,-5.4845,4.5575547,-3.60154,-1.9762316000000002,-1
50,51,1583237886624,5.3019,-12.608299,-5.7689,5.364199,-3.499432,-1.9823319,-1
51,52,1583237886634,5.8722997,-12.4782,-5.8615,5.3505235,-3.3800862,-1.7329423,-1
52,53,1583237886645,5.6001997,-12.3068,-5.731,5.5944357,-3.1740506,-1.0812788999999998,-1
53,54,1583237886655,7.4249997,-11.134999,-4.6123,8.249039999999999,-2.15843,-0.086583905,-1
54,55,1583237886665,10.0005,-9.9769,-4.2785997,11.109833,-1.1328692,0.30187052,-1
55,56,1583237886676,12.4657,-8.6861,-4.7146,13.852746,0.13053188,0.01805228,-1
56,57,1583237886686,14.512099,-6.9961,-5.3241997,16.329948,1.9066368000000002,-0.5239088,-1
57,58,1583237886696,16.259698999999998,-5.1878,-6.1226997,18.12451,3.2890010000000003,-0.85776585,-1
58,59,1583237886706,17.462,-4.0813,-5.9256,19.457829999999998,4.0485086,-0.013168108999999999,-1
59,60,1583237886716,18.5143,-3.2128,-4.857,20.593239,4.5370502,1.3265601,-1
60,61,1583237886726,19.671,-2.5284,-3.7972998999999996,21.910173,4.856571,2.5811314999999997,-1
61,62,1583237886737,20.1182,-2.0853999,-3.2039999999999997,22.341751000000002,4.991393599999999,3.5122172999999997,-1
62,63,1583237886747,20.2029,-1.2794,-2.207,23.048002,5.8249016,5.227940599999999,-1
63,64,1583237886757,21.6807,0.2922,-0.7733,25.205791,7.148435000000001,7.052408,-1
64,65,1583237886767,24.041999999999998,1.9669,0.81839997,27.673151,8.380289999999999,8.805242999999999,-1
65,66,1583237886777,26.032099,3.4842,2.0458998999999998,29.52021,9.434045,9.978784,-1
66,67,1583237886788,27.0278,4.638,2.3483999,30.101723,9.913219999999999,10.050264,-1
67,68,1583237886798,26.5084,4.9825,1.4347,29.17444,9.795444999999999,8.984769,-1
68,69,1583237886808,25.257599,5.1583,0.63379997,28.255715999999996,9.756536,8.816438,-1
69,70,1583237886819,24.9017,5.466,1.0153999,28.447561,9.817894,9.956747,-1
70,71,1583237886829,24.9303,5.8356,2.3871,28.297146,9.93316,11.569137,-1
71,72,1583237886839,24.376799,6.1805,3.8476998999999994,27.456831,9.8470545,12.907860000000001,-1
72,73,1583237886849,23.1715,6.1829,5.0292997,26.327005,9.48915,13.921632,-1
73,74,1583237886859,21.916999999999998,5.9599,5.8968997000000005,25.28208,9.025834,14.558076999999999,-1
74,75,1583237886870,20.739898999999998,5.5845,6.4115996,24.231907,8.300677,14.901385999999999,-1
75,76,1583237886880,19.438,4.8103,6.7865,22.955128,7.440001,15.397619,-1
76,77,1583237886890,17.8682,4.1398,7.4979997,21.385096,6.902771,16.0244,-1
77,78,1583237886900,16.054699,3.6639998,8.1504,19.709335,6.3902583,16.517378,-1
78,79,1583237886910,14.187099,3.0716,8.7312,18.017115,5.911332,16.942808,-1
79,80,1583237886920,12.3462,2.7103,9.2476,16.39264,5.7593,17.303814000000003,-1
80,81,1583237886931,10.6712,2.4929,9.698999,15.052107000000001,5.542663,17.55084,-1
81,82,1583237886941,9.255,2.0528998,10.1101,13.611669000000001,5.039009,18.064146,-1
82,83,1583237886951,7.9642,1.4736999,10.7709,12.562194,4.6058407,18.747873000000002,-1
83,84,1583237886962,6.8473,0.9151,11.612599000000001,11.713909,4.2604628,19.384012,-1
84,85,1583237886972,5.9228,0.4064,12.381599000000001,10.728322,3.9438440000000003,19.743707999999998,-1
85,86,1583237886983,4.7901,-0.1239,12.844299000000001,9.431191,3.6230593,19.858513000000002,-1
86,87,1583237886993,3.4306,-0.6579999999999999,13.1205,8.228525999999999,3.3257856,19.909714,-1
87,88,1583237887003,2.4415,-1.1334,13.338799,7.659846300000001,3.050979,19.860123,-1
88,89,1583237887013,1.7083,-1.7694999,13.4555,7.0108166,2.4417793999999997,19.645823,-1
89,90,1583237887023,1.0909,-2.6692998,13.373798999999998,6.254335,1.7634444,18.820303,-1
90,91,1583237887034,0.5056,-3.4773998,12.8236,5.496924400000001,1.5141124,17.854845,-1
91,92,1583237887044,-0.1866,-3.9959,12.0411,4.7362957,1.3127408,16.83614,-1
92,93,1583237887054,-0.84419996,-4.4772,11.1973,4.003843,1.1574719999999998,15.662972,-1
93,94,1583237887064,-1.9894999,-5.5049996,9.155399000000001,3.2188127,0.753551,14.22516,-1
94,95,1583237887075,-2.4013,-6.2896,8.3361,2.551817,0.10354444,13.149664000000001,-1
95,96,1583237887085,-2.4013,-6.2896,8.3361,2.0040617,-0.352618,12.6181135,-1
96,97,1583237887095,-3.5367,-7.7718,7.1775,1.1195191,-0.7217273,11.854909,-1
97,98,1583237887105,-3.5367,-7.7718,7.1775,0.69177103,-0.75946,11.401983,-1
98,99,1583237887116,-4.3807,-8.2583,5.6871,-0.03342306,-0.7203004,9.970586,-1
99,100,1583237887125,-4.3807,-8.2583,5.6871,-0.13307929999999998,-0.59090817,8.79804,-1
100,101,1583237887135,-4.2503,-8.3713,3.1255999,-0.34778175,-0.52845776,7.2125998,-1
101,102,1583237887145,-4.3174,-8.6722,2.1083998999999998,-0.68477046,-0.6838989000000001,6.145504,-1
102,103,1583237887155,-4.4883,-8.8119,1.2149,-1.0440825999999999,-0.6364267,5.167022,-1
103,104,1583237887165,-4.4883,-8.8119,1.2149,-1.2072043,-0.47673342,4.340793,-1
104,105,1583237887175,-4.5235,-8.7533,0.2846,-1.3562195,-0.09502108,3.1681898,-1
105,106,1583237887185,-4.3968,-8.5806,-0.6101,-1.4707485,0.22251710000000002,2.536197,-1
106,107,1583237887195,-4.4233,-8.304999,-1.3256999,-1.6392238000000001,0.77567345,1.7103793999999999,-1
107,108,1583237887205,-4.0945,-7.539,-2.381,-1.3198755,1.2667338,1.1385003,-1
108,109,1583237887215,-3.4608998,-7.2194996,-2.7812,-0.81111723,1.6694673,0.60116494,-1
109,110,1583237887226,-3.0732,-6.9874997,-3.2403,-0.6108183,1.9280602,0.020111294,-1
110,111,1583237887236,-3.0732,-6.9874997,-3.2403,-0.60841453,2.0667994,-0.5964244000000001,-1
111,112,1583237887246,-2.7677999,-6.5116,-4.6886,-0.47461697,2.5767450000000003,-1.6533878,-1
112,113,1583237887256,-2.4844,-6.0432,-5.2826,-0.23036051,3.0840957,-2.2349012000000004,-1
113,114,1583237887267,-2.0424,-5.6556,-5.5585,0.22109973,3.4996812000000004,-2.534253,-1
114,115,1583237887277,-1.3457999,-5.1161,-5.7539997000000005,0.89180183,4.095895,-2.7763739,-1
115,116,1583237887287,-0.7945,-4.525,-5.835,1.3889339,4.7421856,-2.9026822999999995,-1
116,117,1583237887297,-0.4405,-3.9413998,-5.7469997,1.7086843,5.3950267,-2.8082453999999997,-1
117,118,1583237887307,-0.3462,-3.5605,-5.4287,1.7656375,5.756398,-2.469533,-1
118,119,1583237887317,-0.23359999,-3.2145998,-4.9059,1.8893125,6.0448900000000005,-2.0100569999999998,-1
119,120,1583237887327,-0.014699998999999998,-2.9138,-4.3552,2.0501834999999997,6.345458,-1.5236604,-1
120,121,1583237887337,-0.1103,-2.7382998,-4.1635,1.9212798,6.5276475,-1.4444793,-1
121,122,1583237887347,-0.1884,-2.3464,-4.0308,1.8932868000000003,7.016992999999999,-1.3893552,-1
122,123,1583237887357,-0.0661,-2.0518,-4.1019998,2.0325048,7.2834773,-1.5980914,-1
123,124,1583237887368,0.030499997999999997,-1.7764,-4.4536,2.2294424,7.653055999999999,-2.0734649,-1
124,125,1583237887378,0.4041,-1.2845,-4.8401,2.7811716,8.168672,-2.375077,-1
125,126,1583237887388,1.1514,-0.78099996,-4.8431,3.5551690000000002,8.683683,-2.2234857000000003,-1
126,127,1583237887398,1.6788,-0.2947,-4.3398,3.8864883999999997,9.119724,-1.6044216,-1
127,128,1583237887408,1.6409999,-0.061699998,-3.5707,3.7519152,9.183036999999999,-0.882043,-1
128,129,1583237887418,1.3455,-0.1406,-2.8732,3.4600332000000003,9.102707,-0.3240696,-1
129,130,1583237887429,0.8113,-0.18699999,-1.9580000000000002,2.8516665,9.073316,0.99017483,d
130,131,1583237887439,0.4757,-0.1803,-0.5999,2.7462451,9.126247,2.5053406000000003,-1
131,132,1583237887449,0.5772,-0.053099997,0.4082,2.956705,9.267016,3.0302837000000005,-1
132,133,1583237887459,0.85819995,0.17119999,0.58309996,3.2116107999999994,9.485942999999999,2.8746702999999996,-1
133,134,1583237887469,0.85819995,0.17119999,0.58309996,3.3054826,9.734643,1.9888153999999998,-1
134,135,1583237887479,1.0051,0.5818,-0.7567,3.3734684,9.920144,1.313823,-1
135,136,1583237887489,1.0572,0.7765,-1.2943,3.4945576000000003,10.110656,0.9463034,-1
136,137,1583237887500,1.1861,0.90169996,-1.4639,3.6474898000000002,10.157085,0.9864110999999999,-1
137,138,1583237887510,1.2401,0.9195,-1.2157999,3.5741312999999995,10.069131,1.3782749,-1
138,139,1583237887520,1.0253,0.7313,-0.7672,3.2347387999999997,9.834883,1.7051504000000002,-1
139,140,1583237887530,0.62979996,0.4646,-0.5004,2.7724759999999997,9.453812,1.8579580000000002,-1
140,141,1583237887540,0.1008,0.091,-0.4084,2.239795,9.210197,1.8601031000000003,-1
141,142,1583237887550,-0.35909998,-0.0254,-0.42299998,2.0537367,9.268816000000001,1.8552765,-1
142,143,1583237887561,-0.3832,0.096099995,-0.3548,2.2946508,9.367725,2.0087066000000005,-1
143,144,1583237887570,-0.012999999,0.18079999,-0.18959999,2.7566648,9.493689999999999,2.1983653999999997,-1
144,145,1583237887580,0.39069998,0.3155,-0.0218,3.1303804,9.583855999999999,2.2510765,-1
145,146,1583237887590,0.68549997,0.38059998,-0.0539,3.2718492,9.554378,2.0516584,-1
146,147,1583237887600,0.67899996,0.306,-0.3049,3.2253919,9.456953,1.8062813999999998,-1
147,148,1583237887610,0.5491,0.16049999,-0.62909997,3.0255623,9.267524,1.4859374,-1
148,149,1583237887620,0.32479998,-0.0058,-0.74619997,2.7866687999999997,9.032193,1.4649450000000002,-1
149,150,1583237887630,0.0547,-0.2311,-0.67039996,2.555341,8.883897,1.6368103,-1
150,151,1583237887640,-0.1846,-0.40649998,-0.4623,2.3619854,8.733885,1.8279154999999998,-1
151,152,1583237887650,-0.29729998,-0.5218,-0.27789998,2.4281514,8.673542,1.9667026,-1
152,153,1583237887660,-0.1584,-0.5379,-0.1626,2.649414,8.689908,2.0265481,-1
153,154,1583237887670,-0.003,-0.4847,-0.1249,2.6941664,8.7355995,1.9386234,-1
154,155,1583237887681,-0.0343,-0.4513,-0.3012,2.7141917,8.759685000000001,1.6433129000000002,-1
155,156,1583237887691,-0.0453,-0.44779998,-0.5347,2.6701189999999997,8.717642999999999,1.4454561000000001,-1
156,157,1583237887701,-0.163,-0.5232,-0.71889997,2.474647,8.572583,1.3353229,-1
157,158,1583237887711,-0.40699998,-0.70629996,-0.76739997,2.184096,8.320502000000001,1.4713806,-1
158,159,1583237887721,-0.6608,-0.89849997,-0.5936,2.0022613999999996,8.176658999999999,1.7023636000000002,-1
159,160,1583237887732,-0.81869996,-0.991,-0.3548,2.0904540000000003,8.182395,1.8761731,-1
160,161,1583237887742,-0.726,-0.99329996,-0.21679999,2.2183812,8.046347,1.8912948,-1
161,162,1583237887752,-0.599,-1.1114,-0.2174,2.4020547999999997,8.120289999999999,1.8842558999999997,-1
162,163,1583237887762,-0.45619997,-1.002,-0.22029999,2.7275127999999995,8.315273,1.7893497,-1
163,164,1583237887772,-0.21849999,-0.8125,-0.32349998,2.8846397,8.420703999999999,1.7958428,-1
164,165,1583237887782,-0.0801,-0.6903,-0.2829,2.917354,8.4921,2.0649414,-1
165,166,1583237887792,-0.0977,-0.5674,-0.020499998999999998,3.0244706000000003,8.672689,2.327327,-1
166,167,1583237887802,-0.0064999997,-0.3955,0.23199999999999998,3.157234,8.722593,2.4714577,-1
167,168,1583237887812,0.0751,-0.3425,0.3229,3.181482,8.766397999999999,2.3696852,-1
168,169,1583237887822,0.0598,-0.29119998,0.2245,3.17429,8.794697,2.1381273,-1
169,170,1583237887833,0.024999999,-0.2609,-0.0734,3.3656347,8.919933,1.7586561,-1
170,171,1583237887843,0.1656,-0.113299996,-0.37759998,3.5726376,9.047727,1.6710857,-1
171,172,1583237887853,0.40269998,0.045199998,-0.4678,3.8042046999999997,9.118892,1.6943574000000001,-1
172,173,1583237887863,0.54219997,0.116799995,-0.3967,3.7932677000000004,9.188419,1.8568566999999998,-1
173,174,1583237887873,0.45839998,0.1891,-0.2235,3.6311612,9.119112,2.1460857000000004,-1
174,175,1583237887883,0.2993,0.13419999,0.0126,3.400025,8.943999999999999,2.392727,-1
175,176,1583237887894,0.0346,-0.028099999,0.2444,3.0764534,8.858432,2.6800884999999997,-1
176,177,1583237887904,-0.3173,-0.1019,0.51309997,2.8154852000000004,8.774863999999999,2.7919169999999998,-1
177,178,1583237887914,-0.61149997,-0.16579999,0.6167,2.7635312,8.720908,2.8229363,-1
178,179,1583237887924,-0.6843,-0.18969999,0.6364,2.9219413,8.920824,2.8441584,-1
179,180,1583237887934,-0.5758,0.0127,0.65139997,3.5327593999999998,9.243036,2.7325312999999998,-1
180,181,1583237887944,-0.0128,0.35369998,0.5448,4.4088650000000005,9.687448,2.4222232999999997,-1
181,182,1583237887954,0.8218,0.8125,0.23809999,5.0932336,10.217974,1.9503455,-1
182,183,1583237887965,1.6422,1.5354999,-0.5579,5.305254,10.366347,1.558338,-1
183,184,1583237887975,1.4196,1.3958,-0.6313,5.0305047,10.191456,1.4981381999999999,-1
184,185,1583237887985,0.94079995,1.1067,-0.5329,4.5655513,9.894996,1.6388310000000001,-1
185,186,1583237887995,0.48639998,0.92509997,-0.3044,4.141356,9.727555,1.8580153999999998,-1
186,187,1583237888005,0.24769999,0.83349997,-0.151,3.9863267,9.638213,2.0033052,-1
187,188,1583237888015,0.3188,0.8619,-0.078999996,4.131463500000001,9.699667999999999,2.081452,-1
188,189,1583237888026,0.3188,0.8619,-0.078999996,4.334884,9.749391000000001,2.1666472000000003,-1
189,190,1583237888035,0.6386,0.94189996,0.007999999,4.4513764,9.717384,2.1532588,-1
190,191,1583237888045,0.7141,0.9325,-0.0034999999,4.583986299999999,9.726933,2.1510274,-1
191,192,1583237888055,1.0051,1.0303999,-0.0317,4.9520230000000005,9.8147135,2.1047043999999997,-1
192,193,1583237888065,1.4537,1.1077,-0.105799995,5.4105225,9.893119,1.9978558999999998,-1
193,194,1583237888075,1.6809,1.1141,-0.2268,5.5679746,9.862846000000001,1.9174299,-1
194,195,1583237888086,1.5723,0.9996,-0.1033,5.4080033,9.70934,2.0453281000000003,-1
195,196,1583237888096,1.5723,0.9996,-0.1033,5.052752,9.472448,2.1301212000000005,-1
196,197,1583237888106,0.58349997,0.2925,0.153,4.3746376,8.978477,2.3150494,-1
197,198,1583237888116,0.18679999,-0.0029,0.3249,4.008075700000001,8.720161000000001,2.4957159,-1
198,199,1583237888126,-0.0358,-0.1696,0.3983,3.8289413,8.577524,2.5602539,-1
199,200,1583237888136,-0.10569999,-0.1681,0.4043,3.8137622,8.601303999999999,2.5377676,-1
200,201,1583237888147,0.0556,-0.12629999,0.315,3.990167,8.631518,2.4482627,-1
201,202,1583237888157,0.2338,-0.084199995,0.2298,4.240754,8.693088000000001,2.3266947,-1
202,203,1583237888167,0.4206,-0.0523,0.1291,4.355742,8.672441000000001,2.2305243,-1
203,204,1583237888178,0.45929998,-0.1096,0.043399997,4.3763037,8.595902,2.0923026,-1
204,205,1583237888188,0.3653,-0.19759999,-0.14289999,4.2304106,8.507882,1.8956618000000003,-1
205,206,1583237888198,0.2129,-0.306,-0.2974,4.0936155,8.428701,1.7644308999999998,-1
206,207,1583237888208,0.051099997,-0.3455,-0.3753,3.9143763,8.395632,1.7230398999999998,-1
207,208,1583237888218,-0.1011,-0.3645,-0.2507,3.8251107,8.365159,1.9140877,-1
208,209,1583237888228,-0.1662,-0.4213,-0.051099997,3.7484963,8.248973,2.0779278000000003,-1
209,210,1583237888239,-0.2713,-0.5065,0.0279,3.6486006,8.22482,2.1563137,-1
210,211,1583237888249,-0.3193,-0.4732,0.057699997,3.653255,8.299049,2.0613884999999996,-1
211,212,1583237888259,-0.3208,-0.4195,-0.087299995,3.6387556000000005,8.36128,1.8837005,-1
212,213,1583237888269,-0.354,-0.3163,-0.2498,3.6477866000000003,8.489561,1.759566,-1
213,214,1583237888280,-0.3206,-0.1634,-0.3421,3.7328765,8.659923,1.6993948,-1
214,215,1583237888290,-0.2692,-0.00029999999,-0.38369998,3.7966485,8.805922,1.6996247,-1
215,216,1583237888300,-0.1794,0.1629,-0.3362,3.9905117,8.964628999999999,1.6635392,-1
216,217,1583237888310,0.0268,0.3365,-0.445,4.206708,9.15514,1.5056559999999999,-1
217,218,1583237888320,0.1652,0.56869996,-0.59319997,4.312426599999999,9.425886,1.3453306999999999,d
218,219,1583237888331,0.2651,0.8304,-0.7432,4.4855656999999995,9.743233,1.3357635,-1
219,220,1583237888341,0.3953,1.1317999,-0.6714,4.5825977,10.057064,1.4471034,-1
220,221,1583237888351,0.4488,1.4433999,-0.565,4.676737999999999,10.282503,1.4823363999999999,-1
221,222,1583237888361,0.5923,1.6469999999999998,-0.55039996,5.0098195,10.47129,1.5104635,-1
222,223,1583237888371,0.9138,1.8508999,-0.4904,5.3336782,10.788981,1.7567502000000002,-1
223,224,1583237888382,1.2666,2.2210999,-0.20709999,5.9381084,11.32059,2.1372847999999998,-1
224,225,1583237888392,1.9147999,2.7967,0.1353,6.6570296,11.918106,2.3915203,-1
225,226,1583237888403,2.5951,3.3504,0.3638,7.1738133,12.230138,2.5526881,-1
226,227,1583237888412,3.0558999,3.6153,0.5108,7.4020576,12.231555,2.7595952,-1
227,228,1583237888422,3.2498999,3.5804,0.7536,7.412305,12.164517,2.99416,-1
228,229,1583237888432,3.2457,3.5105,0.9848,7.273805,12.180779,3.0834541,-1
229,230,1583237888442,3.1011999,3.5147,1.0936999,7.267810000000001,12.271135000000001,3.3784389999999997,-1
230,231,1583237888452,3.198,3.6334998999999994,1.4492999,7.6009583,12.565928999999999,3.7397527999999998,-1
231,232,1583237888463,3.6042,3.8971,1.8441,7.9789357,12.622355,4.2498226,-1
232,233,1583237888473,3.9496998999999997,3.8925,2.2876,8.100983,12.673888,4.702269599999999,-1
233,234,1583237888483,4.1193,3.9029,2.7714999,8.294798,12.719867,4.800154,-1
234,235,1583237888493,4.376,3.9185,2.8983,8.353504,12.609763000000001,4.7502017,-1
235,236,1583237888503,4.5036,3.7424998,2.8497,8.477053999999999,12.442945,4.291462999999999,-1
236,237,1583237888513,4.7086997,3.5614998,2.4784,8.36877,12.185960000000001,3.6778576000000003,-1
237,238,1583237888523,4.6793,3.2584999,1.9255999,8.051383999999999,11.660586,3.4174547,-1
238,239,1583237888533,4.4674997,2.6778998,1.7017,7.4835080000000005,10.987604,3.6654942000000004,-1
239,240,1583237888543,4.015,1.9580000000000002,1.9971999,6.9647136,10.422889,3.9965546,-1
240,241,1583237888553,3.4963998999999997,1.1783,2.4411,6.111909,9.437043,4.439204,-1
241,242,1583237888563,2.9197,0.2895,2.8346999,5.418653,8.65524,4.6105046,-1
242,243,1583237888574,2.3609998,-0.5512,3.0367,4.67375,8.128114,4.429053,-1
243,244,1583237888584,1.7786,-1.1274998999999999,2.9039,4.059465,7.5732527,4.0403686,-1
244,245,1583237888595,1.3177999,-1.7425,2.5642998,3.5605227999999998,6.8879456999999995,3.5692758999999996,-1
245,246,1583237888605,0.5609,-3.1144998,1.795,2.8570678,6.1834373,3.0742795,-1
246,247,1583237888615,0.118499994,-3.7921,1.5467,2.2638423,5.5191517,2.7688177000000005,-1
247,248,1583237888625,0.118499994,-3.7921,1.5467,1.8316697,5.043156,2.500763,-1
248,249,1583237888635,-0.7188,-5.1679,0.8864,0.96487284,4.182411699999999,1.8770638,-1
249,250,1583237888646,-1.3903999,-5.9049997,0.4759,0.15630306,3.5503619,1.4782183999999998,-1
250,251,1583237888656,-2.1907,-6.6773,0.1047,-0.8185104999999999,2.831517,1.0065031999999998,-1
251,252,1583237888666,-2.9278,-7.268399700000001,-0.436,-1.7179258999999998,2.323793,0.39737046,-1
252,253,1583237888676,-3.4786,-7.6484,-0.9133,-2.3339732000000004,1.9897923,-0.15003026,-1
253,254,1583237888686,-3.8165,-7.9353,-1.4362,-2.8160026,1.7461008000000002,-0.7664893,-1
254,255,1583237888697,-4.2247,-8.2083,-2.0828,-3.5446637,1.3792325,-1.637701,-1
255,256,1583237888706,-4.8686,-8.625,-2.803,-4.1937222,1.0309911,-2.2212925,-1
256,257,1583237888716,-5.6408997,-9.0781,-3.2545998,-5.0940185,0.60238117,-2.6328267999999997,-1
257,258,1583237888726,-5.6408997,-9.0781,-3.2545998,-5.757758,0.20615034,-2.8214421,-1
258,259,1583237888736,-7.0400996,-10.1428995,-3.761,-6.628596300000001,-0.52485687,-3.2234862,-1
259,260,1583237888746,-7.5926,-10.833799,-4.1786,-7.265674000000001,-1.3523505,-3.754022,-1
260,261,1583237888757,-7.8708,-11.561999,-4.6535997,-7.5204744,-1.942502,-4.162712600000001,-1
261,262,1583237888767,-8.396,-12.2785,-5.2686996,-8.170884,-2.8051999,-4.916474299999999,-1
262,263,1583237888777,-8.396,-12.2785,-5.2686996,-8.3738165,-3.2272403,-5.32616,-1
263,264,1583237888787,-9.172,-13.5568,-6.5193996,-8.746115,-3.972354,-5.9023010000000005,-1
264,265,1583237888797,-8.999499,-13.940598999999999,-6.611000000000001,-8.159201,-4.281091,-5.772458599999999,-1
265,266,1583237888807,-8.1164,-14.093698999999999,-6.3929,-7.284368,-4.3536835,-5.4215545999999994,-1
266,267,1583237888818,-7.1537,-14.1326,-5.8638,-6.1620336,-4.4994426,-4.5725994000000005,-1
267,268,1583237888828,-6.8378997,-14.5272,-5.1589,-5.955481,-5.11187,-3.6865535000000005,-1
268,269,1583237888838,-7.0084995999999995,-15.178699499999999,-4.3905,-5.899447400000001,-5.7572503,-2.7515028,-1
269,270,1583237888848,-6.8564997000000005,-15.6839,-3.6982,-5.408818,-6.4166713,-1.902902,-1
270,271,1583237888858,-6.7407,-16.1882,-3.3325,-5.266612,-6.8512955,-1.6572185000000001,-1
271,272,1583237888868,-6.6554,-16.6399,-3.3804998,-4.4791207,-7.3335447,-1.7900393,-1
272,273,1583237888879,-6.035,-16.8282,-3.8593998,-3.6341684,-7.5272937,-2.0429628,-1
273,274,1583237888889,-5.5439,-16.8351,-4.1152997000000004,-2.777724,-7.492414999999999,-1.7339479,-1
274,275,1583237888899,-4.9707,-16.6048,-3.9039,-1.9957874,-7.4960154999999995,-1.1828889,-1
275,276,1583237888909,-4.6928,-16.5541,-3.4403,-1.3246063999999997,-7.8131710000000005,-0.17563865,-1
276,277,1583237888919,-4.2084,-16.7579,-2.5964,-0.02038902,-8.344291,1.139391,-1
277,278,1583237888930,-2.8529,-17.006899,-1.515,2.3534236,-8.601399,2.5260935,-1
278,279,1583237888940,-0.6358,-16.7484,-0.4314,5.2752113,-8.219408999999999,3.8016572,-1
279,280,1583237888950,1.9611,-15.6261,0.4588,8.244672999999999,-6.878082000000001,5.039038,-1
280,281,1583237888960,4.5674,-13.498698999999998,1.6507,11.932538000000001,-4.6823883,6.9449472000000005,-1
281,282,1583237888970,8.6123,-10.6654,3.4477,17.616229999999998,-2.422166,9.151367,-1
282,283,1583237888980,14.441899,-8.1664,5.3802,23.645098,-1.0442646999999998,11.465085,-1
283,284,1583237888991,19.1038,-6.6257,7.602699799999999,26.16627,-0.47830406,14.355126,-1
284,285,1583237889001,19.4609,-5.4944997,10.2894,23.582561,0.28970799999999997,17.900623,-1
285,286,1583237889011,16.6404,-4.3598,12.6033,20.287249,1.0530178999999997,19.926758,-1
286,287,1583237889021,13.0476,-2.8834999,14.4086,19.185774,2.450389,21.479494,-1
287,288,1583237889031,12.7175,-0.86759996,15.6758995,21.875870000000003,3.961925,22.453419,-1
288,289,1583237889042,15.6339,1.1126,16.1966,24.186121,5.180181,21.88539,-1
289,290,1583237889052,17.4023,2.7667,15.103,24.013191,5.84439,19.696753,-1
290,291,1583237889062,16.791199,3.6794,12.6517,22.469189,5.531822,17.587892999999998,-1
291,292,1583237889072,15.091498999999999,3.6427,10.6164,20.720112,4.993807,16.353144,-1
292,293,1583237889082,13.401898999999998,3.4898998999999997,9.4829,19.39271,4.490316,16.10745,-1
293,294,1583237889092,12.4001,3.4312,9.282499000000001,18.41982,3.9345067000000005,16.455779999999997,-1
294,295,1583237889103,11.4676,3.2128,9.552899,16.843657999999998,3.214934,16.961578,-1
295,296,1583237889113,9.5177,2.6371,10.1146,14.478407999999998,2.4236982000000005,17.454687,-1
296,297,1583237889123,7.625,2.3141,10.4192,12.947594,1.9935178,17.224194,-1
297,298,1583237889133,6.1333,2.1334999,10.1474,12.171615,1.4722426000000002,16.720991,-1
298,299,1583237889144,5.3819,1.8235999,9.6328,12.474662,1.0991971,15.949798000000001,-1
299,300,1583237889154,5.693,1.6445999,8.8638,13.037328,0.92205495,15.022428,-1
300,301,1583237889164,6.2558,1.6378,7.9631996,13.309424,0.9719214,14.387975,-1
301,302,1583237889175,6.5067,1.8342999,7.3559,12.956988,1.0676608,13.337389000000002,-1
302,303,1583237889185,5.9929,2.1887,5.4312997,12.804306,1.0913058999999998,12.218904499999999,-1
303,304,1583237889195,5.7572,2.3109,4.6626,12.484325,1.1313369,11.500250999999999,-1
304,305,1583237889205,5.1342,2.3917,4.1821,11.832997,1.1041005,11.099864,-1
305,306,1583237889215,4.6204,2.3243,4.1013,11.333031,0.9725439,11.0207205,-1
306,307,1583237889225,4.2321,2.3432,3.9422998,10.957619000000001,0.94099784,10.8452835,-1
307,308,1583237889235,3.9970999,2.3964999,3.8039,10.795399,0.9475388000000001,10.685255,-1
308,309,1583237889245,3.8569,2.3641,3.322,10.61407,0.8732899,10.073594,-1
309,310,1583237889255,3.4792,2.2619,2.3966,10.21241,0.7405745,9.099183,-1
310,311,1583237889265,3.0121999,2.0641,1.2919999,9.755414,0.55402786,7.984797,-1
311,312,1583237889276,2.5735,1.8634,0.37219998,9.324850999999999,0.4026377,7.1378913,-1
312,313,1583237889285,2.1516,1.696,-0.1831,8.909312,0.24896824,6.623740700000001,-1
313,314,1583237889295,2.1516,1.696,-0.1831,8.645414,0.13453498,6.368624700000001,-1
314,315,1583237889305,1.7858,1.5160999,-0.5203,8.46472,0.065658584,6.252285,-1
315,316,1583237889315,1.4236,1.3562,-0.6313,8.266882,0.012631808000000001,6.250504,-1
316,317,1583237889326,1.1560999,1.1414,-0.6831,7.9816270000000005,-0.21761379,6.156211,-1
317,318,1583237889336,0.7836,0.8497,-0.8059,7.612842999999999,-0.47182053,6.038972,-1
318,319,1583237889346,0.4371,0.6418,-0.8163,7.291742299999999,-0.65494823,6.071016,-1
319,320,1583237889357,0.30429998,0.4414,-0.7155,7.2367525,-0.8515218000000001,6.1826525000000006,-1
320,321,1583237889367,0.48169997,0.3655,-0.6491,7.4196786999999995,-0.89911854,6.2820983,-1
321,322,1583237889377,0.5335,0.34149998,-0.48589998,7.3891387,-0.8989269,6.523242,-1
322,323,1583237889387,0.4836,0.3353,-0.2214,7.344185,-0.893133,6.756734,-1
323,324,1583237889397,0.4466,0.2861,0.0491,7.2958317,-0.9621530999999999,7.038196000000001,-1
324,325,1583237889407,0.3348,0.1441,0.27609998,7.172971,-1.0959888999999998,7.2391086,-1
325,326,1583237889418,0.1725,0.0095,0.4159,7.018333999999999,-1.2124045,7.3101199999999995,-1
326,327,1583237889428,0.1792,-0.0951,0.33769998,7.2157598,-1.2478004999999999,7.201682000000001,d
327,328,1583237889439,0.75159997,-0.028299998,0.3125,7.9274507,-1.0951749,7.332683,-1
328,329,1583237889449,1.4301,0.16239999,0.6629999999999999,8.433011,-0.9058127,7.7855134,-1
329,330,1583237889459,1.6536,0.3836,1.0763999,8.45067,-0.6574861,8.117291999999999,-1
330,331,1583237889469,1.4968,0.5997,1.2416999,8.232471,-0.48849377,8.237337,-1
331,332,1583237889479,1.3773,0.7208,1.31,8.252431,-0.31716466,8.400497,-1
332,333,1583237889489,1.527,0.8161,1.4415,8.443612,-0.20262608,8.496763,-1
333,334,1583237889500,1.7192,0.9561,1.5282999,8.528922,-0.08027279400000001,8.629268,-1
334,335,1583237889510,1.7752,0.95419997,1.6735,8.625246,-0.16312174,8.733406,-1
335,336,1583237889520,1.8635999,0.77989995,1.7545998999999999,8.758718,-0.22739169,8.878936,-1
336,337,1583237889530,2.0086,0.7295,1.9849,8.907330499999999,-0.0552486,9.201722,-1
337,338,1583237889540,2.1385999,0.9055,2.3191,9.147383,0.24511836,9.534784,-1
338,339,1583237889550,2.5339,1.1733,2.6439,9.634507000000001,0.5112674,9.8737545,-1
339,340,1583237889561,3.0403,1.4154999,3.0059,10.191177,0.88325936,10.23594,-1
340,341,1583237889571,3.6067998,1.7939999,3.2889999999999997,10.487273,1.2028278000000001,10.4697485,-1
341,342,1583237889581,3.8427,1.9669,3.5296,10.659924499999999,1.333647,10.784385,-1
342,343,1583237889591,3.9752,1.9670999,3.6959998999999994,10.905636999999999,1.5883805,10.893225,-1
343,344,1583237889601,4.2160997,2.1648,3.7333998999999998,11.049528,1.7943871,10.841904,-1
344,345,1583237889612,4.4368,2.294,3.6431,11.22512,1.9131109,10.802638,-1
345,346,1583237889621,4.5132,2.1717,3.678,11.156203999999999,1.7963407999999998,11.091225999999999,-1
346,347,1583237889631,4.3707,1.9117998999999999,4.1491,10.982826,1.7406708,11.661313,-1
347,348,1583237889641,4.1909,1.7924999,4.7286,10.732814,1.8650064,12.368111,-1
348,349,1583237889651,3.9691,1.777,5.324,10.648451,2.0245657,12.952592999999998,-1
349,350,1583237889661,3.9833998999999998,1.8059,5.8341,10.882508999999999,2.2950819,13.090662,-1
350,351,1583237889671,4.2524,1.9346999,5.897599700000001,11.127886,2.5036932999999997,13.103763,-1
351,352,1583237889681,4.5436,1.9501,5.8947,11.322639,2.639732,13.025357000000001,-1
352,353,1583237889691,4.732199700000001,1.9060999,5.716,11.316673,2.7862282000000005,12.779386500000001,-1
353,354,1583237889701,4.6886,1.8592999,5.5025,11.241332,2.9725547000000003,12.537792999999999,-1
354,355,1583237889711,4.6294,1.7630999,5.3139,11.088352,2.967364,12.34777,-1
355,356,1583237889721,4.45,1.4437,5.1977,10.791663,2.7598154999999998,12.346947,-1
356,357,1583237889731,4.1155,0.9651,5.297999999999999,10.392971000000001,2.5133563999999997,12.557817,-1
357,358,1583237889742,3.7379,0.4466,5.5629,10.073508,2.3560092,12.474509,-1
358,359,1583237889752,3.4368,0.0251,5.4428997,9.639448,2.2256978,12.064449,-1
359,360,1583237889762,2.8400998,-0.4095,4.9302998,8.867931,2.2294807,11.211309,-1
360,361,1583237889772,2.299,-0.64849997,4.263099700000001,8.544675999999999,2.4222232999999997,10.41109,-1
361,362,1583237889783,2.0867999,-0.7554,3.55,8.445766,2.6368396,9.661245,-1
362,363,1583237889793,2.046,-0.8531,2.9376,8.415725,2.8013307999999997,9.161374,-1
363,364,1583237889803,2.0993,-1.0169,2.6689999999999996,8.391514,2.7604187000000002,9.145506,-1
364,365,1583237889813,2.0707,-1.4239998999999999,2.872,7.9266276,2.4937142999999997,9.388594,-1
365,366,1583237889824,1.7159,-1.9695,3.2247999,7.196739999999999,2.1170487000000002,9.273337,-1
366,367,1583237889834,1.0679,-2.6548,3.2653,6.314371599999999,1.8794004,8.998175999999999,-1
367,368,1583237889844,0.0199,-3.2326999,3.0707998,4.986586,1.8316027,8.380645,-1
368,369,1583237889854,-0.95729995,-3.5595999,2.7152998,4.3170333,1.7622186000000002,7.890177700000001,-1
369,370,1583237889864,-1.5123,-3.9227998,2.3896,3.6627457000000003,1.576783,7.386705999999999,-1
370,371,1583237889875,-2.7977998,-4.5151,1.4025999,2.6273396,1.7958619999999998,6.364267,-1
371,372,1583237889886,-3.2739999999999996,-4.3519,0.6895,2.1435957,2.199103,5.518022,-1
372,373,1583237889896,-3.0521998,-4.2476997,0.3143,2.3828723,2.5097457999999997,5.0494959999999995,-1
373,374,1583237889906,-2.5146,-4.1923,0.37129998,2.7776186000000003,2.778452,5.0166855,-1
374,375,1583237889916,-2.303,-4.1028,0.7615,2.7899919,3.043126,5.206469,-1
375,376,1583237889926,-2.6476998,-4.2216,0.9784,2.1297189999999997,3.0883286,5.1380906,-1
376,377,1583237889936,-3.1183,-4.3459,0.8038,1.6440599999999999,3.1778526,4.505572,-1
377,378,1583237889947,-3.3453,-4.3868,0.0843,1.3731418,3.3554258000000003,3.4626572,-1
378,379,1583237889957,-3.4864,-4.4295,-0.85029995,1.1012563,3.3824995,2.2694924,-1
379,380,1583237889967,-3.7064998,-4.6671,-1.7057999,0.84212697,3.3055787000000003,1.5211608,-1
380,381,1583237889977,-3.9677,-5.046,-1.9733,0.45931324,3.0112736,1.0834146,-1
381,382,1583237889988,-4.0186,-5.3381,-2.0516999,0.39577112,2.9515717,0.8032834,-1
382,383,1583237889998,-3.7847998,-5.327999999999999,-2.1462998,0.8271392,3.1836848,0.5397967,-1
383,384,1583237890008,-2.8367999,-4.8996997,-2.2351,1.7646990000000002,3.8462562999999994,0.24895866,-1
384,385,1583237890018,-2.0233,-4.2632,-2.3176,2.3045150000000003,4.446089700000001,0.16750793,-1
385,386,1583237890028,-1.7764,-4.1389,-1.9366,2.2506932999999996,4.3698583,0.61442876,-1
386,387,1583237890039,-2.0029,-4.5885997000000005,-1.2307999,1.7234135,3.7481897000000006,1.3460011,-1
387,388,1583237890049,-2.4203,-5.1624,-0.61539996,1.3662368,3.454153,1.5867332,-1
388,389,1583237890059,-2.6929,-5.4287,-0.4023,1.0992546,3.3821449999999995,1.5109041,-1
389,390,1583237890069,-2.7094,-5.446000000000001,-0.59029996,1.2558354,3.4401135000000003,0.97111696,-1
390,391,1583237890079,-2.3074,-5.4972,-1.0203999,1.626908,3.4034437999999994,0.2700947,-1
391,392,1583237890091,-2.0246,-5.5127997,-1.6606,1.604211,3.5229337,-0.56113386,-1
392,393,1583237890100,-2.0923,-5.3844,-2.3476,1.6497294999999998,3.7874355000000004,-1.5961281,-1
393,394,1583237890110,-1.9224999,-5.1891,-3.1520998,1.8929995,3.964319,-2.2956849999999998,-1
394,395,1583237890120,-1.5857999,-4.9553,-3.7863,2.168984,4.3584237,-2.5701468,-1
395,396,1583237890131,-1.1962,-4.4509,-3.6653,2.7296484,4.955978400000001,-1.9423487000000002,-1
396,397,1583237890141,-0.66069996,-3.9754,-2.6652,2.9876285,5.120374,-0.5868763000000001,-1
397,398,1583237890151,-0.6559,-3.9884,-1.2038,2.7861516,5.082622,0.7315148,-1
398,399,1583237890161,-0.8490000000000001,-3.9522998,-0.1108,2.5796182,5.258989,1.4215525,-1
399,400,1583237890171,-1.0074999,-3.7698,0.2769,2.5761514,5.467907,1.1931648000000001,-1
400,401,1583237890182,-0.9686,-3.5593,-0.07,2.7382197,5.668416000000001,0.3307159,-1
401,402,1583237890191,-0.7362,-3.3065998999999997,-1.1839,3.2999856,6.0890293,-1.0376183,-1
402,403,1583237890201,-0.16,-2.8939998,-2.1397998,3.9279273,6.4838142,-1.6069787,-1
403,404,1583237890211,0.5388,-2.4373999,-2.6759,4.469486,6.988301299999999,-1.9466392,-1
404,405,1583237890221,0.8735,-1.9972999,-2.7958998999999998,4.8297367,7.3648133,-1.7632433999999997,-1
405,406,1583237890232,1.2097,-1.6143999,-2.5351,4.9958754,7.6306367,-1.4103285,-1
406,407,1583237890242,1.2844,-1.3296,-2.0514,4.899552,7.7758117,-0.6542011999999999,-1
407,408,1583237890252,1.0993998999999999,-1.272,-1.3757,4.450208,7.801688,0.13701539,-1
408,409,1583237890262,0.59529996,-1.2262,-0.5808,4.0281773,7.868371499999999,0.95929915,-1
409,410,1583237890272,0.2392,-1.1422,0.1823,4.0387692,8.048328999999999,1.3101646999999998,-1
410,411,1583237890283,0.29119998,-0.91099995,0.4208,4.250235,8.392567999999999,1.0116268,-1
411,412,1583237890293,0.5254,-0.55189997,0.0369,4.592979,8.636221,0.34258154,-1
412,413,1583237890303,0.8265,-0.3496,-0.63269997,4.79617,8.677209,-0.39162436,-1
413,414,1583237890313,0.98179996,-0.3241,-1.2932999,4.822026999999999,8.682496,-1.0222571,-1
414,415,1583237890323,0.9637,-0.3187,-1.7565,4.678116999999999,8.688348,-1.0861248,-1
415,416,1583237890333,0.7326,-0.31329998,-1.7810999,4.3684125,8.757722,-0.8020001,-1
416,417,1583237890343,0.48349997,-0.22919999,-1.5227,4.181761,8.884308,-0.45171880000000003,-1
417,418,1583237890354,0.2722,-0.0949,-1.1717,4.171092,9.026782,-0.09945514,-1
418,419,1583237890364,0.24419999,0.0503,-0.8196,4.344949199999999,9.0460415,0.25867915,-1
419,420,1583237890374,0.44829997,0.0791,-0.37649998,4.5762196,9.008988,0.78863084,-1
420,421,1583237890384,0.6017,0.049599998,0.0602,4.620867,9.073929,0.9839211999999999,-1
421,422,1583237890394,0.6285,0.1274,0.2557,4.550505599999999,9.11508,0.8191809,-1
422,423,1583237890404,0.40089998,0.2025,-0.2647,4.4244847,9.128181,0.43404004,-1
423,424,1583237890414,0.40089998,0.2025,-0.2647,4.4089413,9.210504,0.1982016,-1
424,425,1583237890424,0.35209998,0.3277,-0.5136,4.3291283,9.368359,0.009212888,d
425,426,1583237890434,0.2643,0.46289998,-0.6569,4.1709104,9.3812,-0.15544115,-1
426,427,1583237890444,0.0788,0.48049998,-0.792,4.104811,9.375072,-0.28805122,-1
427,428,1583237890454,0.086899996,0.53679997,-0.93359995,4.2153849999999995,9.430819,-0.32200098,-1
428,429,1583237890464,0.46449998,0.5764,-0.8574,4.746189,9.487484,-0.24208252,-1
429,430,1583237890475,0.46449998,0.5764,-0.8574,5.3695626,9.760212,-0.10146627,-1
430,431,1583237890485,1.0755,0.8228,-0.69979995,5.8154297,10.013442,-0.21054609,-1
431,432,1583237890495,1.5317999,1.1312,-0.6897,5.959465,10.023421,-0.47663766,-1
432,433,1583237890505,1.5868,1.0327,-1.3657,5.794102,9.839834,-0.9313060999999999,-1
433,434,1583237890515,1.4564999,0.9253,-1.6164999,5.689504599999999,9.739498,-1.1592438,-1
434,435,1583237890525,1.554,0.7973,-1.9555,5.8469467,9.593796000000001,-1.5692651000000002,-1
435,436,1583237890536,1.8966,0.6299,-2.4754999,6.231542,9.458878,-2.1258502,-1
436,437,1583237890546,1.8966,0.6299,-2.4754999,6.68531,9.433241,-2.5068154,-1
437,438,1583237890556,3.0588,0.7468,-3.0621,7.544742599999999,9.658660000000001,-2.5942515999999998,-1
438,439,1583237890566,3.8214,0.9618,-2.745,8.266585000000001,9.863546000000001,-2.366314,-1
439,440,1583237890576,4.3321,1.1163,-2.9096,8.613457,9.958319,-2.8568569999999998,-1
440,441,1583237890586,4.3884,1.0325,-3.8248,8.642187,9.856957000000001,-3.7738172999999997,-1
441,442,1583237890597,4.6446,0.8886,-4.7644,8.997812,9.727967,-4.7472043,-1
442,443,1583237890607,5.4891996,0.8628,-5.5676,10.1404505,9.730236999999999,-5.6834426,-1
443,444,1583237890617,6.5910997,0.8854,-6.1748,11.203791,9.761792,-6.17455,-1
444,445,1583237890627,7.3777,0.8552,-6.4072,11.648251,9.64144,-6.3106365,-1
445,446,1583237890637,7.3662996,0.5334,-6.4593,11.277159,9.20653,-6.410523,-1
446,447,1583237890647,6.8039,-0.11009999,-6.4944,10.627038,8.534917,-6.3778276,-1
447,448,1583237890658,6.2251997,-0.7787,-6.3731,10.068164,7.9863577,-6.254335,-1
448,449,1583237890668,6.0464997,-1.2147,-6.1927,10.103033,7.6720853,-6.045359599999999,-1
449,450,1583237890678,6.4893,-1.4749999,-5.8946,10.551381,7.492511,-5.7773046,-1
450,451,1583237890688,6.8894,-1.6781,-5.7893,10.633157,7.2797427,-5.7479806,-1
451,452,1583237890698,6.7615,-2.1202,-5.6926,10.2140665,6.684352400000001,-5.517648,-1
452,453,1583237890709,6.1461997,-2.9972,-5.3104997,9.109678,5.6314306,-4.840587599999999,-1
453,454,1583237890719,5.2374997,-3.8760998,-4.6631,8.060472500000001,4.790846,-3.9861160000000004,-1
454,455,1583237890730,4.3066,-4.8331,-3.813,6.983915,3.8643660000000004,-2.8690486,-1
455,456,1583237890740,3.3689999999999998,-5.7681,-2.7430000000000003,5.926530400000001,3.064492,-1.6361591999999998,-1
456,457,1583237890750,2.4315999,-6.5231,-1.5421,4.8674026,2.4236982000000005,-0.2083147,-1
457,458,1583237890760,1.5006,-7.155999700000001,-0.2803,3.7555928,1.8430566000000002,0.91682607,-1
458,459,1583237890770,0.46499997,-7.7552,0.5026,2.6293027,1.3508948,1.4547266,-1
459,460,1583237890780,-0.45279998,-8.1935,0.7847,1.7627262,1.0040228,1.6214587999999999,-1
460,461,1583237890791,-1.1372,-8.5785,0.84209996,1.0630735,0.667197,1.913647,-1
461,462,1583237890801,-1.6876999,-8.8891,1.1877999,0.2455206,0.29101044,2.7667203,-1
462,463,1583237890811,-2.3876,-9.2417,1.9800999,-0.6405064,-0.07215167,3.9248915,-1
463,464,1583237890821,-3.5779,-9.8021,3.5542998,-2.5312936,-0.91719955,6.555554400000001,-1
464,465,1583237890831,-5.1527,-10.432099000000001,5.7001,-3.8972814,-1.0334811,8.50384,-1
465,466,1583237890841,-6.3641,-10.4163,7.2818,-4.6280779999999995,-0.85793823,9.237693,-1
466,467,1583237890852,-6.8729,-10.218699,7.6173,-3.7262876000000005,-0.48669332,8.8641205,-1
467,468,1583237890862,-5.6306996,-9.724299,6.9916,-2.1412877999999997,0.18050367,8.206192999999999,-1
468,469,1583237890872,-4.3161,-9.1114,6.3111,-2.4545357000000005,0.2520041,8.317812,-1
469,470,1583237890882,-5.0878,-9.1374,6.5712,-4.489004,-0.08192958,9.447127,-1
470,471,1583237890893,-7.3346,-9.476,7.7847,-7.224341000000001,-0.49478573,11.401121,-1
471,472,1583237890903,-10.1651,-9.847199,9.7436,-10.362785,-0.9862194999999999,14.118703,-1
472,473,1583237890913,-12.7775,-10.2064,11.8734,-11.542427,-1.3189945,16.195951,-1
473,474,1583237890923,-14.0279,-10.4809,13.7964,-10.762741,-1.4449486,17.650341,-1
474,475,1583237890934,-13.358298999999999,-10.532599000000001,15.086499,-8.880745,-1.284039,18.01379,-1
475,476,1583237890945,-10.165999000000001,-9.7274,14.7212,-6.797589,-0.5898355,17.245426000000002,-1
476,477,1583237890955,-9.0845995,-8.7035,13.436998999999998,-5.4499693,0.43940306,15.9444065,-1
477,478,1583237890965,-7.5666,-7.6257,12.0292,-3.7084650000000003,1.3397282,14.68317,-1
478,479,1583237890975,-7.0044,-6.7748,11.3508,-3.4961379,1.9326762999999998,14.46705,-1
479,480,1583237890985,-7.9389,-6.4139,12.222099,-4.176273,1.9995990000000001,15.639404,-1
480,481,1583237890995,-7.9089,-6.812599700000001,13.594999,-3.5923847999999996,1.3815405,17.013906,-1
481,482,1583237891006,-6.5504,-7.1721997,14.277498999999999,-1.7899148,0.97512966,17.591646,-1
482,483,1583237891016,-4.341,-6.9526997,13.9858,0.8788636000000001,1.0878199,17.17494,-1
483,484,1583237891026,-4.341,-6.9526997,13.9858,3.230142,1.4203649999999999,16.032494,-1
484,485,1583237891036,0.7874,-5.4114,10.4632,6.4132333,2.3786777999999997,13.637468,-1
485,486,1583237891046,2.54,-4.0854,8.9563,8.177894,3.4444517999999995,12.567903,-1
486,487,1583237891057,3.2071,-3.1517,9.1076,9.00601,4.024719999999999,13.35798,-1
487,488,1583237891067,3.4552,-3.0289,9.958099,9.315983000000001,3.6087708,14.248651500000001,-1
488,489,1583237891077,3.3802998,-3.4582998999999996,10.4401,9.402136,2.8855492999999997,14.656891,-1
489,490,1583237891087,3.4987,-3.9106998,10.448,10.011173,2.297294,14.593962,-1
490,491,1583237891097,4.9210997,-3.8488998,9.8407,12.225760000000001,2.569802,13.897517,-1
491,492,1583237891108,7.5474,-2.8039,8.8068,15.148497,3.5480442,13.003263,-1
492,493,1583237891118,10.4442,-1.4071,7.8410997,18.070831,4.722639599999999,12.194502,-1
493,494,1583237891128,12.7878,-0.11109999599999999,6.8753,20.012327,5.457621,11.465535000000001,-1
494,495,1583237891138,13.731,0.3324,6.0836,20.32612,5.3998733,10.850178,-1
495,496,1583237891148,13.1565,0.25439999,5.376,19.289959,4.9164166,10.270043,-1
496,497,1583237891158,12.2008,-0.0513,4.8498,18.695822,4.5636644,10.051998,-1
497,498,1583237891169,11.9179,-0.155,4.3357997,19.16049,4.625502,9.304988,-1
498,499,1583237891179,12.974,0.4213,3.3330998,20.905048,5.3481584,8.081866999999999,-1
499,500,1583237891189,14.973598999999998,1.2873,1.7856,22.958986,6.053614,6.375328,-1
500,501,1583237891199,16.8209,2.0309,-0.0307,24.281918,6.5526423,4.700067,-1
501,502,1583237891210,17.8527,2.5432,-1.6575999,24.977048999999997,6.810230000000001,3.4920485,-1
502,503,1583237891219,18.3368,2.7700999,-2.7128,24.865842999999998,6.7885485,2.7239310000000003,-1
503,504,1583237891229,17.8905,2.767,-3.5272,23.938885,6.679765,2.0182066,-1
504,505,1583237891239,16.813799,2.5627,-4.3905,22.640825,6.2951994000000004,1.1799201000000001,-1
505,506,1583237891249,15.608398999999999,2.1088,-5.3919,21.461192999999998,5.7207155,0.09412086,-1
506,507,1583237891259,14.5692,1.5266,-6.642299700000001,20.596301999999998,5.2842519999999995,-0.8760384,-1
507,508,1583237891270,13.6402,0.9479,-7.8044996,19.44089,4.610304,-2.100682,-1
508,509,1583237891280,12.7498,0.32,-8.8308,18.454795999999998,4.04758,-2.9235117,-1
509,510,1583237891290,11.8691,-0.185,-9.5099,17.922592,3.866023,-3.6459669999999997,-1
510,511,1583237891300,11.6865,-0.2272,-10.387799000000001,17.940147,3.8713379999999997,-4.6209625999999995,-1
511,512,1583237891310,11.7321,-0.36229998,-11.477099,17.59742,3.7418213,-5.69278,-1
512,513,1583237891320,11.3608,-0.4825,-12.1233,17.091812,3.7812107000000004,-5.709912999999999,-1
513,514,1583237891331,10.8384,-0.47100000000000003,-12.0229,16.621572,3.6912364999999996,-5.489493,-1
514,515,1583237891341,10.2134,-0.6358,-11.8689995,15.697019000000001,3.4409947,-5.484685,-1
515,516,1583237891351,9.1029,-1.0293,-11.7864,14.258735999999999,2.8512452,-5.2748384,-1
516,517,1583237891361,7.9575996,-1.5704,-11.6199,13.128117000000001,2.2886363999999997,-5.0945644,-1
517,518,1583237891372,6.8258996,-2.2066,-11.4004,12.137444,1.606155,-4.758821,-1
518,519,1583237891382,5.9217997,-2.8853,-11.020999999999999,11.516417,1.0026629999999999,-4.272865,-1
519,520,1583237891392,5.3413997,-3.4954,-10.442699000000001,11.139886,0.5451981,-3.5074672999999996,-1
520,521,1583237891402,4.9669,-3.9369,-9.6373,10.72475,0.1140885,-2.5744946,-1
521,522,1583237891412,4.5169,-4.3676,-8.6954,10.472716,-0.53816867,-1.5371828,-1
522,523,1583237891422,4.3092,-4.8752,-7.8073997,10.527764,-0.88369024,-0.66266716,-1
523,524,1583237891433,4.3171,-5.2532997,-6.6917,10.181764,-1.2947459,0.6036931999999999,-1
524,525,1583237891443,3.9636,-5.5555,-5.6703997,9.530627,-1.5804796,1.5638733999999999,-1
525,526,1583237891453,3.2744,-5.8065,-4.7067,8.833799,-1.8338723000000001,2.518997,-1
526,527,1583237891463,2.536,-6.0081997000000005,-3.7424,8.402575500000001,-2.0301394,3.1892395000000002,-1
527,528,1583237891473,2.0475,-6.1594996,-3.0379,8.332024,-2.115143,3.5968473,-1
528,529,1583237891483,1.9469,-6.1886,-2.5267,8.672048,-1.9771796000000001,3.76199,-1
529,530,1583237891494,2.1601,-6.0035996,-2.3913999,9.465487,-1.6787855999999999,3.7516086000000004,-1
530,531,1583237891504,2.8686,-5.631,-2.3542,10.342089999999999,-1.3917973,4.0923324,-1
531,532,1583237891516,4.2816997,-5.0617,-0.8434,11.334467,-1.2442090000000001,5.7758007000000005,-1
532,533,1583237891526,4.2816997,-5.0617,-0.8434,11.5550785,-1.2291927,7.197889999999999,-1
533,534,1583237891537,4.0078998,-4.987,3.0135,10.321019999999999,-1.5618432,9.873688000000001,-1
534,535,1583237891547,2.3741,-5.2370996,5.0119,8.742332000000001,-1.8253009999999998,11.467095,-1
535,536,1583237891557,0.91899997,-5.1421,6.1103997,7.586344199999999,-1.515951,12.151138000000001,-1
536,537,1583237891567,0.1401,-4.4431,6.1926,7.3080419999999995,-0.74286336,11.701229,-1
537,538,1583237891577,0.31489998,-3.5853998999999996,5.5073,7.841336,0.03427539,10.942822999999999,-1
538,539,1583237891588,0.9677,-2.9535,5.0255,8.601361,0.49529332,10.540473,-1
539,540,1583237891598,1.4491999,-2.6309,5.1758,9.078794,0.6594206,11.012628999999999,-1
540,541,1583237891608,1.6551,-2.5372,6.4417995999999995,9.182865,0.6542874,12.594669,-1
541,542,1583237891618,1.3141999,-2.5261998,8.4751,8.412957,0.5800384,14.975032,-1
542,543,1583237891628,0.2434,-2.5646,10.2829,7.003883,0.47573745,16.226942,-1
543,544,1583237891638,-1.3535,-2.4938,11.254399000000001,5.801926,0.6859963000000001,16.610723,-1
544,545,1583237891649,-2.5537,-1.9738,11.3151,5.016034599999999,1.3521683999999998,16.250673000000003,-1
545,546,1583237891658,-2.7672,-1.4068999,10.849899,5.084968,1.6482546000000002,15.874572,-1
546,547,1583237891668,-2.6622999,-0.9869,10.3407,5.250791,2.1192613,15.209032,-1
547,548,1583237891678,-2.6838999,-0.6342,9.8364,5.2213993,2.4080209999999997,14.587420000000002,-1
548,549,1583237891688,-2.6698,-0.30719998,9.2293,5.4328175000000005,2.9074322999999995,13.746731,-1
549,550,1583237891698,-2.4902,0.1353,8.5911,5.5430364999999995,3.188052,13.207709,-1
550,551,1583237891709,-2.536,0.3698,7.968,5.363452,3.3487699999999996,12.40278,-1
551,552,1583237891719,-2.8072999,0.3755,7.3504,5.09262,3.2506267999999996,11.878964999999999,-1
552,553,1583237891729,-3.0806,0.24149999,6.8782997,4.8484115999999995,3.0770855,11.400461,-1
553,554,1583237891739,-3.2405,0.057999999999999996,6.5053,4.7400503,2.908572,11.150793,-1
554,555,1583237891749,-3.3579,-0.0949,6.3023996,4.579725,2.8193352000000003,10.933917,-1
555,556,1583237891760,-3.5714,-0.12019999,5.9982,4.3829503,2.8977310000000003,10.488461000000001,-1
556,557,1583237891770,-3.5981,0.0111,5.4971,4.686583000000001,3.1264637000000004,9.871715,-1
557,558,1583237891780,-3.1548998,0.23259999,4.7414,5.2542862999999995,3.3337917,8.936022999999999,-1
558,559,1583237891790,-2.4859998,0.475,3.7294,6.058029,3.7110412000000004,7.890915400000001,-1
559,560,1583237891800,-1.6383,0.87509996,2.6938,6.8459516,3.9773629,6.849044999999999,-1
560,561,1583237891810,-0.9923,0.9984,1.7208999,7.1145906000000005,3.857011,6.150417,-1
561,562,1583237891820,-0.9995,0.7154,1.1661,6.771607,3.4997769999999995,5.8145294000000005,-1
562,563,1583237891831,-1.3968999,0.3414,0.9723,6.4097376,3.1632192000000003,5.9402919999999995,-1
563,564,1583237891841,-1.6771,-0.0109,1.2294999,6.184376,2.7529008,6.460782,-1
564,565,1583237891851,-1.8413,-0.3096,1.6827999,6.141711,2.6696784,6.8877254,-1
565,566,1583237891861,-1.801,-0.3478,2.0665,6.3627634,2.719411,7.0788884,-1
566,567,1583237891871,-1.5458,-0.27339998,2.1251,6.727755,2.9127188,6.669967999999999,-1
567,568,1583237891881,-1.0941,-0.0199,1.6128,7.363223599999999,3.2876220000000003,5.938281,-1
568,569,1583237891891,-0.42549998,0.37289998,0.8131,8.112197,3.5845987999999998,5.1446510000000005,-1
569,570,1583237891901,0.3218,0.6473,0.0332,8.615956,3.7206468999999998,4.5955744,-1
570,571,1583237891911,0.75409997,0.7406,-0.47700000000000004,8.794697,3.6735864,4.345275,-1
571,572,1583237891921,0.861,0.6709999999999999,-0.65709996,8.535042,3.4686809999999997,4.583814,-1
572,573,1583237891931,0.5639,0.42929998,-0.3798,8.117397,3.1610357999999996,4.849264,-1
573,574,1583237891942,0.1184,0.1162,-0.1283,7.6719610000000005,2.963514,5.019626000000001,-1
574,575,1583237891952,-0.2685,-0.068799995,0.0352,7.590960000000001,2.9574041,5.26462,d
575,576,1583237891962,-0.2738,-0.0345,0.2861,7.7275925,3.057903,5.311469000000001,-1
576,577,1583237891973,-0.1528,0.0536,0.28079998,7.937017999999999,3.2036526000000003,5.004762599999999,-1
577,578,1583237891983,0.1344,0.2527,-0.1373,8.584669,3.5286605000000004,4.4007726,-1
578,579,1583237891993,0.7161,0.5335,-0.64599997,9.244875,3.8153233999999996,4.046948,-1
579,580,1583237892003,1.3765,0.82589996,-1.0090000000000001,9.696651,3.963802,3.9199402,-1
580,581,1583237892014,1.8995999,1.0184,-1.1649,9.783704,3.9788377,4.080035700000001,-1
581,582,1583237892024,1.9224,0.9992,-0.9838,9.516588,3.9112349,4.5872235,-1
582,583,1583237892034,1.4082999,0.7744,-0.1086,9.246876,3.7523462999999997,5.036404,-1
583,584,1583237892045,1.3913,0.6802,0.2595,9.259039,3.7155714,5.41148,-1
584,585,1583237892055,1.3671,0.743,0.6726,9.2118635,3.8108508999999997,5.8275824,-1
585,586,1583237892065,1.3965,0.91429996,1.0489,9.269114,4.0001845000000005,6.177107299999999,-1
586,587,1583237892075,1.6753999,1.0661,1.3105,9.566291,4.1753535,6.434666,-1
587,588,1583237892085,1.9393,1.2172999,1.3892,9.776091000000001,4.311967,6.491409,-1
588,589,1583237892095,2.2468,1.3275,1.4427999,10.112304,4.4627824,6.6203413,-1
589,590,1583237892106,2.6062,1.5045998999999999,1.778,10.4427805,4.670858,7.0731896999999995,-1
590,591,1583237892116,2.8704998,1.6186999,2.131,10.612069,4.795404,7.408024,-1
591,592,1583237892126,2.8242,1.8021,2.4559,10.489132000000001,5.067931,7.808459,-1
592,593,1583237892136,2.8242,1.8021,2.4559,10.516531,5.3363879999999995,8.363338,-1
593,594,1583237892146,2.9006998999999998,2.2317,3.5607998,10.528837,5.605209400000001,9.046989,-1
594,595,1583237892157,2.9176998,2.5089,4.1608,10.523253,5.9167523,9.587647,-1
595,596,1583237892167,3.1761,2.8819999999999997,4.9210997,10.8810625,6.4124099999999995,10.5373125,-1
596,597,1583237892177,3.1761,2.8819999999999997,4.9210997,11.172868,6.717928999999999,11.321921000000001,-1
597,598,1583237892187,3.952,3.7307,6.8567,11.438547999999999,7.358387,12.4176235,-1
598,599,1583237892198,4.3598,4.2056,7.6597995999999995,11.918202,7.9725,13.367201000000001,-1
599,600,1583237892208,4.8761997,4.513,8.3799,12.350019999999999,8.433929,14.177917,-1
600,601,1583237892218,5.1077,4.7907,8.8195,12.278376,8.642503,14.1842375,-1
601,602,1583237892228,4.8841,4.6795,8.437799,11.924064,8.573828,13.5025215,-1
602,603,1583237892238,4.5951,4.3512,7.4209,11.549045,8.403878,12.325532,-1
603,604,1583237892248,4.3848,3.9348,6.4216,11.264681,8.23977,11.574251,-1
604,605,1583237892258,4.1545997,3.5779998,6.1317,10.781262,8.046903,11.523867999999998,-1
605,606,1583237892268,3.6283,3.0284998,6.4156,9.998531,7.662451299999999,11.897651,-1
606,607,1583237892278,2.7916,2.3534,6.9101,8.911209,7.184520699999999,12.384525,-1
607,608,1583237892289,1.8738999,1.5992,7.3623996,7.9043225999999995,6.684736,12.675947,-1
608,609,1583237892299,1.2416999,0.89379996,7.3896,7.285077,6.1957345,12.312861999999999,-1
609,610,1583237892309,1.1948,0.2967,7.0185,7.4712309999999995,5.9614377,11.738551,-1
610,611,1583237892320,1.6920998999999999,-0.14199999,6.4983997,7.9180365,5.875036,10.918728999999999,-1
611,612,1583237892330,2.372,-0.47349998,5.7366,8.36243,5.838232,9.685379,-1
612,613,1583237892340,2.7222998,-0.8821,4.4625998,8.090103,5.576191400000001,7.953442599999999,-1
613,614,1583237892350,2.3328,-1.4898,2.9847,7.237279400000001,5.293408,6.497375,-1
614,615,1583237892360,1.5924,-2.0393999,2.0832,6.245227,4.9628835,6.0134206,-1
615,616,1583237892370,0.76489997,-2.6474,2.1999,5.166113,4.684562000000001,6.152964599999999,-1
616,617,1583237892381,-0.077599995,-3.0558999,2.4891999,3.9678051,4.7765374000000005,6.065461,-1
617,618,1583237892391,-0.7786,-3.1497,2.5721,3.4312932000000003,4.7320247,6.0269427,-1
618,619,1583237892401,-0.9740000000000001,-3.4517998999999997,2.708,3.4230379999999996,4.5678306,5.9355707,-1
619,620,1583237892411,-0.6787,-4.005,2.5469999999999997,3.4506862000000003,4.093884,4.918648,-1
620,621,1583237892421,-0.5209,-4.4698997,1.8151,3.2647047000000002,3.9020412,3.5817737999999997,-1
621,622,1583237892433,-0.51809996,-4.8073997,0.6601,3.1325736,3.8957589,1.9833663000000001,-1
622,623,1583237892443,-0.4432,-4.9453998,-0.6929,3.004273,4.061993,0.44224736,-1
623,624,1583237892453,-0.44219998,-4.8703,-1.8682,2.3949583,4.3474107,-0.6739486,-1
624,625,1583237892463,-0.7872,-4.7667,-2.4622,1.7884494,4.419543,-0.88490653,-1
625,626,1583237892473,-1.3615,-4.7816997,-2.4578,1.1152288000000001,4.5114517,-1.007279,-1
626,627,1583237892483,-1.8369,-4.7599998,-2.4126,0.81685376,4.767306,-1.4609035,-1
627,628,1583237892494,-1.8562,-4.6059,-2.6303,0.9621434999999999,4.7614160000000005,-1.8737596999999997,-1
628,629,1583237892504,-1.5778999,-4.6651,-2.8683999,1.5209694,4.8264713,-2.0379252,-1
629,630,1583237892514,-0.89199996,-4.6552997000000005,-2.873,1.9060047999999998,5.0365386,-1.7886984000000001,-1
630,631,1583237892524,-0.38189998,-4.4902997000000004,-2.4726999,2.0853688999999997,5.227356400000001,-1.4725586000000002,-1
631,632,1583237892534,-0.1006,-4.3294997,-2.0298,2.33676,5.3302879999999995,-1.174988,-1
632,633,1583237892544,0.2777,-4.2627997,-1.6172999,2.030082,5.124243,-0.7584831,-1
633,634,1583237892555,0.0773,-4.4871,-1.0952,1.2492082,4.663828,-0.14427459,-1
634,635,1583237892565,-0.5941,-4.9831,-0.37309998,0.5970946999999999,4.1735244,-0.023386562000000003,-1
635,636,1583237892575,-1.5249,-5.9235,-0.3671,0.029199684,3.6954312000000007,-0.43924025,-1
636,637,1583237892585,-1.7868998999999999,-6.0723,-0.7967,-0.2765303,3.615963,-1.0238851,-1
637,638,1583237892595,-1.9437,-6.0098,-1.3828,-0.41089287,3.7066553,-1.7584358,-1
638,639,1583237892605,-1.3893,-5.9325,-2.0706,0.31028855,3.7825227,-2.5119295,-1
639,640,1583237892616,-1.3893,-5.9325,-2.0706,1.3736492,4.0164742,-3.051621,-1
640,641,1583237892626,1.1608,-5.2373,-3.0969,2.873042,4.525798,-3.6610985,-1
641,642,1583237892636,2.0486999,-4.8886,-3.1929,3.7782037000000006,4.9297476,-3.6900394,-1
642,643,1583237892646,2.3616,-4.5905,-2.9103,3.8657546000000003,5.1279683,-3.4184318,-1
643,644,1583237892656,1.9075999,-4.3536,-2.4115999,3.2738888,5.373642,-2.9089072,-1
644,645,1583237892666,1.0196,-4.3931,-1.61,2.1967087000000003,5.156823,-1.7482845,-1
645,646,1583237892676,0.114199996,-4.7662997,-0.4055,1.4738992,4.8701706,-0.8274360999999999,-1
646,647,1583237892686,-0.579,-4.8926997000000005,0.3046,0.882474,4.7811637000000005,-0.31522059999999996,-1
647,648,1583237892696,-0.4583,-4.8392,0.07,1.208277,4.872469000000001,-0.78547055,-1
648,649,1583237892706,0.3351,-4.4481,-0.94699997,2.0278792,5.3336873,-1.9948105999999999,-1
649,650,1583237892716,0.3351,-4.4481,-0.94699997,2.5768507,5.9896317,-3.164062,-1
650,651,1583237892726,1.4734,-3.0033,-3.4775998999999995,3.2931477999999994,6.827783999999999,-4.6128893,-1
651,652,1583237892737,1.9456999,-2.6015,-3.5421,3.7574027,7.1582417000000005,-4.160481,-1
652,653,1583237892747,2.0684,-2.3599,-2.5477,3.7122290000000002,7.283276600000001,-3.2430131,-1
653,654,1583237892757,1.62,-2.3662999,-1.3551999,3.2286672999999997,7.229752,-2.0634859,-1
654,655,1583237892767,1.138,-2.4521,-0.447,2.8168740000000003,7.198024,-1.2352165000000002,-1
655,656,1583237892777,0.90209997,-2.1445,-0.1136,2.677934,7.666817699999999,-1.1034396999999998,-1
656,657,1583237892788,1.1744,-1.6580000000000001,-0.51489997,3.277164,8.174705,-1.8088865,-1
657,658,1583237892797,2.0434,-1.0421,-1.4108,3.9918141000000005,8.677755,-2.543964,-1
658,659,1583237892807,2.5639,-0.5836,-2.0592,4.4553223,9.112179,-3.1986055,-1
659,660,1583237892817,2.6160997999999998,-0.4714,-2.0891,4.272501,9.067589,-2.9198630000000003,-1
660,661,1583237892827,1.9957999,-0.7165,-1.3695998999999999,3.4324906000000004,8.720171,-2.0521564,-1
661,662,1583237892838,0.81729996,-1.1320000000000001,-0.5281,2.0291433,8.329523,-1.3810042,-1
662,663,1583237892848,-0.4666,-1.3524,-0.26229998,1.1504905,8.264612,-1.3239074,-1
663,664,1583237892858,-0.8196,-1.1295998999999999,-0.5256,1.1619827,8.653861000000001,-1.7142389,-1
664,665,1583237892868,0.0266,-0.5797,-0.8943,2.3338869,9.265983,-1.979593,-1
665,666,1583237892879,1.1941,0.0115,-1.008,3.1744719,9.741117,-2.03533,-1
666,667,1583237892889,1.4498999,0.34759998,-0.97639996,3.0719522999999995,10.034060499999999,-1.8499997,-1
667,668,1583237892899,1.038,0.4271,-0.6613,2.5417132000000002,9.922462,-1.3936073,-1
668,669,1583237892909,0.4191,0.2109,-0.2549,1.7298011999999998,9.693807000000001,-1.2512002,-1
669,670,1583237892919,-0.37199998,0.0634,-0.3707,1.2177676000000002,9.679317,-1.7003907,-1
670,671,1583237892930,-0.62729996,0.0839,-0.9321,1.2337799999999999,9.746747000000001,-2.1678347999999996,-1
671,672,1583237892940,-0.48839998,0.3313,-1.4064,1.5303642,10.132951,-2.5872414,d
672,673,1583237892950,-0.16939999,0.63809997,-1.6507,1.8792088,10.308867,-2.7901835,-1
673,674,1583237892960,0.0971,0.7782,-1.8528,1.9841707999999998,10.4326,-2.8634076,-1
674,675,1583237892970,0.0986,0.8979,-1.808,2.0086875,10.484363,-2.6033304,-1
675,676,1583237892981,0.1503,0.85029995,-1.4736999,2.0562649,10.225309,-2.1037470000000003,-1
676,677,1583237892991,0.1457,0.6064,-1.0777999,2.2551465,10.160427,-1.9527493000000002,-1
677,678,1583237893001,0.408,0.6083,-1.0438,2.6349816,10.223883,-2.481274,-1
678,679,1583237893011,0.78,0.6311,-1.6998,2.97696,10.157133,-3.4695334000000004,-1
679,680,1583237893021,1.0667,0.5862,-2.6743999,3.2817419,10.253925,-4.342766,-1
680,681,1583237893032,1.4240999,0.7181,-3.4668998999999996,3.9040906000000004,10.344732,-4.9107857,-1
681,682,1583237893042,2.0853999,0.8009999999999999,-3.8967,4.602604,10.400402,-4.9605083,-1
682,683,1583237893052,2.7675,0.8444,-3.8479997999999997,5.1948147,10.460316,-4.973686,-1
683,684,1583237893062,3.3248,0.9262,-3.9290998,5.476219,10.522698,-5.513569,-1
684,685,1583237893072,3.5233998,0.96779996,-4.5224,5.3154917,10.474125,-6.2105303,-1
685,686,1583237893082,3.3056997999999997,0.8703,-5.1802998,4.9312606,10.226756,-6.8542643,-1
686,687,1583237893093,2.9262998,0.624,-5.7865,4.829373,9.986425,-7.218422400000001,-1
687,688,1583237893103,2.9901,0.4161,-6.0822997,5.8787036,9.9908695,-7.5272937,-1
688,689,1583237893113,3.9648,0.4342,-6.3371997,7.0386752999999995,10.099145,-7.735100699999999,-1
689,690,1583237893124,5.4895997,0.5803,-6.5671,9.082998,10.396379,-8.008097,-1
690,691,1583237893134,7.2096,0.8333,-6.7913,9.882325999999999,10.323922,-8.168087,-1
691,692,1583237893144,8.0461,0.7597,-6.9231997000000005,9.735552,9.810442,-8.296588999999999,-1
692,693,1583237893154,7.9768996,0.24039999,-7.0249996,9.054794000000001,9.1696205,-8.344272,-1
693,694,1583237893164,7.3819,-0.4204,-7.0539,8.548708,8.551763000000001,-8.569585,-1
694,695,1583237893175,6.9860997000000005,-1.0551,-7.2753,8.007522999999999,7.7783785000000005,-8.439408,-1
695,696,1583237893185,6.3069997,-2.3436,-6.5453997,7.6140593999999995,7.1685753,-7.5351562,-1
696,697,1583237893195,6.3069997,-2.3436,-6.5453997,7.509883,6.577131,-6.601331,-1
697,698,1583237893205,6.1963,-3.9450998,-4.6098,7.2875,5.592012400000001,-5.368403400000001,-1
698,699,1583237893215,5.8029,-4.8132,-3.5607998,6.684936500000001,4.7237315,-4.1247115,-1
699,700,1583237893225,4.9094996,-5.8652,-2.3722,5.5956035,3.653916,-2.8339877,-1
700,701,1583237893235,3.7005,-7.0513,-1.3906,4.2241955,2.5053022,-1.7936689,-1
701,702,1583237893245,3.7005,-7.0513,-1.3906,3.0538425,1.8414571,-1.1684854,-1
702,703,1583237893255,1.3852,-8.7459,-0.18789999,1.7169107,0.9030546,-0.44015005,-1
703,704,1583237893265,0.2618,-9.539,-0.0103,0.43867520000000004,0.10422439,-0.22472936,-1
704,705,1583237893275,0.2618,-9.539,-0.0103,-0.54950756,-0.29521465,-0.023137566000000002,-1
705,706,1583237893286,-2.1469,-10.409699,0.8859999999999999,-2.2643782999999997,-0.6678482,1.4075223999999997,-1
706,707,1583237893296,-3.5375997999999997,-10.456699,2.4491,-3.7056975,-0.6131838000000001,3.5032246,-1
707,708,1583237893306,-4.280999700000001,-10.3028,4.2433,-4.033866000000001,-0.5071015,5.1061716,-1
708,709,1583237893317,-3.9638,-10.1831,6.232,-3.4490583,-0.30221529999999996,7.8134103,-1
709,710,1583237893327,-3.7942,-9.9119,8.3519,-3.5998259,-0.13606727,9.653929,-1
710,711,1583237893337,-4.9667997,-9.882,10.300999999999998,-5.1523699999999995,-0.18504307,12.045564,-1
711,712,1583237893347,-6.4034996,-9.9366,11.755,-6.3932269999999995,-0.21445343,13.576386999999999,-1
712,713,1583237893358,-7.397,-9.760799,13.1904,-7.0635266,0.12266932,15.429595999999998,-1
713,714,1583237893368,-7.9719996,-9.0293,15.640999999999998,-7.352325,0.91707504,18.05434,-1
714,715,1583237893378,-7.9915,-8.1823,17.9292,-7.104382000000001,1.7374721999999998,20.76424,-1
715,716,1583237893389,-7.7043996,-7.4462,20.2505,-6.2471614,2.4860048,23.468119,-1
716,717,1583237893399,-6.8244,-6.7755,22.053,-4.834736,3.1979449,25.012798,-1
717,718,1583237893409,-5.4189,-5.8813,23.0627,-3.5203001000000005,4.030811,25.416605,-1
718,719,1583237893419,-4.2279,-4.6498,22.7981,-2.4459834,5.4807777,24.598919,-1
719,720,1583237893429,-3.9378998,-3.4538998999999997,21.819000000000003,-2.2903029999999998,6.492988599999999,23.788892999999998,-1
720,721,1583237893439,-4.0736,-2.6722999,21.2522,-2.1785512000000002,6.7520413,23.574766,-1
721,722,1583237893450,-3.9320998,-2.5568,21.095999,-1.4621198,6.839764999999999,23.237097,-1
722,723,1583237893460,-3.1680999,-2.3030999,20.522,-0.14831601,7.212264500000001,22.20514,-1
723,724,1583237893470,-1.6947,-1.8449999,19.0532,2.1912212,7.696621,19.79936,-1
724,725,1583237893480,0.6888,-1.2556,16.2033,4.7129097,8.475043,16.56642,-1
725,726,1583237893490,2.9016,-0.22639999,13.0405,7.327799000000001,9.93678,13.120168,-1
726,727,1583237893501,4.8011,1.0422,10.498799,9.076139999999999,10.839614,11.464999,-1
727,728,1583237893511,6.2160997,1.8946999,9.1539,9.875316,11.193142,10.746366,-1
728,729,1583237893521,6.5855,2.1915,8.6178,9.628972000000001,10.98794,10.600767999999999,-1
729,730,1583237893531,6.0815,1.8599999,8.5809,9.199662,10.036973,10.538395,-1
730,731,1583237893541,5.545099700000001,0.95659995,8.4836,9.349903,9.571539999999999,9.71252,-1
731,732,1583237893551,5.7604,0.6987,7.4733996,10.533692,9.782296,7.687130499999999,-1
732,733,1583237893562,7.0109,1.0501,5.3015,12.674062,10.406253999999999,4.924279,-1
733,734,1583237893572,9.124599,1.7795999,2.5318,15.090376000000001,11.143936,2.1052408,-1
734,735,1583237893582,11.3132,2.5628998,-0.11800000000000001,16.867237,11.662692,-0.25342146,-1
735,736,1583237893592,12.7865,3.0609,-2.2992,17.506891,11.667587,-1.8997799,-1
736,737,1583237893602,12.9779,2.8453,-4.1898,16.635067000000003,10.783244999999999,-3.7937372000000003,-1
737,738,1583237893613,11.7879,2.0383,-5.5074,14.714381,9.833167999999999,-4.7847643,-1
738,739,1583237893624,10.1052,1.2791,-6.2183,14.210448999999999,9.563591,-5.465972,-1
739,740,1583237893634,9.5393,1.045,-7.018399700000001,14.803407,9.709283000000001,-6.8670015,-1
740,741,1583237893644,10.0736,1.2066,-8.2157,15.835987,9.952352000000001,-8.669376,-1
741,742,1583237893654,11.0504,1.4778,-9.9521,16.873846,10.126257,-10.522497,-1
742,743,1583237893664,12.896899000000001,1.6121,-13.5131,17.944073,9.945993,-12.791943,-1
743,744,1583237893675,12.896899000000001,1.6121,-13.5131,17.87855,9.686460499999999,-13.594411,-1
744,745,1583237893685,12.0813,0.6091,-15.1299,16.807028,8.86955,-14.123923000000001,-1
745,746,1583237893695,10.988299000000001,-0.29999998,-14.914598999999999,15.68477,7.938388000000001,-13.92733,-1
746,747,1583237893706,9.7729,-1.3757,-14.803598999999998,14.416341000000001,6.925554300000001,-14.01716,-1
747,748,1583237893716,8.622499000000001,-2.0629,-15.3947,13.294351,6.3410625,-14.815119000000001,-1
748,749,1583237893726,8.009,-2.4829,-16.1201,12.787517999999999,5.9644637000000005,-15.539566,-1
749,750,1583237893736,7.9974,-2.7108,-16.2899,12.816995,5.808955999999999,-15.651117000000001,-1
750,751,1583237893746,8.0220995,-2.7872999,-15.9281,12.742286,5.75363,-15.258372,-1
751,752,1583237893756,7.7061,-3.0786,-14.9895,12.376327999999999,5.416125,-14.240425,-1
752,753,1583237893767,7.1991997,-3.4691,-13.8027,11.798060000000001,5.077929,-13.087597,-1
753,754,1583237893777,6.6577997,-3.7728998999999996,-12.7105,11.117552,4.698219,-11.691883,-1
754,755,1583237893787,6.2967997,-4.1956,-11.4309,10.931025,4.279339,-10.360917,-1
755,756,1583237893797,6.2223997,-4.4817,-10.1326,10.714359,4.1500616,-9.0153475,-1
756,757,1583237893808,5.9449,-4.6417,-8.8115,10.411119,3.981433,-7.9851985,-1
757,758,1583237893817,5.502999999999999,-5.0973,-7.8375998,9.797811,3.4115267,-6.909456,-1
758,759,1583237893827,5.1096,-5.4838,-7.0653996,9.453658,3.1613612,-6.1451974,-1
759,760,1583237893837,4.9375,-5.7402,-6.2658997,9.243132000000001,2.8876082999999997,-5.1878133,-1
760,761,1583237893847,4.6626,-6.0912,-5.143399700000001,8.828111999999999,2.5294836,-3.9823809999999997,-1
761,762,1583237893858,4.1196,-6.4686,-4.0348,8.300315,2.2308884,-3.1592832000000004,-1
762,763,1583237893868,3.4831998,-6.9202,-3.3546998999999995,7.6088595,1.720435,-2.3217437000000003,-1
763,764,1583237893878,3.1037998,-7.3264,-2.5776,7.201385,1.2896702,-1.0226593000000002,-1
764,765,1583237893888,2.8235,-7.5783997,-1.3492,6.973667999999999,1.1389313,0.20651427,-1
765,766,1583237893898,2.5823998,-7.6864,0.1256,6.708055,1.1215206,2.0746236000000002,-1
766,767,1583237893908,2.3708,-7.6326,1.4429,6.5160975,1.118255,3.1997166,-1
767,768,1583237893919,2.0909998,-7.625099700000001,2.3097,6.0983095,1.1269987,3.9103633999999996,-1
768,769,1583237893929,1.6065999,-7.6056,2.8422,5.6097965,1.1420916,4.393015,-1
769,770,1583237893939,1.1036999,-7.5729999999999995,3.2663,5.319207700000001,1.1084962,4.8806667,-1
770,771,1583237893949,0.76739997,-7.5636997,4.1082997,4.8654585,1.0895245,6.292057499999999,-1
771,772,1583237893959,0.108899996,-7.5765996,5.4747996,4.155214,1.0379247999999999,7.5910463,-1
772,773,1583237893969,-0.9587,-7.6308,7.1379,3.0263956000000003,0.8771302,9.842267,-1
773,774,1583237893979,-1.7314,-7.7454,9.1038,2.5842533,0.7576212,12.022110000000001,-1
774,775,1583237893990,-2.2230000000000003,-7.8025,11.091599,2.191451,0.6628970000000001,13.465095499999999,-1
775,776,1583237894000,-2.7761998,-7.7948,12.4579,1.4689769,0.738592,14.576867000000002,-1
776,777,1583237894010,-3.7138,-7.4986997,13.023299,0.6063076000000001,1.0265761999999998,15.2822275,-1
777,778,1583237894020,-4.5948997,-7.127999999999999,13.642798999999998,0.13379756,1.3228826999999999,15.707917000000002,-1
778,779,1583237894030,-5.0182,-6.6575,13.8956995,0.021519085,1.9114636000000003,15.984007,-1
779,780,1583237894040,-5.1780996,-5.906399700000001,14.214498999999998,0.19067423,2.6670258,16.93819,-1
780,781,1583237894051,-5.1474,-5.2465,14.9902,0.44836694,3.0313944999999998,18.038853,-1
781,782,1583237894061,-5.0295997,-4.758,16.059399,0.5197238000000001,3.1517365,18.888622,-1
782,783,1583237894071,-5.1446,-4.5249,16.6644,0.47975013,3.154648,19.188206,-1
783,784,1583237894081,-5.3174996,-4.3574,16.6454,0.5636525,3.1476759999999997,18.711243,-1
784,785,1583237894091,-5.2688,-4.2204,15.6908,0.9444168,3.4954864999999997,17.112059,-1
785,786,1583237894102,-5.0592,-3.6132998,14.2218,1.520567,4.0421404999999995,15.990251,-1
786,787,1583237894111,-4.5678997,-2.9807,13.1831,2.410013,4.429436,15.530180999999999,-1
787,788,1583237894121,-3.8288998999999997,-2.4034998,12.8096,3.1007689999999997,4.858036,15.760024,-1
788,789,1583237894131,-3.1304,-1.7319,13.1922,4.1700387,5.074529599999999,16.608137,-1
789,790,1583237894141,-2.3223,-1.4873999,13.725698999999999,5.118008000000001,4.985322,16.833145000000002,-1
790,791,1583237894151,-1.4826,-1.3925999,13.615298999999998,6.2605505,4.883999,16.088844,-1
791,792,1583237894161,-0.42569998,-1.2781,12.5545,7.4338045,4.740414,14.825472,-1
792,793,1583237894172,0.6337,-1.2163,11.1151,8.075192,4.6797733,13.928354,-1
793,794,1583237894182,1.0659,-1.0605,10.0123,8.076781,4.610494999999999,13.357835999999999,-1
794,795,1583237894192,0.8282,-0.9558,9.5739,7.7644534,4.5840726,13.471329999999998,-1
795,796,1583237894203,0.54969996,-0.78389996,9.5197,7.9902463,4.512926599999999,13.495501500000001,-1
796,797,1583237894213,0.81479996,-0.71099997,9.3779,8.485261999999999,4.1821437,13.260179999999998,-1
797,798,1583237894223,1.2939,-0.89809996,8.8875,9.23119,3.70926,12.400299,-1
798,799,1583237894233,2.0567,-1.2009,7.8409996,10.170923,3.093835,11.544803,-1
799,800,1583237894243,2.8731,-1.6970999,6.9716,10.510353,1.7742183999999996,11.147153999999999,-1
800,801,1583237894254,3.0619,-2.7013,6.5639997,10.839519000000001,1.1255621999999998,11.115589,-1
801,802,1583237894264,3.4851,-3.234,6.4041,11.858596,1.4032512,10.413753,-1
802,803,1583237894274,4.3533998,-2.7717,5.6421,13.556267000000002,2.2512872,9.102851,-1
803,804,1583237894285,8.4924,-0.3649,2.222,16.56099,3.7609269999999997,6.699733,-1
804,805,1583237894296,10.932799000000001,0.9163,-0.2121,18.951065,4.863562,4.339155,-1
805,806,1583237894307,12.783199,1.9157,-2.3767998,20.768072,5.8003654000000004,2.0292008000000004,-1
806,807,1583237894317,13.2223,2.4306997999999997,-3.8611998999999995,20.459085,5.93853,0.9628713,-1
807,808,1583237894327,11.950399,2.2742,-4.4627,18.742817000000002,5.4880085,0.78467566,-1
808,809,1583237894338,9.889,1.5730000000000002,-4.1774,17.032695999999998,4.836431,1.218256,-1
809,810,1583237894348,8.153299,0.7597,-3.4543,15.222142000000002,3.8717403,2.1546380000000003,-1
810,811,1583237894358,7.1672997,0.2153,-2.8113,14.357894,3.5754243999999997,2.6663362999999998,-1
811,812,1583237894368,6.7738,0.42339998,-3.0244,14.388845000000002,4.0697209999999995,1.9967738000000002,-1
812,813,1583237894378,7.5109997,1.1613,-4.3877997,15.250969,4.6594706,0.5327099000000001,-1
813,814,1583237894389,8.1812,1.4861,-5.8201,15.544537,4.807978599999999,-0.54894257,-1
814,815,1583237894399,7.8925,1.3744999,-6.2310996,14.861307,4.462169599999999,-0.41867882,-1
815,816,1583237894409,6.9565,0.79639995,-5.6473,13.824254999999999,3.7901552000000005,0.44494802,-1
816,817,1583237894419,5.9491,0.1265,-4.704,12.797324,3.1868548,1.487441,-1
817,818,1583237894429,5.0471997,-0.3979,-3.7752998,11.775967,2.6382666,2.5353065,-1
818,819,1583237894440,4.4000998,-0.75729996,-3.1587,11.190872,2.2863765,2.927898,-1
819,820,1583237894450,3.8316,-1.1498,-2.9514,10.593701,1.9118849999999998,2.9191926,-1
820,821,1583237894460,3.3289999999999997,-1.4595,-3.1199,10.216298,1.7868406000000003,2.689627,-1
821,822,1583237894470,3.1241999,-1.4496,-3.4643998,10.385759,2.0278218,1.9739523,-1
822,823,1583237894480,3.4682998999999994,-1.217,-4.2072997,10.864456,2.2131426,1.2655941000000002,-1
823,824,1583237894491,4.0253,-1.0175999,-5.1096,11.183259,2.371227,0.44797429999999994,-1
824,825,1583237894501,4.138499700000001,-0.8822,-5.7496,10.999642,2.566048,0.08103894,-1
825,826,1583237894512,3.7517998,-0.7414,-5.9245,10.289494,2.6467516,0.18620186,-1
826,827,1583237894522,3.0744,-0.7492,-5.6591997,9.492109,2.5907369,0.72966653,-1
827,828,1583237894532,2.2484,-0.82199997,-5.0016,8.679948,2.5266870999999997,1.5776066,-1
828,829,1583237894543,1.4057,-0.93549997,-4.0871,7.8166375,2.5715833,2.6438593999999997,-1
829,830,1583237894553,0.6957,-0.86249995,-3.1845999,7.659683,2.8704753,3.1565921,-1
830,831,1583237894563,0.5572,-0.4657,-2.5853,7.883235000000001,3.3188233,3.4102339999999995,-1
831,832,1583237894574,0.7905,-0.0235,-2.381,8.193541999999999,3.6713742999999996,3.4349324999999995,d
832,833,1583237894583,1.1015999,0.313,-2.4122999,8.519144,3.7225528,3.269589,-1
833,834,1583237894593,1.4229,0.326,-2.5226998,9.011602,3.6777046,3.5334873,-1
834,835,1583237894603,1.8225,0.31129998,-2.2611,9.315886500000001,3.6411402,4.1613717,-1
835,836,1583237894613,2.1259,0.2888,-1.6302999,9.175251,3.4928529999999998,4.988778599999999,-1
836,837,1583237894623,1.9834,0.1471,-0.8089,8.675332000000001,3.2743293999999996,5.798728,-1
837,838,1583237894634,1.4742998999999999,-0.0572,-0.0023999998999999998,8.049171000000001,3.0616477000000004,6.4355855,-1
838,839,1583237894644,0.86149997,-0.2674,0.62549996,7.5073643,3.0304656000000003,6.5361037,-1
839,840,1583237894654,0.3182,-0.2981,0.72679996,7.18203,3.1643493,6.0656620000000006,-1
840,841,1583237894664,0.13859999,0.0212,-0.3619,7.426248599999999,3.4213622000000004,5.3379015999999995,-1
841,842,1583237894674,0.13859999,0.0212,-0.3619,8.087163,3.62689,4.9148746,-1
842,843,1583237894684,0.77709997,0.2529,-0.8416,8.631452000000001,3.747682,4.8307996,-1
843,844,1583237894695,1.4562,0.4026,-0.9834,9.16647,3.953172,5.167443799999999,-1
844,845,1583237894705,2.0028,0.61649996,-0.6635,9.4774,4.0826216,5.5889387,-1
845,846,1583237894715,2.465,0.7687,0.1633,9.58173,4.0861936000000005,6.12341,-1
846,847,1583237894725,2.2117,0.7457,0.46299999999999997,9.227828,4.0381279999999995,6.4160104,-1
847,848,1583237894735,1.9072,0.7011,0.6055,9.002591,4.058344399999999,6.519201,-1
848,849,1583237894746,2.1836998,0.90209997,0.5268,9.369613000000001,4.3515477,6.3875384,-1
849,850,1583237894756,2.9120998,1.4397999,0.1883,10.217178,4.977737,5.984805000000001,-1
850,851,1583237894766,4.252,2.1908,-0.3566,11.609139,5.758792400000001,5.3913593,-1
851,852,1583237894776,5.5063,2.8341,-1.0518,12.783197999999999,6.4154167,4.6565404,-1
852,853,1583237894786,6.1166,3.3116,-1.6847,13.201906,6.875553599999999,4.1251235,-1
853,854,1583237894796,5.9596,3.4977,-1.6432999,12.875097,7.081617999999999,4.4687204000000005,-1
854,855,1583237894807,5.7869997,3.7089,-0.9449,12.779214999999999,7.402259,5.337748,-1
855,856,1583237894817,5.8756,4.0036,-0.1481,12.867828,7.644121000000001,6.061525,-1
856,857,1583237894827,6.1579999999999995,4.2767,0.6139,13.289074,8.012138,6.9268274000000005,-1
857,858,1583237894837,6.8903,4.5702,1.4537,14.098764000000001,8.275960000000001,7.8617826,-1
858,859,1583237894847,7.803,4.7492,2.4297,14.908751,8.499703,8.714377,-1
859,860,1583237894857,8.6523,5.0028,3.2603998,15.74654,8.905549,9.444253999999999,-1
860,861,1583237894867,9.1317,5.276799700000001,3.6578,16.02329,9.16487,9.560851,-1
861,862,1583237894877,9.2219,5.295099700000001,3.4663,15.957286999999999,9.186916,9.044364999999999,-1
862,863,1583237894888,8.8531,4.8664,2.9204,15.484269,8.843377,8.446619,-1
863,864,1583237894898,8.333,4.4412,2.5992,14.920637,8.690004,8.208453,-1
864,865,1583237894908,7.8559,4.1632,2.6390998,14.492438,8.586765,8.224283999999999,-1
865,866,1583237894918,7.3869,3.7189,2.9787,14.015657000000001,8.310389,8.52625,-1
866,867,1583237894928,7.1169,3.2231998,3.5702,13.684691,7.9971795,9.07414,-1
867,868,1583237894939,7.0326,2.8283,3.9345,13.561687,7.8306103,9.054325,-1
868,869,1583237894949,6.8030996,2.3559,3.7709,13.117926999999998,7.540988400000001,8.674787,-1
869,870,1583237894959,6.218499700000001,1.7791,3.6332998,12.19184,7.083016000000001,8.400736,-1
870,871,1583237894969,5.4217997,1.0852,3.7275998999999995,11.281814,6.695548,8.308895,-1
871,872,1583237894979,4.6309,0.44799998,3.8586998,10.449742,6.287739,8.1977,-1
872,873,1583237894989,3.9241,-0.23600000000000002,3.9550998,9.605106,5.890933,8.056786,-1
873,874,1583237895000,3.1819,-0.81659997,3.9854,8.945111,5.7483059999999995,7.835925,-1
874,875,1583237895010,2.5894,-1.1336,3.8685,8.360954,5.771501,7.220270599999999,-1
875,876,1583237895020,2.5069999999999997,-1.2918,3.3567,8.277301,5.8801403,6.291348999999999,-1
876,877,1583237895030,2.5519,-1.3783,2.6515,7.9677690000000005,6.082498,5.619306,-1
877,878,1583237895041,2.3040000000000003,-1.3644999,2.3576999,7.6875615,6.24901,5.237699,-1
878,879,1583237895051,2.3790998,-1.4462,2.2106,7.636105000000001,6.295131700000001,4.9449368,-1
879,880,1583237895061,2.4424,-1.6234,2.1994998,7.3478913,6.2399025,4.924059,-1
880,881,1583237895071,2.0848,-1.839,2.468,6.357784,6.2844253,5.378143,-1
881,882,1583237895081,1.5035,-1.9959999,3.0835998,6.071207,6.108796,5.670437000000001,-1
882,883,1583237895092,1.4702,-2.4373,3.4801998,5.611740599999999,5.801486,5.515216000000001,-1
883,884,1583237895102,1.1797,-2.8016999,3.2919,5.1150775,5.553982700000001,4.7813263,-1
884,885,1583237895112,0.94549996,-3.2382,2.6049,4.5811519999999994,5.1496983,3.6908247000000003,-1
885,886,1583237895122,0.5886,-3.7751,1.6071999,3.620052,4.806982499999999,2.6541834,-1
886,887,1583237895132,-0.2835,-4.2341,0.8214,2.5992892000000003,4.6007169999999995,2.1876874,-1
887,888,1583237895143,-1.1146,-4.5148,0.42319998,1.9277921000000002,4.473298000000001,1.637203,-1
888,889,1583237895153,-1.314,-4.7518,0.1127,1.1310209,4.1476192,1.5553501,-1
889,890,1583237895163,-1.7838999,-5.1226997,0.1625,0.55262005,4.020046700000001,1.7223792000000002,-1
890,891,1583237895173,-2.2677,-5.375099700000001,0.44939998,0.20793162,3.6045856,2.1003087000000003,-1
891,892,1583237895183,-2.2068,-5.9344,0.9138,0.5684505,2.911924,2.6808834,-1
892,893,1583237895194,-1.7098999,-6.5592,1.4455,0.8609358,2.8224382,2.8180425,-1
893,894,1583237895204,-1.2275,-6.7,1.6506,0.51336473,2.7545865000000003,2.328275,-1
894,895,1583237895214,-1.3718,-6.8177,1.2268,0.010572795,2.5441458,1.6542880000000002,-1
895,896,1583237895224,-1.7566998999999999,-7.1473,0.45299998,-0.84547883,1.9937761999999999,0.97188306,-1
896,897,1583237895234,-2.2963998,-7.6579,-0.0050999997,-2.06453,1.0574998,0.8659826999999999,-1
897,898,1583237895245,-4.6772,-9.5296,-0.051599998,-3.8976165999999997,0.08879615,0.92458326,-1
898,899,1583237895255,-5.6612,-9.7613,0.4906,-4.8643093,-0.022064961,1.5922399,-1
899,900,1583237895265,-5.6612,-9.7613,0.4906,-4.654472,0.35470578,2.361564,-1
900,901,1583237895275,-3.9522998,-8.3793,2.4329998,-2.9635332,1.6203669,3.5944629,-1
901,902,1583237895286,-2.7275,-7.232,2.9143,-1.9688957999999999,2.6973076000000002,3.9217598,-1
902,903,1583237895297,-2.3148,-6.585099700000001,2.4565,-1.7605428,3.2352369999999997,3.3742919999999996,-1
903,904,1583237895307,-2.4136,-6.3317,1.7098999,-1.9259819999999999,3.4531089999999995,2.489941,-1
904,905,1583237895317,-2.487,-6.1972,0.9679,-1.9536878,3.5864854,1.683957,-1
905,906,1583237895327,-2.2554998,-6.062999700000001,0.1963,-1.6961578000000002,3.792061,1.0341994,-1
906,907,1583237895337,-1.9267999,-5.7029,-0.20979999,-1.3979552,4.2469883,0.7579468,-1
907,908,1583237895347,-1.7156999,-5.2339997,-0.2871,-1.300626,4.610935700000001,0.7436774,-1
908,909,1583237895357,-1.7665,-4.8128,-0.0897,-1.4179516,5.133877,1.0982011999999999,-1
909,910,1583237895367,-1.9994999,-4.3215,0.3121,-1.7050738,5.6583414,1.4545253999999999,-1
910,911,1583237895377,-2.1606,-3.7505998999999997,0.5097,-1.6410049999999998,6.2462615999999995,1.5827014,-1
911,912,1583237895388,-1.7612,-3.228,0.6055,-1.0583808000000001,6.670706,1.7397323,-1
912,913,1583237895398,-0.909,-2.8227,0.60429996,-0.018665198,7.137430999999999,1.6081661,-1
913,914,1583237895408,0.2519,-2.1724,0.2351,1.1999834999999999,7.8911834,1.142015,-1
914,915,1583237895418,1.3076,-1.3558999,-0.2776,2.024106,8.678205499999999,0.70970845,-1
915,916,1583237895429,1.5119999999999998,-0.7064,-0.4879,1.8362378000000001,9.170760000000001,0.7243418,-1
916,917,1583237895439,1.0246998999999999,-0.47919998,-0.15079999,1.2343068000000001,9.237328999999999,1.3517375,-1
917,918,1583237895449,0.4895,-0.5568,0.3849,0.5537789000000001,9.06146,1.7168150000000002,-1
918,919,1583237895460,-0.2173,-0.74329996,0.5457,-0.0996371,8.961631,1.6289191,-1
919,920,1583237895470,-0.65999997,-0.7542,0.4195,-0.22956565,9.043244,1.5530995,-1
920,921,1583237895480,-0.6475,-0.63729995,0.2645,-0.15544115,9.307728,1.1605941,-1
921,922,1583237895490,-0.5043,-0.29389998,-0.20979999,0.20183120000000002,9.692160000000001,0.6773866999999999,-1
922,923,1583237895500,-0.0034999999,0.100099996,-0.7249,0.7842351,10.112447999999999,0.23243867,-1
923,924,1583237895512,0.37799999999999995,0.43699998,-0.9690000000000001,0.9154181999999998,10.277014999999999,0.39600095,-1
924,925,1583237895522,0.49789998,0.61829996,-0.72349995,0.9940916999999999,10.456044,1.0808383,-1
925,926,1583237895532,0.5636,0.7413,-0.031,0.9392453000000002,10.440586999999999,2.0564852,-1
926,927,1583237895542,0.42839998,0.7068,0.89049995,0.51884264,10.383059,2.6827892999999996,-1
927,928,1583237895552,0.054399997,0.6525,1.3498,0.32610944,10.237539,2.6589334,-1
928,929,1583237895563,-0.064899996,0.4662,1.1807,0.20008823,9.902073,1.9937667000000001,-1
929,930,1583237895573,-0.22,0.1401,0.43739998,-0.17084065,9.815413000000001,1.0425982,d
930,931,1583237895584,-0.4913,0.0976,-0.3096,-0.16390704,9.803662,0.7568934,-1
931,932,1583237895593,-0.4702,0.0858,-0.57519996,-0.086172104,9.719032,0.8606964,-1
932,933,1583237895603,-0.3743,-0.021599998999999998,-0.41459998,-0.10218453400000001,9.755788,1.4678468,-1
933,934,1583237895613,-0.3689,0.039499998,0.10439999400000001,0.026556486,9.851183,1.9154474999999997,-1
934,935,1583237895623,-0.2579,0.1311,0.52919996,0.028921956000000002,9.732123,2.2683337000000003,-1
935,936,1583237895633,-0.2356,0.0265,0.8469,-0.10090124,9.545625,2.5679057000000003,-1
936,937,1583237895644,-0.3296,-0.1669,1.1309999,-0.40233123,9.402088000000001,2.5156355,-1
937,938,1583237895654,-0.69659996,-0.3326,1.0231,-0.7805385,9.1657505,2.2232654,-1
938,939,1583237895664,-0.9848,-0.53889996,0.7779,-0.8513398000000001,9.024799,2.207272,-1
939,940,1583237895674,-1.0295,-0.68689996,0.7624,-0.93261814,8.853327,2.5217072999999997,-1
940,941,1583237895684,-1.1042,-0.85429996,1.0792,-1.189765,8.569058,2.8787692000000003,-1
941,942,1583237895695,-1.3546,-1.1388,1.4315,-1.4457243999999998,8.290853,3.2045145,-1
942,943,1583237895705,-2.1085,-1.9111999,2.2654998,-2.0651426,7.701869,3.7901267999999995,-1
943,944,1583237895715,-2.4197,-2.3697,2.4742,-2.3318279,7.241751700000001,4.0003567,-1
944,945,1583237895725,-2.4803998,-2.8474998,2.7789,-2.3853432999999997,6.758744999999999,4.3817053,-1
945,946,1583237895735,-2.6624,-3.286,3.398,-2.6345892,6.307093,5.049333,-1
946,947,1583237895745,-3.218,-3.8135,4.1102,-3.2903895,5.746151,5.7709837,-1
947,948,1583237895756,-4.2048,-4.5969999999999995,4.79,-4.356978,4.940962,6.4744577,-1
948,949,1583237895766,-5.3408,-5.4010997000000005,5.4172997,-5.4355273,4.1422467,7.031033,-1
949,950,1583237895776,-6.1312,-6.1762,5.6752,-6.126906,3.3522654000000003,7.249097,-1
950,951,1583237895786,-6.4249,-6.9902997000000004,5.843999999999999,-6.3266973,2.5465496,7.407660000000001,-1
951,952,1583237895796,-6.4318,-7.607199700000001,5.871299700000001,-6.200647,2.032773,7.401453999999999,-1
952,953,1583237895807,-6.0667995999999995,-7.7423,5.9428997,-5.759137,1.9871682000000002,7.553572,-1
953,954,1583237895818,-5.6713,-7.4539,6.3912,-5.3116226,2.3306402999999998,8.262151,-1
954,955,1583237895828,-5.7032,-7.3697996,7.2682,-5.2813597,2.2202964,9.207487,-1
955,956,1583237895838,-5.5527997000000004,-7.6576,8.072599,-4.8725934,1.8893698,9.809801,-1
956,957,1583237895848,-5.0733,-7.9753,8.1465,-4.2771363,1.5715828,9.407882,-1
957,958,1583237895859,-4.7625,-8.244599000000001,7.0916,-3.757623,1.3598586000000001,8.021322999999999,-1
958,959,1583237895869,-4.1877,-8.2577,5.575999700000001,-2.9573946,1.577348,6.302104,-1
959,960,1583237895879,-3.7738998,-7.8543,4.4467998,-2.3486161,2.228791,5.682303,-1
960,961,1583237895889,-3.1539998,-7.0513,4.2436,-1.009836,3.1609976000000004,5.9459615,-1
961,962,1583237895900,-1.6773,-6.0822,4.5948,0.7194385,3.8551915,6.0955133,-1
962,963,1583237895910,-0.3107,-5.5655,4.5891,2.3614874,4.1758614000000005,6.031128,-1
963,964,1583237895920,1.288,-5.2082,4.4207997,4.314083599999999,4.449116,5.448236,-1
964,965,1583237895930,2.8128998,-4.9721,3.4339999999999997,5.5538682999999995,4.67624,3.85545,-1
965,966,1583237895940,3.4508,-4.5246,1.6409999,6.2337637,5.421736699999999,2.1273057,-1
966,967,1583237895951,4.1317997,-3.4619,0.079799995,8.302833,6.950099499999999,0.7015680999999999,-1
967,968,1583237895961,5.9628,-2.0639,-0.9819,10.659311,8.368185,0.15051867,-1
968,969,1583237895971,7.9719,-0.5645,-1.4762,12.317765,9.518369,-0.014671668,-1
969,970,1583237895981,9.2808,0.5513,-1.6437998999999999,13.349753,9.869100999999999,-0.0779169,-1
970,971,1583237895991,9.9893,0.8653,-1.8176,13.760359,9.779557,-0.35905364,-1
971,972,1583237896002,9.8989,0.7248,-2.3727,13.104289,9.394789999999999,-1.2764541999999999,-1
972,973,1583237896012,9.1082,0.5882,-3.3068,13.199032999999998,9.917473,-2.1961630000000003,-1
973,974,1583237896022,9.338699,1.4312999,-4.3353,14.580333999999999,11.223644,-3.4079735,-1
974,975,1583237896033,10.6566,2.8481,-5.6282,15.921067,12.48038,-4.260415,-1
975,976,1583237896043,11.743199,4.1408997,-6.3954997,16.913597,13.233653,-4.5633387999999995,-1
976,977,1583237896053,12.3831,4.7841997,-6.685,17.197042,13.135932,-4.6999903,-1
977,978,1583237896063,12.5331,4.7721,-6.8915,16.926949,12.786722,-5.034058,-1
978,979,1583237896074,12.1654,4.5032997,-7.2854,17.218513,12.844116,-5.870046599999999,-1
979,980,1583237896084,12.5773,4.677,-8.465199,19.030973,13.164662,-7.7437005,-1
980,981,1583237896094,14.1036,5.0046,-10.1022,20.629658,13.312872,-8.7338085,-1
981,982,1583237896104,15.752298999999999,4.8101997,-11.2191,20.610188,12.686933,-8.617536999999999,-1
982,983,1583237896114,15.752298999999999,4.8101997,-11.2191,19.297085,11.817827000000001,-7.5766144,-1
983,984,1583237896125,14.2268,3.8154,-10.142000000000001,16.579176,10.330875,-5.9503765,-1
984,985,1583237896135,9.9141,1.2768999,-8.1286,14.6042185,9.011152000000001,-5.4108195,-1
985,986,1583237896145,8.5834,0.2394,-8.4222,13.437304000000001,8.107198,-5.8245945,-1
986,987,1583237896156,8.0409,-0.2827,-9.092899000000001,12.958328999999999,7.64076,-6.5467916,-1
987,988,1583237896166,7.5916996,-0.7955,-9.724199,12.443912,7.0861279999999995,-7.0976586,-1
988,989,1583237896176,7.5916996,-0.7955,-9.724199,11.505519,6.3963684999999995,-7.0627320000000005,-1
989,990,1583237896186,5.7113,-2.0180000000000002,-9.4615,10.499752,5.9353504,-6.713131,-1
990,991,1583237896196,5.021,-2.4356,-8.9747,9.893894,5.495124,-6.125660400000001,-1
991,992,1583237896206,4.7232,-2.9415998,-8.0575,9.664003999999998,4.9785895,-5.120805000000001,-1
992,993,1583237896217,4.7562,-3.3511,-7.0822997,9.878026,4.5213447,-4.0591297,-1
993,994,1583237896226,5.2750998,-3.5303,-6.7025,10.461905499999999,4.4359384,-3.9152763,-1
994,995,1583237896236,6.3009,-3.4129998999999995,-6.8255,11.570133,4.5644207,-4.087237399999999,-1
995,996,1583237896246,7.2028,-3.1673,-7.1445,12.39845,4.758907,-4.413079,-1
996,997,1583237896256,7.2843,-3.2063,-7.1047997,12.375005999999999,4.645048,-4.2168209999999995,-1
997,998,1583237896266,6.8631997,-3.5089,-6.3261,11.940726,4.245954,-3.2312818,-1
998,999,1583237896277,6.2605996,-4.0524,-4.6253,11.388653,3.6420788999999996,-1.4019201000000001,-1
999,1000,1583237896287,6.0292,-4.5116997,-2.8381,11.263752,3.1348338,0.6651763,-1
1000,1001,1583237896297,6.0471997,-4.7703,-1.6005,11.4712715,2.865486,1.6785173,-1
1001,1002,1583237896307,6.4701,-4.79,-0.92609996,12.089578999999999,2.998776,2.3528585,-1
1002,1003,1583237896317,7.1713,-4.4133997,-0.14119999,12.816487,3.3230371,3.4206053999999995,-1
1003,1004,1583237896327,7.547000000000001,-4.1424,1.36,12.980642999999999,3.4530230000000004,4.786421,-1
1004,1005,1583237896337,7.120899700000001,-3.944,3.1238,12.279678,3.6253767,6.955528999999999,-1
1005,1006,1583237896347,6.040499700000001,-3.8139999999999996,4.9666,11.012542999999999,3.6658769999999996,8.834414,-1
1006,1007,1583237896357,4.4414997000000005,-3.7728998999999996,6.696399700000001,9.363665,3.7573261,10.300938,-1
1007,1008,1583237896367,2.9118,-3.5224998,7.6769996,8.02207,4.030782,11.0161915,-1
1008,1009,1583237896377,1.7835,-3.2226,8.2958,7.3323,4.2858315000000005,11.592705,-1
1009,1010,1583237896387,1.6631,-2.8936,9.1033,7.5748234,4.563349,12.562406,-1
1010,1011,1583237896397,1.9639,-2.6794999,10.3139,7.774642999999999,4.658944,13.714235999999998,-1
1011,1012,1583237896407,1.5818,-2.5254,12.4501,7.1279216,4.8336440000000005,16.546663,-1
1012,1013,1583237896417,0.7714,-2.0749,14.96,6.4006685999999995,5.311507700000001,19.03219,-1
1013,1014,1583237896427,0.2346,-1.5612999,17.0257,6.2019400000000005,5.8084865,20.79436,-1
1014,1015,1583237896438,0.3533,-0.92139995,18.2677,6.3344927,6.495029,21.703411,-1
1015,1016,1583237896448,0.114999995,-0.25689998,18.620699,5.936873,6.9599824,21.622677,-1
1016,1017,1583237896458,0.114999995,-0.25689998,18.620699,5.366364,7.166870599999999,20.957539,-1
1017,1018,1583237896468,-0.9988,0.18509999,17.5926,4.9339900000000005,7.325423700000001,20.6735,-1
1018,1019,1583237896478,-1.3497,0.36499998,17.649399,4.634485,7.574708500000001,20.915995000000002,-1
1019,1020,1583237896489,-1.4066,0.6807,17.740099,4.696141000000001,7.9255070000000005,20.69479,-1
1020,1021,1583237896499,-1.2509999,1.2353,16.9104,4.806839,8.540308999999999,19.561298,-1
1021,1022,1583237896509,-1.2849,1.7182,15.5973,4.650507,8.974741,17.966175,-1
1022,1023,1583237896519,-1.3996998999999999,1.9702,14.2063,4.4722919999999995,9.19158,16.423065,-1
1023,1024,1583237896530,-1.5739,2.0918999,12.6605,4.23134,9.252460000000001,14.889167,-1
1024,1025,1583237896539,-1.7863,2.0003,11.2106,4.0919876,9.173135,14.089417000000001,-1
1025,1026,1583237896549,-1.7235999,1.7493,10.0528,4.1350737,8.933571,12.530725,-1
1026,1027,1583237896559,-1.5904,1.5958999,9.0388,4.209226999999999,8.903576,11.649602,-1
1027,1028,1583237896571,-1.4624,1.5425,8.2386,4.3493166,8.934931,10.996683,-1
1028,1029,1583237896581,-1.1917,1.5735999,7.6312,4.5392437,9.157698,10.270206,-1
1029,1030,1583237896591,-0.97249997,1.6982,7.0123997000000005,4.7751107,9.270655999999999,9.619663000000001,-1
1030,1031,1583237896601,-0.47219998,1.7601,6.226,5.793576,9.538988,8.500364,-1
1031,1032,1583237896611,0.63229996,1.9871,5.2671,7.0837727,9.993445,7.554185,-1
1032,1033,1583237896622,2.0200999,2.3913,4.4400997,8.190717999999999,10.346686,6.9797009999999995,-1
1033,1034,1583237896632,3.3918,2.7954,3.7974,9.096703,11.006453,6.1723,-1
1034,1035,1583237896642,3.8997998,3.284,3.1622999,9.158885,11.461053,5.349547,-1
1035,1036,1583237896652,4.0779,3.5798,2.4081,9.282014,11.369603999999999,4.8767304000000005,-1
1036,1037,1583237896662,4.2584,3.3316,2.0827,8.922854,10.952601,4.9001455,-1
1037,1038,1583237896673,4.0295997,2.8843,2.1824,8.535903,10.480101,5.5235959999999995,-1
1038,1039,1583237896683,3.7331,2.1899,3.0321999,8.514519,9.792544,6.3025827,-1
1039,1040,1583237896693,3.8920999,1.4453,3.7596,8.6216345,9.341897,6.5024986,-1
1040,1041,1583237896703,4.1691,0.9819,3.8402,9.041884,9.334541999999999,5.630214,-1
1041,1042,1583237896713,4.758,0.945,2.8244,9.592628,9.473367999999999,3.4675703,-1
1042,1043,1583237896724,5.3385997000000005,0.94189996,1.1044999,9.814092,9.218117,2.364025,-1
1043,1044,1583237896734,5.7014,0.5837,0.1326,9.550355999999999,8.551504,2.3215137,-1
1044,1045,1583237896744,5.5875998,-0.1848,0.22049999,8.758764999999999,7.7689642999999995,2.7069035,-1
1045,1046,1583237896755,4.9591,-1.0691,0.71779996,8.098664999999999,7.314085,2.8333173,-1
1046,1047,1583237896765,3.7663,-2.4893,0.71279997,7.022844999999999,6.3607426,2.2257457,-1
1047,1048,1583237896775,3.3981,-3.1317,-0.0253,6.476325,5.87132,1.2630563,-1
1048,1049,1583237896785,3.3981,-3.1317,-0.0253,6.0237446,5.645528,0.5459642,-1
1049,1050,1583237896795,2.9417,-3.5637,-0.89589995,5.605085,5.2732677,-0.2840768,-1
1050,1051,1583237896805,2.7101998,-4.0186,-1.5452,5.044717299999999,4.706799500000001,-1.0027204,-1
1051,1052,1583237896815,2.4187,-4.5835,-1.9706999,4.623405,4.488658999999999,-1.5142081,-1
1052,1053,1583237896825,2.0767,-4.9449,-2.4575999,4.0218086,4.1238209999999995,-2.2238016,-1
1053,1054,1583237896835,1.6549,-5.3775997,-3.0061,3.214302,3.6720924,-3.0774972000000003,-1
1054,1055,1583237896845,0.3339,-6.3687,-4.2479997,2.1880127999999996,3.1217612999999997,-3.8855212,-1
1055,1056,1583237896856,-0.2749,-6.8294,-4.7402997000000004,1.4286968,2.7228298,-4.478603400000001,-1
1056,1057,1583237896866,-0.82269996,-7.2447,-4.8872,0.7416375,2.314331,-4.6254919999999995,-1
1057,1058,1583237896876,-0.82269996,-7.2447,-4.8872,0.22964226,1.9871109,-4.570579,-1
1058,1059,1583237896886,-1.3196,-7.7036,-4.7037997,-0.4881394,1.6836697,-4.695537,-1
1059,1060,1583237896896,-2.5049999,-8.361899000000001,-4.8303,-1.5579644,1.2339716,-5.0478106,-1
1060,1061,1583237896906,-3.1071,-8.7582,-5.1022997000000005,-2.3283134,0.82538664,-5.446953,-1
1061,1062,1583237896916,-3.908,-9.1804,-5.3617,-3.2566028,0.43674070000000004,-5.756849,-1
1062,1063,1583237896927,-4.6063,-9.4921,-5.5236998,-3.8153615,0.23150973,-5.893155,-1
1063,1064,1583237896937,-5.1450996,-9.7429,-5.5474,-4.414075,-0.027839776,-5.90889,-1
1064,1065,1583237896947,-5.5243998,-9.9429,-5.4269,-4.862413,-0.28674874,-5.792254,-1
1065,1066,1583237896957,-5.8111997,-10.219999000000001,-5.1949,-5.2628193,-0.5955242,-5.4732504,-1
1066,1067,1583237896967,-6.1703997,-10.6428995,-4.7855,-5.571039,-1.1002983999999998,-5.1505410000000005,-1
1067,1068,1583237896977,-6.4161997,-11.191899000000001,-4.617,-5.880284,-1.6470383000000002,-5.2495650000000005,-1
1068,1069,1583237896988,-6.7675,-11.739699,-5.0776,-6.20218,-2.180859,-5.865469,-1
1069,1070,1583237896998,-7.1224,-12.247499000000001,-5.5871,-6.5772166,-2.69703,-6.2146672999999995,-1
1070,1071,1583237897008,-7.4561,-12.7943,-5.6218,-6.656427000000001,-3.2805161,-5.913458,-1
1071,1072,1583237897018,-7.2925,-13.310599,-4.9428,-6.247171400000001,-3.6907097999999996,-4.983761,-1
1072,1073,1583237897028,-6.8384,-13.539499,-4.0053997,-5.6107635,-3.8508627,-3.9924269999999997,-1
1073,1074,1583237897038,-6.2756,-13.625998999999998,-3.3137999,-4.8863263,-3.904464,-3.2944023999999996,-1
1074,1075,1583237897049,-5.6278996,-13.696098999999998,-2.8451998,-3.8340075,-4.101229,-2.5914072999999997,-1
1075,1076,1583237897059,-4.94,-13.9746,-2.4298,-3.2989610000000003,-4.4902873,-2.2207944,-1
1076,1077,1583237897069,-4.913,-14.500098999999999,-2.0716,-3.4666699999999997,-5.084231,-1.514505,-1
1077,1078,1583237897079,-5.7711,-15.1339,-0.9776,-4.221964,-5.86046,0.030013712,-1
1078,1079,1583237897089,-6.7823,-15.941799,0.5826,-5.3064895,-6.8648562,2.3953414,-1
1079,1080,1583237897100,-8.1033,-16.5758,2.4789,-6.115605,-7.241579,4.016158600000001,-1
1080,1081,1583237897110,-8.557799000000001,-16.7081,3.1121,-4.911044,-7.357832000000001,3.283437,-1
1081,1082,1583237897120,-6.8718,-16.569000000000003,1.2372,-2.4795119999999997,-7.1240429999999995,0.87142235,-1
1082,1083,1583237897130,-4.9936,-16.0756,-1.2102,-0.5275863000000001,-6.654913400000001,-0.73857296,-1
1083,1084,1583237897140,-3.5335998999999996,-15.391399,-2.4527,1.1181496000000002,-6.357563,-1.0058042,-1
1084,1085,1583237897151,-2.3543,-15.0803995,-2.3504999,2.7316117,-6.477857599999999,0.215459,-1
1085,1086,1583237897161,-1.2914,-15.039499,-0.861,4.2263980000000005,-7.050483,2.7582066000000003,-1
1086,1087,1583237897171,-0.594,-15.3727,1.0098,5.4144874000000005,-8.169907,4.75204,-1
1087,1088,1583237897181,0.2067,-16.069399,2.5935,7.4923573,-8.691421499999999,6.3810167,-1
1088,1089,1583237897192,2.189,-15.9466,3.9222998999999996,11.2761345,-7.497366400000001,7.470407000000001,-1
1089,1090,1583237897202,6.007000000000001,-13.953798999999998,4.5546,17.145397,-4.9639654,8.056258999999999,-1
1090,1091,1583237897212,11.6608,-10.6305,4.894,22.903095,-1.5800294,8.898846,-1
1091,1092,1583237897222,16.732398999999997,-6.6591,5.4828,26.565096,1.1136293,9.873813,-1
1092,1093,1583237897232,19.5586,-3.7101,6.1644998,27.92703,2.0925705000000003,10.304299,-1
1093,1094,1583237897242,20.3057,-2.3925998,6.1707,27.638493,2.0251977,10.256281,-1
1094,1095,1583237897253,19.5232,-2.0040998,5.9235,25.732841,1.5306993999999998,10.601936,-1
1095,1096,1583237897263,17.1066,-1.9674,6.2388997,22.065567,1.7037810000000002,12.526864999999999,-1
1096,1097,1583237897273,14.0131,-1.1844,7.7173,21.947159,2.4945188,14.807610500000001,-1
1097,1098,1583237897283,13.842899,0.139,9.781799000000001,23.424879999999998,3.5151286,17.030838,-1
1098,1099,1583237897293,15.288198999999999,1.6904999,11.851299000000001,24.672382,4.598304,17.544949,-1
1099,1100,1583237897303,16.495499,3.2524998,12.2844,25.501715,5.1156044000000005,17.012949,-1
1100,1101,1583237897314,17.2794,4.2001,11.715799,25.785418,5.426995,16.36594,-1
1101,1102,1583237897324,17.5317,4.876,11.057799000000001,25.871544,5.950529599999999,15.824735,-1
1102,1103,1583237897334,17.6064,5.7254,10.5266,24.287012,5.5649004,15.276807999999999,-1
1103,1104,1583237897344,13.8647995,5.0776,9.6032,21.487146,4.636678,14.832729999999998,-1
1104,1105,1583237897355,13.8647995,5.0776,9.6032,19.171818,4.0777754999999996,14.101407,-1
1105,1106,1583237897365,10.9718,4.4975,8.7157,17.264885,3.5210567000000004,12.678322,-1
1106,1107,1583237897375,8.2856,3.5827,5.869,16.353882000000002,2.8219402000000002,11.054402,-1
1107,1108,1583237897386,7.7532997,3.1801999,5.1198,15.795257000000001,2.3432531,10.45703,-1
1108,1109,1583237897396,7.0042995999999995,2.7217999,5.2941,15.028001999999999,1.7879131999999998,10.833006,-1
1109,1110,1583237897406,6.1840997,2.3783998,6.223099700000001,14.208601000000002,1.4315411,11.746528999999999,-1
1110,1111,1583237897416,6.1840997,2.3783998,6.223099700000001,13.661248,1.3170313,11.970482,-1
1111,1112,1583237897426,4.9282,2.2489998,5.8394,12.831916,1.1896118,10.744497,-1
1112,1113,1583237897437,4.2994,2.2547,4.5828,12.169046,1.2093688,9.549847999999999,-1
1113,1114,1583237897447,3.7080998,2.3007,3.4332,11.596564,1.2192711,8.364316,-1
1114,1115,1583237897457,3.1029,2.2612,2.1297998,11.001107000000001,1.1823333999999999,7.0598016,-1
1115,1116,1583237897467,2.6685998,2.2484,0.9008,10.689297,1.1821035,6.1493444,-1
1116,1117,1583237897477,2.3629,2.1289,0.0067,10.368081,1.0170280999999999,5.216544,-1
1117,1118,1583237897487,2.0293,1.8859999,-0.54249996,9.909975,0.7732601,4.8026824,-1
1118,1119,1583237897498,1.4857999,1.5530000000000002,-0.6644,9.403342,0.43197143,4.837178,-1
1119,1120,1583237897508,1.0128,1.1941998999999999,-0.45479998,8.98857,0.11737335,5.068027,-1
1120,1121,1583237897518,0.6626,0.93789995,-0.1832,8.74259,-0.06877105,5.3622365,-1
1121,1122,1583237897528,0.6398,0.86149997,-0.053999998,8.788253,-0.10399455,5.326438,-1
1122,1123,1583237897538,0.6389,0.8153,-0.1634,8.735351,-0.13426682,5.1389337,-1
1123,1124,1583237897549,0.5603,0.76669997,-0.392,8.617153,-0.14232092,4.7970705,-1
1124,1125,1583237897559,0.42369998,0.71529996,-0.82809997,8.494819999999999,-0.22071666,4.387509,-1
1125,1126,1583237897569,0.42369998,0.71529996,-0.82809997,8.341934,-0.37748897,4.0437107,-1
1126,1127,1583237897579,0.0897,0.31489998,-1.4735,8.114495,-0.65590596,3.9443227999999997,-1
1127,1128,1583237897589,-0.1184,0.046499997,-1.433,7.931234,-0.86291814,4.166399500000001,d
1128,1129,1583237897599,-0.251,-0.1493,-1.1241,7.8587375,-1.0405009,4.491168,-1
1129,1130,1583237897610,-0.3155,-0.3225,-0.8531,7.81047,-1.1603162,4.708964,-1
1130,1131,1583237897620,-0.3788,-0.41419998,-0.6423,7.8017936,-1.1771045,4.8488426,-1
1131,1132,1583237897630,-0.2821,-0.4039,-0.5239,7.953931,-1.1096646000000001,4.9025016,-1
1132,1133,1583237897640,-0.16049999,-0.3588,-0.5107,7.974750500000001,-1.1341523999999998,4.9418144,-1
1133,1134,1583237897650,-0.1919,-0.3691,-0.45389998,7.938578999999999,-1.1046463,5.0659776,-1
1134,1135,1583237897660,-0.1621,-0.317,-0.3412,8.039911,-1.0133411,5.1424675,-1
1135,1136,1583237897671,0.0158,-0.23279999,-0.3082,8.252535,-0.92073333,5.238714,-1
1136,1137,1583237897681,0.2216,-0.129,-0.1453,8.551072999999999,-0.7863611999999999,5.5090959999999995,-1
1137,1138,1583237897691,0.4816,0.00049999997,0.0436,8.605872,-0.74619603,5.6263165,-1
1138,1139,1583237897701,0.4517,-0.0037999998,0.16139999,8.324937,-0.8713841,5.723435,-1
1139,1140,1583237897711,0.14389999,-0.13239999,0.24399999,8.06414,-0.9756372,5.7392845,-1
1140,1141,1583237897721,-0.0651,-0.24219999,0.2471,8.151577,-0.9152267,5.7176599999999995,-1
1141,1142,1583237897732,0.0743,-0.1407,0.2234,8.59164,-0.6195715,5.6600657,-1
1142,1143,1583237897742,0.6128,0.1841,0.1416,9.2296,-0.33756329999999996,5.550650599999999,-1
1143,1144,1583237897752,1.3038,0.426,0.0233,9.844249000000001,-0.16853264,5.624727,-1
1144,1145,1583237897762,1.8205999,0.6001,0.117699996,9.906038,-0.09120951,5.9141283,-1
1145,1146,1583237897772,1.8067,0.662,0.429,9.735178999999999,-0.11854172,6.3267164000000005,-1
1146,1147,1583237897782,1.6405,0.6077,0.82519996,9.629642,-0.093507946,6.619623,-1
1147,1148,1583237897793,1.5754,0.6619,1.0634,9.661503999999999,-0.010151415,6.777104,-1
1148,1149,1583237897803,1.6304,0.69729996,1.2326,9.957179,0.18782991,6.997696400000001,-1
1149,1150,1583237897813,1.8973,0.8441,1.4165,10.440175,0.36116055,6.9367779999999994,-1
1150,1151,1583237897823,2.5484998,1.0375999,1.3428999,11.561198,0.7070460999999999,6.874030599999999,-1
1151,1152,1583237897834,3.5003998,1.3014,1.2991999,12.351389999999999,0.97768664,7.1858516,-1
1152,1153,1583237897844,4.2943997000000005,1.5479,1.5963999,12.737977,1.3053187,7.75593,-1
1153,1154,1583237897854,4.7026,1.8417,2.1392999,12.907295,1.7343981,8.351253,-1
1154,1155,1583237897865,4.8870997,2.2363,2.7087,13.201245000000002,2.1424849999999998,8.75934,-1
1155,1156,1583237897875,5.9080997,2.8244998,3.2061,14.039503,2.4776251,8.933446,-1
1156,1157,1583237897885,6.6858997,2.9966,3.4678,14.811959,2.738536,9.276861,-1
1157,1158,1583237897895,6.6858997,2.9966,3.4678,15.498251999999999,2.9492064,9.759006,-1
1158,1159,1583237897905,8.3975,3.3923,4.7202,16.471829999999997,3.3245980000000004,10.649802000000001,-1
1159,1160,1583237897915,8.9296,3.6689,5.4467,17.005316,3.7746027,11.434764999999999,-1
1160,1161,1583237897926,9.4438,3.9345999,5.9579,17.569649,4.1294713,11.845773,-1
1161,1162,1583237897936,10.092,4.080899700000001,6.18,18.141478,4.4473157,12.045573,-1
1162,1163,1583237897947,10.3392,4.1349,6.276,18.16388,4.580443,12.135213,-1
1163,1164,1583237897957,10.127399,3.7487998,6.2282,17.80069,4.258136,12.092701,-1
1164,1165,1583237897967,9.7296,3.0885,6.0615,17.277029000000002,3.7863437999999996,11.854421,-1
1165,1166,1583237897977,9.269999499999999,2.2614,5.5882,16.876095,3.3128953,11.459827,-1
1166,1167,1583237897987,8.870299000000001,1.4354999,5.1626997,16.3818,2.7565209999999998,11.053704,-1
1167,1168,1583237897998,8.5273,0.7609999999999999,5.0372,15.867973000000001,2.4236313999999997,10.984741,-1
1168,1169,1583237898008,7.9082,0.1496,5.0583,15.120169,2.2101642999999997,10.916889,-1
1169,1170,1583237898018,7.1362996,-0.40559998,4.9481,14.259846,2.0350811,10.650271,-1
1170,1171,1583237898028,6.305,-0.94949996,4.4971,13.393365,1.9150836,9.986158,-1
1171,1172,1583237898038,5.6049,-1.3377,3.75,12.590973,1.9804262,9.000580000000001,-1
1172,1173,1583237898049,4.7843,-1.7411,2.9871,11.63084,1.9281464,8.283909,-1
1173,1174,1583237898059,4.0976,-2.2045,2.5424,10.905426,1.9022411,7.6381836,-1
1174,1175,1583237898069,3.7389997999999998,-2.577,2.2312999,10.438308000000001,1.9579015,7.357554400000001,-1
1175,1176,1583237898079,3.4524,-2.8766,2.2028,10.083851,2.05117,7.1716685,-1
1176,1177,1583237898089,3.2854997999999997,-3.2410997999999998,2.1279,9.684833,2.0176034,6.7299857,-1
1177,1178,1583237898099,2.9345,-3.6511,1.8132,8.897179,2.0758495,6.177433000000001,-1
1178,1179,1583237898110,2.2742,-3.9266998999999996,1.5589,8.347144,2.2715228,5.8401856,-1
1179,1180,1583237898120,1.8445,-3.8844,1.4652,7.551149400000001,2.8123825,5.560916400000001,-1
1180,1181,1583237898130,1.2831,-3.8149998,1.5555999,6.5273886,3.2105189999999997,5.362217,-1
1181,1182,1583237898140,0.46249998,-3.7477,1.5347998999999999,5.5726867,3.5778760000000003,4.9293933,-1
1182,1183,1583237898150,-0.2375,-3.7194998,1.3133999,4.604068799999999,3.8415922999999994,4.4721293,-1
1183,1184,1583237898160,-0.9177,-3.8444998,1.1989,4.0603940000000005,3.8628817000000004,4.223927,-1
1184,1185,1583237898170,-0.8854,-4.2279,1.0778999,4.1876793,3.6482080000000003,3.5726948,-1
1185,1186,1583237898180,-0.35619998,-4.6601,0.6257,4.15575,3.6980553,2.6123805,-1
1186,1187,1583237898190,-0.3701,-4.6354,-0.1996,3.8745556000000003,4.2451878,1.2279956,-1
1187,1188,1583237898200,-0.26929998,-4.2823,-1.1983,3.6927497000000002,4.7329445,-0.01481532,-1
1188,1189,1583237898211,-0.2342,-4.0285997,-2.1122,3.394365,4.815506,-0.5192832000000001,-1
1189,1190,1583237898221,-0.6638,-4.297,-2.3690999,1.8751963,4.2167068,-0.5258911999999999,-1
1190,1191,1583237898231,-1.7242,-5.0288997,-1.8887,0.46269384,3.7940339999999995,0.2594357,-1
1191,1192,1583237898242,-2.8039,-5.4972997,-0.8211,-0.44503420000000005,3.6158862000000003,1.4254599,-1
1192,1193,1583237898252,-3.2752,-5.8194,0.5025,-0.8530253000000001,3.1023490000000002,2.1858392,-1
1193,1194,1583237898262,-3.3381,-6.4479,1.2421,-0.7818888,2.7117880000000003,2.008716,-1
1194,1195,1583237898272,-2.9178,-6.8654,1.0131,-0.14033853,2.4995465,0.9581308000000001,-1
1195,1196,1583237898282,-2.0046,-7.1133,-0.003,0.47871584,2.4216776,-0.43067858,-1
1196,1197,1583237898292,-1.2521,-7.2328,-1.2514,0.68463635,2.2779298,-1.6015486,-1
1197,1198,1583237898302,-0.8779,-7.4223,-2.1701,0.6535309,2.1207552000000005,-1.9764997,-1
1198,1199,1583237898313,-0.76919997,-7.6442,-2.3061,0.17140569,1.8606776999999999,-1.5772808999999999,-1
1199,1200,1583237898323,-1.1674,-7.9680995999999995,-1.6443,-1.1101818,1.1510938,-0.14373829999999999,-1
1200,1201,1583237898333,-2.0548,-8.6102,-0.34919998,-2.0609863,0.5851429,1.3559705,-1
1201,1202,1583237898343,-2.8027,-9.1974,1.1646999,-2.5327396,0.41517374,2.7516849999999997,-1
1202,1203,1583237898353,-3.0888999,-9.3868,2.5909,-2.5730677,0.6499013000000001,3.42254,-1
1203,1204,1583237898363,-2.9703999,-9.159599,3.2744,-2.2910117999999997,1.0808864,3.0988631,-1
1204,1205,1583237898373,-2.5663,-8.7328,2.9614,-1.9694512,1.5405635,2.3927843999999996,-1
1205,1206,1583237898383,-2.1375,-8.2744,2.2582,-1.6633381999999999,2.1505007999999997,1.7290254,-1
1206,1207,1583237898393,-1.7371,-7.6675,1.5854,-1.0585436000000001,2.9131975,1.1718277,-1
1207,1208,1583237898403,-1.0668,-6.9027996,1.0253999,-0.32441434,3.6565587999999996,0.80849314,-1
1208,1209,1583237898414,-0.2674,-6.1573,0.6562,-0.23623109,4.1543994,0.7039335999999999,-1
1209,1210,1583237898423,-0.1148,-5.6665,0.5545,-0.7569412,4.391895,0.7390996999999999,-1
1210,1211,1583237898433,-0.7227,-5.3912,0.61579996,-1.5539039,4.570129,0.9423961,-1
1211,1212,1583237898443,-1.3033999,-5.242999999999999,0.8448,-2.052683,4.8727946,1.046247,-1
1212,1213,1583237898453,-1.7386999,-4.9377,0.98569995,-2.1006248,5.1840215,0.6401041999999999,-1
1213,1214,1583237898463,-1.7513,-4.6228,0.59709996,-1.8807794999999998,5.496187,0.29847077,-1
1214,1215,1583237898475,-1.4728,-4.2105,0.19999999,-1.7435343,6.0901309999999995,0.10051817,-1
1215,1216,1583237898485,-1.0432,-2.8283,-0.0411,-1.2253428999999998,7.144528,0.042645518,-1
1216,1217,1583237898495,-0.1182,-2.0347,-0.0656,-0.22092736,7.934432000000001,0.023472754,-1
1217,1218,1583237898506,0.6983,-1.1820998999999999,-0.2112,0.5416163,8.757837,-0.16164693,-1
1218,1219,1583237898516,0.98579997,-0.7804,-0.3744,0.71080977,9.066248,-0.29665115,-1
1219,1220,1583237898526,0.7073,-0.5943,-0.5056,0.38804263,9.255113,-0.44291773,-1
1220,1221,1583237898537,0.281,-0.4276,-0.7532,-0.11858959999999999,9.422199,-0.85120577,-1
1221,1222,1583237898547,0.0138,-0.29029998,-1.2597,-0.3619937,9.610967,-1.4349983,-1
1222,1223,1583237898557,-0.2364,-0.0941,-1.7695999,-0.5769354999999999,9.725056,-1.8181089,-1
1223,1224,1583237898567,-0.56,-0.0941,-2.0,-0.97468907,9.748194,-1.907039,-1
1224,1225,1583237898577,-0.56,-0.0941,-2.0,-1.0242873,10.011719,-1.4686799,-1
1225,1226,1583237898588,-0.5388,0.3371,-1.2336999,-0.59726715,10.204193,-1.0012360999999999,-1
1226,1227,1583237898598,-0.023799999,0.494,-0.9359999999999999,-0.034026396,10.419269,-0.73102635,d
1227,1228,1583237898608,0.53679997,0.759,-0.75509995,0.45310745,10.648672,-0.46363238,-1
1228,1229,1583237898618,0.7406,0.8282,-0.4129,0.4995454000000001,10.600864,-0.06287174,-1
1229,1230,1583237898628,0.50299996,0.7308,-0.2191,0.0878289,10.511733,0.0066654575,-1
1230,1231,1583237898638,0.18519999,0.6726,-0.2981,-0.16040193,10.451754,-0.120179355,-1
1231,1232,1583237898649,-0.13849999,0.5554,-0.47559997,-0.60935307,10.291055,-0.22700863,-1
1232,1233,1583237898659,-0.5009,0.44799998,-0.4922,-0.8529008,10.24364,-0.24693796,-1
1233,1234,1583237898669,-0.66029996,0.3895,-0.5198,-0.90728754,10.140908999999999,-0.26382187,-1
1234,1235,1583237898679,-0.6289,0.3017,-0.5229,-0.8007647,10.068451,-0.1134277,-1
1235,1236,1583237898689,-0.48499998,0.2532,-0.3084,-0.6588843000000001,10.042852,0.14415967,-1
1236,1237,1583237898699,-0.24569999,0.17559999,0.017199999,-0.3887705,9.86163,0.51599836,-1
1237,1238,1583237898710,-0.113699995,-0.029299999,0.2227,-0.3224798,9.621827,0.7704541,-1
1238,1239,1583237898720,-0.1549,-0.28309998,0.46679997,-0.5650699,9.340019999999999,1.0303973,-1
1239,1240,1583237898730,-0.52419996,-0.6152,0.7316,-1.0475973,8.964628999999999,1.4576188,-1
1240,1241,1583237898741,-0.9672,-1.0158,1.1651,-1.450934,8.547788,1.9527971999999998,-1
1241,1242,1583237898751,-1.3780999,-1.4459,1.7298,-2.1201517999999995,7.851574,2.9101236,-1
1242,1243,1583237898761,-1.9934,-2.1114,2.5637,-2.9339888,7.090361,3.6551032,-1
1243,1244,1583237898771,-2.8062,-2.8458997999999998,3.2161,-3.7022498,6.4639235,4.010096,-1
1244,1245,1583237898781,-3.5470998,-3.4531998999999995,3.5091,-4.2305737,5.7597218,4.1097336,-1
1245,1246,1583237898792,-4.0425,-4.2076,3.5633998,-4.696849299999999,4.903344000000001,4.2813973,-1
1246,1247,1583237898801,-4.5297,-5.0597,3.7614,-5.0647519999999995,4.060662000000001,4.612928,-1
1247,1248,1583237898811,-4.8828,-5.8911,4.1059,-5.2165537,3.3181529999999997,5.496254,-1
1248,1249,1583237898821,-5.0438,-6.593499700000001,5.0376997,-5.425357,2.8876657000000003,6.6467156,-1
1249,1250,1583237898831,-5.5299997,-7.0786,6.6433,-6.3863797,2.1985762,9.136207,-1
1250,1251,1583237898841,-6.5044,-7.759299799999999,8.675,-7.3082139999999995,1.1864611,10.975079,-1
1251,1252,1583237898852,-7.4698997,-8.7946,10.360999999999999,-8.098061999999999,0.17708473,11.947613,-1
1252,1253,1583237898862,-8.3069,-9.7645,11.0813,-8.378289,-0.7033782,11.673926,-1
1253,1254,1583237898872,-8.5237,-10.6394,10.5872,-7.879193300000001,-1.3269528,10.634296,-1
1254,1255,1583237898882,-7.8058,-11.2794,9.2076,-6.4011087,-1.6429491000000003,8.612432,-1
1255,1256,1583237898892,-6.6931996,-11.3659,7.6183,-5.1652026,-1.2456266000000003,7.420838000000001,-1
1256,1257,1583237898902,-5.7223,-10.8852,6.6916,-4.120393,-0.6596888000000001,7.0771356,-1
1257,1258,1583237898913,-4.9396996,-10.2466,6.5297,-3.0335014,-0.02759078,7.2928630000000005,-1
1258,1259,1583237898923,-4.1266,-9.635,6.8437,-1.7432183,0.3456557,7.5560527,-1
1259,1260,1583237898933,-3.0463,-9.255099000000001,7.0143,0.07839574,0.63022095,6.82653,-1
1260,1261,1583237898943,-1.4896,-8.909699,6.0736,3.1697602000000002,1.3710826999999999,4.488429,-1
1261,1262,1583237898953,0.83349997,-8.1564,4.1006,6.2341948,2.9639645,1.8367262,-1
1262,1263,1583237898964,3.5261,-6.4736,1.5252999,9.235623,4.956668,-0.6694188,-1
1263,1264,1583237898974,6.1619997,-4.3697,-0.88159996,11.598747999999999,6.6082077,-1.9170182,-1
1264,1265,1583237898984,8.7012,-2.2094,-2.2293,14.26089,8.635292,-2.1077209999999997,-1
1265,1266,1583237898994,10.4604,-0.4193,-2.2752,15.114135999999998,9.546267,-1.7928357,-1
1266,1267,1583237899004,11.093599000000001,0.94409996,-1.8261,15.65826,9.784239999999999,-1.6353738000000002,-1
1267,1268,1583237899015,12.1212,2.0823,-2.8234,17.268639,10.975529,-2.8750916,-1
1268,1269,1583237899025,14.3568,3.7745,-5.0299997,19.921003,12.551027000000001,-5.170719,-1
1269,1270,1583237899035,16.845,5.6731,-7.6252,22.548727,14.330064000000002,-7.682925999999999,-1
1270,1271,1583237899045,18.491999,7.375,-9.4662,24.126036,15.735028,-9.166048,-1
1271,1272,1583237899055,18.439498999999998,8.0234995,-9.5618,23.815231,16.028645,-8.902466,-1
1272,1273,1583237899066,16.4988,7.4325,-8.6628,21.756283,15.117773999999999,-7.921906,-1
1273,1274,1583237899076,14.240998999999999,6.2605,-7.8307996,19.437193,13.813702,-7.0357833,-1
1274,1275,1583237899086,12.7245,5.3729997,-7.4982,18.508635,13.113388,-7.098406,-1
1275,1276,1583237899096,12.9793,5.1562,-8.621099000000001,19.170181,12.98322,-8.568771,-1
1276,1277,1583237899106,14.031799,5.2397,-10.174,20.161295000000003,13.053859,-9.892334,-1
1277,1278,1583237899116,14.5968,5.0291,-11.3884,20.467838,12.546391999999999,-11.374785000000001,-1
1278,1279,1583237899126,14.096499,4.1739999999999995,-12.3651,19.620953,11.561264999999999,-12.077944,-1
1279,1280,1583237899136,12.955899,3.0835,-12.545199,18.614334,10.669741,-12.056836,-1
1280,1281,1583237899146,11.5947,1.7592,-12.0494995,17.158535,9.330434,-11.518265,-1
1281,1282,1583237899156,10.0187,0.312,-11.2604,15.499113000000001,7.9663520000000005,-10.688377000000001,-1
1282,1283,1583237899166,8.6725,-0.94839996,-10.3793,13.899882999999999,6.633222,-9.907714,-1
1283,1284,1583237899176,8.6725,-0.94839996,-10.3793,13.139025,5.932247599999999,-9.904899,-1
1284,1285,1583237899186,7.1828,-2.8681,-10.5231,12.635324,5.0520816,-10.401514,-1
1285,1286,1583237899197,6.7404,-3.9931,-10.618899,11.766055999999999,3.6972125,-10.204902,-1
1286,1287,1583237899207,5.7915998,-5.3139,-9.658,10.662703,2.506059,-8.830247,-1
1287,1288,1583237899217,4.757,-6.4375,-7.9747,9.554962,1.4744068000000001,-7.004438,-1
1288,1289,1583237899227,3.9173,-7.4305997,-6.2612,8.859619,0.6332855,-5.4328747,-1
1289,1290,1583237899237,3.7196998999999997,-8.1348,-5.161299700000001,8.725304,0.21214543,-4.692626000000001,-1
1290,1291,1583237899248,3.6239,-8.5603,-4.6334,8.419899000000001,-0.30323043,-4.2320194,-1
1291,1292,1583237899258,3.182,-9.160399,-4.6101,7.6372447,-0.8965232,-4.334204,-1
1292,1293,1583237899268,2.0326,-9.896,-4.5202,6.1356015,-1.6735278000000002,-3.9644246,-1
1293,1294,1583237899278,0.5352,-10.7745,-3.6585998999999996,4.2912617,-2.6620842999999996,-2.5186331,-1
1294,1295,1583237899288,-0.85819995,-11.5948,-2.1193,3.2849019999999998,-3.2294717,-1.1064181,-1
1295,1296,1583237899298,-1.8913,-12.1855,-0.4676,2.333226,-3.6240745000000003,0.5333324,-1
1296,1297,1583237899308,-2.6557999,-12.388,0.9359,1.6676573000000001,-3.7415339999999997,1.8880483000000001,-1
1297,1298,1583237899318,-3.1055999,-12.3867,1.9711,1.3146561,-3.7032843,3.0255240000000003,-1
1298,1299,1583237899328,-3.3571,-12.339499,3.0960999,1.2953302,-3.7056207999999997,4.3453135000000005,-1
1299,1300,1583237899338,-3.1929,-12.267699,4.3785,1.4870961999999999,-3.664661,5.714126599999999,-1
1300,1301,1583237899348,-3.4915,-12.292299,5.6052,0.95860964,-3.849388,7.0785913,-1
1301,1302,1583237899359,-4.5127997,-12.4551,7.022,-0.47041276,-4.035092,8.903672,-1
1302,1303,1583237899369,-5.9249997,-12.449599000000001,8.5285,-1.4416924999999998,-4.0371222,10.213531,-1
1303,1304,1583237899379,-6.9294,-12.3373995,10.210899000000001,-1.9309044999999998,-4.112204,12.368523,-1
1304,1305,1583237899389,-7.119,-12.4234,12.0237,-1.7118349999999998,-4.5271864,14.561181,-1
1305,1306,1583237899399,-6.9540997,-12.7694,14.1839,-1.0140400999999999,-4.9047904,17.063667000000002,-1
1306,1307,1583237899410,-6.1661,-12.7533,16.634698999999998,0.47865838,-4.5722737,19.884823,-1
1307,1308,1583237899420,-4.7216997,-11.7765,19.2829,2.1655843,-3.4718989999999996,22.635464000000002,-1
1308,1309,1583237899430,-3.4450998,-10.3221,21.4713,3.3951599999999997,-2.2724805,24.07775,-1
1309,1310,1583237899440,-2.7875,-8.928699499999999,21.9835,3.7435737000000002,-1.1861928999999998,23.883532000000002,-1
1310,1311,1583237899451,-3.0358,-7.5277996,21.4275,3.4642660000000003,-0.061914057,23.380741,-1
1311,1312,1583237899461,-3.4010000000000002,-6.3027997000000004,20.9968,3.966589,0.69149333,23.32709,-1
1312,1313,1583237899471,-2.9898,-5.4870996,20.9357,5.153672,1.4716103999999999,23.118488,-1
1313,1314,1583237899481,-1.9267,-4.3489,20.5079,6.6989765,2.3896527,22.486975,-1
1314,1315,1583237899491,-0.4933,-3.1643,19.6758,8.61792,3.1978297,21.59819,-1
1315,1316,1583237899501,1.2639999,-1.9469999,18.613498999999997,10.017033999999999,4.243876,20.976482,-1
1316,1317,1583237899511,2.7803,-0.123399995,17.7459,11.910205,6.0579433,20.713283999999998,-1
1317,1318,1583237899521,4.2256,1.5647999,17.5866,13.407348,6.832668300000001,21.233083999999998,-1
1318,1319,1583237899531,5.5411,2.5707,17.910598999999998,14.363803,7.359144000000001,21.603379999999998,-1
1319,1320,1583237899542,6.4003,3.4011,17.9419,15.851042000000001,7.869463400000001,21.019798,-1
1320,1321,1583237899552,8.0335,4.187599700000001,16.9839,17.928463,8.46968,19.478785000000002,-1
1321,1322,1583237899562,10.0561,5.1431,15.0835,19.926786,9.544694999999999,17.315584,-1
1322,1323,1583237899572,12.060599,6.492999999999999,12.7639,22.096432,10.755396000000001,15.569301999999999,-1
1323,1324,1583237899583,14.2548,7.935,10.986199000000001,24.107744,11.989291,14.272333999999999,-1
1324,1325,1583237899593,16.1932,9.3656,9.4835,25.235939000000002,12.632555,13.398097,-1
1325,1326,1583237899603,17.1278,9.9049,8.632999,24.925804,12.350843,12.924236,-1
1326,1327,1583237899613,16.800998999999997,9.6651,8.1052,23.814846,11.74081,12.290127,-1
1327,1328,1583237899623,15.7525,9.0686,7.3462,22.953587,10.978036999999999,11.299904,-1
1328,1329,1583237899634,14.955298999999998,8.2663,6.2752,22.666607,10.740064,10.100486,-1
1329,1330,1583237899644,14.729799,7.934,4.6268,23.11185,10.834031,7.234856,-1
1330,1331,1583237899654,15.2362995,7.8873,2.1654,23.612967,10.821207000000001,4.70249,-1
