,Seq,Time,ACCx,ACCy,ACCz,ADGx,ADGy,ADGz,Keydown
0,1,1583237783893,-0.7563,-0.71779996,-0.5241,6.227567,-0.01913446,5.4553227,-1
1,2,1583237783904,-1.0328,-0.63949996,-1.146,0.70916253,9.395489999999999,1.9470223000000002,-1
2,3,1583237783914,-1.0328,-0.63949996,-1.146,0.47452122,9.231122000000001,2.5364937999999997,-1
3,4,1583237783924,-0.10349999,-0.35819998,0.5175,0.20308577,9.069562,3.2446987999999997,-1
4,5,1583237783934,-0.10349999,-0.35819998,0.5175,-0.08417056,9.024436,3.7189998999999996,-1
5,6,1583237783944,-0.3557,-0.3685,1.2142998999999999,-0.13252385,9.0833235,3.9848902,-1
6,7,1583237783955,-0.21169999,-0.3355,1.0993,-0.042942400000000006,9.066908999999999,3.8802156,-1
7,8,1583237783965,-0.107999995,-0.2298,0.6838,0.08928457,9.155839,3.5356038,-1
8,9,1583237783975,0.119899996,-0.15969999,-0.0784,0.30773154,9.174858,2.7969928,-1
9,10,1583237783986,0.2669,-0.1748,-0.7782,0.45350969999999996,9.160427,2.1370834999999997,-1
10,11,1583237783996,0.3381,-0.100499995,-1.2253,0.5179233,9.270627000000001,1.7705696,-1
11,12,1583237784006,0.301,0.0918,-0.9499,0.5847119000000001,9.580992,1.9944754,-1
12,13,1583237784016,0.1401,0.13329999,-0.0933,0.6969234000000001,9.706869000000001,2.4141119,-1
13,14,1583237784026,0.2898,0.1894,0.3671,0.8430175999999999,9.709703999999999,2.7478732999999997,-1
14,15,1583237784037,0.2883,0.123799995,0.60679996,0.8243524,9.63738,2.9415162,-1
15,16,1583237784047,0.2883,0.123799995,0.60679996,0.7482359000000001,9.597750999999999,2.9973776,-1
16,17,1583237784059,0.14379999,0.0495,0.6785,0.75890446,9.547636,3.0686865,-1
17,18,1583237784069,0.114999995,0.0394,0.6353,0.7307295,9.557769,2.946726,-1
18,19,1583237784079,0.060099997,0.06839999599999999,0.45549998,0.65596336,9.563523,2.7763164000000002,-1
19,20,1583237784089,-0.0023,0.115499996,0.2712,0.66881543,9.6523485,2.637625,-1
20,21,1583237784099,0.0435,0.1998,0.1344,0.7750414000000001,9.661311999999999,2.5518932,-1
21,22,1583237784109,0.1463,0.20359999,0.016099999,0.97060937,9.781922999999999,2.4126467999999996,-1
22,23,1583237784119,0.37379998,0.3814,-0.17019999,1.1749498,9.9261875,2.1891336,-1
23,24,1583237784130,0.50229996,0.44939998,-0.3392,1.2430983,9.904639,2.0945818,-1
24,25,1583237784140,0.5056,0.4288,-0.3797,1.2254578,9.90465,2.1677772999999996,-1
25,26,1583237784150,0.48319998,0.4385,-0.1989,1.1693568,9.933045,2.4329495,-1
26,27,1583237784160,0.3576,0.44939998,0.0932,0.96450895,9.931273,2.8366213,-1
27,28,1583237784170,0.1786,0.4614,0.41889998,0.8110023000000001,9.925986,3.1276512000000003,-1
28,29,1583237784180,0.0368,0.4253,0.68,0.6032814000000001,9.836022,3.2605388,-1
29,30,1583237784191,-0.1742,0.3595,0.75619996,0.5315894,9.798577,3.1598196,-1
30,31,1583237784201,-0.1739,0.3324,0.55799997,0.58474064,9.8406,2.8478644,-1
31,32,1583237784211,-0.1338,0.3827,0.2853,0.66075176,9.938082000000001,2.6844845,-1
32,33,1583237784221,-0.0157,0.491,0.15339999,0.85826385,10.042114999999999,2.6805484,-1
33,34,1583237784231,0.2373,0.638,0.18100000000000002,1.0759256000000001,10.218156,2.7728877,-1
34,35,1583237784242,0.4597,0.82379997,0.30879998,1.2319796,10.429525,2.8691537,-1
35,36,1583237784253,0.5462,0.9992,0.34019998,1.1389025,10.568964,2.7618650000000002,-1
36,37,1583237784263,0.46159998,1.1054,0.2446,0.91236323,10.579039,2.6992612,-1
37,38,1583237784273,0.17989999,1.1041,0.1652,0.4424005999999999,10.493317,2.8929331,-1
38,39,1583237784283,-0.2868,0.9966,0.4694,-0.3990081,10.163033,3.7191910000000004,-1
39,40,1583237784293,-0.9576,0.7054,1.1635,-1.2130653999999998,9.784834,4.419026000000001,-1
40,41,1583237784304,-1.7156,0.32799998,1.8392998999999999,-1.8367836,9.473301,4.817565,-1
41,42,1583237784314,-2.2711,0.0196,2.21,-2.0608618,9.290421499999999,4.9913073,-1
42,43,1583237784324,-2.4512,-0.20109999,2.3690999,-2.0723732,8.841422999999999,5.00392,-1
43,44,1583237784334,-2.3746,-0.4818,2.3567998,-2.1598572999999996,8.545988000000001,4.953881,-1
44,45,1583237784344,-2.7601,-1.3752999,2.2831,-2.8411798,7.888118700000001,5.0733614000000005,-1
45,46,1583237784355,-3.5152997999999998,-1.9835,2.7752,-3.6657333,7.283123,5.7029404999999995,-1
46,47,1583237784365,-3.5152997999999998,-1.9835,2.7752,-4.9123178,6.4457755,6.9207754,-1
47,48,1583237784375,-5.8127,-3.7147,5.1054,-6.2949114,5.44384,8.210321,-1
48,49,1583237784385,-6.9572,-4.8059998,5.8567,-7.5359607,4.3183737,8.913412,-1
49,50,1583237784395,-6.9572,-4.8059998,5.8567,-8.249998,3.5511854,9.013346,-1
50,51,1583237784405,-7.97,-6.4912996,5.1308,-8.870115,2.5841383999999996,8.191349,-1
51,52,1583237784416,-8.197599,-7.2125998,4.0401,-9.003491,1.7692959,6.7956734,-1
52,53,1583237784426,-8.1104,-7.7035,3.0182998,-8.904783,1.4199148000000001,5.863342299999999,-1
53,54,1583237784436,-7.9937,-7.9714,2.2937,-8.879462,1.2364614999999999,5.3669863,-1
54,55,1583237784446,-7.9937,-7.9714,2.2937,-8.906095,0.97448796,5.1970363,-1
55,56,1583237784457,-8.0742,-8.9414,2.2007,-8.829155,0.05427176,5.3541627,-1
56,57,1583237784467,-7.8444996,-9.7526,2.2766,-8.50249,-0.8349539,5.246347,-1
57,58,1583237784477,-7.5241,-10.665299000000001,2.1035,-7.997438000000001,-1.6918483,5.002368499999999,-1
58,59,1583237784487,-7.009999799999999,-11.5227995,1.7718999,-7.261039299999999,-2.5126956000000003,4.4922695,-1
59,60,1583237784497,-6.0927,-12.2163,1.1741999,-6.202419,-2.975351,3.9107849999999997,-1
60,61,1583237784507,-4.4165,-12.7141,0.387,-4.2114487,-3.4153097000000003,3.0383475,-1
61,62,1583237784518,-2.3731,-12.9234,-0.4667,-1.3535476,-3.5327883,1.9165488000000002,-1
62,63,1583237784528,-0.053299997,-12.9275,-1.3054,1.3210918,-3.494165,1.0233200999999998,-1
63,64,1583237784538,2.171,-12.8994,-2.1622,3.9393716,-3.4171864999999997,0.09535626,-1
64,65,1583237784549,3.6934998,-12.7288,-2.7166997999999998,5.471967,-3.237813,-0.42390779999999995,-1
65,66,1583237784559,4.7399,-12.5427,-3.0495,6.517132,-3.0581042999999997,-0.5048414000000001,-1
66,67,1583237784569,5.756,-12.2416,-2.96,7.748967599999999,-2.857269,-0.34051293,-1
67,68,1583237784579,6.3724,-12.1089,-2.6883,8.64688,-2.8374546,-0.05177222,-1
68,69,1583237784589,6.9932,-11.977699000000001,-2.6485999,9.891952,-2.7404318,-0.29200640000000005,-1
69,70,1583237784599,7.7286,-11.8077,-3.1689999999999996,10.603239,-2.640115,-0.85410756,-1
70,71,1583237784610,8.0145,-11.4313,-3.8032,11.413953999999999,-2.1310215,-1.3574358,-1
71,72,1583237784620,8.7129,-10.640699,-4.4953,12.525352499999999,-1.3263303,-1.9328773000000001,-1
72,73,1583237784631,9.549399000000001,-9.689,-5.1955,13.938353,-0.56629574,-2.3317322999999996,-1
73,74,1583237784641,10.441299,-8.9106,-5.6162996,14.524166000000001,-0.15241489,-2.1019464,-1
74,75,1583237784651,10.6205,-8.356299,-5.5685,14.348020000000002,-0.023549369,-1.5094675,-1
75,76,1583237784661,10.1525,-8.029699,-5.1933,14.21879,0.099972285,-1.0486699,-1
76,77,1583237784672,9.9941,-7.4701996,-5.061,14.946887,1.1284735000000001,-0.99214756,-1
77,78,1583237784682,10.6484995,-6.1447997,-5.4126,15.891110999999999,2.4109995,-0.95081407,-1
78,79,1583237784692,11.3712,-4.6103,-5.5910997,16.309168,3.1890192,-0.18278293,-1
79,80,1583237784702,11.586599,-3.6517,-5.0158997,16.547678,3.4001398000000003,1.1681885,-1
80,81,1583237784712,11.7116995,-3.1933,-3.9687,16.779055,3.3994693999999996,1.9762794,-1
81,82,1583237784722,12.042999,-2.8588998,-3.4933998999999996,17.768694,3.2803437999999994,2.0982115,-1
82,83,1583237784733,12.9297,-2.6559,-4.0116,19.219654000000002,3.3744931000000005,1.3468342,-1
83,84,1583237784743,14.0457,-2.1715999,-4.907099700000001,20.430603,4.0834737,1.6363316,-1
84,85,1583237784753,15.5583,-0.83449996,-4.6333,22.968487,5.6246696,3.7836335,-1
85,86,1583237784763,17.6385,0.86439997,-2.9529,24.817863,6.515101400000001,6.781366,-1
86,87,1583237784774,19.4222,2.1797,-0.1783,25.733732,6.958670599999999,9.941203999999999,-1
87,88,1583237784784,20.2747,3.0256,2.7902,26.138026999999997,6.988445,11.407604,-1
88,89,1583237784794,20.605,3.4332,4.1204,25.754704999999998,6.6721325,10.96551,-1
89,90,1583237784804,20.1455,3.4476,3.5791,25.305725,6.8383574000000005,10.308417,-1
90,91,1583237784815,19.638899,3.9106998,2.8432999,25.797876000000002,7.418242,10.218663000000001,-1
91,92,1583237784825,20.5614,5.2386,3.5774,26.433031,7.7007966,11.400164,-1
92,93,1583237784835,20.317799,5.6344,5.1446,26.119593,7.86048,12.968175,-1
93,94,1583237784845,19.4151,5.6916,6.7381997,25.252956,7.637666,14.528523000000002,-1
94,95,1583237784855,18.1976,5.236799700000001,8.4653,24.103693,6.9671845,16.240473,-1
95,96,1583237784866,16.6981,4.3929,10.371699000000001,22.672249,5.9665327,18.03531,-1
96,97,1583237784876,16.6981,4.3929,10.371699000000001,21.123507,5.154046,19.33653,-1
97,98,1583237784886,13.3504,3.0482,12.8071995,19.612457,4.75521,19.996515,-1
98,99,1583237784896,11.9394,2.9478998,12.989699,18.410970000000002,4.791869999999999,19.856007,-1
99,100,1583237784906,10.859099,3.1833,12.3605995,17.371475,5.2827005,18.708273000000002,-1
100,101,1583237784916,10.1143,3.3999998999999996,11.385699,16.859528,5.493343,17.725624,-1
101,102,1583237784927,9.5015,3.1467998,10.963799,16.397686,5.326754,17.408682000000002,-1
102,103,1583237784937,8.552,2.4477,11.1319,15.237848000000001,4.5938506,17.538965,-1
103,104,1583237784947,7.3452997,1.4812,11.605499,14.051932999999998,3.8855212,17.92265,-1
104,105,1583237784957,6.1865997,0.6896,12.2081995,13.257643,3.5214013999999993,18.244526,-1
105,106,1583237784967,5.4195,0.1646,12.527999999999999,12.474872999999999,3.2430325,18.205289999999998,-1
106,107,1583237784978,4.9297,-0.3875,12.189899,12.0196295,2.8677268,17.472692000000002,-1
107,108,1583237784988,4.3465,-1.219,11.642999999999999,11.281373,2.2917970000000003,17.04214,-1
108,109,1583237784998,3.5618,-1.9808999,11.924999,10.485569,1.9209638,17.46327,-1
109,110,1583237785008,2.7805,-2.6506,12.7522,9.490366,1.4891838,18.126865,-1
110,111,1583237785018,1.7792,-3.4657998,13.4389,8.341016,0.8744965,18.489020999999997,-1
111,112,1583237785029,1.0392,-4.2918997,13.538198999999999,7.654665,0.47455952,18.011522,-1
112,113,1583237785039,0.21689999,-5.1198997,12.486899000000001,6.507287,0.013005303000000001,16.368505,-1
113,114,1583237785049,-1.0007,-5.8485,10.6784,5.108326,-0.36361220000000005,14.356801999999998,-1
114,115,1583237785059,-2.0776,-6.6043997,8.9613,3.9397259,-0.78128546,12.613219,-1
115,116,1583237785069,-2.9198,-7.2949996,7.5786,2.7895036,-1.1182071000000002,10.968623,-1
116,117,1583237785079,-3.6007998,-7.8034,6.5298,1.9025953999999998,-1.1743368,9.983017,-1
117,118,1583237785090,-4.1851,-7.9884996,5.7918,1.317194,-0.9604867,9.24837,-1
118,119,1583237785100,-4.3845997,-7.9880996,5.2300997,1.0167217,-0.74214506,8.657922,-1
119,120,1583237785110,-4.4872,-8.0318,4.7232,0.5801246,-0.6083475,8.053108,-1
120,121,1583237785120,-4.7686996,-8.124499,4.2774,-0.03965756,-0.50919884,7.579851,-1
121,122,1583237785130,-5.1326,-8.2314,3.8414998,-0.45496535,-0.44162488,6.8972929999999995,-1
122,123,1583237785140,-5.18,-8.295199,3.0969,-0.52746177,-0.29628727,5.844102400000001,-1
123,124,1583237785151,-4.982,-8.2673,2.074,-0.6657029999999999,-0.058954824,4.5135584,-1
124,125,1583237785161,-4.9693,-8.2362995,1.0828999,-0.90069866,0.030233977000000002,3.724334,-1
125,126,1583237785171,-5.1507998,-8.3194,0.23600000000000002,-1.4091791999999999,0.10086293,2.9213667,-1
126,127,1583237785181,-5.4529,-8.3532,-0.3322,-1.8584656000000002,0.38986220000000005,2.3234005,-1
127,128,1583237785191,-5.6172,-8.1207,-0.696,-1.9288838,0.79956764,2.0046458,-1
128,129,1583237785202,-5.4460998,-7.7776,-0.9155,-1.2519759,1.4426502,1.6317443,-1
129,130,1583237785212,-4.5049,-7.1766996,-1.2595,-0.12701719,2.1273534,0.9870719000000001,-1
130,131,1583237785222,-3.2700999,-6.5566998,-1.8535999,0.73352593,2.7638279999999997,0.22311087,-1
131,132,1583237785232,-2.5147,-6.0197,-2.5049999,0.63439643,3.0941036,-0.40768465,-1
132,133,1583237785242,-2.661,-5.8231,-3.0024,-0.007192181999999999,3.1268945,-0.91212386,-1
133,134,1583237785252,-3.2286,-5.8782,-3.3765,-0.56966674,3.1079228,-1.1149893,-1
134,135,1583237785263,-3.6362,-5.9179997,-3.4318,-0.7294175,3.2695985,-1.1300441,-1
135,136,1583237785273,-3.6457,-5.7644997,-3.4018,-0.35723403,3.6486773,-1.386396,-1
136,137,1583237785283,-3.1237,-5.388499700000001,-3.6260000000000003,0.38648164,4.1268854,-1.8352321,-1
137,138,1583237785293,-2.4809,-5.0355,-3.9094,0.87843263,4.576851400000001,-1.9788172,-1
138,139,1583237785303,-1.9772999,-4.6078,-3.9842,1.2450423000000002,5.0256014,-2.0897932,-1
139,140,1583237785314,-1.5115,-4.0664,-4.0708,1.6948361,5.6153319999999995,-2.341673,-1
140,141,1583237785324,-1.1394,-3.5886,-4.2402997000000004,2.2579622,6.322981400000001,-2.4533865,-1
141,142,1583237785334,-0.5651,-2.891,-4.3248997000000005,2.6896462000000003,6.8906274000000005,-2.360951,-1
142,143,1583237785344,-0.1286,-2.3276,-4.2077,2.5311787,7.0843563,-2.025619,-1
143,144,1583237785354,-0.2753,-2.1457,-3.8678,2.051352,7.1280847000000005,-1.6045653,-1
144,145,1583237785365,-1.1725999,-2.1459,-2.9672,1.5257194,7.0974,-1.0019543,d
145,146,1583237785375,-1.3168,-2.0525,-2.3644,1.4345961,7.2268114,-0.44215158,-1
146,147,1583237785385,-1.1754999,-1.7033,-1.959,1.6264675,7.630283,-0.09535626,-1
147,148,1583237785395,-0.86649996,-1.2548,-1.9090999,1.9595776000000003,8.065930999999999,-0.1504708,-1
148,149,1583237785405,-0.86649996,-1.2548,-1.9090999,2.1308298,8.321355,-0.39668092,-1
149,150,1583237785415,-0.691,-0.66639996,-2.3581,2.0691361,8.610584,-0.60626936,-1
150,151,1583237785426,-0.66279995,-0.53499997,-2.4006,2.168036,8.709991,-0.6135668000000001,-1
151,152,1583237785436,-0.50909996,-0.49899998,-2.2965,2.3203932999999997,8.754102,-0.47726017,-1
152,153,1583237785446,-0.30949998,-0.2844,-2.0112,2.558396,9.004956,-0.12783122,-1
153,154,1583237785456,-0.0735,0.048899997,-1.6099,2.7979121,9.324621,0.36274073,-1
154,155,1583237785466,-0.0337,0.26479998,-0.9633,2.7932862999999997,9.5016,1.0409031,-1
155,156,1583237785476,-0.0337,0.26479998,-0.9633,2.2645507,9.449838,1.6818213,-1
156,157,1583237785487,-0.8577,0.2121,-0.0453,1.952778,9.402766999999999,1.8873396,-1
157,158,1583237785498,-1.0401,0.21779999,-0.029099998999999998,1.9287113999999999,9.400393,1.8228781000000003,-1
158,159,1583237785508,-0.86499995,0.2333,-0.20089999,2.1651053,9.459616,1.6056953999999999,-1
159,160,1583237785518,-0.6168,0.36769998,-0.4191,2.4754899,9.592781,1.3946223999999998,-1
160,161,1583237785528,-0.2834,0.5237,-0.5047,2.8538213,9.713449,1.4219356,-1
161,162,1583237785539,-0.0101,0.55469996,-0.38369998,3.0170677,9.674538,1.548608,-1
162,163,1583237785549,-0.06839999599999999,0.3811,-0.19319999,2.8890257000000004,9.422697,1.8815168999999998,-1
163,164,1583237785559,-0.2033,0.2669,0.060599997999999995,2.8598258,9.315197,2.134182,-1
164,165,1583237785570,-0.23079999,0.1725,0.2762,2.923828,9.235308,2.320786,-1
165,166,1583237785580,-0.14289999,0.1364,0.43019998,3.1369119,9.25312,2.5124276,-1
166,167,1583237785590,0.117599994,0.17799999,0.6333,3.5279808,9.32284,2.7236342000000002,-1
167,168,1583237785600,0.48259997,0.2679,0.79719996,3.7996078,9.338152000000001,2.698907,-1
168,169,1583237785610,0.5539,0.2581,0.6644,3.7150445,9.242977999999999,2.4519978,-1
169,170,1583237785621,0.38349998,0.119399995,0.406,3.5671593999999995,9.113769,2.144362,-1
170,171,1583237785631,0.2645,0.049599998,0.1334,3.5916184999999996,9.079406,1.9668174999999999,-1
171,172,1583237785641,0.28329998,0.039699998,0.0513,3.8433256,9.096099,2.0125086,-1
172,173,1583237785651,0.5845,0.060799997,0.112799995,4.270154499999999,9.174763,2.0013994999999998,-1
173,174,1583237785661,0.9521,0.1809,0.0867,4.5543847,9.284187,1.8350503,-1
174,175,1583237785672,1.1725,0.2906,-0.10229999599999999,4.7352715,9.408073,1.6303268999999998,-1
175,176,1583237785682,1.2968,0.4283,-0.28800000000000003,4.820591,9.483472,1.4896052,-1
176,177,1583237785692,1.3459999999999999,0.4962,-0.38529998,4.8613214000000005,9.4640875,1.5113733,-1
177,178,1583237785702,1.3406999,0.4649,-0.3279,4.817335,9.399789,1.6271951999999998,-1
178,179,1583237785713,1.2804999,0.4326,-0.2235,4.782954,9.39436,1.6988202000000001,-1
179,180,1583237785722,1.2234,0.41869998,-0.1481,4.7799473,9.313636,1.7353939999999999,-1
180,181,1583237785732,1.2085,0.33449998,-0.1195,4.6927023000000005,9.249309,1.6303461000000001,-1
181,182,1583237785742,1.0692999,0.2686,-0.2277,4.4116040000000005,9.147852,1.5011549,-1
182,183,1583237785752,0.75729996,0.1525,-0.3574,4.129835,9.010358,1.3522546,-1
183,184,1583237785763,0.4957,0.036599997,-0.5098,3.9351866,9.038189,1.1822568000000002,-1
184,185,1583237785772,0.3312,0.1078,-0.65459996,4.081424,9.12551,1.0672586000000002,-1
185,186,1583237785782,0.52639997,0.1804,-0.7606,4.4244847,9.144528999999999,0.99589217,-1
186,187,1583237785792,0.8562,0.2052,-0.8183,4.6218915,9.177809,1.1251118999999998,-1
187,188,1583237785802,0.99079996,0.2499,-0.6437,4.634686,9.18026,1.3793091999999998,-1
188,189,1583237785813,0.97179997,0.2252,-0.39399999999999996,4.4535027000000005,9.099374000000001,1.6660675,-1
189,190,1583237785822,0.80969995,0.1698,-0.1748,4.226657,9.036071000000002,1.7771968,-1
190,191,1583237785832,0.534,0.0734,-0.053099997,3.9754187999999995,8.9367695,1.8103803,-1
191,192,1583237785842,0.2784,0.0047999997999999995,-0.022499999,3.7509862999999997,8.884193,1.8558223999999999,-1
192,193,1583237785852,0.0435,-0.0354,0.030599998,3.6674669,8.886367,1.8960066000000002,-1
193,194,1583237785863,0.0134,-0.0458,0.0646,3.7752252,8.90803,1.8923291000000002,-1
194,195,1583237785874,0.13759999,-0.0158,0.058199997999999996,3.8178417999999996,8.865557,1.8422041,-1
195,196,1583237785883,0.1529,-0.0633,0.020299999,3.7979797999999994,8.812664,1.773797,-1
196,197,1583237785894,0.118999995,-0.1201,-0.068799995,3.7427309,8.764818,1.6846273,-1
197,198,1583237785904,0.0654,-0.15699999,-0.1493,3.7466574,8.725094,1.8023646,-1
198,199,1583237785914,0.0698,-0.1938,-0.0232,3.6078897000000003,8.734516000000001,1.961014,-1
199,200,1583237785925,-0.0729,-0.18169999,0.1338,3.4598703,8.758776,2.0408174999999997,-1
200,201,1583237785935,-0.26209998,-0.1683,0.22989999,3.4382555,8.763161,2.0505092,-1
201,202,1583237785945,-0.34849998,-0.2057,0.247,3.3299230000000004,8.722661,2.0509020000000002,-1
202,203,1583237785956,-0.5135,-0.2232,0.1944,3.163248,8.668121000000001,2.0027497,-1
203,204,1583237785966,-0.6204,-0.2986,0.2759,3.0857525000000003,8.585196,2.0980964,-1
204,205,1583237785976,-0.71889997,-0.4118,0.2748,2.966186,8.444866000000001,2.050969,-1
205,206,1583237785987,-0.8293,-0.48409998,0.162,2.8857312000000004,8.430032,1.9441971999999998,-1
206,207,1583237785997,-0.83519995,-0.38799998,0.077599995,3.0273244,8.576317999999999,1.8526523999999998,-1
207,208,1583237786007,-0.5512,-0.2215,-0.1042,3.2758903999999998,8.685397,1.6776267,-1
208,209,1583237786017,-0.4262,-0.113299996,-0.2647,3.3732195,8.785953999999998,1.5520557,-1
209,210,1583237786027,-0.5169,-0.054199997,-0.22829999,3.2510097,8.832756,1.6694577000000002,-1
210,211,1583237786037,-0.6667,-0.024799999,-0.0234,3.1009029999999997,8.843856,1.8880388,-1
211,212,1583237786047,-0.8674,0.0142,0.12789999,2.9464865000000002,8.821425999999999,1.96993,-1
212,213,1583237786058,-0.96389997,0.014099998999999998,0.1695,2.9530659,8.924961999999999,1.9437566000000002,-1
213,214,1583237786068,-0.84919995,0.2895,0.089999996,3.229098,9.255007,1.7744769,d
214,215,1583237786078,-0.4637,0.6448,-0.2131,3.7240276,9.60277,1.3995258,-1
215,216,1583237786088,0.086799994,1.0215,-0.5403,4.351203,9.973708,1.110967,-1
216,217,1583237786098,0.7366,1.439,-0.7496,5.191788,10.426634,0.9200341999999999,-1
217,218,1583237786108,1.3606,1.7195,-0.8892,5.6475480000000005,10.538902,0.8362468000000001,-1
218,219,1583237786119,1.8432,1.8912,-0.91889995,6.1191005999999994,10.769838,0.9350124,-1
219,220,1583237786129,2.1548998,2.2770998,-0.63019997,6.349269400000001,11.218309,1.465874,-1
220,221,1583237786139,2.2475,2.5716999,-0.0859,6.376947,11.376164,1.9345533,-1
221,222,1583237786149,2.1883,2.7640998,0.4473,6.2234783,11.655597,2.512293,-1
222,223,1583237786159,2.0246,3.05,0.8678,6.2825,11.933285,2.8585236000000003,-1
223,224,1583237786169,2.3621,3.3125,1.2063,7.101068499999999,12.230617,3.0674512000000003,-1
224,225,1583237786180,3.4039,3.6404,1.3794999,8.307765,12.564733,3.1365477999999998,-1
225,226,1583237786190,4.607599700000001,3.9485,1.474,9.374986,12.881591,3.0870261,-1
226,227,1583237786200,5.5369997,4.2604,1.3794999,10.061565,13.137923,2.90319,-1
227,228,1583237786210,6.08,4.4289,1.2008,10.216902000000001,13.186354000000001,2.5303838,-1
228,229,1583237786221,6.0926,4.3545,0.88909996,9.965539,12.889769,2.3130669999999998,-1
229,230,1583237786231,5.8395,4.0078,0.76019996,9.46086,12.497483,2.4540854,-1
230,231,1583237786241,5.416,3.5568,1.0018,8.925259,11.997881,2.9287407,-1
231,232,1583237786252,4.947,2.9833998999999998,1.5856,8.371163000000001,11.552828,3.6299930000000002,-1
232,233,1583237786262,4.4992,2.5142999,2.2876,8.023066,11.211013000000001,4.142907,-1
233,234,1583237786273,4.3248997000000005,2.1404998,2.7972999,7.933408,10.869178,4.5173798,-1
234,235,1583237786283,4.3942,1.7444998999999999,3.1671,7.810939299999999,10.2382,4.723559,-1
235,236,1583237786293,4.3953,1.1295998999999999,3.3685,7.3164315,9.593575999999999,4.763809999999999,-1
236,237,1583237786305,4.0476,0.4229,3.4592,6.581507000000001,8.907867,4.5975375,-1
237,238,1583237786315,2.9211,-1.1338,2.9404,5.742703400000001,8.012981,4.000807,-1
238,239,1583237786325,2.4715,-1.9511,2.2391,5.0769715,7.2605699999999995,3.2192244999999997,-1
239,240,1583237786336,1.8636999,-2.7272,1.6251,4.250675,6.5238643,2.5628877,-1
240,241,1583237786346,1.8636999,-2.7272,1.6251,3.444586,5.826673,2.1611597999999996,-1
241,242,1583237786356,0.0287,-4.5638,0.8912,1.9879918,4.802558,1.7781161,-1
242,243,1583237786366,-0.8443,-5.2595,0.7468,0.78817123,4.1250849999999994,1.5853063,-1
243,244,1583237786376,-1.4784,-5.7542,0.79929996,0.10331459,3.7140486000000004,1.5956875,-1
244,245,1583237786386,-1.8062999,-6.1268,0.6817,-0.31957802,3.4700122,1.3125301999999999,-1
245,246,1583237786396,-2.2384999,-6.4357,0.1313,-1.1636107,3.0854937999999996,0.34218886,-1
246,247,1583237786407,-3.0377998,-6.9157996,-0.84099996,-2.1866052000000002,2.6282303,-0.7766215999999999,-1
247,248,1583237786417,-3.8641,-7.3898997,-1.8499,-3.1463928,2.1656895,-1.6898084,-1
248,249,1583237786427,-4.6639,-7.7994,-2.3703,-3.957922,1.8871959999999999,-1.9910276999999998,-1
249,250,1583237786437,-5.6854,-8.1355,-2.4627,-5.2337346,1.5047078999999999,-2.0519266,-1
250,251,1583237786447,-6.2278,-8.4482,-2.4844,-5.639963,1.2169248,-2.0757537,-1
251,252,1583237786457,-6.3223,-8.7881,-2.6243,-5.7485743,0.8705892,-2.3695798,-1
252,253,1583237786468,-6.2415,-9.0776,-3.1792998,-5.748325299999999,0.5977939,-3.1031823,-1
253,254,1583237786478,-6.4118,-9.405499,-3.9385998,-6.127576400000001,0.24237941,-3.850317,-1
254,255,1583237786488,-6.9077,-9.7225,-4.4158998,-6.6073937,0.02581907,-4.1208906,-1
255,256,1583237786498,-7.5242,-9.999,-4.291,-7.405553299999999,-0.38486314,-3.8450112,-1
256,257,1583237786508,-8.2745,-10.4113,-4.0025,-8.42917,-0.8694208000000001,-3.6134057,-1
257,258,1583237786518,-9.1227,-10.7828,-3.9791,-8.959639,-1.1351773,-3.6423757000000005,-1
258,259,1583237786528,-9.5562,-11.1133995,-4.0503,-9.135603999999999,-1.5691502,-3.789533,-1
259,260,1583237786538,-9.5215,-11.4513,-4.369,-8.895877,-1.7588667000000002,-4.0683136,-1
260,261,1583237786548,-9.030499,-11.5899,-4.6795,-8.067703,-1.8715188999999999,-4.2007804,-1
261,262,1583237786558,-8.0721,-11.6649,-4.7212996,-6.866685400000001,-1.9284337,-4.022297,-1
262,263,1583237786568,-7.0035996,-11.6355,-4.3724,-5.8481727,-1.8517139,-3.3666400000000003,-1
263,264,1583237786578,-6.7956,-11.5399,-3.5949,-5.758304,-1.9234921000000003,-2.3178362999999997,-1
264,265,1583237786589,-6.950999700000001,-11.8679,-2.4821,-5.724115,-2.317434,-1.2453201,-1
265,266,1583237786599,-7.2393,-12.402599,-1.28,-5.782562,-3.0976086,0.29124027,-1
266,267,1583237786609,-7.3324,-12.887799000000001,-0.8821,-5.393514,-3.7676019999999997,0.18607736,-1
267,268,1583237786619,-6.9219,-13.6257,-1.4785999,-4.507621299999999,-4.419706,-0.38426940000000004,-1
268,269,1583237786629,-5.7773,-14.052798999999998,-2.401,-2.798209,-4.414592,-1.2628264,-1
269,270,1583237786640,-4.8665,-13.496699,-3.1462,-1.7577462,-3.8566952000000003,-1.4531271000000001,-1
270,271,1583237786650,-4.161299700000001,-12.9831,-3.2438998,-0.50988835,-3.867354,-0.8830965000000001,-1
271,272,1583237786660,-3.1478,-12.9795,-2.5442,0.47937664,-4.0430593,0.58475983,-1
272,273,1583237786670,-2.9076998,-12.9853,-0.9906,0.8107629,-4.648706400000001,3.1146168999999997,-1
273,274,1583237786680,-2.9276,-13.4626,0.88199997,1.5257385,-5.4109917,4.541705,-1
274,275,1583237786690,-2.1255999,-14.0568,2.1371,3.1284362999999997,-5.8490157,5.5125823,-1
275,276,1583237786700,-0.68829995,-13.9897995,2.6083998999999998,5.124922799999999,-5.863878700000001,5.6822550000000005,-1
276,277,1583237786711,0.85429996,-13.5032,2.225,7.088599,-5.2677703000000005,5.339864700000001,-1
277,278,1583237786721,2.0721,-12.493899,1.8147999,8.913393,-4.475663,5.7943796999999995,-1
278,279,1583237786731,4.5941997,-10.954599,2.4436998,13.685937,-3.0180445,7.348178999999999,-1
279,280,1583237786741,8.4942,-9.3855,3.4833,17.713558,-2.4515765,8.481277,-1
280,281,1583237786751,11.9682,-8.4901,4.3045,19.519485,-2.673854,9.447931,-1
281,282,1583237786762,13.051399,-8.4584,5.5534,18.660610000000002,-3.3586915,12.180069999999999,-1
282,283,1583237786772,11.4134,-8.4503,7.831,16.394123,-3.4214292,15.000717999999999,-1
283,284,1583237786782,8.9855995,-7.8760996,10.366199499999999,15.354226,-2.4368856,17.202013,-1
284,285,1583237786792,8.4081,-6.0913997,12.1018,17.512531,-0.23194069,18.14731,-1
285,286,1583237786803,10.941899000000001,-3.3172,12.597999999999999,21.461557,2.2953978,17.528984,-1
286,287,1583237786813,14.0898,-0.75549996,11.7976,23.191999999999997,3.2661700000000002,15.446268,-1
287,288,1583237786823,15.7493,0.6983,9.5771,23.653038000000002,2.9268255,13.242703,-1
288,289,1583237786833,16.1747,0.78529996,7.2409,22.608207999999998,2.1482406000000003,12.89292,-1
289,290,1583237786843,15.129499,0.4306,6.7597,20.730722,1.5985413999999998,14.009107,-1
290,291,1583237786853,13.293099,0.29029998,7.7247,19.171532,1.291576,15.878556,-1
291,292,1583237786863,11.788199,0.3737,9.4751,18.373535,1.3772309999999999,18.111982,-1
292,293,1583237786873,11.0504,0.84029996,11.595099000000001,18.299189000000002,1.8654662,18.969873,-1
293,294,1583237786883,11.118,1.8539,12.3665,19.188463,2.8550377,17.723421,-1
294,295,1583237786893,11.9474,2.9793,11.0912,19.722582,3.2519388,15.938718,-1
295,296,1583237786903,12.505899000000001,3.6299998999999996,9.2946,19.462358,3.213076,14.425035999999999,-1
296,297,1583237786913,12.2815,3.8135,7.7581,18.378410000000002,2.7527478,13.481597,-1
297,298,1583237786924,11.241,3.55,6.7966,17.544346,2.3788407000000005,13.171585999999998,-1
298,299,1583237786934,10.445399,3.3597998999999996,6.4564,17.347754000000002,2.2442767999999997,13.286698999999999,-1
299,300,1583237786944,10.2456,3.3752,6.6317997,16.564745000000002,2.2091203,13.834473000000001,-1
300,301,1583237786954,9.5789995,3.5121,7.0601997,15.447945,2.2359831000000003,14.033257999999998,-1
301,302,1583237786964,8.5288,3.6738,7.223799700000001,14.690783499999998,2.5733932999999998,13.507223999999999,-1
302,303,1583237786974,7.8191,4.1115,6.6614,14.97914,3.229893,12.436394,-1
303,304,1583237786984,8.1677,4.8585,5.5569,15.324470499999999,3.051123,11.521588000000001,-1
304,305,1583237786994,8.5176,4.6447997,4.4086,14.40865,2.8912091,10.486019,-1
305,306,1583237787005,7.6951,4.6012,3.5249998999999996,13.350442000000001,3.012873,9.648192,-1
306,307,1583237787015,5.7015,4.2233,2.0193,12.045995,2.3129423,8.959744,-1
307,308,1583237787025,3.9422,3.2210999,1.7124,10.158397,1.351546,8.729643,-1
308,309,1583237787035,2.1064,2.4013999,1.6158999,8.196608,0.5178467000000001,8.652146,-1
309,310,1583237787045,0.4432,1.5051,1.4824,6.621691,-0.34704432,8.487703,d
310,311,1583237787055,-0.7987,0.72389996,1.1629,5.554318,-1.0097785,8.131696,-1
311,312,1583237787066,-1.2943,0.2972,0.63729995,5.322741000000001,-1.2264538,7.555439999999999,-1
312,313,1583237787076,-1.2041998999999999,0.20639999,-0.0221,5.4602260000000005,-1.2405700000000002,6.9540067,-1
313,314,1583237787086,-1.0116999,0.1563,-0.7446,5.6245832,-1.2611983999999998,6.2444997,-1
314,315,1583237787096,-1.0049,0.086899996,-1.3404,5.606138,-1.2618208999999998,5.717794400000001,-1
315,316,1583237787106,-1.0753,-0.018299998999999997,-1.5349,5.5786815,-1.3384833,5.5839586,-1
316,317,1583237787116,-1.0753,-0.018299998999999997,-1.5349,5.5896277,-1.450618,5.747262,-1
317,318,1583237787127,-1.0041,-0.37939999,-0.80689996,5.7161183,-1.6730777,6.5628899999999994,-1
318,319,1583237787136,-0.92109996,-0.5143,-0.11889999,5.819509500000001,-1.7501711,7.066831,-1
319,320,1583237787146,-0.6802,-0.5229,0.3445,6.0878615,-1.7155412,7.4726963,-1
320,321,1583237787156,-0.429,-0.39949998,0.5636,6.3691797,-1.5589604,7.669844,-1
321,322,1583237787166,-0.19029999,-0.2856,0.5604,6.5418115,-1.4656537,7.606914999999999,-1
322,323,1583237787176,-0.19029999,-0.2856,0.5604,6.7141557,-1.3863577,7.270338499999999,-1
323,324,1583237787186,0.131,-0.1282,-0.0174,6.8167133,-1.2789443,7.060022,-1
324,325,1583237787197,0.2879,-0.059899997,-0.1776,6.949735,-1.2108148,6.959245,-1
325,326,1583237787207,0.2258,-0.1845,-0.071499996,6.8465743,-1.4132493999999998,7.135219,-1
326,327,1583237787217,0.086899996,-0.391,0.2085,6.758841,-1.4553682,7.445048,-1
327,328,1583237787227,0.059499998,-0.1725,0.50549996,6.790358500000001,-1.09076,7.656216000000001,-1
328,329,1583237787238,0.20179999,0.1997,0.5855,7.068641,-0.731783,7.694045,-1
329,330,1583237787248,0.7614,0.4734,0.6624,7.646199,-0.5129434,7.7703240000000005,-1
330,331,1583237787258,1.6669999,0.6983,0.8170000000000001,8.682602000000001,-0.23832841,8.043512,-1
331,332,1583237787268,2.4426,0.9188,1.0835999,9.388307000000001,-0.07814674,8.342241,-1
332,333,1583237787278,3.2210999,0.97309995,1.4164,10.153838,-0.050575115,8.824108,-1
333,334,1583237787289,4.039,1.2142998999999999,2.0829,11.04813,0.6656072,9.723677,-1
334,335,1583237787299,4.7929997,2.0449,2.7454,11.632822,1.2694633,10.207822,-1
335,336,1583237787309,5.5165,2.4592,3.1841998,12.21016,1.4235158,10.65731,-1
336,337,1583237787319,5.8132,2.4406,3.4805,12.217075,1.3516513,11.078180999999999,-1
337,338,1583237787329,5.7537,2.3174999,3.8758998,12.067849,1.234594,11.589421000000002,-1
338,339,1583237787340,5.5566,2.1166,4.513499700000001,11.536087,1.0019734,12.556227999999999,-1
339,340,1583237787350,4.9108996,1.8149998999999999,5.5657,10.9116125,0.8473845999999999,13.639547,-1
340,341,1583237787360,4.4105,1.6536,6.5554,10.699237,0.8611848,14.437084,-1
341,342,1583237787370,4.3298,1.5222,7.2089,10.710701,0.7783262,14.731101999999998,-1
342,343,1583237787381,4.3255,1.3345,7.254699700000001,10.9070635,1.0257622,14.121126,-1
343,344,1583237787391,4.5531,1.4906,6.522599700000001,11.393278,1.4803253,13.188345000000002,-1
344,345,1583237787401,5.0631,1.7551,5.612,11.909918,1.8662323,12.633024,-1
345,346,1583237787411,5.5575,1.9570999,5.2036,12.278807,2.293607,12.92122,-1
346,347,1583237787421,5.9101,2.2342,5.6579999999999995,12.508038,2.741859,13.840727,-1
347,348,1583237787431,6.1145,2.4747999,6.6577,12.590455,3.2110364,14.985145999999999,-1
348,349,1583237787442,6.1787996,2.7293,7.7639,12.697351,3.5059445,15.595598999999998,-1
349,350,1583237787452,6.3194,2.7221,8.194099000000001,12.694116000000001,3.4258919000000003,15.357798,-1
350,351,1583237787462,6.212999999999999,2.2784,7.8928,12.080644,3.0356946,14.802123000000002,-1
351,352,1583237787472,5.4969,1.5727999,7.3448,11.129982,2.7000656000000003,13.902745999999999,-1
352,353,1583237787482,4.5287,0.94479996,6.4613,10.320264,2.5136435,12.956069,-1
353,354,1583237787492,3.8434,0.4362,5.5916,10.074475,2.387565,12.088554,-1
354,355,1583237787502,3.6894,-0.048899997,4.8596,9.807387,2.2505305,11.376251,-1
355,356,1583237787513,3.477,-0.52639997,4.4034,9.612797,2.3412992999999998,10.843532000000002,-1
356,357,1583237787523,3.2739,-0.7513,3.8328998,9.262295,2.3172903,10.08661,-1
357,358,1583237787533,2.9027,-1.2148,3.2387998,8.313405,2.132094,9.378767999999999,-1
358,359,1583237787543,2.1267,-1.7391,2.8097,7.3420205,1.9286156000000003,8.969686,-1
359,360,1583237787554,1.2202,-2.3014997999999998,2.5651,6.542165799999999,1.8053046000000001,8.722958,-1
360,361,1583237787564,0.48529997,-2.7879,2.4938998,5.8963633,1.8239125,8.886913,-1
361,362,1583237787574,0.0202,-3.1357,2.7895,5.0630565,1.965697,9.133822,-1
362,363,1583237787584,-1.6574999,-3.4833,3.3874,3.9502413,2.1393244,8.89603,-1
363,364,1583237787594,-1.6574999,-3.4833,3.3874,3.1750658,2.1126244,8.295354,-1
364,365,1583237787605,-3.1776998,-4.23,2.201,2.2836947,1.9611671999999998,7.182432700000001,-1
365,366,1583237787615,-3.5247,-4.5838,1.5524,1.8841984,1.9090023,6.3300686,-1
366,367,1583237787625,-3.5481,-4.8303,0.9371,1.7722456000000002,1.9645861,5.497049,-1
367,368,1583237787635,-3.5349,-4.9593,0.5604,1.6700897000000001,2.0949073,4.9856567,-1
368,369,1583237787645,-3.5349,-4.9593,0.5604,1.7158381999999999,2.2420166,4.916550599999999,-1
369,370,1583237787656,-3.1431,-5.0063,0.93969995,1.8168639,2.4921055,4.950108,-1
370,371,1583237787666,-3.2593,-4.9393,1.0066998999999999,1.5249629,2.7728782,4.72964,-1
371,372,1583237787676,-3.5442,-4.9776998,0.96849996,1.0634853000000002,2.825771,4.5125813,-1
372,373,1583237787686,-4.0252,-5.5228996,1.2689999,0.45264778,2.3604627000000002,4.632636499999999,-1
373,374,1583237787696,-4.4386997,-6.2903,1.4253,-0.13498509,1.7614238000000002,4.486743499999999,-1
374,375,1583237787706,-4.9856997000000005,-6.9470997,1.0008,-0.84637904,1.3060083,3.7928176,-1
375,376,1583237787717,-5.5259,-7.4047,0.29479998,-1.5012411,1.0006422,2.8888054,-1
376,377,1583237787726,-5.7257,-7.6798997,-0.47509998,-1.7411305000000001,0.8904323000000001,1.9443696,-1
377,378,1583237787736,-5.5936,-7.6534996,-1.2865,-1.6776745,1.0880306999999998,0.95339984,-1
378,379,1583237787746,-5.2999,-7.3945,-2.0207,-1.4363965,1.4358889,0.11542925,-1
379,380,1583237787756,-4.7058,-7.0302,-2.4312,-0.78265494,1.9220842,-0.41958863,-1
380,381,1583237787766,-3.6504,-6.4140997,-2.6369,0.26047954,2.5682793,-0.6918380999999999,-1
381,382,1583237787776,-2.7143,-5.9722,-2.3071,1.0774099,3.009502,-0.32680854,-1
382,383,1583237787787,-2.2333998999999998,-5.8466997,-1.4280000000000002,1.4800571000000002,3.0862982000000003,0.66837496,-1
383,384,1583237787797,-2.1059,-5.9049997,-0.5449,1.5026871000000002,3.0639365,1.3861758,-1
384,385,1583237787807,-2.0794,-5.8655,0.0088,1.5224538,3.1824589,1.5737088,-1
385,386,1583237787817,-2.0003,-5.6993,-0.125,1.5998726,3.4255470999999997,1.0069245999999998,-1
386,387,1583237787828,-1.8593998999999999,-5.5034,-0.94329995,1.7369741,3.6293415999999996,-0.0595007,-1
387,388,1583237787838,-1.6961,-5.236000000000001,-2.2472,2.0199113,4.023274,-1.8135886000000003,-1
388,389,1583237787848,-1.1179999999999999,-4.7667,-3.6323,2.7506793,4.5416856,-3.3017766,-1
389,390,1583237787858,-0.28059998,-4.2506,-4.6801,3.5791209000000004,5.042121400000001,-4.257292700000001,-1
390,391,1583237787868,0.36049998,-3.8560998,-5.0695,4.0616198,5.423336,-4.4920874,-1
391,392,1583237787878,0.5742,-3.5565,-4.7644997,4.1033072,5.63371,-3.9907513,-1
392,393,1583237787888,0.37199998,-3.4227,-3.8328998,3.782197,5.7163577000000005,-2.8970127,-1
393,394,1583237787899,-0.0427,-3.4352,-2.5089,3.2526762000000002,5.669182299999999,-1.5495656999999998,-1
394,395,1583237787909,-0.6737,-3.4562,-1.2749,2.6859972,5.7782526,-0.21452048,-1
395,396,1583237787919,-0.8305,-3.2884998,-0.43249997,2.9697678,6.015058,0.25413015,-1
396,397,1583237787929,-0.3148,-3.0084999,-0.28669998,3.5370307,6.2873077,0.049971778,-1
397,398,1583237787939,0.3742,-2.5321999,-0.8732,4.239383999999999,6.935571,-1.0409989,-1
398,399,1583237787950,0.7705,-2.0245,-1.9236,4.550956200000001,7.365014599999999,-2.120602,-1
399,400,1583237787960,1.0203999,-1.6248,-2.7631,4.768388,7.6458544999999996,-2.5992985,-1
400,401,1583237787971,1.1166999,-1.4315,-2.9076998,4.629658,7.6876664,-2.2602797000000003,-1
401,402,1583237787981,0.9034,-1.4254,-2.4146,4.288571,7.668676,-1.4717445,-1
402,403,1583237787991,0.565,-1.4,-1.6058999,4.2602139999999995,7.81795,-0.71676654,-1
403,404,1583237788001,0.5773,-1.2262,-0.8753,4.521038,8.127424000000001,-0.05136999,-1
404,405,1583237788011,0.88,-0.87409997,-0.2853,4.956706,8.555584,0.21887791,-1
405,406,1583237788022,1.2882999,-0.433,-0.1144,5.1363864,8.807751,-0.026709715,-1
406,407,1583237788032,1.3366,-0.2676,-0.43039998,4.7348404,8.699437,-0.4881394,-1
407,408,1583237788042,0.84209996,-0.39899999999999997,-0.87289995,4.208537000000001,8.569930000000001,-0.68090135,-1
408,409,1583237788052,0.3317,-0.5025,-0.9841,3.9233785000000005,8.585952,-0.49853984,-1
409,410,1583237788062,0.1343,-0.4192,-0.77419996,4.15575,8.81748,-0.24508007,-1
410,411,1583237788072,0.42299998,-0.18699999,-0.515,4.4904209999999996,8.998358999999999,-0.123550385,-1
411,412,1583237788083,0.6979,0.0075999996999999994,-0.47039998,4.679802400000001,9.320186999999999,-0.38698920000000003,-1
412,413,1583237788093,0.8742,0.37899998,-0.80719995,4.8675175,9.541737,-0.7088177,-1
413,414,1583237788103,1.0033,0.5438,-1.1567,4.6457667,9.447721000000001,-0.6373652,-1
414,415,1583237788113,0.76409996,0.43249997,-0.993,4.303903,9.32646,0.02180639,-1
415,416,1583237788124,0.4114,0.3197,-0.37399998,3.8849943,9.261261,0.67145866,-1
416,417,1583237788134,-0.018000000000000002,0.265,0.2652,3.8273803999999996,9.281094,1.0118759,-1
417,418,1583237788144,-0.0859,0.289,0.58889997,3.9693758000000003,9.295154,0.9676693000000001,-1
418,419,1583237788154,0.0841,0.3588,0.23359999,4.0172596,9.352212,0.5877190999999999,d
419,420,1583237788164,0.0795,0.4335,0.053299997,4.024567,9.434830999999999,0.45967716,-1
420,421,1583237788175,0.0795,0.4335,0.053299997,4.033348999999999,9.430521,0.4952071,-1
421,422,1583237788185,-0.108399995,0.4768,0.1688,3.845471,9.466472999999999,0.5922201,-1
422,423,1583237788195,-0.1454,0.5434,0.2058,3.8865553999999998,9.520878,0.62151563,-1
423,424,1583237788205,-0.047599997000000005,0.6502,0.2191,4.014291,9.694208999999999,0.6080123000000001,-1
424,425,1583237788215,0.16579999,0.96349996,0.053799997999999995,4.342430599999999,10.000906,0.36436877,-1
425,426,1583237788225,0.5944,1.2573999,-0.28300000000000003,4.7468977,10.212879,0.02858677,-1
426,427,1583237788235,0.8785,1.3836,-0.47329998,5.0042934,10.353294,-0.14010869,-1
427,428,1583237788245,1.0009,1.4194,-0.4226,5.1098585,10.319267,-0.05953901,-1
428,429,1583237788255,0.94259995,1.237,-0.2568,5.025678,10.105886,0.13656527,-1
429,430,1583237788265,0.8003,1.0133,-0.078899994,4.888146,9.856852,0.27435637,-1
430,431,1583237788275,0.6008,0.7396,-0.159,4.693152400000001,9.6392565,0.07528328,-1
431,432,1583237788286,0.6846,0.7114,-0.69159997,4.872229,9.591134,-0.5796458000000001,-1
432,433,1583237788296,1.1183,0.5865,-1.5423,5.341943,9.503477,-1.5031469,-1
433,434,1583237788306,1.8036,0.7869,-2.4617,6.120001,9.752158,-2.4204037,-1
434,435,1583237788316,2.8776999,1.1067,-3.0491,7.256825,10.049154,-2.9535735,-1
435,436,1583237788326,2.8776999,1.1067,-3.0491,8.049786,10.215877,-3.1073577,-1
436,437,1583237788336,4.4866,1.4283,-3.2412999,8.798174000000001,10.259126,-3.2030013,-1
437,438,1583237788346,4.8347,1.2588999,-3.3792998999999995,9.114716,10.077339,-3.4190829,-1
438,439,1583237788357,5.0469,0.96669996,-3.6385998999999996,9.215599000000001,9.802351,-3.6662793,-1
439,440,1583237788367,4.9653997,0.54249996,-3.9308998999999996,9.023785,9.297537,-4.1361847,-1
440,441,1583237788377,4.8901997,0.18439999,-4.3842,9.01688,9.026858,-4.696897,-1
441,442,1583237788387,5.0235,-0.056399997,-4.9322,9.170444,8.791164,-5.256153599999999,-1
442,443,1583237788397,5.3252997,-0.3075,-5.2883997,9.517267,8.540414,-5.638479,-1
443,444,1583237788409,5.7565,-0.618,-5.575999700000001,9.9336195,8.182089,-5.941671400000001,-1
444,445,1583237788419,6.0936,-0.9497,-5.6898,10.150428999999999,7.8564773,-5.929317,-1
445,446,1583237788429,6.3287,-1.2824,-5.5715,10.22349,7.5849557,-5.8158703,-1
446,447,1583237788439,6.402,-1.5418999,-5.4965997,10.247413,7.4358830000000005,-5.817182,-1
447,448,1583237788450,6.4673,-1.7556,-5.5631,10.256807,7.153185000000001,-5.876482,-1
448,449,1583237788460,6.5607,-2.0411,-5.5511,10.2303,6.8858585,-5.80772,-1
449,450,1583237788470,6.4961,-2.3983998,-5.4442997,9.880736,6.4659247,-5.4959474,-1
450,451,1583237788480,6.1768,-2.8866,-5.0389,9.41041,6.001593,-4.889161,-1
451,452,1583237788491,5.7297997,-3.4559,-4.4217,8.611925,5.147485700000001,-4.0668964,-1
452,453,1583237788501,5.1644998,-4.2525,-3.8019998,7.872173299999999,4.4400277,-3.5148222000000002,-1
453,454,1583237788511,4.5176,-4.9515,-3.32,7.1394234,3.9751217000000003,-2.9603825,-1
454,455,1583237788521,3.9524,-5.433799700000001,-2.8386998,6.694053599999999,3.5480343999999997,-2.5488577,-1
455,456,1583237788532,3.6620998,-5.914,-2.4998,6.233916799999999,3.136567,-2.2416717999999998,-1
456,457,1583237788542,3.2933998,-6.3429,-2.2884998,5.5182133,2.721738,-1.8085033,-1
457,458,1583237788552,2.6615999,-6.7893996,-1.8619999999999999,4.782983,2.3170989,-1.0685706,-1
458,459,1583237788562,2.031,-7.2532,-1.1692,3.722907,1.7736055,-0.09235872,-1
459,460,1583237788572,1.0185,-7.8122997000000005,-0.2759,2.4189866,1.4189188,1.0430484,-1
460,461,1583237788583,-0.182,-8.1622,0.75259995,1.1930786,1.1121929,1.8653034,-1
461,462,1583237788593,-1.3101,-8.507999,1.4175,-0.33695040000000004,0.68824685,2.4954572,-1
462,463,1583237788604,-2.7417,-8.976,1.8769999999999998,-2.205309,0.049473785,3.0810885,-1
463,464,1583237788614,-5.7464,-10.0528,2.9638999,-4.139642,-0.63381225,4.267636,-1
464,465,1583237788624,-5.7464,-10.0528,2.9638999,-5.067777599999999,-1.1594737,5.6035523000000005,-1
465,466,1583237788634,-6.928999999999999,-10.7056,4.3725,-5.442174,-1.3632393,7.780417999999999,-1
466,467,1583237788645,-7.2805995999999995,-10.2991,8.0217,-5.3907175,-0.661154,9.972760000000001,-1
467,468,1583237788655,-7.2805995999999995,-10.2991,8.0217,-5.268393,0.07186436,10.908605999999999,-1
468,469,1583237788665,-7.664,-8.7161,9.8239,-5.864942,0.7510611,11.986217,-1
469,470,1583237788675,-8.8538,-8.5763,10.819799,-7.0486830000000005,0.7399998999999999,13.117391,-1
470,471,1583237788685,-10.1622,-8.8363,11.7473,-8.232625,0.39673838,14.115706,-1
471,472,1583237788695,-11.259299,-9.2656,12.5615,-9.148839,-0.05363012,15.031670000000002,-1
472,473,1583237788705,-11.259299,-9.2656,12.5615,-9.339235,-0.13661315,15.7209215,-1
473,474,1583237788715,-11.066199000000001,-9.181399,14.7346,-8.318116999999999,-0.03718674,17.507437,-1
474,475,1583237788725,-10.0446,-8.734099,15.387898999999999,-7.023419400000001,0.40310696,18.182268,-1
475,476,1583237788736,-8.2872,-7.9329,15.529599,-4.9520903,1.1685332,18.406067,-1
476,477,1583237788746,-6.7296,-6.8701,15.541699,-3.4334002,2.1391234,18.56239,-1
477,478,1583237788756,-6.4783998,-6.0123997000000005,15.7634,-3.1677873,2.7611659,18.929287,-1
478,479,1583237788766,-6.7756,-5.7851996,16.0425,-3.18719,2.7626214,19.207014,-1
479,480,1583237788777,-6.7613997,-5.7548,16.031599,-2.7441093999999997,2.6912167,19.301987,-1
480,481,1583237788787,-6.0828,-5.8465,16.2142,-1.8684925,2.4559912999999995,19.494232,-1
481,482,1583237788797,-4.8243,-6.0934,16.1789,0.07097372,2.030896,19.295647,-1
482,483,1583237788807,-3.5802,-6.0325,15.3383,1.3448806,2.1789438999999997,18.48408,-1
483,484,1583237788817,-2.1325,-5.6238,14.8568,3.4196574999999996,2.4753172,18.18652,-1
484,485,1583237788827,0.1227,-4.9746,14.1723995,5.8480004999999995,3.1489689999999997,17.332575,-1
485,486,1583237788838,2.2075,-3.8179,12.7706995,7.577619599999999,4.0289150000000005,16.175352,-1
486,487,1583237788848,3.7041998,-2.5029,11.2855,9.466644,5.278506,14.629002999999999,-1
487,488,1583237788858,5.1061997,-1.6395998999999999,10.1268,11.087988000000001,5.7418510000000005,13.707082000000002,-1
488,489,1583237788868,6.3673,-1.3482,9.155399000000001,12.108685000000001,5.5950294000000005,12.894461999999999,-1
489,490,1583237788878,6.5250998,-1.7202,8.4814,11.879368,4.577589499999999,12.519223,-1
490,491,1583237788889,5.9860997000000005,-2.5978,8.1831,11.464519500000002,3.6170354,12.316042,-1
491,492,1583237788899,5.6958,-3.2092998,7.737,11.992825,3.3568432,11.979733,-1
492,493,1583237788909,6.8774,-2.9673998,7.2556,14.217325,3.7579102999999994,11.671014999999999,-1
493,494,1583237788919,9.4712,-2.1354,6.7033997,16.54019,4.4928346,11.186142,-1
494,495,1583237788929,12.2793,-0.94769996,5.5653,19.861023,5.718187,9.52651,-1
495,496,1583237788939,14.7855,0.22809999,3.6957998,21.87204,6.4673615,7.4338619999999995,-1
496,497,1583237788949,16.074299,0.8207,1.314,22.09245,6.46378,5.554002,-1
497,498,1583237788959,15.3125,0.5396,-0.8049,20.704731,5.816617,4.0183230000000005,-1
498,499,1583237788969,13.209000000000001,-0.3647,-1.6042999,18.250109,4.5397796999999995,3.6998746,-1
499,500,1583237788979,11.476399,-1.2518,-1.7809999,17.172344,3.9157934,3.4652910000000006,-1
500,501,1583237788989,11.2497,-1.2635,-2.3364,18.42096,4.7571254000000005,2.5434563,-1
501,502,1583237788999,13.2925,0.13059999,-3.5816,20.934288000000002,6.1628957,1.341002,-1
502,503,1583237789010,15.7619,1.4132,-4.892299700000001,23.039279999999998,6.9643784,-0.007173028299999999,-1
503,504,1583237789020,17.3419,2.1452,-6.3989997,23.362534,7.261776400000001,-1.7758943,-1
504,505,1583237789030,17.0283,2.2640998,-7.8911996,22.13295,6.9610553,-2.7205315,-1
505,506,1583237789040,15.2043,1.7569,-8.9275,20.006773000000003,6.1788983,-3.2126740000000003,-1
506,507,1583237789051,13.1102,0.8479,-9.1669,17.757735999999998,4.845567,-2.9789807999999995,-1
507,508,1583237789061,11.448299,-0.2173,-8.8892,16.98985,4.354373000000001,-2.7781935,-1
508,509,1583237789072,10.9584,-0.4964,-8.8331995,17.054185999999998,4.598026,-3.1468046000000003,-1
509,510,1583237789082,11.107599,-0.1734,-9.331099499999999,17.409016,4.9879937000000005,-3.9351099,-1
510,511,1583237789092,11.4741,0.2077,-10.153399,17.634062,5.1613050000000005,-4.5927877,-1
511,512,1583237789103,11.5968,0.3505,-10.7787,17.345398,5.0733514,-5.0520625,-1
512,513,1583237789113,11.1839,0.2232,-11.168099,16.611632999999998,4.668913400000001,-5.2019972999999995,-1
513,514,1583237789123,10.57,-0.1339,-11.264999000000001,16.187294,4.2832555999999995,-5.054418599999999,-1
514,515,1583237789133,9.9819,-0.62909997,-11.043699,15.375926999999999,3.6354995000000003,-4.604701,-1
515,516,1583237789144,9.1088,-1.2897999,-10.5088,14.343758,2.7904517999999996,-3.7521739999999997,-1
516,517,1583237789154,8.237599000000001,-1.9858999,-9.763,13.35116,1.9818531000000004,-2.8864017000000004,-1
517,518,1583237789164,5.9424996,-3.4031,-8.1025,11.824695,1.2232838,-1.9291806,-1
518,519,1583237789174,5.9424996,-3.4031,-8.1025,10.909305,0.74340916,-1.2769235,-1
519,520,1583237789184,4.7658,-3.9722,-7.2914996,10.23255,0.39143282,-0.6820506,-1
520,521,1583237789195,3.8369,-4.4533,-6.3574,10.029359,0.17234421,-0.30311552,-1
521,522,1583237789205,3.8369,-4.4533,-6.3574,9.957332000000001,-0.07151002,-0.27837864,-1
522,523,1583237789215,3.7006,-4.6717,-6.267299700000001,9.870277999999999,-0.32592747,-0.40440938,-1
523,524,1583237789225,3.7377,-4.8822,-6.4598,10.17122,-0.37481707,-0.51952267,-1
524,525,1583237789236,3.7377,-4.8822,-6.4598,10.434764999999999,-0.50909346,-0.048477795,-1
525,526,1583237789246,4.0,-5.0943,-5.0580997000000005,10.492474000000001,-0.7243897,1.0954813,-1
526,527,1583237789256,3.6483,-5.2327,-3.375,10.0090275,-1.0035824,3.1465845,-1
527,528,1583237789266,2.8299,-5.3863,-1.6961,9.318186,-1.1602013999999998,4.386264,-1
528,529,1583237789277,1.9065,-5.4193,-0.313,8.598402,-1.199792,5.694063,-1
529,530,1583237789287,1.7214999,-5.1031,0.8807,8.626711,-0.93444735,6.7257050000000005,-1
530,531,1583237789297,1.9181,-4.7306,1.3677,8.942725999999999,-0.5405916000000001,6.949563,-1
531,532,1583237789307,1.9935,-4.1187997,1.1514,9.111585,-0.03143108,6.643803999999999,-1
532,533,1583237789317,2.3796,-3.2700999,0.7328,9.619223,0.72175604,6.230737,-1
533,534,1583237789328,2.6592,-2.6574,0.84559995,9.863613,1.2364423,6.6466202999999995,-1
534,535,1583237789338,2.3581998,-2.3611999,1.9858999,9.494829,1.2914132,8.150293,-1
535,536,1583237789348,1.7516999,-2.4324,3.9682998999999994,8.879653,0.9437464,10.1916275,-1
536,537,1583237789358,1.0471,-2.8506,5.9761996,8.133065,0.38490143,12.678055,-1
537,538,1583237789369,0.3567,-3.1116,8.3441,7.633126700000001,0.3577416,14.851011999999999,-1
538,539,1583237789379,-0.14729999,-2.9081,10.3456,7.3597470000000005,0.5264945,16.063484,-1
539,540,1583237789389,-0.4136,-2.5189,11.2927,7.298465299999999,1.0946768999999998,16.503193,-1
540,541,1583237789399,-0.2972,-1.7426,11.2005,7.766598700000001,1.9490526000000001,15.9516945,-1
541,542,1583237789409,0.21899999999999997,-0.85749996,10.486199000000001,8.361844999999999,2.5862167,15.102174,-1
542,543,1583237789419,0.7298,-0.2802,9.715799,8.667939,2.9293633,14.607923999999999,-1
543,544,1583237789430,0.68259996,0.0449,9.3473,8.182051,3.0410287,14.438232999999999,-1
544,545,1583237789440,-0.0117,0.020399999,9.5577,7.4287,2.925245,14.863567999999999,-1
545,546,1583237789450,-0.77269995,-0.074099995,10.0863,6.914713000000001,2.8901174,15.234228,-1
546,547,1583237789460,-1.4291999,-0.096599996,10.4325,6.1618322999999995,2.901868,15.290989999999999,-1
547,548,1583237789470,-2.0256998999999998,-0.0056,10.254000000000001,5.838414,3.0978767999999994,14.808224,-1
548,549,1583237789481,-2.1585,0.25,9.5856,6.060021400000001,3.407514,13.651010500000002,-1
549,550,1583237789491,-1.8475,0.4942,8.5057,6.313845,3.6674572999999997,12.368263,-1
550,551,1583237789501,-1.6141,0.7633,7.1565,6.459365,3.9400709000000003,10.978363,-1
551,552,1583237789511,-1.4433999,1.0343,5.7439,6.6346107000000005,4.154735,9.731558999999999,-1
552,553,1583237789521,-1.2729,1.1673,4.5442,6.550306299999999,4.187478,8.858297,-1
553,554,1583237789531,-1.3805,1.1521,3.7198,6.253636,4.1352363,8.281247,-1
554,555,1583237789542,-1.7069999,1.0306,3.1999,5.830503500000001,3.9741256000000003,8.028994,-1
555,556,1583237789552,-2.093,0.78749996,3.0270998,5.4844837,3.676536,8.019092,-1
556,557,1583237789562,-2.4373,0.4676,3.0068,5.0739074,3.482213,7.894564,-1
557,558,1583237789572,-2.8258997999999997,0.2206,2.8690999,4.8421965,3.2223558,7.759837599999999,-1
558,559,1583237789582,-2.9355,-0.0679,2.7201,4.8952327,3.1153545,7.696879400000001,-1
559,560,1583237789592,-2.8062,-0.1515,2.6095,5.122787000000001,3.181348,7.561242999999999,d
560,561,1583237789603,-2.517,-0.0805,2.4115,5.665294,3.334079,7.261499000000001,-1
561,562,1583237789613,-1.9044,0.0638,2.0349,6.4153113,3.503081,6.7343720000000005,-1
562,563,1583237789623,-1.2458999,0.1891,1.5553,6.832027,3.5076108,6.377330000000001,-1
563,564,1583237789633,-0.7299,0.14379999,1.0864,6.688709700000001,3.200971,6.041308,-1
564,565,1583237789643,-0.9256,-0.1434,0.8165,5.88331,3.0265007,6.0710825999999996,-1
565,566,1583237789653,-1.7142998999999999,-0.3478,0.84129995,5.3326435,3.0403583,6.2580028,-1
566,567,1583237789663,-2.261,-0.36519998,1.0275,5.509269000000001,3.4014614,6.4888900000000005,-1
567,568,1583237789673,-2.0629,-0.021499999,1.2583,6.633058999999999,3.7476437000000007,6.091692,-1
568,569,1583237789683,-0.9289,0.3143,0.8477,7.9749419999999995,3.9949553,5.5586275999999994,-1
569,570,1583237789693,0.4377,0.5721,0.2732,9.302853,4.295083,5.0621758,-1
570,571,1583237789704,1.8017,0.87399995,-0.2748,9.80689,4.3779125,4.9129596,-1
571,572,1583237789714,2.3476999,0.9673,-0.4754,9.344675,4.0677389999999995,5.229157,-1
572,573,1583237789724,1.9165,0.6483,-0.20289999,7.5496364,3.661424,5.9196634,-1
573,574,1583237789734,0.16319999,0.2263,0.43989998,6.0431857,3.152503,6.518061,-1
574,575,1583237789744,-2.1826,-0.8677,1.2514,4.896851,2.5117377999999997,6.840934,-1
575,576,1583237789755,-2.7783,-1.331,1.3472998999999999,4.399269,2.0947828,6.9237532999999996,-1
576,577,1583237789765,-2.7514,-1.5518,1.2788,4.6712885,2.022047,6.784717,-1
577,578,1583237789775,-2.169,-1.4984,0.8757,5.1426682,2.1293359,6.4099193,-1
578,579,1583237789785,-2.169,-1.4984,0.8757,5.5317745,2.4975259999999997,6.4250417,-1
579,580,1583237789795,-1.0475,-0.5613,1.1669999,6.3890614999999995,3.2031257,6.934384,-1
580,581,1583237789805,0.4305,0.4373,1.5916,7.921303,4.2288785,7.3112506999999995,-1
581,582,1583237789816,0.4305,0.4373,1.5916,9.1155205,5.008584,7.330816,-1
582,583,1583237789826,2.9311,2.2182999,1.6687,10.198035,5.934,7.443036599999999,-1
583,584,1583237789836,3.4299998,2.8658,1.9851999,10.577085,6.53573,7.8031630000000005,-1
584,585,1583237789846,3.3665,3.2875997999999997,2.3688,10.434678,6.9615339999999994,8.214133,-1
585,586,1583237789856,3.2707999,3.5628998,2.7301998,10.338785000000001,7.2518167,8.589561999999999,-1
586,587,1583237789866,3.4257998,3.8618998999999996,3.2359998,10.497674,7.6973395,9.315782,-1
587,588,1583237789877,3.5874,4.3533998,3.9622,10.664750999999999,8.306500999999999,10.188487,-1
588,589,1583237789887,4.0239,4.9909,5.0211997,11.067992,8.856009,11.118788,-1
589,590,1583237789897,4.5127,5.516,5.961,11.389591000000001,9.366482000000001,12.037355999999999,-1
590,591,1583237789907,4.5438,5.7042,6.562599700000001,11.251302,9.559137,12.747917,-1
591,592,1583237789917,4.4667,5.6770000000000005,7.0112996,11.074993,9.611436999999999,13.184897,-1
592,593,1583237789928,4.3768,5.5016,7.3610997000000005,10.852160000000001,9.403935,13.610012,-1
593,594,1583237789938,4.0467,5.0678997,7.7734,10.232521,9.054392,14.029945000000001,-1
594,595,1583237789948,3.3272,4.5333,8.0948,9.517593,8.730953999999999,14.246707,-1
595,596,1583237789958,2.4419,4.0373,8.2878,8.40134,8.42125,14.413372,-1
596,597,1583237789968,2.0254,3.8005998,8.1768,8.312697,8.476028999999999,14.02011,-1
597,598,1583237789978,2.6327999,3.7874,7.4115,9.120472,8.689199,12.946933,-1
598,599,1583237789989,3.7136998,3.8311,6.2005,10.020797,8.958586,11.621858,-1
599,600,1583237789999,4.5062,3.8711,4.9263997,10.664943,9.108778,10.064621,-1
600,601,1583237790009,4.8778,3.6134998999999994,3.9889,10.518733000000001,8.8828335,9.51225,-1
601,602,1583237790019,4.4598,3.0203998,3.9643,9.580063,8.2952,9.842803,-1
602,603,1583237790029,3.5607998,1.9916999,4.6688,8.817376,7.570945,10.340012,-1
603,604,1583237790039,2.7858,0.8308,5.3669,7.838692699999999,6.632369500000001,10.713201,-1
604,605,1583237790050,2.1759,0.0134,5.5607,7.2014523,6.2404103,10.209019999999999,-1
605,606,1583237790060,1.6626999,-0.49109998,4.8492,6.645537400000001,6.363319000000001,8.709196,-1
606,607,1583237790070,1.3938,-0.45369998,3.3762999,6.4200807,6.7077103000000005,7.0720696,-1
607,608,1583237790080,1.359,-0.4269,2.1057,6.237076999999999,6.829125,5.561846,-1
608,609,1583237790090,1.3725,-0.63229996,1.1962999,6.304479,6.727017,4.9574050000000005,-1
609,610,1583237790101,1.6969,-1.0881,0.8132,6.547184,6.1609419999999995,4.673788,-1
610,611,1583237790110,1.9777,-2.08,0.9687,6.172166000000001,5.237862000000001,4.8029027,-1
611,612,1583237790120,1.4312999,-3.1894,1.3823999,5.179865,4.384339,4.9283686,-1
612,613,1583237790130,0.5693,-4.1717997,1.6123999,4.276475,3.781335,4.7499910000000005,-1
613,614,1583237790140,-0.0707,-4.8872,1.5855,3.3761980000000005,3.3102998999999995,4.2939334,-1
614,615,1583237790150,-0.7669,-5.3122997000000005,1.1561999,2.6036465,3.3810915999999995,3.439108,-1
615,616,1583237790161,-1.2107999,-5.2093997000000005,0.47579998,2.28652,3.7010145,2.6759896,-1
616,617,1583237790171,-1.1827999,-5.0780997,0.0047,2.2775657000000002,3.777399,2.004234,-1
617,618,1583237790181,-0.99369997,-5.2467,-0.3441,2.0775542000000002,3.4775492999999993,1.2345845,-1
618,619,1583237790191,-1.1219,-5.6865,-1.0327,1.6165075,3.0905123,0.32450053,-1
619,620,1583237790201,-1.4612,-6.126,-1.7814,1.2207077,2.7164516,-0.5010585,-1
620,621,1583237790211,-1.6738,-6.5938,-2.4105,0.9644323,2.378017,-1.1480485,-1
621,622,1583237790222,-1.7924,-6.9614,-2.8289999999999997,0.9025183000000001,2.348865,-1.1313082,-1
622,623,1583237790232,-1.6915,-6.9444,-2.5026999,0.86756295,2.6355276,-0.42338103,-1
623,624,1583237790242,-1.6563,-6.6919,-1.683,0.8078994,2.8614634999999997,0.12988067,-1
624,625,1583237790252,-1.6352999,-6.5213,-1.1216999,0.71963,3.0819313999999998,0.2693477,-1
625,626,1583237790262,-1.6657,-6.3368998,-0.9449,0.7558495,3.0527889999999998,0.014087482,-1
626,627,1583237790272,-1.48,-6.4831,-1.1693,1.3057784,2.7544619999999997,-0.96120495,-1
627,628,1583237790283,-0.9493,-6.7535996,-1.8966,1.6050249,2.6856717999999997,-1.5804412,-1
628,629,1583237790293,-0.6006,-6.8443,-2.4001,1.8535047999999998,2.8936036,-1.4903426000000002,-1
629,630,1583237790303,-0.2758,-6.6173997,-2.0914,1.6959567,2.9280033,-0.61437136,-1
630,631,1583237790313,-0.4342,-6.6425,-1.2166,1.1858385,2.8964477000000004,0.056407392,-1
631,632,1583237790323,-0.9105,-6.6849,-0.4745,0.6646879,3.1158142000000004,0.1953477,-1
632,633,1583237790333,-1.4053,-6.469599700000001,-0.2276,0.35124853,3.4832091,-0.37705806,-1
633,634,1583237790344,-1.7075,-6.1134,-0.6774,0.36339194,4.0780153,-1.2731119,-1
634,635,1583237790354,-1.0440999,-4.8478,-2.2716,1.2642056000000002,4.855718599999999,-2.3042085,-1
635,636,1583237790364,-1.0440999,-4.8478,-2.2716,2.1756685,5.2433114000000005,-2.424225,-1
636,637,1583237790375,0.0624,-4.3413,-2.4167,2.6682707999999997,5.419142,-1.5705197,-1
637,638,1583237790385,0.4034,-4.256,-0.6677,2.5559635,5.315634999999999,-0.61812544,-1
638,639,1583237790395,0.2288,-4.1584,0.0747,2.4134990000000003,5.436514,-0.024363395,-1
639,640,1583237790405,0.0289,-3.9510998999999996,0.2775,2.2609022000000003,5.6170077,0.043497857,-1
640,641,1583237790416,-0.0804,-3.78,0.0569,2.2589292999999997,5.8327637,-0.3974758,-1
641,642,1583237790427,0.0757,-3.2519999,-0.8307,2.5461378,6.497337,-1.6882856,-1
642,643,1583237790438,0.2755,-2.7010999,-1.8630999,2.9104967,6.956573,-2.8061001,-1
643,644,1583237790448,0.7974,-2.3149,-2.7498999,3.6455934,7.309267999999999,-3.6327894,-1
644,645,1583237790459,1.6635,-1.8892,-3.1320999,4.6089915999999995,7.7819886,-3.8221133000000003,-1
645,646,1583237790469,2.2999,-1.3379999,-2.8493,5.056209,8.281821,-3.2965187999999994,-1
646,647,1583237790479,2.3783,-1.0457,-2.2917,4.9507685,8.363684,-2.8208199,-1
647,648,1583237790489,2.0956,-1.0612999,-1.8154,4.524045500000001,8.371135,-2.4687572,-1
648,649,1583237790499,1.5465,-0.9522,-1.5330000000000001,4.0690227,8.515371,-2.4515765,-1
649,650,1583237790509,1.2070999,-0.8149,-1.6262,3.8859714999999997,8.561531,-2.652718,-1
650,651,1583237790520,1.0444,-0.805,-1.7292999,3.7812586,8.627544,-2.6382666,-1
651,652,1583237790530,0.9198,-0.6577,-1.6789999,3.7847730000000004,8.811927,-2.6054087000000004,-1
652,653,1583237790541,0.99909997,-0.49049997,-1.5946,3.973446,8.90621,-2.5552645,-1
653,654,1583237790550,1.1856999,-0.41169998,-1.6416998999999999,4.274962,9.008088,-2.8407682999999997,-1
654,655,1583237790560,1.5008,-0.2747,-2.0162,4.5932856,9.24497,-3.282278,-1
655,656,1583237790570,1.6922,-0.021399999,-2.3351998,4.7413050000000005,9.46381,-3.3933307999999998,-1
656,657,1583237790580,1.8120999,0.2096,-2.3832,4.6019907,9.6019945,-3.2234192000000004,-1
657,658,1583237790590,1.3715,0.2906,-2.0241,3.8273612999999997,9.46901,-2.585173,-1
658,659,1583237790600,0.53709996,-0.013999999499999999,-1.2777,3.12835,9.020624,-1.7840633000000001,-1
659,660,1583237790611,-0.0404,-0.4369,-0.5024,2.527597,8.703249000000001,-0.9458629000000001,-1
660,661,1583237790621,-0.5143,-0.6325,0.1011,2.3892217000000002,8.692963,-0.8855673000000001,-1
661,662,1583237790632,-0.51629996,-0.599,-0.0034999999,2.7481031000000002,8.855874,-1.5106071,-1
662,663,1583237790642,-0.18609999,-0.3945,-0.68009996,3.0320745,9.20629,-2.0920438999999997,d
663,664,1583237790652,0.07809999599999999,-0.021,-1.1613,3.4411477999999995,9.520869,-2.3058941,-1
664,665,1583237790662,0.4763,0.3037,-1.3462,3.8048462999999995,9.780419,-2.3302669999999996,-1
665,666,1583237790672,0.7382,0.5491,-1.3334999,3.747299,9.841874,-2.0854836,-1
666,667,1583237790682,0.5748,0.5566,-1.0216,3.3253547999999995,9.619625,-1.3407146,-1
667,668,1583237790693,0.1827,0.36589998,-0.37489998,3.162702,9.483566999999999,-0.7231926,-1
668,669,1583237790703,0.0084,0.23429999,0.23079999,3.3039217000000005,9.562872,-0.5531755,-1
669,670,1583237790713,0.11699999999999999,0.32029998,0.4177,3.5207982,9.712156,-0.923434,-1
670,671,1583237790723,0.3205,0.4872,0.0672,3.684686,9.817214,-1.4106061,-1
671,672,1583237790733,0.5124,0.6356,-0.52349997,4.1551175,10.0684805,-2.1877642,-1
672,673,1583237790744,0.8986,0.86289996,-1.1484,4.396281200000001,10.081936,-2.6493279999999997,-1
673,674,1583237790754,1.1292,0.8829,-1.5950999,4.5284886,9.937603999999999,-2.7368886000000003,-1
674,675,1583237790764,1.2276,0.7435,-1.6765,4.7027297,9.642648,-2.5337071,-1
675,676,1583237790774,1.3995999,0.45499998,-1.4653,4.886115599999999,9.419632,-2.4427369999999997,-1
676,677,1583237790784,2.0974,0.1911,-1.6646,5.5680323,9.369850999999999,-2.868407,-1
677,678,1583237790794,2.8927999,0.34579998,-2.2755,6.433335,9.574278,-3.5791593,-1
678,679,1583237790805,3.8253998999999994,0.6882,-3.0929,7.349069,9.928879,-4.4408607,-1
679,680,1583237790815,4.6739999999999995,0.97129995,-3.8253998999999994,8.158913,10.134808999999999,-5.180391999999999,-1
680,681,1583237790825,5.2283998,0.91779995,-4.2723,8.618514,9.993437,-5.6302433,-1
681,682,1583237790835,5.3062997,0.496,-4.5382,8.589754,9.530868,-5.910221,-1
682,683,1583237790845,5.0439,-0.098699994,-4.494,8.259805,8.932824,-5.8330035,-1
683,684,1583237790855,4.7018,-0.7187,-4.3013997,7.8947363,8.323030000000001,-5.6887093,-1
684,685,1583237790866,4.5392,-1.2537,-4.527199700000001,7.7176423,7.86229,-6.000157,-1
685,686,1583237790876,4.5392,-1.2537,-4.527199700000001,7.732753999999999,7.67536,-6.4622087,-1
686,687,1583237790887,4.8238997,-1.6712999,-5.7844,8.02161,7.491189,-7.345248,-1
687,688,1583237790897,5.0206,-1.8484,-6.2412996,8.093685,7.3027169999999995,-7.67288,-1
688,689,1583237790907,5.0592,-2.0979,-6.4516,8.06259,7.0260815999999995,-7.709444500000001,-1
689,690,1583237790917,5.0976996,-2.4987,-6.2043,8.045877,6.596763,-7.179827700000001,-1
690,691,1583237790927,5.0776,-2.9823,-5.4736,7.815392500000001,6.188886599999999,-6.285019,-1
691,692,1583237790937,4.7335,-3.4499,-4.6509,7.249048700000001,5.73169,-5.4213443,-1
692,693,1583237790948,4.0641,-3.9684,-3.9088,6.345362000000001,5.192152,-4.581869999999999,-1
693,694,1583237790958,3.2036998,-4.5656,-3.1947,5.4870124,4.648333,-3.8484302,-1
694,695,1583237790968,2.5989999999999998,-5.0923,-2.7089999,4.908104,4.236119,-3.3404284,-1
695,696,1583237790978,2.412,-5.4488997,-2.4874,4.768196,3.9591382000000004,-3.1541884,-1
696,697,1583237790988,2.5140000000000002,-5.645,-2.4396,4.858745,3.8490144999999996,-2.9500492,-1
697,698,1583237790999,2.7219,-5.7599998,-2.1641998,4.9252176,3.790711,-2.3656627999999995,-1
698,699,1583237791008,2.7849,-5.805,-1.7799,4.7685794999999995,3.7722275,-2.0462954,-1
699,700,1583237791018,2.3244998,-5.8787,-1.4550999,3.8861722999999997,3.6097858,-1.5146295,-1
700,701,1583237791028,1.1168,-6.3345,-0.71099997,2.4632027,3.0582477999999997,-0.4471411,-1
701,702,1583237791038,-0.1081,-6.9944,0.3311,1.21364,2.3671281000000004,0.6668713000000001,-1
702,703,1583237791049,-1.0474,-7.6503997,1.2937,0.3133244,1.8290935000000001,1.7175429,-1
703,704,1583237791059,-1.8165,-8.0755,2.1718,-0.41565254,1.5491538,2.5127146000000002,-1
704,705,1583237791069,-2.6632,-8.2297,2.9701998,-1.6887167,1.5017582,3.8457105000000005,-1
705,706,1583237791079,-3.6369,-8.1319,3.8233,-3.1323054,1.6575824000000001,5.23723,-1
706,707,1583237791089,-5.321000000000001,-7.928999999999999,5.3325996,-5.0219054000000005,1.8553818,7.474984599999999,-1
707,708,1583237791099,-7.2724,-7.8076,7.7538996,-7.174081299999999,1.6667666,10.601918,-1
708,709,1583237791109,-9.561999,-8.2396,10.8623,-9.413244,1.034956,13.971316,-1
709,710,1583237791119,-11.5605,-8.766,13.9599,-10.784883,0.7251941,16.766,-1
710,711,1583237791129,-12.484799,-8.9162,16.129099,-11.061624,0.70608836,18.340187,-1
711,712,1583237791140,-12.6015,-8.748099,17.1843,-10.866582000000001,1.2780056999999998,18.923033,-1
712,713,1583237791150,-12.194799,-7.7892,17.3998,-9.346589999999999,2.691964,19.083443,-1
713,714,1583237791160,-10.232699,-6.0761,17.4994,-7.0208244,4.492413,19.418442000000002,-1
714,715,1583237791170,-8.3640995,-4.303999999999999,17.8501,-5.5087996,5.9869699999999995,19.976664000000003,-1
715,716,1583237791180,-7.3335,-2.9338,18.2184,-4.541542,6.8493037,20.246893,-1
716,717,1583237791191,-6.6684,-2.283,18.2442,-3.8792769999999996,7.3015685,20.004906,-1
717,718,1583237791201,-6.2559,-1.7674999,17.6401,-3.206171,7.7088220000000005,18.964470000000002,-1
718,719,1583237791211,-5.8444,-1.4402,16.703499,-2.275842,7.859666000000001,18.039295000000003,-1
719,720,1583237791221,-5.0239997,-1.2104,15.7681,-0.94993305,8.268261,17.240772,-1
720,721,1583237791231,-3.7772,-0.6322,14.9843,1.1539093999999999,8.939623,16.466658,-1
721,722,1583237791242,-1.7508,0.1015,14.202499,3.3756232,9.620410000000001,15.743648,-1
722,723,1583237791252,0.1768,0.86249995,13.4509,5.1359744,10.007677000000001,15.04706,-1
723,724,1583237791262,1.6902,1.2439,12.696899,6.829757000000001,10.128939,14.008742000000002,-1
724,725,1583237791272,3.1473,1.4467,11.5379,8.084280999999999,10.254184,12.411686,-1
725,726,1583237791282,4.1970997,1.6344999,9.8214,9.357191,10.312545,10.4682255,-1
726,727,1583237791293,5.3585997,1.7782999,7.867999999999999,10.739306,10.532993,8.679986,-1
727,728,1583237791303,6.6168,2.1362997999999997,6.0631,12.562558000000001,11.0584345,6.2908607000000005,-1
728,729,1583237791313,8.0004,2.6413999,4.0681,13.690984,11.263924000000001,4.572676,-1
729,730,1583237791323,9.003699000000001,2.9280999,2.3436,13.943026999999999,11.219161999999999,3.4614506,-1
730,731,1583237791333,9.0941,2.8844,0.9952,13.227332,10.555451,2.3164667999999997,-1
731,732,1583237791344,8.3531,2.3418,0.049599998,12.885325,10.101702000000001,1.8624015999999999,-1
732,733,1583237791354,7.9417,1.9315,-0.4367,13.816469,10.1349535,1.3417872,-1
733,734,1583237791364,8.8081,2.0233998,-1.0016,15.300692000000002,10.243534,0.6440403,-1
734,735,1583237791374,11.5892,2.5602999,-2.9125,16.926095999999998,10.595846,-0.7933044,-1
735,736,1583237791385,12.2372,2.5541,-4.5087,17.493675,10.476596,-2.4663055,-1
736,737,1583237791395,12.1551,2.2817,-6.3441997,17.290302,10.130327000000001,-4.243933,-1
737,738,1583237791405,11.443299,1.7838999,-7.7040997,16.55284,9.601965,-5.426065400000001,-1
738,739,1583237791415,11.443299,1.7838999,-7.7040997,15.762964000000002,9.196378,-5.7934513,-1
739,740,1583237791425,10.6185,1.3791,-8.2555,15.470220999999999,8.72675,-5.74844,-1
740,741,1583237791435,10.347799,0.4179,-8.3716,15.709582999999999,8.201778,-5.946833,-1
741,742,1583237791445,10.6236,0.074099995,-8.9991,15.980654999999999,7.875141999999999,-6.622946300000001,-1
742,743,1583237791455,10.6236,0.074099995,-8.9991,16.142435,7.5075555,-7.273153999999999,-1
743,744,1583237791466,10.825399,-0.6509,-10.260799,16.200777,7.173449499999999,-8.0023985,-1
744,745,1583237791476,11.0414,-0.62799996,-11.097999999999999,16.488848,7.254450299999999,-8.953700999999999,-1
745,746,1583237791486,11.2822,-0.65669996,-11.9761,16.691597,7.1932735,-9.854458000000001,-1
746,747,1583237791496,11.1791,-0.78639996,-12.6286,16.514503,7.066965,-10.486479,-1
747,748,1583237791506,10.6166,-1.0863,-12.823999,15.617492000000002,6.584131200000001,-10.571052,-1
748,749,1583237791516,9.427,-1.7823,-12.412499,14.199426,5.827161299999999,-9.819608,-1
749,750,1583237791526,7.902,-2.6183,-11.1468,12.969247,5.1702976,-8.726233500000001,-1
750,751,1583237791537,6.6043997,-3.3460998999999996,-9.6904,11.735716,4.522149,-7.275873700000001,-1
751,752,1583237791547,5.803499700000001,-3.758,-8.4186,10.961451,4.1689568,-5.956304599999999,-1
752,753,1583237791557,5.5072,-3.8927998999999995,-7.7801,10.72045,4.0796623,-5.6189904,-1
753,754,1583237791567,5.2661,-3.9861,-7.6699996,10.396228,3.9747483999999997,-5.605707,-1
754,755,1583237791577,4.9272,-4.1761,-7.6240997,10.12526,3.8076712999999995,-5.553341400000001,-1
755,756,1583237791588,4.6777997000000004,-4.4621997,-7.3536997,9.8806505,3.4800296000000004,-5.046623,-1
756,757,1583237791598,4.4983997,-4.7557,-6.5762,9.507566,3.148701,-4.0762339999999995,-1
757,758,1583237791608,3.8107998,-5.1749997,-5.3876,8.688539500000001,2.7357297000000003,-2.849962,-1
758,759,1583237791619,3.0154,-5.5048,-4.3410997,7.828130000000001,2.4130106,-1.7448655,-1
759,760,1583237791629,2.4891,-5.6741,-3.5886,7.5775814,2.390869,-1.0584288,-1
760,761,1583237791639,2.3952,-5.6516,-2.9424,7.590184700000001,2.4232962000000002,-0.68211764,-1
761,762,1583237791649,2.6353,-5.5938,-2.3846,8.048914,2.4840705,0.093335554,-1
762,763,1583237791659,3.0168998,-5.5701,-1.8512,8.298792,2.3964427,0.7747253000000001,-1
763,764,1583237791670,3.0351,-5.7788,-1.1407,8.042966,2.0112731,1.7612705000000002,-1
764,765,1583237791680,2.6450999,-6.1524997,-0.0223,7.594638000000001,1.696541,2.9205240000000003,-1
765,766,1583237791690,2.1118,-6.3868,1.0813999,6.7563224,1.4677031,4.130745,-1
766,767,1583237791700,1.1199,-6.5599,2.0568,5.414544599999999,1.3286766,4.9304559999999995,-1
767,768,1583237791710,-0.02,-6.6122,2.5362,4.382184,1.359035,5.6420703,-1
768,769,1583237791721,-0.9995,-6.5418997,3.2119999999999997,3.8414582999999998,1.4123396000000001,6.2389545,-1
769,770,1583237791731,-1.5876,-6.4556,3.8739,3.2988844,1.3579242,7.24834,-1
770,771,1583237791741,-2.069,-6.5004,4.727999700000001,2.8080251,1.1588223999999998,8.509739999999999,-1
771,772,1583237791751,-2.6267998,-6.6857,6.0322,2.1103451,0.81286025,10.154959,-1
772,773,1583237791761,-3.424,-6.9719996,7.6228,0.8678981,0.41593987,11.897526,-1
773,774,1583237791771,-4.9087996,-7.3304996,9.3204,-1.421294,-0.11723927,13.889847,-1
774,775,1583237791782,-7.4020996,-7.8015,11.242,-4.121657,-0.61941826,15.815838000000001,-1
775,776,1583237791792,-10.054999,-8.1767,12.998799,-5.9514394,-0.7066534000000001,17.31727,-1
776,777,1583237791802,-11.6911,-8.0781,14.2439995,-6.554941,-0.5330259,17.966232,-1
777,778,1583237791812,-12.1416,-7.7769,14.651299,-5.990858,-0.17821479999999998,18.167309,-1
778,779,1583237791822,-11.4887,-7.241699700000001,14.725698999999999,-4.7317279999999995,0.3914807,18.23899,-1
779,780,1583237791832,-10.2589,-6.5421,14.692599,-3.283207,0.9382877000000001,18.068388,-1
780,781,1583237791843,-8.9754,-5.8676996,14.3652,-1.7239497,1.4678372,17.334307,-1
781,782,1583237791853,-7.8360996,-5.2604,13.6493,-0.53225976,1.8615397,16.594260000000002,-1
782,783,1583237791863,-6.7847,-4.6913,12.8299,0.43676943,2.3512592,15.870406,-1
783,784,1583237791873,-5.9804997,-4.0123997000000005,12.022599000000001,1.0849372,2.842722,15.492485999999998,-1
784,785,1583237791883,-5.4477997,-3.3213,11.5243,1.4851999,3.3350177000000003,15.791082000000001,-1
785,786,1583237791893,-5.1569,-2.6181,11.6806,2.2993912999999995,3.5735183,16.345348,-1
786,787,1583237791904,-4.4446,-2.1502,12.0913,3.3368660000000006,3.7022307,16.399143,-1
787,788,1583237791914,-3.2351,-1.7554,11.944099000000001,4.920908,3.840242,15.856319000000001,-1
788,789,1583237791924,-2.017,-1.4387,11.3115,6.027384,3.7327902,15.267412,-1
789,790,1583237791934,-0.9738,-1.3209,10.5836,7.1601095,3.8666453,14.805598999999999,-1
790,791,1583237791944,0.092599995,-0.96029997,9.9718,8.124302,4.2549944,14.449487,-1
791,792,1583237791954,1.9253999,0.3407,9.0385,9.220222999999999,4.8203135,14.119470000000002,-1
792,793,1583237791965,1.9253999,0.3407,9.0385,9.787027,5.1321435,13.905083,-1
793,794,1583237791975,3.1739,1.1740999,7.8469,10.373397,5.0904940000000005,13.103543,-1
794,795,1583237791985,3.1739,1.1740999,7.8469,10.454502,4.772736,12.372306,-1
795,796,1583237791996,3.2201,0.52059996,5.8160996,10.364011,4.0427246,11.363188000000001,-1
796,797,1583237792006,3.4536,0.0464,5.1947,10.631701,3.463481,10.916171,-1
797,798,1583237792016,3.8648,-0.16579999,4.8515997,11.201578999999999,3.1649337,10.663746000000002,-1
798,799,1583237792027,4.8643,0.0523,4.4054,12.562816999999999,3.4989629,10.231046000000001,-1
799,800,1583237792037,6.6903996,0.9529,3.6306,14.514282999999999,4.461317500000001,9.389274,-1
800,801,1583237792047,8.816,2.1162,2.3911998,16.569418,5.4559736,8.122224000000001,-1
801,802,1583237792057,10.5708,2.9714,0.8909999999999999,17.914518,6.0176053,6.6048746,-1
802,803,1583237792068,11.2027,3.3249,-0.5484,18.090714000000002,6.1382732,5.4488773,-1
803,804,1583237792078,10.7577,3.1976,-1.6129,17.23402,5.768628,4.601962,-1
804,805,1583237792088,9.6728,2.6378,-2.0288,15.789263,4.8924080000000005,4.431466,-1
805,806,1583237792098,8.470099000000001,1.8205999,-2.0568,14.747325,4.2084894,4.50199,-1
806,807,1583237792108,7.2654996,0.9278,-2.011,13.618248000000001,3.3251631,4.5861220000000005,-1
807,808,1583237792119,6.496,0.12979999,-2.0746,12.954115,2.5654159,4.581439,-1
808,809,1583237792129,6.2068996,-0.2777,-2.0479998999999998,12.8718405,2.589827,4.652211,-1
809,810,1583237792139,6.3641,0.0721,-2.1347,13.054893,3.034325,4.6138086,-1
810,811,1583237792149,6.5448,0.2721,-2.1354,13.203897,2.9557185,4.5252040000000004,-1
811,812,1583237792160,6.7086997,0.1205,-2.5079,13.195345999999999,2.8113002999999996,3.7839017,-1
812,813,1583237792170,6.6222,-0.0416,-3.4002,12.902344,2.659939,2.9762322999999995,-1
813,814,1583237792180,6.2936997,-0.2452,-4.055,12.514253,2.5562412999999995,2.6531968,-1
814,815,1583237792191,5.9238,-0.2787,-4.2232,12.178529,2.698725,2.6746585,-1
815,816,1583237792201,5.6278,-0.098699994,-4.1008997,11.654792,2.8242385,2.9684749,-1
816,817,1583237792211,4.9484,-0.16239999,-3.7917,10.582247,2.4796843999999996,3.3198287000000004,-1
817,818,1583237792221,4.0485997000000005,-0.5118,-3.4973,9.795627,2.1799397000000003,3.7478833,-1
818,819,1583237792231,3.3363,-0.812,-3.0377,9.386792999999999,2.072124,4.1921034,-1
819,820,1583237792242,3.0238,-0.89599997,-2.6359,9.353083,2.19057,4.31755,-1
820,821,1583237792253,3.0045998,-0.79429996,-2.5570998,9.345096,2.3424678,4.1177588,-1
821,822,1583237792263,2.9903998,-0.6261,-2.7963998,9.245718,2.7631004,3.5379503,-1
822,823,1583237792273,2.8716998,-0.3002,-3.2742999,8.770296,2.919116,3.3907356,-1
823,824,1583237792283,2.3892,-0.1758,-3.4092,8.192815,2.8396478,3.6314870000000004,-1
824,825,1583237792294,1.6891999,-0.2993,-3.0744,7.5515227,2.6679645,4.484819,-1
825,826,1583237792303,1.1886,-0.4445,-2.3146,7.315972,2.6063662,5.1239367,-1
826,827,1583237792313,0.93079996,-0.5064,-1.5451,7.368213000000001,2.538141,5.787111299999999,-1
827,828,1583237792323,1.0102999,-0.578,-1.025,7.4299740000000005,2.492795,5.824997,d
828,829,1583237792334,1.0626999,-0.63449997,-0.9763,7.4945216,2.5844352,5.6512737,-1
829,830,1583237792344,1.129,-0.53069997,-1.2037,7.450679300000001,2.71219,5.106775,-1
830,831,1583237792354,1.0553,-0.44219998,-1.6514,7.2047467,2.7510812000000002,4.66401,-1
831,832,1583237792364,0.80799997,-0.4238,-2.0716,7.0565553,2.8336241,4.69344,-1
832,833,1583237792375,0.6597,-0.3575,-1.5893999,7.0832934000000005,2.8372533,5.2529072999999995,-1
833,834,1583237792385,0.6597,-0.3575,-1.5893999,7.082077000000001,2.798362,5.7411904,-1
834,835,1583237792395,0.5395,-0.54359996,-0.5403,6.8625674,2.6248975,6.3006577,-1
835,836,1583237792405,0.4466,-0.67359996,-0.1845,6.798872,2.5083382000000003,6.6753507,-1
836,837,1583237792415,0.4466,-0.67359996,-0.1845,6.818045,2.4964435000000003,6.769404400000001,-1
837,838,1583237792425,0.4712,-0.5776,-0.3626,6.7667227,2.6645072,6.356078599999999,-1
838,839,1583237792436,0.5379,-0.3459,-1.0107,6.862883,2.8927798,5.6735682,-1
839,840,1583237792446,0.6708,-0.17639999,-1.6353999,7.0096,3.0681026,5.095282599999999,-1
840,841,1583237792456,0.79539996,-0.0638,-1.8898,7.081511999999999,3.210414,4.9334826,-1
841,842,1583237792466,0.8454,0.035099998,-1.7289,7.147966,3.2826517,5.205464,-1
842,843,1583237792476,1.0107,0.0327,-1.3815,7.300428999999999,3.2803628,5.582780400000001,-1
843,844,1583237792486,1.1125,0.0346,-0.98289996,7.3500648,3.2603087000000004,5.960384400000001,-1
844,845,1583237792496,1.119,0.077599995,-0.60719997,7.3626204,3.3499286,6.4003525,-1
845,846,1583237792507,1.1911,0.14819999,-0.37489998,7.398992999999999,3.3944511,6.51921,-1
846,847,1583237792517,1.2313,0.2547,-0.3938,7.471384,3.5473160000000004,6.450621,-1
847,848,1583237792527,1.3686,0.39859998,-0.5482,7.707453,3.6961972999999997,6.3056855,-1
848,849,1583237792537,1.9165,0.6114,-0.5839,8.413158000000001,4.0222783,6.3626676,-1
849,850,1583237792547,2.717,1.0598999,-0.41169998,9.047784,4.389683,6.536707,-1
850,851,1583237792557,3.4566,1.3872,-0.2359,9.885765,4.7472997,6.684209,-1
851,852,1583237792568,4.0401,1.6693,-0.21509999,10.359633,5.084518,6.7234836,-1
852,853,1583237792578,4.4501,2.0355,-0.1457,10.847851,5.453915,6.7969375,-1
853,854,1583237792588,4.9804,2.3501,-0.0383,11.247489999999999,5.7545886,6.953710000000001,-1
854,855,1583237792598,5.1903,2.5348,0.19489999,11.390481,5.943979,7.2344729999999995,-1
855,856,1583237792608,5.3624997,2.7661998,0.5555,11.571750999999999,6.1911760000000005,7.6779649999999995,-1
856,857,1583237792618,5.6129999999999995,2.967,1.2013,11.838791,6.5406814,8.6861925,-1
857,858,1583237792629,5.8212,3.2714999,2.1365,12.090671,6.839238000000001,9.513753,-1
858,859,1583237792639,6.1123,3.5056998999999998,2.8566,12.408477,7.1317716,10.06507,-1
859,860,1583237792649,6.4849997,3.7719998,3.3267,12.812723,7.4408245,10.1922035,-1
860,861,1583237792660,6.8831997000000005,4.0186,3.2324,13.130673000000002,7.744936,9.787448,-1
861,862,1583237792670,7.0555997,4.147599700000001,2.8265,13.100439,7.9242907,9.510402000000001,-1
862,863,1583237792680,6.9073,4.1735,2.8106,12.917091000000001,7.9657965,9.563543,-1
863,864,1583237792690,6.7328997,4.0894,2.9678,12.759505,7.9534135,9.580082,-1
864,865,1583237792700,6.580899700000001,3.8562,3.0149999,12.560279,7.830629300000001,9.6359625,-1
865,866,1583237792710,6.4410996,3.5923998,3.1885,12.4368725,7.705355,9.704428,-1
866,867,1583237792721,6.244,3.347,3.3920999,11.969639,7.6121345,9.821839,-1
867,868,1583237792731,5.8122997000000005,3.0788999,3.5410000000000004,11.461484,7.462486999999999,9.759264,-1
868,869,1583237792741,5.2844,2.7199,3.5863998,10.803432,7.2087593,9.759331,-1
869,870,1583237792751,4.6626,2.2631,3.7709,10.407222,6.9443917,9.927508999999999,-1
870,871,1583237792764,4.3294997,1.8108,4.1025,10.045505,6.7192216,10.139194999999999,-1
871,872,1583237792774,3.9914,1.4031999,4.4535,9.606677000000001,6.5979220000000005,10.0214,-1
872,873,1583237792784,3.6497,1.0979999,4.4716,9.229361,6.580224,9.419556,-1
873,874,1583237792795,3.3646998,0.8671,4.1656,8.965021,6.632207000000001,8.855271,-1
874,875,1583237792805,2.6664999,0.4314,3.2759,8.3641815,6.53958,8.215233999999999,-1
875,876,1583237792815,2.0388,0.0936,3.2559998,7.662967999999999,6.3953724,8.069092,-1
876,877,1583237792825,1.6452,-0.35729998,3.4728,7.217656,6.1400547,8.132433,-1
877,878,1583237792835,1.199,-0.78349996,3.722,6.681603999999999,5.933904,8.162523,-1
878,879,1583237792846,0.838,-1.107,3.8472,6.2106357,5.770955000000001,8.006843,-1
879,880,1583237792856,0.6117,-1.484,3.6506,5.917987999999999,5.5918593,7.569719,-1
880,881,1583237792866,0.354,-1.8041999,3.3618998999999996,5.583556,5.5095754,7.120642999999999,-1
881,882,1583237792876,0.3103,-1.8497,3.2696998,5.498006299999999,5.6913238,6.990456,-1
882,883,1583237792886,0.4903,-1.7184,3.9306,5.543793,5.958431,7.5834613,-1
883,884,1583237792897,0.3782,-1.8655,4.7576,5.2278447,5.8922930000000004,8.191799000000001,-1
884,885,1583237792907,0.053999998,-2.2869,4.9084997,4.5953636,5.623692500000001,7.747924,-1
885,886,1583237792917,0.053999998,-2.2869,4.9084997,4.2948627,5.6276193,6.9331584,-1
886,887,1583237792927,-0.0783,-2.6013,2.2481,4.4789286,5.670226,4.704568,-1
887,888,1583237792937,0.4924,-2.7826,0.67759997,4.720360299999999,5.562487,2.808236,-1
888,889,1583237792948,0.09559999400000001,-3.1834,-0.13419999,3.7332212999999994,5.2963379999999995,2.1999169999999997,-1
889,890,1583237792958,-0.904,-3.6157,-0.0014,2.5571797000000003,4.901544,2.4096875,-1
890,891,1583237792968,-1.7982,-4.3122,0.6067,1.5564706,4.2994595,2.9007764,-1
891,892,1583237792978,-2.3792999,-4.879699700000001,1.0593,0.9318999,4.0223165000000005,2.9458832999999998,-1
892,893,1583237792988,-2.3899,-5.0228,0.8203,1.0570687,4.1188316,2.3732765,-1
893,894,1583237792999,-1.8422999,-4.8687,0.22919999,1.4326998,4.3546510000000005,1.6426713,-1
894,895,1583237793009,-1.4573,-4.8893,-0.2635,1.2856193,4.2280264,1.0909611000000001,-1
895,896,1583237793019,-1.8359,-5.2437,-0.44009998,0.2650956,3.7174193999999994,1.2131325000000002,-1
896,897,1583237793030,-2.7122,-5.9034,0.0315,-0.7322905,3.0773153,2.0334911,-1
897,898,1583237793040,-3.4471,-6.5639,1.0493,-1.3813681999999998,2.6267457000000003,2.881776,-1
898,899,1583237793050,-3.5665,-6.8933,1.6391,-0.83778864,2.6077838,2.8320724999999998,-1
899,900,1583237793060,-2.506,-6.8447,1.2491,0.0312587,2.7026036,2.1633239,-1
900,901,1583237793071,-1.7399,-6.7931,0.6856,0.29484117,2.8766142999999995,1.583592,-1
901,902,1583237793081,-1.5638,-6.6905,0.2952,-0.15065274,2.8717587000000004,1.2492273999999999,-1
902,903,1583237793091,-1.9546,-6.7426996,0.091199994,-0.9428940999999998,2.9320063999999997,1.4346823,-1
903,904,1583237793101,-2.6310000000000002,-6.6640997,0.44059998,-1.7341776999999998,3.1875633999999997,1.8275994999999998,-1
904,905,1583237793111,-3.2747,-6.4144998,0.81949997,-2.4932835,3.3198097,1.8394172,-1
905,906,1583237793122,-3.8809998,-6.3564,0.7969,-2.9845257000000003,3.4746187000000006,1.5588933999999999,-1
906,907,1583237793132,-4.2105,-6.1858997,0.5112,-3.0576062000000004,3.6892924,1.2783505,-1
907,908,1583237793142,-4.0998,-5.9523997,0.27719998,-2.4692838,4.043462,1.1284543,-1
908,909,1583237793152,-3.2754998,-5.577999999999999,0.1461,-1.0774004,4.6342645,0.7979874,-1
909,910,1583237793162,-1.7739999,-4.9561,-0.2411,0.26278758,5.483622,0.28978459999999995,-1
910,911,1583237793172,-0.7129,-4.2446,-0.6198,0.35360444,6.0574164,0.25203282,-1
911,912,1583237793183,-0.65209997,-3.5533997999999998,-0.5794,-0.109060675,6.4346757000000006,0.78137165,-1
912,913,1583237793193,-1.0998,-3.2723,-0.0178,-0.7577457,6.5143356,1.236538,-1
913,914,1583237793203,-1.6058999,-3.2177,0.33879998,-1.0678906000000001,6.701064,1.3608546000000001,-1
914,915,1583237793213,-1.8712,-3.0453,0.4761,-1.0964486999999998,7.1265616,1.2370361,-1
915,916,1583237793223,-1.8714998999999999,-2.6176,0.3644,-0.8332301,7.64415,0.9909121999999999,-1
916,917,1583237793233,-1.5891,-2.1009998,0.1389,-0.14397770000000001,8.042679,0.4382634,-1
917,918,1583237793244,-0.8965,-1.7109999999999999,-0.39949998,0.50839436,8.442779,-0.21350533,-1
918,919,1583237793254,0.5011,-0.7615,-1.3539,1.4585093999999998,9.168443,-0.623364,-1
919,920,1583237793264,0.5011,-0.7615,-1.3539,1.763023,9.439811,-0.64062136,-1
920,921,1583237793274,0.99149996,-0.32029998,-1.4223,1.8299555,9.590664,-0.4300082,-1
921,922,1583237793284,0.7452,-0.1546,-0.94579995,1.4129238000000002,9.586910000000001,-0.07903738,d
922,923,1583237793295,0.7452,-0.1546,-0.94579995,1.0283862,9.471865,0.16183846,-1
923,924,1583237793304,0.3108,-0.2835,-0.6684,0.5394328,9.353696000000001,0.3883204,-1
924,925,1583237793314,-0.14989999,-0.40299999999999997,-0.43629998,0.09018479,9.401887,0.5002827999999999,-1
925,926,1583237793324,-0.5733,-0.35599998,-0.3268,-0.035376724,9.547319,0.40756974,-1
926,927,1583237793334,-0.5751,-0.0947,-0.588,0.087273434,9.707692999999999,0.17728585,-1
927,928,1583237793344,-0.5751,-0.0947,-0.588,0.17335936,9.853528,-0.084975004,-1
928,929,1583237793355,-0.2436,0.0806,-1.2057999,0.39581900000000003,9.863048,-0.45203486,-1
929,930,1583237793365,-0.0514,0.15959999,-1.4319998999999999,0.55152833,9.921763,-0.6276255999999999,-1
930,931,1583237793375,-0.0514,0.15959999,-1.4319998999999999,0.56778973,9.974789999999999,-0.6428526999999999,-1
931,932,1583237793385,-0.1041,0.1909,-1.2498,0.45757025,9.923181,-0.34909374,-1
932,933,1583237793395,-0.3173,0.064399995,-0.9752,0.15633179,9.791012,-0.051935025,-1
933,934,1583237793406,-0.6356,-0.1013,-0.63199997,-0.16193423,9.647464999999999,0.3350829,-1
934,935,1583237793416,-0.9334,-0.0906,-0.3085,-0.48512269999999996,9.647283,0.6722823,-1
935,936,1583237793426,-1.2888,-0.3348,-0.0142,-0.84468395,9.353916,0.97421026,-1
936,937,1583237793436,-1.6428,-0.7849,0.2789,-1.2427535,8.85935,1.3200287,-1
937,938,1583237793446,-2.1043,-1.3327999,0.6285,-1.8971846,8.216047999999999,1.7953736,-1
938,939,1583237793457,-2.7242,-1.8015,1.1694,-2.4949209999999997,7.7901387,2.4581172000000002,-1
939,940,1583237793467,-3.1818,-2.1517,1.8032999,-2.8964956,7.4946365,3.0427911,-1
940,941,1583237793477,-3.4592998,-2.3543,2.1807,-3.0837414,7.354049000000001,3.2920847,-1
941,942,1583237793487,-3.7417998,-2.5760999,2.2742999,-3.4811502,6.9982133,3.4420002,-1
942,943,1583237793497,-4.1541,-3.033,2.5133997999999997,-3.9582953,6.541802,3.8358654999999997,-1
943,944,1583237793508,-4.7837996,-3.4989,3.0625,-4.4763527000000005,6.0963655,4.4086447,-1
944,945,1583237793518,-5.4757,-4.2587,3.9933,-5.302965,5.1698,5.6684637,-1
945,946,1583237793528,-6.0483,-4.9894,5.0878997,-5.739783,4.4803653,6.7670007,-1
946,947,1583237793538,-6.4968996,-5.6327,5.9603,-6.210645700000001,3.8017529999999997,7.3388505,-1
947,948,1583237793548,-6.9795,-6.316,6.0309,-6.589417500000001,3.1523209,7.2660860000000005,-1
948,949,1583237793559,-7.2345,-6.8904,5.8774,-6.669001,2.586044,7.1137004,-1
949,950,1583237793569,-7.2149997,-7.5105996,5.7714996,-6.3967514,1.9911522000000001,7.0987315,-1
950,951,1583237793579,-6.9216,-7.9396,5.8037,-6.038368,1.6767168999999997,7.256164599999999,-1
951,952,1583237793589,-6.9203997,-8.049399000000001,6.0322,-6.146730000000001,1.5046408000000002,7.902704700000001,-1
952,953,1583237793599,-7.1685,-8.310699000000001,6.874399700000001,-6.169149,1.0267389999999998,9.082605000000001,-1
953,954,1583237793610,-7.2847,-8.9014,7.9824,-6.1148295,0.32106245,9.960253,-1
954,955,1583237793620,-7.3707,-9.588799,8.5743,-5.785224400000001,-0.44584823,10.038974000000001,-1
955,956,1583237793630,-6.9308996,-10.236899000000001,8.0791,-4.6343513,-0.8946653,8.812501,-1
956,957,1583237793640,-5.6861997,-10.421599,6.5344996,-2.661768,-0.80924016,6.857817,-1
957,958,1583237793650,-3.6065998,-10.0781,4.5743,0.5937140999999999,0.14643896,4.839946,-1
958,959,1583237793660,-1.0602,-9.0138,3.1378999,2.8190289,1.4308228,4.0460477,-1
959,960,1583237793671,1.2659,-7.2647996,2.3003,4.962098,2.9763951,3.5572187999999993,-1
960,961,1583237793680,2.6708998999999998,-5.9405,1.9741,5.9742417,3.6479206,3.46486,-1
961,962,1583237793690,3.1764,-5.4171,1.8404,6.7111673,3.7944458,3.4225687999999996,-1
962,963,1583237793700,3.6661,-5.3842,1.6043999,7.32167,3.3753455000000003,3.286511,-1
963,964,1583237793710,3.8927,-5.7377,1.3575,7.8749413,3.2142158,2.9230042000000003,-1
964,965,1583237793720,4.5531,-5.3694997,0.6635,9.527925999999999,4.1223464,2.1563137,-1
965,966,1583237793731,6.4779,-3.9805998999999996,-0.1797,12.676003999999999,6.093406,1.3743005,-1
966,967,1583237793741,8.832,-2.0777,-0.89489996,14.997815,8.084807000000001,0.67224395,-1
967,968,1583237793751,10.8442,0.1019,-1.7023,16.849396,9.5059,0.039379828,-1
968,969,1583237793761,12.8926,1.7106999,-2.6069,19.032103,10.345958,-1.0164056000000001,-1
969,970,1583237793771,14.151798999999999,2.3193,-3.6216998,19.267232999999997,10.268942,-1.9342563000000002,-1
970,971,1583237793781,13.8497,2.2619,-4.6398997,17.988577,9.618302,-2.2054236,-1
971,972,1583237793792,12.481999,1.8091999,-4.9502997,17.902843,9.707262,-2.1197494999999997,-1
972,973,1583237793802,13.0022,2.3831,-4.9623,20.111103,10.743511,-1.8719976000000003,-1
973,974,1583237793812,15.011,3.4404,-5.0259,22.22073,11.542341,-2.282086,-1
974,975,1583237793822,16.8779,4.3554997,-5.6675,23.545412,12.019869,-3.1217709,-1
975,976,1583237793832,17.9579,4.8624,-6.7019,23.891911999999998,11.843254,-4.349067,-1
976,977,1583237793843,18.073399,4.7472,-7.8377,22.44315,10.716763,-5.2184114,-1
977,978,1583237793853,16.600399,3.695,-8.7996,20.339748,9.654877,-5.532349,-1
978,979,1583237793863,14.4876995,2.6904,-9.2112,19.322453,9.037412,-5.413951,-1
979,980,1583237793873,13.3578,1.9902999,-9.1303,18.910917,8.452786,-4.940876,-1
980,981,1583237793883,13.0727,1.5811,-8.8154,18.721441,8.090994,-4.7166824,-1
981,982,1583237793893,12.8918,1.2504,-8.6638,18.069853,7.635530999999999,-4.779114,-1
982,983,1583237793904,12.242599499999999,0.8341,-8.8032,17.071482,6.9204974,-4.8413634000000005,-1
983,984,1583237793914,11.2624,0.14639999,-8.9239,15.8811035,6.3089895,-4.646494000000001,-1
984,985,1583237793924,10.0857,-0.447,-8.7815,14.933010000000001,5.757882599999999,-4.1494292999999995,-1
985,986,1583237793934,9.1407995,-0.97319996,-8.3274,14.430160500000001,5.074568,-3.3432345000000003,-1
986,987,1583237793944,8.630199000000001,-1.6363,-7.5597,14.199722,4.575731299999999,-2.8597112,-1
987,988,1583237793955,8.3958,-2.1137,-7.102999700000001,13.996426999999999,4.212751,-2.8392072,-1
988,989,1583237793965,7.6861997,-3.2721,-7.0878997,13.432151999999999,3.208374,-2.7715278,-1
989,990,1583237793976,6.941,-4.0358,-6.5246997,12.604773,2.4576766,-2.0743937,-1
990,991,1583237793986,5.9983997,-4.5579,-5.420099700000001,11.735955,1.9412091,-0.8823015999999999,-1
991,992,1583237793996,5.4049997,-4.9923,-4.0594,11.15428,1.4349505,0.6955443,-1
992,993,1583237794006,4.9131,-5.2999997,-2.8302999,10.65956,1.1230338,1.9823511000000003,-1
993,994,1583237794016,4.4716997,-5.4841,-1.7447,10.328787,0.9258953000000001,3.066024,-1
994,995,1583237794026,4.2552,-5.5467997,-0.58059996,10.262545,0.8610507,4.1731796,-1
995,996,1583237794037,4.1742,-5.4414,0.6184,10.259806,0.92447793,5.1972375,-1
996,997,1583237794047,4.1899,-5.289,1.6123999,10.406915,1.0900513,6.338218,-1
997,998,1583237794057,4.2158,-4.9439,2.5384998,10.351714,1.521927,7.1159797000000005,-1
998,999,1583237794067,3.7199998,-4.4551997000000005,3.2105,9.733848,1.8522406000000002,7.7211757,-1
999,1000,1583237794077,2.7991,-4.3496,3.9649,8.825611,1.7857393,8.617364,-1
1000,1001,1583237794087,1.7804999,-4.3739,5.4505,8.044394,1.7063762999999998,10.055781,-1
1001,1002,1583237794098,0.66359997,-4.3463,7.7871,6.628864999999999,1.7153113999999998,13.058828,-1
1002,1003,1583237794108,-0.91029996,-4.192,10.4794,5.3392324,1.8087906999999999,15.18285,-1
1003,1004,1583237794118,-2.1889,-3.7523,12.6663,4.397794,2.3807654,17.482939000000002,-1
1004,1005,1583237794128,-1.9862,-2.9338999,13.783,5.1561627,3.3452455999999997,18.010937,-1
1005,1006,1583237794138,-0.91459996,-1.4732,13.677199,6.1822696,4.601119000000001,17.714766,-1
1006,1007,1583237794148,0.36699998,0.0998,13.438398999999999,7.714788,6.182135,17.613894000000002,-1
1007,1008,1583237794158,1.0548999,0.884,14.0703,7.974673700000001,6.538632,18.669756,-1
1008,1009,1583237794168,0.5715,0.9461,15.7407,7.189242,6.449175,20.655344,-1
1009,1010,1583237794179,-0.59779996,0.84919995,17.8928,5.437577,6.264735,23.318932,-1
1010,1011,1583237794189,-2.2027,0.69339997,19.9219,4.054188,6.2161040000000005,24.759686,-1
1011,1012,1583237794199,-3.2296,0.82659996,20.5929,3.6159818,6.5020485,24.461674,-1
1012,1013,1583237794209,-3.3651,1.3411,19.3022,3.8359134,7.167627,22.438093,-1
1013,1014,1583237794219,-2.7935,1.8500999,17.569198999999998,4.789706,7.7788,20.983376999999997,-1
1014,1015,1583237794229,-1.6752,2.4791,16.285598999999998,5.7209544,8.394847,19.770283,-1
1015,1016,1583237794240,-0.97249997,2.9338999,15.0161,5.873121,8.61815,18.491120000000002,-1
1016,1017,1583237794249,-1.063,2.9148,13.712,5.356787000000001,8.444407,17.143854,-1
1017,1018,1583237794259,-1.6177,2.5960999,12.2773,4.7546163,8.203205,15.967898000000002,-1
1018,1019,1583237794269,-2.3199,2.0948,10.7546,4.0530577,7.7648363,14.452465,-1
1019,1020,1583237794279,-2.6093,1.6402999,9.2116995,4.0227949999999995,7.5083694,12.661553,-1
1020,1021,1583237794289,-2.2089999,1.4638,7.7802997000000005,4.7337584,7.6280413000000005,11.208455,-1
1021,1022,1583237794299,-1.1805999,1.5989,6.3901997,5.9065337,7.9985685,9.80824,-1
1022,1023,1583237794310,0.026999999,1.8607999,5.0948,6.795357000000001,8.297172999999999,8.527208,-1
1023,1024,1583237794320,0.7353,2.0135,3.9034,7.0856012999999995,8.469296,7.3661447,-1
1024,1025,1583237794330,0.95159996,1.9696,2.9017,7.154353599999999,8.520572,6.634917,-1
1025,1026,1583237794340,1.1377,1.9583,2.5733,7.3207889999999995,8.664386,6.679507000000001,-1
1026,1027,1583237794350,1.5148,2.0305,2.7352998,7.8016977,8.892487,6.7791820000000005,-1
1027,1028,1583237794361,2.1581,2.1843998,2.7475,8.494436,9.131485000000001,6.4815254,-1
1028,1029,1583237794371,2.8404,2.2394,2.5017998,8.9691105,9.083917,6.337251,-1
1029,1030,1583237794381,3.4817,2.0149,2.4201,9.396303,8.863813,6.111209400000001,-1
1030,1031,1583237794391,3.8169,1.7149999,2.2818,9.4690485,8.676386,5.7451935,-1
1031,1032,1583237794401,3.9845998,1.3981,1.9499999,9.583846000000001,8.562786000000001,5.395649400000001,-1
1032,1033,1583237794411,4.3008,1.1172999,1.6809,9.830583,8.326248,4.9756684,-1
1033,1034,1583237794422,4.5146,0.8075,1.4325,9.801153,8.28163,4.5740266,-1
1034,1035,1583237794432,4.5804,0.65599996,1.1393,9.722872,8.18683,4.2162085,-1
1035,1036,1583237794442,4.6698,0.38079998,0.9519,9.64781,7.989221000000001,4.0564860000000005,-1
1036,1037,1583237794452,4.6429,0.0839,0.8779,9.432694999999999,7.6998676999999995,3.9444760999999997,-1
1037,1038,1583237794462,4.5014,-0.37989998,0.8835,8.988934500000001,7.143627599999999,3.8024902000000003,-1
1038,1039,1583237794472,4.1682997,-1.0518,0.8333,8.496964,6.8129883,3.4586732000000002,-1
1039,1040,1583237794482,3.7698,-1.4599,0.58169997,7.8784175,6.791651,2.9589555,-1
1040,1041,1583237794492,3.3246998999999997,-1.5624,0.253,7.6489577,6.6807612999999995,2.5540863999999996,-1
1041,1042,1583237794502,3.2928998,-1.8475,0.0002,7.343486,6.3345118,1.9241720000000002,-1
1042,1043,1583237794512,3.0295,-2.3246999,-0.5237,6.559222,5.877286,1.2498595,-1
1043,1044,1583237794523,2.3111,-2.925,-0.99079996,5.5468483,5.4263334,0.77569264,-1
1044,1045,1583237794533,1.4291999,-3.4501,-1.2868,4.550822,5.0473504,0.4551473,-1
1045,1046,1583237794543,0.6644,-3.9185998,-1.4207,4.0226517,4.646236,0.20352629,-1
1046,1047,1583237794553,0.42409998,-4.3299,-1.4772999,4.009799500000001,4.3340125,0.022486342000000003,-1
1047,1048,1583237794563,0.5401,-4.7234,-1.5139999,4.150004,4.010575299999999,-0.26384103,-1
1048,1049,1583237794573,0.80829996,-5.120199700000001,-1.6265999,4.684629,3.797587,-0.78412026,-1
1049,1050,1583237794584,1.4754,-5.4035,-1.9911,4.6151204,3.5873377,-1.0977128,-1
1050,1051,1583237794594,1.527,-5.6724,-2.1534998,4.053048,3.5879123,-1.2984618,-1
1051,1052,1583237794604,1.1137999,-5.7314997000000005,-2.2084,3.579073,3.5747347,-1.4087386,-1
1052,1053,1583237794614,0.7721,-5.7957,-2.1983,3.0741262000000003,3.408261,-1.4057604,-1
1053,1054,1583237794624,0.4024,-6.0218997000000005,-2.0748,2.664009,3.1151917,-1.4341077,-1
1054,1055,1583237794634,0.1407,-6.3515,-2.0038,2.2088041,2.7473464,-1.5872983,-1
1055,1056,1583237794645,-0.3375,-7.0773997,-2.2953,1.8189994999999999,2.4074942999999998,-2.0042150000000003,-1
1056,1057,1583237794655,-0.75049996,-7.4354,-2.7333998999999998,1.2105085,2.1086597,-2.535699,-1
1057,1058,1583237794665,-0.75049996,-7.4354,-2.7333998999999998,0.5376611,2.1080465,-2.9805417000000003,-1
1058,1059,1583237794675,-2.1197999,-7.4261,-3.7157998,-0.45540590000000003,2.2018611,-3.6992044,-1
1059,1060,1583237794685,-2.9119,-7.6467,-3.8393998,-1.4512789,1.9469551999999999,-3.838978,-1
1060,1061,1583237794695,-4.1012,-7.9227996,-3.8295999,-2.808456,1.7328465,-3.9207062999999995,-1
1061,1062,1583237794706,-5.3696,-8.2051,-3.9685,-4.169233999999999,1.4471704,-4.1348248,-1
1062,1063,1583237794715,-5.3696,-8.2051,-3.9685,-5.05166,1.2590436,-4.2014027,-1
1063,1064,1583237794725,-7.3135996,-8.6006,-4.0460997,-6.183036,1.1211089,-4.2290415999999995,-1
1064,1065,1583237794735,-7.8905997,-8.517799,-4.3329,-6.678013000000001,1.2361455,-4.5940900000000005,-1
1065,1066,1583237794745,-7.8518,-8.3523,-4.9158,-6.5502195,1.431273,-5.197343,-1
1066,1067,1583237794755,-7.4687996,-8.0949,-5.504699700000001,-6.1020346,1.6736715,-5.742953,-1
1067,1068,1583237794766,-7.4687996,-8.0949,-5.504699700000001,-5.6827335,1.7765647,-5.9620795,-1
1068,1069,1583237794777,-6.6772,-7.767299700000001,-5.7565,-5.2177987,2.014807,-5.7939973,-1
1069,1070,1583237794787,-6.4356,-7.6786,-5.4340997,-4.887648,1.9616939999999998,-5.486572,-1
1070,1071,1583237794798,-6.0687,-8.0092,-5.138,-4.359113,1.5137196000000002,-5.120671,-1
1071,1072,1583237794807,-5.851,-8.5236,-4.8334,-4.2082120000000005,0.9173336,-4.6992817,-1
1072,1073,1583237794817,-5.9488997,-9.1621,-4.394,-4.200397,0.21868639,-4.1976104,-1
1073,1074,1583237794827,-5.9337,-9.795899,-3.9636,-3.8983638,-0.42327570000000003,-3.670589,-1
1074,1075,1583237794837,-5.5151,-10.3349,-3.4701,-3.236252,-0.9104957,-2.9539372999999998,-1
1075,1076,1583237794848,-4.8995,-10.6993,-2.7661998,-2.4249433999999996,-1.3341832,-2.0887493999999998,-1
1076,1077,1583237794858,-4.250499700000001,-11.0842,-1.979,-1.6438302,-1.7068839,-1.0138869000000001,-1
1077,1078,1583237794868,-4.094599700000001,-11.2146,-1.2902,-1.6700226999999999,-1.7917246999999998,-0.09818143,-1
1078,1079,1583237794879,-4.442,-11.2268,-0.4082,-1.4998621,-1.9010535,0.861022,-1
1079,1080,1583237794889,-3.9764,-11.1178,0.044000000000000004,-0.0991008,-1.5586061000000002,0.60732275,-1
1080,1081,1583237794899,-2.615,-10.511499,-0.9705,1.7496346999999999,-0.9437943000000001,-0.90926987,-1
1081,1082,1583237794909,-0.79069996,-9.76,-2.8074,4.073389499999999,-0.28593472,-2.5566053,-1
1082,1083,1583237794919,1.2067,-9.0485,-4.2899,5.9425235,0.015964536,-3.071933,-1
1083,1084,1583237794930,2.2684999,-8.799399000000001,-4.4214,5.863764,0.0006895300500000001,-1.7744194,-1
1084,1085,1583237794939,0.96159995,-8.601,-2.7680000000000002,4.13357,-0.11771811,1.3095613000000002,-1
1085,1086,1583237794949,-0.95739996,-8.833099,0.6324,2.5858817000000003,-0.9186648000000001,5.401922,-1
1086,1087,1583237794959,-2.5072,-9.5453,4.3796,1.5702611000000002,-1.7739118000000003,9.061728,-1
1087,1088,1583237794969,-3.2872999,-10.0252,7.0920000000000005,1.9819585,-2.1640136,10.530532000000001,-1
1088,1089,1583237794979,-2.3318,-9.9703,7.0255,4.014971,-1.8430852,8.919205999999999,-1
1089,1090,1583237794990,-0.38279998,-8.9852,4.5260997000000005,6.0752387,-0.6248196,6.336054,-1
1090,1091,1583237795000,1.3541,-7.4340997,1.9879999,8.237519,0.43958503,4.474725,-1
1091,1092,1583237795010,3.3476998999999994,-6.1689,0.28239998,10.281651,1.4021691,3.9067147000000007,-1
1092,1093,1583237795020,4.7701,-4.9412,0.247,11.2981615,1.7847049,5.4832296,-1
1093,1094,1583237795030,5.3146996,-4.6414,2.2326999,11.671847999999999,1.1323712,8.319841,-1
1094,1095,1583237795040,5.3287,-5.0958,4.7160997,11.658154,-0.3489118,11.499371,-1
1095,1096,1583237795051,5.1506,-6.0558996,7.0794997,12.097681,-1.3285521,13.875059,-1
1096,1097,1583237795061,5.6166,-6.2929997,9.0805,13.081488,-0.33642364,15.300242,-1
1097,1098,1583237795072,6.4286,-4.5913,10.1083,14.19503,1.5264665000000002,15.574885,-1
1098,1099,1583237795082,7.5197997,-2.3648999,9.9677,16.103601,2.8875990000000002,14.348564999999999,-1
1099,1100,1583237795092,9.3856,-0.71099997,8.3603,17.858598999999998,3.8257809999999997,12.299377999999999,-1
1100,1101,1583237795102,10.8826,0.5453,6.2275,18.725714,4.1267514,11.05445,-1
1101,1102,1583237795113,11.495,1.079,5.1123,18.416677,3.8255801,11.183326,-1
1102,1103,1583237795123,10.9505,1.0449,5.3564,17.753273,3.1954837000000005,12.367757000000001,-1
1103,1104,1583237795133,10.2359,0.7442,6.6123,16.533724,2.3396618,15.246784,-1
1104,1105,1583237795143,9.1837,0.41189998,9.0271,16.051245,2.6777039,17.741407000000002,-1
1105,1106,1583237795153,8.6889,1.0838,11.439899,17.279797,4.216189,18.237267000000003,-1
1106,1107,1583237795164,9.9008,2.9419,11.8845,18.781841,5.459498,17.054942999999998,-1
1107,1108,1583237795174,11.4028,4.4757,10.6566,19.713167000000002,6.395928,14.565835,-1
1108,1109,1583237795184,12.3264,5.7037997,8.125299,19.81363,6.843327499999999,12.125760000000001,-1
1109,1110,1583237795194,12.4337,6.3201,5.6672997,19.108795,6.6121435,10.752072,-1
1110,1111,1583237795204,11.7571,6.2592998,4.2507,17.426435,5.858286,10.479994999999999,-1
1111,1112,1583237795214,10.095099000000001,5.6537,3.9519,15.456171,5.1620235,10.891357000000001,-1
1112,1113,1583237795224,8.3934,5.1555,4.2557,14.878019,4.94803,11.180406,-1
1113,1114,1583237795235,7.1921,4.6317997,4.935,14.359224,4.3868475,11.634145,-1
1114,1115,1583237795245,7.1921,4.6317997,4.935,13.839319,4.1122904,11.843033,-1
1115,1116,1583237795255,6.2212,4.2699,4.937599700000001,13.419960000000001,3.9636487999999996,11.450873,-1
1116,1117,1583237795265,5.9354997,4.0719,4.3220997,13.093917999999999,3.6899629000000003,10.782277,-1
1117,1118,1583237795275,5.9354997,4.0719,4.3220997,12.598088,3.4449785000000004,10.103895,-1
1118,1119,1583237795286,4.3580000000000005,3.3046,2.78,11.356407,2.8566658,9.317860000000001,-1
1119,1120,1583237795295,4.3580000000000005,3.3046,2.78,10.30429,2.4010107999999994,8.877145,-1
1120,1121,1583237795305,1.7902,2.1237,1.7845999,8.750079,1.7026701000000002,8.383747,-1
1121,1122,1583237795315,0.7457,1.5884999,1.3959,7.7616186,1.2608633,7.998683,-1
1122,1123,1583237795325,0.1423,1.3632,1.1158,7.333842,1.0786836000000002,7.735081699999999,-1
1123,1124,1583237795335,0.3107,1.1541,0.87909997,7.5978265,0.9161365,7.4699955000000005,-1
1124,1125,1583237795346,0.5189,0.9992,0.5545,7.781528999999999,0.8283938,7.07817,-1
1125,1126,1583237795356,0.4297,0.8872,0.0083,7.6639833,0.7202908,6.4649386,-1
1126,1127,1583237795366,0.1086,0.6254,-0.6393,7.2875,0.44805092,5.7211555999999995,d
1127,1128,1583237795376,-0.24489999,0.3665,-0.99969995,6.990139999999999,0.26738447,5.4971924,-1
1128,1129,1583237795386,-0.5122,0.0853,-1.0449,6.800749000000001,0.04051947,5.5178876,-1
1129,1130,1583237795397,-0.55619997,-0.0099,-0.8336,6.7983837,0.01004607,5.735405999999999,-1
1130,1131,1583237795407,-0.44779998,-0.0289,-0.5105,6.992027,-0.034447774,6.1262739999999996,-1
1131,1132,1583237795417,-0.2875,-0.1618,-0.3279,7.059591,-0.16973932,6.1609989999999994,-1
1132,1133,1583237795428,-0.2625,-0.2149,-0.5595,7.105914,-0.1482777,5.819749,-1
1133,1134,1583237795438,-0.100099996,-0.1594,-0.9381,7.355055,-0.066865265,5.5145550000000005,-1
1134,1135,1583237795448,0.257,-0.0424,-1.0701,7.728416,0.15332468,5.495593,-1
1135,1136,1583237795459,0.45679998,0.086899996,-0.9957,7.79847,0.17644309,5.6656675000000005,-1
1136,1137,1583237795469,0.4421,0.011299999,-0.81479996,7.677161,0.057518303,5.913764,-1
1137,1138,1583237795479,0.3123,-0.093499996,-0.5485,7.562996000000001,0.0067229187,6.116984400000001,-1
1138,1139,1583237795489,0.2149,-0.1087,-0.40309998,7.4409776,0.03182373,6.2762080000000005,-1
1139,1140,1583237795499,0.100899994,-0.0836,-0.212,7.359335400000001,0.047338158,6.563761,-1
1140,1141,1583237795510,0.086399995,-0.0769,0.0657,7.3272147,0.018205508999999998,6.8322663,-1
1141,1142,1583237795520,0.0233,-0.1393,0.3038,7.209257000000001,-0.15719370000000002,6.975994999999999,-1
1142,1143,1583237795530,-0.0106999995,-0.3311,0.3464,7.307841000000001,-0.41510668,6.9082394,-1
1143,1144,1583237795540,0.0909,-0.58349997,0.2339,7.1419516000000005,-0.45463973,6.783932000000001,-1
1144,1145,1583237795550,-0.221,-0.4937,0.0841,6.647367,0.088642925,6.564824000000001,-1
1145,1146,1583237795561,-0.6042,0.0372,-0.14109999,6.630961999999999,0.50248545,6.484053599999999,-1
1146,1147,1583237795571,-0.4418,0.6207,-0.1959,7.2891088,1.331473,6.475377,-1
1147,1148,1583237795581,0.3276,1.2106999,-0.1911,8.773514,1.1177761999999998,6.639226400000001,-1
1148,1149,1583237795591,1.9139999,0.8361,-0.0229,9.857733,0.77019554,6.6009,-1
1149,1150,1583237795601,3.0692,0.6817,-0.297,10.414835,1.2507023000000002,6.1671953,-1
1150,1151,1583237795612,3.1427,1.3318,-0.5984,9.660001,2.5803175,6.15306,-1
1151,1152,1583237795622,2.5435,2.6885,-0.6098,10.113078999999999,2.9104106,6.6220360000000005,-1
1152,1153,1583237795632,3.2331998,2.7129,-0.0953,10.323932000000001,2.7301273,7.3168050000000004,-1
1153,1154,1583237795642,3.2412999,2.7129998,0.5524,10.165761999999999,2.7733377999999997,8.141511999999999,-1
1154,1155,1583237795652,3.3234,2.5424,1.4506999,11.034819,2.0883665000000002,9.588242,-1
1155,1156,1583237795663,4.2676997000000005,1.9094,2.9878,11.537266,2.0082085,11.151061,-1
1156,1157,1583237795673,4.6365,1.9063,4.423899700000001,11.739815,2.1728625,11.779108,-1
1157,1158,1583237795683,4.8315,1.9964,4.8578997,11.743761,2.2116487,11.661774000000001,-1
1158,1159,1583237795693,4.7848,1.9286,4.7406,11.481691,2.155768,11.5839815,-1
1159,1160,1583237795703,4.3055997,1.7982,4.5766,11.133277,2.4026674999999997,11.315783,-1
1160,1161,1583237795713,4.1814,1.9377999,4.3925,11.734031,2.8775527000000003,11.544534,-1
1161,1162,1583237795724,5.0371,2.4433,4.7007,13.197922,3.657287,12.07349,-1
1162,1163,1583237795734,6.2981997000000005,3.0081,5.1148,14.385760999999999,4.512802,12.512002,-1
1163,1164,1583237795744,7.5063,3.758,5.545099700000001,15.582374,5.046805,12.593950999999999,-1
1164,1165,1583237795754,9.0376,4.2809,5.6268,17.116923999999997,5.604386,12.475907000000001,-1
1165,1166,1583237795764,10.2939,4.436,5.8131,17.094141,5.5948663,12.786197,-1
1166,1167,1583237795775,10.2939,4.436,5.8131,16.586838,5.284166,13.040402,-1
1167,1168,1583237795785,8.4627,2.9970999,6.6956997000000005,15.031459,4.4747634000000005,13.613996499999999,-1
1168,1169,1583237795795,8.4627,2.9970999,6.6956997000000005,13.848963000000001,4.0176525000000005,13.926812,-1
1169,1170,1583237795805,7.0207996,2.1181,7.133899700000001,12.718746000000001,3.8950214,13.979313000000001,-1
1170,1171,1583237795815,5.6408,1.4031999,6.672999999999999,12.30048,3.8645384,13.167181,-1
1171,1172,1583237795826,5.6408,1.4031999,6.672999999999999,11.996847,3.9879644,12.122523,-1
1172,1173,1583237795836,5.1338,0.97179997,4.1166,11.755291,4.0281005,10.43597,-1
1173,1174,1583237795846,5.2395997,0.4736,3.1358,11.7846155,3.8572025,9.417917999999998,-1
1174,1175,1583237795856,5.1005,-0.062,2.3947,11.417307000000001,3.6381620000000003,8.39433,-1
1175,1176,1583237795866,4.6105,-0.49699998,1.7075,10.874971,3.5835644999999996,7.759214999999999,-1
1176,1177,1583237795877,3.6950998,-1.0227,1.3928,9.819167,3.3542287,7.402278,-1
1177,1178,1583237795887,2.681,-1.7408999,1.6019,8.515457000000001,2.936747,7.5871005,-1
1178,1179,1583237795897,1.8231,-2.2519,2.231,7.7107563,2.8916116,8.109219,-1
1179,1180,1583237795907,1.2164,-2.5428998,2.9169,7.138485,2.9459503,8.46744,-1
1180,1181,1583237795917,0.555,-2.4775,3.4552998999999995,6.1955333,3.5972593,8.834336,-1
1181,1182,1583237795928,-0.0431,-2.0579,3.8969998,5.6239605,4.1256022,9.003157,-1
1182,1183,1583237795937,-0.2346,-2.2772,4.1956,5.496972,3.9389502999999997,8.985707000000001,-1
1183,1184,1583237795947,-0.1656,-3.0785,4.1085,5.397622599999999,3.3581263999999997,8.282923,-1
1184,1185,1583237795957,-0.23619999,-3.6199,3.1864,5.2383885,3.3225870000000004,7.070269000000001,-1
1185,1186,1583237795967,0.024,-3.7294998,2.1495,5.563579,3.4965496,5.770869,-1
1186,1187,1583237795977,0.4991,-3.7823,1.5511,5.7307224,3.7029011,5.1998425,-1
1187,1188,1583237795988,0.51699996,-3.6399998999999994,1.3097999,5.3737664,4.13108,4.638852,-1
1188,1189,1583237795998,0.20709999,-3.5498,1.1671,4.959302,4.4034157,4.3086247,-1
1189,1190,1583237796008,-0.0117999995,-3.6402,1.1545,4.504729,4.3328633000000005,4.1037097000000005,-1
1190,1191,1583237796018,-0.41509998,-4.1587,1.1668999,3.7638383,3.9316046,3.9010167,-1
1191,1192,1583237796028,-1.1511999,-4.6267,1.0620999,2.8380099999999997,3.6829717000000004,3.4633565,-1
1192,1193,1583237796039,-1.6537,-5.1617,0.6554,2.25371,3.2236776000000003,2.8087720000000003,-1
1193,1194,1583237796049,-1.9169999,-5.831,0.0346,1.5826343999999999,2.7049499,1.6795900000000001,-1
1194,1195,1583237796059,-2.4025,-6.2032,-0.8125,0.9422046000000001,2.6663267999999998,0.8692293,-1
1195,1196,1583237796069,-2.9171,-6.3856997,-1.5346,0.23812729999999996,2.4931683999999996,0.1729667,-1
1196,1197,1583237796079,-3.5052998,-6.8581,-1.8077999,-0.69702876,2.0036306,-0.22503582,-1
1197,1198,1583237796089,-3.8293,-7.2976,-1.9116,-0.81391364,1.8265365000000002,-0.38040033,-1
1198,1199,1583237796099,-3.5331,-7.5476,-1.9761,-0.55093455,1.7472404,-0.7188351,-1
1199,1200,1583237796109,-3.0871,-7.6194997,-2.1476,-0.42033562,1.6605512999999998,-0.8244577,-1
1200,1201,1583237796119,-2.9556,-7.8682,-1.9834,-0.5647826,1.3742048,-0.7673225,-1
1201,1202,1583237796129,-3.1624,-8.3336,-1.8722,-1.3772981000000002,0.8560228999999999,-0.8949813,-1
1202,1203,1583237796139,-3.9720998,-8.8589,-1.9310999,-2.263689,0.45543462,-0.9176305,-1
1203,1204,1583237796149,-4.9107,-9.3358,-1.8196,-3.2747316000000004,0.2547718,-0.7961199000000001,-1
1204,1205,1583237796159,-5.1942,-9.0969,-1.6697999,-2.8180041,1.0145094000000001,-0.58165693,-1
1205,1206,1583237796169,-4.1317997,-8.143599499999999,-1.4295,-1.6118723,2.1730638,-0.38134846,-1
1206,1207,1583237796179,-2.9814,-6.9807997,-1.3439,-0.7825209,3.2041507,-0.41092163,-1
1207,1208,1583237796189,-2.2292,-6.1059,-1.3788999,-0.27700913,3.8459209999999997,-0.25968468,-1
1208,1209,1583237796199,-1.7917999,-5.5466,-1.0375999,-0.055411402,4.3394523000000005,0.31562284,-1
1209,1210,1583237796209,-1.5996,-5.173899700000001,-0.3656,0.25997198,4.621518,0.9443689000000001,-1
1210,1211,1583237796220,-1.0558,-4.8999,0.0826,0.6588939,4.9859247,0.9669223,-1
1211,1212,1583237796230,-0.9163,-4.4795,-0.1906,0.3396989,5.406098,0.32850364,-1
1212,1213,1583237796241,-1.2078999,-4.1865997,-0.7941,-0.033001676,5.5026417,-0.15633179,-1
1213,1214,1583237796251,-1.5224999,-4.116699700000001,-1.0619999,-0.6140649,5.926319599999999,-0.29218838,-1
1214,1215,1583237796261,-2.1873999,-3.435,-1.1919999,-0.8302708000000001,6.721271000000001,-0.098669834,-1
1215,1216,1583237796271,-2.0214,-2.8666,-0.91639996,-0.08033025,7.1048029999999995,0.45902595,-1
1216,1217,1583237796281,-0.82199997,-2.3629,-0.2349,1.4887912,7.7928679999999995,1.0858758999999998,-1
1217,1218,1583237796292,0.3285,-1.7398,0.0831,2.05162,8.376660000000001,1.2638416000000001,-1
1218,1219,1583237796302,0.784,-1.2256,0.2351,2.2575119,8.574010000000001,1.6810456999999999,-1
1219,1220,1583237796312,0.93259996,-1.0767,0.65669996,1.8592125,8.647819,1.984075,-1
1220,1221,1583237796322,0.4121,-0.95019996,0.8595,1.0285683,8.952686,1.7616824,-1
1221,1222,1583237796332,-0.2304,-0.7184,0.6275,0.92556006,9.044844,1.3465086000000002,-1
1222,1223,1583237796343,-0.31559998,-0.6344,0.22729999,1.120994,9.151482000000001,0.91537035,-1
1223,1224,1583237796353,-0.072399996,-0.4906,-0.2827,1.2365093999999999,9.325961999999999,0.5565656999999999,-1
1224,1225,1583237796363,0.0502,-0.3159,-0.5873,1.3557597,9.387617,0.74588,-1
1225,1226,1583237796373,0.16139999,-0.2865,-0.3761,1.2636118,9.454089999999999,1.2022148000000001,-1
1226,1227,1583237796384,0.0753,-0.22639999,0.061699998,1.1122406999999999,9.669951,1.2791166,-1
1227,1228,1583237796394,-0.0515,-0.0094,0.1092,1.2972647,9.816054,0.9845245,-1
1228,1229,1583237796404,0.1322,0.1383,-0.1979,1.5906885,10.117925,0.76287884,-1
1229,1230,1583237796414,0.4412,0.44259998,-0.4209,1.8520491000000001,10.486086,0.59597427,-1
1230,1231,1583237796424,0.70229995,0.8053,-0.59279996,2.0157743000000004,10.622651,0.47914678,-1
1231,1232,1583237796434,0.87869996,0.9519,-0.71559995,1.9878961,10.671627,0.6077921,-1
1232,1233,1583237796445,0.86399996,0.9902,-0.59419996,1.6868875,10.571166999999999,0.7921935,-1
1233,1234,1583237796455,0.2714,0.5155,-0.3876,1.265077,10.129733,0.81763905,-1
1234,1235,1583237796465,0.022000000000000002,0.32639998,-0.3187,1.0611773000000002,9.999067,0.9144318000000001,-1
1235,1236,1583237796475,-0.0525,0.23529999,-0.2473,0.9478549000000001,9.905972,0.95559293,-1
1236,1237,1583237796485,-0.13859999,0.1343,-0.3204,0.8561091000000001,9.839872,0.8636077,-1
1237,1238,1583237796495,-0.1487,0.24919999,-0.3822,0.8629948000000001,9.977864,0.7997878,-1
1238,1239,1583237796506,0.024899999,0.34469998,-0.4535,1.0292768,10.037327000000001,0.7236618,d
1239,1240,1583237796516,0.2173,0.2638,-0.49539998,1.1820462,9.958079,0.67215776,-1
1240,1241,1583237796526,0.2052,0.23199999999999998,-0.4897,1.0830698,9.935181,0.7015680999999999,-1
1241,1242,1583237796537,-0.028099999,0.1118,-0.4368,0.7681557,9.728771,0.7668531999999999,-1
1242,1243,1583237796547,-0.2874,-0.12619999,-0.32569999,0.51806694,9.488892,0.89310426,-1
1243,1244,1583237796558,-0.5146,-0.41329998,-0.196,0.2650573,9.154891000000001,0.9977212999999999,-1
1244,1245,1583237796568,-0.7599,-0.76909995,-0.1654,-0.044723686,8.8430605,1.0363446,-1
1245,1246,1583237796578,-1.0536,-0.97749996,-0.0382,-0.44190258,8.633146,1.1717511,-1
1246,1247,1583237796588,-1.5445,-1.1266999,0.0676,-0.9940821,8.627046,1.274989,-1
1247,1248,1583237796598,-1.9698999,-1.0206,0.13409999,-1.323984,8.701765,1.3022637,-1
1248,1249,1583237796608,-2.077,-1.0809,0.0751,-1.3991907,8.569135000000001,1.2221825000000002,-1
1249,1250,1583237796619,-2.2281,-1.3175,0.0661,-1.6165937,8.301636,1.2474462,-1
1250,1251,1583237796629,-2.4413,-1.5927,0.18159999,-1.8020773,7.977786500000001,1.48022,-1
1251,1252,1583237796639,-2.5600998,-2.0729,0.5362,-2.0516777,7.404088000000001,2.016866,-1
1252,1253,1583237796649,-2.8489999999999998,-2.4245,1.0314,-2.4978802000000004,7.0499279999999995,2.5384189999999998,-1
1253,1254,1583237796659,-3.4452,-2.8244,1.5324,-3.119185,6.6452503,2.988165,-1
1254,1255,1583237796669,-4.0463,-3.1748,1.8556,-3.6240167999999997,6.457746,3.1656517999999996,-1
1255,1256,1583237796680,-4.6468997000000005,-3.4450998,2.1034,-4.121944,6.109208,3.521727,-1
1256,1257,1583237796690,-5.0246997,-3.8629,2.4155,-4.625866,5.4265447,3.8774480000000002,-1
1257,1258,1583237796700,-5.620199700000001,-4.5726,2.7075,-5.28385,4.6416864,4.3442597,-1
1258,1259,1583237796710,-6.2026997,-5.3592,3.1998,-5.8239245,3.738479,5.085188400000001,-1
1259,1260,1583237796720,-6.9529996,-6.3206,4.138999999999999,-6.7082276,2.9203322,6.275222,-1
1260,1261,1583237796730,-7.9824996,-7.0748,5.3455997,-7.778023700000001,2.1413453,7.577495,-1
1261,1262,1583237796740,-9.072000000000001,-7.8282,6.7205997,-8.515084,1.3932242,9.047105,-1
1262,1263,1583237796751,-9.7098,-8.5213995,8.0735,-8.668188,0.81133753,10.204805,-1
1263,1264,1583237796761,-9.7443,-9.0849,9.006,-7.960978999999999,0.10414778,10.502606,-1
1264,1265,1583237796771,-9.1367,-9.6048,9.0056,-6.855394400000001,-0.3125678,10.060225,-1
1265,1266,1583237796781,-8.1986,-9.9896,8.551,-5.6245737,-0.8888905,9.463906,-1
1266,1267,1583237796791,-7.1727996,-10.4907,7.9652996,-4.2421427000000005,-0.9416491,8.767164,-1
1267,1268,1583237796802,-6.0106997,-10.321099,7.2857,-2.880627,-0.4052713,8.192517,-1
1268,1269,1583237796812,-4.3995,-9.4292,6.5943,0.3123667,0.72484934,7.2991649999999995,-1
1269,1270,1583237796822,-1.8082,-8.4405,5.8294997,3.2080963,1.5830653000000001,6.306058999999999,-1
1270,1271,1583237796832,0.61759996,-7.4838,4.8631997,5.5161543,2.4253549999999997,5.137449299999999,-1
1271,1272,1583237796842,2.5128,-6.5727997,3.7164,7.333986,2.8643843999999996,3.8726883,-1
1272,1273,1583237796853,3.7545998,-6.1232,2.5743,7.9039397,3.0144627,2.9824283,-1
1273,1274,1583237796863,3.8549,-5.7167,1.7646998999999999,9.43621,3.9241924,1.7989648999999999,-1
1274,1275,1583237796873,5.0292997,-4.7948,0.769,11.452712,5.000568,0.93676496,-1
1275,1276,1583237796883,7.3255,-3.2379,-0.31559998,14.571926000000001,6.652576400000001,-0.26590959999999997,-1
1276,1277,1583237796893,10.163099,-1.4194,-1.5504999,17.798907999999997,8.159794,-1.9649693,-1
1277,1278,1583237796903,12.4774,-0.0149,-3.0284998,19.34671,8.960961,-3.3435697999999996,-1
1278,1279,1583237796914,13.7633,0.9641,-4.455,19.945509,9.499503,-4.4282965999999995,-1
1279,1280,1583237796924,14.1345,1.6674999,-5.6152997000000004,20.561308,10.066506,-4.597059,-1
1280,1281,1583237796934,14.5468,2.4083997999999998,-5.8629,21.607643,10.845991999999999,-4.2766285,-1
1281,1282,1583237796944,15.7634,3.5338,-5.5081997000000005,23.592417,12.041331,-4.0855809999999995,-1
1282,1283,1583237796954,18.0543,5.2963,-6.5085998,24.542253,12.529738,-5.4071608,-1
1283,1284,1583237796965,18.0543,5.2963,-6.5085998,24.132204,12.293814,-6.7573276,-1
1284,1285,1583237796975,16.88,4.6349998,-9.4962,23.459412,11.654074000000001,-8.33255,-1
1285,1286,1583237796986,16.565898999999998,4.3911,-10.533999,23.210875,11.385646000000001,-9.373233,-1
1286,1287,1583237796996,16.4569,4.15,-11.32,23.1848,11.133613,-10.1189785,-1
1287,1288,1583237797006,16.3955,3.8348,-11.8117,23.055845,10.792084,-10.5580845,-1
1288,1289,1583237797016,15.7174,3.3845,-11.953199,22.199497,10.267600999999999,-10.648222,-1
1289,1290,1583237797026,14.229199,2.3841999,-11.8705,20.569899,9.21193,-10.495097999999999,-1
1290,1291,1583237797037,12.4788,1.1388999,-11.4587,18.763119,8.015375,-10.010923,-1
1291,1292,1583237797047,10.7747,-0.063,-10.788799000000001,16.634262,6.627294,-9.152296,-1
1292,1293,1583237797057,9.1916,-1.3159999999999998,-10.003799,15.107269,5.492251,-8.410131,-1
1293,1294,1583237797067,7.9511,-2.4780998,-9.292,14.101494,4.675656,-7.816963,-1
1294,1295,1583237797077,6.8546,-3.4280998999999994,-8.481299,12.680076,3.6951725,-6.8283587,-1
1295,1296,1583237797088,5.7931,-4.2131,-7.6747,11.590062,3.0414597999999997,-6.0693589999999995,-1
1296,1297,1583237797098,4.9902,-4.8799,-7.0399,10.700128,2.4302487,-5.3979573,-1
1297,1298,1583237797108,4.1793,-5.6917,-6.2141,9.750664,1.7386404999999998,-4.511978599999999,-1
1298,1299,1583237797118,3.3100998,-6.3536,-5.2741,8.770850999999999,1.1782537,-3.582961,-1
1299,1300,1583237797128,2.4594,-7.0905,-4.4434,7.820784,0.46112326,-2.7901165,-1
1300,1301,1583237797138,1.5667,-7.9312,-3.6894998999999995,6.7719326,-0.29091468,-2.033386,-1
1301,1302,1583237797148,0.5805,-8.5997,-2.9828,5.6963134,-0.78486717,-1.3960016000000002,-1
1302,1303,1583237797158,-0.31579998,-9.0149,-2.4954,4.8536696,-1.1430684,-0.9392358000000001,-1
1303,1304,1583237797169,-0.9091,-9.468599000000001,-2.0187,4.3215723,-1.4486166,-0.47415727,-1
1304,1305,1583237797180,-1.472,-9.7994995,-1.2636,3.4715637999999998,-1.7815349999999999,0.8620179,-1
1305,1306,1583237797191,-1.9368,-10.016399,-0.15179999,2.9621446,-1.9903956999999999,2.4007810000000003,-1
1306,1307,1583237797201,-2.3181,-10.1869,1.0878,2.3771837000000002,-2.2393353,3.6274934,-1
1307,1308,1583237797211,-2.9503999,-10.482999999999999,2.1849,1.4946235,-2.622302,4.6426826,-1
1308,1309,1583237797221,-3.8625,-10.8343,3.1286,0.35479197,-2.661634,5.8181400000000005,-1
1309,1310,1583237797232,-5.0745,-10.726999000000001,4.2099,-0.65966964,-2.3810623,6.730455,-1
1310,1311,1583237797242,-6.2339,-10.3654995,5.204,-1.5668518999999999,-2.2247977000000003,8.23841,-1
1311,1312,1583237797252,-6.8437,-10.269199,6.370199700000001,-1.7712974999999997,-2.3694648999999997,9.610229499999999,-1
1312,1313,1583237797262,-7.0225,-10.3426,7.5775,-1.5892136000000001,-2.7373578999999997,11.188382,-1
1313,1314,1583237797272,-6.9365997,-10.569099000000001,8.7397995,-1.4625795,-2.9718267999999997,12.357538,-1
1314,1315,1583237797282,-6.937999700000001,-10.7142,10.1325,-1.9346396000000001,-2.8506896,14.746913000000001,-1
1315,1316,1583237797293,-7.5037,-10.4528,12.0407,-2.6333632000000002,-2.4401226,16.352885999999998,-1
1316,1317,1583237797303,-8.552899,-9.753099,13.887198999999999,-3.9435279999999997,-1.6189016999999999,17.959414000000002,-1
1317,1318,1583237797313,-9.9959,-8.7499,15.3145,-4.455561599999999,-0.99520266,19.892216,-1
1318,1319,1583237797323,-10.4425,-8.1052,16.8013,-3.2296247000000005,-0.7083102,20.96185,-1
1319,1320,1583237797333,-9.3818,-7.6108,17.7114,-1.4746559,-0.23746651,21.202946,-1
1320,1321,1583237797343,-7.7904,-6.9084997,17.8086,0.41814256,0.13485101,20.791697,-1
1321,1322,1583237797354,-6.1043,-6.3117,17.2724,1.7996161,0.47882120000000006,19.891182,-1
1322,1323,1583237797364,-4.8972,-5.7311,16.257599,2.2536142000000003,0.88013726,19.367511999999998,-1
1323,1324,1583237797374,-4.5669,-4.9349,15.5643,2.366266,1.8418593,19.541904000000002,-1
1324,1325,1583237797384,-4.6489997,-3.8602,15.717298999999999,3.247907,2.505963,20.472023,-1
1325,1326,1583237797395,-2.6397998,-2.2601,17.383298999999997,4.940904,2.9652380000000003,21.585758,-1
1326,1327,1583237797405,-1.2175,-1.6716,17.648699,6.5335274000000005,3.2207375,21.832909,-1
1327,1328,1583237797415,0.35209998,-1.3011,17.2903,8.216439999999999,3.3637192000000002,21.498533,-1
