,Seq,Time,ACCx,ACCy,ACCz,ADGx,ADGy,ADGz,Keydown
0,1,1583237570998,-0.8172,-0.3108,-0.8149,2.1830618,9.071602,-0.5790616,-1
1,2,1583237571009,0.0046,0.1336,0.015899998999999998,0.37610033,9.9612875,1.1928774,-1
2,3,1583237571019,0.0687,0.2595,0.0252,0.49986142,10.029071,1.1982788,-1
3,4,1583237571029,0.28509998,0.30699998,0.035,0.6900568,10.118671,1.1621072000000001,-1
4,5,1583237571039,0.3807,0.45299998,-0.015899998999999998,0.56543386,10.200602,1.0886436000000002,-1
5,6,1583237571050,0.184,0.45209998,-0.069699995,0.39286935,10.15402,1.0406541999999999,-1
6,7,1583237571060,0.039499998,0.373,-0.1256,0.17133865,10.076132000000001,1.0164726999999998,-1
7,8,1583237571071,-0.1609,0.3333,-0.1063,0.088039584,10.121124,1.1474163999999998,-1
8,9,1583237571081,-0.1742,0.44149998,0.15179999,0.24135469,10.292855,1.5849999,-1
9,10,1583237571091,0.0451,0.57049996,0.4793,0.5069195,10.409730999999999,1.8961312,-1
10,11,1583237571101,0.2936,0.6936,0.72819996,0.6619489000000001,10.5772,2.0544262,-1
11,12,1583237571112,0.4244,0.88519996,0.8221,0.66047406,10.6908,2.0546465,-1
12,13,1583237571122,0.42100000000000004,0.9589,0.75299996,0.6416173000000001,10.617279,2.0233877000000002,-1
13,14,1583237571132,0.3741,0.8853,0.7244,0.14031936,10.456648,2.2687072999999995,-1
14,15,1583237571143,-0.0641,0.7337,0.898,-0.33319625,10.236514999999999,2.4804504,-1
15,16,1583237571153,-0.48009998,0.5146,1.0641999,-0.6667276999999999,10.039893,2.72192,-1
16,17,1583237571163,-0.84569997,0.29709998,1.3384,-1.1164929,9.8049555,3.1288384999999996,-1
17,18,1583237571173,-1.1614,0.1113,1.5824,-1.4132781,9.677342999999999,3.2331014,-1
18,19,1583237571184,-1.3885,-0.0033999997999999997,1.6119999999999999,-1.5534825,9.432944,3.2665912999999995,-1
19,20,1583237571194,-1.4574,-0.24319999,1.5652,-1.7995586,9.035525,3.318086,-1
20,21,1583237571204,-1.6018,-0.6167,1.5076,-2.1330519,8.672479,3.5775120000000005,-1
21,22,1583237571214,-1.9531,-1.0433,1.7576,-2.8166156000000004,8.03518,4.3304024000000005,-1
22,23,1583237571224,-2.3887,-1.5498999,2.2796,-3.109982,7.4859886,5.036892400000001,-1
23,24,1583237571234,-2.5929,-2.1811,3.0152,-3.6216035000000004,6.7385,6.311479599999999,-1
24,25,1583237571244,-2.8463,-2.7449,3.8871,-4.0741553,6.1186504,7.0265512,-1
25,26,1583237571255,-3.0700998,-3.2714999,4.3348,-4.3067765,5.649205,7.221659,-1
26,27,1583237571265,-2.9673998,-4.008,3.3869998,-4.7827915999999995,4.8708024000000005,6.862164999999999,-1
27,28,1583237571275,-2.9673998,-4.008,3.3869998,-5.1680565000000005,4.2549660000000005,6.477579599999999,-1
28,29,1583237571286,-3.24,-4.562599700000001,2.9408998,-5.570455,3.6208086,6.3101773,-1
29,30,1583237571296,-4.0365,-6.0172,2.6892998,-6.2823663,2.5069494,6.351367,-1
30,31,1583237571306,-4.4742,-6.8332,2.7694,-6.570015,1.9101611,6.4322433,-1
31,32,1583237571317,-4.4269,-7.526799700000001,2.8934999,-6.423489599999999,1.0889978,6.6032367,-1
32,33,1583237571327,-4.0081,-8.0913,3.0161998,-6.0228150000000005,0.47409979999999996,6.617966,-1
33,34,1583237571337,-3.6397998,-8.823,2.8084,-5.681019,-0.088987686,6.330815,-1
34,35,1583237571347,-3.1355999,-9.4781,2.1955,-5.026913599999999,-0.8934585999999999,5.513999500000001,-1
35,36,1583237571357,-2.5641,-10.2219,1.5574,-4.3756332,-1.6089514,4.819010700000001,-1
36,37,1583237571367,-1.9057,-10.953899,0.9773,-3.7144315000000003,-2.2685251,4.2488074000000005,-1
37,38,1583237571377,-1.2986,-11.6036,0.4025,-2.8701882000000003,-2.8113387000000003,3.4237564,-1
38,39,1583237571387,-0.38149998,-12.0427,-0.6676,-2.0167317,-3.0803032000000004,2.4161900000000003,-1
39,40,1583237571398,0.4917,-12.3378,-1.7469,-0.9041368000000001,-3.3779216,1.2446977,-1
40,41,1583237571408,1.1254,-12.6907,-2.245,-0.15790239,-3.7322538,0.8402210999999999,-1
41,42,1583237571418,1.6851,-13.2174,-2.3999999,0.7781443,-4.3720419999999995,0.75084084,-1
42,43,1583237571428,2.9227,-13.623099,-2.3876,2.5031187999999998,-4.476717,0.74591833,-1
43,44,1583237571439,4.5934,-13.7099,-2.3846,4.728577,-4.387729,0.54833925,-1
44,45,1583237571449,5.8220997,-13.631599,-2.6771,5.5146127,-4.3006377,0.17446070000000002,-1
45,46,1583237571459,6.4122996,-13.542399,-3.2875,6.2221947,-4.1110454,-0.63022095,-1
46,47,1583237571469,6.3767,-13.330998999999998,-3.9483,5.992399,-4.069597,-1.1290673,-1
47,48,1583237571479,5.6854997,-13.5049,-4.2826,5.744935,-4.495114,-1.1015913,-1
48,49,1583237571489,5.5828,-13.8363,-4.0467,6.929854,-4.4124084,-0.38100368,-1
49,50,1583237571499,7.1407,-13.331698999999999,-3.326,9.933859,-3.5847518,0.14533761,-1
50,51,1583237571510,10.4751,-12.284599,-3.3732,14.200394000000001,-2.3385222000000003,-0.45528140000000006,-1
51,52,1583237571520,14.2625,-10.6909,-4.3202,17.991132999999998,-0.5356308000000001,-1.3267517,-1
52,53,1583237571531,17.2054,-8.6159,-5.267299700000001,20.405666,1.3507607,-2.248184,-1
53,54,1583237571541,18.5256,-6.8258,-6.566,20.556635,2.8516474,-3.3716679,-1
54,55,1583237571552,17.852299,-5.5313,-7.4388,20.057579,3.5141902000000003,-3.07744,-1
55,56,1583237571561,17.2689,-4.5656,-7.0435996,20.619766000000002,4.2944794,-1.544873,-1
56,57,1583237571571,17.7526,-3.6725998,-5.7669,21.625435,4.913917,-0.10608229,-1
57,58,1583237571582,19.0992,-2.5525,-4.4356,24.622238,6.2609043,0.6795701999999999,-1
58,59,1583237571591,21.5598,-1.0435,-4.5345,26.954584000000004,7.7365947,-0.050623,-1
59,60,1583237571605,24.425299,2.7198,-6.2314997000000005,28.484228,9.943264,-0.61044484,-1
60,61,1583237571615,23.9424,3.7180998,-5.7616,27.925959000000002,10.432255,0.44571418,-1
61,62,1583237571625,22.965398999999998,4.0091,-3.9833,27.100065,10.316482,2.6018939999999997,-1
62,63,1583237571635,22.2292,3.847,-2.0305,26.544446999999998,9.775238,4.7122107,-1
63,64,1583237571645,21.680999999999997,3.7463,-0.82559997,26.153589999999998,9.503055999999999,5.799226,-1
64,65,1583237571655,21.680999999999997,3.7463,-0.82559997,26.03315,9.855166,5.316392,-1
65,66,1583237571665,21.5884,5.4779,-2.7293,26.584019,10.909189,3.8475970999999998,-1
66,67,1583237571675,21.5884,6.8013,-3.365,27.530628000000004,11.968375,3.4807382000000007,-1
67,68,1583237571686,22.5963,7.492999999999999,-3.1829,27.675172999999997,12.2423,3.8315462999999994,-1
68,69,1583237571696,21.8682,7.4308996,-2.5698,26.899775,11.9024105,4.4917045,-1
69,70,1583237571706,20.430398999999998,7.040199799999999,-2.0349998,25.582466,11.267813,4.9361734,-1
70,71,1583237571716,19.007399,6.3169,-1.7831999,24.259449,10.39232,5.182546599999999,-1
71,72,1583237571727,17.2326,5.7222,-1.3623999,22.267933,9.553717,5.787340599999999,-1
72,73,1583237571736,15.5152,5.1604,-0.4297,21.054256,9.058481,6.613235499999999,-1
73,74,1583237571746,14.0456,4.6998997000000005,0.9216,19.58907,8.490864,8.178411500000001,-1
74,75,1583237571756,12.9373,4.2971,2.2672,18.749397000000002,8.0208435,9.326115,-1
75,76,1583237571768,11.9563,3.8699,3.5217998,18.049782,7.71815,10.17936,-1
76,77,1583237571778,10.6177,3.5860000000000003,4.7219,16.571457000000002,7.453073,11.295758,-1
77,78,1583237571788,9.3133,3.3729,5.6417,15.50215,7.3170733,12.088918,-1
78,79,1583237571798,8.5598,3.2089999,6.5747,15.331969,7.292681,12.780478500000001,-1
79,80,1583237571809,8.5071,3.1791,8.033999,15.601346,7.330508999999999,14.291143,-1
80,81,1583237571819,8.7544,3.0075998,9.920899,15.709756,7.1441636,16.079544,-1
81,82,1583237571830,8.3337,2.6763,11.4352,15.174230999999999,6.9013146999999995,16.944032999999997,-1
82,83,1583237571841,7.7201,2.2277,12.2548,14.825154999999999,6.416719400000001,16.692106,-1
83,84,1583237571851,7.5158,1.5748,11.934199000000001,15.049512,5.9321327,15.677548000000002,-1
84,85,1583237571861,7.8592997,0.9478,11.2251,15.686646,5.501655,15.157739999999999,-1
85,86,1583237571872,8.3883,0.2252,11.1226,15.475545,4.80817,15.717570000000002,-1
86,87,1583237571882,8.038899,-0.7391,12.1973,14.694605,4.186463,16.817045,-1
87,88,1583237571892,6.891,-1.7579,13.8384,12.152786,2.977774,18.445936,-1
88,89,1583237571903,5.0253,-2.9375,15.1587,9.987402000000001,2.2391913,18.483007,-1
89,90,1583237571912,2.9977999,-3.9491,15.403298999999999,8.692167999999999,2.0185802,17.57752,-1
90,91,1583237571922,1.7005999,-4.46,14.3933,8.141991,1.9109082,15.844348000000002,-1
91,92,1583237571932,1.4574,-4.8252,12.781899000000001,7.976033999999999,1.9311918000000001,14.167582999999999,-1
92,93,1583237571943,1.4513999,-5.0231,10.8358,7.755298,2.0098941000000003,11.459052,-1
93,94,1583237571953,1.4779999,-5.2205997,8.7177,7.4050264000000015,1.9521650000000002,9.279131,-1
94,95,1583237571963,1.2256,-5.5449,6.8499,6.435413,1.7114807,7.868831,-1
95,96,1583237571974,0.3715,-6.0548997,5.7472997,4.800863,1.4597735,6.723923700000001,-1
96,97,1583237571984,-0.74439996,-6.4452,4.9501,3.6291022000000006,1.3090633,5.935494,-1
97,98,1583237571994,-1.6667,-6.8013,4.2823,2.7261817,1.1307527,5.3761797,-1
98,99,1583237572005,-2.3123,-7.151,3.8335,1.9424063000000003,0.9862962,4.7767487,-1
99,100,1583237572016,-2.8427,-7.4740996,3.3325998999999995,1.0249003,0.91116613,4.1934633,-1
100,101,1583237572025,-3.5037,-7.6941,2.8321,0.030023288,0.742078,3.5120449999999996,-1
101,102,1583237572035,-4.351,-8.0016,1.8731999,-0.39091570000000003,0.8646229,2.9386911000000002,-1
102,103,1583237572046,-4.4568,-7.9523997,1.5027,-0.6546321999999999,1.0842094,2.5216689999999997,-1
103,104,1583237572056,-4.1175,-7.5860996,1.0682,-0.40310696,1.5963676000000002,1.9062251000000001,-1
104,105,1583237572066,-3.3931,-7.1289,0.27519998,0.14441824,2.0950415000000002,1.0013796,-1
105,106,1583237572076,-2.9466999,-6.9557,-0.4488,0.31219435,2.2953593999999997,0.18566556,-1
106,107,1583237572087,-3.0779998,-6.7843,-1.0591,-0.116607204,2.6013767999999997,-0.5922297,-1
107,108,1583237572097,-3.2870998,-6.6643,-1.5842999,-0.39700654,2.6670449,-1.1144339,-1
108,109,1583237572107,-3.3319,-6.7525997,-2.0609999,-0.48787129999999995,2.6361310000000002,-1.7664037000000001,-1
109,110,1583237572118,-2.8621,-6.598,-2.4615,0.09481996,3.0120014999999998,-2.2500612999999996,-1
110,111,1583237572128,-2.1719999999999997,-6.2009,-2.8671,0.48740202,3.343407,-2.700468,-1
111,112,1583237572138,-2.0797,-6.0737,-3.0834,0.22038148,3.4634519999999998,-2.8098638,-1
112,113,1583237572148,-2.3955998,-5.9919996,-2.8645,-0.096505485,3.5477760000000003,-2.6388125,-1
113,114,1583237572158,-2.5346,-5.906399700000001,-2.6081998,-0.28306168,3.7058315000000004,-2.4795504,-1
114,115,1583237572168,-2.4603999,-5.7186,-2.5342999,-0.24347116,3.9167416,-2.5935526,-1
115,116,1583237572179,-2.291,-5.5070996,-2.7777998,-0.04785530599999999,4.160213,-2.9966595000000003,-1
116,117,1583237572189,-1.9583,-5.1935997,-3.1941998,0.45009077,4.6960926,-3.7526622000000005,-1
117,118,1583237572199,-1.3931,-4.6802,-3.8086,0.9789125,5.1750765,-4.3351045,-1
118,119,1583237572209,-0.92689997,-4.3111,-4.1372,1.2816257,5.4181932999999995,-4.4057336,-1
119,120,1583237572219,-0.72279996,-4.0874,-3.9975,1.3288299,5.722726000000001,-4.18585,-1
120,121,1583237572229,-0.6993,-3.7451,-3.6815,1.3071096000000002,5.948873000000001,-3.9849763,-1
121,122,1583237572239,-0.7586,-3.5293,-3.429,1.2296525,6.3277507,-3.7892072,-1
122,123,1583237572249,-0.7938,-3.0767999,-3.2946,1.2832443,6.7809824999999995,-3.8482387000000005,-1
123,124,1583237572259,-0.59959996,-2.6718,-3.3546,1.6412731,7.1378913,-3.9925803999999996,-1
124,125,1583237572270,-0.2252,-2.3044999,-3.5019998999999995,2.0102293,7.5101414,-4.301423000000001,-1
125,126,1583237572279,0.0765,-1.9361999,-3.7986998999999995,2.2172606,7.7901196,-4.544980000000001,d
126,127,1583237572289,0.31739998,-1.5970999,-3.9939999999999998,2.4216201,8.185345,-4.6873393,-1
127,128,1583237572300,0.3601,-1.268,-3.9074,2.3346725,8.442271,-4.435258999999999,-1
128,129,1583237572310,0.1273,-1.0575,-3.5512998,2.1029232,8.553687,-3.9521759,-1
129,130,1583237572320,0.0705,-0.97499996,-3.0291997999999998,2.4841661,8.770391,-3.3399975,-1
130,131,1583237572331,0.4244,-0.74539995,-2.539,2.7223990000000002,8.973842,-2.8823027999999997,-1
131,132,1583237572341,0.59419996,-0.5452,-2.0634,2.7531597999999997,9.143523,-2.359984,-1
132,133,1583237572351,0.5915,-0.3944,-1.5219999999999998,2.6500747000000002,9.135833,-2.0315090000000002,-1
133,134,1583237572362,0.4554,-0.43019998,-1.2867,2.3996797,9.051739999999999,-2.1947935000000003,-1
134,135,1583237572372,0.2232,-0.505,-1.4747,2.355569,9.086205999999999,-2.583066,-1
135,136,1583237572383,0.2052,-0.4513,-1.8529999,2.3993349999999998,9.204001,-3.0070312,-1
136,137,1583237572393,0.2224,-0.3277,-2.1496,2.3992487999999996,9.3058405,-3.0465259999999996,-1
137,138,1583237572403,0.2076,-0.22379999,-2.1718,2.4107312999999997,9.370771000000001,-2.7793236,-1
138,139,1583237572414,0.1977,-0.14909999,-1.8907,2.554575,9.456704,-2.3720026,-1
139,140,1583237572423,0.3123,-0.0646,-1.4706999,2.6925576,9.494235,-2.050174,-1
140,141,1583237572433,0.43629998,-0.019399998999999998,-1.1408,2.9285972,9.523214999999999,-1.7377403999999999,-1
141,142,1583237572443,0.6404,0.015899998999999998,-0.81759995,2.9855886000000003,9.551044000000001,-1.5996332,-1
142,143,1583237572453,0.6809999999999999,0.0707,-0.6473,2.8552577,9.608583,-1.4784579,-1
143,144,1583237572463,0.5487,0.114999995,-0.53319997,2.6595464,9.53058,-1.4059136,-1
144,145,1583237572473,0.3302,0.0412,-0.4384,2.5434275,9.449233999999999,-1.3664091999999999,-1
145,146,1583237572483,0.1998,-0.051999997,-0.3732,2.7189322,9.485674000000001,-1.3037386,-1
146,147,1583237572495,0.361,0.0023999998999999998,-0.30769998,2.9617136000000004,9.586691,-1.3617261999999999,-1
147,148,1583237572505,0.5882,0.1166,-0.3495,3.2538638,9.771168,-1.5569972,-1
148,149,1583237572515,0.8663,0.4131,-0.59459996,3.2405807999999996,9.910635000000001,-1.6111253,-1
149,150,1583237572526,0.8041,0.5545,-0.43069997,3.2443923999999997,10.029484,-1.4421138999999998,-1
150,151,1583237572535,0.8041,0.5545,-0.43069997,3.2333024,9.91324,-1.2850639,-1
151,152,1583237572545,0.8046,0.45909998,-0.2321,2.9165304,9.671052,-0.99325854,-1
152,153,1583237572555,0.41669998,0.07809999599999999,0.2096,2.8477592,9.518139999999999,-0.82039714,-1
153,154,1583237572566,0.39659998,-0.029199999,0.2712,2.8188276,9.420313,-0.7818696999999999,-1
154,155,1583237572577,0.3762,0.020499998999999998,0.2179,2.8080057999999997,9.489055,-0.86924845,-1
155,156,1583237572588,0.36519998,0.11,0.1471,2.8243343999999997,9.563065,-0.9334993,-1
156,157,1583237572598,0.3636,0.07200000000000001,0.1256,2.7672950000000003,9.502778,-0.95061296,-1
157,158,1583237572608,0.2841,0.0241,0.1426,2.7009467999999996,9.465841000000001,-0.9659549999999999,-1
158,159,1583237572618,0.2735,0.024999999,0.099599995,2.719775,9.441946000000002,-0.99567187,-1
159,160,1583237572628,0.2825,-0.052699998,0.1135,2.6559741000000003,9.334418,-0.93372905,-1
160,161,1583237572638,0.15439999,-0.13069999,0.17449999,2.5271661,9.357594,-0.9033706,-1
161,162,1583237572648,0.026099999,-0.0814,0.19489999,2.4206145,9.4123535,-0.91947883,-1
162,163,1583237572659,-0.102199994,0.016999999,0.1475,2.3297974999999997,9.511894999999999,-0.9604867,-1
163,164,1583237572669,-0.1026,0.1059,0.113,2.3253827,9.551533000000001,-1.0536306999999998,-1
164,165,1583237572679,-0.16049999,0.1361,0.043899997999999996,2.2755642000000003,9.628789999999999,-1.0683120000000002,-1
165,166,1583237572689,-0.14909999,0.2058,0.065799996,2.3890013999999997,9.666503,-1.0086293,-1
166,167,1583237572700,0.0179,0.2463,0.1461,2.5508113,9.691374,-1.0276777,-1
167,168,1583237572710,0.115399994,0.2575,0.0677,2.5814857000000004,9.704696,-1.1154586000000002,-1
168,169,1583237572720,0.1933,0.2487,-0.042099997,2.7254155,9.710096,-1.2694919,-1
169,170,1583237572731,0.29099998,0.2789,-0.15439999,2.7112803,9.7921505,-1.3643502,-1
170,171,1583237572740,0.23339999,0.3771,-0.1998,2.659709,9.815624,-1.3301034999999999,-1
171,172,1583237572750,0.17809999,0.3274,-0.1193,2.4481192000000003,9.582467,-1.1333768,-1
172,173,1583237572760,-0.0315,0.12,0.0876,2.2896132000000002,9.554302,-0.9756372,-1
173,174,1583237572771,-0.1416,0.0986,0.2359,2.314178,9.509846000000001,-0.932034,-1
174,175,1583237572781,-0.104499996,0.048,0.22909999,2.2878897,9.4942255,-0.9833274,-1
175,176,1583237572791,-0.1162,0.0661,0.1748,2.368737,9.577812,-1.1024916,-1
176,177,1583237572801,0.057499997000000004,0.1434,-0.0063,2.5396926,9.595194000000001,-1.3127311000000002,-1
177,178,1583237572811,0.13239999,0.1521,-0.1599,2.5014813,9.64736,-1.3827664,-1
178,179,1583237572821,0.08,0.19929999,-0.1906,2.3958776000000004,9.580427,-1.2844796,-1
179,180,1583237572831,-0.0009,0.0986,-0.0699,2.2764742,9.457365,-1.128617,-1
180,181,1583237572842,-0.1398,-0.0224,0.056599997,2.0644147,9.440711,-0.9897151,-1
181,182,1583237572852,-0.3649,-0.0264,0.2705,1.9618758,9.403514999999999,-0.72146875,-1
182,183,1583237572862,-0.3739,-0.059699997000000005,0.466,2.0544453000000003,9.386314,-0.6323661,-1
183,184,1583237572872,-0.2758,-0.0727,0.4885,2.1096172,9.380243,-0.76789707,-1
184,185,1583237572882,-0.22729999,-0.0852,0.3186,2.148413,9.415054,-0.9561963,-1
185,186,1583237572892,-0.1794,-0.038399998,0.141,2.1732934,9.466146,-1.0299950999999998,-1
186,187,1583237572902,-0.1226,-0.0111,0.13949999,2.1811178,9.460448,-0.82638264,-1
187,188,1583237572913,-0.14459999,-0.032899998,0.3321,2.0962577000000002,9.446332,-0.724495,-1
188,189,1583237572924,-0.2359,-0.0547,0.3962,1.9861052,9.406359,-0.7443860999999999,-1
189,190,1583237572934,-0.32819998,-0.0762,0.34299999999999997,1.9134363999999997,9.400335,-0.9368703000000002,-1
190,191,1583237572944,-0.3827,-0.077599995,0.183,1.9635135,9.388173,-1.052309,-1
191,192,1583237572954,-0.32099998,-0.0883,0.0635,1.9949734000000001,9.361011999999999,-0.9501915999999999,-1
192,193,1583237572964,-0.29889998,-0.0989,0.1214,2.0317197,9.314785,-0.81213236,-1
193,194,1583237572975,-0.2472,-0.1681,0.2985,2.0650372999999997,9.308244,-0.6572467,-1
194,195,1583237572985,-0.2122,-0.2076,0.5227,2.0979240000000003,9.277435,-0.6292345,-1
195,196,1583237572995,-0.20099999,-0.15799999,0.3444,2.0622504,9.342252,-0.8725812,-1
196,197,1583237573005,-0.20099999,-0.15799999,0.3444,1.9116743000000003,9.374238,-1.1104308,-1
197,198,1583237573015,-0.3985,-0.1165,-0.0707,1.8923580000000002,9.3639145,-1.2424757,-1
198,199,1583237573025,-0.3985,-0.1165,-0.0707,1.9545689,9.396332000000001,-1.2964122999999999,-1
199,200,1583237573036,-0.0748,-0.0246,-0.1382,2.2475902999999997,9.436679,-1.2927732,-1
200,201,1583237573046,0.0958,-0.022499999,-0.10349999,2.418412,9.457461,-1.2716466999999998,-1
201,202,1583237573056,0.21859999,-0.06,-0.0981,2.5415027,9.4233,-1.2752955,-1
202,203,1583237573066,0.22569999,-0.019399998999999998,-0.1804,2.4710076,9.476728999999999,-1.3825844999999999,-1
203,204,1583237573077,0.0493,0.030299998999999998,-0.2429,2.2968152,9.480808,-1.4215046,-1
204,205,1583237573087,-0.1935,-0.0578,-0.1889,2.0745373,9.411166,-1.3573016000000002,-1
205,206,1583237573097,-0.3385,-0.0677,-0.1266,1.9260776999999998,9.365916,-1.2970828,-1
206,207,1583237573107,-0.3673,-0.146,-0.094799995,1.9162903000000002,9.305984500000001,-1.288885,-1
207,208,1583237573118,-0.3788,-0.1946,-0.015899998999999998,1.9502305,9.280012,-1.1551353000000002,-1
208,209,1583237573128,-0.2651,-0.1642,0.0325,2.0809154999999997,9.313607000000001,-1.1693857,-1
209,210,1583237573138,-0.12419999400000001,-0.0744,-0.0651,2.2407334,9.449224000000001,-1.3393452,-1
210,211,1583237573149,0.015999998999999997,0.0254,-0.2599,2.3519970000000003,9.510516,-1.516334,-1
211,212,1583237573159,0.0008,0.0563,-0.3854,2.2892685,9.538327,-1.5605885,-1
212,213,1583237573169,-0.081,0.057299998,-0.28669998,2.2447844,9.500297999999999,-1.3707476,-1
213,214,1583237573179,-0.044499997,0.0284,-0.071899995,2.3490088,9.490597,-1.1019936000000001,-1
214,215,1583237573190,0.070199996,0.028999999999999998,0.1329,2.4329112,9.529017999999999,-1.0606505,-1
215,216,1583237573200,0.20439999,0.1573,0.0844,2.6528041,9.686797,-1.1859916000000001,-1
216,217,1583237573210,0.387,0.24669999,-0.0512,2.7509186000000003,9.704523,-1.3213408000000002,-1
217,218,1583237573220,0.3446,0.24759999,-0.1777,2.6120932,9.736528,-1.4040078,-1
218,219,1583237573231,0.1855,0.2872,-0.19839999,2.4442310000000003,9.7161875,-1.2767224,-1
219,220,1583237573240,0.1048,0.25779998,-0.055499997,2.3926215,9.755980000000001,-1.1490923000000002,-1
220,221,1583237573250,0.0036,0.3069,0.0464,2.3901505000000003,9.834184,-1.1224017,-1
221,222,1583237573260,0.0782,0.366,0.051099997,2.5439446,9.817606,-1.1730151000000002,-1
222,223,1583237573270,0.2112,0.34719998,-0.0199,2.6630132,9.803835000000001,-1.2464213,-1
223,224,1583237573281,0.37449998,0.348,-0.1183,2.8312776,9.807005,-1.3416531999999999,-1
224,225,1583237573291,0.51949996,0.3584,-0.1476,2.9371302000000004,9.859294,-1.2851213,d
225,226,1583237573301,0.5585,0.40719998,-0.0903,2.7707522,9.889403,-1.1931072,-1
226,227,1583237573312,0.35549998,0.42569998,0.0037999998,2.4733636000000003,9.840897,-1.0884136999999998,-1
227,228,1583237573321,0.0672,0.3647,0.0871,2.2997265,9.794986,-1.0393421999999999,-1
228,229,1583237573331,-0.1213,0.3329,0.1611,2.1945443,9.794718,-0.8855099,-1
229,230,1583237573341,-0.1435,0.32099998,0.3152,2.2429266,9.764924,-0.77687055,-1
230,231,1583237573352,-0.088199995,0.2899,0.3928,2.309351,9.720995,-0.78605473,-1
231,232,1583237573362,0.0047999997999999995,0.23979999,0.35459998,2.4883992999999998,9.692629,-0.96258396,-1
232,233,1583237573373,0.1847,0.2296,0.1418,2.7035708,9.734001,-1.201851,-1
233,234,1583237573383,0.4229,0.2882,-0.0894,2.7947322999999997,9.835314,-1.3579816,-1
234,235,1583237573393,0.4664,0.35599998,-0.17559999,2.6235087000000004,9.761438,-1.1156597,-1
235,236,1583237573403,0.30679998,0.2952,0.047599997000000005,2.5330652999999996,9.691432,-0.76315653,-1
236,237,1583237573413,0.22809999,0.2138,0.39589998,2.4880927,9.524546,-0.65674865,-1
237,238,1583237573424,0.1899,0.044099998,0.5009,2.384462,9.321039,-0.74224085,-1
238,239,1583237573434,0.10439999400000001,-0.1546,0.4154,2.2801228,9.170435000000001,-0.92556965,-1
239,240,1583237573444,0.0202,-0.3136,0.24839999,2.2109783,9.135555,-1.134976,-1
240,241,1583237573454,-0.0446,-0.3543,0.046699997,2.0503752,9.092814,-1.2776608,-1
241,242,1583237573465,-0.32459998,-0.37629998,-0.2504,1.8809519000000001,9.121133,-1.4783334,-1
242,243,1583237573475,-0.3448,-0.38729998,-0.36069998,1.8935548999999998,9.084511000000001,-1.5922111,-1
243,244,1583237573485,-0.2683,-0.4671,-0.4842,1.9483726000000003,9.012972999999999,-1.7454592,-1
244,245,1583237573496,-0.2897,-0.5962,-0.6297,1.875359,8.865575,-1.8640966,-1
245,246,1583237573506,-0.44689998,-0.8142,-0.5708,1.7248403,8.620917,-1.7649192999999999,-1
246,247,1583237573517,-0.622,-1.1402,-0.4227,1.491827,8.292644000000001,-1.6485994,-1
247,248,1583237573526,-0.8842,-1.4562,-0.42749998,1.2641002000000001,7.9752293000000005,-1.6830089,-1
248,249,1583237573536,-0.9302,-1.8893,-0.50519997,1.194879,7.4227724,-1.7550552,-1
249,250,1583237573546,-1.0052999,-2.3709,-0.5692,1.0870633,7.034787,-1.8604288,-1
250,251,1583237573557,-1.2372999,-2.9603,-0.7412,0.82609534,6.361241000000001,-2.0383563000000002,-1
251,252,1583237573567,-1.6278,-3.9327998,-0.8617,0.29504228,5.096039299999999,-2.2094840000000002,-1
252,253,1583237573578,-2.1016998,-5.2496,-1.0672,-0.15243404,3.6281254,-2.4313693,-1
253,254,1583237573588,-2.5249,-6.9108996,-1.2965,-0.74541074,1.8769487,-2.5752606,-1
254,255,1583237573598,-3.4477,-8.7206,-1.3671,-1.8382009999999998,0.047587153,-2.4709885,-1
255,256,1583237573609,-4.6563,-10.4619,-1.2796,-2.9636099999999996,-1.5548520000000001,-2.2434149,-1
256,257,1583237573619,-5.8213,-11.7499,-0.99619997,-4.096565200000001,-2.5899706,-1.7225993999999998,-1
257,258,1583237573629,-6.969599700000001,-12.5138,-0.3712,-5.361202,-3.4235743999999997,-0.7504769,-1
258,259,1583237573639,-7.9835,-13.0856,0.3384,-6.1245403,-3.8280413,-0.08685206,-1
259,260,1583237573650,-8.670899,-13.4835,0.7263,-6.48459,-4.286531,0.092310846,-1
260,261,1583237573660,-9.0278,-13.962,0.6252,-6.837524,-4.854895,-0.23734201,-1
261,262,1583237573671,-9.6861,-14.589,0.093899995,-7.7215114,-5.660908,-0.9634746999999999,-1
262,263,1583237573681,-10.619599000000001,-15.186399,-0.6185,-8.242278,-6.398293499999999,-1.4550041999999999,-1
263,264,1583237573691,-11.146999000000001,-15.848598999999998,-1.1654999,-7.79712,-6.8535843,-1.6454389999999999,-1
264,265,1583237573701,-10.822000000000001,-16.1779,-1.4755,-7.015863400000001,-6.996164,-1.7723891999999999,-1
265,266,1583237573712,-9.9271,-16.1799,-1.8582,-5.262359,-7.013938400000001,-2.0171723000000004,-1
266,267,1583237573721,-8.6730995,-16.057000000000002,-2.195,-3.4931687999999994,-6.9581729999999995,-1.6589711,-1
267,268,1583237573731,-7.1703,-15.7969,-1.926,-1.1609676000000002,-6.554309,-0.7163643,-1
268,269,1583237573741,-5.0695,-15.210099,-1.1187999,1.5331126,-6.4668922,0.3965181,-1
269,270,1583237573752,-2.7445998,-14.942499,-0.2839,3.6687407,-6.352229,1.6388886000000003,-1
270,271,1583237573762,-0.3531,-14.4539995,1.2742,7.0092362999999995,-5.7812886,4.0478287,-1
271,272,1583237573772,2.0318,-13.545898999999999,2.9851,9.389313000000001,-4.6434107000000004,6.6779747,-1
272,273,1583237573783,3.9246,-11.9697,5.455,11.898166999999999,-2.9246612,10.154154,-1
273,274,1583237573793,6.2215,-9.7803,8.6965,15.326032999999999,-0.9001145,14.473294000000001,-1
274,275,1583237573803,8.769199,-7.7138,11.892099,19.328745,1.1259165,16.305039999999998,-1
275,276,1583237573813,12.4683,-5.2627997,13.3792,23.662567000000003,4.174875,16.292513,-1
276,277,1583237573824,16.5313,-1.7603999,13.0615,27.804985,6.7524630000000005,15.138335999999999,-1
277,278,1583237573835,20.4326,1.2813,11.637899,30.35115,8.823495,13.829417000000001,-1
278,279,1583237573845,23.9848,6.2555,8.7544,31.55351,11.040832,12.694604,-1
279,280,1583237573855,21.610699,7.0513,9.0125,28.608441999999997,11.38667,13.218646,-1
280,281,1583237573865,17.3298,6.8999,9.0078,24.341438,10.649218,13.393317000000001,-1
281,282,1583237573876,13.5366,5.6770997,9.0469,20.728884,9.202775,13.735142999999999,-1
282,283,1583237573886,10.7119,5.1695,9.2951,18.096994,8.621357000000001,14.173014000000002,-1
283,284,1583237573896,9.1641,5.2827,9.3672,16.8092,8.529027000000001,14.418945,-1
284,285,1583237573906,8.8716,5.4740996,9.0126,16.68522,8.548832,13.948006,-1
285,286,1583237573916,8.9696,5.8719997,7.085,16.699087,8.76726,11.841281,-1
286,287,1583237573927,8.5223,5.9719996,4.4358997,15.960859,8.587351,8.852101,-1
287,288,1583237573937,7.4976997,5.7152,2.3113,14.7824335,8.052275,7.063134,-1
288,289,1583237573947,6.2956,5.1449,0.94659996,13.684154999999999,7.3425283,6.2148595,-1
289,290,1583237573957,5.4557,4.5473,0.7481,12.974476,6.6455283,6.5273986,-1
290,291,1583237573968,4.9010997000000005,4.0984,1.6592,12.529738,6.235392,7.539044400000001,-1
291,292,1583237573978,4.2349,3.5907,3.1355,11.726206,5.4949417,9.269995,-1
292,293,1583237573988,3.5203998,3.2489998,4.0295997,11.044491,5.2512407,9.662107,-1
293,294,1583237573999,2.9610000000000003,3.2470999,3.596,10.674434,5.2442402999999995,8.678982000000001,-1
294,295,1583237574009,2.8091998,3.3500997999999997,2.1892,10.644591,5.2356596,7.027690400000001,-1
295,296,1583237574019,2.7510000000000003,3.3442,0.978,10.480597999999999,5.157637,6.1417980000000005,-1
296,297,1583237574029,2.513,3.2732,0.34149998,10.150947,4.94486,5.7808766,-1
297,298,1583237574040,2.2256,3.0749998,0.0064999997,9.878275,4.656875599999999,5.547643,-1
298,299,1583237574050,2.0056998999999998,2.8408,-0.2456,9.744917999999998,4.481849700000001,5.358156,-1
299,300,1583237574060,1.8827,2.7131998999999998,-0.4495,9.513179,4.230631,5.1484723,-1
300,301,1583237574070,1.6798999,2.5554,-0.635,9.480857,4.1962980000000005,4.9510365,-1
301,302,1583237574081,1.6673,2.5693998,-0.84029996,9.577342999999999,4.1196356,4.842656,-1
302,303,1583237574091,1.7810999,2.5149999,-0.8479,9.679652,3.9840186,5.2065363,-1
303,304,1583237574101,1.8389,2.366,-0.3797,9.617077,3.6703975,5.7206,-1
304,305,1583237574111,1.7451999,2.0722,0.090399995,9.488633,3.3634129,6.06073,-1
305,306,1583237574121,1.6283,1.7874,0.3954,9.441966,3.1004338,6.2312449999999995,-1
306,307,1583237574131,1.6127,1.5769999,0.5207,9.437455,2.8857217,6.270951,-1
307,308,1583237574142,1.5751,1.3779,0.524,9.271028999999999,2.6676292,6.245438,d
308,309,1583237574152,1.3938999,1.1779,0.529,9.211538000000001,2.6222255000000003,6.3616333,-1
309,310,1583237574162,1.3529999,1.1459,0.7022,9.206012,2.5668428,6.622275999999999,-1
310,311,1583237574172,1.3269,1.0591,0.9917,9.0514145,2.413662,6.832257000000001,-1
311,312,1583237574183,1.133,0.91859996,1.2154,9.037556,2.360252,6.928427,-1
312,313,1583237574193,1.1481,0.86439997,1.308,9.031704,2.2805347,6.9379272,-1
313,314,1583237574204,1.1202999,0.7721,1.3232,9.091310499999999,2.3622822999999995,6.9984527000000005,-1
314,315,1583237574214,1.1791999,0.8401,1.375,9.543661,2.745594,6.926732,-1
315,316,1583237574224,1.6369999999999998,1.2155,1.3084999,10.262774,3.216955,6.531871,-1
316,317,1583237574234,2.3641,1.6796,0.9023,10.755951,3.652211,6.386581,-1
317,318,1583237574245,3.2760000000000002,2.4988,0.927,11.224229,4.1169925,6.6749387,-1
318,319,1583237574255,3.5967998999999997,2.7147,1.3504,11.466396000000001,4.347162,7.130105,-1
319,320,1583237574265,3.5967998999999997,2.7147,1.3504,11.586596,4.5211916,7.4613190000000005,-1
320,321,1583237574275,4.3447,3.3474,2.0008,12.291841,5.1283994,7.8099623,-1
321,322,1583237574285,5.3451,4.1419997,2.3876,13.368695,6.0167345999999995,8.277358,-1
322,323,1583237574296,6.8914,5.1577,2.807,14.918835999999999,7.046289,8.738549,-1
323,324,1583237574306,8.382,6.0042995999999995,3.2856,16.254522,7.86751,9.340404,-1
324,325,1583237574316,8.382,6.0042995999999995,3.2856,16.823635,8.147325,10.2667675,-1
325,326,1583237574326,9.3743,6.3223996,5.9164,16.926382,8.1909,12.226536999999999,-1
326,327,1583237574336,9.1827,5.936899700000001,7.6755996,16.608942000000003,7.9008270000000005,13.995584,-1
327,328,1583237574346,8.655499,5.4588,9.319099000000001,16.050623,7.539935000000001,15.639520000000001,-1
328,329,1583237574356,8.4321995,4.8582997,10.7972,15.74632,7.0517664,17.196726,-1
329,330,1583237574367,8.245,4.2673,11.4711,15.468669,6.617813000000001,17.49021,-1
330,331,1583237574377,7.8935,3.5405,11.2155,14.935402999999999,6.116601,16.827645999999998,-1
331,332,1583237574387,7.3265,2.7538998,10.137,14.261944,5.618971299999999,15.528782000000001,-1
332,333,1583237574398,6.6906,1.9532,8.8375,13.675920000000001,5.2448816,14.421139000000002,-1
333,334,1583237574407,5.857,1.2329,7.7135997000000005,12.710184,4.853918599999999,13.205055999999999,-1
334,335,1583237574417,4.9432,0.502,6.6699,11.636711,4.4251842,11.726264,-1
335,336,1583237574427,4.2072,-0.1525,5.6247,10.837479,4.262876,10.50141,-1
336,337,1583237574438,3.4599,-0.5241,4.6345,9.929789,4.256479,9.3371,-1
337,338,1583237574448,2.4909,-0.9289,3.9726,9.043512,4.2184014,8.765335,-1
338,339,1583237574458,1.4963,-1.401,3.8801,7.7547809999999995,4.049275,8.46493,-1
339,340,1583237574468,0.57159996,-2.0174,3.9759,6.676125999999999,3.6709050000000003,8.275903999999999,-1
340,341,1583237574478,-0.2564,-2.8281,4.0113,6.0205936,3.1550024,7.976379,-1
341,342,1583237574489,-0.2863,-3.645,3.8548,5.9495625,2.6819367,7.183199,-1
342,343,1583237574499,-0.4118,-4.2215,3.3623,5.243474,2.4808334999999997,6.3348184000000005,-1
343,344,1583237574509,-1.1974,-4.6349998,2.8903,4.1983666,2.487135,5.451339,-1
344,345,1583237574519,-2.1295,-4.8789,2.2604,3.1611984,2.4683740000000003,4.4393,-1
345,346,1583237574530,-2.8774998,-5.0931,1.6762999,2.6730306,2.6313617000000002,3.9067147000000007,-1
346,347,1583237574540,-3.0572,-4.9302,1.3607999,2.8046252999999997,3.0182838,3.1212826000000002,-1
347,348,1583237574550,-2.1657999,-4.8636,0.83769995,4.435479,3.2956760000000003,1.7203201000000001,-1
348,349,1583237574561,-0.6358,-4.763499700000001,-0.1837,4.9286080000000005,3.2958004,0.51996315,-1
349,350,1583237574571,-0.23369999,-4.9835,-1.0353,4.6693063,2.9627097,-0.5034527,-1
350,351,1583237574581,-0.4227,-5.4814997000000005,-1.8935,3.8393992999999993,2.4183447,-1.5732586000000002,-1
351,352,1583237574591,-1.2293999,-6.1608,-2.6111999,2.8111951,1.9629868000000001,-1.9355493000000001,-1
352,353,1583237574601,-2.0874999,-6.7441998,-2.5779998,1.671804,1.4175781,-1.5573324,-1
353,354,1583237574612,-3.0976,-7.3968,-1.8931999,0.5549185000000001,0.886209,-1.0523281999999998,-1
354,355,1583237574622,-4.0106997,-7.9694996,-1.2032,-0.49267882,0.41789356,-0.56600845,-1
355,356,1583237574633,-4.6782,-8.4602995,-0.64059997,-1.0779174999999999,0.061952364,-0.2939888,-1
356,357,1583237574643,-5.1273,-8.8782,-0.2253,-0.9390825,0.098583646,0.10582372,-1
357,358,1583237574653,-4.8740997,-8.889299000000001,0.2717,-0.16183846,0.60576177,0.43205765,-1
358,359,1583237574663,-3.9979,-8.416699000000001,0.69089997,0.46417826,1.01925,0.5378718000000001,-1
359,360,1583237574673,-3.3248,-8.033299000000001,0.8872,0.5368854000000001,1.3806691,0.69745964,-1
360,361,1583237574684,-3.1787,-7.6942,1.1388999,0.57311445,1.7941285,0.69691384,-1
361,362,1583237574694,-3.0846,-7.3023996,1.2486,0.63768125,2.0479426,0.6504949999999999,-1
362,363,1583237574704,-3.0430999,-6.7423,1.097,0.5304785,2.4350947999999994,0.1653723,-1
363,364,1583237574714,-2.7087998,-6.5239997,0.5448,0.8061948,2.6478148,-0.54270804,-1
364,365,1583237574725,-2.6297998,-6.2619,0.079799995,0.7790253,2.9403669999999997,-1.0452796999999998,-1
365,366,1583237574735,-2.6689,-6.0256996,-0.076299995,0.7503811,3.1626925,-1.2654506,-1
366,367,1583237574745,-2.6689,-6.0256996,-0.076299995,0.85087055,3.575338,-1.4272124,-1
367,368,1583237574755,-2.4782999,-4.9441,-0.1419,0.9541851,4.2904,-1.4375266000000002,-1
368,369,1583237574766,-2.1,-4.4030000000000005,0.013999999499999999,1.4200681,4.814596,-1.3779683999999999,-1
369,370,1583237574776,-1.4754,-3.8681997999999997,0.0998,2.0324953000000003,5.312446,-1.3632776000000002,-1
370,371,1583237574786,-1.0715,-3.4290998,0.146,2.4278355,5.713580599999999,-1.3709582,-1
371,372,1583237574797,-0.77809995,-3.1949,0.17009999,2.6914754000000003,5.917423,-1.4576474,-1
372,373,1583237574807,-0.81,-2.9898999,0.1299,2.6672556,6.189902,-1.5365411,-1
373,374,1583237574817,-0.7757,-2.6674,0.14,2.6884202999999998,6.4405269999999994,-1.5504947,-1
374,375,1583237574827,-0.8624,-2.4427,0.1625,2.6482072,6.6963716,-1.6344161,-1
375,376,1583237574838,-0.82449996,-2.04,-0.050699997999999996,2.8362575,7.0897483999999995,-1.9880301999999999,-1
376,377,1583237574848,-0.5044,-1.6443,-0.4317,3.2639767999999996,7.4953164999999995,-2.5158272,-1
377,378,1583237574858,-0.2818,-1.3442,-0.7831,3.477664,7.769836,-2.9382122,-1
378,379,1583237574868,-0.0779,-1.0336,-1.1521,3.6563482000000005,7.974061,-3.236386,-1
379,380,1583237574879,0.0949,-0.75329995,-1.4029,3.8196902,8.184167,-3.4507246,-1
380,381,1583237574889,0.32439998,-0.5044,-1.3842,4.3124747,8.50003,-3.275852,-1
381,382,1583237574899,0.7693,-0.2478,-1.1315,4.673223,8.681797,-3.1375822999999996,-1
382,383,1583237574909,0.97209996,-0.0321,-0.9604,4.681497599999999,8.823812,-2.9718459,-1
383,384,1583237574920,0.7603,-0.0050999997,-0.8165,4.3600807,8.749897,-2.9649696,-1
384,385,1583237574930,0.37829998,-0.0479,-0.8825,4.0232167,8.7047615,-3.1392775,-1
385,386,1583237574940,0.0976,-0.109799996,-1.0495,3.9034777000000003,8.644706,-3.3715916,-1
386,387,1583237574950,0.12079999599999999,-0.121199995,-1.2019,4.1353607000000006,8.671531,-3.4915887999999997,-1
387,388,1583237574961,0.38689998,-0.0231,-1.3038,4.500773400000001,8.809915,-3.7025084,-1
388,389,1583237574971,0.7091,0.17379999,-1.4771999,4.854646,9.007657,-3.891593,-1
389,390,1583237574981,0.9906,0.34019998,-1.5605999,5.0896992999999995,9.1304035,-3.9721434,-1
390,391,1583237574992,1.1738,0.4547,-1.5969,5.153768,9.159267,-3.8348887,-1
391,392,1583237575001,1.1822,0.4964,-1.3907,5.066121,9.085172,-3.4855747000000004,-1
392,393,1583237575011,1.0569998999999999,0.4166,-0.99679995,4.880743,9.075441,-3.0815099999999997,-1
393,394,1583237575021,0.8178,0.43249997,-0.556,4.7077575,9.044815,-2.7529776000000004,-1
394,395,1583237575032,0.6709,0.3795,-0.3451,4.5434957,8.922683000000001,-2.7220638,-1
395,396,1583237575042,0.49899998,0.259,-0.3385,4.3628964,8.749485,-2.8070482999999995,-1
396,397,1583237575052,0.3209,0.081,-0.38959998,4.2141495,8.596611,-2.882188,-1
397,398,1583237575064,0.1933,-0.017099998999999998,-0.44399998,4.220269,8.636842999999999,-3.0007392999999998,-1
398,399,1583237575074,0.2007,0.022799998999999998,-0.49949998,4.375155,8.759905,-3.0103543,-1
399,400,1583237575084,0.3107,0.1415,-0.48439997,4.532817400000001,8.835811,-3.0327832999999997,-1
400,401,1583237575094,0.4948,0.2498,-0.4883,4.6091447,8.838778999999999,-2.9752936,-1
401,402,1583237575104,0.5607,0.2582,-0.42100000000000004,4.528469599999999,8.721991000000001,-2.900652,-1
402,403,1583237575114,0.46249998,0.1477,-0.33429998,4.39404,8.5924835,-2.8649497000000004,-1
403,404,1583237575124,0.32909998,0.0267,-0.2925,4.0929165,8.626251,-2.7587142000000004,-1
404,405,1583237575135,0.0223,0.0625,-0.1775,4.0395546,8.656007,-2.714661,-1
405,406,1583237575149,0.0166,0.22389999,-0.0806,4.080610299999999,8.781645,-2.7216327000000002,d
406,407,1583237575159,-0.0072999996999999995,0.2409,-0.1033,4.0298915,8.684153,-2.8080537,-1
407,408,1583237575169,-0.1006,0.0611,-0.2076,3.8600277999999997,8.475397000000001,-2.9464482999999997,-1
408,409,1583237575179,-0.3127,-0.079799995,-0.2859,3.7282796,8.414968,-2.9564847999999997,-1
409,410,1583237575189,-0.3698,-0.1718,-0.2983,3.7251095999999997,8.254432000000001,-2.9414876,-1
410,411,1583237575200,-0.41059998,-0.28239998,-0.1853,3.6764212,8.256587,-2.79162,-1
411,412,1583237575210,-0.4154,-0.12709999,-0.024799999,3.836622,8.507058,-2.7132912,-1
412,413,1583237575220,-0.050699997999999996,0.1971,-0.0288,4.3465295,8.853078,-2.772294,-1
413,414,1583237575230,0.3443,0.49359998,-0.1633,4.739418,9.155102000000001,-3.1558836,-1
414,415,1583237575241,0.579,0.7018,-0.51449996,4.654395,9.061823,-3.369676,-1
415,416,1583237575252,0.34289998,0.5053,-0.6921,4.171973,8.685302,-3.4774632000000003,-1
416,417,1583237575262,-0.071499996,0.1683,-0.6915,3.8314122999999998,8.354327,-3.4384758,-1
417,418,1583237575272,-0.36679998,-0.1607,-0.6164,3.7251095999999997,8.177741000000001,-3.3592467000000004,-1
418,419,1583237575283,-0.41149998,-0.25439999,-0.5282,3.803946,8.2873,-3.4180965,-1
419,420,1583237575293,-0.30609998,-0.14029999,-0.5919,3.9826300000000003,8.333067,-3.5318017,-1
420,421,1583237575303,-0.098,-0.0727,-0.7339,4.5295997,8.47465,-4.0315866,-1
421,422,1583237575313,0.3545,0.0569,-1.1520000000000001,4.906428,8.509749000000001,-4.535815,-1
422,423,1583237575324,0.7438,0.1108,-1.6135,5.285621599999999,8.361577,-5.241319,-1
423,424,1583237575334,1.1237,-0.020299999,-2.2739,5.5252523,8.022836,-6.305638,-1
424,425,1583237575344,1.3752999,-0.3475,-3.2658,5.5171980000000005,7.7942279999999995,-7.681116,-1
425,426,1583237575354,1.3951,-0.5686,-4.5829,5.406002,7.666454300000001,-8.990343,-1
426,427,1583237575364,1.2897999,-0.7883,-6.5197997,5.410436,7.5048647,-9.78313,-1
427,428,1583237575375,1.2897999,-0.7883,-6.5197997,5.532636,7.274734,-9.743663,-1
428,429,1583237575385,2.0842,-1.5769,-6.1299,6.2760453,6.702222999999999,-9.317793,-1
429,430,1583237575395,2.7259,-1.8054999,-5.9804,6.914961999999999,6.481171,-9.181944999999999,-1
430,431,1583237575405,3.6903,-2.0425,-5.944,7.8904266000000005,6.2647066,-9.320847500000001,-1
431,432,1583237575415,4.4639997000000005,-2.2484999,-6.751,8.521414,6.0665526,-10.322103,-1
432,433,1583237575425,4.9185,-2.4659,-8.0679,8.921380000000001,5.8232446,-11.730563,-1
433,434,1583237575435,5.2978997,-2.8163998,-9.3274,9.218605,5.4384193,-12.934914,-1
434,435,1583237575445,5.4177,-3.5009,-10.1758995,9.227109,4.733787,-13.71619,-1
435,436,1583237575455,5.319,-4.3069,-10.492,9.035936999999999,3.9381267999999996,-13.881848999999999,-1
436,437,1583237575465,5.0031,-5.1773,-10.1132,8.606034,3.1207175,-13.299120000000002,-1
437,438,1583237575475,5.0031,-5.1773,-10.1132,8.209363,2.6458898,-12.722902000000001,-1
438,439,1583237575485,3.6815998999999997,-6.9254,-8.0883,7.059208,1.5170621000000002,-11.015665,-1
439,440,1583237575496,2.8745,-7.7432,-6.7479,6.111276,0.7667765999999999,-9.547875,-1
440,441,1583237575506,1.9064,-8.5862,-5.3785,5.077374,0.044723686,-7.987526400000001,-1
441,442,1583237575516,1.2718999,-9.2741995,-3.9208998999999998,4.372339,-0.59818655,-6.401406,-1
442,443,1583237575526,0.5057,-10.1476,-2.7272,3.221207,-1.5623603000000001,-4.8647594000000005,-1
443,444,1583237575537,-0.5704,-11.0177,-1.7947999,2.0089745999999997,-2.226148,-3.7238936000000002,-1
444,445,1583237575547,-1.7356,-11.508699,-0.7758,0.8573923000000001,-2.459458,-2.5185757,-1
445,446,1583237575557,-2.415,-11.578,-0.0257,0.4311478,-2.3955138,-1.7624772000000002,-1
446,447,1583237575567,-2.4671,-11.5271,0.40289998,0.37849456,-2.2985198,-1.198748,-1
447,448,1583237575578,-2.4394999,-11.347199,1.0106,0.42669463,-2.0492356,-0.2959042,-1
448,449,1583237575587,-2.3899999,-11.3831,1.4588,0.4178361,-2.2689847999999997,0.41583455,-1
449,450,1583237575597,-2.6624,-11.9204,2.001,-0.16459657,-2.8086857999999997,1.2570995,-1
450,451,1583237575607,-3.6999998,-12.2329,2.9487,-1.3965954,-2.8932106,2.7653317000000004,-1
451,452,1583237575618,-5.1836,-12.2588,4.6493,-2.8074887000000004,-3.0008445,5.2496514,-1
452,453,1583237575628,-6.4097,-12.415299000000001,7.8724,-3.7643843,-3.101832,9.464921,-1
453,454,1583237575638,-7.371,-12.3355,12.375199,-4.5088944,-2.9712331,14.2673645,-1
454,455,1583237575648,-7.7653,-12.136,16.3984,-4.2818765999999995,-2.8662902999999997,17.991160999999998,-1
455,456,1583237575659,-6.9589,-11.974999,18.8251,-2.6606572,-2.5362544,20.090435,-1
456,457,1583237575669,-5.6289,-11.2759,19.597399,-1.3374202,-1.7686351999999999,20.282194,-1
457,458,1583237575679,-3.8474,-10.019299499999999,19.303998999999997,1.1597992,-0.43532333,19.805,-1
458,459,1583237575689,-2.3609998,-8.8508,18.7006,2.5707214,0.5804119000000001,19.774420000000003,-1
459,460,1583237575700,-0.9302,-7.3592,19.2208,3.8192306000000005,1.9696428,21.159292,-1
460,461,1583237575709,-0.7418,-6.2037997,20.4077,4.0550404,2.6776464,22.226879999999998,-1
461,462,1583237575719,-0.4982,-5.2918,21.2074,4.753793,3.3821449999999995,22.953518,-1
462,463,1583237575729,-0.2412,-4.5,21.3246,5.137497,4.2361665,22.899015,-1
463,464,1583237575739,-0.088199995,-3.4389999999999996,21.0374,5.8700943,4.8540235,22.842052,-1
464,465,1583237575749,0.7163,-2.822,21.022099,6.9368544000000005,5.1567464,23.047907000000002,-1
465,466,1583237575759,1.7246,-1.8817999,21.3953,8.178363000000001,6.390546,23.883944,-1
466,467,1583237575769,2.5217,-0.6890000000000001,22.096199,9.317879,6.834785000000001,24.490423,-1
467,468,1583237575779,3.4157,-0.33789998,22.219599,10.251876,6.7597119999999995,24.039204,-1
468,469,1583237575790,3.8911998,-0.2776,21.1962,10.450087,6.5652175,22.810623,-1
469,470,1583237575800,3.9775998999999995,-0.2762,19.7836,11.281881,6.344175,21.562565,-1
470,471,1583237575810,5.0327997,-0.2891,18.534399,12.686741,6.2954383,20.648602,-1
471,472,1583237575820,6.329,0.0307,17.5198,14.286670999999998,6.617047,19.731218,-1
472,473,1583237575831,8.1011,0.5833,16.2881,16.590315,6.8995724,18.329088,-1
473,474,1583237575841,10.155,0.93509996,14.4915,17.722282,6.9044275,16.778757000000002,-1
474,475,1583237575851,10.729000000000001,0.8109999999999999,12.4148,17.601807,5.954236,14.361207,-1
475,476,1583237575861,10.1648,0.012399998999999998,10.799399000000001,16.895986999999998,4.803966,13.308947,-1
476,477,1583237575872,9.5843,-1.0131999,9.651299,17.114388,4.042945,12.42356,-1
477,478,1583237575882,10.2443,-1.6653999,8.4551,19.449442,3.8203607,10.815873,-1
478,479,1583237575892,12.6226,-1.5259999,6.8522,21.839937,4.076444,8.806898,-1
479,480,1583237575902,14.7526,-1.2277,4.6928997,22.86501,3.8608034,6.779967299999999,-1
480,481,1583237575913,15.4913,-1.4912,2.6848,22.592798000000002,3.0679203999999998,5.2355065000000005,-1
481,482,1583237575923,14.9932995,-2.3328,1.1918,21.197342000000003,1.6787471999999999,3.79322,-1
482,483,1583237575933,13.776898999999998,-3.5082,-0.0094,20.109493,0.62271273,2.7591164,-1
483,484,1583237575944,12.682699000000001,-4.5678997,-1.033,20.931873,0.8816504000000001,0.09294291,-1
484,485,1583237575954,13.5092,-4.3306,-3.6912,22.024931,1.4046303,-2.7950392,-1
485,486,1583237575964,14.6689,-3.3404998999999997,-10.6977,21.920832,1.9502305,-7.5971470000000005,-1
486,487,1583237575975,13.496099,-3.3897,-13.1403,20.577370000000002,1.8415337999999999,-9.806516,-1
487,488,1583237575984,13.496099,-3.3897,-13.1403,19.355320000000003,1.5755378999999998,-10.206626,-1
488,489,1583237575994,11.9519,-3.7698,-13.798599,18.947176000000002,1.1941513000000001,-10.567547,-1
489,490,1583237576004,11.6672,-4.2191,-15.0489,19.119434,1.3190136000000001,-11.862829,-1
490,491,1583237576014,11.8967,-3.5916997999999998,-16.4641,19.364141,2.038088,-13.366674,-1
491,492,1583237576025,12.0478,-3.0837,-17.757,19.413376,2.4387627,-14.738591,-1
492,493,1583237576035,11.5863,-2.983,-18.9618,18.742126000000003,2.577684,-15.872110999999999,-1
493,494,1583237576045,9.9255,-3.1329,-19.0332,16.971079,2.416439,-15.813194000000001,-1
494,495,1583237576056,8.0777,-3.8039,-18.3562,15.126843,1.7069988,-15.087187,-1
495,496,1583237576066,6.5113997,-4.617,-17.3598,13.611717,0.9727163000000001,-14.10565,-1
496,497,1583237576076,5.4684,-5.155999700000001,-16.5254,12.531117,0.3885502,-13.28939,-1
497,498,1583237576086,5.4684,-5.155999700000001,-16.5254,12.235443,0.16580325,-13.015302,-1
498,499,1583237576096,4.9017,-5.6226,-15.764899,12.17961,0.212653,-12.405097,-1
499,500,1583237576106,4.744,-5.6033998,-14.8552,11.944825,0.18555063,-11.557003,-1
500,501,1583237576116,4.1489997,-5.8252997,-13.5664,11.299263,-0.113197856,-10.240221,-1
501,502,1583237576126,3.4229998999999998,-6.2391,-12.218599000000001,10.427093,-0.62280846,-8.635081,-1
502,503,1583237576136,3.4229998999999998,-6.2391,-12.218599000000001,10.056337,-0.82260936,-7.856075,-1
503,504,1583237576146,2.4236,-6.874399700000001,-9.9435,9.725389999999999,-1.1120875,-6.71564,-1
504,505,1583237576156,2.6079,-6.8943,-9.3131,10.010052,-1.130973,-6.0967097,-1
505,506,1583237576166,2.9617,-6.7643,-8.7865,10.383422999999999,-1.0424929,-5.379187,-1
506,507,1583237576176,3.0340998,-6.7022,-7.9483,10.3968115,-1.053238,-4.533239,-1
507,508,1583237576186,2.9619999999999997,-6.7282,-6.6289997000000005,10.344339,-1.1620306999999999,-3.1756403,-1
508,509,1583237576197,2.8414,-6.7654,-5.4481,10.231822,-1.2683427,-1.8576515,-1
509,510,1583237576207,2.6903,-6.6981997,-4.672,10.210006,-1.2348335,-1.1961144,-1
510,511,1583237576217,2.7733,-6.5948,-4.0455,10.513668,-1.1934329,-0.595936,-1
511,512,1583237576228,3.2605,-6.336,-3.4696998999999997,11.134915,-0.9734440999999999,-0.046935927,-1
512,513,1583237576237,3.8532998999999997,-5.9989,-2.8607,11.694325,-0.787022,0.5386571,-1
513,514,1583237576247,4.4477997,-5.6219,-1.6495,12.471847,-0.43155010000000005,2.2330432,-1
514,515,1583237576257,4.9669,-5.1877,0.1943,13.002201,-0.18868226,4.3157783,-1
515,516,1583237576268,5.3195996,-4.9182,2.4328,13.284669000000001,-0.061320294000000004,6.5216136,-1
516,517,1583237576278,5.4442997,-4.6745996,4.3984,13.441757,0.15539326,8.258205,-1
517,518,1583237576288,5.3027,-4.2471,5.6359997,13.225310999999998,0.4842321,9.049355,-1
518,519,1583237576298,4.7227,-3.8437,6.068,12.466550999999999,0.7362266,9.329553,-1
519,520,1583237576308,3.6102998,-3.6683,6.3080997000000005,11.392292,0.7932182,9.474393,-1
520,521,1583237576318,2.7015998,-3.4199,6.5297,10.711611,1.1038514,9.736271,-1
521,522,1583237576328,2.2015,-2.9141998,7.0867996,10.406666,1.5045356,10.515563,-1
522,523,1583237576339,2.0104,-2.5621998,8.1482,10.323855,1.6945009999999998,11.400039,-1
523,524,1583237576350,1.7727,-2.35,9.238299000000001,9.932077,1.8856254000000001,12.732766,-1
524,525,1583237576360,1.3684,-2.1362,10.0473995,9.688023,2.046784,13.460049,-1
525,526,1583237576370,1.2181,-1.8844,10.651199,9.617202,2.2389617000000004,13.607953,-1
526,527,1583237576380,0.9611,-1.6833999,10.4365,9.20785,2.4029262000000005,12.72953,-1
527,528,1583237576391,0.6199,-1.5030000000000001,9.7953,9.092307,2.6360352000000002,12.295221000000002,-1
528,529,1583237576401,0.52889997,-1.2397,9.462299,8.993253999999999,2.7780116,12.107459,-1
529,530,1583237576411,0.198,-1.0677,9.413099,8.155771000000001,2.9354446,12.193995,-1
530,531,1583237576421,-0.62759995,-0.8904,9.511499,7.6611294999999995,3.1349964,12.015215,-1
531,532,1583237576431,-1.1158999,-0.6177,9.0819,7.2443466,3.4467406000000005,10.893531,-1
532,533,1583237576441,-1.4347,-0.31599998,8.0267,7.2307863,3.7800230000000004,9.682228,-1
533,534,1583237576451,-1.4189,-0.0134,6.829,7.3098807,3.8481525999999997,8.9094095,-1
534,535,1583237576461,-1.236,0.113699995,5.9624996,7.8178344,4.016915,8.082452,-1
535,536,1583237576471,-0.7786,0.28079998,5.4584,8.327752,4.217798,8.066879,-1
536,537,1583237576482,-0.29029998,0.47649997,5.5586,8.57083,4.374723400000001,8.212409,-1
537,538,1583237576492,-0.1405,0.6681,5.6587,8.462909,4.522111,8.221822999999999,-1
538,539,1583237576502,-0.24939999,0.81399995,5.6397,8.47333,4.632358999999999,8.066189999999999,-1
539,540,1583237576513,-0.23600000000000002,0.904,5.4189997000000005,8.098713,4.5800790000000005,7.6374364,-1
540,541,1583237576523,-0.6015,0.8384,5.0421,7.567564,4.3229995,7.353407400000001,-1
541,542,1583237576533,-1.1219,0.56869996,4.7481,7.074952000000001,4.0269322,6.949362,-1
542,543,1583237576543,-1.6119,0.2563,4.3382998,6.7492160000000005,3.840558,6.4864573,-1
543,544,1583237576554,-1.925,0.0528,3.8672998,7.179991,4.0301313,6.083408,-1
544,545,1583237576564,-1.4842,0.2285,3.4501998,8.084002499999999,4.3860529999999995,5.78193,-1
545,546,1583237576574,-0.565,0.57769996,3.1183999,8.8762245,4.718703700000001,5.4870696,-1
546,547,1583237576584,0.22639999,0.9087,2.8049,8.842276,4.713082,5.0979257,-1
547,548,1583237576595,-0.2498,0.6304,2.2317998,8.237817,4.3680677,4.946621400000001,-1
548,549,1583237576605,-0.8303,0.17,2.3106,7.699178,3.9291148000000002,5.131464,-1
549,550,1583237576615,-0.8303,0.17,2.3106,7.3170156,3.6371756,5.402315,d
550,551,1583237576625,-1.4815999,-0.2488,2.5468,7.094565400000001,3.6609738,5.280575,-1
551,552,1583237576636,-1.2128,-0.0762,1.9447999,7.435998,3.8856742,4.6007266,-1
552,553,1583237576646,-0.6931,0.2472,1.0074999,7.962205,4.2351804,3.6943297,-1
553,554,1583237576656,-0.0401,0.5926,0.2649,8.626356,4.577685,2.9579022,-1
554,555,1583237576667,0.4445,0.81149995,-0.47379997,9.013641999999999,4.7666545,2.2762919999999998,-1
555,556,1583237576677,0.61649996,0.912,-0.73429996,9.180921000000001,4.8292294,2.2147324,-1
556,557,1583237576687,0.5159,0.73749995,-0.41200000000000003,8.893913000000001,4.559403,2.6751661,-1
557,558,1583237576697,0.083799995,0.40449998,0.113,8.416538000000001,4.235295,3.1743188,-1
558,559,1583237576708,-0.3482,0.11889999,0.49319997,8.012972,3.982678,3.5013382000000006,-1
559,560,1583237576717,-0.6938,-0.117199995,0.68189996,7.681719999999999,3.7896,3.599299,-1
560,561,1583237576727,-0.875,-0.2033,0.65779996,7.6713952999999995,3.7941105000000004,3.5187006000000003,-1
561,562,1583237576737,-0.657,-0.1366,0.4382,8.020135,3.9305513,3.217491,-1
562,563,1583237576748,-0.1379,0.102199994,-0.0157,8.593815,4.1617928,2.7089338,-1
563,564,1583237576757,0.47689998,0.29479998,-0.3787,9.190277,4.319523,2.4881884999999997,-1
564,565,1583237576767,0.98249996,0.3689,-0.48119998,9.580188,4.3433980000000005,2.3721461,-1
565,566,1583237576777,1.018,0.3205,-0.54969996,9.413455,4.2082787,2.3713610000000003,-1
566,567,1583237576788,0.61469996,0.070599996,-0.43159997,8.880727,3.916186,2.5532436,-1
567,568,1583237576798,0.0079,-0.221,-0.2096,8.315216,3.6608013999999995,2.7644314999999997,-1
568,569,1583237576808,-0.37199998,-0.3739,0.0266,8.071314,3.5873857000000005,3.0249496,-1
569,570,1583237576818,-0.41979998,-0.38459998,0.3182,8.085803,3.609403,3.2923148,-1
570,571,1583237576829,-0.40089998,-0.37219998,0.5031,8.136637,3.6841497000000003,3.4424884,-1
571,572,1583237576839,-0.2768,-0.1716,0.5561,8.464663,3.9669335,3.3270116,-1
572,573,1583237576849,0.1291,0.1083,0.2523,8.928716,4.205214499999999,2.8085997000000003,-1
573,574,1583237576860,0.5345,0.3188,-0.2447,9.131534,4.3829403,2.4665737,-1
574,575,1583237576870,0.648,0.41979998,-0.4226,9.090353,4.306642,2.5330367000000003,-1
575,576,1583237576880,0.4807,0.2545,-0.217,8.85529,4.110854,2.8246314999999997,-1
576,577,1583237576890,0.2478,0.0692,0.0782,8.682333,3.9435565,3.1819706,-1
577,578,1583237576900,0.14389999,-0.066599995,0.4764,8.593327,3.806072,3.646149,-1
578,579,1583237576910,0.049999997000000004,-0.1823,0.79469997,8.517708,3.7116830000000003,3.8377807,-1
579,580,1583237576921,0.044499997,-0.2491,0.956,8.768927,3.7822928,3.9093006,-1
580,581,1583237576931,0.3229,-0.14819999,0.99979997,9.029368,3.9102870000000003,3.9207256,-1
581,582,1583237576941,0.63119996,0.0015,0.99369997,9.328939,4.02539,4.1141195,-1
582,583,1583237576952,0.8721,0.091699995,1.2104,9.437838000000001,4.1194158,4.3954096,-1
583,584,1583237576962,0.93869996,0.1708,1.4618,9.358742999999999,4.129289,4.474888,-1
584,585,1583237576972,0.8807,0.1793,1.4333,9.35088,4.175306,4.2863774,-1
585,586,1583237576983,0.904,0.2355,1.2322,9.490528999999999,4.349948400000001,4.4822617,-1
586,587,1583237576993,1.0375,0.4006,1.4063,9.59145,4.5734324,4.985322,-1
587,588,1583237577003,1.1639999,0.6162,1.8462,9.704599,4.8450117,5.7409415,-1
588,589,1583237577013,1.3032,0.89199996,2.5424,9.893187,5.2066417000000005,6.6971664,-1
589,590,1583237577023,1.5135,1.2570000000000001,3.4385,10.218596,5.5537915,7.500439999999999,-1
590,591,1583237577033,1.9893999,1.7087,4.3749,11.236342,6.259056,8.749965,-1
591,592,1583237577043,2.9057999,2.3026,5.3694,12.145536,7.084625,9.326652000000001,-1
592,593,1583237577054,3.8423998,3.1102998,5.9065,12.742764,7.8772397,9.625103,-1
593,594,1583237577064,4.4597,3.8706,6.18,13.071288000000001,8.716972,10.003138,-1
594,595,1583237577074,5.1414,5.1621,6.9371,13.359779000000001,9.362602,10.517182,-1
595,596,1583237577084,5.1414,5.1621,6.9371,13.282723999999998,9.417075,10.9084425,-1
596,597,1583237577094,5.1440997,5.2056,7.3643,13.084800999999999,9.436075,11.770527000000001,-1
597,598,1583237577105,5.138499700000001,4.9182,9.0289,13.11469,9.288669,12.852707,-1
598,599,1583237577115,5.0367,4.6316,9.6212,12.827031,9.154316,13.392551000000001,-1
599,600,1583237577125,4.6879,4.263099700000001,9.6346,12.365229,8.87725,13.264203,-1
600,601,1583237577135,4.337,3.7623,8.8398,11.906375,8.597703,12.329124,-1
601,602,1583237577147,3.9141,3.2786998999999994,7.5048,11.317122999999999,8.18385,10.677566,-1
602,603,1583237577156,3.9141,3.2786998999999994,7.5048,11.147173,7.854437,9.790801,-1
603,604,1583237577166,3.5853,2.0632,5.499,10.795733,7.4615965,8.778091,-1
604,605,1583237577176,3.4843,1.4892,4.817199700000001,10.612642999999998,7.164936,8.12728,-1
605,606,1583237577186,3.3500997999999997,0.9903,4.0547,10.231745,6.914540299999999,7.026724000000001,-1
606,607,1583237577197,3.1032999,0.56729996,3.0971,9.763755999999999,6.664835000000001,5.840856,-1
607,608,1583237577207,2.5758,0.0841,2.0867,9.140382,6.5198803,4.986366,-1
608,609,1583237577217,1.9225999,-0.2004,1.4548,8.251578,6.4326067,4.080304,-1
609,610,1583237577228,1.5051,-0.5761,1.0028,7.714012599999999,6.303674,3.3661133999999997,-1
610,611,1583237577238,1.0888,-0.8639,0.313,7.133868700000001,6.244423,2.333322,-1
611,612,1583237577248,0.74369997,-1.2485,-0.67039996,6.729938000000001,6.0375442999999995,1.1603643,-1
612,613,1583237577258,0.35209998,-1.6302999,-1.8342999,5.901707,5.8768363,-0.6192842,-1
613,614,1583237577269,-0.1654,-1.9103999,-2.7488,5.36645,5.7423015,-1.2568793,-1
614,615,1583237577279,-0.5958,-2.2826998,-2.9282,4.9824777000000005,5.570196,-1.4542382,-1
615,616,1583237577289,-0.667,-2.4705,-2.6754,4.7846494,5.742694,-1.2180548999999998,-1
616,617,1583237577299,-0.47829998,-2.3657,-2.0605,5.1285143,5.8333673,-0.5618713000000001,-1
617,618,1583237577309,0.059000000000000004,-2.4510999,-1.1280999,5.1189375,5.8784833,0.22979549,-1
618,619,1583237577320,-0.2199,-2.4661999,-0.1197,4.366756,5.893441999999999,1.1039855,-1
619,620,1583237577330,-0.7755,-2.6980999,0.848,3.9668089999999996,5.610735,1.76558,-1
620,621,1583237577340,-0.91639996,-3.0279999,1.5065998999999999,3.8303397000000006,5.556655,1.92535,-1
621,622,1583237577350,-0.8012,-3.1027,1.6035999,4.048346,5.499606,1.6108763000000001,-1
622,623,1583237577361,-0.2732,-3.2747998,1.4340998999999999,4.666989,5.3804607,1.2406466,-1
623,624,1583237577371,0.41279998,-3.3479,1.2157999,5.084968,5.5194583,0.4458674,-1
624,625,1583237577381,0.8390000000000001,-3.2846,0.62549996,5.542472,5.4040870000000005,-0.47610137,-1
625,626,1583237577391,1.3877,-3.4882998,-0.056599997,5.7083416,5.3687487,-1.0134082,-1
626,627,1583237577401,1.5493,-3.4908,-0.32549998,5.6651125,5.448236,-1.123235,-1
627,628,1583237577412,1.6475999,-3.4903,-0.2341,5.767565,5.1445265,-0.8632151,-1
628,629,1583237577422,1.78,-3.8406,0.214,5.6107254,4.8285203,-0.31417674,-1
629,630,1583237577432,1.6739,-4.189,0.86429995,5.347124,4.479494,0.095959604,-1
630,631,1583237577443,1.507,-4.554199700000001,1.2810999,5.2025809999999995,4.207618,0.048247952000000004,-1
631,632,1583237577453,1.4753,-4.8269997,1.2484,5.3340034,4.0098476000000005,-0.54106086,-1
632,633,1583237577463,1.6662999,-4.9969,0.8454,5.3326535,3.865678,-1.1005473999999997,-1
633,634,1583237577474,1.7379999,-5.1524,0.4138,5.2344913,3.6346089999999998,-1.7084928,-1
634,635,1583237577483,1.7215999,-5.3831,-0.060999997,4.9516015,3.2874591,-2.5210752,-1
635,636,1583237577493,1.5099,-5.7384996,-0.7398,4.200033,2.762066,-3.4329214,-1
636,637,1583237577503,0.6235,-6.3571,-1.7330999,3.1141572,2.4376612,-4.5472302,-1
637,638,1583237577513,-0.175,-6.5813,-2.4945,2.517321,2.633555,-5.2004647,-1
638,639,1583237577524,-0.7127,-6.391,-3.0354997999999997,2.1293359,3.0156217,-5.322415400000001,-1
639,640,1583237577534,-1.0286,-6.0027,-3.0245,1.9667505,3.2311857,-5.241453599999999,-1
640,641,1583237577544,-1.1208,-5.7702,-2.8429,1.9873310000000002,3.4630212999999994,-5.098337,-1
641,642,1583237577554,-1.0695,-5.2471,-2.1202,1.8430755,3.8013410000000003,-4.6388135,-1
642,643,1583237577564,-1.3152,-5.1171,-1.8317,1.5204521,3.8587922999999997,-4.4618535,-1
643,644,1583237577575,-1.3152,-5.1171,-1.8317,1.0408744,3.693171,-4.274885,-1
644,645,1583237577585,-2.2152998,-5.2462,-1.3300999,0.6301539,3.784304,-4.010872,-1
645,646,1583237577595,-2.1649,-5.0681996,-1.2250999,0.72639126,3.9572802000000005,-3.9539187000000005,-1
646,647,1583237577605,-2.0226,-4.7966,-1.2566,0.8313434999999999,4.2576375,-4.094698,-1
647,648,1583237577615,-1.9418999,-4.421,-1.8309,0.9763267,4.699492,-4.939515599999999,-1
648,649,1583237577626,-1.9418999,-4.421,-1.8309,1.3167248,5.1315885,-5.5795817,-1
649,650,1583237577636,-0.6436,-3.0688,-3.1002998,2.3986263,6.0503583,-6.07544,-1
650,651,1583237577646,-0.1933,-2.5435998,-3.0353,2.6574202000000002,6.4657335,-5.885168,-1
651,652,1583237577656,-0.2058,-2.3109,-2.5654,2.6413887000000003,6.6600847000000005,-5.412591,-1
652,653,1583237577667,-0.20089999,-2.1833,-1.7069,2.5049957999999997,6.731087,-4.271715,-1
653,654,1583237577677,-0.7062,-2.1578,-0.6448,1.9542528000000001,6.8008256,-3.2272974999999997,-1
654,655,1583237577687,-1.0742999,-2.0732,0.2412,1.764632,6.870592599999999,-2.4487702999999996,-1
655,656,1583237577700,-1.0825,-2.0037,0.7653,1.8495974999999998,6.9731317,-2.1627016,-1
656,657,1583237577710,-1.0825,-2.0037,0.7653,2.176837,7.455956,-3.3574848,-1
657,658,1583237577721,-0.6534,-1.3558999,-0.5973,2.7188938,8.015424000000001,-4.2629623,-1
658,659,1583237577731,-0.084,-0.7382,-1.3615999,3.2659497,8.524028999999999,-4.531141799999999,-1
659,660,1583237577741,0.41059998,-0.2689,-1.4986,3.4477269999999995,8.714032000000001,-4.371841000000001,d
660,661,1583237577751,0.43629998,-0.1426,-1.2512,2.9962957,8.658602,-3.6469343000000003,-1
661,662,1583237577762,-0.1033,-0.2385,-0.44079998,2.5996148999999997,8.444386999999999,-2.6713066000000003,-1
662,663,1583237577772,-0.43629998,-0.4651,0.49809998,2.4965491,8.323596,-1.9389395,-1
663,664,1583237577782,-0.565,-0.52279997,1.0981,2.5547378,8.515102,-1.8854817,-1
664,665,1583237577792,-0.43039998,-0.2807,1.0071,2.9271607000000004,8.770458999999999,-2.4213617000000003,-1
665,666,1583237577803,-0.0716,-0.0022,0.44509998,3.1792027999999997,9.094108,-2.9689825,-1
666,667,1583237577813,0.1116,0.3293,-0.0453,3.2804297999999994,9.277781,-3.3886287000000004,-1
667,668,1583237577823,0.1582,0.4754,-0.3373,3.2913474999999996,9.276181,-3.4791772000000005,-1
668,669,1583237577833,0.15609999,0.47289997,-0.4082,3.3479080000000003,9.144749000000001,-3.3133357000000005,-1
669,670,1583237577843,0.1827,0.3701,-0.2122,3.4183742999999995,8.984012,-3.0406935,-1
670,671,1583237577854,0.22749999,0.2358,0.0642,3.6046142999999997,9.064027000000001,-2.9500206,-1
671,672,1583237577864,0.39819998,0.3166,0.16059999,3.7767477,9.115482,-3.1634395,-1
672,673,1583237577874,0.53999996,0.3786,-0.044299997,3.8153233999999996,9.172827999999999,-3.3836197999999995,-1
673,674,1583237577885,0.3542,0.4567,-0.5038,3.6014538000000003,9.116344,-3.6735387000000004,-1
674,675,1583237577895,0.22209999,0.2557,-0.4782,3.4783633000000003,8.898577000000001,-3.6445785,-1
675,676,1583237577905,0.0808,0.0547,-0.325,3.3845199999999998,8.704341000000001,-3.5327593999999998,-1
676,677,1583237577915,0.23249999,-0.1258,-0.3475,3.6426248999999995,8.49276,-3.6190752999999996,-1
677,678,1583237577926,0.5689,-0.2653,-0.5927,3.9035830000000002,8.366931,-3.9343343,-1
678,679,1583237577936,0.4161,-0.0502,-1.0785999,3.7477684,8.642206,-4.524907,-1
679,680,1583237577946,0.29459998,0.1853,-1.786,3.5201086999999998,8.78673,-5.416737599999999,-1
680,681,1583237577956,-0.1943,0.16569999,-2.4698,3.0304081000000003,8.728953,-5.996422,-1
681,682,1583237577966,-0.7439,0.0369,-2.8362,2.595171,8.543795,-6.241722,-1
682,683,1583237577976,-0.5305,-0.2496,-2.4817,2.9357509999999998,8.239635,-5.894093499999999,-1
683,684,1583237577986,0.070199996,-0.515,-2.1589,3.5682129999999996,7.9582690000000005,-5.697453,-1
684,685,1583237577996,0.7511,-0.7377,-2.2881,4.406116,7.7301397,-6.1996703,-1
685,686,1583237578006,1.5461999,-0.72069997,-3.2649999,5.0665135,7.7578745,-7.3753767,-1
686,687,1583237578016,2.1195,-0.6823,-4.7255,5.642558599999999,7.721099400000001,-9.096281,-1
687,688,1583237578026,2.5995998,-0.7351,-6.1984,6.0251427,7.668647,-10.286850999999999,-1
688,689,1583237578036,2.855,-0.8246,-7.2265997,6.140524,7.4548163,-11.233450999999999,-1
689,690,1583237578046,2.7868,-1.2681999,-7.3876995999999995,6.183227,6.81906,-11.147144,-1
690,691,1583237578057,2.9580998,-2.1037,-7.0183,6.2284102,5.978877,-10.775286999999999,-1
691,692,1583237578068,2.8892999,-2.9162,-6.7974,6.100072,5.135917,-10.696805,-1
692,693,1583237578078,2.9391,-3.7712998,-6.8308,6.249575,4.3652425,-10.886426,-1
693,694,1583237578088,3.3044,-4.3736997,-7.2704997,6.5271306,3.8825238,-11.456705,-1
694,695,1583237578098,3.4984998999999997,-4.7636,-7.9957,6.693719000000001,3.5764394,-12.310306,-1
695,696,1583237578108,3.7454998,-4.9723,-8.9435,6.914311,3.4749347999999998,-13.258801,-1
696,697,1583237578119,3.9415,-5.0910997,-9.5583,7.032133999999999,3.2354857999999997,-13.468620000000001,-1
697,698,1583237578129,3.9949,-5.5154,-9.538799000000001,6.659146300000001,2.657851,-13.092894,-1
698,699,1583237578139,3.4103,-6.2079,-9.103,6.0051365,2.1142142,-12.501161999999999,-1
699,700,1583237578149,2.7073,-6.9315,-8.2202,5.266411,1.3709391000000002,-11.035192,-1
700,701,1583237578159,2.2935998,-7.6629996,-6.9175997,4.703036,0.6696965,-9.415045,-1
701,702,1583237578170,1.5977,-8.3399,-5.3185997,3.7860086,0.26957753,-7.627859599999999,-1
702,703,1583237578180,0.83269995,-8.762,-3.7993998999999996,3.101602,-0.11700942,-6.087181,-1
703,704,1583237578190,0.1413,-9.2886,-2.4428,1.9154859,-0.6398361,-4.383678,-1
704,705,1583237578200,-1.2451999,-9.841499,-0.79289997,0.4856303,-1.0010349,-2.6117387,-1
705,706,1583237578210,-2.4341,-10.1754,0.73829997,-0.5308041,-1.1522335,-0.70629907,-1
706,707,1583237578220,-3.4829998,-10.299000000000001,2.7119,-1.8139526000000001,-0.9098350000000001,2.143002,-1
707,708,1583237578231,-4.7816997,-9.946099,5.766,-2.8182150000000004,-0.38573462,5.911341,-1
708,709,1583237578241,-5.4954,-9.4359,9.392799,-3.0594642000000003,0.1405205,9.60525,-1
709,710,1583237578251,-5.6909,-9.0088,12.3982,-3.3177410000000003,0.7040677,12.457462,-1
710,711,1583237578261,-6.0147,-8.5355,14.1398,-3.2668214,1.0381067,13.422737,-1
711,712,1583237578271,-5.9396,-8.2221,14.7195,-2.781143,1.5628104,13.842920000000001,-1
712,713,1583237578282,-5.3715997,-7.2941,15.1126995,-1.7501134999999999,3.1091392000000004,15.110544,-1
713,714,1583237578292,-4.5536,-5.8806,16.26,-0.07080133,5.206421400000001,17.650907999999998,-1
714,715,1583237578302,-3.2853,-4.0418997,18.268099,0.6643048,6.5352798,19.84367,-1
715,716,1583237578312,-2.5967999,-2.3391,20.772299,1.4780365,7.897188000000001,21.909214000000002,-1
716,717,1583237578322,-1.9598,-1.0289999,22.422698999999998,2.4471328,8.738261999999999,22.682917,-1
717,718,1583237578333,-1.1247,-0.1821,22.7764,3.7701303999999998,9.335519999999999,22.450354,-1
718,719,1583237578343,0.069299996,0.4728,22.3023,5.0088425,10.009688,21.75815,-1
719,720,1583237578354,0.87,1.1096,21.618599,5.165289,10.686357000000001,21.168612,-1
720,721,1583237578364,0.8488,2.0693,20.8625,5.150233999999999,11.765394,21.418022,-1
721,722,1583237578374,0.6979,3.0200999,21.095999,5.9681706,11.729405,22.173182,-1
722,723,1583237578385,1.0991,3.1081998,21.685999,6.834172200000001,11.614875999999999,21.973112,-1
723,724,1583237578395,3.5935,2.7882,20.249199,8.961613,11.137127,20.181463,-1
724,725,1583237578405,4.8191,2.3395,17.822198999999998,10.097142999999999,10.594706,17.556164000000003,-1
725,726,1583237578415,5.4653,1.9952999,15.2322,10.747964,10.315935000000001,15.280408,-1
726,727,1583237578426,5.9705997,2.0029,12.7879,11.399713499999999,10.266021,12.819388,-1
727,728,1583237578436,6.821399700000001,2.3054,10.1451,12.432457000000001,10.577699,10.133027,-1
728,729,1583237578446,7.7124,2.6966,7.6528997,13.425563,10.827883,7.6652284,-1
729,730,1583237578456,8.696899,2.7224998,5.3276997,14.512616,10.684202,5.2480807,-1
730,731,1583237578467,9.0847,2.0753,3.092,14.885653,9.558036,2.722265,-1
731,732,1583237578477,9.2724,0.8997,1.5353999,15.260554999999998,8.337099,1.0077674,-1
732,733,1583237578487,9.625,-0.0634,-0.6483,15.710656,7.605229400000001,-1.7868406000000003,-1
733,734,1583237578497,10.154699,-0.2796,-3.9062997999999998,16.644892000000002,7.603764,-5.260032,-1
734,735,1583237578508,11.5631,0.1073,-7.3851,18.202379999999998,7.9894605,-8.782468,-1
735,736,1583237578517,12.5897,0.49629998,-10.6338,18.782063,8.136809,-11.9334,-1
736,737,1583237578528,12.2953,0.28939998,-13.1717,18.127123,7.5391784,-14.120514000000002,-1
737,738,1583237578537,12.2953,0.28939998,-13.1717,17.52348,6.908583999999999,-15.018951999999999,-1
738,739,1583237578548,10.624599,-1.4684,-15.9373,16.772417,5.744073,-16.814297,-1
739,740,1583237578558,10.1708,-2.2194,-16.661499,16.3761,4.9092627,-17.562963,-1
740,741,1583237578568,9.8522,-2.8876998,-17.226098999999998,16.038681,4.378516,-18.056992,-1
741,742,1583237578578,9.4733,-3.4243,-17.876998999999998,15.661995999999998,3.7041937999999996,-19.061485,-1
742,743,1583237578589,8.6149,-4.1447,-18.6283,14.249857,2.9158216,-19.883032,-1
743,744,1583237578599,7.4371996,-4.7086997,-19.2299,13.260391,2.4770220000000003,-20.468184,-1
744,745,1583237578611,6.5246,-5.1526,-19.5975,12.137692,1.7062038,-21.042467000000002,-1
745,746,1583237578621,5.6896996,-5.8392,-19.9917,11.478205,1.2385302,-21.477903,-1
746,747,1583237578631,5.0773,-6.2472,-20.3461,10.875604,1.0822557,-21.847837,-1
747,748,1583237578641,4.4498,-6.4251,-20.5682,10.0240345,0.8238161,-21.524553,-1
748,749,1583237578651,3.6892,-6.7079,-20.000398999999998,9.431345,0.62889934,-20.624651,-1
749,750,1583237578661,2.9498,-7.0365,-18.5144,8.615353,0.1377911,-17.718672,-1
750,751,1583237578671,2.4545,-7.5270996,-15.7892,8.570112,-0.25772142,-15.131785999999998,-1
751,752,1583237578681,2.5137,-7.9005,-13.424000000000001,8.743730000000001,-0.34901714,-13.550339000000001,-1
752,753,1583237578691,2.7437,-7.9859995999999995,-12.0893,9.025260000000001,-0.51550037,-12.424346,-1
753,754,1583237578702,3.0693,-8.2351,-11.0166,9.327819,-0.74605244,-11.582104,-1
754,755,1583237578711,3.5128,-8.531199,-10.0224,9.654082,-1.0861822,-10.071191,-1
755,756,1583237578721,3.6924,-8.885799,-8.6406,9.404060000000001,-1.567005,-8.183342999999999,-1
756,757,1583237578731,3.3917,-9.437099,-6.6977997,9.025585000000001,-2.1127586,-5.894448000000001,-1
757,758,1583237578741,3.0958997999999998,-9.977099,-4.4627,8.907722999999999,-2.466133,-3.5920591,-1
758,759,1583237578752,3.0534,-10.3047,-2.2245,8.941117,-2.608071,-1.197235,-1
759,760,1583237578762,3.0853,-10.436299,0.0242,8.898328,-2.5997775,0.7372991999999999,-1
760,761,1583237578772,2.9873,-10.4298,1.7586,8.727545,-2.5811889999999997,2.5538950000000002,-1
761,762,1583237578782,2.7914999,-10.3647995,3.3839998,8.272789999999999,-2.3756802,3.9093387,-1
762,763,1583237578792,2.1868,-10.095799000000001,4.5357,7.196434,-1.9641073,4.798191,-1
763,764,1583237578803,0.9686,-9.663899,5.3108997,5.6443305,-1.4918559,6.140936,-1
764,765,1583237578813,-0.3461,-9.2441,6.4126997,4.580328,-1.1973785,7.4468102,-1
765,766,1583237578823,-1.4669,-8.9222,7.6309,3.6652739999999997,-1.3709773,8.750683,-1
766,767,1583237578834,-2.6028,-9.3384,10.6649,3.6625733,-1.8208766,11.199577,-1
767,768,1583237578845,-2.1404,-9.5321,13.4156,4.2625985,-2.0190592,14.224095000000002,-1
768,769,1583237578855,-2.1404,-9.5321,13.4156,4.539665,-1.716451,16.78913,-1
769,770,1583237578865,-2.2264,-8.401999,18.9734,4.1831107,-0.94956917,19.733059,-1
770,771,1583237578875,-2.9464998,-7.522599700000001,20.2482,3.6052847000000003,-0.15618815,20.817518,-1
771,772,1583237578885,-3.4708,-6.4417,20.2121,3.3215046000000004,0.8388421,20.671394,-1
772,773,1583237578896,-3.4469,-5.2931,19.704199,3.6211152,1.7963023999999999,20.292257,-1
773,774,1583237578906,-2.7733,-4.2731,19.4305,4.5415325,2.5817444,20.187641,-1
774,775,1583237578916,-1.9139999,-3.612,19.2283,5.581009,3.0153341,20.081692,-1
775,776,1583237578926,-1.03,-2.8565,18.706,6.5668163,3.6333447,19.625397,-1
776,777,1583237578936,-0.4913,-2.0527,17.9805,7.196309599999999,4.2403035000000004,18.821776999999997,-1
777,778,1583237578947,-0.4447,-1.5461999,17.189498999999998,7.293572,4.470415,18.131173999999998,-1
778,779,1583237578957,-0.4017,-1.1962,16.3793,7.709415400000001,4.6380669999999995,17.248768,-1
779,780,1583237578968,0.3908,-0.7219,15.110498999999999,8.920231,5.0115620000000005,15.986495999999999,-1
780,781,1583237578977,1.6401999,-0.1398,13.9256,10.368847,5.322875499999999,15.105535999999999,-1
781,782,1583237578987,3.1444,0.312,13.1636,11.910607,5.505994,14.676064000000002,-1
782,783,1583237578997,4.3191,0.6969,12.7982,13.136075,5.7818246,14.550292,-1
783,784,1583237579007,5.1689,1.2743,12.5126,13.576004999999999,6.0292699999999995,14.348988,-1
784,785,1583237579018,4.9913,1.6072999,11.788799000000001,13.361713,6.156776,13.631148000000001,-1
785,786,1583237579028,4.7647,1.9661,10.724199,13.208888,6.3393383000000005,12.807628999999999,-1
786,787,1583237579038,4.598799700000001,2.2196,9.7801,13.091130999999999,6.245496,12.096110000000001,-1
787,788,1583237579048,4.604,2.0698,8.9073,13.271846,5.9408956,11.390922,-1
788,789,1583237579059,5.0042995999999995,1.9494,7.9417995999999995,13.868806,5.650392500000001,9.982299000000001,-1
789,790,1583237579069,5.4614,1.7940999,6.4154,14.109031,5.262647,8.736652000000001,-1
790,791,1583237579079,5.5192,1.4103,5.2995996,14.092635000000001,4.7362003,7.843405000000001,-1
791,792,1583237579090,5.4914,1.0268999,4.1891,13.918366,4.2322783,6.9318366,-1
792,793,1583237579100,5.2265,0.5951,3.3897,13.681915,3.8479129999999997,6.828665700000001,-1
793,794,1583237579110,5.2791,0.2827,3.5679998,13.964611999999999,3.3613633999999997,7.284081,-1
794,795,1583237579120,5.4610996,-0.1739,3.6569,13.968912,2.7328568,7.2372217,-1
795,796,1583237579131,5.5295997,-0.7015,3.2229997999999997,13.993160999999999,2.18718,6.390756,-1
796,797,1583237579141,5.4669,-1.2512,1.9866999,13.565844,1.3823833,4.9002223,-1
797,798,1583237579151,5.1339999999999995,-1.8332,0.6767,13.738476,1.1885008999999997,3.9252458,-1
798,799,1583237579161,5.4862,-1.925,-0.4226,14.274623000000002,1.1743463,2.748601,-1
799,800,1583237579172,6.0204,-1.9090999,-1.6701,14.5530405,1.3057017,1.5789378,-1
800,801,1583237579182,6.2686,-1.7485,-2.9624,14.399935999999999,1.4132781,0.02075294,-1
801,802,1583237579192,6.046,-1.6883999,-4.6173,13.64284,1.4482621999999998,-1.5401516000000002,-1
802,803,1583237579202,5.2418,-1.6480000000000001,-6.111399700000001,12.911019,1.5449687,-2.361516,-1
803,804,1583237579212,4.579799700000001,-1.5991,-6.8101997,12.26834,1.4591318000000002,-2.3960787999999997,-1
804,805,1583237579222,3.9238,-1.7406,-6.7014,11.350010000000001,1.0480379000000002,-1.6975178,-1
805,806,1583237579232,2.9617999,-2.2272,-5.9177,10.501505,0.44775403,-0.4889343,-1
806,807,1583237579242,2.2821,-2.7932,-4.7633,10.767884,0.33688334,-0.36486676,-1
807,808,1583237579252,2.8039,-2.733,-5.0771,11.5940275,0.87917006,-1.9775914,-1
808,809,1583237579262,3.7019,-2.0523,-6.8914,12.948427,1.9661375,-3.9481822999999996,-1
809,810,1583237579273,5.0631,-0.9902,-8.7698,13.906433999999999,2.4757004,-5.0748076,-1
810,811,1583237579283,5.831,-0.6077,-9.6862,13.928489,2.5271470000000003,-5.0781593,-1
811,812,1583237579293,5.7068,-0.6019,-9.4234,13.313801999999999,2.3185737,-3.7852807,-1
812,813,1583237579303,5.1644,-0.773,-8.2841,13.268963000000001,2.273802,-2.2639953999999998,-1
813,814,1583237579314,5.1161,-0.81399995,-6.7707996,13.059652,2.3931675,-1.3049453000000002,-1
814,815,1583237579324,4.8068,-0.649,-5.6566997,11.834904,2.6511092,-0.6588939,-1
815,816,1583237579334,3.9199998,-0.46199998,-5.2160997,10.800406,2.771614,-0.6449501,-1
816,817,1583237579344,2.123,-0.1823,-4.9862,10.198216,2.942972,-0.3835607,-1
817,818,1583237579355,1.9429,-0.0852,-4.2946,10.083591,3.00411,0.43737277,-1
818,819,1583237579365,1.9152999,-0.155,-3.0325,10.077117999999999,2.8986025,1.7621038,-1
819,820,1583237579375,1.7774999,-0.3563,-1.4462999,9.96438,2.6670352999999998,3.3082887999999997,-1
820,821,1583237579386,1.9018999,-0.49809998,-0.14,10.173385000000001,2.5560977000000005,4.4486756,-1
821,822,1583237579396,2.0644999,-0.4781,0.4269,10.343871,2.5887737,4.806571,-1
822,823,1583237579406,2.3179,-0.21059999,-0.12329999,10.657502000000001,2.9835105,3.6634924,-1
823,824,1583237579416,2.3904998,0.138,-1.5809,10.563974,3.2685065,2.2285612,d
824,825,1583237579427,1.9892999,0.32549998,-2.5187,10.087394999999999,3.4171004000000003,1.7234805,-1
825,826,1583237579437,1.5445,0.348,-2.3792999,9.739335,3.3656538,2.1405885,-1
826,827,1583237579447,1.3568,0.2083,-1.6787,9.623762,3.246844,2.7739317000000003,-1
827,828,1583237579457,1.1886,0.0415,-0.88159996,9.431737,3.0449743,3.6250799,-1
828,829,1583237579468,1.0385,-0.1471,-0.4229,9.243553,2.8409407000000004,3.8948107000000003,-1
829,830,1583237579478,0.82809997,-0.35,-0.3505,9.044471000000001,2.67689,3.9054315,-1
830,831,1583237579488,0.58849996,-0.4579,-0.33499998,8.783138000000001,2.6172264,3.8501635000000003,-1
831,832,1583237579498,0.4195,-0.4885,-0.4403,8.60003,2.5782967,3.7126309999999996,-1
832,833,1583237579508,0.185,-0.539,-0.5316,8.348410000000001,2.5562317,3.649223,-1
833,834,1583237579519,-0.076299995,-0.5487,-0.5115,8.084912,2.5951424,3.8710794,-1
834,835,1583237579529,-0.2589,-0.5072,-0.2289,8.037134,2.6524978,4.0722594,-1
835,836,1583237579539,-0.2671,-0.5135,-0.0999,7.978658,2.5784979999999997,4.135658,-1
836,837,1583237579549,-0.32569999,-0.5787,-0.1251,8.015232000000001,2.6081572,3.9626815000000004,-1
837,838,1583237579559,-0.2179,-0.5053,-0.32709998,8.161441,2.6578991000000003,3.8053348,-1
838,839,1583237579569,-0.1294,-0.46829998,-0.4534,8.354232000000001,2.7892642000000003,3.6386023,-1
839,840,1583237579580,0.2643,-0.2224,-0.68259996,8.741652,3.0242693,3.4076195,-1
840,841,1583237579590,0.65889996,-0.0046,-0.95339996,9.037814,3.192917,3.183886,-1
841,842,1583237579600,0.7495,0.0933,-1.0461999,8.981052,3.2505502999999996,3.2093604,-1
842,843,1583237579610,0.66279995,0.0906,-0.96889997,8.871839,3.2163801,3.3393269999999995,-1
843,844,1583237579620,0.5464,0.0475,-0.8017,8.860586,3.1557877,3.5397985,-1
844,845,1583237579631,0.5973,0.0055,-0.6563,9.037173,3.2084314999999997,3.6158288,-1
845,846,1583237579640,0.807,0.0938,-0.59499997,9.353973,3.3740623,3.6710582,-1
846,847,1583237579650,1.2928,0.3611,-0.5582,9.944861999999999,3.6585412000000006,3.6250417,-1
847,848,1583237579661,1.8963,0.599,-0.67829996,10.468734,3.9309442000000003,3.5279135999999998,-1
848,849,1583237579671,2.3915,0.94079995,-0.7848,11.207008,4.3444033,3.2360318,-1
849,850,1583237579681,3.0821,1.2576,-1.1113,11.6695595,4.562659,2.989793,-1
850,851,1583237579691,3.5379998999999995,1.4798,-1.3658999,11.911469,4.7932587,2.8107542999999997,-1
851,852,1583237579702,3.6927998,1.6377,-1.4649,12.168817500000001,5.007348,2.8925786,-1
852,853,1583237579713,3.9292,1.7924,-1.3814,12.418292999999998,5.318135,3.0421875,-1
853,854,1583237579723,4.1886997,2.0829,-1.2444,12.950304,5.6055446,3.2001092,-1
854,855,1583237579734,4.7451,2.352,-1.0912,13.761718,5.8991885,3.3392315000000004,-1
855,856,1583237579743,5.5683,2.6085,-0.97889996,14.364865,6.2253169999999995,3.5020564,-1
856,857,1583237579753,6.3553996,2.9966,-0.8189,15.3507595,6.687302000000001,3.6384682999999995,-1
857,858,1583237579763,7.2054996,3.3285,-0.7096,16.228127999999998,7.129214299999999,4.06479,-1
858,859,1583237579773,8.1196995,3.7233,-0.30089998,16.990423,7.6499820000000005,4.7663,-1
859,860,1583237579784,8.9208,4.1881,0.37129998,17.28472,8.172713,5.2592373,-1
860,861,1583237579794,9.2436,4.6461997,0.8578,17.353776999999997,8.546467,5.3544599999999996,-1
861,862,1583237579804,9.3511,4.9757,0.9206,17.257301000000002,8.796077,5.1028867,-1
862,863,1583237579815,9.2923,5.0573997,0.7197,17.268457,8.890791,4.7705235,-1
863,864,1583237579824,9.3517,5.0207,0.4412,17.09346,8.859063,4.757709999999999,-1
864,865,1583237579834,9.217,4.8389,0.4847,16.885654000000002,8.730753,5.121446,-1
865,866,1583237579844,9.0559,4.5334,0.92749995,16.73545,8.554024,5.894544000000001,-1
866,867,1583237579855,8.366,3.6401,2.8964999,15.93663,8.133774,6.9633822,-1
867,868,1583237579866,7.4648,2.8676999,3.3748,14.973107,7.5878,7.120508999999999,-1
868,869,1583237579876,7.4648,2.8676999,3.3748,14.411188000000001,7.305264500000001,6.7775254,-1
869,870,1583237579887,6.3754,1.8761,2.5908,13.758367000000002,7.198684700000001,5.5905757000000005,-1
870,871,1583237579897,5.8629,1.5195,2.2340999,12.985776,7.029242,5.1790605,-1
871,872,1583237579907,5.0838,1.0296999,2.2419,12.04316,6.740664,5.0478106,-1
872,873,1583237579917,4.1932,0.51489997,2.4308,11.158263,6.5637229999999995,5.0749125,-1
873,874,1583237579929,3.5115,0.0845,2.846,10.167725,6.2310824,5.335191200000001,-1
874,875,1583237579939,2.9285997999999998,-0.4673,3.2196999,9.423491499999999,5.9749317,5.2779794,-1
875,876,1583237579949,2.3165,-0.89519995,3.2617998,8.909141,5.855403400000001,4.743737,-1
876,877,1583237579960,2.1948,-1.2159,2.7696998,8.828743,5.784123,4.073878,-1
877,878,1583237579970,2.2601,-1.5052999,2.3271,8.748863,5.781796,3.538994,-1
878,879,1583237579980,2.5825999,-1.5569998999999999,2.3569999,9.153531,6.064963,3.5876059999999996,-1
879,880,1583237579990,3.1053,-1.5302,2.6799998,8.8568325,5.988339,3.8614260000000002,-1
880,881,1583237580001,2.4308,-2.0486,3.1367998,6.9451385,5.2755566,4.1537485,-1
881,882,1583237580011,0.96199995,-2.8402,3.4261,5.4739876,4.7655244,4.407668,-1
882,883,1583237580021,-0.1813,-3.4996998,3.7635998999999996,4.4210753,4.4618535,4.296088,-1
883,884,1583237580031,-0.8688,-3.9162998,3.6646998,3.7367647000000006,4.301777400000001,3.5629265,-1
884,885,1583237580041,-1.2684,-4.2551,3.043,3.2802860000000003,4.067451999999999,2.8807228,-1
885,886,1583237580052,-1.5656999,-4.7486,2.3868,2.3798842000000002,3.597403,1.8625453,-1
886,887,1583237580062,-2.2045999,-5.2669997,1.7677,1.1610346,3.3267431000000003,1.2144061000000002,-1
887,888,1583237580072,-3.1717,-5.6429,1.3425,0.19486886,2.9814036,0.8929319,-1
888,889,1583237580083,-3.8105,-6.1303,1.1994,-0.55634546,2.5177138,0.99634224,-1
889,890,1583237580093,-4.2738,-6.6614,1.4043,-0.9177933000000001,2.3109697999999996,1.0487176999999999,-1
890,891,1583237580103,-4.2998,-6.8645997,1.4634999,-0.29876763,2.4774529999999997,1.361592,-1
891,892,1583237580114,-3.5463998,-6.7805,1.7757,-0.004376601,2.3700202,2.1712919999999998,-1
892,893,1583237580123,-3.0958997999999998,-6.9326,2.5693998,-0.12449849,2.341376,2.7214506000000003,-1
893,894,1583237580133,-3.0491,-7.0,3.207,0.048755522999999995,2.4764473,3.0838754,-1
894,895,1583237580143,-2.7781,-6.924299700000001,3.4513998,0.13499467,2.8221414,3.2059702999999997,-1
895,896,1583237580153,-2.5656,-6.6082997,3.5533997999999998,0.062421627,3.1213398,3.0293547999999997,-1
896,897,1583237580163,-2.5289,-6.3465,3.3695998,-0.17566738,3.2963080000000002,2.770149,-1
897,898,1583237580173,-2.6866999,-6.1593,3.0263,-0.19440918,3.4242160000000004,2.2609117000000003,-1
898,899,1583237580183,-2.5005999,-6.0957,2.4562,0.18990809,3.4227027999999997,1.3103848999999999,-1
899,900,1583237580193,-2.1094,-6.1162996,1.6701,0.58023,3.6172269999999997,1.0360956000000001,-1
900,901,1583237580204,-1.6398,-5.9377,1.4221,0.9886234,3.9327349999999996,1.3871526,-1
901,902,1583237580214,-1.1599,-5.6391,1.7715,0.89731807,4.214417500000001,2.1009599999999997,-1
902,903,1583237580225,-1.1966,-5.3684,2.4844,0.2501366,4.5145545,2.6862178,-1
903,904,1583237580235,-2.0899,-4.685,3.2386,-0.15829505,5.000223,2.7929895,-1
904,905,1583237580245,-2.1388,-4.2706,2.7545,-0.23510103,5.453455,2.1764443,-1
905,906,1583237580255,-2.07,-3.7552998,1.7084999,-0.13817416,5.960384400000001,1.0476931,-1
906,907,1583237580265,-1.6968,-3.2668,0.7242,0.33588737,6.4769,0.021356279,-1
907,908,1583237580275,-0.87009996,-2.5997999,-0.42339998,1.1896788,7.152993700000001,-1.2056242,-1
908,909,1583237580285,-0.085099995,-2.0599,-1.331,1.9003737,7.6433644,-2.017067,-1
909,910,1583237580295,0.1451,-1.8255999,-1.4297999,1.9407398999999999,7.7930884,-1.9928951000000001,-1
910,911,1583237580306,-0.22469999,-1.9174,-0.9284,1.4593617,7.6382117,-1.2927923000000001,-1
911,912,1583237580316,-0.6974,-2.0794,0.0335,0.9427121999999999,7.5422910000000005,-0.29873893,-1
912,913,1583237580326,-1.2183,-2.1042,0.8682,0.39890274,7.560238000000001,0.4369800999999999,-1
913,914,1583237580337,-1.4979,-2.0001,1.1225,0.2588228,7.700222,0.44224736,-1
914,915,1583237580347,-1.3441,-1.7369999999999999,0.8675,0.5134126,8.015874,0.011913547,-1
915,916,1583237580357,-0.9438,-1.4620999,0.3337,0.9525858,8.302766,-0.6359286999999999,-1
916,917,1583237580367,-0.4039,-1.1076,-0.34989998,1.5783726999999999,8.719903,-1.2947365,-1
917,918,1583237580377,-0.4039,-1.1076,-0.34989998,2.0311546000000003,9.202584,-1.5513661,-1
918,919,1583237580387,0.3539,-0.2713,-0.7609999999999999,2.1051066,9.373607000000002,-1.4000716,-1
919,920,1583237580398,0.3371,-0.3308,-0.4886,1.9663099,9.227847,-1.03577,-1
920,921,1583237580408,-0.0559,-0.4992,-0.029399997999999997,1.4382926999999999,9.093571,-0.6056085,-1
921,922,1583237580418,-0.49409997,-0.6188,0.2399,1.1460181,8.99717,-0.4411556,-1
922,923,1583237580428,-0.5223,-0.5708,0.33089998,1.2806872,9.224706,-0.41351694,-1
923,924,1583237580439,-0.32909998,-0.3058,0.3105,1.4606545,9.395067,-0.5338208000000001,-1
924,925,1583237580449,-0.080699995,-0.1771,0.1072,1.6861213,9.480139,-0.8238161,-1
925,926,1583237580459,-0.011299999,-0.1952,-0.1565,1.6642192999999998,9.411214,-1.1562941,-1
926,927,1583237580469,-0.0032,-0.233,-0.42769998,1.7836037,9.403333,-1.3413084,d
927,928,1583237580480,0.1871,-0.17289999,-0.5718,2.1132085,9.634517,-1.5284008999999998,-1
928,929,1583237580490,0.5714,0.1322,-0.79039997,2.4552537999999995,9.912244,-1.6317538,-1
929,930,1583237580500,0.82189995,0.32889998,-0.8027,2.555389,9.99717,-1.5604353000000002,-1
930,931,1583237580510,0.71739995,0.3384,-0.71029997,2.1334922,9.915864,-1.4647629999999998,-1
931,932,1583237580520,0.289,0.20989999,-0.618,1.8262779999999998,9.715622999999999,-1.4106541000000001,-1
932,933,1583237580530,0.0523,-0.0267,-0.508,1.5494316000000001,9.505364,-1.3463075,-1
933,934,1583237580541,-0.2129,-0.15519999,-0.48319998,1.3748465,9.468100999999999,-1.4955525,-1
934,935,1583237580551,-0.24599999,-0.16569999,-0.6368,1.4687948,9.531767,-1.7509276000000003,-1
935,936,1583237580561,-0.117699996,-0.0678,-0.89419997,1.6487718,9.665891,-2.0681784,-1
936,937,1583237580571,0.0556,0.0497,-1.1776999,1.7812189999999999,9.74012,-2.2203922,-1
937,938,1583237580582,0.248,0.1275,-1.2817999,1.958457,9.780342999999998,-2.0760121,-1
938,939,1583237580592,0.3651,0.106199995,-1.0774,1.8965621,9.490165,-1.7076691000000002,-1
939,940,1583237580602,0.24409999,-0.23009999,-0.68829995,1.4109223,9.167091000000001,-1.2794998,-1
940,941,1583237580612,-0.2694,-0.5385,-0.2687,0.9606302999999999,8.851891,-0.7807779,-1
941,942,1583237580622,-0.62839997,-0.85749996,0.2519,0.69230735,8.533988,-0.29945720000000003,-1
942,943,1583237580633,-0.88409996,-1.1866,0.7482,0.13669933,8.209325,0.30103734,-1
943,944,1583237580643,-1.4398999,-1.4963,1.3541,-0.73711723,7.778694000000001,1.026174,-1
944,945,1583237580653,-2.1239,-1.8945999,1.9526999,-1.3637086,7.2853449999999995,1.6957939999999998,-1
945,946,1583237580663,-2.8653998,-2.5191998,2.8042998,-2.2578185,6.51809,3.023283,-1
946,947,1583237580674,-3.5923,-3.1639,3.8707,-2.6970202999999997,6.0565357,4.4121690000000005,-1
947,948,1583237580684,-4.032099700000001,-3.6313998999999995,5.1886,-2.78302,5.7618089999999995,5.7954817,-1
948,949,1583237580694,-4.133,-3.9397998,6.4916,-2.99823,5.4662213,6.645653,-1
949,950,1583237580705,-4.8898997,-4.5782,7.4884,-3.7122097000000003,5.0381089999999995,6.9358587,-1
950,951,1583237580715,-5.6705,-4.8698,7.7064996,-4.4215064,4.736966000000001,7.256317999999999,-1
951,952,1583237580725,-6.3122,-5.4049,8.7143,-4.938328299999999,4.125008,8.44365,-1
952,953,1583237580736,-6.7049,-6.1829,10.1765995,-5.263039599999999,3.362685,9.908814999999999,-1
953,954,1583237580745,-6.8931,-6.8989,11.3069,-5.3131260000000005,2.620358,10.970749,-1
954,955,1583237580755,-6.830899700000001,-7.6492996,12.0545,-5.1043425000000004,1.8477970000000001,11.664646000000001,-1
955,956,1583237580765,-6.4803996,-8.2659,12.2936,-4.5526795,1.2979733999999998,11.783868,-1
956,957,1583237580776,-5.5769,-8.306000000000001,11.7687,-3.351643,1.362636,11.113539,-1
957,958,1583237580786,-5.5769,-8.306000000000001,11.7687,-2.1023388,1.6931124,10.11148,-1
958,959,1583237580796,-3.8174,-7.7841997,10.164499000000001,-1.4315698000000001,1.7169874,9.551648,-1
959,960,1583237580806,-3.5470998,-7.9789,9.8158,-0.9950398000000001,1.4508478999999999,9.124676,-1
960,961,1583237580816,-3.2294998,-8.1266,9.2329,-0.1553358,1.1547043,8.298053999999999,-1
961,962,1583237580827,-2.2804,-8.4318,8.4368,1.1096646000000001,0.8418971,7.381659,-1
962,963,1583237580837,-1.3106999,-8.382999,7.3004,2.4427849999999998,1.0462278,6.0208044,-1
963,964,1583237580847,0.17819999,-7.782099700000001,5.8422,4.4374137000000005,1.8016558999999996,4.661012599999999,-1
964,965,1583237580857,2.0521,-6.6078997,4.6182,6.5463986,2.8815844,3.3768587,-1
965,966,1583237580868,3.7602,-5.5772,3.1664,8.488709,3.6338809999999997,1.8607161,-1
966,967,1583237580878,5.4389997,-4.9474,1.4943,10.453793,3.9910576,0.03968629,-1
967,968,1583237580888,6.9593,-4.5751,-0.5344,12.379546000000001,4.308749,-2.5332472000000004,-1
968,969,1583237580898,8.305099499999999,-4.0125,-2.7551,13.852707,4.860737,-4.356049,-1
969,970,1583237580908,9.8951,-2.8385,-4.9995,15.56731,6.193771,-6.4567309999999996,-1
970,971,1583237580919,11.189099,-1.1417999,-6.8745,17.050844,7.697282,-7.9602895,-1
971,972,1583237580929,12.3881,0.2704,-7.8679,18.640326,8.8224325,-8.586889999999999,-1
972,973,1583237580939,13.2343,0.9817,-8.2631,19.16412,8.869846,-8.634871,-1
973,974,1583237580949,13.2529,0.8203,-8.146,19.217415,8.374563,-7.954945599999999,-1
974,975,1583237580959,13.395499,0.5884,-7.7398996,20.1408,8.333938999999999,-8.445775999999999,-1
975,976,1583237580970,14.4555,0.8121,-9.0084,21.37301,8.646956,-10.188516,-1
976,977,1583237580980,15.4698,1.3445,-10.9633,22.29543,9.069111,-12.026717,-1
977,978,1583237580990,15.932699,1.778,-12.773399000000001,22.25127,9.207247,-13.330694,-1
978,979,1583237581000,15.0362,1.7423999,-14.3189,20.633392,8.617517,-14.840535999999998,-1
979,980,1583237581010,13.2921,0.97959995,-15.3273,18.306248,7.378508,-15.601356,-1
980,981,1583237581021,11.253099,-0.0349,-15.718499,16.716192000000003,6.468596499999999,-15.644604999999999,-1
981,982,1583237581031,9.793,-0.8523,-15.8237,15.965523999999998,5.928637,-15.763654999999998,-1
982,983,1583237581041,9.1581,-1.1996,-15.948898999999999,15.877963000000001,6.2513375,-15.974707,-1
983,984,1583237581051,9.090799,-0.8196,-16.2039,15.922562,6.1448526,-16.011282,-1
984,985,1583237581061,9.1142,-1.0691998999999999,-16.000598999999998,15.737204,5.6624784,-14.784626000000001,-1
985,986,1583237581072,8.7806,-1.4715999,-14.709499,15.222736,5.113421,-13.5288105,-1
986,987,1583237581082,8.2397995,-2.0686,-13.540199,14.705388000000001,4.2065067,-12.587066,-1
987,988,1583237581093,7.8148,-2.9872,-12.6811,14.510797,3.132832,-11.873038000000001,-1
988,989,1583237581103,7.5039997000000005,-4.098099700000001,-11.9046,13.766286,1.8868703999999998,-10.652167,-1
989,990,1583237581113,6.8752,-5.0966997,-10.9115,13.148304999999999,1.0877241000000002,-9.910654,-1
990,991,1583237581124,6.2486,-5.9006996,-10.1936,12.226258999999999,0.39718848,-9.045447,-1
991,992,1583237581134,5.337000000000001,-6.5857997,-9.3695,11.391755,0.16218323,-8.325769000000001,-1
992,993,1583237581144,4.3018,-7.0838,-7.112,11.348286,-0.18389384,-6.3494616,-1
993,994,1583237581154,4.3018,-7.0838,-7.112,12.008386999999999,-0.28418216,-5.0626736,-1
994,995,1583237581164,5.0729,-7.2036,-5.5652,12.803405,-0.1316332,-3.6132237999999997,-1
995,996,1583237581175,6.4119997,-7.0464997,-3.3235,13.422785000000001,-0.27411693,-2.5895207,-1
996,997,1583237581185,6.4119997,-7.0464997,-3.3235,13.049501,-0.45904508,-1.9847165,-1
997,998,1583237581196,5.242999999999999,-7.1685996,-1.8235999,12.259960000000001,-0.3852845,-1.1119343000000002,-1
998,999,1583237581206,5.1521,-7.2995996,-1.1234,12.189608999999999,-0.61533856,-0.31981748,-1
999,1000,1583237581216,4.5376,-7.4156,-0.11639999599999999,11.520008,-0.6667755999999999,0.8002763,-1
1000,1001,1583237581226,4.0443997000000005,-7.1226997,1.0603,11.267266000000001,-0.33760159999999995,2.2114859,-1
1001,1002,1583237581237,4.3148,-6.6113,2.3193998,11.809592,0.37855202,3.6683097,-1
1002,1003,1583237581247,5.0737,-5.5074997,3.7658,12.761383,1.5688342,5.0136213,-1
1003,1004,1583237581257,6.0021,-4.1584997,4.9164,13.628993,2.7846866,6.143397,-1
1004,1005,1583237581267,6.0021,-4.1584997,4.9164,14.047308,4.0380607,7.7701807,-1
1005,1006,1583237581278,6.7223,-1.4272,8.068399000000001,14.189322,5.359717400000001,9.640703,-1
1006,1007,1583237581287,6.3883,-0.29209998,10.1236,13.849642999999999,6.086913,11.493317999999999,-1
1007,1008,1583237581297,5.7699,0.461,13.2098,13.205507,6.818753200000001,15.471715,-1
1008,1009,1583237581308,5.4821,1.1372,16.3322,13.222572,7.5679855,18.210316,-1
1009,1010,1583237581318,5.7468,2.0316,18.275,13.554792,8.409653,19.660829999999997,-1
1010,1011,1583237581328,5.9662,3.0347,19.3472,13.705214499999999,9.624001,20.78507,-1
1011,1012,1583237581338,5.928,4.0474,20.2132,13.643856,10.367161,21.357773,-1
1012,1013,1583237581348,5.8497,4.8945,20.8738,13.611353,11.123576,22.122328,-1
1013,1014,1583237581359,6.0657,5.7437,21.8926,14.34102,12.333855,23.268345,-1
1014,1015,1583237581369,6.9976997,6.867799799999999,22.368599,15.587642,13.438960999999999,22.920134,-1
1015,1016,1583237581379,8.2957,7.8963,21.523498999999997,16.224594,14.256120999999998,21.814865,-1
1016,1017,1583237581389,8.1426,8.473599,20.349698999999998,14.975512,14.418054999999999,20.6986,-1
1017,1018,1583237581399,6.5443997000000005,8.1803,19.3015,12.883372,13.673601000000001,19.669823,-1
1018,1019,1583237581410,4.361799700000001,7.0912,18.3025,10.792066,12.651125,18.432154,-1
1019,1020,1583237581419,2.7268,6.0032,16.8645,9.693261,11.8353815,16.60174,-1
1020,1021,1583237581429,2.1996,5.204799700000001,14.7921,9.566875999999999,11.431489,14.222191,-1
1021,1022,1583237581440,2.4204,4.7976,12.290899000000001,9.926504,11.399953,11.604992,-1
1022,1023,1583237581450,3.0324,4.758899700000001,9.6972,10.387742,11.423521000000001,9.302872,-1
1023,1024,1583237581460,3.4355,4.6245,7.7015996,10.486286999999999,11.423809,7.946499,-1
1024,1025,1583237581470,3.5356,4.3443,6.6105,10.177214999999999,10.916832000000001,6.666625999999999,-1
1025,1026,1583237581481,3.3913998999999997,3.7120998,5.633899700000001,10.027894,10.517508,5.8574433,-1
1026,1027,1583237581491,3.4429,3.0462,4.6315,9.995178999999998,9.845542,4.337977400000001,-1
1027,1028,1583237581501,3.5807998,2.3227,3.3964,9.92297,9.329467,3.4327010000000002,-1
1028,1029,1583237581511,3.7045,1.6543,2.6568,10.162094,8.861477,2.8769302000000003,-1
1029,1030,1583237581521,4.1728997,1.1025,2.1236,10.543987,8.698125,2.4994987999999996,-1
1030,1031,1583237581531,4.9066997,0.8041,1.7321,11.220091,8.506378,2.3853432999999997,-1
1031,1032,1583237581542,5.6927,0.4006,1.7141998999999999,11.312498,8.059965,2.6126199,-1
1032,1033,1583237581552,5.7125998,-0.1339,1.9963,10.859649000000001,7.5175443,2.4209976,-1
1033,1034,1583237581562,5.4003997,-0.83989996,1.6738,10.386631,7.0718684000000005,1.5807095,-1
1034,1035,1583237581572,5.2346,-1.3399,0.90309995,10.454924,6.7980194,0.5259295,-1
1035,1036,1583237581583,5.5943,-1.7662,-0.0624,10.456024000000001,6.503131,-0.37383065,-1
1036,1037,1583237581593,5.7049,-2.2159,-0.75189996,9.667519,5.8482304,-0.7694581,-1
1037,1038,1583237581603,5.2156997,-2.9057999,-0.9108,8.520887,4.9819217,-0.5038837,-1
1038,1039,1583237581614,4.3027,-3.885,-0.5545,7.069876700000001,4.0979443,0.0692882,-1
1039,1040,1583237581624,3.0909,-4.8876,0.0709,5.8434800000000005,3.415836,0.034361582,-1
1040,1041,1583237581634,2.106,-5.6665998,0.1182,4.8499436,3.0743275000000003,-1.1101912,-1
1041,1042,1583237581644,1.3546,-6.0927997000000005,-0.88989997,4.245753,2.6962447,-2.5625906,-1
1042,1043,1583237581654,0.5609,-7.1415997,-3.2663,3.3867037000000004,2.1010747000000003,-3.9368815,-1
1043,1044,1583237581665,0.5609,-7.1415997,-3.2663,2.556155,1.7110498,-4.3126755,-1
1044,1045,1583237581675,-1.1356,-8.2937,-3.4743,1.2269326,1.0497136999999999,-4.123831,-1
1045,1046,1583237581685,-1.9072,-8.7937,-3.1906998,0.2650573,0.60895085,-4.0123277,-1
1046,1047,1583237581695,-2.5163,-9.246099000000001,-3.2322,-0.50040734,0.24995466,-4.1341352,-1
1047,1048,1583237581706,-2.75,-9.485,-3.0695999,-0.8637800999999999,0.04433104,-4.003440400000001,-1
1048,1049,1583237581716,-2.8636,-9.7274,-2.8695,-1.1707838,-0.19322164,-3.8774767,-1
1049,1050,1583237581726,-3.1877,-9.9942,-2.7847998,-1.6989158,-0.44354022,-3.9054123999999995,-1
1050,1051,1583237581736,-3.5628,-10.2273,-2.7433,-2.1938262,-0.6437625,-3.8759922999999996,-1
1051,1052,1583237581746,-3.9587,-10.3884,-2.4717999,-2.7528627,-0.7781155,-3.5663261,-1
1052,1053,1583237581757,-4.4042997,-10.6159,-1.9636999,-3.316793,-1.0570306,-3.0741357999999996,-1
1053,1054,1583237581767,-5.0775,-11.0573,-1.3385999,-4.4073133,-1.6068158000000001,-2.482184,-1
1054,1055,1583237581777,-6.0899,-11.5164995,-1.1337,-5.497269,-1.9870436999999999,-2.3592942000000003,-1
1055,1056,1583237581788,-6.9075,-11.7964,-1.0487,-6.1865115,-2.2187354999999997,-2.411191,-1
1056,1057,1583237581798,-7.1919,-11.9258995,-1.3621,-6.3012705,-2.2054812999999998,-3.098346,-1
1057,1058,1583237581808,-7.1509,-11.8363,-2.1027,-6.324389,-2.1032393,-3.8440154000000004,-1
1058,1059,1583237581818,-7.1944,-11.715099,-2.747,-6.3148217,-2.002836,-4.308068799999999,-1
1059,1060,1583237581828,-7.0961,-11.5835,-3.1093,-6.182116000000001,-1.8826468999999997,-4.4438777,-1
1060,1061,1583237581839,-7.2085,-11.5111,-2.9524999,-6.375213,-1.8327134999999999,-4.1287627,-1
1061,1062,1583237581849,-7.4888997,-11.5075,-2.6578999,-6.6219883,-1.913877,-3.7350314,-1
1062,1063,1583237581859,-7.7387996,-11.6103,-2.2948,-6.495469,-2.0305417,-3.3896246,-1
1063,1064,1583237581869,-7.6739999999999995,-11.7788,-2.0146,-6.392729,-2.33925,-2.9875615,-1
1064,1065,1583237581880,-7.6481,-12.130199000000001,-1.642,-6.054610299999999,-2.8042805,-2.5954007999999997,-1
1065,1066,1583237581890,-7.2823,-12.6338,-1.3268,-5.3144765,-3.3246171,-2.2838385,-1
1066,1067,1583237581900,-6.6496,-13.023399000000001,-1.0634999,-4.453224700000001,-3.5414648,-1.8377603999999998,-1
1067,1068,1583237581910,-5.9867,-13.1402,-0.6313,-3.2514505000000002,-3.5172834,-1.1869016000000001,-1
1068,1069,1583237581921,-5.1844997,-13.0215,-0.2165,-2.342142,-3.5381032999999995,-0.67575866,-1
1069,1070,1583237581930,-4.562,-13.018399,0.203,-1.6483408,-3.5292354,-0.045183375,-1
1070,1071,1583237581940,-4.0559998,-12.9234,0.9629,-1.1116661,-3.5330660000000003,0.87762815,-1
1071,1072,1583237581950,-3.8407998,-12.8918,1.6123999,-0.3761291,-3.6644886,1.4490666,-1
1072,1073,1583237581960,-3.2884,-12.930699,1.8600999,0.49713206,-3.7675445,1.696924,-1
1073,1074,1583237581970,-2.8002,-12.890699,1.9539,1.4639874,-3.6902120000000003,2.04868,-1
1074,1075,1583237581981,-2.2969,-12.6319,2.0455,2.4167552000000003,-3.5927773000000003,2.1015537,-1
1075,1076,1583237581991,-1.3866999,-12.3377,1.8704,3.903018,-3.5166802,2.0973493999999997,-1
1076,1077,1583237582001,-0.5669,-12.1824,1.7542,5.119991000000001,-3.9192986000000003,2.2354182999999996,-1
1077,1078,1583237582011,0.3918,-12.3792,1.7256,6.4518566,-3.9738002,2.599155,-1
1078,1079,1583237582021,1.6299,-11.9734,2.3395998,8.444148,-3.5420968999999998,4.710879,-1
1079,1080,1583237582031,3.1123,-11.247,4.1496,11.413101,-2.7721694,6.7837024,-1
1080,1081,1583237582042,5.8608,-10.0117,5.7894998,14.474003,-1.4057508,7.4176292,-1
1081,1082,1583237582051,8.4141,-8.264,5.871,16.787682999999998,-0.35283828,6.9938173,-1
1082,1083,1583237582061,10.2645,-6.9849997,5.2084,18.168602,0.041668687,6.6855307,-1
1083,1084,1583237582071,11.3797,-6.111799700000001,4.6359,19.107147,0.36272156,6.630291499999999,-1
1084,1085,1583237582081,11.685599,-5.6301,4.618,19.537098,0.34535879999999997,7.9867024,-1
1085,1086,1583237582091,11.8866,-4.9707,5.9876,20.583277,2.153182,9.659847000000001,-1
1086,1087,1583237582102,13.028299,-2.4835,7.2383,23.519920000000003,4.188407,10.050983,-1
1087,1088,1583237582112,16.058899,-0.0739,7.1573997,26.996693,6.0998225,9.2082815,-1
1088,1089,1583237582122,19.2243,2.3116999,5.8577,29.280254,7.7445816999999995,7.547097999999999,-1
1089,1090,1583237582132,21.0001,4.1633997,4.121,29.319567,8.247949,7.0470357,-1
1090,1091,1583237582143,20.4056,4.8698997,3.7784,26.863336999999998,8.159697999999999,7.612958,-1
1091,1092,1583237582153,17.596199,5.0376,4.2869997,23.64076,7.5026044999999995,8.63895,-1
1092,1093,1583237582163,14.933,4.7766,5.0120997,22.019482,7.3557630000000005,9.563179,-1
1093,1094,1583237582173,12.930699,4.9444,5.9982,20.61174,7.404921000000001,10.458668,-1
1094,1095,1583237582183,11.7006,5.2750998,6.513499700000001,20.105585,7.514815,10.408859,-1
1095,1096,1583237582194,11.3698,5.6526,6.3153996,20.110432,7.8125386,9.670314999999999,-1
1096,1097,1583237582204,11.315,6.2264,5.2061,19.320087,7.6067905,8.071447000000001,-1
1097,1098,1583237582214,10.592999,6.1966,3.7916,18.093633999999998,7.095072999999999,7.1482625,-1
1098,1099,1583237582224,9.3713,5.8507,2.8082,16.761105999999998,6.4327793,6.8921785,-1
1099,1100,1583237582235,6.982199700000001,5.0164,2.5245,15.383329999999999,5.842139700000001,6.994669999999999,-1
1100,1101,1583237582245,6.982199700000001,5.0164,2.5245,14.986629500000001,5.676384400000001,7.022759,-1
1101,1102,1583237582255,5.7451,4.7797,2.2219,14.359426000000001,5.501272,6.6467347000000006,-1
1102,1103,1583237582266,5.2922997,4.8083,1.7421,13.898724,5.4505534,6.196951,-1
1103,1104,1583237582276,5.1219,4.8869,1.2701,13.794623999999999,5.4584064,5.730186499999999,-1
1104,1105,1583237582286,4.8292,4.7788997,0.6045,13.340616,5.2316947,4.999036,-1
1105,1106,1583237582296,3.8923997999999997,4.4426,-0.3103,12.199108,4.8599324,3.883108,-1
1106,1107,1583237582306,3.0607998,4.1823997,-1.1796,11.627622,4.6014256,3.2397666000000003,-1
1107,1108,1583237582316,2.4975,3.8636,-1.6337,11.000303,4.1826415,2.9322746,-1
1108,1109,1583237582327,2.1176999,3.5235,-1.3959,10.758815,3.9018211000000003,3.263249,-1
1109,1110,1583237582337,2.0374,3.2607,-0.6687,10.836569,3.6293032,4.2919225999999995,-1
1110,1111,1583237582347,2.4175,3.1862,0.2557,11.286334,3.5073524,5.106391400000001,-1
1111,1112,1583237582358,2.6741,3.0051,0.7802,11.229764,3.2387803,5.396732,-1
1112,1113,1583237582368,2.3069,2.6899998,0.6604,10.821916,2.9065418,5.054016000000001,-1
1113,1114,1583237582378,1.9171,2.3123999,0.2137,10.322515,2.4405918,4.6408724999999995,d
1114,1115,1583237582388,1.4204999,1.9094,0.079399996,9.850895,2.0342479,4.756982,-1
1115,1116,1583237582399,1.0339999,1.4961,0.3037,9.558822,1.6601298999999998,5.0253334,-1
1116,1117,1583237582410,0.77599996,1.1317999,0.5949,9.401254,1.4208055,5.2339644,-1
1117,1118,1583237582420,0.63549995,0.8745,0.8473,9.264517,1.1432313,5.478489,-1
1118,1119,1583237582431,0.50479996,0.6548,0.93299997,9.1613655,1.0145574,5.3345304,-1
1119,1120,1583237582441,0.4443,0.5803,0.70229995,9.260734,1.0388919,5.001526,-1
1120,1121,1583237582451,0.64959997,0.6019,0.2835,9.480177000000001,1.0948111,4.3889356,-1
1121,1122,1583237582461,0.78599995,0.6303,-0.2323,9.431393,1.0899748,3.9546466000000002,-1
1122,1123,1583237582472,0.6857,0.57629997,-0.59819996,9.213587,0.9850033000000001,3.9134184999999997,-1
1123,1124,1583237582482,0.46719998,0.44189999,-0.5506,8.990601,0.8681088,4.124213,-1
1124,1125,1583237582492,0.2199,0.2978,-0.318,8.736576,0.7775218,4.425835,-1
1125,1126,1583237582502,-0.0162,0.2038,0.00049999997,8.713514,0.7393678000000001,4.636783,-1
1126,1127,1583237582512,0.0021,0.1496,0.1531,8.792055,0.77060735,4.6116824,-1
1127,1128,1583237582523,0.0793,0.1547,0.1295,9.038944,0.89566123,4.5151677,-1
1128,1129,1583237582533,0.3153,0.2498,0.0332,9.451686,1.0780706,4.3721094,-1
1129,1130,1583237582543,0.731,0.4164,-0.1085,9.946711,1.3734673000000002,4.270144999999999,-1
1130,1131,1583237582553,1.2373999,0.69159997,-0.22569999,10.343947,1.6032437,4.2285237,-1
1131,1132,1583237582564,1.6466999,0.9062,-0.2757,10.514721,1.7490313999999998,4.358672599999999,-1
1132,1133,1583237582574,1.8215,1.0195,-0.1503,10.4722185,1.7803761999999999,4.735147,-1
1133,1134,1583237582584,2.1513999,1.1867,0.8188,10.962676,2.0286741000000004,5.4687209999999995,-1
1134,1135,1583237582594,2.9636998,1.5094999,1.3184,11.846480999999999,2.4254317000000003,5.9335504,-1
1135,1136,1583237582604,4.0436997,2.1368,1.4398999,12.925653,3.14533,5.987582700000001,-1
1136,1137,1583237582615,5.06,2.9185998,1.3568,14.071882,4.087055,5.967758,-1
1137,1138,1583237582626,5.06,2.9185998,1.3568,14.78457,4.5461290000000005,6.0260334,-1
1138,1139,1583237582636,7.5512,4.3515,1.6137999,16.290062,5.4245234,6.359957700000001,-1
1139,1140,1583237582646,8.2207,4.7676997000000005,2.116,16.896168,5.9015827000000005,6.893337700000001,-1
1140,1141,1583237582656,8.2207,4.7676997000000005,2.116,17.209234,6.331313,7.564805499999999,-1
1141,1142,1583237582666,8.997399,5.4007,3.3112998,17.600609,6.684792999999999,8.126476,-1
1142,1143,1583237582677,9.455,5.5238,3.6104998999999998,18.03054,6.894429,8.364661,-1
1143,1144,1583237582687,9.8619995,5.6292,3.4538998999999997,18.462322,7.206892,8.010271000000001,-1
1144,1145,1583237582697,9.8953,5.5585,3.0785,18.146584,7.1535106,7.734775,-1
1145,1146,1583237582707,9.4794,5.2158,3.0997,17.810226,6.994813400000001,7.872259599999999,-1
1146,1147,1583237582718,9.41,4.7639,3.3790998,17.815857,6.720591499999999,8.1052065,-1
1147,1148,1583237582728,9.353,4.143,3.5979997999999997,17.614304999999998,6.3318496,8.173527,-1
1148,1149,1583237582738,8.9949,3.5163,3.5860999,17.13221,5.93786,7.9493339999999995,-1
1149,1150,1583237582748,8.476399,2.7177,3.2739999999999996,16.216387,5.2951026,7.247172,-1
1150,1151,1583237582758,7.5267,1.8481,2.7575,14.976689000000002,4.705391400000001,6.8074527,-1
1151,1152,1583237582768,6.2444,0.8731,2.6371,13.870779,4.1813297,6.706293,-1
1152,1153,1583237582778,4.834,-0.122899994,2.8488998,12.300939999999999,3.5704540000000002,6.8415275,-1
1153,1154,1583237582788,3.4129998999999995,-0.97709996,3.3945,10.980115,3.154399,7.326391,-1
1154,1155,1583237582798,2.5221,-1.6408,4.1775,10.088160499999999,2.8635227999999997,7.8085647,-1
1155,1156,1583237582808,2.0273,-2.1664999,4.6056,9.576817,2.7606199,7.756735000000001,-1
1156,1157,1583237582819,1.6854999,-2.5035,4.6313,9.101711,2.820159,7.3447021999999995,-1
1157,1158,1583237582829,1.3001,-2.7586,4.3687997,8.499243,2.8583894,6.6757045,-1
1158,1159,1583237582840,0.7908,-3.0205,3.7819998,7.918180499999999,2.961484,5.6479697,-1
1159,1160,1583237582850,0.5075,-3.1799,2.9327998,7.684448700000001,3.1075876,4.521517299999999,-1
1160,1161,1583237582860,0.6135,-3.2635999,2.0579998,7.7670965,3.2798263999999997,3.4923072,-1
1161,1162,1583237582870,0.8236,-3.3983998,1.3887999,7.791067599999999,3.4044974000000003,2.8120380000000003,-1
1162,1163,1583237582880,1.0608,-3.4884,1.0495,7.7303695999999995,3.4993269999999996,2.3857932,-1
1163,1164,1583237582890,0.9536,-3.6729,1.0863,7.1280847000000005,3.5438015,2.561202,-1
1164,1165,1583237582900,0.435,-3.8169,1.5476999,6.4232025,3.6886508,2.6137787999999995,-1
1165,1166,1583237582910,0.14989999,-3.9002,1.6531,5.9956937,3.7870714999999997,2.2829287,-1
1166,1167,1583237582920,-0.1193,-3.9118998,1.4609,5.745097599999999,3.9868152,1.7527664,-1
1167,1168,1583237582931,-0.021499999,-3.9004,0.99789995,5.3217935999999995,4.0725083,0.6337548000000001,-1
1168,1169,1583237582941,-0.3505,-4.0436,0.22459999,4.652049,4.071953,-0.17382862,-1
1169,1170,1583237582951,-0.80149996,-4.1955,-0.36949998,3.8838263,4.0796814,-0.9502778000000001,-1
1170,1171,1583237582961,-1.3093,-4.2962,-0.8972,3.3152508999999997,4.463175,-1.8704939999999999,-1
1171,1172,1583237582971,-1.6027,-3.9919998999999997,-1.7156,3.4154053,4.7287593,-2.4559243,-1
1172,1173,1583237582982,-1.0078,-3.911,-2.1538,3.6658006000000003,4.423958,-2.5946634,-1
1173,1174,1583237582992,-0.7978,-4.4289,-1.8928,3.0716555,3.8136949999999996,-2.151621,-1
1174,1175,1583237583002,-1.1837,-5.0983996,-1.3613,2.2953212000000005,3.4172347000000003,-1.7664037000000001,-1
1175,1176,1583237583012,-1.8750999,-5.6141996,-0.8797,1.2517365,3.1716852,-1.0276777,-1
1176,1177,1583237583023,-2.5068,-5.8564997000000005,-0.1655,0.75520784,3.143472,-0.45836509999999997,-1
1177,1178,1583237583033,-2.8404999,-5.9711,0.5755,0.8064055,3.1762917,0.29506144,-1
1178,1179,1583237583043,-2.5663,-5.9969,1.1916,1.2295375,3.4240437000000004,0.6109428000000001,-1
1179,1180,1583237583053,-1.9854,-5.8079,1.5135,2.0477223,3.5400379,0.502677,-1
1180,1181,1583237583063,-1.0232999,-5.74,1.4099,2.7403169999999997,3.782379,0.4608934,-1
1181,1182,1583237583073,-0.18159999,-5.5512,1.3737999,2.8137423999999998,4.10416,0.6329406999999999,-1
1182,1183,1583237583084,-0.0374,-5.2346997,1.6035,1.7043078,3.9093769,0.9471748999999999,-1
1183,1184,1583237583094,-0.9084,-5.5074,1.8682,0.21284452,3.5386300000000004,1.3415287,-1
1184,1185,1583237583104,-2.2129,-5.9255,2.2846,-1.2143583,3.2778153,1.4608749,-1
1185,1186,1583237583114,-3.4557998,-6.2303,2.4185,-2.0976557999999996,3.1776228,1.3496498,-1
1186,1187,1583237583124,-3.8957,-6.139199700000001,1.9293,-1.7767179,3.4868580000000002,0.8408148999999999,-1
1187,1188,1583237583134,-3.8957,-6.139199700000001,1.9293,-1.1279947,3.8426456,0.09622775,-1
1188,1189,1583237583145,-2.5077,-5.2743,0.62369996,-0.55232316,4.448906,-0.50108725,-1
1189,1190,1583237583155,-1.7624999,-4.6358,0.3038,0.16096696,5.068745,-0.7422983,-1
1190,1191,1583237583165,-1.2028999,-4.0751,0.3755,0.6317628000000001,5.6317945,-0.6195906999999999,-1
1191,1192,1583237583175,-1.2028999,-4.0751,0.3755,0.9065309000000001,5.9681892,-0.47887868,-1
1192,1193,1583237583187,-0.73929995,-3.4822998,0.45589998,0.8956516999999999,6.1673584,-0.62260735,-1
1193,1194,1583237583197,-1.1328,-3.3809,0.217,0.18372147,6.333966,-0.8846767,-1
1194,1195,1583237583207,-1.7709999,-3.2098,0.1125,-0.38613683,6.4508224,-0.9851948,-1
1195,1196,1583237583217,-1.9857999,-3.1747,0.1337,-0.48451940000000004,6.5219297,-0.90657884,-1
1196,1197,1583237583228,-1.8999,-2.8439,0.2652,-0.2355703,6.9878035,-0.83374727,-1
1197,1198,1583237583238,-1.3379999,-2.4234,0.1651,0.49229574,7.3063474,-1.027103,-1
1198,1199,1583237583249,-0.638,-2.1485,-0.15079999,1.150998,7.7562175,-1.6523151000000003,-1
1199,1200,1583237583259,-0.12539999,-1.7062998999999999,-0.7866,1.6084726,8.112675999999999,-2.2059505,-1
1200,1201,1583237583269,0.1647,-1.4506999,-1.1952,1.5572270000000001,8.26647,-2.409266,-1
1201,1202,1583237583279,-0.2157,-1.2748,-1.2542,1.0483921999999999,8.488565,-2.194075,-1
1202,1203,1583237583290,-0.2157,-1.2748,-1.2542,0.8850885000000001,8.587226,-1.5285158,-1
1203,1204,1583237583301,-0.6231,-1.0049,-0.122999996,0.7567593,8.840082,-1.0037546999999998,-1
1204,1205,1583237583311,-0.6705,-0.7611,0.1637,0.7947026,9.064907,-1.1851299,-1
1205,1206,1583237583321,-0.60109997,-0.5556,-0.091199994,1.0176028,9.257372,-1.654652,-1
1206,1207,1583237583331,-0.3118,-0.3391,-0.58919996,1.4052719,9.466664,-2.169118,-1
1207,1208,1583237583341,0.057999999999999996,-0.15179999,-1.0651,1.7969921000000002,9.683396,-2.4187088,-1
1208,1209,1583237583351,0.4707,0.0739,-1.2601,2.1647892000000004,9.789632000000001,-2.3901124,-1
1209,1210,1583237583361,0.7734,0.17119999,-1.1823,2.3007128,10.017186,-2.1026933,-1
1210,1211,1583237583372,0.8736,0.4244,-0.9228,2.23832,10.183612,-1.8416392,-1
1211,1212,1583237583382,0.7658,0.5688,-0.71029997,2.0683700000000003,10.348736,-1.7378168999999999,d
1212,1213,1583237583392,0.5972,0.6932,-0.6392,1.8532939999999998,10.317247,-1.6750026999999998,-1
1213,1214,1583237583402,0.4052,0.6408,-0.5725,1.7642776999999998,10.273816,-1.5663635,-1
1214,1215,1583237583412,0.31399998,0.5981,-0.3866,1.6648512,10.184025,-1.3375639,-1
1215,1216,1583237583423,0.25349998,0.4865,-0.2692,1.5514045,10.002391000000001,-1.4121385,-1
1216,1217,1583237583433,0.14469999,0.2965,-0.377,1.3252864,9.915538,-1.5335437,-1
1217,1218,1583237583443,-0.0232,0.2436,-0.50729996,1.1494083000000002,9.943081,-1.6717081999999999,-1
1218,1219,1583237583453,-0.1743,0.2687,-0.6552,1.2592353,10.012399,-1.5715731000000002,-1
1219,1220,1583237583464,-0.0643,0.3326,-0.5976,1.4612867,10.0461855,-1.1862983,-1
1220,1221,1583237583474,0.1524,0.36659998,-0.24409999,1.4071586,9.886118,-0.78420645,-1
1221,1222,1583237583484,0.1094,0.19399999,0.1183,1.0642418,9.487024,-0.36542222,-1
1222,1223,1583237583494,-0.19929999,-0.21419999,0.4969,0.4006936,9.024053,0.062632315,-1
1223,1224,1583237583505,-1.5310999,-1.247,1.3729999,-0.5026291,8.368674,0.66807806,-1
1224,1225,1583237583515,-2.1622999,-1.6843,1.7957,-1.0951844,7.955913000000001,1.0824378000000001,-1
1225,1226,1583237583525,-2.3218,-2.0029,2.1181,-1.1997153999999999,7.674738400000001,1.4075799,-1
1226,1227,1583237583536,-2.306,-2.2716,2.3858,-1.2137548999999999,7.4025655,1.7141144,-1
1227,1228,1583237583545,-2.4454,-2.5986,2.7258,-1.424052,7.0555687,2.1064377,-1
1228,1229,1583237583555,-2.8537998,-3.0918999,3.0714998,-1.8834993000000002,6.5037627,2.4693317,-1
1229,1230,1583237583565,-3.5491,-3.8105,3.6311,-2.6268606,5.7679768,3.184949,-1
1230,1231,1583237583575,-4.2279,-4.5287,4.6611,-3.233082,5.04804,4.3057704,-1
1231,1232,1583237583586,-4.7746,-5.3536997,5.9016,-3.7823693999999994,4.204649,5.6123633,-1
1232,1233,1583237583596,-5.4263997,-6.2556,6.9466996,-4.4594974999999994,3.3039410000000005,6.566509700000001,-1
1233,1234,1583237583607,-6.3132997,-7.2341,7.4262,-5.326074,2.2924962000000004,6.934633,-1
1234,1235,1583237583616,-6.9319,-8.2787,7.4637,-5.8496284,1.2619933,6.914799,-1
1235,1236,1583237583626,-7.4270997,-9.1631,7.473799700000001,-6.2402472,0.41615057,6.9904656,-1
1236,1237,1583237583637,-7.6158,-9.8181,7.8518996,-6.1766190000000005,-0.3428401,7.5939193,-1
1237,1238,1583237583647,-7.3658,-10.3601,8.426499,-5.6986217,-0.7825209,8.183525,-1
1238,1239,1583237583657,-7.089299700000001,-10.610999999999999,9.0447,-5.267665,-1.0130538,8.837439999999999,-1
1239,1240,1583237583667,-6.5277,-10.6284,9.849299,-4.4980535999999995,-1.0045687,9.584545,-1
1240,1241,1583237583678,-5.4049997,-10.753799,10.788799000000001,-2.7685779999999998,-1.2616389,10.600864,-1
1241,1242,1583237583687,-4.1956,-10.6723995,11.384299,-1.7561563999999998,-1.0405488,11.0032625,-1
1242,1243,1583237583697,-3.2307,-9.9021,11.3855,0.14490665,-0.12483368,10.462374,-1
1243,1244,1583237583707,-0.9353,-8.998899,9.8123,2.8778303,0.7827603,8.151874000000001,-1
1244,1245,1583237583717,0.88909996,-7.942,6.8968,4.552153,1.6787089,5.1352468,-1
1245,1246,1583237583728,2.0168,-7.2053,4.2667,5.957846,2.0932505,2.8345625,-1
1246,1247,1583237583738,3.1271,-6.81,2.8012,7.3217845,2.5435423999999998,2.0042915,-1
1247,1248,1583237583748,4.0188,-5.6591997,2.7094,8.682025999999999,3.9292681000000003,2.1952915,-1
1248,1249,1583237583758,5.8009996,-3.9471,2.8467999,11.310918,5.498064,2.229835,-1
1249,1250,1583237583768,8.2606,-2.1914,2.3262,14.652141,7.7455297000000005,1.0199011999999998,-1
1250,1251,1583237583779,10.7317,0.12329999,0.7037,17.036423000000003,9.668055,-0.91958416,-1
1251,1252,1583237583789,12.520999999999999,1.8312,-1.3664,18.369513,10.549217,-2.9614263,-1
1252,1253,1583237583799,13.037399,2.5807,-3.2424998,18.497343,10.893072,-4.284884,-1
1253,1254,1583237583809,12.7863,3.1841998,-4.7788997,18.811981,11.658747,-6.024338200000001,-1
1254,1255,1583237583819,13.4495,4.2474,-6.2476997,20.641975,12.904498,-7.451512299999999,-1
1255,1256,1583237583830,15.608398999999999,5.8539,-7.8199,23.373863,14.503854,-9.117983,-1
1256,1257,1583237583840,17.958399,7.487,-9.5954,25.176937,15.538263,-10.533472999999999,-1
1257,1258,1583237583850,19.035999999999998,8.356,-10.7666,25.389132,15.790123999999999,-11.265945,-1
1258,1259,1583237583860,18.41,8.301499,-11.3445,24.186771,15.299973499999998,-11.607846,-1
1259,1260,1583237583870,17.1087,7.8799996,-11.513599000000001,23.152275,14.705186999999999,-11.741414,-1
1260,1261,1583237583881,16.072198999999998,7.1685996,-11.8629,22.190668,13.896799,-13.4949465,-1
1261,1262,1583237583891,15.3902,6.6259,-13.663898999999999,21.889035999999997,13.367163,-15.510491,-1
1262,1263,1583237583901,15.1157,6.1001997,-15.5123,21.524487,12.729051,-17.141565,-1
1263,1264,1583237583911,14.710199,5.4526997,-16.9541,20.905125,11.784538000000001,-18.247494,-1
1264,1265,1583237583921,14.030399,4.3648,-17.805,19.737175,10.3847065,-18.430489,-1
1265,1266,1583237583932,12.835199000000001,2.8718998,-17.7417,18.538956,9.124619500000001,-18.045182999999998,-1
1266,1267,1583237583942,11.2543,1.2278,-17.0437,16.133635,7.214295,-16.770971,-1
1267,1268,1583237583952,9.2195,-0.5175,-15.7098,13.779109,5.2481,-14.793217000000002,-1
1268,1269,1583237583962,6.9142,-2.6243,-13.5792,11.214728,3.2783036,-12.345825,-1
1269,1270,1583237583973,4.6057997,-4.6629,-11.1199,9.306013,1.7251276999999998,-10.634326,-1
1270,1271,1583237583983,2.9208998999999998,-6.2303996,-9.6483,7.608466,0.42123583,-9.854525,-1
1271,1272,1583237583993,1.7149999,-7.3992996,-9.014999000000001,7.005377,-0.44130883,-9.369575,-1
1272,1273,1583237584003,1.2480999,-8.3341,-8.5139,6.536496,-1.1904738000000001,-8.511205,-1
1273,1274,1583237584013,0.9192,-9.1821995,-7.638099700000001,6.048394999999999,-1.8840356,-7.1446423999999995,-1
1274,1275,1583237584024,0.5527,-9.955299,-6.2860000000000005,5.526679,-2.619726,-5.610151,-1
1275,1276,1583237584034,0.1484,-10.7713995,-4.7799997,4.8069158,-3.3799136,-4.1080766,-1
1276,1277,1583237584044,-0.4701,-11.600599,-3.3167,4.0733705,-3.9088216,-2.5028121,-1
1277,1278,1583237584054,-1.0986,-12.2058,-1.7681999,3.4113927000000004,-4.24423,-0.9570199,-1
1278,1279,1583237584065,-1.6825,-12.594299000000001,-0.26749998,2.8593855,-4.365511,0.14013742,-1
1279,1280,1583237584075,-2.3555999,-12.6923,1.3364999,2.6471827,-4.2282557,0.8940045,-1
1280,1281,1583237584085,-2.1578999,-12.4972,1.9484999,2.8764515,-4.021961699999999,1.6197253,-1
1281,1282,1583237584095,-1.9272,-12.238,2.8026,3.1383099999999997,-3.7433822,2.5643144,-1
1282,1283,1583237584105,-1.5331999,-11.7787,3.6899,3.5864184,-3.3018913,3.5997686,-1
1283,1284,1583237584116,-1.5331999,-11.7787,3.6899,3.7893126000000006,-3.1294992,4.9147787,-1
1284,1285,1583237584126,-1.8756,-11.7077,6.499399700000001,3.1079035,-3.4329693,6.7823424,-1
1285,1286,1583237584136,-2.8197,-11.854000000000001,8.4887,2.25054,-3.6040587,8.920345,-1
1286,1287,1583237584146,-3.8502,-11.9671,10.6684,1.3094943,-3.7891116,11.20405,-1
1287,1288,1583237584157,-4.631,-12.0125,12.658,0.7910634,-3.8639925,13.456954999999999,-1
1288,1289,1583237584166,-4.572,-11.7864,14.684999,1.299994,-3.6572292,15.396737,-1
1289,1290,1583237584176,-3.6571998999999997,-11.116099,16.2106,2.4563265,-3.0647984,16.782225,-1
1290,1291,1583237584186,-2.3225,-9.9607,17.6068,4.075755,-2.0348415,18.28903,-1
1291,1292,1583237584196,-0.71279997,-8.6963,18.873998999999998,5.981003,-0.9551620000000001,19.70678,-1
1292,1293,1583237584207,1.0777,-7.3005,20.4453,7.965585000000001,0.17238252,21.583557,-1
1293,1294,1583237584217,2.1597,-6.2365,22.509698999999998,9.073382,1.0731387,24.011993,-1
1294,1295,1583237584227,1.8898,-5.4519997,23.7832,8.678301,1.4502542,25.035535999999997,-1
1295,1296,1583237584237,1.0582,-4.9228997,24.1075,7.979472,1.8515511999999998,25.08343,-1
1296,1297,1583237584248,0.3184,-3.9898,23.6164,7.8680363,3.1489305,24.120012,-1
1297,1298,1583237584258,0.6789,-2.3114,22.6112,8.956699,4.460666000000001,23.50541,-1
1298,1299,1583237584268,2.3969,-0.35189998,22.0353,11.843292,6.4275025999999995,23.275078,-1
1299,1300,1583237584278,4.9907,1.6071999,21.8337,14.2205715,7.6731677,23.158068,-1
1300,1301,1583237584288,7.4406,3.1455,21.085998999999997,16.558872,8.644878,21.876739999999998,-1
1301,1302,1583237584299,7.4406,3.1455,21.085998999999997,16.95565,8.869741000000001,19.85501,-1
1302,1303,1583237584309,8.4585,4.5029,16.9942,17.03506,9.353849,18.012997,-1
1303,1304,1583237584319,8.6977,5.192,15.3663,17.951935,9.861055,16.96245,-1
1304,1305,1583237584329,9.982699,6.0325,14.3081,19.30125,10.479316,16.37655,-1
1305,1306,1583237584339,11.82,7.0425,13.3518,21.62286,11.270024000000001,15.257816,-1
1306,1307,1583237584350,13.5413,7.6387,11.981199,22.73827,11.365122,13.838898,-1
1307,1308,1583237584360,14.2519,7.6580997,10.1661,22.977365,10.99652,11.871601,-1
1308,1309,1583237584371,14.263599,7.2018,7.9484997,22.641189999999998,10.261405,9.977127000000001,-1
1309,1310,1583237584381,13.839,6.343899700000001,6.2037,22.180805,9.213587,8.425492,-1
1310,1311,1583237584391,13.623199,5.6172,4.7682,22.492203,9.178842999999999,6.3851447,-1
1311,1312,1583237584401,14.1993,5.6541,2.3999,23.741287,9.532409,3.2131912999999996,-1
1312,1313,1583237584411,15.5864,5.9754996,-1.0047,24.736624,9.903222999999999,0.29949549999999997,-1
1313,1314,1583237584421,16.653599,6.1980996,-4.6663,24.955206,10.035891000000001,-3.5274059999999996,-1
1314,1315,1583237584432,16.605099,6.1636,-7.4501,24.509384,10.317601,-4.875744,-1
1315,1316,1583237584442,16.2156,6.339699700000001,-8.4382,24.194595,10.688052,-4.4376050000000005,-1
1316,1317,1583237584452,15.978999,6.45,-7.5955997,23.66946,10.697034,-2.5133083,-1
1317,1318,1583237584462,15.5166,6.2008,-5.5364,23.030727,10.239291999999999,-1.0942651,-1
1318,1319,1583237584472,14.9087,5.410599700000001,-4.3224998,22.048798,9.610038000000001,-0.880281,-1
1319,1320,1583237584483,13.937698999999999,4.6135,-4.2103,20.737732,9.333699000000001,-1.5503893,-1
1320,1321,1583237584493,12.7688,4.026,-4.7941,19.389042,8.290583999999999,-2.1930506000000003,-1
1321,1322,1583237584503,11.7835,2.7924,-5.0783,18.24918,7.0229691999999995,-1.953659,-1
1322,1323,1583237584513,10.7775,1.2248,-4.5852,16.675279999999997,6.174732,-1.4358315000000001,-1
1323,1324,1583237584523,9.3526,0.0665,-3.7659,15.147444,5.572447,-1.647747,-1
1324,1325,1583237584534,7.9740996,-0.8322,-3.6562997999999998,13.84087,4.6867743,-2.64973,-1
