,Seq,Time,ACCx,ACCy,ACCz,ADGx,ADGy,ADGz,Keydown
0,1,1580693998002,0.0,0.0,0.0,0.0,0.0,0.0,-1
1,2,1580693998012,-0.23609999,0.0106999995,0.066,-0.54460424,2.519361,8.794785000000001,-1
2,3,1580693998022,0.042099997,-0.24249999,-0.8379,-0.38364688,2.4822989,8.536802999999999,-1
3,4,1580693998032,0.042099997,-0.24249999,-0.8379,-0.2524159,2.4001584,8.491122,-1
4,5,1580693998042,0.46989998,-0.43879998,-0.89449996,0.034026396,2.3245017999999997,8.518416,-1
5,6,1580693998052,0.4786,-0.3425,-0.8777,0.077122025,2.3928514,8.542042,-1
6,7,1580693998062,0.8007,-0.2588,-0.8336,0.58169526,2.6290631,8.535664,-1
7,8,1580693998073,1.1012,-0.0143,-0.9181,0.8416385000000001,2.7755693999999997,8.4509,-1
8,9,1580693998083,1.5116,0.124299996,-1.0913,1.1968518,2.8956623,8.191157,-1
9,10,1580693998093,1.6883999,0.27399999999999997,-1.4216,1.3325168,2.9044157999999998,7.945081699999999,-1
10,11,1580693998103,1.765,0.1114,-1.5169,1.3737738000000002,2.5838799999999997,7.92679,-1
11,12,1580693998113,1.6439999,-0.2174,-1.5445,1.2125003,2.2745490000000004,7.903106,-1
12,13,1580693998123,1.4211,-0.4007,-1.5913,1.0526443,2.2625206,7.7830520000000005,-1
13,14,1580693998133,1.3211,-0.22929999,-1.8123,1.1139455,2.5238814,7.408924000000001,-1
14,15,1580693998143,1.4355999,0.099599995,-2.2758,1.3196648000000002,2.8551526000000003,6.996308,-1
15,16,1580693998153,1.7304,0.6698,-2.7477999,1.7416381,3.5315912000000003,6.578969,-1
16,17,1580693998163,2.3002,1.4207,-3.0541,2.497296,4.179108,6.4035993,-1
17,18,1580693998173,3.2252998,1.7693,-3.0196,3.6659634,4.2810817000000005,6.654789,-1
18,19,1580693998183,4.0503,1.7168,-2.7230000000000003,4.4169865,4.1445165,6.930792299999999,-1
19,20,1580693998193,4.5786,1.6216999,-2.4473,4.814299,4.0962877,7.220721000000001,-1
20,21,1580693998204,4.8043,1.6141,-2.1411998,4.9784837,3.9245849,7.6356744999999995,-1
21,22,1580693998214,4.7604,1.4923999,-1.7437999,5.058527,3.8575760999999997,7.9748178,-1
22,23,1580693998224,4.6802998,1.3619,-1.3712,4.9563136,3.587472,8.485578,-1
23,24,1580693998234,4.2774,1.0474,-0.7285,4.5388126,3.3542957,9.246360000000001,-1
24,25,1580693998245,3.6108,0.9026,0.0779,4.142678,3.2267517999999997,10.038505,-1
25,26,1580693998255,3.1595,0.7874,0.8742,4.341329,3.162118,10.899564999999999,-1
26,27,1580693998265,3.2377,0.7428,1.6179999,5.007425,3.1369404999999997,11.730209,-1
27,28,1580693998275,3.5719,0.66139996,2.5542998,5.9921217,3.4180292999999997,12.656592,-1
28,29,1580693998285,3.6546998,0.7406,3.7554,6.8708990000000005,3.7450294,13.550626000000001,-1
29,30,1580693998295,4.365999700000001,1.0954,4.6775,7.226495699999999,3.823406,14.482601999999998,-1
30,31,1580693998306,4.4816,1.1280999,5.6197,6.434953,3.472895,15.467319,-1
31,32,1580693998316,3.5442998,0.7242,6.5729,5.244566000000001,2.6178298,16.452417,-1
32,33,1580693998326,2.4004,-0.1196,7.5386996,4.1998034,1.6568067,17.26251,-1
33,34,1580693998337,1.5152,-1.0088999,8.1924,3.6087325,1.0065128,17.355022,-1
34,35,1580693998347,0.9467,-1.7809,8.010799,2.8265755,0.27181852,16.739483,-1
35,36,1580693998357,0.3042,-2.3397,7.4353,2.4184213,-0.32650208,16.360615,-1
36,37,1580693998367,0.0866,-2.9938998,7.1587996,2.000346,-1.2556918,16.763453,-1
37,38,1580693998378,-0.2685,-4.0478,7.7455997000000005,1.2096944,-2.8312776,18.522884,-1
38,39,1580693998389,-0.8897,-5.4133997,9.2914,-0.015418659,-4.227643,20.536293,-1
39,40,1580693998399,-3.5084,-8.2073,12.700999000000001,-1.9487748,-5.8249874,22.090887,-1
40,41,1580693998409,-5.187999700000001,-9.3263,12.877399,-3.3609612,-6.6385559999999995,22.135687,-1
41,42,1580693998420,-6.6299,-10.0689,12.2463,-4.890185400000001,-7.2949600000000006,21.499261999999998,-1
42,43,1580693998430,-7.5066,-10.842,11.1665,-6.104592,-8.137183,20.188013,-1
43,44,1580693998440,-8.6703,-11.7421,10.184199000000001,-7.424544,-8.910846000000001,19.233772000000002,-1
44,45,1580693998450,-9.5952,-12.3069,9.2513,-8.38775,-9.261347,18.266111,-1
45,46,1580693998460,-10.002,-12.186999,8.0956,-8.869597,-8.927058,17.050749,-1
46,47,1580693998470,-9.9741,-11.776199,6.9147997000000005,-8.9001,-8.308512,15.753464000000001,-1
47,48,1580693998481,-9.7477,-11.1876,5.8939,-8.768678,-7.6508055,14.791609,-1
48,49,1580693998491,-9.2606,-10.6029,4.9722,-8.395967500000001,-6.990915299999999,13.825576000000002,-1
49,50,1580693998501,-8.811,-10.2574,3.9434998,-8.27395,-6.723397,13.07576,-1
50,51,1580693998511,-8.564,-10.33,2.7896,-8.28005,-6.7785983,11.401237,-1
51,52,1580693998521,-8.7296,-10.5467,1.5559,-8.828188,-6.771425,10.098608,-1
52,53,1580693998531,-9.2706995,-10.6342,0.3859,-9.499827999999999,-6.720236999999999,8.921025,-1
53,54,1580693998541,-9.670899,-10.6837,-0.768,-9.941913000000001,-6.5943785,7.604693400000001,-1
54,55,1580693998552,-9.726,-10.677199,-2.1116,-10.075108,-6.425003,6.479677,-1
55,56,1580693998562,-9.6722,-10.2081995,-3.3436,-10.031275,-5.6863437,5.115174,-1
56,57,1580693998572,-9.3699,-9.8928995,-3.9410000000000003,-9.924436,-5.357984,4.664795400000001,-1
57,58,1580693998582,-9.3947,-9.7916,-4.144,-10.255438999999999,-5.150972,4.4345593,-1
58,59,1580693998592,-9.7046995,-9.6187,-4.4237,-10.640733,-4.952684,3.8779745,-1
59,60,1580693998603,-9.800799000000001,-9.624499,-4.8859,-10.829807,-4.8421582999999995,3.5606952000000005,-1
60,61,1580693998613,-9.8182,-9.4199,-5.0003,-10.9465685,-4.3738904000000005,3.4343386,-1
61,62,1580693998623,-9.6378,-8.9418,-5.1769,-10.307116,-3.884803,3.1131136,-1
62,63,1580693998633,-8.544,-8.554299,-5.5196,-9.320177000000001,-3.4989245,2.6757982000000005,-1
63,64,1580693998643,-7.1747,-8.017099,-6.3006997,-7.688212400000001,-2.8111184,1.5216013000000002,-1
64,65,1580693998653,-5.7218,-7.5755,-7.2159996,-6.6277729999999995,-2.5295603,0.8159152,-1
65,66,1580693998664,-4.5899997,-7.3039,-7.9052997000000005,-5.7422533,-2.0935857,0.08965807,-1
66,67,1580693998674,-4.1038,-7.1155996,-8.3276,-5.4832296,-1.9277633,-0.37902126,-1
67,68,1580693998684,-3.9359998999999997,-6.9869,-8.7311,-5.4123325,-1.7146218999999998,-0.574436,-1
68,69,1580693998694,-3.8165998,-6.7454996,-8.6897,-5.2475924,-1.3698665,-0.27824453,-1
69,70,1580693998704,-3.658,-6.455899700000001,-8.2354,-4.940406299999999,-1.0694706,0.20205146,-1
70,71,1580693998715,-3.2694,-6.1966,-7.7696996,-4.2304683,-0.7622563,0.6039613,-1
71,72,1580693998725,-2.4011,-5.8813996,-7.4568,-2.8217293999999997,-0.36113182,0.76389396,-1
72,73,1580693998735,-1.2056,-5.5910997,-7.382899799999999,-1.5490773000000002,0.0006703764699999999,0.6332759,-1
73,74,1580693998745,-0.062699996,-5.2675,-7.5666,-0.5202026,0.43113828,0.31940567,-1
74,75,1580693998755,0.9305,-4.8406,-7.9006,0.40387312,0.8166909000000001,0.085109085,-1
75,76,1580693998766,1.9607999,-4.3075,-8.1122,1.2709285,1.2860694,0.06725791,-1
76,77,1580693998776,3.0161998,-3.7821998999999997,-7.9294996,2.524743,1.955086,0.52146673,-1
77,78,1580693998786,3.6267998,-3.2940998,-7.6071,2.964127,2.2142055,0.6246185000000001,-1
78,79,1580693998797,3.9031,-3.0526998,-7.6064997000000005,3.2174337000000004,2.299085,0.40258983,-1
79,80,1580693998807,4.0352,-2.9815,-7.9111,3.5134814,2.0142229,0.067468606,-1
80,81,1580693998817,4.25,-3.2250997999999997,-8.1994,4.0450040000000005,1.7852892,0.010170569,-1
81,82,1580693998827,4.7049,-3.4103,-8.297,4.5854707,2.2549837000000004,0.15948255,-1
82,83,1580693998837,5.1526,-2.8697999,-8.1992,4.965536,2.9035826,0.51719546,-1
83,84,1580693998848,5.5418,-1.9900999,-7.7612996,5.3155203,3.4896255,1.3301323999999999,-1
84,85,1580693998858,5.8261,-1.3481,-6.9930997,5.6784816,3.4545362,2.2432902,-1
85,86,1580693998868,6.443,-1.6708,-6.1464,6.3592105000000005,2.754347,2.4877863,-1
86,87,1580693998878,7.3606997000000005,-2.1972,-6.3304,7.440862700000001,2.1274877,2.3878713,-1
87,88,1580693998888,8.1952,-2.6562997999999998,-6.3634996,8.146587,1.5644577,2.5348277,-1
88,89,1580693998899,8.708799,-2.7605999,-5.5943,8.659588000000001,1.4348929,3.2928127999999997,-1
89,90,1580693998909,8.708799,-2.7605999,-5.5943,8.510775,2.2344127,4.323535400000001,-1
90,91,1580693998919,8.1009,-0.95669997,-3.5470998,8.3257885,2.8106202999999996,5.796956,-1
91,92,1580693998929,8.6601,-1.3859,-2.2196999,9.041703,2.0407889999999997,7.119034299999999,-1
92,93,1580693998939,9.302199,-1.78,-1.6752,9.723953999999999,1.4667071000000003,7.660162,-1
93,94,1580693998949,10.0654,-1.8493998999999999,-0.946,10.7042465,1.137284,8.664655,-1
94,95,1580693998959,11.1623,-1.8379999,0.88049996,11.881436,1.0057563,10.739115,-1
95,96,1580693998970,12.166599,-1.1577,3.0893,12.953924,1.5025244,12.987616000000001,-1
96,97,1580693998980,12.5941,-0.35639998,4.9728,13.391565,1.9977889,14.799882,-1
97,98,1580693998990,12.7196,0.2529,6.45,13.494198999999998,2.3490757999999996,16.32677,-1
98,99,1580693999000,12.7196,0.2529,6.45,13.447417000000002,2.49608,17.317041,-1
99,100,1580693999010,12.4725,0.84,8.218599000000001,13.312241,2.2115432999999998,18.18969,-1
100,101,1580693999020,12.3166,0.7923,9.0823,13.268637,2.0070498,19.157541000000002,-1
101,102,1580693999030,12.5984,0.79399997,9.8874,13.752668,1.8395514,19.7267,-1
102,103,1580693999040,12.9108,0.95129997,10.4751,13.994128,1.8727541,20.241177,-1
103,104,1580693999050,12.8385,1.2218,10.821799,13.977272,2.0674314,20.661137,-1
104,105,1580693999061,12.8691,1.7701,11.4154,14.066432999999998,2.5252411,21.262062,-1
105,106,1580693999071,12.8588,2.3899,11.9408,13.982079999999998,3.0227562999999997,21.803383,-1
106,107,1580693999081,12.5682,2.5546,12.2217,13.545254000000002,2.937446,22.044306,-1
107,108,1580693999091,12.007299,2.3648999,12.3961,12.913108,2.5961096,22.111917000000002,-1
108,109,1580693999102,11.4323,1.7876999,12.1999,12.286172,1.7933816000000002,21.826777,-1
109,110,1580693999112,10.361199000000001,0.84929997,11.898,10.993801,0.8497405000000001,21.437479999999997,-1
110,111,1580693999122,8.9344,-0.21959999,11.323299,9.61406,-0.23507229999999998,20.790817,-1
111,112,1580693999132,7.482199700000001,-1.3946999,10.6712,8.069599,-1.3716574,20.202751,-1
112,113,1580693999142,5.8152,-2.6259,10.2646,6.0288296,-2.6950762000000004,19.76967,-1
113,114,1580693999153,4.0841,-3.8116999,9.8483,4.498657,-3.541053,19.338848000000002,-1
114,115,1580693999163,2.0022,-4.9248,9.2663,2.3406386,-4.4227896,18.718645000000002,-1
115,116,1580693999173,-0.0163,-5.7606,8.667399000000001,0.14963761,-4.9837317,17.98191,-1
116,117,1580693999183,-1.5321,-6.0997,8.013,-0.9344186,-4.9660150000000005,17.391941,-1
117,118,1580693999193,-2.6852,-6.1319,7.223799700000001,-2.2162262999999998,-4.6643357000000005,16.379739999999998,-1
118,119,1580693999204,-3.6183998999999996,-5.9301,6.357599700000001,-3.0752083999999997,-4.0995917,15.411514000000002,-1
119,120,1580693999214,-4.2623,-5.3616,5.3648996,-3.5311122000000004,-3.4677138,14.623956,-1
120,121,1580693999224,-4.5255,-4.7887,4.5699997,-3.7237308,-2.6837852000000004,13.783419,-1
121,122,1580693999234,-4.5,-4.3424,3.9255,-3.5345695,-2.119424,13.146169,-1
122,123,1580693999245,-4.0657997,-4.0482,3.3058,-3.0636107999999997,-1.9260012,12.46837,-1
123,124,1580693999256,-3.5900998,-4.1997,2.7201998,-3.0377822,-2.2575407000000003,12.0314865,-1
124,125,1580693999266,-3.7577998999999997,-4.7127,2.4901,-3.790002,-2.6425762,11.946042,-1
125,126,1580693999276,-4.5371,-5.1998,2.4666,-4.949916,-2.7270055,11.874895,-1
126,127,1580693999286,-5.6285,-5.3982,2.4243,-6.0332446,-2.5509548,11.508574000000001,-1
127,128,1580693999297,-6.5400996,-5.2977,1.9354999,-6.4827895,-2.2789447,10.208186,-1
128,129,1580693999306,-6.6303,-5.2402997000000004,0.46449998,-5.92133,-1.9930772,7.9665623,-1
129,130,1580693999316,-5.9138,-5.0997996,-1.791,-5.5567985,-1.755352,5.7165303,-1
130,131,1580693999326,-5.4961,-5.0793,-3.9127,-5.4352207,-1.6875673999999998,3.8289413,-1
131,132,1580693999336,-5.276799700000001,-5.2243,-5.6404,-5.591907,-1.6296182,2.4459834,-1
132,133,1580693999346,-5.3947997,-5.3217998,-6.8301997000000005,-6.243427,-1.5772713,1.6749452,-1
133,134,1580693999357,-5.9944,-5.3901997,-7.4444,-7.180220599999999,-1.3935594999999998,1.1922262,-1
134,135,1580693999367,-6.8181,-5.2967,-7.8747997000000005,-8.005914,-1.0907503,0.44534066,-1
135,136,1580693999377,-7.3293,-5.154,-8.4635,-8.228717999999999,-0.9595961,-0.17301458,-1
136,137,1580693999387,-7.487,-5.1291,-9.1524,-8.433164,-1.0159364,-0.9976734,-1
137,138,1580693999398,-7.594599700000001,-5.2981997000000005,-9.9432,-8.651216999999999,-1.0575668,-1.7928262,-1
138,139,1580693999408,-7.916599799999999,-5.2518997,-10.533199,-8.9541235,-0.86103153,-1.8428745,-1
139,140,1580693999418,-7.916599799999999,-5.2518997,-10.533199,-9.180921000000001,-0.8113758000000001,-1.911023,-1
140,141,1580693999428,-8.2083,-5.1538,-11.0173,-9.357738000000001,-0.6706638,-2.378237,-1
141,142,1580693999438,-7.7702,-4.7318997000000005,-11.597799,-8.803585,-0.12658623,-3.1220582,-1
142,143,1580693999449,-6.7665997,-4.2507997,-12.195,-8.016131,0.27720067,-3.5877495,-1
143,144,1580693999458,-5.9466,-3.8865,-12.3881,-7.2246666,0.6337931,-3.7887285000000004,-1
144,145,1580693999468,-5.481,-3.7052998999999995,-12.5504,-6.7736754,0.8040878,-3.9425797,-1
145,146,1580693999478,-5.481,-3.7052998999999995,-12.5504,-6.622793,0.68131316,-4.342421,-1
146,147,1580693999488,-5.1726,-4.5664997000000005,-13.1717,-6.4025264,-0.23469879999999999,-4.5474415,-1
147,148,1580693999498,-5.1726,-4.5664997000000005,-13.1717,-6.124636,-0.4823263,-4.5032252999999995,-1
148,149,1580693999509,-4.4424,-5.2741,-13.0053,-5.762671,-0.9883456,-4.295274299999999,-1
149,150,1580693999519,-4.7146,-5.6877,-12.856999,-6.017165,-1.4954183,-4.107272,-1
150,151,1580693999529,-4.8505,-5.8652,-12.922999,-6.1505413,-1.7987828000000001,-4.112415,-1
151,152,1580693999539,-4.8505,-5.8652,-12.922999,-6.388142,-2.332192,-3.7215949999999998,-1
152,153,1580693999549,-5.4561996,-7.2942995999999996,-11.491799,-6.7513137,-3.7545393,-2.2969202999999996,-1
153,154,1580693999559,-5.4561996,-7.2942995999999996,-11.491799,-6.711771000000001,-4.676096,-1.2029045,-1
154,155,1580693999570,-4.8422,-8.9821,-8.6778,-5.6844954,-5.686018499999999,0.80182767,-1
155,156,1580693999580,-3.5872998,-9.2824,-7.0604,-4.2871633000000005,-6.092525,2.4233822999999997,-1
156,157,1580693999590,-2.4833,-9.1473,-6.0394998,-3.1672702,-6.004476,3.379885,-1
157,158,1580693999600,-1.8565999,-8.393599499999999,-5.5653,-2.5414738999999997,-5.449414,3.9167129999999997,-1
158,159,1580693999610,-1.8565999,-8.393599499999999,-5.5653,-2.4155772,-5.4467516,4.824719,-1
159,160,1580693999621,-2.1908998,-8.446899,-2.5430999,-2.9315755,-6.4468765,7.8510756,-1
160,161,1580693999631,-2.2435,-9.1331,-0.6965,-2.6236715,-7.47918,9.309605,-1
161,162,1580693999641,-1.4444,-10.0317,0.0026,-1.2461342,-8.626117,9.683425999999999,-1
162,163,1580693999651,0.22839999,-10.7346,0.005,0.2683517,-9.207007,9.717203,-1
163,164,1580693999661,1.5935999,-10.622499000000001,0.4339,1.8182142,-9.086359,10.513074000000001,-1
164,165,1580693999671,2.8271,-9.4421,2.169,3.1494193,-7.8360786,13.136717,-1
165,166,1580693999683,3.9122,-7.6446996,5.6359,4.2056546,-6.2177606,17.886974,-1
166,167,1580693999694,3.9122,-7.6446996,5.6359,4.4614897000000004,-5.506530000000001,21.124779,-1
167,168,1580693999704,4.7981997000000005,-5.1551,12.0175,4.6995115,-4.984211,22.021284,-1
168,169,1580693999714,5.1335998,-4.4233,11.6756,5.01998,-4.9780435999999995,19.94642,-1
169,170,1580693999724,5.3494,-4.4723997,9.0232,5.141816599999999,-5.440698599999999,17.527596,-1
170,171,1580693999735,5.6232,-4.6622,7.263099700000001,5.512965,-5.4815917,16.912172,-1
171,172,1580693999745,5.7869,-4.1759,7.4955997000000005,5.4908814,-4.807883,18.428342999999998,-1
172,173,1580693999755,5.6389,-3.2503998,9.7541,5.328334,-4.043462,21.416946,-1
173,174,1580693999765,5.4694,-2.4168,12.049299000000001,5.374217,-3.4536839,22.157263,-1
174,175,1580693999775,5.5951,-1.6544,12.408199,5.736717700000001,-3.1814058,21.489501999999998,-1
175,176,1580693999785,6.2207,-1.1113,11.368199,6.3184705,-2.7107343999999998,19.84754,-1
176,177,1580693999796,6.6737,-0.54789996,9.927899,6.3664510000000005,-2.5569117,18.021107,-1
177,178,1580693999806,6.7869997,-0.35799998,8.1122,6.307132,-2.7689133,16.66189,-1
178,179,1580693999816,6.7841,-0.4043,7.0161,6.212475,-2.4952943,16.583601,-1
179,180,1580693999826,6.6324997,0.0749,7.24,5.765171,-2.0128245,17.5882,-1
180,181,1580693999836,6.1745996,0.62229997,8.366099,5.530510400000001,-1.7724946,18.522568,-1
181,182,1580693999847,6.0042995999999995,0.9546,9.1507,5.5570383,-1.6166223999999998,18.381617000000002,-1
182,183,1580693999857,6.0818,1.1718,8.8176,5.60882,-1.4916260000000001,17.41755,-1
183,184,1580693999867,6.1485,1.4041,7.845,5.553906400000001,-1.3929371000000002,16.470682,-1
184,185,1580693999877,6.099,1.5309,6.9563,5.209380599999999,-1.583726,15.519138,-1
185,186,1580693999887,5.812999700000001,1.3938999,6.1892,4.672447,-1.7604948,14.750926000000002,-1
186,187,1580693999897,5.1201,1.1984,5.2288,3.5362456,-2.1962683,13.483042999999999,-1
187,188,1580693999908,4.1537,0.82589996,4.1628,2.802432,-2.4335527000000003,12.499044999999999,-1
188,189,1580693999918,3.1985,0.574,2.9429998,1.8829821,-2.2347479999999997,11.315017,-1
189,190,1580693999928,2.386,0.8807,1.6880000000000002,1.8605436999999998,-2.1185523999999996,11.017349000000001,-1
190,191,1580693999938,2.386,0.8807,1.6880000000000002,2.2141863999999996,-2.0298426,11.186544,-1
191,192,1580693999949,2.9108,1.1432999,2.123,2.4175692000000004,-1.8984008999999997,11.447434,-1
192,193,1580693999959,3.0930998,1.3564,2.5799,2.6401055,-1.7127066000000002,11.987903,-1
193,194,1580693999970,3.3364,1.4738,3.0967,2.8822742000000003,-1.6749068,12.480207,d
194,195,1580693999980,3.4062997999999998,1.5525999,3.4338998999999997,2.878788,-1.6195913999999998,12.716811,-1
195,196,1580693999990,3.0339,1.4855,3.1955,2.451854,-1.7868979999999999,12.344389,-1
196,197,1580694000000,2.4824998,1.1209999,2.419,1.8713368000000001,-2.150855,11.517144,-1
197,198,1580694000010,1.7416999,0.89489996,1.5864999,1.1767883999999997,-2.3241282,10.731291,-1
198,199,1580694000021,1.1617,0.6235,1.0658,0.5783242,-2.6885831000000002,10.191953999999999,-1
199,200,1580694000032,0.70129997,0.26639998,0.59529996,0.18991765,-2.9387773999999998,9.721599000000001,-1
200,201,1580694000041,0.3372,0.14039999,0.2056,-0.02828031,-2.9744987000000003,9.470149000000001,-1
201,202,1580694000051,0.2635,0.1002,0.0933,-0.07318596,-3.0353689999999998,9.431775,-1
202,203,1580694000061,0.2323,0.018000000000000002,0.2188,-0.08563580000000001,-3.1068406000000004,9.589572,-1
203,204,1580694000071,0.1952,-0.030499997999999997,0.2871,-0.073004,-3.1410587000000003,9.573388000000001,-1
204,205,1580694000082,0.3083,-0.0495,0.17899999,0.19120094,-3.1313956000000003,9.454339,-1
205,206,1580694000092,0.6263,0.0672,0.0999,0.4331494000000001,-3.0046275000000002,9.428002000000001,-1
206,207,1580694000102,0.8348,0.2546,0.27629998,0.72484934,-2.82806,9.750664,-1
207,208,1580694000112,1.0141,0.3084,0.72859997,0.7788338,-2.7527668,10.204634,-1
208,209,1580694000122,0.8441,0.3647,1.0838,0.58073753,-2.7501523,10.462278,-1
209,210,1580694000135,0.63989997,0.3109,1.1932,0.38380970000000003,-2.8550758,10.469202000000001,-1
210,211,1580694000144,0.48700000000000004,0.2315,1.0652,0.12015062,-2.9074707,10.224706,-1
211,212,1580694000155,0.1585,0.18429999,0.7977,-0.20638977,-2.997962,9.876358999999999,-1
212,213,1580694000165,-0.0416,0.053099997,0.3617,-0.17519811,-3.0421395,9.282827000000001,-1
213,214,1580694000175,0.015999998999999997,0.0374,-0.1338,-0.09439858,-3.013553,8.975153,-1
214,215,1580694000185,0.1642,0.0632,-0.3539,0.345445,-2.966818,9.08093,-1
215,216,1580694000195,0.5864,0.1052,-0.2091,0.61430424,-2.899905,9.418560000000001,-1
216,217,1580694000206,0.7926,0.1643,0.1831,0.58246136,-2.9073653,9.857292,-1
217,218,1580694000216,0.7227,0.1601,0.6066,0.38124309999999995,-2.9414876,10.173681,-1
218,219,1580694000226,0.5133,0.1184,0.9032,0.21375433,-2.9605932,10.557797,-1
219,220,1580694000236,0.3416,0.10669999599999999,1.3176,0.13103944,-3.0338557,10.9737,-1
220,221,1580694000246,0.27629998,0.0163,1.7220999,0.18854818,-3.153403,11.28531,-1
221,222,1580694000257,0.3682,-0.0769,2.0079,0.6537416,-3.1264155,11.556859,-1
222,223,1580694000267,0.9417,-0.0176,2.3218,1.390198,-2.9904728,11.989894,-1
223,224,1580694000277,1.6336,0.117199995,2.7719998,1.7559363000000001,-2.940501,12.575755000000001,-1
224,225,1580694000287,1.8851,0.1407,3.2603998,1.6699078,-2.9579978,12.799928999999999,-1
225,226,1580694000297,1.7551,0.1003,3.5019,1.2485091999999998,-3.1254196,12.885823,-1
226,227,1580694000307,1.3725,-0.0733,3.5551998999999994,0.7813525,-3.2672043,12.958158000000001,-1
227,228,1580694000318,0.9131,-0.24159999,3.6267998,0.7282778,-3.3632980000000003,13.044118,-1
228,229,1580694000328,0.8677,-0.3545,3.7071998,0.9183966,-3.4497285000000004,13.215485999999999,-1
229,230,1580694000338,1.0505999,-0.4702,3.8553998,0.99936855,-3.3934742999999994,13.430954000000002,-1
230,231,1580694000348,1.4025999,-0.2514,4.551,1.2469386,-3.1677682000000003,13.9332485,-1
231,232,1580694000358,1.719,0.0013,4.8915,1.5499104,-2.8780699,14.275284,-1
232,233,1580694000368,2.0096,0.1454,4.8663,1.8206658,-2.6764207000000004,14.264270999999999,-1
233,234,1580694000379,2.0096,0.1454,4.8663,2.0511127,-2.5945675,13.864181,-1
234,235,1580694000389,2.2526999,0.1677,4.4451,1.9725541000000002,-2.5272236,13.29076,-1
235,236,1580694000399,2.02,0.078499995,3.3295999,1.7866682,-2.5168135,12.802036,-1
236,237,1580694000409,1.893,-0.0477,2.7842,1.6495762999999999,-2.5386197999999998,12.280655,-1
237,238,1580694000419,1.8741,-0.1174,2.2982,1.5892998,-2.5075432999999996,11.745168,-1
238,239,1580694000429,1.6295998999999999,-0.17459999,2.1081998,1.2799114999999999,-2.4519117,11.666504,-1
239,240,1580694000440,1.2645998999999999,-0.19699999999999998,2.2928998,0.92594314,-2.402658,11.918087,-1
240,241,1580694000450,0.99499995,-0.2827,2.6366,0.6213335999999999,-2.3980707999999997,12.367526,-1
241,242,1580694000460,0.6684,-0.3638,3.1097,0.26616818,-2.411871,12.856882,-1
242,243,1580694000470,0.3947,-0.50339997,3.5247,0.05395573,-2.4461367000000003,13.197721,-1
243,244,1580694000480,0.30879998,-0.5132,3.5175,-0.023578098,-2.3390298,13.086736,-1
244,245,1580694000490,0.3892,-0.33929998,3.0772998,0.12407711,-2.063955,12.636807000000001,-1
245,246,1580694000501,0.6594,-0.2563,2.6358,0.3744244,-1.8621526000000002,12.266913,-1
246,247,1580694000511,0.81189996,-0.0938,2.5274,0.5129338,-1.5678191000000001,12.227447,-1
247,248,1580694000522,0.8279,-0.025899999,2.6155,0.47149494,-1.3987596000000002,12.371607000000001,-1
248,249,1580694000532,0.7011,-0.121999994,2.616,0.31875443,-1.4278349,12.253487,-1
249,250,1580694000542,0.4278,-0.2854,2.1762,-0.008111555,-1.458538,11.446439,-1
250,251,1580694000553,0.14999999,-0.5044,1.3359999999999999,-0.23744734,-1.507217,10.793205,-1
251,252,1580694000563,-0.1415,-0.6932,0.6161,-0.49480486,-1.4712466,10.199893,-1
252,253,1580694000573,-0.3391,-0.737,0.24239999,-0.70106053,-1.3716574,9.993857,-1
253,254,1580694000583,-0.51159996,-0.7403,0.1853,-0.90181917,-1.1780813,9.953577000000001,-1
254,255,1580694000593,-0.6992,-0.6953,0.1011,-1.1653346000000002,-1.0872741000000001,9.781013,-1
255,256,1580694000604,-1.0318,-0.76299995,-0.1382,-1.4180665000000001,-1.0508342,9.522985,-1
256,257,1580694000614,-1.2178,-0.7969,-0.54289997,-1.4609323,-0.92986965,9.073363,-1
257,258,1580694000624,-0.99359995,-0.73649997,-0.7795,-0.9060521,-0.6206058000000001,9.13297,-1
258,259,1580694000634,-0.3392,-0.44099998,-0.5247,-0.34058958,-0.1542249,9.549551,-1
259,260,1580694000644,0.14479999,-0.096,-0.111899994,-0.17142484,0.13327084,9.859945,-1
260,261,1580694000654,0.0546,-0.0678,0.12539999,-0.68751895,-0.11991120000000001,10.185959,-1
261,262,1580694000665,-0.3985,-0.44079998,0.4423,-1.100356,-0.36592978,10.370177,-1
262,263,1580694000675,-0.8519,-0.7811,0.58379996,-1.6406028000000001,-0.6211804,10.218568,-1
263,264,1580694000685,-1.2509999,-1.0964,0.3538,-1.9259342000000002,-0.787271,9.860327999999999,-1
264,265,1580694000695,-1.5583,-1.3975999,-0.1882,-2.2262053,-0.9055924000000001,8.792878,-1
265,266,1580694000706,-1.7192999,-1.5834,-1.189,-2.1688403999999997,-0.9057265,7.832085,-1
266,267,1580694000716,-1.5831,-1.6740999,-2.0895,-1.971108,-0.7137401999999999,7.189405000000001,-1
267,268,1580694000727,-1.3582,-1.5820999,-2.6455998,-1.7501422999999998,-0.31758606,6.9758897,-1
268,269,1580694000737,-1.1425999,-1.3605,-2.7698,-1.8417634999999999,-0.18909405,7.011467999999999,-1
269,270,1580694000747,-1.2487,-1.3108,-2.7177,-2.0809154999999997,-0.15040375,7.039374400000001,-1
270,271,1580694000757,-1.4083999,-1.3656,-2.6755,-1.74046,0.15636052,7.0816274,-1
271,272,1580694000767,-1.0239999,-1.1545,-2.6239,-1.0906833,0.47620672,7.0472465,-1
272,273,1580694000777,-0.33229998,-0.9054,-2.6509,-0.6579362,0.7358914000000001,6.884192,-1
273,274,1580694000788,0.1457,-0.6989,-2.7956998,-0.66997427,0.79546875,6.6478649999999995,-1
274,275,1580694000798,0.1805,-0.6838,-3.0191998,-1.0113587,0.85073644,6.6906257,-1
275,276,1580694000808,-0.1218,-0.6911,-2.9691,-1.3268379,0.8895417,7.012903999999999,-1
276,277,1580694000818,-0.4904,-0.69479996,-2.3532999,-1.4380819999999999,0.91544694,7.282998599999999,-1
277,278,1580694000828,-0.3351,-0.59929997,-2.2961,-1.3120896,1.0386239,7.3305955,-1
278,279,1580694000838,-0.17889999,-0.5239,-2.4935,-1.1852733999999998,1.1330128000000002,7.084079300000001,-1
279,280,1580694000849,-0.17889999,-0.5239,-2.4935,-1.389451,1.0293822,6.946460000000001,-1
280,281,1580694000860,-0.47399998,-0.75119996,-2.6238,-1.6058006,0.9686365,7.0319715,-1
281,282,1580694000870,-0.5553,-0.7069,-2.3909,-1.6519418000000001,1.0511598999999998,7.203558999999999,-1
282,283,1580694000880,-0.5197,-0.561,-1.9721999,-1.6474789,1.2342971999999999,7.6988616,-1
283,284,1580694000890,-0.6213,-0.60109997,-1.6222,-1.8131386000000003,1.1849383,8.015117,-1
284,285,1580694000901,-0.7471,-0.6272,-1.3793,-1.9165584999999998,1.2077023999999998,8.224647500000001,-1
285,286,1580694000911,-0.6082,-0.4886,-1.5178,-1.7359878,1.4227783999999999,7.967558400000001,-1
286,287,1580694000921,-0.2915,-0.2837,-2.0469999999999997,-1.3840497,1.6738534,7.4151110000000005,-1
287,288,1580694000931,0.13759999,-0.1713,-2.3697,-0.80918276,1.7768903000000003,7.0850177,-1
288,289,1580694000941,0.6053,-0.3101,-2.5851,-0.55011094,1.686562,6.8942857,-1
289,290,1580694000951,0.4863,-0.4382,-2.8697999,-0.901733,1.548742,6.578069,-1
290,291,1580694000962,-0.0382,-0.6968,-2.8911,-1.4844625,1.2758988000000002,6.771520599999999,-1
291,292,1580694000972,-0.5542,-1.0060999,-2.464,-1.8835089,1.0143753,7.139701400000001,-1
292,293,1580694000982,-0.9593,-1.216,-2.0291,-2.3672621,0.84969264,7.663763,-1
293,294,1580694000992,-1.2516999,-1.2267,-1.5169,-2.6329992,0.8600164,8.21372,-1
294,295,1580694001002,-1.2724,-1.1518999,-0.9763,-2.4732293999999997,0.97677684,8.697264,-1
295,296,1580694001013,-0.8749,-0.9281,-0.64169997,-2.0161095,1.2697313000000001,8.943761,-1
296,297,1580694001023,-0.4175,-0.6347,-0.5222,-1.6729148999999999,1.4828823999999998,8.994058,-1
297,298,1580694001034,-0.031,-0.5044,-0.4998,-1.2228433,1.6511851999999998,9.009122,-1
298,299,1580694001044,0.22739999,-0.34919998,-0.5155,-1.0066085999999999,1.8593754,8.920910000000001,-1
299,300,1580694001054,0.3206,-0.2463,-0.6088,-1.0263752,1.8741139999999998,8.809857000000001,-1
300,301,1580694001065,0.2215,-0.39029998,-0.8383,-1.1253322000000001,1.6489633000000001,8.324419,-1
301,302,1580694001074,0.1977,-0.57269996,-1.2337999,-1.1150659,1.57481,8.173622,-1
302,303,1580694001084,0.11009999,-0.7418,-1.4136,-1.3730841999999999,1.4371723,8.160081,-1
303,304,1580694001094,-0.2016,-0.78669995,-1.2024,-1.8737884999999999,1.4461266000000002,8.488384,-1
304,305,1580694001104,-0.6019,-0.78709996,-0.9041,-2.2752578,1.4501871000000002,8.755097,-1
305,306,1580694001114,-0.9752,-0.80609995,-0.67509997,-2.4331028,1.4265611,8.791203,-1
306,307,1580694001125,-1.0773,-0.8675,-0.74979997,-2.3544486,1.2876017,8.474029,-1
307,308,1580694001135,-0.9047,-1.0105,-1.1374999,-2.0710611,1.406785,8.116583,-1
308,309,1580694001145,-0.6434,-0.8293,-1.339,-1.7972218999999998,1.6511372,8.248686,-1
309,310,1580694001155,-0.3448,-0.6143,-1.1298,-1.5736417999999999,1.829965,8.550384,-1
310,311,1580694001166,-0.1002,-0.3281,-0.74549997,-1.3666008,2.1846900000000002,8.75864,-1
311,312,1580694001176,0.071899995,0.0149,-0.70449996,-1.2610451999999999,2.492163,8.666819,-1
312,313,1580694001186,0.1147,0.1567,-0.8095,-1.3158916,2.3918266,8.3819,-1
313,314,1580694001196,0.027199998,-0.0001,-1.1688,-1.53227,2.1469479,7.7615229999999995,-1
314,315,1580694001206,-0.24859999,-0.30789998,-1.7602999,-1.811769,1.8189133000000002,7.4611564,-1
315,316,1580694001216,-0.49339998,-0.6361,-1.9552,-1.8709154,1.6191316,7.652836,-1
316,317,1580694001227,-0.55189997,-0.80259997,-1.6021999,-2.0646734,1.6759316999999998,8.351444,-1
317,318,1580694001237,-0.7546,-0.67579997,-0.9274,-2.2571,1.8984201,9.061996,-1
318,319,1580694001247,-0.9147,-0.43089998,-0.2644,-2.2758322,2.006992,9.389858,-1
319,320,1580694001257,-0.8699,-0.29639998,-0.022599999,-2.0066762,2.2530491,9.42512,-1
320,321,1580694001267,-0.643,-0.0814,-0.0149,-1.7755495,2.4181821,9.521078999999999,-1
321,322,1580694001277,-0.3459,0.12529999,0.1407,-1.3666008,2.6061077,9.8448515,-1
322,323,1580694001287,-0.0206,0.2653,0.3949,-0.9934021999999999,2.7748702,9.789344999999999,-1
323,324,1580694001298,0.3272,0.4156,0.3563,-0.61886287,2.909185,9.576988,-1
324,325,1580694001308,0.8344,0.47509998,-0.2059,-0.44608766,2.8855972000000003,9.225798,-1
325,326,1580694001318,0.5793,0.3471,-0.359,-0.6873753,2.7744966,9.075173,-1
326,327,1580694001328,0.2314,0.21669999,-0.1308,-1.032648,2.6593258,9.289781,-1
327,328,1580694001339,0.2314,0.21669999,-0.1308,-1.4024563,2.5594783,9.784567,-1
328,329,1580694001349,-0.32,0.060599997999999995,0.45949998,-1.5901712,2.5061257,9.8733425,-1
329,330,1580694001359,-0.32729998,0.025799999,0.2945,-1.5665262,2.4894621,9.662241,-1
330,331,1580694001369,-0.1383,0.047599997000000005,0.0517,-1.3471311000000001,2.516804,9.441027,-1
331,332,1580694001380,0.1678,0.0893,-0.0539,-1.0396965,2.5790148,9.377934,-1
332,333,1580694001389,0.37649998,0.2126,0.0946,-0.8775994,2.7034178,9.557644,-1
333,334,1580694001399,0.4387,0.2613,0.4482,-0.84488505,2.7377217000000003,9.941319,-1
334,335,1580694001409,0.4116,0.2717,0.78169996,-0.8652358,2.7438414,10.191906,-1
335,336,1580694001419,0.4802,0.35729998,0.9982,-0.76791626,2.8592803,10.453717,-1
336,337,1580694001430,0.48729998,0.47619998,1.0196999,-0.7765354,2.9623075,10.43507,-1
337,338,1580694001440,0.387,0.4323,0.7977,-0.9294004000000001,2.9188478,10.135862,-1
338,339,1580694001450,0.0742,0.297,0.4788,-1.2790495000000002,2.7966957000000003,9.847151,-1
339,340,1580694001460,-0.36339998,0.093499996,0.4447,-1.7102262,2.5725121,9.887278,-1
340,341,1580694001470,-0.58779997,-0.139,0.51809996,-1.8948574,2.3777009999999996,9.910606,d
341,342,1580694001481,-0.78429997,-0.2659,0.4055,-2.067355,2.3027241000000003,9.794124,-1
342,343,1580694001491,-0.9228,-0.3157,0.2638,-2.2165327,2.2742712000000003,9.646775,-1
343,344,1580694001501,-0.9736,-0.3154,0.28849998,-2.2496495,2.3195696,9.665977,-1
344,345,1580694001511,-1.0724,-0.1654,0.3127,-2.4046787999999997,2.513366,9.731166,-1
345,346,1580694001521,-1.2471,-0.100899994,0.513,-2.5853357000000003,2.5622556,10.043063,-1
346,347,1580694001531,-1.4907999,-0.0941,0.9483,-2.7639432,2.5571702000000003,10.314422,-1
347,348,1580694001542,-1.7363,-0.14039999,1.0609,-3.085628,2.524657,10.3944645,-1
348,349,1580694001552,-1.9727,-0.1752,1.0581,-3.350647,2.5153675,10.510995,-1
349,350,1580694001562,-2.2503998,-0.1766,1.3902,-3.6430748,2.5761514,10.823908,-1
350,351,1580694001572,-2.6081998,-0.1266,1.4302,-4.0145206,2.6519232,10.656161,-1
351,352,1580694001582,-3.0312997999999998,-0.2041,1.2678,-4.397497,2.5594783,10.612175,-1
352,353,1580694001592,-3.4961998,-0.56439996,1.4217,-4.912154699999999,2.1749501,10.660364999999999,-1
353,354,1580694001603,-3.8978998999999996,-0.9461,0.98069996,-5.283218,1.8645372,9.881559,-1
354,355,1580694001613,-4.2221,-1.3503,-0.0539,-5.535538,1.5976316000000002,8.988609,-1
355,356,1580694001623,-4.6073,-1.7200999,-1.0277,-6.032421,1.3412318,7.9490943,-1
356,357,1580694001633,-5.144,-1.7909,-1.5222,-6.474371400000001,1.4403327,7.599292,-1
357,358,1580694001643,-5.2739,-1.8217,-1.5595,-6.299384,1.3684201999999999,7.7900043000000005,-1
358,359,1580694001653,-5.0264997000000005,-1.9978,-1.2674999,-6.1172237,1.2356571,8.040322999999999,-1
359,360,1580694001664,-5.0045,-2.3216,-0.92929995,-6.16867,0.9281554,8.320378,-1
360,361,1580694001674,-5.0994,-2.6511,-0.76879996,-6.215855,0.57518303,8.39748,-1
361,362,1580694001684,-5.2072997,-2.9910997999999998,-0.7061,-6.359718,0.35559640000000003,8.452212,-1
362,363,1580694001694,-5.4205,-3.2666,-0.65209997,-6.486418700000001,0.14773183,8.41536,-1
363,364,1580694001704,-5.4497,-3.4908997999999998,-0.7529,-6.261794999999999,-0.022055386,8.163317999999999,-1
364,365,1580694001715,-5.1401,-3.6955998,-1.1152999,-5.866752,-0.116607204,7.715228999999999,-1
365,366,1580694001725,-4.6366997,-3.7814998999999996,-1.7686,-5.0781403,-0.086785026,6.846852,-1
366,367,1580694001735,-3.9771,-3.8226,-2.4687,-4.1193295,-0.04866933,6.2094293,-1
367,368,1580694001745,-2.9236999,-3.8816,-3.0312997999999998,-2.800718,0.020810401,5.5410542000000005,-1
368,369,1580694001755,-1.7181,-3.8760998,-3.7322,-1.4996034,0.17323487,4.897081,-1
369,370,1580694001765,-0.4919,-3.6727,-4.2304,-0.43100417,0.47842854,4.6149483,-1
370,371,1580694001776,0.5072,-3.3349998,-4.2935,0.47516283,1.003496,5.098481700000001,-1
371,372,1580694001786,0.7685,-3.0376,-3.6674,0.38727649999999997,1.0177752,6.073879,-1
372,373,1580694001796,0.5106,-3.0922,-2.6627998,0.4327376,0.84977883,6.6097589999999995,-1
373,374,1580694001806,0.46449998,-3.2828,-2.3787,0.70168304,0.66443884,5.8034587,-1
374,375,1580694001817,0.705,-3.4763,-3.3757,1.5696578,0.61452454,4.3440394,-1
375,376,1580694001827,1.5422,-3.5770998,-4.8336997,2.9819782000000004,0.6454481,3.0762427000000003,-1
376,377,1580694001837,2.8801,-3.5407,-5.94,4.6396947,0.95870537,2.873023,-1
377,378,1580694001847,4.3468,-3.1546,-5.8389,6.123353,1.4818577,3.9074426,-1
378,379,1580694001857,5.6033,-2.5972,-4.6814,7.354260000000001,1.9559381999999998,5.2049847,-1
379,380,1580694001868,6.5077,-2.0734,-3.4227998,8.216584,2.2322292,6.122395,-1
380,381,1580694001878,7.1776,-1.7624999,-2.6883,8.320732000000001,2.687137,6.065978,-1
381,382,1580694001888,7.0836997,-1.1682999,-2.9601,8.354759,3.118017,4.8083615,-1
382,383,1580694001898,7.2258,-0.98399997,-5.0592,8.639936,2.8351946,3.8745654000000003,-1
383,384,1580694001908,7.2258,-0.98399997,-5.0592,9.482916000000001,2.488725,3.8418796000000004,-1
384,385,1580694001918,9.245299000000001,-1.067,-4.277199700000001,10.923689,2.6024396,4.677849,-1
385,386,1580694001928,9.245299000000001,-1.067,-4.277199700000001,12.075156,2.9424354999999998,5.6499233,-1
386,387,1580694001939,10.5177,-0.5117,-3.0465,14.101895,3.6091633,6.97543,-1
387,388,1580694001949,13.0849,0.6525,-1.7254,15.222439999999999,3.9938924,7.2579460000000005,-1
388,389,1580694001959,12.724199,1.1697,-2.2159,14.92936,4.3934940000000005,6.791067,-1
389,390,1580694001969,11.4445,0.86679995,-2.1174998,13.674847,3.9591382000000004,6.927546,-1
390,391,1580694001980,11.4445,0.86679995,-2.1174998,13.213598999999999,3.5904214,7.270529700000001,-1
391,392,1580694001990,11.6149,0.7515,-1.9326999,14.123377,3.6226187000000007,7.1263223,-1
392,393,1580694002000,12.670899,0.8463,-2.1875,15.071710000000001,3.6398281999999997,6.910193,-1
393,394,1580694002010,13.5515995,0.862,-2.3372,16.150585,3.5515682999999996,6.7670580000000005,-1
394,395,1580694002020,13.368098999999999,0.5798,-2.1016998,15.882713,3.1357627,7.072386,-1
395,396,1580694002030,12.8144,0.0579,-1.796,14.962543499999999,2.4340124,7.406683,-1
396,397,1580694002041,11.2429,-0.501,-1.3797,13.156923999999998,1.7312951,8.037268,-1
397,398,1580694002051,9.0786,-1.1269,-0.4719,10.946529,1.0809342,8.955225,-1
398,399,1580694002061,7.1004,-1.6929,-0.0311,9.544111000000001,0.60594374,9.194013,-1
399,400,1580694002071,5.232199700000001,-2.7031,-0.2607,7.2041816999999995,-0.6936194,8.80436,-1
400,401,1580694002081,3.1392,-3.8463998,-1.9280000000000002,4.80818,-1.987264,6.135142299999999,-1
401,402,1580694002091,1.7241,-4.8483996,-5.0649,3.9110720000000003,-2.8204846000000003,2.9278789,-1
402,403,1580694002102,1.4111999,-5.6024,-7.8004,3.776901,-3.4276828999999998,0.6421536,-1
403,404,1580694002112,1.0368998999999999,-6.1252,-9.2226,3.5202617999999997,-3.710553,-0.06606081,-1
404,405,1580694002122,0.192,-6.5737,-9.0095,2.2915287,-4.3459163,0.80469114,-1
405,406,1580694002132,-0.81939995,-6.729099799999999,-7.048899700000001,1.2840103999999999,-4.4466743,3.3219836000000003,-1
406,407,1580694002142,-1.7646998999999999,-6.5544,-4.089299700000001,0.24409366,-4.413146,6.340708,-1
407,408,1580694002153,-2.8562999,-6.2303,-1.5374999,-1.2080662,-4.3595347,8.842716000000001,-1
408,409,1580694002163,-4.0376997,-6.0203,-0.123799995,-2.2886653,-4.2568717000000005,9.299827,-1
409,410,1580694002173,-4.9045,-5.7236,-0.3703,-2.6744862,-4.2029157,8.553745,-1
410,411,1580694002183,-5.0339,-5.7117,-1.1025,-2.8118844,-4.5666139999999995,8.14427,-1
411,412,1580694002194,-5.5234,-6.0056996,-1.3952,-3.8288746,-5.0311947,7.789631,-1
412,413,1580694002204,-6.9104,-6.3631,-1.8348999,-5.5616727,-5.3703575,7.406606699999999,-1
413,414,1580694002214,-8.8635,-6.2837996,-2.0654,-7.598765400000001,-5.1832743,7.7881656,-1
414,415,1580694002224,-10.6748,-5.9561,-1.0674,-8.85576,-5.2871156,9.75597,-1
415,416,1580694002235,-11.5463,-5.8684998,1.2932,-9.612967999999999,-5.423997,12.8384,-1
416,417,1580694002244,-12.1699,-5.7092,3.8183,-10.231143,-5.644321,14.667157000000001,-1
417,418,1580694002254,-12.9845,-5.8115997,5.9354997,-11.021419999999999,-6.065873000000001,16.392754,-1
418,419,1580694002264,-13.7575,-5.9581,7.3503,-11.427152,-6.2741584999999995,17.002852999999998,-1
419,420,1580694002274,-14.487599,-5.969599700000001,7.5948997,-12.495674000000001,-6.4218717000000005,16.78596,-1
420,421,1580694002284,-15.317599,-5.7365,7.1723,-13.210533999999999,-6.2239666,16.68025,-1
421,422,1580694002295,-15.915199,-5.1305,7.375499700000001,-13.332764000000001,-5.634811,17.243721,-1
422,423,1580694002304,-15.5418,-4.3245,8.3924,-12.302203,-5.2160459999999995,19.035023000000002,-1
423,424,1580694002314,-14.103499,-3.6845999,10.5223,-10.995371,-4.874633,20.683220000000002,-1
424,425,1580694002324,-12.591499,-2.9766,11.9717,-9.550748,-4.410646400000001,21.649279999999997,-1
425,426,1580694002334,-11.5436,-2.4575,12.373199000000001,-9.018412,-4.278084,21.728846,-1
426,427,1580694002345,-10.644199,-2.2696,12.0275,-7.8042164000000005,-4.46668,20.586985000000002,-1
427,428,1580694002355,-9.8869,-2.2539,11.0989,-7.035888000000001,-4.5753,20.030216,-1
428,429,1580694002365,-8.901299,-2.1663,10.7656,-5.656799299999999,-4.5655704,20.184834,-1
429,430,1580694002376,-7.4000998,-1.9705,10.9719,-4.757748,-4.446023,20.475386,-1
430,431,1580694002386,-6.2465,-1.6577,11.4817,-3.4038367,-4.344892,21.22682,-1
431,432,1580694002397,-4.9255,-1.5261999,12.0786,-1.9298128,-4.44496,21.253721,-1
432,433,1580694002407,-3.3286998,-1.5071,11.9647,-0.5081645,-4.431763,20.564564,-1
433,434,1580694002417,-1.8462,-1.3917999,11.1754,0.70041895,-4.332049400000001,19.515204999999998,-1
434,435,1580694002427,-0.555,-1.2382,10.0535,1.7875876,-4.286951999999999,17.976960000000002,-1
435,436,1580694002437,0.4182,-1.1897,8.7664995,2.5232587000000004,-4.3086915,16.849041,-1
436,437,1580694002448,1.2753999,-1.2116,7.6110997000000005,3.378343,-4.1858783,16.211733,-1
437,438,1580694002457,2.2454998,-1.1093998999999999,6.9536,4.100415,-3.9987190000000004,16.240273000000002,-1
438,439,1580694002467,3.2563,-0.8969,7.061,4.9377059999999995,-3.757278,16.938766,-1
439,440,1580694002477,4.0092,-0.731,7.6394,5.4333725,-3.6241605000000003,17.153814,-1
440,441,1580694002487,4.5973,-0.6477,7.8424997,6.004409,-3.5859587,16.764938,-1
441,442,1580694002498,5.2723,-0.6841,7.4079,6.377943,-3.5526602,16.242867,-1
442,443,1580694002508,5.8343,-0.7439,6.3089,6.3833345999999995,-3.4887924,15.717475,-1
443,444,1580694002518,5.9154,-0.94149995,5.5463,6.3537135000000005,-3.5774546000000003,14.987712,-1
444,445,1580694002528,6.1352,-1.0264,4.7433,6.4580910000000005,-3.5402677000000002,14.225657,-1
445,446,1580694002538,6.1352,-1.0264,4.7433,6.879135000000001,-3.3810531999999998,13.692372,-1
446,447,1580694002548,7.4361,-0.8354,3.7745998,7.5707816999999995,-3.0602496,13.337532000000001,-1
447,448,1580694002559,8.4319,-0.5611,3.0797,8.68783,-2.519112,12.505844999999999,-1
448,449,1580694002569,9.4408,-0.29659998,2.1512,9.441104,-2.174433,11.785199,-1
449,450,1580694002579,10.182799000000001,-0.1209,1.4323,10.105102,-1.8276092000000002,11.104978,-1
450,451,1580694002589,10.182799000000001,-0.1209,1.4323,10.659053,-1.6131461,10.86393,-1
451,452,1580694002599,11.3146,-0.0633,1.0087,11.128221,-1.4352951999999999,10.7327175,-1
452,453,1580694002609,11.4832,-0.076299995,0.5674,11.210888,-1.3106147,10.180931,-1
453,454,1580694002620,11.2929,-0.32189998,-0.2332,10.8897295,-1.3807074,9.340969,-1
454,455,1580694002629,11.035,-0.5531,-1.0598,10.649649,-1.4556459,8.711762,-1
455,456,1580694002639,11.035,-0.5531,-1.0598,10.364431,-1.5198871,8.4663,-1
456,457,1580694002649,10.4689,-1.0389999,-1.2624999,9.973400999999999,-1.6588657,8.514519,-1
457,458,1580694002659,10.1262,-1.2247,-1.6111,9.518417,-1.6870503000000001,8.071745,-1
458,459,1580694002669,9.8475,-1.2696999,-2.1941,9.276296,-1.5696003,7.484064,-1
459,460,1580694002680,9.8653,-1.2132,-2.8741999,9.323357000000001,-1.341452,6.722775,-1
460,461,1580694002690,9.8653,-1.2132,-2.8741999,9.529172,-1.0878678999999998,5.926262400000001,-1
461,462,1580694002700,10.6119995,-0.8488,-4.3963,10.192155,-0.66761833,5.409123999999999,-1
462,463,1580694002710,10.6119995,-0.8488,-4.3963,10.423836999999999,-0.42587104,5.7571069999999995,-1
463,464,1580694002720,10.5299,-0.7215,-3.4807,9.813718,-0.39930496,6.4797153,-1
464,465,1580694002730,9.3983,-0.94159997,-2.6445,8.615889,-0.65180707,7.311230999999999,-1
465,466,1580694002741,8.0784,-1.5366,-1.9650999,7.244337599999999,-1.2554427,7.919674400000001,-1
466,467,1580694002751,6.4519997,-2.3616,-1.5604999,5.552307,-2.0135810000000003,8.312831,-1
467,468,1580694002761,4.8013997,-2.8573,-1.2543,3.689867,-2.3913286,8.522449,-1
468,469,1580694002771,3.5430998999999996,-2.9801,-1.3701999,2.8180810000000003,-2.405349,8.365416999999999,-1
469,470,1580694002781,2.6217,-2.9326,-1.6235,1.8373486,-2.2242806,8.085554,-1
470,471,1580694002791,1.9559,-2.7731,-1.7103,1.4326136,-2.0473296999999997,8.0724535,-1
471,472,1580694002802,1.6646999,-2.5502,-1.4739,1.2820184,-1.6672455000000002,8.554024,-1
472,473,1580694002812,1.6976,-2.1790000000000003,-0.76769996,1.3731418,-1.2992375,9.354529,-1
473,474,1580694002822,1.6286,-1.8762,0.0357,1.1352826,-1.0562643,10.038867999999999,-1
474,475,1580694002832,1.2198,-1.7679,0.4368,0.5920286,-1.0637343000000001,10.270005000000001,-1
475,476,1580694002842,0.4702,-1.8651999,0.4358,-0.19843145,-1.1937872,9.986569,-1
476,477,1580694002852,-0.006,-1.9109999,-0.015999998999999997,-0.5012787999999999,-1.1393144,9.571788,-1
477,478,1580694002863,-0.3818,-1.7177,-0.23249999,-0.7985812,-0.85958546,9.796595,-1
478,479,1580694002873,-0.7284,-1.3840000000000001,0.71709996,-1.1800829,-0.5762651999999999,11.327897,-1
479,480,1580694002883,-1.1968,-1.2921,2.0786,-1.8270918999999999,-0.6159707,12.557837,-1
480,481,1580694002893,-2.0879,-1.4305999,3.0779998,-2.8089445,-0.8902983,13.116864000000001,-1
481,482,1580694002903,-3.125,-1.8051,3.3432,-3.6704452000000005,-1.381397,13.014833,-1
482,483,1580694002914,-3.8388998999999995,-2.2668998,3.1680999,-3.8864598,-1.5290233999999998,12.866527,-1
483,484,1580694002923,-3.7371,-2.271,3.0621,-3.5831525,-1.4184496000000002,12.809391,-1
484,485,1580694002933,-3.4703,-2.237,2.9464998,-3.705822,-1.5756528,12.716936,-1
485,486,1580694002943,-4.0344,-2.5096,3.0370998,-4.693842,-1.9325901,13.048389,-1
486,487,1580694002953,-5.0976996,-2.965,3.3931,-5.6624975,-2.2684104,13.203199,-1
487,488,1580694002963,-6.4000998,-3.3804998,3.3293,-7.1011543,-2.5801451,12.898378999999998,-1
488,489,1580694002974,-7.4258,-3.6358,2.9545999,-7.706877700000001,-2.6530437,12.433252,-1
489,490,1580694002984,-7.7594,-3.6857998,2.4555,-7.5854917,-2.4128191,11.861785000000001,-1
490,491,1580694002994,-7.4494,-3.447,1.9583999,-6.770438700000001,-1.9091365000000002,11.731636,-1
491,492,1580694003004,-6.35,-2.9139999999999997,2.2259998,-5.435919999999999,-1.1785122,12.474901,-1
492,493,1580694003014,-5.1179,-2.3353,3.1001,-4.5928545,-0.8349252,13.202835,-1
493,494,1580694003025,-4.7079997,-2.347,3.6592998999999997,-4.895836,-1.0964199,13.385779999999999,-1
494,495,1580694003035,-5.3584,-2.8095999,3.5240998,-5.7865367,-1.5700696,12.674176,-1
495,496,1580694003045,-6.0933,-3.3428,2.4324,-6.5482949999999995,-2.0057473000000003,10.9352,-1
496,497,1580694003055,-6.6931996,-3.8054997999999998,1.0411,-7.2535405,-2.2257073,10.16715,-1
497,498,1580694003065,-7.3226,-4.0863,0.51519996,-7.460006699999999,-2.0697490000000003,10.209441,-1
498,499,1580694003075,-7.3794,-4.0108,0.6083,-6.941537400000001,-1.8350886000000002,10.113414,-1
499,500,1580694003086,-6.7479,-3.8916998,0.44689998,-6.164935,-1.5266387,9.690196,-1
500,501,1580694003096,-5.9465,-3.6504,0.060399997999999996,-5.106889700000001,-0.9562537,9.381708,-1
501,502,1580694003107,-4.7819,-3.1457,-0.21869999,-3.8563886,-0.34307954,8.942802,-1
502,503,1580694003117,-3.5848,-2.6532,-0.68479997,-3.0765011,0.09664913,8.399836,-1
503,504,1580694003127,-2.8291,-2.3725,-1.1998,-2.5580707,0.40438068,7.905491400000001,-1
504,505,1580694003137,-2.3871999,-2.2077,-1.5572,-2.2412121,0.49581045,7.7503853000000005,-1
505,506,1580694003147,-2.0421,-2.2196999,-1.6782999,-2.128493,0.56682247,7.652951,d
506,507,1580694003158,-1.9047999,-2.2331998,-1.7491,-1.5802976,0.93712884,7.4579287,-1
507,508,1580694003168,-1.3565999,-1.9648,-1.9261999,-0.42808324,1.6885825,7.067042,-1
508,509,1580694003178,-0.1866,-1.3055999,-2.2883,0.41803720000000005,2.2570713,6.621786999999999,-1
509,510,1580694003188,0.6344,-0.8293,-2.6994,0.731352,2.4275577,6.252803,-1
510,511,1580694003198,0.9622,-0.7862,-2.9176998,0.7011371999999999,2.4701746,6.3417997,-1
511,512,1580694003208,0.8239,-0.83739996,-2.8332999,0.5261880999999999,2.4640455,6.3827977,-1
512,513,1580694003219,0.8239,-0.83739996,-2.8332999,0.44797429999999994,2.4495362999999997,6.2094192999999995,-1
513,514,1580694003229,0.7339,-0.93509996,-3.0039999999999996,0.3328036,2.529359,5.9668584000000005,-1
514,515,1580694003239,0.6446,-0.9217,-3.2145998,0.1861444,2.5878735,5.6997230000000005,-1
515,516,1580694003249,0.7474,-0.80359995,-3.6427,0.3919404,2.7495012,5.5001802,-1
516,517,1580694003259,1.2196,-0.6243,-3.2940998,0.84621626,2.97538,5.8375900000000005,-1
517,518,1580694003269,1.2196,-0.6243,-3.2940998,1.0124408,3.042695,6.60543,-1
518,519,1580694003279,1.2631999,-0.5136,-1.7380999,0.84620667,3.1135634999999997,7.3792553,-1
519,520,1580694003290,1.1132,-0.4172,-1.2321,0.6527839,3.2644749,7.9167440000000004,-1
520,521,1580694003301,1.1304,-0.2074,-1.2243998999999999,0.66634464,3.4886102999999995,7.841097,-1
521,522,1580694003311,1.1739,-0.1127,-1.4394,0.6784785,3.583823,7.6167507,-1
522,523,1580694003321,1.2012,-0.1107,-1.4469,0.68886924,3.5965504999999998,7.6314125,-1
523,524,1580694003331,1.2514,-0.1602,-1.4535999,0.7280863000000001,3.5779717000000004,7.568215400000001,-1
524,525,1580694003341,1.2514,-0.1602,-1.4535999,0.75141543,3.6130419000000003,7.381964999999999,-1
525,526,1580694003351,1.4441998999999999,-0.0047999997999999995,-1.7217,0.9096913000000001,3.7959974,7.310570200000001,-1
526,527,1580694003361,1.3864,0.1003,-1.5841999,0.786093,3.9253032,7.486879300000001,-1
527,528,1580694003371,1.3864,0.1003,-1.5841999,0.56158394,3.9200741999999997,7.749121000000001,-1
528,529,1580694003381,0.8287,0.0598,-0.88339996,0.1490151,3.9002790000000003,8.245688000000001,-1
529,530,1580694003391,0.58489996,0.0515,-0.7579,-0.032168496,3.9167989999999997,8.190707000000002,-1
530,531,1580694003401,0.5196,0.0368,-0.89479995,-0.059242126,3.9601724000000003,8.049105,-1
531,532,1580694003411,0.5743,0.0773,-1.0109,0.065792665,4.0181217,7.94649,-1
532,533,1580694003421,0.6547,0.1277,-1.0194,0.12431653,4.0711580000000005,7.956870599999999,-1
533,534,1580694003432,0.80399996,0.1522,-0.99979997,0.3983473,4.1482897,7.948606,-1
534,535,1580694003442,1.0253999,0.1619,-1.0016,0.5365885,4.2201734,7.9824696,-1
535,536,1580694003452,0.9766,0.2653,-0.9076,0.41476193,4.298234,8.092728,-1
536,537,1580694003462,0.79289997,0.2162,-0.73679996,0.15966453,4.1596,8.268317999999999,-1
537,538,1580694003472,0.4416,0.021399999,-0.6746,-0.13313676,4.0282826,8.2615385,-1
538,539,1580694003482,0.096599996,-0.0863,-0.75909996,-0.45472595,3.9259447999999995,8.191512,-1
539,540,1580694003492,0.0387,-0.0872,-0.6768,-0.34380737,4.04102,8.333297,-1
540,541,1580694003503,0.30449998,0.1363,-0.5552,-0.02804089,4.2962226999999995,8.386104,-1
541,542,1580694003513,0.4784,0.3111,-0.5417,0.16600436,4.4264193,8.375319500000002,-1
542,543,1580694003523,0.6142,0.41889998,-0.5679,0.35495478,4.5492516,8.317332,-1
543,544,1580694003533,0.90819997,0.5097,-0.6148,0.7651964,4.6475477,8.376603,-1
544,545,1580694003543,1.2996,0.60359997,-0.3884,1.0778313,4.7270927,8.662068,-1
545,546,1580694003553,1.3203,0.6031,-0.1734,0.9750146999999999,4.6348395,8.836165,-1
546,547,1580694003564,1.1343,0.48959997,-0.058199997999999996,0.7248015,4.483746,8.95962,-1
547,548,1580694003574,0.83239996,0.3709,0.0845,0.32399294,4.3807955000000005,9.116201,-1
548,549,1580694003584,0.4394,0.2933,0.2268,0.10321882,4.331915400000001,9.158827,-1
549,550,1580694003594,0.2227,0.18259999,0.1353,-0.13947661,4.1781497000000005,8.94673,-1
550,551,1580694003604,0.10669999599999999,0.1042,-0.0316,-0.074565016,4.2179513,8.826119,-1
551,552,1580694003615,0.2253,0.1973,-0.1573,0.15063359,4.3262844000000005,8.733272999999999,-1
552,553,1580694003625,0.42589998,0.2986,-0.2137,0.36891776,4.4077735,8.667297999999999,-1
553,554,1580694003635,0.5969,0.35279998,-0.271,0.5754511999999999,4.465214700000001,8.767538,-1
554,555,1580694003645,0.7626,0.38299999999999995,-0.1148,0.81063837,4.456232,9.021658,-1
555,556,1580694003655,0.97389996,0.39909998,0.1174,0.8516463,4.4594398,9.125931,-1
556,557,1580694003666,0.95739996,0.3879,0.182,0.67993414,4.3835535000000005,9.093121,-1
557,558,1580694003676,0.6911,0.2972,0.13949999,0.32346620000000004,4.2708154,9.073307000000002,-1
558,559,1580694003686,0.3861,0.18439999,0.117599994,0.031009699999999998,4.1648674,9.07841,-1
559,560,1580694003696,0.12889999,0.1179,0.1264,-0.17366582,4.147322,9.024484,-1
560,561,1580694003706,-0.0709,0.08800000000000001,0.0482,-0.25219563,4.0984324999999995,8.866514,-1
561,562,1580694003716,-0.1251,0.036000000000000004,-0.0976,-0.18793526,4.0317593,8.800951,-1
562,563,1580694003726,-0.0346,-0.0072,-0.1743,-0.059376202999999995,4.118889,8.711409,-1
563,564,1580694003737,0.103199996,0.1061,-0.2411,0.24950455,4.306278,8.646611,-1
564,565,1580694003747,0.3996,0.2507,-0.29889998,0.42168593,4.323373,8.747455,-1
565,566,1580694003757,0.5049,0.2626,-0.14299999,0.31304666,4.329904,8.932469000000001,-1
566,567,1580694003767,0.39999998,0.2783,-0.0083,0.1417559,4.269483999999999,8.948779,-1
567,568,1580694003777,0.23009999,0.2165,0.0082,-0.05147534,4.121829,8.944853,-1
568,569,1580694003788,0.0696,0.0747,0.0058999998,-0.27792849999999997,4.030073600000001,8.960683,-1
569,570,1580694003798,-0.2109,-0.03,0.0241,-0.592019,3.9662824,8.969445,-1
570,571,1580694003808,-0.4664,-0.06839999599999999,0.023699999,-0.6830753,3.9532099,8.999824,-1
571,572,1580694003818,-0.5697,-0.0887,0.0436,-0.55682427,4.0189547999999995,9.0944805,-1
572,573,1580694003829,-0.2182,0.075399995,0.1524,-0.27677929999999995,4.1485769999999995,9.119361,-1
573,574,1580694003839,-0.0596,0.1548,0.2303,-0.13032117,4.208346,9.193754,-1
574,575,1580694003850,-0.0042999996999999995,0.17799999,0.3071,-0.090634905,4.2230844,9.257572999999999,-1
575,576,1580694003860,0.0743,0.18249999,0.3346,0.019325996,4.223228,9.279819999999999,-1
576,577,1580694003870,0.1248,0.1856,0.2351,0.06670246,4.2142453,9.158261,-1
577,578,1580694003880,0.0782,0.1472,0.0092,-0.009078813,4.151278,8.919551,-1
578,579,1580694003890,-0.0082,0.0295,-0.059299998,-0.11789049,4.03242,8.905578,-1
579,580,1580694003901,-0.0173,-0.047799997000000004,0.0382,-0.13493721,3.9687053999999997,9.039251,-1
580,581,1580694003911,-0.094799995,-0.035099998,0.1252,-0.2170679,3.9909904000000003,9.093810000000001,-1
581,582,1580694003921,-0.18959999,-0.0802,0.1822,-0.29390259999999996,3.9131982000000005,9.178575,-1
582,583,1580694003931,-0.2746,-0.18339999,0.3469,-0.3983473,3.8329922999999995,9.3183,-1
583,584,1580694003941,-0.3886,-0.16049999,0.35529998,-0.520442,3.8529887,9.289503,-1
584,585,1580694003951,-0.4141,-0.2683,0.1591,-0.5559623,3.7081779999999998,9.029205000000001,-1
585,586,1580694003962,-0.47149998,-0.33049998,-0.074599996,-0.5684314,3.7188847000000003,8.806544,-1
586,587,1580694003972,-0.3752,-0.21759999,-0.2392,-0.43840706,3.8643277,8.672162,-1
587,588,1580694003982,-0.2615,-0.084,-0.2768,-0.32191479999999995,3.951515,8.698383,-1
588,589,1580694003992,-0.1774,-0.0652,-0.198,-0.25203282,3.971272,8.806830999999999,-1
589,590,1580694004003,-0.0736,-0.06399999599999999,-0.0711,-0.08985918,3.9743462,8.920709,-1
590,591,1580694004013,0.1074,-0.0332,0.0164,0.083059646,4.0066104,8.992746,-1
591,592,1580694004023,0.18879999,-0.0036,0.055499997,0.15470374,4.016781,9.041578,-1
592,593,1580694004033,0.2109,-0.0046,0.1441,0.113925695,4.0624337,9.130039,-1
593,594,1580694004043,0.1073,0.0924,0.1739,0.02738009,4.1517277,9.115205,-1
594,595,1580694004053,0.0379,0.1021,0.1348,-0.07350199,4.109426999999999,9.08363,-1
595,596,1580694004064,-0.076799996,0.044000000000000004,0.0854,-0.19742587,4.0541496,8.952169,-1
596,597,1580694004074,-0.1521,0.0244,-0.042,-0.21978772,4.0160627,8.834145,-1
597,598,1580694004084,-0.1709,-0.0548,-0.1494,-0.22951774,3.9497432999999997,8.839526,-1
598,599,1580694004094,-0.1554,-0.0563,-0.0704,-0.16805379999999998,4.031874,8.965538,-1
599,600,1580694004104,-0.046499997,0.0791,0.0382,-0.05677131,4.1350927,9.010588,-1
600,601,1580694004115,0.043399997,0.11699999999999999,0.078,0.063896455,4.177307,9.0818,-1
601,602,1580694004125,0.146,0.1761,0.1269,0.15931018,4.249201,9.036147999999999,-1
602,603,1580694004135,0.2041,0.2464,0.0379,0.14281893,4.256526999999999,8.949421000000001,-1
603,604,1580694004145,0.15709999,0.22909999,0.0074,0.12637554,4.221322,9.020624,-1
604,605,1580694004155,0.13849999,0.1827,0.1043,0.04684016,4.1669645,9.096644,-1
605,606,1580694004166,0.050699997999999996,0.126,0.1327,-0.13055103,4.0647993,9.132711,-1
606,607,1580694004176,-0.114599995,0.04,0.1906,-0.26795906,4.0077977,9.258646,-1
607,608,1580694004186,-0.23089999,-0.0162,0.3267,-0.32295865,3.9920824,9.312956,-1
608,609,1580694004196,-0.2593,-0.0338,0.3356,-0.2765782,4.0436440000000005,9.117782,-1
609,610,1580694004207,-0.2189,0.035,0.159,-0.15076767,4.107971,9.016736,-1
610,611,1580694004217,-0.091,0.083799995,0.0512,-0.05120719,4.129002,9.036522,-1
611,612,1580694004227,0.0352,0.123399995,0.0805,0.031172507000000002,4.1887136,9.061106,-1
612,613,1580694004237,0.0731,0.19309999,0.1094,0.05485595,4.206679299999999,9.101759,-1
613,614,1580694004247,0.1113,0.185,0.1479,0.10440635,4.1249413,9.213531,-1
614,615,1580694004257,0.12979999,0.109,0.2547,0.059251702999999996,4.1226335,9.21284,-1
615,616,1580694004267,0.0902,0.110999994,0.24399999,-0.018713081,4.0655746,9.15808,-1
616,617,1580694004278,0.0418,0.0634,0.1943,-0.061052144,3.9690883,9.074284,-1
617,618,1580694004288,-0.0050999997,-0.033099998,0.105399996,-0.026393677999999997,3.938682,9.048741,-1
618,619,1580694004298,0.0369,-0.0603,0.074999996,-0.097635545,3.940128,9.086167999999999,-1
619,620,1580694004308,-0.1419,-0.08249999599999999,0.1601,-0.19940826,3.929565,9.138074000000001,-1
620,621,1580694004318,-0.0795,0.0187,0.119399995,-0.149063,4.003756500000001,9.092805,-1
621,622,1580694004328,0.0416,0.069699995,-0.0284,-0.036027946,4.0561603999999996,8.942056,-1
622,623,1580694004338,0.0416,0.069699995,-0.0284,-0.02732263,4.0817213,8.81708,-1
623,624,1580694004348,0.0687,0.14109999,-0.3042,0.008475474,4.1365676,8.670496,-1
624,625,1580694004359,0.1611,0.1733,-0.4231,0.10463619,4.162856,8.54505,-1
625,626,1580694004369,0.1857,0.1788,-0.4549,0.11758403,4.1607394,8.514901,-1
626,627,1580694004379,0.1857,0.1788,-0.4549,0.07566635,4.1190805,8.547636,-1
627,628,1580694004389,0.1487,0.1797,-0.38529998,0.056646813,4.1532025,8.611061999999999,-1
628,629,1580694004399,0.0975,0.22289999,-0.3227,0.010582372,4.1721454,8.670745,-1
629,630,1580694004410,0.0659,0.16899999999999998,-0.2996,-0.051599834000000004,4.0738106,8.691297,-1
630,631,1580694004420,0.0727,0.104899995,-0.3548,-0.026163835,4.0066485,8.6417465,-1
631,632,1580694004430,0.0727,0.104899995,-0.3548,0.014719552,4.0014677,8.660699000000001,-1
632,633,1580694004440,0.0909,0.0766,-0.1227,-0.064997785,3.936489,8.986416,-1
633,634,1580694004450,0.0056,0.064399995,0.1248,-0.12732364,3.9281572999999996,9.146778999999999,-1
634,635,1580694004460,-0.0777,0.0707,0.13759999,-0.23341551,3.9195379999999997,9.167657,-1
635,636,1580694004471,-0.1104,0.095199995,0.1413,-0.24965778,3.9326198,9.18524,-1
636,637,1580694004481,-0.065299995,0.0977,0.12629999,-0.22491129999999998,3.9053452000000006,9.095821,-1
637,638,1580694004491,-0.060399997999999996,0.047599997000000005,-0.1321,-0.22644360000000002,3.8536687000000005,8.843117999999999,-1
638,639,1580694004501,-0.0757,0.0349,-0.3997,-0.23027432,3.8562543,8.627822,-1
639,640,1580694004511,0.0061,0.023599999,-0.46199998,-0.13467863,3.8166447,8.62019,-1
640,641,1580694004521,0.0387,0.015099999499999999,-0.36859998,-0.12991896,3.8477980000000005,8.782842,-1
641,642,1580694004532,0.119799994,0.0875,-0.129,-0.029410372999999997,3.8705049,8.975422,-1
642,643,1580694004542,0.2096,0.121199995,0.070999995,0.026891675,3.893853,9.197067,-1
643,644,1580694004552,0.1428,0.14400000000000002,0.1638,-0.07701668,3.8915546,9.255525,-1
644,645,1580694004562,0.0168,0.115399994,0.2182,-0.20726125,3.8057942000000002,9.351158,-1
645,646,1580694004573,-0.12969999,0.006,0.3227,-0.37020105,3.6894742999999997,9.393746,-1
646,647,1580694004583,-0.2575,-0.0676,0.2521,-0.46553814,3.6051123,9.215943,-1
647,648,1580694004593,-0.33679998,-0.18349999,-0.0133,-0.5207389,3.5252894999999995,9.011718,-1
648,649,1580694004603,-0.32819998,-0.23199999999999998,-0.1312,-0.45707226,3.4736898000000003,8.935869,-1
649,650,1580694004613,-0.2618,-0.24919999,-0.1617,-0.38229653,3.4986181000000003,8.921609,-1
650,651,1580694004623,-0.21429999,-0.23439999,-0.1637,-0.33756329999999996,3.4912824999999996,8.988982,-1
651,652,1580694004634,-0.115899995,-0.19669999,-0.0495,-0.17425959,3.550333,9.130872,-1
652,653,1580694004644,0.0429,-0.12709999,0.0736,-0.05083369,3.571852,9.230663,-1
653,654,1580694004654,0.1532,-0.1162,0.1673,-0.04689762,3.59159,9.316347,-1
654,655,1580694004664,0.134,-0.0682,0.2324,-0.003131616,3.6025074,9.345508,-1
655,656,1580694004675,0.16149999,-0.0716,0.23959999,-0.012411542,3.5875483,9.338086,-1
656,657,1580694004685,0.1103,-0.0764,0.2278,-0.09989567,3.5720339999999995,9.370628,-1
657,658,1580694004695,0.0592,-0.1012,0.2847,-0.19506998,3.5184517,9.400986999999999,-1
658,659,1580694004705,-0.04,-0.1461,0.29279998,-0.2631515,3.49315,9.3859215,-1
659,660,1580694004715,-0.109799996,-0.1529,0.27199998,-0.24749342,3.5415223,9.340691,-1
660,661,1580694004726,-0.0618,-0.102,0.1928,-0.20671538,3.5393772000000006,9.285135,-1
661,662,1580694004736,-0.0232,-0.1017,0.1436,-0.15025052,3.559632,9.243753,-1
662,663,1580694004746,0.024799999,-0.071899995,0.114,-0.101495,3.5887072,9.193515,-1
663,664,1580694004756,0.053799997999999995,-0.041699997999999995,0.054899998,-0.11908759,3.6465796999999998,9.103837,-1
664,665,1580694004766,0.0447,-0.0009999999,-0.0143,-0.09722374,3.6652449999999996,9.077442999999999,-1
665,666,1580694004776,0.0557,0.011000000000000001,-0.054399997,-0.13076171,3.6693344,9.070739,-1
666,667,1580694004787,0.0254,0.0326,-0.0552,-0.14521311,3.7018763999999997,9.087460499999999,-1
667,668,1580694004797,0.021699998999999998,0.0637,-0.0167,-0.102558024,3.7185303999999997,9.192863000000001,-1
668,669,1580694004807,0.0742,0.055299997000000004,0.1002,-0.02918053,3.7213843,9.352748,-1
669,670,1580694004817,0.1152,0.0766,0.2367,0.00022026655,3.695958,9.412727,-1
670,671,1580694004828,0.1274,0.0486,0.28509998,0.028395232000000003,3.6988692000000003,9.413963,-1
671,672,1580694004838,0.1308,0.0493,0.2945,0.031182082000000003,3.6953737999999996,9.446438,-1
672,673,1580694004848,0.054899998,0.0312,0.2742,-0.075829156,3.6622187999999993,9.394033,-1
673,674,1580694004859,0.054899998,0.0312,0.2742,-0.14759775,3.6416763999999997,9.359442999999999,-1
674,675,1580694004869,-0.031999997999999995,0.0055,0.22369999,-0.16164693,3.6305482000000002,9.340144,-1
675,676,1580694004879,-0.0231,0.0175,0.2719,-0.14512692,3.642031,9.388939,-1
676,677,1580694004889,-0.0231,0.0175,0.2719,-0.035003226,3.6828472999999997,9.462488,-1
677,678,1580694004899,0.1681,0.089099996,0.3687,0.07348284,3.7208959999999998,9.497138,-1
678,679,1580694004910,0.2051,0.0995,0.4763,0.11438538,3.7302525,9.596267,-1
679,680,1580694004920,0.2712,0.0791,0.5158,0.18375020000000003,3.7112616999999997,9.624969,-1
680,681,1580694004931,0.21959999,0.036399997999999996,0.4387,0.10886914,3.6540690000000002,9.553794,-1
681,682,1580694004940,0.21959999,0.036399997999999996,0.4387,0.010879251999999999,3.6426344,9.496084,-1
682,683,1580694004950,0.0981,-0.0011999999,0.3929,-0.13304100000000002,3.6158477999999996,9.472055000000001,-1
683,684,1580694004960,-0.1592,-0.078999996,0.2985,-0.30120015,3.5572953000000003,9.402136,-1
684,685,1580694004971,-0.3062,-0.1149,0.2226,-0.42458773,3.5414839,9.312802,-1
685,686,1580694004981,-0.3541,-0.1498,0.1856,-0.46626598,3.5148318,9.296513000000001,-1
686,687,1580694004991,-0.2742,-0.1051,0.15789999,-0.35732025,3.5689886,9.253254,-1
687,688,1580694005001,-0.1644,-0.06,0.08109999400000001,-0.2268554,3.639158,9.153033,-1
688,689,1580694005011,-0.0736,0.0052,0.023599999,-0.16771862,3.6758559999999996,9.125108,-1
689,690,1580694005022,0.015899998999999998,0.0018999999,0.0348,-0.09459012,3.7002387000000003,9.149786,-1
690,691,1580694005032,0.0157,0.0665,0.036399997999999996,-0.13127887,3.7684927000000004,9.112629,-1
691,692,1580694005042,-0.0632,0.121,-0.030399999,-0.22194250000000001,3.8095677,9.055408,-1
692,693,1580694005052,-0.21100000000000002,0.1459,-0.038399998,-0.37040216,3.8102572,9.085881,-1
693,694,1580694005062,-0.3398,0.112799995,0.012,-0.48394477,3.7854435,9.122062,-1
694,695,1580694005073,-0.4588,0.0411,0.0231,-0.6121878000000001,3.7134166,9.136054,-1
695,696,1580694005083,-0.5096,0.0087,0.0733,-0.62218595,3.6833644,9.209469,-1
696,697,1580694005093,-0.5125,-0.033299997000000005,0.13329999,-0.6237661999999999,3.6303089,9.233133,-1
697,698,1580694005103,-0.5361,-0.0762,0.1151,-0.6774825,3.6485622,9.1427,-1
698,699,1580694005113,-0.5794,-0.022000000000000002,0.0287,-0.6647932,3.749636,9.089902,-1
699,700,1580694005123,-0.5545,0.071899995,0.0009,-0.62849706,3.7997227,9.085967,-1
700,701,1580694005133,-0.48099998,0.0976,-0.0466,-0.55553144,3.8497230000000005,8.950886,-1
701,702,1580694005143,-0.41619998,0.1532,-0.18259999,-0.45517606,3.8923974,8.81708,-1
702,703,1580694005153,-0.3496,0.1612,-0.2701,-0.45713928,3.8135705,8.852302,-1
703,704,1580694005163,-0.4007,0.0334,-0.18169999,-0.5680291000000001,3.716615,8.968202,-1
704,705,1580694005173,-0.5715,-0.0253,-0.0739,-0.74231744,3.7460542,9.089117,-1
705,706,1580694005183,-0.7344,0.033,0.0928,-0.8607155000000001,3.7600842000000005,9.324008000000001,-1
706,707,1580694005193,-0.8401,0.0326,0.31849998,-1.0114545,3.7657347000000003,9.455929,-1
707,708,1580694005203,-1.0137,0.060799997,0.33859998,-1.0884233,3.7944458,9.34455,-1
708,709,1580694005213,-1.0488,0.0775,0.22209999,-1.0818153999999998,3.8166065000000002,9.24317,-1
709,710,1580694005223,-0.99619997,0.0733,0.0865,-1.0504704,3.8507094,9.13908,-1
710,711,1580694005233,-1.0332999,0.117699996,0.0099,-0.9975968000000001,3.8015327000000005,8.968489,-1
711,712,1580694005244,-0.9047,0.024899999,-0.18429999,-0.8178114000000001,3.7399824,8.866533,-1
712,713,1580694005255,-0.7181,-0.0263,-0.1442,-0.6150416999999999,3.6931519999999995,9.081274,-1
713,714,1580694005265,-0.552,-0.0733,0.1687,-0.49395254,3.6104847999999996,9.5326,-1
714,715,1580694005275,-0.4931,-0.12719999,0.5197,-0.5760545,3.6043174,9.729825,-1
715,716,1580694005285,-0.5991,-0.1029,0.6649,-0.66776204,3.6932572999999995,9.779595,-1
716,717,1580694005295,-0.71379995,-0.0222,0.69339997,-0.73441654,3.7663667000000003,9.623828999999999,-1
717,718,1580694005306,-0.7877,0.046299997999999995,0.4876,-0.86387587,3.8129193999999997,9.380166000000001,-1
718,719,1580694005316,-0.9267,0.1039,0.184,-0.84560335,3.8401367999999994,9.153522,-1
719,720,1580694005326,-0.84929997,0.1037,0.076299995,-0.7487243,3.8548660000000003,9.20019,-1
720,721,1580694005336,-0.7632,0.1549,0.18329999,-0.79227966,3.864979,9.401762,-1
721,722,1580694005347,-0.84349996,0.139,0.34849998,-0.88255066,3.8436897000000005,9.627563,-1
722,723,1580694005357,-0.9425,0.11449999,0.5818,-1.0087346,3.7934785000000004,9.689316,-1
723,724,1580694005367,-1.1337,0.022499999,0.6087,-1.270009,3.6167578999999996,9.655528,-1
724,725,1580694005377,-1.3292999,-0.1183,0.53749996,-1.5206819999999999,3.4729044,9.457164,-1
725,726,1580694005387,-1.5210999,-0.2306,0.3588,-1.6705878,3.3549278,9.243927000000001,-1
726,727,1580694005397,-1.7025,-0.3839,0.0925,-1.9005365,3.2757563999999997,9.04514,-1
727,728,1580694005408,-1.8766999,-0.4204,-0.0556,-1.870743,3.2573495,9.235844,-1
728,729,1580694005418,-1.841,-0.4269,0.1392,-1.8115488000000002,3.3337532999999997,9.601381,-1
729,730,1580694005428,-1.7741,-0.3579,0.5607,-1.8058697,3.3347495000000005,9.662472,-1
730,731,1580694005438,-1.7741,-0.3579,0.5607,-1.850536,3.2520057999999996,9.479334,-1
731,732,1580694005448,-1.9238,-0.6227,-0.0392,-1.9507955000000001,3.08875,9.053013,-1
732,733,1580694005458,-1.9238,-0.6227,-0.0392,-2.0427713,3.073925,8.604330000000001,-1
733,734,1580694005468,-1.9963,-0.6443,-0.7521,-2.0068102,3.0979533,8.329303,-1
734,735,1580694005478,-2.1329,-0.65309995,-0.96419996,-2.1367292,3.1014776,8.102343,-1
735,736,1580694005488,-2.1329,-0.65309995,-0.96419996,-2.1504814999999997,3.0005092999999996,8.111814,-1
736,737,1580694005498,-2.2689,-0.8455,-0.7148,-2.2692723,2.900451,8.364996000000001,-1
737,738,1580694005509,-2.2689,-0.8455,-0.7148,-2.2819998,2.9100083999999997,8.715373,-1
738,739,1580694005519,-2.0881998999999998,-0.8332,0.107499994,-2.0952618000000003,2.8511972,9.204452,-1
739,740,1580694005529,-2.1729,-0.9205,0.3992,-2.1818743,2.7341304,9.512144000000001,-1
740,741,1580694005539,-2.1729,-0.9205,0.3992,-2.3013737,2.67055,9.443363,-1
741,742,1580694005549,-2.0305998,-1.0927,0.17600000000000002,-1.9861339,2.4888206000000004,9.280702,-1
742,743,1580694005559,-1.9769,-1.2682999,0.0639,-1.9752547999999999,2.316955,9.153799000000001,-1
743,744,1580694005570,-1.9239998999999999,-1.236,-0.21159999,-1.8858266,2.360405,8.918660000000001,-1
744,745,1580694005580,-1.4282,-1.1006,-0.5342,-1.2353603000000002,2.5100906000000003,8.577237,-1
745,746,1580694005590,-0.8851,-1.0903,-0.5536,-0.69817793,2.5199645,8.581528,-1
746,747,1580694005600,-0.6796,-1.1116999,-0.44849998,-0.5392316999999999,2.4342806,8.768678,-1
747,748,1580694005610,-0.7298,-1.232,-0.239,-0.5995943,2.2915478,8.992889,-1
748,749,1580694005621,-0.9302,-1.3450999,0.0263,-0.8195448000000001,2.1773636,9.250917999999999,-1
749,750,1580694005631,-1.0006,-1.3479999,0.134,-0.71836585,2.224606,9.268491000000001,-1
750,751,1580694005641,-0.7292,-1.2052,0.0462,-0.31152394,2.3873159999999998,9.191742,-1
751,752,1580694005651,-0.0618,-0.8989,0.0482,0.37139812,2.6479967,9.248361000000001,-1
752,753,1580694005661,0.91749996,-0.5304,0.0824,1.5702994,3.067748,9.312956,-1
753,754,1580694005671,1.7411,-0.2479,0.20809999,2.4397585,3.2574742000000003,9.364431,-1
754,755,1580694005681,2.5214,-0.1784,0.0916,3.0303123,3.2622150000000003,9.249452999999999,-1
755,756,1580694005692,2.8913,-0.16229999,0.0064,3.3643608,3.3618900000000003,9.177779,-1
756,757,1580694005702,2.9336998,-0.028199999,0.038599997999999996,3.3527633999999997,3.4799432999999995,9.197077,-1
757,758,1580694005712,2.8002,0.0123,0.0,3.112989,3.4722724,9.198417999999998,-1
758,759,1580694005722,2.8002,0.0123,0.0,2.699204,3.3445945,9.364892,-1
759,760,1580694005732,2.0265,-0.1637,0.2685,2.4278834,3.2109403999999997,9.474200999999999,-1
760,761,1580694005743,1.8463999,-0.3482,0.3232,2.314379,3.0074623,9.58533,-1
761,762,1580694005752,1.9059,-0.5025,0.4563,2.5068537999999996,2.9053638,9.668351,-1
762,763,1580694005762,2.2409,-0.46589997,0.44489998,2.8619616000000003,2.9752936,9.627832000000001,-1
763,764,1580694005772,2.7642,-0.1995,0.3673,3.5042686,3.3438760999999997,9.580647,-1
764,765,1580694005782,3.3846998,0.1935,0.3588,4.3219748,3.7807415,9.50975,-1
765,766,1580694005792,4.1201,0.70699996,0.3096,4.9999933,4.3563457,9.541181,-1
766,767,1580694005802,4.4849,1.0291,0.38549998,5.069808,4.4463773,9.626395,-1
767,768,1580694005813,4.3001,0.98029995,0.4504,4.4947114,4.237948,9.6574335,-1
768,769,1580694005823,3.6399,0.7913,0.3983,4.011092,4.055768,9.52673,-1
769,770,1580694005833,3.1074998,0.49969998,0.22039999,3.3882551,3.6831918,9.351005,-1
770,771,1580694005843,2.633,0.17639999,0.1219,2.9700452999999998,3.4602535000000003,9.311922000000001,-1
771,772,1580694005853,2.2941,0.0683,0.1217,2.7866306,3.4747336000000004,9.350421,-1
772,773,1580694005864,2.1796,0.1768,0.22909999,2.7287867,3.590115,9.505211,-1
773,774,1580694005874,2.1627998,0.2368,0.2972,2.6830096,3.611682,9.401513000000001,-1
774,775,1580694005884,2.1581,0.2473,0.0809,2.7522402,3.6184623,9.17119,-1
775,776,1580694005894,2.2549,0.21869999,-0.23369999,2.8359606,3.5427003,8.806984,-1
776,777,1580694005904,2.3147,0.1425,-0.4509,2.8278587,3.4493454,8.751515,-1
777,778,1580694005914,2.2094,-0.0471,-0.3951,2.5314755,3.2011914,8.968776,-1
778,779,1580694005924,1.8300999,-0.1938,-0.10529999400000001,2.0512276000000003,3.0968616,9.336199,-1
779,780,1580694005935,1.3421,-0.2598,0.24249999,1.6678967,3.0449648,9.54594,-1
780,781,1580694005945,0.9816,-0.297,0.3847,1.3473226,3.0236087000000005,9.661541999999999,-1
781,782,1580694005955,0.779,-0.3463,0.46879998,1.066703,2.9215007,9.756094000000001,-1
782,783,1580694005965,0.5255,-0.4197,0.5057,1.054617,2.9104395,9.557269999999999,-1
783,784,1580694005975,0.63949996,-0.3733,0.26119998,1.2746826,3.0444381000000003,9.282569,-1
784,785,1580694005985,0.8849,-0.1876,-0.058599997,1.4187943,3.2841742,9.039922,-1
785,786,1580694005995,0.9892,0.0338,-0.25939998,1.5023999,3.5579848,8.775065,-1
786,787,1580694006006,1.0436,0.22569999,-0.4601,1.512944,3.6689131,8.636977,-1
787,788,1580694006017,1.0311999,0.3126,-0.59319997,1.3991235,3.6921367999999997,8.584631,d
788,789,1580694006027,0.9238,0.3162,-0.6203,1.4281605,3.7304537000000004,8.663975,-1
789,790,1580694006037,0.96529996,0.35369998,-0.5512,1.6171587,3.772869,8.881625999999999,-1
790,791,1580694006047,1.155,0.39519998,-0.3266,1.5390311,3.8286157,8.985294999999999,-1
791,792,1580694006058,0.97309995,0.5308,-0.1733,1.4175876,3.8923209,9.04379,-1
792,793,1580694006068,0.97309995,0.5308,-0.1733,1.5029745,3.9214344,8.9859085,-1
793,794,1580694006078,1.1558,0.6267,-0.47689998,1.5925367,3.990445,8.73829,-1
794,795,1580694006088,1.1558,0.6267,-0.47689998,1.7961971999999997,4.030485,8.563284,-1
795,796,1580694006098,1.3465999,0.6588,-0.6407,2.3225865000000003,4.1000323,8.580397999999999,-1
796,797,1580694006109,2.5335999,0.7356,-0.59639996,3.0061214,4.1254873,8.615697,-1
797,798,1580694006119,3.1776,0.6683,-0.32209998,3.7504690000000003,4.042121,8.96188,-1
798,799,1580694006129,3.6162,0.6295,0.1052,4.077019,3.9973114,9.313617,-1
799,800,1580694006144,3.7888,0.5173,0.49109998,4.187248,3.838365,9.777834,-1
800,801,1580694006154,3.6999,0.4434,0.5537,4.1499176,3.6716232000000004,9.836194,-1
801,802,1580694006164,3.8486,0.266,0.7265,4.6441097000000005,3.5369446000000004,10.177464,-1
802,803,1580694006174,4.5769,0.26729998,1.1087999,5.5890629999999994,3.7086663,10.487466,-1
803,804,1580694006184,5.4386,0.4585,1.3665,6.373068,3.859932,10.674586999999999,-1
804,805,1580694006194,6.2131,0.6106,1.5457,7.14651,4.157866,11.051442999999999,-1
805,806,1580694006205,6.9691,0.9262,2.0751,7.9655952,4.4712768,11.681339,-1
806,807,1580694006215,7.7243,1.2502999,2.7377,8.456397,4.633585,12.266262,-1
807,808,1580694006225,8.1289,1.2832,3.1432998,8.507968,4.4264383,12.370409,-1
808,809,1580694006235,8.0984,1.044,3.0605998,8.369651,3.959435,11.846309,-1
809,810,1580694006245,8.013,0.49539998,2.4638,8.176275,3.250282,11.115177000000001,-1
810,811,1580694006255,7.8522,-0.1994,1.7761999,7.9393454,2.9497714,10.653421,-1
811,812,1580694006265,7.6485996,-0.4084,1.3787999,7.807980000000001,3.1577987999999997,10.455689,-1
812,813,1580694006275,7.5656,-0.2105,1.2681999,7.7824100000000005,3.122748,10.633608,-1
813,814,1580694006285,7.553999999999999,-0.41149998,1.4900999,7.518923299999999,2.8566465,10.663506,-1
814,815,1580694006295,7.2955,-0.70739996,1.4362999,7.440039,2.5762568,10.175233,-1
815,816,1580694006306,7.3304996,-1.0622,0.9219,7.547567999999999,2.2421889999999998,9.771389,-1
816,817,1580694006316,7.4786,-1.4153,0.6034,7.4207516,1.9703034,9.674576,-1
817,818,1580694006326,7.3181996,-1.7247,0.5581,6.860537,1.6255671999999999,9.835649,-1
818,819,1580694006336,6.742999999999999,-2.1362,0.7955,5.973418,1.0593864,10.287991,-1
819,820,1580694006348,5.8883,-2.7489,1.2667999,5.065221299999999,0.56099015,10.543901,-1
820,821,1580694006358,5.0832,-3.2254,1.4646,4.090751999999999,0.1450503,10.371614,-1
821,822,1580694006368,3.6869,-3.9429998,0.98719996,3.3837349999999997,-0.17504488,10.03885,-1
822,823,1580694006378,3.2572,-4.1798,0.3593,2.9015234,-0.37180993,9.38799,-1
823,824,1580694006388,3.2572,-4.1798,0.3593,2.4975642999999996,-0.57029885,8.649867,-1
824,825,1580694006399,2.4038,-4.5919,-0.70269996,1.7000556,-0.7536085,8.276094,-1
825,826,1580694006409,1.7932999,-4.6988997,-0.64089996,0.9629575,-0.8225328000000002,8.429208000000001,-1
826,827,1580694006419,1.1544,-4.6988,-0.37629998,0.27093744,-0.7660679,8.671664,-1
827,828,1580694006429,0.5426,-4.6264997,-0.1815,-0.32704794,-0.6824816,8.796191,-1
828,829,1580694006439,0.0731,-4.5256,-0.24100000000000002,-0.8631575999999999,-0.60305154,8.672584,-1
829,830,1580694006449,-0.5083,-4.4658,-0.584,-1.5542200000000002,-0.5437901999999999,8.248811,-1
830,831,1580694006460,-1.2636,-4.5111,-1.2118,-2.3940487,-0.6155301,7.599867,-1
831,832,1580694006470,-2.2461998,-4.792,-1.7148999,-3.5430639999999998,-0.90878147,7.159927400000001,-1
832,833,1580694006480,-3.4952,-5.1358,-1.7426,-4.8941693,-1.3219727,7.265224000000001,-1
833,834,1580694006490,-4.8201,-5.6988,-1.2171999,-6.343226400000001,-1.9192592000000002,7.848394,-1
834,835,1580694006500,-6.3926,-6.0358996,-0.42100000000000004,-8.307707,-2.3045628,8.833943,-1
835,836,1580694006511,-7.8187,-6.2160997,0.2374,-9.690416,-2.4593717999999996,9.299586999999999,-1
836,837,1580694006521,-8.9142,-6.1907997,0.2909,-10.6502905,-2.4166974999999997,9.110368,-1
837,838,1580694006531,-9.509399,-6.0101,-0.1029,-11.13412,-2.167739,8.685024,-1
838,839,1580694006541,-9.668,-5.6482,-0.4852,-11.246686,-1.7763253,8.383738000000001,-1
839,840,1580694006551,-9.7911,-5.2574997,-0.6519,-11.380386999999999,-1.4619474,8.295258,-1
840,841,1580694006561,-9.7359,-4.9357,-0.604,-11.230395,-1.1094348,8.370149000000001,-1
841,842,1580694006572,-9.3392,-4.5188,-0.6254,-10.801872,-0.67864126,8.327072,-1
842,843,1580694006582,-8.991,-4.0267,-0.5196,-10.544485,-0.16567875,8.583548,-1
843,844,1580694006592,-8.7774,-3.5354,-0.1989,-10.39436,0.25933036,8.824013,-1
844,845,1580694006603,-8.7211,-3.1836,-0.2305,-10.368215,0.7184329,8.536650999999999,-1
845,846,1580694006613,-8.6754,-2.8269,-0.5446,-10.305937,0.83741516,8.317649000000001,-1
846,847,1580694006623,-8.6234,-2.7884,-0.8086,-10.296647,0.8191234000000001,7.949928,-1
847,848,1580694006633,-8.604899000000001,-2.8418999,-1.1796,-10.206406,0.7983034999999999,7.528682000000001,-1
848,849,1580694006644,-8.484799,-2.8608,-1.599,-9.960885000000001,0.77378684,7.188878,-1
849,850,1580694006654,-8.175,-2.9213998,-1.8812,-9.625859,0.7647079999999999,6.8452910000000005,-1
850,851,1580694006665,-7.8197,-2.8551998,-2.3206,-8.987105,0.8723801,6.222109,-1
851,852,1580694006674,-7.2697,-2.8179998,-2.8192,-8.586259,0.8588002,5.979289,-1
852,853,1580694006684,-6.797000000000001,-2.8743,-3.0644999,-8.085755,0.7617105,5.69412,-1
853,854,1580694006695,-6.3020000000000005,-2.9939999999999998,-3.4684,-7.487492,0.60558933,5.2279215,-1
854,855,1580694006705,-5.7451,-3.2473,-3.8634,-7.3174467000000005,0.17335936,5.0009894,-1
855,856,1580694006715,-6.0025997,-3.7059998999999997,-4.0429997,-8.098713,-0.45778096,4.65022,-1
856,857,1580694006725,-6.9035997,-4.6537,-4.5339,-9.228538,-1.6535218999999997,3.1902452,-1
857,858,1580694006736,-7.9041,-5.5239997,-6.185,-9.884376,-2.7404990000000002,1.1519941,-1
858,859,1580694006746,-8.5064,-6.7595997,-8.2114,-10.143908,-3.6456125,-0.6833626,-1
859,860,1580694006756,-8.755199000000001,-7.7869997,-10.559199000000001,-10.112399,-4.457017,-3.3731142999999997,-1
860,861,1580694006766,-8.7485,-8.3907995,-12.617,-9.862157,-4.536763,-4.647375599999999,-1
861,862,1580694006776,-8.438399,-8.4124,-13.6004,-8.850407,-4.5886884000000006,-4.2173195,-1
862,863,1580694006786,-7.312,-8.415,-12.879399000000001,-7.185813400000001,-4.408999,-2.5253081,-1
863,864,1580694006797,-5.7014,-8.0828,-11.1012,-6.228372,-4.1442676,-1.117623,-1
864,865,1580694006807,-4.7875,-7.6710997,-9.2886,-5.359458999999999,-4.119339,1.4930241000000002,-1
865,866,1580694006817,-4.1581,-7.6189,-7.2567,-4.5615190000000005,-4.2075510000000005,2.6975853,-1
866,867,1580694006827,-3.1450999,-7.4876,-6.1737,-3.3026385,-4.2589690000000004,2.9706872000000004,-1
867,868,1580694006837,-2.2912,-7.5474997,-6.367999999999999,-2.883998,-4.7742968,2.0744512,-1
868,869,1580694006848,-2.0112997999999997,-7.8201,-7.8013997,-2.6680217,-4.8790097,1.53996,-1
869,870,1580694006858,-1.4403,-7.9456997000000005,-7.1591997,-1.9576620999999998,-5.1576085,2.2360697,-1
870,871,1580694006868,-0.15359999,-7.8195996,-5.3385,-0.5380059,-5.2253356,4.1196933,-1
871,872,1580694006878,-0.15359999,-7.8195996,-5.3385,0.89581454,-5.1687655,6.5543666,-1
872,873,1580694006889,1.4988999,-7.4638,-2.3281,3.2640152000000002,-4.8337593,10.252968,-1
873,874,1580694006899,5.0492,-5.9561,2.8056997999999997,4.946957,-4.214896700000001,12.463975,-1
874,875,1580694006909,4.5429,-5.3532,3.6567998,4.446396400000001,-3.9198062000000005,13.365295999999999,-1
875,876,1580694006919,3.1604997999999997,-5.5685997,4.1482,3.083751,-4.415885,13.904997,-1
876,877,1580694006929,2.1229,-5.5729999999999995,3.8174,2.1035936,-4.6781554000000005,13.594766,-1
877,878,1580694006939,2.7733998,-5.5174,3.5247998,3.2017946,-4.871923000000001,13.266444,-1
878,879,1580694006950,4.3841,-5.3194,2.9838,4.5372133,-4.850988,12.79106,-1
879,880,1580694006960,4.3841,-5.3194,2.9838,5.3837457,-4.4734989999999994,13.236583999999999,-1
880,881,1580694006970,6.6082997,-4.0194,6.5663,7.305111999999999,-3.9000491999999998,17.149015,-1
881,882,1580694006980,7.570399799999999,-3.2477999,10.162399,8.011804,-3.5028703,19.964903,-1
882,883,1580694006990,6.3554997,-2.6694999,11.8615,6.482703,-3.1817026000000004,21.627676,-1
883,884,1580694007001,4.3722,-2.6202998,10.797,4.4947976999999995,-3.436436,20.174337,-1
884,885,1580694007012,2.9952,-2.9297,8.4871,3.4648025000000002,-3.8507288,18.244967000000003,-1
885,886,1580694007022,2.4584,-3.0925999,5.8244,2.9498384,-3.990914,14.960792000000001,-1
886,887,1580694007032,3.0637999,-2.1866999,5.1840997,4.11909,-2.9912294999999998,15.468801999999998,-1
887,888,1580694007042,4.9649,-0.991,7.1969,6.1222897000000005,-2.006638,17.990673,-1
888,889,1580694007052,6.5369997,0.0332,9.7153,7.2552357,-1.2783983,20.073284,-1
889,890,1580694007063,7.2348,0.69699997,10.901899,7.6951656,-1.0384706,20.569899,-1
890,891,1580694007073,7.567,0.81409997,10.340199,7.8295474,-1.1774108,19.328764000000003,-1
891,892,1580694007083,7.164,0.7529,8.6949,6.893357000000001,-1.4026575000000001,17.260385999999997,-1
892,893,1580694007093,6.1440997,0.5487,6.9670000000000005,5.848594,-1.8167393,15.832023000000001,-1
893,894,1580694007103,4.8859997,-0.06839999599999999,5.216,4.31801,-2.6263819,13.884876,-1
894,895,1580694007113,3.7596998,-0.5237,3.9629,3.6441185,-2.775579,13.59624,-1
895,896,1580694007124,3.5774,-0.41799998,4.3877997,3.8924548999999997,-2.6681461,14.58676,-1
896,897,1580694007134,3.9125,-0.26929998,5.3461,4.1192910000000005,-2.621517,14.966892000000001,-1
897,898,1580694007144,4.2098,-0.2285,5.2971997,4.375576000000001,-2.6148512000000004,14.618104999999998,-1
898,899,1580694007154,4.6067,0.0391,4.8378,4.8322650000000005,-2.2982707,14.075444000000001,-1
899,900,1580694007164,4.9869,0.4183,4.4660997,5.011246,-2.0199208,13.689182999999998,-1
900,901,1580694007175,5.1805997,0.7166,3.9743,5.0539584,-2.0114360000000002,12.943227,-1
901,902,1580694007185,5.0736,0.5754,3.1639999999999997,4.1370273,-2.5794938,12.1093645,-1
902,903,1580694007195,4.1949997,0.0823,2.6325,3.2799222,-2.9499629,11.767903,-1
903,904,1580694007205,3.023,-0.3669,2.0962,2.3857262,-3.3476398,11.046128,-1
904,905,1580694007215,2.4888,-0.5798,1.5277,2.5724645,-2.961704,10.754927,-1
905,906,1580694007225,2.7798,-0.0698,1.3731999,3.1683717000000002,-2.4022653,11.133738000000001,-1
906,907,1580694007236,3.6430000000000002,0.6267,2.029,4.1706324,-1.7263823,12.040650999999999,-1
907,908,1580694007246,4.357599700000001,1.1891999,2.7575,4.5379796,-1.443876,12.379824000000001,-1
908,909,1580694007256,4.6861,1.5042,3.0932,4.585595,-1.3648291000000001,12.683522,-1
909,910,1580694007267,4.5394,1.5123999,3.3467,3.951946,-1.5621113000000002,12.810128,-1
910,911,1580694007277,3.7612,1.2695,3.3895998,3.1638512999999997,-1.9084756,12.564579,-1
911,912,1580694007287,2.6933,0.83419997,2.9178,1.8767763,-2.3326802000000004,11.68516,-1
912,913,1580694007297,1.5698,0.504,2.1286,0.86845356,-2.6509272999999998,10.698845,-1
913,914,1580694007307,0.71669996,0.2153,1.3077999,0.41979933,-2.7798022999999996,10.202144,-1
914,915,1580694007317,0.1743,0.033,0.7123,0.22221065,-2.7527382,9.796441,-1
915,916,1580694007328,0.0341,0.071899995,0.35369998,0.38186559999999997,-2.66082,9.745685,-1
916,917,1580694007338,0.17119999,0.1505,0.3412,0.54395306,-2.6156175,10.026122,-1
917,918,1580694007349,0.44739997,0.18079999,0.6847,0.65198904,-2.633028,10.092680999999999,d
918,919,1580694007359,0.44739997,0.18079999,0.6847,0.6419142,-2.636763,10.061776,-1
919,920,1580694007369,0.44239998,0.081999995,0.43379998,0.66154665,-2.7061182999999995,9.851719000000001,-1
920,921,1580694007380,0.0235,-0.0295,-0.0433,0.17367539,-2.8211646,9.255811999999999,-1
921,922,1580694007390,0.0235,-0.0295,-0.0433,-0.13994588,-2.8671236,8.918488,-1
922,923,1580694007400,-0.612,-0.18699999,-0.8415,-0.39357802,-2.9117324,8.559654,-1
923,924,1580694007411,-0.7441,-0.1731,-0.9145,-0.49193183,-2.87535,8.52081,-1
924,925,1580694007421,-0.6641,-0.051799998,-0.76919997,-0.36202246,-2.7324545,8.712108,-1
925,926,1580694007431,-0.4398,-0.049999997000000004,-0.5237,-0.1725549,-2.7430274,8.937545,-1
926,927,1580694007441,-0.4398,-0.049999997000000004,-0.5237,-0.046926353,-2.727896,9.057264,-1
927,928,1580694007451,0.0602,0.0053,-0.2355,0.35259888,-2.7085412,9.226132000000002,-1
928,929,1580694007461,0.2864,0.0219,-0.15529999,0.5161325,-2.6972501,9.27688,-1
929,930,1580694007472,0.27019998,-0.0242,-0.0859,0.45126869999999997,-2.7272446,9.361289999999999,-1
930,931,1580694007482,0.11,0.0534,-0.027199998,0.27283365,-2.6644015,9.44683,-1
931,932,1580694007492,0.0359,0.0914,0.080299996,0.26507646,-2.618912,9.541333999999999,-1
932,933,1580694007502,0.060599997999999995,0.1599,0.22749999,0.2785127,-2.5219657000000004,9.758124,-1
933,934,1580694007512,0.0383,0.2208,0.40469998,0.2761568,-2.5498152000000003,9.911756,-1
934,935,1580694007522,0.078499995,0.12719999,0.5432,0.33220029999999995,-2.6185767999999996,9.988121000000001,-1
935,936,1580694007532,0.2613,0.0748,0.58419997,0.55121225,-2.6788244,10.013653999999999,-1
936,937,1580694007543,0.59499997,-0.0053999997,0.62549996,0.8532934999999999,-2.7651784,10.078316000000001,-1
937,938,1580694007553,0.8303,-0.0756,0.7944,1.1400422,-2.831699,10.3516,-1
938,939,1580694007563,0.97489995,-0.0381,1.0417,1.2443625,-2.7613382,10.708737,-1
939,940,1580694007574,1.0785999,0.0585,1.4951999,1.3124726999999998,-2.6434095,11.131295,-1
940,941,1580694007584,1.1527,0.22389999,2.0075,1.3072916,-2.5035496,11.627325,-1
941,942,1580694007594,1.0826,0.2883,2.2640000000000002,1.2039003000000001,-2.5323951,11.683397,-1
942,943,1580694007604,1.0668,0.19129999,2.166,1.3102412,-2.7193918,11.359817,-1
943,944,1580694007614,1.1831,-0.0174,1.8216,1.3839443999999999,-2.8670757,11.147336,-1
944,945,1580694007625,1.3097,-0.0884,1.8109,1.5268781,-2.8294485000000003,11.408122,-1
945,946,1580694007634,1.6129,0.022699999,2.3902,1.9912959,-2.7023067000000003,12.291333999999999,-1
946,947,1580694007644,2.0635,0.13859999,3.1964998,2.3388765,-2.5550057999999995,13.006655,-1
947,948,1580694007654,2.3474,0.2832,3.8262,2.4394138,-2.5396254000000003,13.510318,-1
948,949,1580694007664,2.3741999,0.20600000000000002,4.1893,2.354094,-2.64928,13.679885,-1
949,950,1580694007674,2.2789,0.1481,4.2945,2.3269917999999996,-2.5955255,13.750982,-1
950,951,1580694007685,2.3645,0.29709998,4.4363,2.565502,-2.3913095,14.017408999999999,-1
951,952,1580694007695,2.6138,0.3723,4.7337,2.695354,-2.3316939999999997,14.540301999999999,-1
952,953,1580694007705,2.6968,0.3865,5.2167,2.778538,-2.3129044,15.016538,-1
953,954,1580694007715,2.803,0.3787,5.8071,2.7964275,-2.2358012,15.563498999999998,-1
954,955,1580694007725,2.7749999,0.43179998,6.1698,2.7128892000000002,-2.1906369999999997,15.712189000000002,-1
955,956,1580694007736,2.6009998,0.4226,6.225,2.4366364,-2.1920450000000002,15.503882,-1
956,957,1580694007746,2.4377,0.3689,5.943,2.3989615,-2.1216457,15.286241,-1
957,958,1580694007756,2.4931,0.4484,5.4912,2.6286897999999996,-1.8931143,14.7476225,-1
958,959,1580694007766,2.8464,0.5383,5.1064,2.8919563,-1.8528535,14.512291000000001,-1
959,960,1580694007777,2.9693,0.4482,4.9375,2.8439667,-1.8195933000000002,14.338894,-1
960,961,1580694007787,2.9412,0.3956,4.7398,2.6599294999999996,-1.8770349999999998,14.205239,-1
961,962,1580694007797,2.7192,0.19299999,4.5818,2.2174616,-1.9961609,14.022035999999998,-1
962,963,1580694007807,2.1145,-0.044000000000000004,4.2374997,1.4666305,-2.2118783,13.286267,-1
963,964,1580694007817,1.5703,-0.3454,3.4715998,0.95822656,-2.3798652000000002,12.296946,-1
964,965,1580694007827,1.2078999,-0.5886,2.6482,0.31479922,-2.6292837000000002,12.348191,-1
965,966,1580694007838,0.6031,-0.93359995,2.6805,-0.25610298,-2.8577383,12.976151,-1
966,967,1580694007848,-0.4806,-1.3629999,4.1907997,-0.86256385,-2.861234,13.879369,-1
967,968,1580694007858,-0.7147,-1.2952,4.1549,-1.1264813999999999,-2.6772346000000002,13.858272,-1
968,969,1580694007869,-0.7147,-1.2952,4.1549,-1.0613112,-2.530748,13.051675,-1
969,970,1580694007879,-0.43469998,-1.272,2.1499999,-0.88041496,-2.306057,11.680008,-1
970,971,1580694007889,-0.43469998,-1.272,2.1499999,-0.61031073,-2.1940465000000002,10.98092,-1
971,972,1580694007899,0.1204,-1.3364999,0.4759,-0.44235268,-2.1034977,10.253992,-1
972,973,1580694007909,0.13679999,-1.4075999,-0.1893,-0.4752299,-2.0077583999999997,9.590253,-1
973,974,1580694007919,0.13679999,-1.4075999,-0.1893,-0.78437877,-1.7933241000000002,9.03543,-1
974,975,1580694007929,-0.4296,-1.2936,-0.76629996,-1.1159854,-1.5935231,9.02683,-1
975,976,1580694007940,-0.5733,-1.1834999,-0.84559995,-1.3011336000000002,-1.3064201000000002,8.905875,-1
976,977,1580694007950,-0.42069998,-1.0065,-0.97169995,-1.1755148000000002,-1.0531518,8.815354,-1
977,978,1580694007960,-0.1573,-0.90809995,-0.93899995,-0.93464845,-0.8441380999999999,8.818017999999999,-1
978,979,1580694007972,-0.1237,-0.96739995,-1.3066,-0.9758671,-0.7622276,8.352910000000001,-1
979,980,1580694007982,-0.100099996,-0.94009995,-1.9074999,-0.9855204,-0.6120825,7.7415270000000005,-1
980,981,1580694007992,-0.0771,-0.81119996,-2.134,-1.0592427,-0.34304124,7.6296315,-1
981,982,1580694008002,-0.1739,-0.62659997,-2.0946,-1.3463745,-0.13346238,7.6652284,-1
982,983,1580694008013,-0.6484,-0.6551,-1.8778,-2.1048672,-0.16943286,8.224791999999999,-1
983,984,1580694008023,-1.3475,-0.88229996,-0.80829996,-2.6098044,-0.411841,9.127636,-1
984,985,1580694008033,-1.5763999,-1.3715,-0.2109,-2.8875990000000002,-0.8863909,9.538749000000001,-1
985,986,1580694008043,-1.6902,-1.6521,-0.30949998,-2.8825421,-0.94633216,9.269047,-1
986,987,1580694008053,-1.4369,-1.6326,-0.77,-2.5031377999999997,-0.7535319,8.663668,-1
987,988,1580694008063,-0.85649997,-1.4911,-1.4836,-1.7330860000000001,-0.42090067,7.6894865,-1
988,989,1580694008073,-0.1321,-1.1419,-2.3915,-1.2355326000000002,0.064585984,6.9047149999999995,-1
989,990,1580694008084,0.3816,-0.6286,-3.1710000000000003,-0.8859312,0.6744945,6.253358,-1
990,991,1580694008094,0.55869997,-0.396,-3.4122,-0.94101703,0.70849216,6.403944,-1
991,992,1580694008104,0.41329998,-0.5514,-3.0869,-1.1441603,0.565453,6.715774000000001,-1
992,993,1580694008114,0.20009999,-0.7757,-2.7049,-1.4010965,0.29807812,7.083437400000001,-1
993,994,1580694008124,0.0224,-1.1026,-2.471,-1.6391376,0.1716451,7.143857499999999,-1
994,995,1580694008134,-0.2285,-1.0620999,-2.4721,-1.8868608,0.39237133,7.098032000000001,-1
995,996,1580694008145,-0.40109998,-0.9091,-2.5602,-1.9940156000000002,0.47470316,6.8767605,-1
996,997,1580694008154,-0.44309998,-0.8731,-2.9222999,-2.1365279999999998,0.595936,6.329484,-1
997,998,1580694008164,-0.5209,-0.723,-3.4122,-1.9215001,0.8083781999999999,6.0906577,-1
998,999,1580694008174,-0.1978,-0.63479996,-3.4733998999999995,-1.7465892,0.7123708000000001,6.0920366999999995,-1
999,1000,1580694008185,-0.0796,-0.9088,-3.4297998,-1.6924706999999999,0.500053,6.2524385,-1
1000,1001,1580694008195,-0.1936,-1.0489,-3.0351999,-1.968618,0.59887606,6.807011999999999,-1
1001,1002,1580694008205,-0.38939998,-0.91499996,-2.7584999,-1.8430566000000002,0.86603063,6.6097207,-1
1002,1003,1580694008215,-0.116299994,-0.6472,-3.0289998,-1.1751891,0.9541755999999999,6.156421,-1
1003,1004,1580694008225,0.5664,-0.6671,-3.4838998,-0.79596674,0.6684036,5.6718926,-1
1004,1005,1580694008235,0.88519996,-0.9612,-3.9764998,-0.89081544,0.44246763,5.296769,-1
1005,1006,1580694008245,0.6574,-1.2254,-4.3114,-1.5834771,0.06310158,5.385584400000001,-1
1006,1007,1580694008256,0.0376,-1.5386,-4.0590997,-2.16885,-0.15128481,5.8291245,-1
1007,1008,1580694008266,-0.63519996,-1.7785,-3.3881,-2.9808004,-0.33380917,6.657000999999999,-1
1008,1009,1580694008276,-1.2592,-1.8453,-2.7594,-3.5708082,-0.41739553,7.204267999999999,-1
1009,1010,1580694008287,-1.8113999,-1.8916998999999999,-2.2598999,-3.8032660000000003,-0.44621217,7.249758,-1
1010,1011,1580694008297,-1.9425,-1.9188999,-2.3198,-3.6145453,-0.52223283,7.1307755,-1
1011,1012,1580694008307,-1.7048999,-1.9828,-2.3890998,-3.2123291000000003,-0.41194636,7.2536364,-1
1012,1013,1580694008317,-1.2406,-1.8505,-2.2523,-2.5691029999999997,-0.16963397,7.334569999999999,-1
1013,1014,1580694008327,-0.6401,-1.6076,-2.1632,-2.2877555,0.034840424,7.40902,-1
1014,1015,1580694008337,-0.4278,-1.4670999,-2.1213999,-2.2907433999999998,0.06394434,7.5603237000000005,-1
1015,1016,1580694008348,-0.4705,-1.4712,-1.7206,-2.3763027,0.014001291,7.796804400000001,-1
1016,1017,1580694008358,-0.5654,-1.3219,-1.5986999,-2.5076678,0.15441643,7.9193106,-1
1017,1018,1580694008368,-0.5654,-1.3219,-1.5986999,-2.7188458,0.4059417,7.989882000000001,-1
1018,1019,1580694008378,-0.816,-1.0232999,-1.5263,-2.7433243,0.5624938,8.01821,-1
1019,1020,1580694008389,-0.7901,-0.93789995,-1.4837999,-2.5999307999999997,0.5674640999999999,8.100648,-1
1020,1021,1580694008399,-0.4662,-1.0105,-1.4691,-2.3392787,0.4900069,7.981358999999999,-1
1021,1022,1580694008409,-0.22469999,-1.0099,-1.6437,-2.1579224999999997,0.55708283,7.858594,-1
1022,1023,1580694008419,-0.22469999,-1.0099,-1.6437,-1.9371006000000002,0.81377,7.6945619999999995,-1
1023,1024,1580694008429,0.3417,-0.47489998,-1.629,-1.5359473999999997,1.1562941,7.938492999999999,-1
1024,1025,1580694008439,0.3417,-0.47489998,-1.629,-1.5381021000000001,1.4216673,8.281276,-1
1025,1026,1580694008450,0.39519998,-0.1928,-1.2139,-1.7746973000000001,1.6844263,8.658468,-1
1026,1027,1580694008460,0.0165,0.0195,-0.4899,-1.9727265,1.5906407,9.073286999999999,-1
1027,1028,1580694008470,-0.085099995,-0.14459999,-0.1143,-2.1546092,1.4218876,9.410027000000001,-1
1028,1029,1580694008480,-0.34829998,-0.2417,-0.0144,-2.3704321,1.3827472,9.424928,-1
1029,1030,1580694008490,-0.3595,-0.2155,-0.3267,-2.3371623,1.3659686000000002,9.015874,-1
1030,1031,1580694008501,-0.3102,-0.3451,-0.6489,-2.2770197,1.3304194999999999,8.763592,-1
1031,1032,1580694008511,-0.33879998,-0.26909998,-0.9316,-2.315509,1.4946235,8.432724,-1
1032,1033,1580694008521,-0.39859998,-0.1081,-1.0862,-2.3473232000000004,1.6835451000000001,8.409154,-1
1033,1034,1580694008531,-0.3709,0.0831,-0.9662,-2.2541697,1.8989947,8.604522,-1
1034,1035,1580694008542,-0.2085,0.23600000000000002,-0.66029996,-2.1198356,1.9597689999999999,8.908374,-1
1035,1036,1580694008552,-0.092099994,0.2184,-0.47259998,-2.0052972,1.9590986000000001,9.040841,-1
1036,1037,1580694008562,0.0729,0.2121,-0.3637,-1.825665,1.8800038000000001,9.150064,-1
1037,1038,1580694008572,0.23189999,0.0765,-0.1969,-1.7298394,1.8000852999999999,9.35067,-1
1038,1039,1580694008582,0.2066,0.0946,-0.040799998,-1.7652929,1.8289498,9.448678999999998,-1
1039,1040,1580694008593,0.18599999,0.13769999,-0.0224,-1.7785662,1.9149305,9.450316,-1
1040,1041,1580694008603,0.103199996,0.2268,0.0253,-1.8658013,1.9921673999999998,9.534410000000001,-1
1041,1042,1580694008613,0.0385,0.1872,0.0632,-1.904482,1.8562055,9.4096155,-1
1042,1043,1580694008623,-0.0255,-0.0106,-0.1827,-1.999666,1.6697833999999998,9.141905,-1
1043,1044,1580694008633,-0.1469,-0.13939999,-0.33049998,-2.0855892,1.5756911,9.223202,-1
1044,1045,1580694008644,-0.2776,-0.31219998,-0.057299998,-2.2636795,1.4025041999999999,9.587896,-1
1045,1046,1580694008653,-0.4754,-0.3928,0.2251,-2.351652,1.4122821,9.729116000000001,-1
1046,1047,1580694008663,-0.6288,-0.2844,0.4297,-2.535316,1.5731342,10.093801,-1
1047,1048,1580694008673,-0.5997,-0.1635,0.6938,-2.2965567000000005,1.670923,10.177445,-1
1048,1049,1580694008683,-0.3112,-0.0831,0.6943,-2.0035734,1.7807881,10.172724,-1
1049,1050,1580694008693,-0.022699999,0.0818,0.7248,-1.7334787,1.9320345,10.216739,-1
1050,1051,1580694008704,0.23369999,0.15529999,0.7653,-1.5795218999999998,1.9246413,10.314853,-1
1051,1052,1580694008714,0.2421,0.1371,0.8745,-1.6932561000000002,1.9909318999999999,10.372036,-1
1052,1053,1580694008724,0.1592,0.24239999,0.92499995,-1.6147646,2.1319310000000002,10.411809,-1
1053,1054,1580694008734,0.3805,0.3254,0.90739995,-1.3411933999999999,2.1592537999999997,10.241131,-1
1054,1055,1580694008744,0.53569996,0.3177,0.6457,-1.3901213,2.2223365000000004,9.928965,-1
1055,1056,1580694008755,0.4475,0.3672,0.4434,-1.556231,2.1195197,9.872434,-1
1056,1057,1580694008765,0.2521,0.2215,0.408,-1.8451633,2.0339317,9.767233000000001,-1
1057,1058,1580694008775,-0.038399998,0.1264,0.2845,-2.1176619999999997,1.9531994,9.643767,-1
1058,1059,1580694008785,-0.2847,0.0241,0.1811,-2.2596571,1.8898871,9.683894,d
1059,1060,1580694008795,-0.3791,-0.0382,0.2845,-2.2757654,1.8773990000000003,9.794725999999999,-1
1060,1061,1580694008806,-0.36969998,-0.0493,0.3769,-2.096631,1.9103335,9.812348,-1
1061,1062,1580694008816,-0.121599995,-0.0023,0.3701,-1.7597383000000002,2.0375328,9.769952,-1
1062,1063,1580694008826,0.2091,0.096,0.32459998,-1.4936848999999999,2.1289625,9.65752,-1
1063,1064,1580694008836,0.4204,0.153,0.2104,-1.3861375,2.2402832999999998,9.629719,-1
1064,1065,1580694008846,0.5158,0.2604,0.20439999,-1.3552331,2.2977347000000004,9.717538000000001,-1
1065,1066,1580694008857,0.52739996,0.2633,0.3358,-1.5550051999999999,2.2287526,9.816782,-1
1066,1067,1580694008867,0.2586,0.17019999,0.3793,-1.9303778000000003,2.136576,9.591804,-1
1067,1068,1580694008877,-0.0933,0.067499995,0.13939999,-2.1811178,1.9914107,9.492588,-1
1068,1069,1580694008887,-0.2969,-0.123399995,0.0764,-2.3940675,1.7472884999999998,9.384763000000001,-1
1069,1070,1580694008897,-0.5122,-0.3739,-0.0554,-2.6158473,1.7046907999999998,9.198226,-1
1070,1071,1580694008907,-0.6809999999999999,-0.39069998,-0.1972,-2.620837,1.6821278000000002,9.327685,-1
1071,1072,1580694008918,-0.6264,-0.41259998,0.1346,-2.5728283,1.7237102999999998,9.528779,-1
1072,1073,1580694008928,-0.6264,-0.41259998,0.1346,-2.4738328,1.8822447,9.726358,-1
1073,1074,1580694008938,-0.5245,-0.261,0.34469998,-2.3208048,2.0290284,9.90035,-1
1074,1075,1580694008948,-0.1936,0.0254,0.31759998,-2.1621077,2.2056248,9.685264,-1
1075,1076,1580694008958,-0.1786,0.099599995,0.061499998,-2.1555092,2.2995064,9.429534,-1
1076,1077,1580694008969,-0.2696,0.044000000000000004,-0.262,-2.2649722000000003,2.2783895,9.0944605,-1
1077,1078,1580694008979,-0.2696,0.044000000000000004,-0.262,-2.3592176,2.2502432,8.713363000000001,-1
1078,1079,1580694008989,-0.5085,-0.0095999995,-0.9472,-2.5990305,2.2997549999999998,8.321211,-1
1079,1080,1580694008999,-0.6974,-0.0849,-1.2309999999999999,-2.752997,2.2280919999999997,8.024483,-1
1080,1081,1580694009009,-1.0625,-0.1997,-1.5633999,-3.1982896,2.1606426,7.6563406,-1
1081,1082,1580694009020,-1.6695,-0.3622,-2.0621,-3.862422,1.9997808999999998,7.1299515,-1
1082,1083,1580694009030,-2.3130999,-0.49319997,-2.6292,-4.4915514000000005,1.9358174,6.5568852,-1
1083,1084,1580694009040,-2.7424998,-0.62149996,-3.0010000000000003,-4.902195,1.8225142,6.2392993,-1
1084,1085,1580694009050,-3.1383,-0.7266,-3.1297998,-5.2691207,1.7481598999999999,6.132834,-1
1085,1086,1580694009060,-3.2856,-0.8585,-3.2509,-5.339989,1.6336596,5.953221,-1
1086,1087,1580694009071,-3.1146998,-1.0783,-3.6085,-5.145264,1.3766755,5.56784,-1
1087,1088,1580694009081,-3.1146998,-1.0783,-3.6085,-4.9853888,0.96310115,5.276351,-1
1088,1089,1580694009091,-3.0098,-2.1791,-4.416,-5.171101999999999,0.2791639,4.678797,-1
1089,1090,1580694009101,-3.2728,-2.4543,-4.6012,-5.471584,0.07505344,4.7539654,-1
1090,1091,1580694009112,-3.8351998,-2.3944,-4.1707,-5.990417,0.29372066,5.188944,-1
1091,1092,1580694009122,-4.2293997,-1.9081999,-3.8098998,-6.346435,0.66577,5.4732504,-1
1092,1093,1580694009132,-4.3297,-2.1109999999999998,-4.0362,-6.3229623,0.2960191,4.7758389999999995,-1
1093,1094,1580694009142,-4.4396,-2.5946,-5.5147,-6.5261154,-0.20454144,2.857001,-1
1094,1095,1580694009153,-4.6609,-3.306,-7.7446,-6.558284,-0.9980085999999999,0.69432807,-1
1095,1096,1580694009163,-4.5855,-4.2355,-9.4942,-6.4376736,-1.8846197,-1.0050476000000002,-1
1096,1097,1580694009173,-4.6119,-4.7736998,-10.5728,-6.463760400000001,-1.9799569,-1.6170055,-1
1097,1098,1580694009183,-4.6967998,-4.584,-10.885699,-6.462812400000001,-1.5436375,-1.5037885,-1
1098,1099,1580694009193,-4.746299700000001,-4.2018,-10.533,-6.3583865,-1.6944436,-0.8832976,-1
1099,1100,1580694009204,-4.5065,-4.6052,-9.8473,-5.754674400000001,-2.2814537999999995,-0.14521311,-1
1100,1101,1580694009214,-3.9424,-5.1038,-9.267000000000001,-5.0508942999999995,-2.8518197999999995,0.30192798,-1
1101,1102,1580694009224,-3.2789998,-5.6858,-8.965099,-4.0996013,-3.6769671,0.5292621999999999,-1
1102,1103,1580694009235,-2.4067,-6.4754,-8.841499,-2.966981,-4.3494697,0.7153396,-1
1103,1104,1580694009246,-1.3910999,-6.7440996,-8.5426,-1.9565799,-4.308068799999999,1.3862523000000002,-1
1104,1105,1580694009256,-0.6885,-6.3335,-7.8436,-1.4025425,-3.5769372,1.9948297,-1
1105,1106,1580694009266,-0.45479998,-5.464699700000001,-7.5074997,-1.2204396,-2.9825816,1.9516765999999999,-1
1106,1107,1580694009276,-0.3969,-4.7711,-7.6991,-1.210288,-2.9406447,1.7681563000000002,-1
1107,1108,1580694009286,-0.5214,-4.7653,-7.8977,-0.7959188,-4.021579,1.5086153,-1
1108,1109,1580694009297,-0.13329999,-5.8901997,-8.2794,0.39083904,-5.756369599999999,0.89571875,-1
1109,1110,1580694009307,0.7145,-7.1049,-8.8238,2.3296251,-6.4921746,1.5409944,-1
1110,1111,1580694009317,2.4796999,-7.625,-8.2087,5.105453,-6.718101,4.0582769999999995,-1
1111,1112,1580694009328,5.0982,-7.5734,-5.7181997,7.4190564,-6.477723,6.986807300000001,-1
1112,1113,1580694009338,7.2840996,-7.0046,-2.8188999,8.0114975,-5.632675,9.171669999999999,-1
1113,1114,1580694009349,7.5643997,-4.8108,0.2497,7.810374700000001,-5.0119834,10.058002,-1
1114,1115,1580694009359,7.5643997,-4.8108,0.2497,7.8625869999999995,-5.407812,10.674683,-1
1115,1116,1580694009369,7.955,-5.263499700000001,2.1025999,8.276304,-6.147256400000001,11.882203,-1
1116,1117,1580694009379,8.4247,-5.5415998,3.58,8.806085000000001,-6.7353683,13.315228,-1
1117,1118,1580694009389,9.1411,-5.4832997,5.2437997,9.823142,-7.052743400000001,15.212202,-1
1118,1119,1580694009400,10.2437,-5.4263,6.2781997,10.871007,-7.220472,15.96336,-1
1119,1120,1580694009411,10.7943,-4.9154,6.2781,11.431135000000001,-6.968544500000001,15.769639999999999,-1
1120,1121,1580694009422,11.5412,-4.4804,5.6633,12.201148,-6.722746000000001,14.777636,-1
1121,1122,1580694009432,11.9172,-3.7605998999999994,4.8764,12.539889,-6.0486727,14.431664000000001,-1
1122,1123,1580694009442,12.373799,-2.681,6.0502996,12.874907,-5.2759295,16.55464,-1
1123,1124,1580694009452,12.394299499999999,-1.8224,9.1696,12.554772,-4.934143,19.557314,-1
1124,1125,1580694009462,11.6066,-1.5353,11.421499,11.45049,-5.070814,20.871560000000002,-1
1125,1126,1580694009472,10.3622,-1.665,11.595799000000001,10.380215,-5.5966473,20.269169,-1
1126,1127,1580694009482,9.8237,-2.2196,10.2346,10.065319,-6.357199,18.426361,-1
1127,1128,1580694009493,9.4815,-2.6913,8.046599,9.575733999999999,-6.761599,16.106207,-1
1128,1129,1580694009503,8.9121,-2.5830998,6.026799700000001,9.064658,-6.512535,14.396144,-1
1129,1130,1580694009513,8.6909,-2.0953999,5.0692,9.094814999999999,-6.0422277,14.177926000000001,-1
1130,1131,1580694009523,9.0047,-1.5406,5.907,9.4895525,-5.625072,15.8001795,-1
1131,1132,1580694009534,9.2758,-1.0260999,7.7963996,9.456331,-5.3114214,17.43473,-1
1132,1133,1580694009544,9.1879,-0.6082,9.19,9.473742,-5.1869616999999995,18.2639,-1
1133,1134,1580694009554,9.2142,-0.4035,9.8425,9.377868,-5.103422599999999,18.52619,-1
1134,1135,1580694009564,9.0547,-0.1955,9.943999,9.032067999999999,-5.0055765999999995,18.210403,-1
1135,1136,1580694009574,8.6044,0.0055,9.581099499999999,8.484102,-4.8712425,17.799664,-1
1136,1137,1580694009584,7.9870996,0.226,9.2962,8.014197,-4.663024,17.830502,-1
1137,1138,1580694009595,7.4909,0.4727,9.5831995,7.477828999999999,-4.512610400000001,18.216245999999998,-1
1138,1139,1580694009605,6.8244996,0.6679999999999999,9.951799000000001,6.918764,-4.3434267,18.285975,-1
1139,1140,1580694009615,6.3233,0.8372,9.7912,6.573500999999999,-4.338677,17.905027,-1
1140,1141,1580694009625,6.0453,0.7628,9.492599499999999,6.3015870000000005,-4.5969725,17.638592000000003,-1
1141,1142,1580694009635,5.5534,0.34559998,9.1144,5.5058017,-5.2274137000000005,17.049923,-1
1142,1143,1580694009645,4.6825,-0.2715,8.5667,4.491168,-6.035428,16.447275,-1
1143,1144,1580694009656,3.4743,-1.2002,7.8978,2.78709,-6.828665700000001,15.753570000000002,-1
1144,1145,1580694009666,1.5426999,-2.0298,7.1579,0.79720217,-7.3816204,15.060879000000002,-1
1145,1146,1580694009677,-0.5952,-2.6963,6.4693,-1.4810436000000002,-8.10239,14.938669,-1
1146,1147,1580694009687,-2.6227999,-3.4331,6.3781,-2.9717502999999996,-8.653152,15.123751,-1
1147,1148,1580694009697,-4.6168,-4.2376,6.5256,-5.1817136,-9.47556,15.161722,-1
1148,1149,1580694009707,-6.5745997,-5.0445,6.5087,-5.856294,-9.751401,15.19551,-1
1149,1150,1580694009718,-8.2578,-5.7356,6.5804996,-7.112943,-10.114314,15.296257999999998,-1
1150,1151,1580694009728,-11.3069,-6.4638,5.9272,-9.79012,-10.537456500000001,14.737335999999999,-1
1151,1152,1580694009738,-11.3069,-6.4638,5.9272,-10.138171,-9.926245,13.829885500000001,-1
1152,1153,1580694009748,-10.4754,-5.5495,3.7784,-8.912905,-9.313291,12.712943,-1
1153,1154,1580694009758,-9.1151,-5.5446,2.7210999,-7.5136943,-9.135211,11.715662,-1
1154,1155,1580694009769,-8.7951,-5.8852997,2.3832,-7.1341467000000005,-9.277128999999999,11.446199,-1
1155,1156,1580694009779,-9.9262,-6.1816998,2.6487,-8.194281,-9.368722,11.764033999999999,-1
1156,1157,1580694009789,-9.9262,-6.1816998,2.6487,-9.919542,-9.599733,11.894259,-1
1157,1158,1580694009799,-13.2132,-6.9933,2.3127,-11.399426,-9.801297,11.545291,-1
1158,1159,1580694009809,-13.2132,-6.9933,2.3127,-11.776752,-9.581748,11.156128,-1
1159,1160,1580694009819,-12.8269,-6.6414,0.7362,-10.931628,-9.019177,9.825775,-1
1160,1161,1580694009830,-11.8706,-6.3331,-0.7443,-10.243229,-8.633951,8.662853,-1
1161,1162,1580694009840,-11.8706,-6.3331,-0.7443,-9.310677,-8.175355999999999,7.0925927,-1
1162,1163,1580694009850,-9.629,-5.4231,-4.0617,-7.972940400000001,-7.1603103,5.1342793,-1
1163,1164,1580694009860,-8.3989,-4.6521,-5.5513997,-7.064265,-6.417399,4.009282,-1
1164,1165,1580694009870,-7.2777,-4.0518,-6.3964996,-5.871052,-5.513502,3.1249216,-1
1165,1166,1580694009880,-6.5478997,-3.4728,-6.6751,-5.3357563,-4.8423685999999995,2.9460173,-1
1166,1167,1580694009891,-6.5478997,-3.4728,-6.6751,-5.222980000000001,-4.5341487,2.9617807999999997,-1
1167,1168,1580694009901,-6.2823,-3.1341,-6.6259,-5.283352,-4.381169,3.058564,-1
1168,1169,1580694009911,-6.2545,-3.322,-6.8399997,-5.321927,-4.4644965999999995,2.8649497000000004,-1
1169,1170,1580694009921,-6.3023996,-3.6803,-7.5712,-5.3629737,-4.8150177,1.8215278000000001,-1
1170,1171,1580694009931,-5.9065,-3.9513998,-8.2801,-4.7718163,-4.9642143,1.3212163000000001,-1
1171,1172,1580694009941,-5.9065,-3.9513998,-8.2801,-4.22952,-4.886939,1.2582103999999998,-1
1172,1173,1580694009951,-3.7942998,-3.5244,-8.1488,-3.0157173,-4.3838887,1.5944809,-1
1173,1174,1580694009962,-2.3321,-3.1106,-7.544699700000001,-1.093518,-3.8221707,2.5142949,-1
1174,1175,1580694009972,-1.2559,-2.8093,-6.7918,-0.19371966,-3.5198307,3.322022,-1
1175,1176,1580694009982,-0.3951,-2.4627,-5.9491,0.61512786,-3.2261007,4.087199,-1
1176,1177,1580694009992,0.43879998,-2.1811,-5.3996,1.4122343000000002,-3.0408467999999997,4.4278083,-1
1177,1178,1580694010003,1.2425,-2.1090999,-5.3694,2.2017653,-3.043107,4.2883596,-1
1178,1179,1580694010013,1.9411,-2.0772,-5.6524997,2.7111652000000004,-3.0088603,4.0646935,-1
1179,1180,1580694010023,2.2672,-1.9667,-5.5127997,3.058564,-2.8839598,4.501654599999999,-1
1180,1181,1580694010033,2.7895,-1.7202,-4.7534,3.8651705,-2.571143,5.5035989999999995,-1
1181,1182,1580694010043,3.6269998999999995,-1.3206999,-3.9036998999999994,4.8278885,-2.1099238,6.3290052,-1
1182,1183,1580694010054,4.7002997,-0.7452,-3.1506,6.006487,-1.6983988,7.0418262,-1
1183,1184,1580694010064,5.8224998,-0.35279998,-2.416,6.709520299999999,-1.4804115,7.5788074000000005,-1
1184,1185,1580694010074,6.2497,-0.1362,-2.0044,6.823245,-1.5531954,7.8189649999999995,-1
1185,1186,1580694010084,6.3062997,-0.214,-1.808,6.990734,-1.6712102,8.100063,-1
1186,1187,1580694010094,6.5664,-0.1822,-1.3948,7.369084399999999,-1.5628008,8.650605,-1
1187,1188,1580694010105,7.0389,0.1191,-0.6857,7.7435092999999995,-1.2506831,9.647923,-1
1188,1189,1580694010115,7.3156996,0.53639996,0.5256,7.925019,-0.83321095,11.269219,-1
1189,1190,1580694010125,7.4686,0.97749996,1.8562,8.044949,-0.64689416,12.037203,-1
1190,1191,1580694010135,7.6723,1.3130000000000002,2.5979,8.267551,-0.45716804,12.25182,-1
1191,1192,1580694010145,7.7875,1.4746,2.6016998,7.913736999999999,-0.6500640999999999,11.978345,-1
1192,1193,1580694010155,7.3399997,1.2265999,2.2691,7.114609700000001,-1.2703539,11.469192999999999,-1
1193,1194,1580694010165,6.4926996,0.6105,1.7968998999999999,6.090034999999999,-1.8632540000000002,11.294388,-1
1194,1195,1580694010176,5.4269,0.0826,1.7449,5.006697,-2.3315023999999998,11.576694,-1
1195,1196,1580694010186,4.3259,-0.32479998,2.0844998,3.9173162000000006,-2.5098032999999997,12.049826,-1
1196,1197,1580694010196,3.2638998,-0.4249,2.5214,3.2253919,-2.5585876,12.078039,-1
1197,1198,1580694010206,2.6071,-0.46109998,2.4276,2.8285482,-2.5722249,11.512796,-1
1198,1199,1580694010216,2.2593,-0.43019998,1.8131,2.92559,-2.3540652,10.950542,-1
1199,1200,1580694010227,2.4938,-0.1704,1.3162,3.5724169999999997,-2.0057952,10.715997,-1
1200,1201,1580694010237,3.1585,0.23249999,1.1438999,3.8734352999999997,-1.6938881999999997,10.871763,-1
1201,1202,1580694010247,3.3664,0.5044,1.3944,3.8623165999999998,-1.7619026000000002,11.426356,-1
1202,1203,1580694010257,3.3537,0.4542,1.8810999,3.2622150000000003,-1.9977984,11.764542,-1
1203,1204,1580694010267,2.7519999,0.2306,2.2196999,2.1620407000000004,-2.3399872999999998,11.936943,-1
1204,1205,1580694010277,1.6266999,-0.1038,2.3892999,1.294267,-2.5415602,11.519998,-1
1205,1206,1580694010288,0.7349,-0.3069,1.9677,0.69401205,-2.566632,11.063424000000001,d
1206,1207,1580694010298,-0.0023999998999999998,-0.355,1.3768,0.44010213,-2.4726357000000005,10.134177000000001,-1
1207,1208,1580694010308,-0.1855,-0.2803,0.58849996,0.6628012,-2.3276906000000004,9.556476,-1
1208,1209,1580694010318,0.28689998,0.0,-0.29,0.9367936,-2.162807,9.264584,-1
1209,1210,1580694010328,0.7992,0.16149999,-0.26119998,1.4515278,-1.9912575000000001,9.296991,-1
1210,1211,1580694010338,0.7992,0.16149999,-0.26119998,1.9126894,-1.7021817,9.639516,-1
1211,1212,1580694010349,1.3822,0.5609,0.5258,2.0468794999999997,-1.5927379,10.077653999999999,-1
1212,1213,1580694010359,1.0983,0.5063,0.84129995,1.6719093,-1.6996438999999999,10.449225,-1
1213,1214,1580694010369,0.5548,0.3285,1.0675,1.0768256999999999,-1.8810285,10.651717,-1
1214,1215,1580694010379,0.0165,0.1423,1.0078,0.5844438,-2.0592625,10.44913,-1
1215,1216,1580694010389,-0.34469998,0.0164,0.5442,0.32008561,-2.1408954,9.985631,-1
1216,1217,1580694010399,-0.4448,-0.072299995,0.0405,0.28950685,-2.186998,9.599313,-1
1217,1218,1580694010410,-0.28219998,-0.0495,-0.3157,0.48440444,-2.1436822,9.172857,-1
1218,1219,1580694010420,-0.1709,-0.0014,-0.5733,0.5699062,-2.0911052,8.999526,-1
1219,1220,1580694010430,0.079799995,0.0526,-0.5257,0.90538174,-2.0007386,9.080125,-1
1220,1221,1580694010440,0.44689998,0.1987,-0.2909,1.2498882,-1.8393886000000002,9.403678,-1
1221,1222,1580694010451,0.5574,0.318,0.1112,1.3075502,-1.7494144,9.855444,-1
1222,1223,1580694010461,0.5488,0.3105,0.5137,1.2248065000000001,-1.8197848,10.144098,-1
1223,1224,1580694010471,0.3834,0.22109999,0.5624,1.0124886999999998,-1.8968302,10.068107000000001,-1
1224,1225,1580694010482,0.17899999,0.12629999,0.3746,0.8328278,-1.9816808000000001,9.887305,-1
1225,1226,1580694010492,0.0221,0.0371,0.2251,0.65845335,-2.0278122,9.692735,-1
1226,1227,1580694010502,-0.14469999,0.023699999,-0.081599995,0.55251473,-2.0357034,9.387799000000001,-1
1227,1228,1580694010512,-0.1217,0.0309,-0.3003,0.6578021,-1.9434692999999998,9.216211,-1
1228,1229,1580694010522,0.1013,0.16049999,-0.4005,0.86700743,-1.8429223000000001,9.185058,-1
1229,1230,1580694010533,0.3963,0.3353,-0.30359998,1.1976467,-1.6599096999999998,9.361673,-1
1230,1231,1580694010543,0.6234,0.41669998,-0.1174,1.3669072,-1.5920483,9.527822,-1
1231,1232,1580694010553,0.7506,0.45029998,-0.0094,1.4481663999999999,-1.565377,9.575686,-1
1232,1233,1580694010563,0.76669997,0.49289998,0.03,1.439624,-1.5888209,9.676674,-1
1233,1234,1580694010573,0.76049995,0.40829998,0.1875,1.3202682,-1.7722168000000003,9.865950999999999,-1
1234,1235,1580694010583,0.5457,0.20600000000000002,0.3647,1.1107658999999999,-1.8095567,10.065242999999999,-1
1235,1236,1580694010593,0.4271,0.29729998,0.5812,1.1365947,-1.7168724999999998,10.301417,-1
1236,1237,1580694010604,0.5335,0.3784,0.8172,1.2661016999999999,-1.6533111,10.454857,-1
1237,1238,1580694010614,0.7492,0.41939998,0.9156,1.5875856000000002,-1.5987809,10.526213,-1
1238,1239,1580694010624,1.0569998999999999,0.47959998,0.98429996,1.922611,-1.5316858,10.682669,-1
1239,1240,1580694010634,1.3991,0.5123,1.2099999,2.205146,-1.6127341999999998,10.970319,-1
1240,1241,1580694010644,1.5986999,0.3906,1.5339999,2.2170691000000002,-1.7734523000000002,11.283039,-1
1241,1242,1580694010654,1.5188999,0.2604,1.8383,2.062758,-1.8278486,11.567393,-1
1242,1243,1580694010665,1.364,0.239,2.2798998,1.8596816999999999,-1.8537058999999998,12.160323,-1
1243,1244,1580694010676,1.2096,0.2557,2.7704,1.7501901000000002,-1.7756165000000002,12.690849,-1
1244,1245,1580694010686,1.2106999,0.3466,3.2110999,1.9598936000000002,-1.7750037,13.111041,-1
1245,1246,1580694010696,1.5823,0.2949,3.7684,2.4615076,-1.8010621,13.760501999999999,-1
1246,1247,1580694010706,2.0126998,0.3069,4.3149,2.848372,-1.7515883,14.61551,-1
1247,1248,1580694010716,2.4294,0.29749998,5.2334,3.2426493,-1.875225,15.583639000000002,-1
1248,1249,1580694010726,2.8072999,0.16899999999999998,6.1707997,3.1900728,-1.9584186999999997,16.301266000000002,-1
1249,1250,1580694010737,2.7224998,0.0655,6.8222,2.9073462,-2.1646647,16.8402,-1
1250,1251,1580694010747,2.4387,-0.213,7.3539,2.2744534,-2.5511367000000003,17.109644,-1
1251,1252,1580694010757,1.8611,-0.6437,7.461199799999999,1.4360613000000002,-2.8512932999999996,16.849741,-1
1252,1253,1580694010767,1.0947,-0.95839995,7.1333,0.9163855,-2.9840853,16.187618,-1
1253,1254,1580694010777,0.75619996,-1.1506,6.3803,0.7303081,-2.8720746,15.364626999999999,-1
1254,1255,1580694010787,0.7090000000000001,-1.1308,5.7030997,0.97111696,-2.6388986,14.802066,-1
1255,1256,1580694010798,1.0957,-0.94339997,4.9851,1.5505903,-2.0456538,14.222248,-1
1256,1257,1580694010808,1.8428999,-0.3232,4.286299700000001,1.7523544999999998,-1.6543742,14.011242000000001,-1
1257,1258,1580694010818,1.8428999,-0.3232,4.286299700000001,1.6846656999999998,-1.5280178999999998,13.645331,-1
1258,1259,1580694010828,1.3644999,-0.40649998,3.2914999,1.1895543,-1.4448816,13.04568,-1
1259,1260,1580694010838,0.9795,-0.4179,2.7983,0.6779134,-1.3025893,12.472086000000001,-1
1260,1261,1580694010849,0.4922,-0.513,2.4256,0.22067836,-1.2791837,12.201187,-1
1261,1262,1580694010859,0.312,-0.5652,1.7610999,-0.028874072999999997,-1.190943,11.550894,-1
1262,1263,1580694010869,0.312,-0.5652,1.7610999,-0.13962027,-1.0115023,10.930067,-1
1263,1264,1580694010879,0.22989999,-0.40539998,0.5760000000000001,-0.23105003,-0.7400765,10.282675,-1
1264,1265,1580694010889,0.22989999,-0.40539998,0.5760000000000001,-0.16538188,-0.35464832,9.798338000000001,-1
1265,1266,1580694010899,0.3444,-0.226,0.0846,-0.04672524,-0.05893567,9.502653,-1
1266,1267,1580694010910,0.7759,0.3112,-0.65819997,0.19054015,0.28089732,9.144874,-1
1267,1268,1580694010920,1.0741,0.5747,-0.9686,0.4640729,0.6758161,8.787477,-1
1268,1269,1580694010930,1.1643,0.6577,-1.1205,0.42908883,0.80863684,8.655097,-1
1269,1270,1580694010940,1.0835999,0.7061,-1.193,0.26699179999999995,0.9254068999999999,8.56902,-1
1270,1271,1580694010950,0.82919997,0.5694,-1.4215,-0.14656344,0.74352413,8.337442999999999,-1
1271,1272,1580694010960,0.3771,0.1576,-1.1692,-0.6436284999999999,0.35848862,8.811945,-1
1272,1273,1580694010970,-0.0815,-0.2976,0.0036,-1.1896502,-0.07240066,9.940610000000001,-1
1273,1274,1580694010981,-0.6604,-0.6245,0.43949997,-1.7285273999999997,-0.27426058,10.191112,-1
1274,1275,1580694010991,-0.42069998,-0.5168,0.355,-0.9862291,-0.009959879,9.99018,-1
1275,1276,1580694011001,0.71099997,-0.2952,-0.023599999,-0.31065246,0.19891986,9.725669,-1
1276,1277,1580694011011,1.4656999,-0.1757,-0.8031,0.53714395,0.33369425,8.561397999999999,-1
1277,1278,1580694011021,1.5063,-0.445,-1.6398,0.3992954,0.13129802,8.007589,-1
1278,1279,1580694011031,0.9501,-0.74109995,-1.7694,-0.53885823,-0.16701952,8.079339,-1
1279,1280,1580694011041,0.0072,-1.1108,-1.3597,-1.3013348999999999,-0.45080903,8.494703999999999,-1
1280,1281,1580694011052,-0.8225,-1.5337,-0.6759999999999999,-2.2806687,-0.86404824,9.298573,-1
1281,1282,1580694011062,-1.4971,-1.6378,-0.061699998,-2.7639527000000004,-0.80510294,9.748873,-1
1282,1283,1580694011072,-1.6696999,-1.5774,0.1705,-2.8075943,-0.67550004,9.82882,-1
1283,1284,1580694011082,-1.3046,-1.3852999,-0.4585,-2.4475540000000002,-0.37012443,9.013202,-1
1284,1285,1580694011092,-0.9788,-1.2619,-1.5259999,-2.1243176,-0.24985889,7.92882,-1
1285,1286,1580694011103,-0.516,-1.4139999,-2.6013,-1.5497379999999998,-0.22841641,6.413032,-1
1286,1287,1580694011113,-0.1847,-1.405,-3.5870998,-1.5111339,-0.25206155,5.863869,-1
1287,1288,1580694011123,-0.34600000000000003,-1.5996,-3.8569,-1.829419,-0.36690659999999997,5.774202,-1
1288,1289,1580694011133,-0.7334,-1.7132,-3.8825998,-2.3197517000000003,-0.38440344,5.7687907,-1
1289,1290,1580694011143,-1.1272,-1.7516999,-3.7526998999999996,-2.6976717,-0.48221135,5.9852552,-1
1290,1291,1580694011153,-1.3445,-1.9437,-3.6341,-2.8245642,-0.550676,5.8768744,-1
1291,1292,1580694011163,-1.3434,-1.91,-4.0558,-2.738459,-0.34299335,5.2103763,-1
1292,1293,1580694011174,-1.1420000000000001,-1.7283,-4.4193997000000005,-2.4613254,-0.117526576,5.315674,-1
1293,1294,1580694011184,-0.84919995,-1.5381999,-4.1377997,-2.1963735,0.09150638400000001,5.5145454,-1
1294,1295,1580694011194,-0.42999998,-1.3888999,-4.0146,-1.7838334999999998,0.16444334,5.728511,-1
1295,1296,1580694011204,-0.1786,-1.4395,-3.6179,-1.6132132,0.11988247,6.350169999999999,-1
1296,1297,1580694011214,-0.2173,-1.5153999,-2.9480999,-1.8812773999999997,0.051235918,6.831721000000001,-1
1297,1298,1580694011224,-0.72099996,-1.7011,-2.612,-2.5323184,-0.25107515,6.9414229999999995,-1
1298,1299,1580694011234,-1.2136999,-1.9794999,-2.6966,-2.956102,-0.36920506,6.7729479999999995,-1
1299,1300,1580694011245,-1.5444,-1.9848,-2.8488,-3.0882711,-0.15066232,6.668444999999999,-1
1300,1301,1580694011255,-1.5401,-1.6955,-2.883,-2.9555845,0.24329878,6.726682,-1
1301,1302,1580694011265,-1.4266,-1.4238,-2.7997,-2.705879,0.5785541000000001,6.9161779999999995,-1
1302,1303,1580694011276,-1.0889,-1.1017,-2.5598,-2.1517553,0.8550269,7.2426710000000005,-1
1303,1304,1580694011286,-0.57919997,-0.8983,-2.2616,-2.0836356,0.9156097,7.1244645,-1
1304,1305,1580694011296,-0.5973,-0.9122,-2.4726,-2.1910105,0.82115376,6.936558,-1
1305,1306,1580694011306,-0.64779997,-0.9921,-2.5556,-2.0527691999999997,0.82270515,7.248560400000001,-1
1306,1307,1580694011316,-0.4789,-0.996,-2.2078,-1.950853,1.0891031,7.4225235000000005,-1
1307,1308,1580694011326,-0.40649998,-0.6634,-2.0858998,-1.9205998,1.4879102,7.5385175,-1
1308,1309,1580694011336,-0.3179,-0.2819,-1.9253,-1.7091823,1.756415,7.923888000000001,-1
1309,1310,1580694011346,-0.1033,-0.0791,-1.5013,-1.5700121,1.8988223000000002,8.184013,-1
1310,1311,1580694011357,-0.0088,0.0699,-1.3234999,-1.5404773,2.0664163,8.317993,-1
1311,1312,1580694011367,-0.0067999995999999995,0.1576,-1.1164,-1.6551307000000002,2.0162625,8.776291,-1
1312,1313,1580694011378,-0.20369999,0.078999996,-0.6842,-1.9782810000000002,1.9484301,8.739047,-1
1313,1314,1580694011388,-0.48409998,0.01,-0.77089995,-1.8459581999999999,1.8335276000000003,8.665172,-1
1314,1315,1580694011398,-0.3558,-0.1265,-0.8469,-1.7917823,1.7624102,8.688443,-1
1315,1316,1580694011409,-0.3504,-0.074599996,-0.7047,-1.8327134999999999,1.9122298,8.794506,-1
1316,1317,1580694011419,-0.15339999,0.024799999,-0.4283,-1.6376244,2.0206776,9.076936,-1
1317,1318,1580694011429,-0.15339999,0.024799999,-0.4283,-1.5747238000000001,2.0731490000000004,9.123469,-1
1318,1319,1580694011439,-0.091699995,0.0672,-0.37739998,-1.4243777,2.1851783,9.191942999999998,-1
1319,1320,1580694011449,0.3145,0.3223,-0.0898,-1.1594161,2.3460782000000004,9.405057000000001,-1
1320,1321,1580694011459,0.2332,0.2778,-0.0591,-1.2403306,2.3085947,9.436228999999999,-1
1321,1322,1580694011469,-0.0106,0.1445,-0.312,-1.4724723999999998,2.2021484,9.174591,-1
1322,1323,1580694011480,-0.0106,0.1445,-0.312,-1.4832558999999998,2.2014972999999998,9.046741,-1
1323,1324,1580694011490,0.0289,0.0457,-0.26839998,-1.4369711,2.0819306,9.2490015,-1
1324,1325,1580694011500,-0.1103,-0.1082,-0.12,-1.589702,1.9599606,9.406511,-1
1325,1326,1580694011510,-0.2365,-0.16569999,0.1354,-1.6916567,1.929918,9.683243,-1
1326,1327,1580694011520,-0.22999999,-0.1457,0.4199,-1.6683371,1.9400313000000002,9.938303,-1
