,Seq,Time,ACCx,ACCy,ACCz,ADGx,ADGy,ADGz,Keydown
0,1,1580694598860,1.3857,-1.1741999,-4.0513997,1.5363209,2.319972,5.6637235,-1
1,2,1580694598870,1.3857,-1.1741999,-4.0513997,-0.7675428000000001,0.98028195,9.607549,-1
2,3,1580694598880,0.018299998999999997,-0.023699999,-0.23429999,-0.6121399000000001,0.88432235,9.348218,-1
3,4,1580694598891,0.1881,-0.1285,-0.3518,-0.38976645,0.84067124,9.629336,-1
4,5,1580694598901,0.5141,-0.1393,-0.022799998999999998,-0.20762517,0.8587331,9.719606,-1
5,6,1580694598911,0.5257,-0.038599997999999996,0.0713,-0.14531846,0.95060337,9.851028999999999,-1
6,7,1580694598922,0.5354,0.0547,0.2032,-0.08205408,1.0605547,10.004066,-1
7,8,1580694598932,0.5354,0.0547,0.2032,-0.06744945,1.0686759,10.117321,-1
8,9,1580694598942,0.3148,0.151,0.3964,-0.11737335,1.1038994,10.110427,-1
9,10,1580694598952,0.2008,0.1818,0.1699,-0.16995959,1.1223443000000002,9.904573,-1
10,11,1580694598963,0.1457,0.0673,0.1016,-0.19776106,1.0135421999999998,9.860175,-1
11,12,1580694598973,0.0393,-0.0674,0.052199997000000005,-0.27947995,0.8887947,9.80215,-1
12,13,1580694598983,-0.0843,-0.1739,-0.0084,-0.3582013,0.7798681,9.748260499999999,-1
13,14,1580694598993,-0.21779999,-0.1345,-0.010199999,-0.53263324,0.80883795,9.737094,-1
14,15,1580694599003,-0.2527,-0.1349,-0.0512,-0.5812451,0.7817164000000001,9.705615,-1
15,16,1580694599016,-0.2332,-0.103599995,-0.091199994,-0.52325755,0.81224734,9.639553999999999,-1
16,17,1580694599026,-0.0367,-0.0039,-0.21849999,-0.22235429999999998,1.0078056999999998,9.458581,-1
17,18,1580694599037,0.23629999,0.15689999,-0.3455,0.0044436384999999995,1.1088122,9.404137,-1
18,19,1580694599047,0.44959998,0.28419998,-0.4136,0.20792206,1.2672318,9.345968,-1
19,20,1580694599057,0.56729996,0.40829998,-0.413,0.31087270000000006,1.3415861999999998,9.372467,-1
20,21,1580694599067,0.56729996,0.40829998,-0.413,0.4686505999999999,1.3126163,9.420705,-1
21,22,1580694599077,0.79609996,0.3687,-0.33339998,0.67239714,1.4687086,9.378548,-1
22,23,1580694599087,0.9295,0.52709997,-0.4403,0.84316117,1.5973921999999998,9.146512,-1
23,24,1580694599097,1.1317999,0.68439996,-0.7136,1.1080462,1.7854999,8.999421,-1
24,25,1580694599108,1.3054999,0.8531,-0.7615,1.2042258999999997,1.962891,9.010434,-1
25,26,1580694599118,1.3241999,0.96599996,-0.7506,1.1721534,1.9857508999999998,9.107399000000001,-1
26,27,1580694599128,1.2684,0.9554,-0.6125,1.1772481000000001,1.9982103,9.32756,-1
27,28,1580694599138,1.2694,0.9754,-0.4156,1.3573878000000001,2.044179,9.344809,-1
28,29,1580694599148,1.4298999,1.0210999,-0.4046,1.6458796000000002,2.4738805,9.419259,-1
29,30,1580694599159,1.7436,1.5087999,-0.3042,2.9403764999999997,3.4000347,9.590042,-1
30,31,1580694599169,2.8425999,2.2831,-0.1621,4.4188633,4.1800942,9.616166999999999,-1
31,32,1580694599179,4.2075,2.9951,-0.1235,5.6949916,4.451156,9.426902,-1
32,33,1580694599189,5.5992,3.1938999,-0.324,6.86137,4.435536,9.419259,-1
33,34,1580694599199,6.4114,3.016,-0.25939998,7.1454277,3.9690883,9.789316,-1
34,35,1580694599210,6.2285,2.4401,0.14199999,6.572706,3.447593,10.372132,-1
35,36,1580694599220,5.1615996,1.6424999,0.9558,5.4971347,2.633258,11.611677,-1
36,37,1580694599230,4.1661,0.9633,2.0266,4.765218,2.2026367000000002,12.884761,-1
37,38,1580694599240,3.3723,0.54609996,3.3072,4.382145400000001,2.0402334,14.496796,-1
38,39,1580694599250,2.9429,0.4206,4.9186997,4.411853,1.9359707,15.890815,-1
39,40,1580694599261,3.4231,0.40309998,6.9328,4.932008000000001,1.9993979,16.501097,-1
40,41,1580694599271,4.0239997,0.31309998,6.8346,5.5182133,1.9091173,16.409378,-1
41,42,1580694599281,4.2788,-0.20109999,6.1755,5.7461224,1.4130770000000001,15.748695000000001,-1
42,43,1580694599291,3.7928,-1.1551,5.514199700000001,4.985082599999999,0.23939143,15.091323000000001,-1
43,44,1580694599301,2.3257,-2.4737,5.98,3.2512205,-1.1135049,15.778277,-1
44,45,1580694599312,2.3257,-2.4737,5.98,0.9943311,-2.4354777000000003,16.876488000000002,-1
45,46,1580694599322,-1.8341,-4.9361,7.9964,-1.225429,-3.5509362,17.842922,-1
46,47,1580694599332,-3.8506,-5.9219,8.708099,-3.2751433999999997,-4.362264,18.452285999999997,-1
47,48,1580694599342,-5.7762,-6.4788,9.2163,-4.971531400000001,-4.7271023,18.87216,-1
48,49,1580694599352,-7.2665,-7.0147996,9.4605,-6.4472213,-5.2330737,19.005978,-1
49,50,1580694599362,-8.5702,-7.6582,9.0678,-7.532512700000001,-5.6783185,18.621976999999998,-1
50,51,1580694599373,-9.4248,-8.187099,8.1727,-8.552912,-6.1316557000000005,17.483418,-1
51,52,1580694599383,-9.4024,-8.3561,7.0077996,-8.455248,-6.0920076,16.262596,-1
52,53,1580694599393,-8.9317,-8.0706,5.7384996,-8.053825999999999,-5.5598345,14.980807,-1
53,54,1580694599403,-8.3644,-7.6103997,4.4719,-7.446206599999999,-4.985234999999999,13.447704000000002,-1
54,55,1580694599413,-7.8875,-7.4628,3.3841998999999996,-7.283448700000001,-4.754989599999999,12.64513,-1
55,56,1580694599424,-7.882000000000001,-7.2461996,2.6624,-7.5396475999999994,-4.317885400000001,11.776752,-1
56,57,1580694599434,-8.0699,-6.9937997,2.0237,-7.7234936,-3.9366326000000003,11.114784,-1
57,58,1580694599444,-8.0724,-6.8462,1.3515999,-7.776128,-3.7066742999999995,10.299511,-1
58,59,1580694599454,-8.0816,-6.7841,0.40109998,-7.9754496,-3.4995186,9.227808999999999,-1
59,60,1580694599464,-8.3279,-6.8348,-0.6519,-8.295266999999999,-3.4680296999999998,8.069772,-1
60,61,1580694599475,-8.5248995,-6.9452,-1.8283,-8.477236999999999,-3.320911,6.8223925,-1
61,62,1580694599485,-8.4786,-6.9052,-2.9729,-8.413484,-3.153537,5.615112,-1
62,63,1580694599495,-8.2058,-6.8164,-4.1177998,-8.2206545,-2.8161845000000003,4.525913,-1
63,64,1580694599505,-8.0085,-6.4273,-4.9523997,-8.052035,-2.0416987,3.6773309999999997,-1
64,65,1580694599516,-7.6611996,-5.8612,-5.3420997,-7.530473,-1.5301533999999999,3.5584830000000003,-1
65,66,1580694599526,-6.9315996,-5.569,-5.2974997,-6.842446300000001,-1.2355038,3.519649,-1
66,67,1580694599536,-6.2125998,-5.3819,-5.433799700000001,-6.3558874,-1.0321691,3.0735135,-1
67,68,1580694599546,-5.7254996,-5.3198,-6.0014997,-6.028389,-0.91487235,2.3068614,-1
68,69,1580694599556,-5.3374,-5.2401,-6.7928,-5.6069045,-0.72320217,1.3789835,-1
69,70,1580694599567,-4.874,-5.1235,-7.7983,-5.2461459999999995,-0.47910848,0.04412035,-1
70,71,1580694599577,-4.5691,-5.0256,-8.803699499999999,-5.1045337,-0.45972502,-0.5361096,-1
71,72,1580694599587,-4.2483,-5.0476,-9.5975,-4.6451535,-0.36986583,-1.3220781000000001,-1
72,73,1580694599597,-3.7749,-5.0432,-10.1501,-3.9483642999999997,-0.31736583,-1.9926653000000003,-1
73,74,1580694599607,-3.1088,-5.0301,-10.5559,-3.1160536,-0.22155942,-1.7567598999999998,-1
74,75,1580694599617,-2.1731,-4.8733997,-10.2016,-1.7868694,0.20142896,-1.3573781999999999,-1
75,76,1580694599628,-0.8012,-4.3979,-9.8561,-1.0614741,0.56982,-1.1625382,-1
76,77,1580694599638,0.3196,-3.6553,-9.379,0.26341966,1.4788888,-0.17269856,-1
77,78,1580694599648,1.2019,-2.9273999,-8.6684,0.8702923,2.1164455,0.41797015,-1
78,79,1580694599658,1.7313,-2.2078,-8.207499499999999,1.0069054,2.5671396,0.8572008,-1
79,80,1580694599668,1.9187,-1.7566998999999999,-7.8329997,1.4520162,2.5427953999999997,0.95408934,-1
80,81,1580694599679,2.3976998,-1.74,-7.8954997,2.3120615,2.4553208,0.88013726,-1
81,82,1580694599689,3.0965,-1.7271999,-7.9732,3.0603356,2.412723,1.2299301999999999,-1
82,83,1580694599699,3.9301,-1.6899998999999999,-7.5207996,3.8314793,2.3861957,1.9257808999999997,-1
83,84,1580694599709,4.5861998,-1.6854999,-6.8745,4.3884373,2.3413186,2.3519104,-1
84,85,1580694599719,5.0262,-1.5798,-6.5456,4.7581315,2.707277,2.6086742999999997,-1
85,86,1580694599730,5.2908,-1.0265,-6.3286,5.017251,3.4220612,3.1716754000000003,-1
86,87,1580694599740,5.442,-0.3198,-5.8901997,5.464957,3.6670934999999996,3.7271400000000003,-1
87,88,1580694599750,6.0031,0.1011,-5.2081,6.78737,3.8696907,4.8121347000000005,-1
88,89,1580694599760,8.4944,0.5269,-3.6771998,8.292988000000001,3.898603,5.5377407,-1
89,90,1580694599771,10.047,0.5449,-3.7468998,9.968029,3.818292,5.511998,-1
90,91,1580694599781,10.9727,0.4605,-3.8054997999999998,11.006327,3.6193051,5.493649,-1
91,92,1580694599791,10.9727,0.4605,-3.8054997999999998,11.299215,3.5519707,5.7054496,-1
92,93,1580694599801,11.1536,0.5241,-3.6327,10.491553999999999,4.0950713,7.331543400000001,-1
93,94,1580694599811,9.9796,1.2946,0.0605,10.268769,3.9506435,10.08772,-1
94,95,1580694599821,10.2279,1.7014999,2.6768,10.826791,4.2531557,12.606583,-1
95,96,1580694599832,11.3881,1.9382999,4.4693,12.177617999999999,4.1078277000000005,14.200968,-1
96,97,1580694599843,12.276999,1.1975,4.7929997,13.060792,3.1389134,14.332879,-1
97,98,1580694599853,13.185599,0.7467,5.0779,14.642133,2.7966764,15.0803,-1
98,99,1580694599863,14.672198999999999,1.3255,6.1015997,15.930003,3.5178675999999998,16.113301999999997,-1
99,100,1580694599874,15.399799,2.0741,6.8964996,16.613642000000002,3.7722085,16.884666,-1
100,101,1580694599884,15.3399,2.2035,8.0508995,15.94863,3.7725627,18.295399,-1
101,102,1580694599894,14.168698999999998,2.3204,9.425,15.050459,3.6685489999999996,19.305311,-1
102,103,1580694599905,13.2415,1.9303,10.239699,13.851999,2.8417451000000002,20.061007,-1
103,104,1580694599915,12.219999000000001,1.3274,10.3392,12.733253999999999,2.1145015,19.76221,-1
104,105,1580694599925,11.0068,0.6357,9.9661,12.127082000000001,1.6814862000000002,19.588678,-1
105,106,1580694599935,9.9963,0.119399995,9.8604,10.862138999999999,1.1876965,19.399593,-1
106,107,1580694599945,9.113,-0.1252,9.633699,10.123613,0.8400966000000001,19.110336,-1
107,108,1580694599955,8.339399,-0.53529996,9.4696,9.366261,0.42993158,19.220160999999997,-1
108,109,1580694599966,7.5864,-0.9737,9.742,8.497099,-0.22925916,19.7502,-1
109,110,1580694599975,6.6025996,-1.7727,10.3565,7.4114428,-1.0363158000000001,20.148415,-1
110,111,1580694599985,4.7002,-2.8867998,10.472999999999999,4.5585504,-2.3258426,19.820484,-1
111,112,1580694599995,2.1278,-4.0218997000000005,9.9077,1.9914874,-3.4036546000000003,19.098547,-1
112,113,1580694600005,-0.3326,-5.0573,9.161099,-0.33960316,-4.0053077,18.275229,-1
113,114,1580694600015,-2.3846998,-5.5129,8.310699000000001,-1.7038863999999998,-4.001142,17.478266,-1
114,115,1580694600026,-3.2171998,-5.407,7.6288,-1.9852720000000001,-3.5902684000000002,16.933777,-1
115,116,1580694600036,-3.2726998,-5.1035,7.1621,-1.9998958999999998,-3.2546587000000002,16.360796,-1
116,117,1580694600046,-3.2403,-4.8904,6.4312,-1.9686563000000001,-2.9747381,15.442295000000001,-1
117,118,1580694600057,-3.1520998,-4.8417,5.5161,-2.1937877999999995,-3.0002793999999997,14.583245000000002,-1
118,119,1580694600067,-3.6996998999999997,-5.1510997000000005,4.7788997,-3.7877035000000006,-3.5427003,13.92574,-1
119,120,1580694600077,-5.1768,-5.8191,4.2692,-5.451032,-4.0046663,13.173385999999999,-1
120,121,1580694600088,-6.714699700000001,-6.3329997,3.5493998999999996,-6.638738,-4.081434,12.562137,-1
121,122,1580694600098,-7.7296,-6.49,2.9556,-7.174666,-3.8051239999999997,11.729692,-1
122,123,1580694600109,-8.1044,-6.3441997,2.1038,-7.3758173,-3.4570644,10.535789999999999,-1
123,124,1580694600120,-8.1986,-6.2310996,1.1676999,-7.551609,-3.0532392999999995,9.152334,-1
124,125,1580694600130,-8.196899,-5.7695,-1.5337,-7.517908,-2.6596515,7.7409425,-1
125,126,1580694600141,-8.196899,-5.7695,-1.5337,-7.409824400000001,-2.2679985,6.6552005,-1
126,127,1580694600151,-7.8241,-5.0905,-4.0817,-7.310235499999999,-1.6665751,5.0979257,-1
127,128,1580694600161,-7.8241,-5.0905,-4.0817,-7.202008,-1.1963538999999999,4.1472936,-1
128,129,1580694600171,-7.4171,-4.1056,-5.8622,-7.0598974000000005,-0.4014023,3.2102127,-1
129,130,1580694600181,-7.2160997,-3.536,-6.5372996,-6.9147515,0.31338185,2.4949687000000003,-1
130,131,1580694600191,-7.2160997,-3.536,-6.5372996,-6.337548,0.9394369,1.3615441000000001,-1
131,132,1580694600201,-6.1786,-2.7995,-8.3244,-5.9970254999999995,1.2800839,0.6033484,-1
132,133,1580694600212,-6.0648,-2.6601,-9.2225,-5.939478,1.5090175,-0.34882563,-1
133,134,1580694600222,-5.9908,-2.7131,-9.9,-5.919251999999999,1.5347311000000001,-1.0722672,-1
134,135,1580694600232,-5.8975,-2.7303998,-10.4271,-5.911121,1.581648,-1.6922313000000002,-1
135,136,1580694600242,-5.9410996,-2.7113,-10.726299000000001,-5.9913273,1.7172363000000002,-2.0124798,-1
136,137,1580694600252,-6.0657997,-2.4033,-11.0026,-6.234099,2.0689637999999997,-2.2897189,-1
137,138,1580694600262,-6.3876995999999995,-2.1887,-11.2269,-6.6091940000000005,2.2522159999999998,-2.517982,-1
138,139,1580694600273,-6.7989999999999995,-2.2442,-11.487499,-6.994210000000001,2.1913457000000003,-2.7441478,-1
139,140,1580694600283,-6.9617,-2.6413999,-12.097000000000001,-7.1449679999999995,1.6944148999999997,-3.5010412000000004,-1
140,141,1580694600293,-6.3842998,-3.0374,-12.8593,-6.4791794000000005,1.3399292999999999,-4.286004,-1
141,142,1580694600303,-5.4553,-3.1801,-13.763499,-5.562506,1.1506534,-5.1478405,-1
142,143,1580694600313,-4.8089,-3.4573,-14.0418,-4.974509200000001,0.73794085,-5.049352,-1
143,144,1580694600323,-4.7539,-3.8923997999999997,-13.3238,-4.993883,0.3725378,-4.496493,-1
144,145,1580694600334,-4.9417,-4.74,-12.1577,-5.2843194,-1.0465535,-2.7441766,-1
145,146,1580694600344,-5.4165998,-5.6809998,-10.8049,-5.8088408,-1.9800813999999998,-1.3763404,-1
146,147,1580694600355,-6.0018997,-6.1327,-9.8501,-6.257524,-2.3474095,-0.70640445,-1
147,148,1580694600365,-6.1611,-6.2606997,-9.6123,-6.1254883,-2.9095583,-0.32553482,-1
148,149,1580694600375,-5.8476,-6.7657,-9.177199,-5.7210407,-3.387489,0.12320562,-1
149,150,1580694600385,-4.9219,-7.2876997,-8.3469,-4.2065644,-4.157407,1.403098,-1
150,151,1580694600396,-3.9713998,-7.5512,-7.5031996,-3.1555867,-4.7419176,2.3377178,-1
151,152,1580694600406,-3.1341,-8.1451,-6.5206,-2.5258922999999998,-5.436217,3.2880434999999997,-1
152,153,1580694600416,-2.7128,-8.5196,-5.4119,-1.8910363000000001,-5.708112,4.6108017,-1
153,154,1580694600426,-2.1989,-8.3206,-4.4256997,-1.2272965,-5.8260217,5.567151,-1
154,155,1580694600436,-1.6459,-8.1838,-3.6985,-0.658032,-6.019665,6.2626953,-1
155,156,1580694600446,-1.0903,-8.267099,-2.9401999,-0.056665964000000006,-6.686727499999999,7.4597864000000005,-1
156,157,1580694600456,-0.52639997,-8.6609,-1.4575,0.6530520000000001,-7.071026,9.066219,-1
157,158,1580694600467,0.7955,-8.3595,0.9684,2.9850905,-6.635099,12.470046,-1
158,159,1580694600477,3.0124,-7.3494,3.925,5.199689,-5.7107363,15.060620000000002,-1
159,160,1580694600487,4.9495,-6.0077996,6.0179996,6.9476957,-4.683451,16.552925,-1
160,161,1580694600497,6.435,-4.7599998,7.187999700000001,7.778119599999999,-4.189029,17.247646,-1
161,162,1580694600507,6.6535997,-4.2479,7.4157,6.651274000000001,-4.445573,16.487535,-1
162,163,1580694600517,4.6109,-4.5666,6.0439997000000005,3.6570952000000005,-5.521824400000001,14.959902,-1
163,164,1580694600527,2.3058,-5.2258997,5.1619,2.6241982000000004,-6.2093334,15.254513000000001,-1
164,165,1580694600538,1.5453,-5.5745,5.7303,3.0180156000000005,-6.151231,16.315863,-1
165,166,1580694600548,2.4264,-4.9010997000000005,7.2956,4.804109599999999,-5.329397,18.381273,-1
166,167,1580694600558,3.9649,-4.0819,9.012,6.0288580000000005,-5.1371044999999995,19.595036999999998,-1
167,168,1580694600568,5.1884,-3.5683,10.1145,7.2255473,-4.6219296,20.322348,-1
168,169,1580694600578,6.5032,-2.7273998,10.8293,8.434103,-4.088971,20.722141,-1
169,170,1580694600589,7.6956997000000005,-1.9677,11.1254,8.464844,-3.5427383999999997,19.941383,-1
170,171,1580694600599,7.4412,-1.2592,10.0852995,7.1939826,-3.6248405,18.015179999999997,-1
171,172,1580694600609,6.1238,-1.3536999,8.1474,6.1261683,-3.8786928999999994,16.832607,-1
172,173,1580694600620,4.9832,-1.2675999,7.1583,5.62036,-3.435143,16.864535999999998,-1
173,174,1580694600630,4.8757997,-0.7461,7.6035,5.64004,-3.3465290000000003,17.726323999999998,-1
174,175,1580694600640,4.9189997000000005,-0.5732,8.3276,5.4782877,-3.274952,17.726670000000002,-1
175,176,1580694600650,5.0453,-0.0933,8.1627,5.594311,-3.150961,17.475164000000003,-1
176,177,1580694600661,5.0453,-0.0933,8.1627,5.5359783,-3.0283492,16.911317999999998,-1
177,178,1580694600671,5.0734997,0.1595,7.6313,5.3620443,-2.9304264,16.254725,-1
178,179,1580694600681,4.6749997,0.6038,5.5385,5.024357,-2.7544812999999997,14.759621,-1
179,180,1580694600691,4.6749997,0.6038,5.5385,5.026741,-2.506911,13.70805,-1
180,181,1580694600701,4.9031,1.4643999,4.3066998,5.2455620000000005,-1.903285,13.543262,-1
181,182,1580694600711,5.8935,2.0853999,5.6461,6.559193,-1.2308687,15.375735,-1
182,183,1580694600721,8.0718,3.1262,10.1915,8.303972,-0.40513724,19.350742,-1
183,184,1580694600732,7.6977997,3.1042,13.1362,7.8496966,-0.47568,22.275661,-1
184,185,1580694600742,5.2123,1.3307999,8.436399,4.719805,-2.5827402999999998,16.662570000000002,-1
185,186,1580694600752,3.5253,0.4337,5.7098,3.1979064999999998,-3.1481357000000005,14.781657000000001,-1
186,187,1580694600762,3.4624,0.77959996,5.5685997,3.4153574,-2.6561369999999997,14.563775,-1
187,188,1580694600772,3.4624,0.77959996,5.5685997,3.9644150000000002,-2.2075882,13.155142999999999,-1
188,189,1580694600783,3.7921,1.4397,1.8727,3.6451337,-1.9259533,10.739067,-1
189,190,1580694600793,2.9498,1.1896,0.2995,2.8196898,-2.1701045,9.314239500000001,-1
190,191,1580694600803,2.9498,1.1896,0.2995,1.9955766,-2.4382741,8.311117,-1
191,192,1580694600813,0.97609997,0.41,-1.9222,1.0196139000000002,-2.803007,7.3093449999999995,-1
192,193,1580694600823,0.5236,0.114199996,-1.7459999,0.66347164,-3.0329652,7.721760300000001,-1
193,194,1580694600834,0.2127,-0.0361,-1.0047,0.25007915,-3.231703,8.4843235,-1
194,195,1580694600844,-0.16219999,-0.33499998,-0.6922,-0.032206804,-3.5194383,8.641076,-1
195,196,1580694600854,-0.53569996,-0.5844,-0.59529996,-0.40716752,-3.7151593999999997,8.737706,d
196,197,1580694600864,-0.67719996,-0.6504,-0.50909996,-0.38671145,-3.7148147000000002,8.776234,-1
197,198,1580694600874,-0.384,-0.4673,-0.65999997,0.1931163,-3.3833038999999996,8.524871000000001,-1
198,199,1580694600884,0.131,-0.20109999,-0.9007,0.6051297,-3.1589096000000003,8.313971,-1
199,200,1580694600895,0.44,0.0056,-1.1511999,0.744568,-3.0185904999999997,8.130948,-1
200,201,1580694600905,0.29479998,-0.0078,-1.2923,0.3348339,-3.1925244,7.9795869999999995,-1
201,202,1580694600915,-0.22299999,-0.2581,-1.3328999,-0.20004034,-3.4448445,8.091415,-1
202,203,1580694600925,-0.7119,-0.4994,-1.165,-0.61041605,-3.6660495,8.249835000000001,-1
203,204,1580694600935,-1.0057,-0.6448,-1.0047,-0.76290756,-3.7391875,8.419804,-1
204,205,1580694600946,-1.0783,-0.6868,-0.6663,-0.7051594,-3.6582732000000004,8.977692,-1
205,206,1580694600956,-0.8472,-0.50189996,-0.1999,-0.3254199,-3.449671,9.184484,-1
206,207,1580694600966,-0.3927,-0.2816,-0.1269,0.116128355,-3.265557,9.195736,-1
207,208,1580694600976,0.0098,-0.066,-0.10439999400000001,0.5105491,-3.0376291,9.172981,-1
208,209,1580694600986,0.38869998,0.11639999599999999,-0.17119999,0.7594695,-2.9382505,9.13977,-1
209,210,1580694600997,0.4687,0.1786,-0.1505,0.5965775999999999,-2.9660710999999997,9.242633999999999,-1
210,211,1580694601007,0.2217,0.0937,0.0173,0.19111477,-3.027152,9.609866,-1
211,212,1580694601017,-0.1103,0.110199995,0.3725,0.07515878,-2.9675841,9.860165,-1
212,213,1580694601027,-0.1575,0.1611,0.6605,0.23034136,-2.9260879,10.064046000000001,-1
213,214,1580694601037,0.049399998,0.23449999,0.7826,0.46332592,-2.8274565,10.16398,-1
214,215,1580694601047,0.3288,0.34719998,0.8851,0.78085446,-2.7910932999999996,10.168826,-1
215,216,1580694601058,0.6462,0.3893,0.889,1.0814896999999999,-2.764106,10.212591999999999,-1
216,217,1580694601068,1.0004,0.4294,0.9511,1.3206416,-2.7245443,10.357699,-1
217,218,1580694601078,1.224,0.46789998,1.1697,1.4860619,-2.7518857000000003,10.746509,-1
218,219,1580694601088,1.3733,0.4349,1.5639,1.5295788000000001,-2.809816,11.19092,-1
219,220,1580694601098,1.3984,0.3779,1.9666,1.4768777,-2.8597016,11.363676,-1
220,221,1580694601109,1.3428,0.32459998,2.0925999,1.3685831,-2.987523,11.351714999999999,-1
221,222,1580694601119,1.2472999,0.18689999,2.0693998,1.393205,-3.001103,11.436364,-1
222,223,1580694601129,1.2797999,0.1735,2.1531,1.5538177,-2.8930576,11.399828,-1
223,224,1580694601139,1.4542999,0.2679,2.1092,1.7097473,-2.8516283,11.338039,-1
224,225,1580694601149,1.6646999,0.2855,2.0363998,1.9579686,-2.8672001,11.473963000000001,-1
225,226,1580694601160,1.9811,0.2782,2.2396998,2.488284,-2.8728792999999997,12.103427,-1
226,227,1580694601170,2.4443998,0.2769,2.7981,2.7844276000000003,-2.8293047000000002,12.662942,-1
227,228,1580694601180,2.7877,0.30679998,3.3669998999999997,2.927448,-2.7957572999999996,13.140892000000001,-1
228,229,1580694601190,2.9656,0.34109998,3.8362,2.8153224,-2.805631,13.330532,-1
229,230,1580694601201,2.8408,0.3134,4.0462,2.57098,-2.8305116000000003,13.462271,-1
230,231,1580694601211,2.4071999,0.21139999,4.0488,2.3031167999999997,-2.8214517000000003,13.387015,-1
231,232,1580694601221,2.2264,0.1519,3.5851998,2.1312512999999997,-2.8140487999999997,12.938858999999999,-1
232,233,1580694601231,2.2264,0.1519,3.5851998,2.0292776000000003,-2.8104289000000002,12.361857,-1
233,234,1580694601241,2.1225998,0.0731,2.9722,2.0188675,-2.7690666,11.830822999999999,-1
234,235,1580694601251,2.2985,0.081199996,2.6141,2.2295954,-2.6280580000000002,12.148208,-1
235,236,1580694601261,2.4445999,0.1125,3.2551,2.3270682999999996,-2.5713057999999998,12.705281,-1
236,237,1580694601272,2.3504,-0.0455,3.7905,2.1637743,-2.7050362,13.359635,-1
237,238,1580694601282,2.141,-0.1193,4.3740997,1.9754463,-2.6996252999999997,13.845639000000002,-1
238,239,1580694601292,1.8433,-0.20709999,4.6893,1.6475650000000002,-2.707009,14.2142315,-1
239,240,1580694601302,1.6011,-0.2863,4.5972,1.36028,-2.7177732000000003,14.008704000000002,-1
240,241,1580694601312,1.2027999,-0.3854,4.2362,0.9933447,-2.6978056,13.705742,-1
241,242,1580694601323,0.84529996,-0.4868,4.0211,0.6869921999999999,-2.7151492000000004,13.584116,-1
242,243,1580694601333,0.84529996,-0.4868,4.0211,0.5077623,-2.7757322999999996,13.608154,-1
243,244,1580694601343,0.3435,-0.7779,3.9064,0.4246835,-2.6474316000000004,13.409051999999999,-1
244,245,1580694601353,0.3211,-0.8479,3.4682,0.4060949,-2.64656,12.993993,-1
245,246,1580694601363,0.0862,-0.95199996,2.7075,0.14522271,-2.5728762,12.231899,-1
246,247,1580694601373,-0.1809,-0.9902,1.9682,-0.17081192,-2.4396725,11.422727,-1
247,248,1580694601384,-0.4378,-0.98939997,1.3389,-0.36298013,-2.3158731,10.953128,-1
248,249,1580694601394,-0.74729997,-1.0167,0.8495,-0.711461,-2.1705257999999996,10.414060000000001,-1
249,250,1580694601404,-1.0929999,-1.0423,0.3135,-1.0500969,-2.078215,9.844546000000001,-1
250,251,1580694601414,-1.4066,-1.1136,-0.24919999,-1.2638798999999998,-2.0094821,9.331660000000001,-1
251,252,1580694601424,-1.5330000000000001,-1.1895,-0.6523,-1.2624052,-1.9255702000000001,9.056643,-1
252,253,1580694601434,-1.3636,-1.1791999,-0.71919996,-0.77597994,-1.6948266,9.210417,-1
253,254,1580694601445,-0.8825,-1.0311999,-0.4895,-0.36765364,-1.4104912,9.361616,-1
254,255,1580694601455,-0.7054,-0.9112,-0.5227,-0.4102321,-1.3438463,9.153263,-1
255,256,1580694601465,-0.9913,-1.0444,-0.7708,-0.7114897,-1.4254981000000002,8.997917999999999,-1
256,257,1580694601475,-1.5634999,-1.3607,-1.0181999,-1.531772,-1.728087,8.554013000000001,-1
257,258,1580694601485,-2.1382,-1.5870999,-1.4519,-2.1526747000000004,-1.8268811999999999,8.021792,-1
258,259,1580694601496,-2.7691,-1.7253,-1.954,-2.775081,-1.9653139,7.807425,-1
259,260,1580694601506,-3.2898,-1.9217,-1.9064,-3.132727,-2.058822,8.088035000000001,-1
260,261,1580694601516,-3.4378,-2.0042999,-1.5935,-3.0292685,-1.9633987000000002,8.337978999999999,-1
261,262,1580694601526,-3.2458,-1.8435999,-1.5152999,-2.7859697,-1.7058113000000001,8.177971000000001,-1
262,263,1580694601536,-2.8457,-1.6874,-1.6523,-2.0703044,-1.5027733,8.229791,-1
263,264,1580694601547,-1.9581,-1.4643999,-1.4555999,-1.2215791999999999,-1.1339706,8.490117,-1
264,265,1580694601557,-0.88699996,-0.9177,-1.1704999,0.010160991999999999,-0.461717,8.731185,-1
265,266,1580694601567,-0.2206,-0.636,-1.1014999,0.047606308,-0.44693999999999995,8.457355,-1
266,267,1580694601577,-0.26049998,-0.7301,-1.4346,-0.45805866,-0.5118037,8.004161,-1
267,268,1580694601587,-0.7716,-0.83989996,-1.9045999,-1.0155629000000002,-0.6439158,7.5214896,-1
268,269,1580694601597,-1.2664,-1.084,-2.3834,-1.4240042,-0.8066831999999999,7.1514807000000005,-1
269,270,1580694601608,-1.6919999,-1.3231,-2.8416,-1.7905372,-0.9142403,6.603227599999999,-1
270,271,1580694601618,-1.9003999,-1.4452,-3.2696998,-1.8443877,-0.87101054,6.3245807,-1
271,272,1580694601628,-1.8969999999999998,-1.4441,-3.4717998999999997,-1.6403346,-0.71025425,6.440019599999999,-1
272,273,1580694601638,-1.6297,-1.3242999,-3.2917,-1.3408582,-0.45253283,6.905864200000001,-1
273,274,1580694601649,-1.2817,-1.0748,-2.7493,-0.9859418,-0.07846278,7.6624894,-1
274,275,1580694601659,-0.9677,-0.81479996,-2.1192,-0.7147266999999999,0.11078450000000001,8.0794735,-1
275,276,1580694601669,-0.62869996,-0.648,-1.6265,-0.5487893,0.14370957,8.145562,-1
276,277,1580694601679,-0.4623,-0.6691,-1.6924,-0.75877994,0.099435985,7.819511,-1
277,278,1580694601689,-0.6975,-0.7651,-2.0223,-1.0147872,0.09708967,7.5337385999999995,-1
278,279,1580694601700,-0.9004,-0.8082,-2.3121998,-1.3160352,0.09857407,7.2818309999999995,-1
279,280,1580694601710,-1.1357,-0.8461,-2.484,-1.5055985,0.12429738,7.4517136,-1
280,281,1580694601720,-1.3271998999999999,-0.8763,-2.3123,-1.6309398000000002,0.13151829,7.614184,-1
281,282,1580694601730,-1.4613999,-0.9443,-2.0277,-1.6231153999999999,0.14499286,7.719299,-1
282,283,1580694601740,-1.4613999,-0.9443,-2.0277,-1.6128588,0.2918053,7.8968143,-1
283,284,1580694601750,-1.4239,-0.6627,-1.7349,-1.5976124,0.49888459999999996,8.007657,-1
284,285,1580694601760,-1.4239,-0.6627,-1.7349,-1.5875186000000001,0.72666895,7.862280999999999,-1
285,286,1580694601771,-1.1937,-0.3681,-2.0135999,-1.3647141,0.8395412,7.723809700000001,-1
286,287,1580694601781,-0.7998,-0.3084,-1.9627,-1.0568581,0.9062341,7.779987299999999,-1
287,288,1580694601791,-0.4357,-0.1245,-1.7949,-0.65946853,1.1086398000000002,7.9882445,-1
288,289,1580694601801,-0.4357,-0.1245,-1.7949,-0.44539812,1.1632181000000001,8.341455999999999,-1
289,290,1580694601811,-0.13419999,-0.0519,-1.4804,-0.49234363,1.1666178999999999,8.538986999999999,-1
290,291,1580694601821,-0.2679,-0.038799997,-0.9899,-0.65056205,1.1495042,8.752991999999999,-1
291,292,1580694601832,-0.3843,-0.003,-0.5387,-0.8174763,1.1850053999999999,9.2872715,-1
292,293,1580694601842,-0.5873,-0.0101,-0.1266,-1.0354252,1.1511705,9.688979,-1
293,294,1580694601852,-0.6222,-0.0927,0.0995,-1.0115502,1.0841616000000003,9.845704,-1
294,295,1580694601862,-0.3464,-0.0354,0.061699998,-0.75713277,1.1617146,9.793836,-1
295,296,1580694601872,0.0014,0.1358,-0.0047999997999999995,-0.3810803,1.4204415000000001,9.661868,-1
296,297,1580694601883,0.0208,0.2559,-0.2082,-0.43737277,1.5067668,9.466797999999999,-1
297,298,1580694601893,-0.0739,0.2471,-0.46019998,-0.5368088000000001,1.4796261999999998,9.202755999999999,-1
298,299,1580694601903,-0.1303,0.1686,-0.71209997,-0.5938960999999999,1.4103955,8.955646,-1
299,300,1580694601913,-0.1244,0.1085,-0.7777,-0.58876294,1.3984628000000001,8.941702000000001,-1
300,301,1580694601923,-0.0854,0.0484,-0.6671,-0.53677046,1.3628658,9.112589999999999,-1
301,302,1580694601933,-0.0677,0.049,-0.5175,-0.5361191999999999,1.3726534,9.219726,-1
302,303,1580694601943,-0.16589999,-0.0659,-0.4563,-0.68500984,1.2836082,9.278912,-1
303,304,1580694601953,-0.21139999,-0.08,-0.38549998,-0.6168613000000001,1.3135165000000002,9.33438,-1
304,305,1580694601963,-0.0394,-0.062299997,-0.30519998,-0.47259626,1.316064,9.429516,-1
305,306,1580694601973,0.10529999400000001,-0.013599999,-0.3328,-0.34199736,1.4277487,9.232895,-1
306,307,1580694601984,0.12719999,0.0831,-0.7916,-0.32163706,1.491827,8.726435,-1
307,308,1580694601994,0.2006,0.0625,-1.1423,-0.31322859999999997,1.4575038,8.526959,-1
308,309,1580694602004,0.1338,-0.0337,-1.1896,-0.39927623,1.3608928999999998,8.575351,-1
309,310,1580694602014,0.10969999400000001,-0.029399997999999997,-0.9924,-0.36784515,1.400675,8.821810000000001,-1
310,311,1580694602024,0.20629999,-0.0338,-0.73679996,-0.29344293,1.3870473,9.008213,-1
311,312,1580694602034,0.2373,-0.0299,-0.67759997,-0.2611595,1.4201447,8.990142,-1
312,313,1580694602044,0.2662,-0.0466,-0.75549996,-0.23818476,1.3728544,8.91731,-1
313,314,1580694602054,0.2127,-0.1475,-0.92209995,-0.36533603,1.2803425,8.707088,-1
314,315,1580694602064,0.2127,-0.1475,-0.92209995,-0.59435576,1.2412978000000001,8.732888,-1
315,316,1580694602074,-0.20289999,-0.24309999,-0.7657,-0.7324341999999999,1.1548575,9.055484,-1
316,317,1580694602084,-0.2538,-0.2923,-0.48279998,-0.73933905,1.1190212,9.274505,-1
317,318,1580694602095,-0.3039,-0.2421,-0.3178,-0.8207131999999999,1.1965168,9.485731,-1
318,319,1580694602105,-0.32369998,-0.2219,-0.2016,-0.8143638000000001,1.161772,9.452222,-1
319,320,1580694602115,-0.2753,-0.2643,-0.43789998,-0.63072854,1.1849192,9.074647,-1
320,321,1580694602126,-0.0050999997,-0.19319999,-0.71309996,-0.33311006,1.2404742,8.942113,-1
321,322,1580694602136,0.4069,-0.06359999599999999,-0.7629,0.082389265,1.3992864,9.019504,-1
322,323,1580694602146,0.5631,0.0307,-0.58779997,0.0009864111,1.3776332,9.322417999999999,-1
323,324,1580694602156,0.34109998,-0.035499997,-0.20729999,-0.31009699999999996,1.2995822,9.766896000000001,-1
324,325,1580694602166,0.0451,-0.0502,0.17289999,-0.5244738,1.3588436000000002,9.949450500000001,-1
325,326,1580694602176,-0.1226,-0.0094,0.2007,-0.6943471999999999,1.3368744,9.812741,-1
326,327,1580694602186,-0.3326,-0.073,0.033099998,-0.8599110999999999,1.2166567,9.624566,-1
327,328,1580694602197,-0.4199,-0.1322,-0.1829,-0.8094986999999999,1.198365,9.421231,-1
328,329,1580694602207,-0.3037,-0.14479999,-0.3105,-0.5883224,1.2252184,9.414174000000001,-1
329,330,1580694602217,-0.0503,-0.0972,-0.2618,-0.22534227,1.349056,9.627449,-1
330,331,1580694602227,0.24509999,0.0121,-0.056399997,0.026182989,1.472932,9.704667,-1
331,332,1580694602237,0.4579,0.1531,-0.0374,0.16224068,1.6199936000000001,9.496247,-1
332,333,1580694602248,0.5669,0.3039,-0.2634,0.14259864,1.6746483,9.359364999999999,-1
333,334,1580694602258,0.5282,0.3367,-0.3717,0.082868114,1.6014144,9.309633,-1
334,335,1580694602268,0.43739998,0.25259998,-0.4116,0.00041180267,1.5231143999999999,9.4421,-1
335,336,1580694602278,0.3742,0.1898,-0.2263,-0.09605537,1.4701165,9.6652775,-1
336,337,1580694602288,0.2994,0.1285,-0.0019999999,-0.17263152,1.4543146999999998,9.948157,-1
337,338,1580694602299,0.195,0.13599999,0.2811,-0.24091415,1.4657207,10.047238,-1
338,339,1580694602310,0.1414,0.1619,0.3193,-0.25500163,1.5503223,9.886894,-1
339,340,1580694602320,0.1382,0.2823,0.0932,-0.09004114,1.7412741000000003,9.445097,-1
340,341,1580694602330,0.2923,0.4294,-0.2794,0.08123048,1.7205788,9.072416,-1
341,342,1580694602340,0.4366,0.4093,-0.65209997,0.24213998,1.6578026999999997,8.92024,-1
342,343,1580694602350,0.76949996,0.3208,-0.56549996,0.42264363,1.6108476999999999,9.158118,-1
343,344,1580694602360,0.92029995,0.3552,0.0402,0.5747425,1.6345406999999998,9.759408,-1
344,345,1580694602370,0.9467,0.3259,0.6259,0.61003304,1.5858521,10.356368,-1
345,346,1580694602381,0.75159997,0.2865,0.93729997,0.40880513,1.5231336000000002,10.669866,-1
346,347,1580694602391,0.75159997,0.2865,0.93729997,0.21889707,1.4720318000000001,10.620353999999999,-1
347,348,1580694602401,0.4985,0.15879999,0.56229997,0.15470374,1.3872387,10.3008995,d
348,349,1580694602411,0.5392,0.18329999,0.0624,0.23062867,1.4285628000000001,9.704293,-1
349,350,1580694602421,0.70239997,0.25239998,-0.32899999999999996,0.43993935,1.4993736999999998,9.336965,-1
350,351,1580694602432,0.96279997,0.33249998,-0.52459997,0.70859754,1.5842911,9.191292,-1
351,352,1580694602442,0.96279997,0.33249998,-0.52459997,0.7714501,1.60446,9.224907,-1
352,353,1580694602452,1.2592,0.4321,-0.3292,1.0419278,1.6795229999999999,9.443,-1
353,354,1580694602462,1.5841999,0.4933,-0.1934,1.366323,1.7451624,9.567,-1
354,355,1580694602473,1.9354,0.6493,0.0005999999700000001,1.7070081999999998,1.8958726000000001,9.783694,-1
355,356,1580694602483,2.2895,0.8595,0.2922,2.0863457,2.108037,10.124697,-1
356,357,1580694602493,2.5458998999999998,1.0416,0.5347,2.2590537,2.271159,10.396092,-1
357,358,1580694602503,2.6227999,1.2207999,0.8462,2.3327856,2.4066037999999996,10.727135,-1
358,359,1580694602513,2.8083,1.3527,1.1387,2.6489832000000004,2.5495853,10.915242,-1
359,360,1580694602523,3.2970998,1.5421,1.0889,3.1070514,2.6833255,10.811219,-1
360,361,1580694602534,3.9857998,1.6360999,0.92209995,3.9728136,2.7968872000000005,10.5532675,-1
361,362,1580694602544,4.67,1.6922,0.5886,4.562955400000001,2.7817272999999996,10.261951,-1
362,363,1580694602554,4.9918,1.5941,0.5191,4.7160697,2.6688645,10.296044,-1
363,364,1580694602564,4.9431,1.4735,0.7525,4.4664025,2.4773092,10.701066,-1
364,365,1580694602574,4.5329,1.2871,1.2008,3.9673262,2.2142343999999996,11.040085000000001,-1
365,366,1580694602584,4.0920997,1.0236,1.4237,3.4729427999999998,1.9110421999999998,11.309787,-1
366,367,1580694602595,3.5382998,0.79319996,1.8626,2.929727,1.6690363000000001,11.857073,-1
367,368,1580694602605,3.1469,0.63049996,2.5270998,2.6614139999999997,1.5258343,12.665546,-1
368,369,1580694602615,3.1683,0.5355,3.4371,2.9244022000000003,1.4489135,13.522967999999999,-1
369,370,1580694602625,3.4141,0.4818,3.8281,3.2356582,1.4316655,13.56909,-1
370,371,1580694602635,3.8065,0.53499997,3.7689,3.7026138,1.4694557,13.587267,-1
371,372,1580694602645,4.1765,0.51739997,3.8669998999999997,3.5119777,1.4530123,13.651796,-1
372,373,1580694602656,3.6399,0.6175,3.8869998,2.5586834,1.6701758999999998,13.787201999999999,-1
373,374,1580694602666,2.7073,0.8584,4.2996,1.6614802,1.6444622,14.820779000000002,-1
374,375,1580694602676,1.8808,0.6533,5.7513,0.7909963000000001,1.2420639999999998,16.517426,-1
375,376,1580694602686,1.0964999,0.1451,7.2123,0.20041384,0.40840292,17.273409,-1
376,377,1580694602696,0.5496,-0.98249996,7.4978,-0.33626083,-0.90640646,17.133444,-1
377,378,1580694602706,-0.1085,-2.2732,7.207000000000001,-1.1732258999999998,-1.9516574,16.6477,-1
378,379,1580694602717,-1.0821999,-3.3497999,6.6538997,-2.4858613,-2.889897,16.13417,-1
379,380,1580694602727,-2.6352,-4.2509,6.2893,-4.079969,-3.5334203,16.108974,-1
380,381,1580694602737,-4.0867,-4.8059998,6.5537,-5.4351444,-3.8274665,16.626667,-1
381,382,1580694602747,-5.311,-5.0786,7.104099799999999,-6.6793537,-4.0461245,17.120161,-1
382,383,1580694602757,-6.151,-5.336,7.4217997,-7.1636619999999995,-4.105462,16.910898,-1
383,384,1580694602768,-6.4788,-5.4821,7.0768,-7.350639999999999,-4.1771636,15.866221,-1
384,385,1580694602777,-6.648,-5.7184,5.8647,-7.7006526,-4.266850499999999,14.318159,-1
385,386,1580694602787,-7.1047997,-5.9625998,3.8944,-8.085497,-4.329109,12.687928999999999,-1
386,387,1580694602797,-7.3359,-6.2306,2.7143998,-8.338152000000001,-4.440162,11.461983,-1
387,388,1580694602807,-7.571799799999999,-6.5055,1.6649,-8.813785000000001,-4.502957,10.400067,-1
388,389,1580694602817,-7.9943,-6.7404,0.74899995,-9.315714,-4.6049690000000005,9.983696,-1
389,390,1580694602827,-8.4278,-6.9683,0.44219998,-9.930391,-4.413356299999999,9.493824,-1
390,391,1580694602838,-8.9338,-6.8564,-0.0287,-10.191389,-3.9879355000000003,9.06687,-1
391,392,1580694602848,-9.048699000000001,-6.5712,-0.3692,-10.127761,-3.6296383999999997,8.717738,-1
392,393,1580694602858,-8.8979,-6.4305997,-0.6965,-9.998464,-3.4639022000000006,7.979337700000001,-1
393,394,1580694602869,-8.7438,-6.436899700000001,-1.4607999,-9.840639,-3.2109308,7.235105,-1
394,395,1580694602879,-8.5125,-6.3419,-2.0635,-9.426910000000001,-2.7986305000000002,6.771903999999999,-1
395,396,1580694602889,-8.0529995,-6.0604,-2.477,-8.835092999999999,-2.178867,6.0181804,-1
396,397,1580694602899,-7.3624997,-5.6403,-3.1913998,-7.9555974,-1.8555828,5.3425174,-1
397,398,1580694602909,-6.507000000000001,-5.5188,-3.7572,-7.3018365,-1.4345194,4.633431400000001,-1
398,399,1580694602919,-5.9834,-5.3201,-4.2834,-7.0741,-1.2312039,4.25418,-1
399,400,1580694602929,-5.6777997000000004,-5.2416,-4.6428,-6.9078465,-1.0798712,4.0661879999999995,-1
400,401,1580694602940,-5.5787997,-5.2760997000000005,-4.6986,-6.9828234,-1.0641268,3.9159083,-1
401,402,1580694602950,-5.6622996,-5.4188,-4.7829,-6.8503857,-1.1471962,3.3409648,-1
402,403,1580694602960,-5.5678997,-5.6545997,-5.2857,-6.438516,-1.304457,2.5233833999999997,-1
403,404,1580694602970,-5.2170000000000005,-5.9788,-6.956,-5.8603544,-1.3904086000000002,1.5014326999999998,-1
404,405,1580694602980,-4.0466,-6.370899700000001,-7.8753,-5.106909,-1.3713986999999999,0.5035006,-1
405,406,1580694602991,-4.0466,-6.370899700000001,-7.8753,-4.3373933,-1.0629872999999999,0.18096335,-1
406,407,1580694603001,-2.6246998,-5.8967,-7.8546996,-3.2857547,-0.5179616,0.38692215,-1
407,408,1580694603011,-2.6246998,-5.8967,-7.8546996,-2.4452844,-0.01706587,0.34133655,-1
408,409,1580694603021,-0.49469998,-4.8798,-8.1247,-0.81432545,0.71816474,-0.12461341,-1
409,410,1580694603031,0.8420000000000001,-4.3292,-8.6507,0.6713246,1.3175291999999998,-0.6851535,-1
410,411,1580694603041,1.9231999,-3.9162,-9.1805,1.8353758999999998,1.7453539,-1.2659868,-1
411,412,1580694603053,2.665,-3.7759,-9.6755,2.723529,1.9405675,-1.7399143,-1
412,413,1580694603063,3.2377,-3.6578998999999994,-9.7268,3.5715263,2.1006438999999997,-1.6909193,-1
413,414,1580694603074,3.5569,-3.5770998,-9.455,3.9663975,2.2169828,-1.2447838,-1
414,415,1580694603084,3.6947,-3.355,-8.635799,4.383008,2.503473,-0.2915659,-1
415,416,1580694603094,3.9534,-2.878,-7.857599700000001,4.9586120000000005,2.982093,0.27972895,-1
416,417,1580694603105,4.575999700000001,-2.5335,-7.7029996,5.6887093,3.0832145,0.24881501,-1
417,418,1580694603115,5.4463,-2.6689999999999996,-7.9937,6.875706699999999,2.8387954,-0.102653794,-1
418,419,1580694603125,6.1084,-2.7947,-8.1958,8.302843,2.6051214,0.019124883999999998,-1
419,420,1580694603135,7.529,-2.6675,-7.6775,9.6584015,2.8724482000000005,0.9855204,-1
420,421,1580694603145,8.9212,-2.0722,-6.1798,11.330655,3.4306900000000002,2.9150652999999997,-1
421,422,1580694603155,9.7514,-1.5706999,-4.6926,12.070454,3.6727529999999997,4.046545500000001,-1
422,423,1580694603166,10.1823,-1.1869,-3.9127,12.390244000000001,4.0164843,4.492595,-1
423,424,1580694603176,10.1532,-0.6301,-3.87,12.440291,4.2335139999999996,4.102991,-1
424,425,1580694603186,10.1552,-0.579,-4.3389,12.901894,3.6685586000000003,4.150837,-1
425,426,1580694603196,10.5232,-1.0325999,-3.8344998,13.425447,3.26956,5.3308625,-1
426,427,1580694603206,11.1177,-1.0481,-2.5203,14.598606,3.4637873,6.8830614,-1
427,428,1580694603216,12.3061,-0.46069998,-0.82769996,16.021854,3.9993510000000003,8.576039999999999,-1
428,429,1580694603227,13.3602,0.23259999,0.5579,16.730806,4.3902574,9.426997,-1
429,430,1580694603237,13.594399,0.57269996,0.9752,17.19418,3.9352822,9.302633,-1
430,431,1580694603248,13.9797,0.16309999,0.6947,17.222220999999998,3.6216513999999997,8.457603,-1
431,432,1580694603258,13.710899,0.14819999,-0.2798,16.43291,3.7716339,7.595988,-1
432,433,1580694603268,12.8714,0.3163,-1.0376999,15.622473000000001,3.377165,7.5186267,-1
433,434,1580694603278,12.0376,0.0514,-1.0145998999999999,14.452570000000001,3.2868176,8.217456,-1
434,435,1580694603289,10.6642,0.1415,-0.16059999,13.535151,3.3428133,9.247011,-1
435,436,1580694603299,9.9428,0.3439,0.78749996,13.762437,3.7913141,9.866744,-1
436,437,1580694603309,10.213699,0.9325,1.2698,14.127082999999999,3.9568012,9.813028,-1
437,438,1580694603319,10.4632,1.0325,1.0837,14.118962,3.4572559999999997,9.182453,-1
438,439,1580694603329,10.3391,0.5259,0.36949998,13.570307000000001,2.5995476,8.284101,-1
439,440,1580694603339,9.8323,-0.1286,-0.38009998,13.131813000000001,2.2693105,7.783272,-1
440,441,1580694603349,9.3657,-0.4202,-1.0343,12.675939,2.2830915000000003,7.237288499999999,-1
441,442,1580694603360,7.812999700000001,-0.7272,-2.1148999,11.404407,1.8034852,6.671941,-1
442,443,1580694603370,7.812999700000001,-0.7272,-2.1148999,9.8930235,1.0126131999999999,6.670667599999999,-1
443,444,1580694603380,3.8428,-2.9981,-2.4429998,7.3346467,-0.5720609999999999,6.4006300000000005,-1
444,445,1580694603390,3.8428,-2.9981,-2.4429998,5.559508999999999,-1.8647193,6.017625,-1
445,446,1580694603400,2.083,-4.2767,-2.8357,3.6851553999999997,-2.950825,5.7081313,-1
446,447,1580694603410,-1.9101,-6.3227997,-3.6434998999999997,1.6197348999999999,-3.9033723,5.1820393,-1
447,448,1580694603421,-4.2541,-6.9502997,-4.1443,-0.7067588,-4.5471444000000005,4.6766133000000005,-1
448,449,1580694603431,-4.2541,-6.9502997,-4.1443,-2.9075186,-4.851246400000001,4.332634,-1
449,450,1580694603441,-8.0889,-7.2356997000000005,-4.3789997000000005,-4.8425984,-4.964013,4.651225,-1
450,451,1580694603451,-8.8519,-6.9943,-3.6243,-5.413951,-4.8709364,5.3206153,-1
451,452,1580694603461,-8.8404,-6.7165,-2.6332,-5.449586,-4.768311,6.360082,-1
452,453,1580694603472,-8.701099000000001,-6.9231,-1.8051,-5.3354597,-5.1517763,7.2385716,-1
453,454,1580694603482,-8.6952,-7.3862,-1.6347,-5.344777,-5.876281,7.439847500000001,-1
454,455,1580694603492,-9.1317,-7.5476,-1.7127,-5.908018,-6.116237,7.413588000000001,-1
455,456,1580694603502,-10.7295,-7.5072,-1.0426999,-7.2380548,-6.205302,8.033888000000001,-1
456,457,1580694603512,-13.347098999999998,-7.4097,0.0743,-10.279457,-6.2602150000000005,9.296704,-1
457,458,1580694603522,-15.405399,-7.3374996,0.7233,-11.965672999999999,-6.410245,9.93724,-1
458,459,1580694603533,-15.405399,-7.3374996,0.7233,-12.114527,-6.6211166,10.871350999999999,-1
459,460,1580694603543,-15.1163,-7.375099700000001,3.3239,-11.093112,-6.9943347000000005,13.000639999999999,-1
460,461,1580694603553,-14.0175,-7.2783,4.5168,-10.146692999999999,-7.063766499999999,13.777472,-1
461,462,1580694603563,-12.743099,-6.8012,5.0032,-8.728867999999999,-6.8021474,14.271683,-1
462,463,1580694603574,-11.8852,-6.2851996,5.4800997,-8.364345,-6.4982176,14.883919,-1
463,464,1580694603584,-12.2219,-5.7447,6.2974997,-8.832574000000001,-6.3415985,15.695179999999999,-1
464,465,1580694603594,-12.7195,-5.5546,8.0622,-9.283364,-6.487798000000001,18.129412,-1
465,466,1580694603604,-12.6456995,-5.4073997,10.5211,-9.034692999999999,-6.633356,20.596110999999997,-1
466,467,1580694603614,-12.0508995,-5.3188996,12.7098,-8.307114,-6.8419967,22.346798,-1
467,468,1580694603624,-10.831099499999999,-5.2402,13.747998999999998,-6.765726600000001,-6.9199996,22.790417,-1
468,469,1580694603635,-8.9654,-4.8761997,13.0803995,-5.1247983,-6.761963000000001,21.483067000000002,-1
469,470,1580694603645,-7.2971997,-4.6136,11.451099000000001,-3.6045375,-6.7648744999999995,20.026557999999998,-1
470,471,1580694603655,-5.549299700000001,-4.1703997,10.554399499999999,-1.6371934,-6.1711125,19.738766000000002,-1
471,472,1580694603665,-3.6599,-3.3116999,11.064899,-0.15665741,-5.59591,20.760496,-1
472,473,1580694603675,-1.8368,-2.4878,12.662399,1.6841868000000002,-4.961389,22.899906,-1
473,474,1580694603685,-0.2607,-1.9750999,14.559099,2.6726954,-5.0268087,24.279963000000002,-1
474,475,1580694603696,0.5771,-2.0374,15.4035,3.1717906000000005,-5.3453040000000005,24.215778,-1
475,476,1580694603706,1.2982,-2.2946,14.7275,4.077182,-5.7141166,22.712317000000002,-1
476,477,1580694603716,2.5165,-2.5872998,12.871799000000001,5.2537403,-5.9663315,20.992725,-1
477,478,1580694603726,3.824,-2.6731,11.6157,6.5922713,-5.647826,20.739025,-1
478,479,1580694603736,5.6391,-2.133,11.9368,8.841814999999999,-4.92698,21.640413,-1
479,480,1580694603747,8.1324,-1.2813,12.982699,10.980537,-3.973896,22.68871,-1
480,481,1580694603757,10.0412,-0.41700000000000004,13.7978,12.293267,-3.362704,22.963007,-1
481,482,1580694603767,11.1112995,-0.096,13.5147,12.778486000000001,-3.2586042999999996,21.670208,-1
482,483,1580694603777,11.3461,-0.22549999,12.1119995,12.502607000000001,-3.3744836000000005,19.9337,-1
483,484,1580694603787,11.0618,-0.516,10.2887,12.411082,-3.4646301,18.16096,-1
484,485,1580694603798,11.0836,-0.7716,8.4714,12.64465,-3.3720894,16.89026,-1
485,486,1580694603808,11.479199000000001,-0.8419,7.0241,13.216873999999999,-2.8369853,16.05904,-1
486,487,1580694603818,11.9734,-0.4876,6.5294,13.475429,-2.2890005,15.538532,-1
487,488,1580694603828,12.142999999999999,-0.1909,5.8283,13.085108,-2.0160902,14.222017000000001,-1
488,489,1580694603838,11.6486,-0.22829999,4.2861,12.24434,-2.0294785,12.129131,-1
489,490,1580694603849,10.8022995,-0.5227,2.0901,11.500117,-1.9915258000000002,10.108654,-1
490,491,1580694603858,10.1682,-0.6994,0.057299998,11.148073,-1.6477758000000002,8.187959,-1
491,492,1580694603868,9.9018,-0.5688,-1.8784,11.007197999999999,-1.2336171999999999,6.7665880000000005,-1
492,493,1580694603878,9.716000000000001,-0.33069998,-3.5886,10.831742,-0.63999885,5.0090723,-1
493,494,1580694603888,9.592,-0.1138,-4.9455,10.695167,-0.32439518,4.0007396,-1
494,495,1580694603898,9.3758,-0.0862,-5.9107,10.30134,-0.1310203,3.1333206000000002,-1
495,496,1580694603908,8.9278,-0.12459999,-6.7707,9.92071,0.012315774,2.4951892000000004,-1
496,497,1580694603918,8.5327,-0.19039999,-7.2834997,9.714263,0.17469053,2.2391052000000005,-1
497,498,1580694603929,8.3358,-0.19739999,-7.5112,9.567202,0.38156873,2.3596772999999995,-1
498,499,1580694603939,8.2005,-0.048899997,-7.2303,9.710403,0.75448954,3.275019,-1
499,500,1580694603949,8.4168,0.2228,-6.1960998,9.923832,0.9762884000000001,4.452698000000001,-1
500,501,1580694603959,8.5899,0.3613,-5.0362,9.818085,1.0020978,5.243771,-1
501,502,1580694603969,8.427,0.275,-4.3582,9.383594500000001,0.70606923,5.804378,-1
502,503,1580694603979,7.9175,-0.123399995,-3.7691998,8.125595,0.09918699,6.6768827,-1
503,504,1580694603990,6.8364997,-0.6933,-3.0223,6.6102567,-0.5071302,7.318145299999999,-1
504,505,1580694604000,5.3178997,-1.3356999,-2.3699,5.6137233,-0.87365377,7.3256726,-1
505,506,1580694604010,4.0871997,-1.8689,-2.4290000000000003,4.3577724,-1.28877,6.701954400000001,-1
506,507,1580694604020,2.0314,-2.6566,-3.5967,3.3935416,-1.5335053,6.0596,-1
507,508,1580694604030,2.0314,-2.6566,-3.5967,2.536695,-1.6560979999999998,5.4528136,-1
508,509,1580694604040,1.1494,-2.8565,-4.1907997,1.6410912,-1.6614131999999997,5.252218,-1
509,510,1580694604051,-0.0707,-3.1134,-3.9529,1.2991704,-1.798984,5.6695557,-1
510,511,1580694604061,-0.7155,-3.4441998,-3.2124,0.43272802,-2.20664,6.6084274999999995,-1
511,512,1580694604071,-1.4196999,-3.8384998,-2.3402998,-0.42761400000000005,-2.6842928,7.678875,-1
512,513,1580694604081,-1.4196999,-3.8384998,-2.3402998,-1.0892373,-3.0397935,8.889603999999999,-1
513,514,1580694604091,-3.4027998,-4.6733,1.2758,-2.6813624,-3.4506671000000004,11.411302000000001,-1
514,515,1580694604101,-4.5687,-4.6159,2.4112,-3.4594204,-3.3692644,12.084245,-1
515,516,1580694604112,-4.6932,-4.3227,2.5546,-3.501319,-2.916444,12.090317,-1
516,517,1580694604122,-4.3985,-3.8467998999999997,1.3902,-3.2482326,-2.4131734000000002,10.676328999999999,-1
517,518,1580694604132,-4.5095,-3.6783997999999998,-0.33229998,-3.3749337,-2.225305,9.2992325,-1
518,519,1580694604142,-4.5873,-3.5993,-1.4602,-3.4794263999999995,-2.072737,7.998558500000001,-1
519,520,1580694604152,-4.7654,-3.6392,-1.9942,-3.7708006000000003,-2.038184,7.6161666,-1
520,521,1580694604163,-5.2225,-3.6506,-1.6389999,-4.2752875999999995,-2.0342286,8.154803999999999,-1
521,522,1580694604173,-5.5554,-3.6766998999999996,-0.6875,-4.6832886,-1.9625080000000001,9.266652,-1
522,523,1580694604183,-5.8717,-3.5691,0.0084,-4.914827,-1.8908161,9.626108,-1
523,524,1580694604193,-6.111000000000001,-3.4139,0.3813,-5.17318,-1.6014049,10.133621,-1
524,525,1580694604203,-5.8266,-3.0393,0.5991,-4.8122783,-1.1957408999999999,10.194654,-1
525,526,1580694604213,-4.9604,-2.3407,0.2801,-3.8885953,-0.4198089,9.771656,-1
526,527,1580694604224,-4.0285,-1.6899998999999999,-0.43879998,-2.8031697,0.39612547,8.760144,-1
527,528,1580694604234,-3.1508,-1.1594,-1.4712,-2.0982687,0.9226486999999999,7.722086,-1
528,529,1580694604244,-2.5962,-0.80789995,-2.2997,-1.6880558999999997,1.1376001,7.1694083,-1
529,530,1580694604254,-2.3295,-0.7762,-2.4938,-1.568116,1.1975508999999998,7.1013074000000005,-1
530,531,1580694604265,-2.3365998,-0.6337,-2.3274,-1.6420009999999998,1.4026957,7.496571,-1
531,532,1580694604274,-2.3601,-0.4525,-1.6523,-1.7514543999999999,1.5432066999999998,8.191646,-1
532,533,1580694604284,-2.4234,-0.38639998,-1.2121998999999999,-1.7952874,1.602602,8.452297999999999,-1
533,534,1580694604294,-2.4071999,-0.3128,-1.0064,-1.7622473,1.7288339,8.673953,-1
534,535,1580694604304,-2.3655,-0.2007,-0.8197,-1.6730298,1.7910256000000002,8.816801,d
535,536,1580694604314,-2.1195,-0.1387,-0.8289,-1.4127418,1.8617983,8.703805000000001,-1
536,537,1580694604324,-1.5507,0.0285,-1.3472998999999999,-0.6579554,2.09191,8.042593,-1
537,538,1580694604334,-0.74469995,0.2365,-1.7485,0.13823164,2.3199432,7.7768745,-1
538,539,1580694604344,-0.1139,0.4122,-1.7982,0.66095287,2.4625611000000003,7.8962593,-1
539,540,1580694604354,0.2552,0.50949997,-1.5363,0.87115425,2.5299435000000003,8.182136999999999,-1
540,541,1580694604364,0.2545,0.52669996,-1.1781,0.7410533,2.4838883999999997,8.619011,-1
541,542,1580694604375,0.0977,0.49049997,-0.6738,0.55580914,2.4240239,9.115847,-1
542,543,1580694604385,-0.1021,0.4443,-0.3556,0.3140618,2.310941,9.279111,-1
543,544,1580694604395,-0.41689998,0.2349,-0.3102,-0.038498763,2.0388830000000002,9.284311,-1
544,545,1580694604405,-0.6347,0.036199998,-0.4096,-0.1101237,1.9062729999999999,9.147258,-1
545,546,1580694604415,-0.519,0.046099997999999996,-0.4678,0.1806569,1.9275143,9.167082,-1
546,547,1580694604425,-0.2489,-0.003,-0.48659998,0.43113828,1.8859988,9.057696,-1
547,548,1580694604436,-0.021,-0.0288,-0.61439997,0.6951421,1.8506892,9.013116,-1
548,549,1580694604446,0.2652,-0.0276,-0.53819996,0.97169155,1.8839495,9.214334,-1
549,550,1580694604458,0.5366,0.0484,-0.32619998,1.2127013999999998,1.9908075,9.420418,-1
550,551,1580694604468,0.69119996,0.1467,-0.18339999,1.1366999,1.9401557,9.538825,-1
551,552,1580694604478,0.5597,0.0884,-0.0698,0.893133,1.87149,9.690876,-1
552,553,1580694604488,0.3166,0.0579,0.0932,0.7357956999999999,1.8714997,9.855013,-1
553,554,1580694604498,0.1774,0.07809999599999999,0.266,0.5842043,1.8792567999999998,10.107209,-1
554,555,1580694604509,0.057699997,0.100499995,0.4698,0.47464570000000006,1.9282613999999998,10.322887,-1
555,556,1580694604519,-0.0607,0.1643,0.6729999999999999,0.41962695,1.9454995,10.263339,-1
556,557,1580694604529,-0.11669999,0.1973,0.6116,0.44481394,1.949359,10.147058,-1
557,558,1580694604539,-0.061899997000000005,0.22919999,0.50119996,0.5404767,2.0839898999999997,10.146253,-1
558,559,1580694604550,0.0235,0.35079998,0.49839997,0.60745686,2.1996872000000005,10.363847999999999,-1
559,560,1580694604559,0.1003,0.48529997,0.7107,0.6247716999999999,2.2351117,10.690666,-1
560,561,1580694604569,0.121,0.5557,1.1085,0.42972088,2.2100782000000003,11.015646,-1
561,562,1580694604579,-0.059499998,0.5406,1.3585,0.24682304,2.1129215,11.221882,-1
562,563,1580694604589,-0.2162,0.4675,1.5495,0.058380216,2.0080266,11.461694999999999,-1
563,564,1580694604599,-0.4296,0.375,1.8482,-0.45814487,1.8306066000000003,11.895399000000001,-1
564,565,1580694604609,-0.8459,0.2429,2.2157,-0.7469909,1.7636743000000001,12.450472,-1
565,566,1580694604619,-1.2091,0.23439999,3.3939,-0.8676108,1.7894264,13.074841000000001,-1
566,567,1580694604629,-1.2091,0.23439999,3.3939,-0.8816886999999999,1.9127948000000001,13.584988000000001,-1
567,568,1580694604639,-1.2113,0.36949998,3.8922,-0.9924158000000002,1.8708866999999998,13.652409,-1
568,569,1580694604649,-1.3625,0.2861,3.9315998999999997,-1.3748655,1.5838888999999998,13.311914999999999,-1
569,570,1580694604659,-1.6699,0.023699999,3.6299,-1.5575719,1.4542476999999998,12.978269000000001,-1
570,571,1580694604669,-1.8579999,-0.1582,3.2410997999999998,-1.6188155,1.4460691,12.93613,-1
571,572,1580694604680,-1.8849,-0.1739,3.2545,-1.5991161,1.5258918,13.319135999999999,-1
572,573,1580694604690,-1.8255,-0.1069,3.6397,-1.5924027,1.7505349,13.618565,-1
573,574,1580694604700,-1.7414,0.2049,4.0176997000000005,-1.5947969,1.8782033999999999,13.690744,-1
574,575,1580694604710,-1.7414,0.2049,4.0176997000000005,-1.4553298000000001,1.9096631999999998,13.417748000000001,-1
575,576,1580694604720,-1.4336,0.2436,3.313,-1.3849307,1.9871012,12.972666,-1
576,577,1580694604731,-1.4336,0.2436,3.313,-1.2993046,2.0402907999999997,12.605865,-1
577,578,1580694604741,-1.3093,0.25239998,2.9591,-0.8839870999999999,2.1245477000000004,12.588635,-1
578,579,1580694604751,-0.47939998,0.3338,3.0203998,-0.51965666,2.2466998,12.647313,-1
579,580,1580694604761,-0.47939998,0.3338,3.0203998,-0.72098035,2.1385297999999997,12.647687,-1
580,581,1580694604771,-1.2126,-0.0909,2.7122,-1.3356965,1.9365932000000001,12.324345,-1
581,582,1580694604781,-1.7303,-0.32909998,1.9516,-1.9102281000000003,1.7658098999999998,11.547578999999999,-1
582,583,1580694604792,-2.0358999,-0.3769,1.2011,-2.3638337000000003,1.8109168000000002,10.63875,-1
583,584,1580694604802,-2.0358999,-0.3769,1.2011,-2.7002667999999996,1.9358174,10.092326,-1
584,585,1580694604812,-2.4378998,-0.24219999,0.4632,-2.8800522999999996,1.9972908,10.010072000000001,-1
585,586,1580694604822,-2.2108998,-0.1235,0.5442,-2.6195726,2.155768,10.118606,-1
586,587,1580694604833,-1.6192,-0.18159999,0.6741,-2.052798,2.1218947999999997,10.1231165,-1
587,588,1580694604843,-1.3377999,-0.2597,0.42159998,-1.9126033,2.0945146,9.86957,-1
588,589,1580694604853,-1.2394999,-0.23779999,0.0221,-1.8977496999999999,2.2354949,9.361089,-1
589,590,1580694604863,-1.2152,-0.1929,-0.2891,-1.9405675,2.2313576,9.138380999999999,-1
590,591,1580694604874,-1.2308999,-0.1547,-0.4244,-1.9725541000000002,2.3478117000000003,9.004057000000001,-1
591,592,1580694604884,-1.0838,-0.20289999,-0.49139997,-1.7936593,2.1761377,8.945619,-1
592,593,1580694604894,-0.8803,-0.5638,-0.5879,-1.7677157,1.7870991999999999,8.723063,-1
593,594,1580694604904,-1.0073,-0.8652,-0.9783,-1.9928186,1.6501987,8.293667999999998,-1
594,595,1580694604914,-1.0962,-0.9715,-1.3485,-2.0449164,1.5592287,8.0179615,-1
595,596,1580694604924,-0.9975,-1.1197,-1.6695,-1.9113486000000002,1.4363582000000001,7.533595,-1
596,597,1580694604934,-0.7434,-1.2336999,-2.1959999,-1.6869066000000001,1.413958,7.006458800000001,-1
597,598,1580694604944,-0.4439,-1.1166999,-2.6146,-1.3985586,1.6405549,6.7109570000000005,-1
598,599,1580694604954,0.0403,-0.6968,-2.8769999,-0.794693,2.1901773999999996,6.450918,-1
599,600,1580694604964,0.5094,-0.4705,-2.8953998,-0.42906009999999994,2.2746546000000003,6.510907,-1
600,601,1580694604975,0.62369996,-0.5837,-2.7384,-0.46003148,2.1952243,6.694006,-1
601,602,1580694604985,0.5535,-0.6317,-2.5811,-0.43552443,2.2198367,6.7240104999999994,-1
602,603,1580694604995,0.5579,-0.65099996,-2.7454998,-0.40490738,2.2173371,6.2297606,-1
603,604,1580694605005,0.5965,-0.67969996,-3.3876,-0.15584338,2.4839267999999994,5.581420400000001,-1
604,605,1580694605015,1.0521,-0.30859998,-3.9789,0.53746957,3.0124133,4.891708400000001,-1
605,606,1580694605026,1.6966,0.1467,-4.7078,0.9167494,3.2930233,4.3413386,-1
606,607,1580694605036,1.8417,0.34759998,-5.2033,0.8345517,3.5959857000000004,3.9310492999999993,-1
607,608,1580694605046,1.7128999,0.5499,-5.3493,0.9552003000000001,3.6584839999999996,3.8887199999999997,-1
608,609,1580694605057,2.0941,0.4964,-5.4108,1.7062038,3.7213843,3.6939851999999997,-1
609,610,1580694605067,2.9842,0.64989996,-5.6709,2.8362192999999998,3.7863915,3.5178866,-1
610,611,1580694605077,3.8149998,0.5511,-5.652199700000001,3.1091392000000004,3.3276339,4.127977,-1
611,612,1580694605087,3.8406,0.0602,-4.9645,2.3158827,2.6929214,5.021225,-1
612,613,1580694605097,2.8964999,-0.55689996,-4.0671,1.1751987,2.0304172,5.9937309999999995,-1
613,614,1580694605108,1.7919999,-1.1642,-3.0863,0.45936109999999997,1.4954854,6.850922,-1
614,615,1580694605118,0.9996,-1.7296,-2.1475,-0.21014388,0.9814695,7.660325,-1
615,616,1580694605128,0.6304,-1.989,-1.5713999,0.08669883,0.7515590999999999,8.046462,-1
616,617,1580694605138,1.0694,-2.1264,-1.2975999,0.6651093000000001,0.5794351,7.9449190000000005,-1
617,618,1580694605148,1.5676999,-2.2338998,-1.4724,0.7750414000000001,0.42752782,7.947227000000001,-1
618,619,1580694605159,1.5996,-2.3264,-1.3713,0.6092094,0.53425175,8.531326,-1
619,620,1580694605169,1.443,-2.1413,-0.8788,0.44882664,1.0369575,9.173011,-1
620,621,1580694605179,1.2443,-1.4085,-0.044299997,0.38592616,1.6737672,10.313101,-1
621,622,1580694605189,1.2522,-0.77559996,1.1130999,0.440083,1.9807422,11.365946000000001,-1
622,623,1580694605199,1.2940999,-0.4192,2.0367,0.58994085,2.404497,11.804487,-1
623,624,1580694605210,1.4473,0.0088,2.3271,0.7365235,2.6249740000000004,11.401150999999999,-1
624,625,1580694605219,1.587,0.2543,1.9168999,0.6981491999999999,2.6517124,10.797323,-1
625,626,1580694605229,1.4945998999999999,0.259,1.1682999,0.5837255,2.4996327999999997,10.275416,-1
626,627,1580694605239,1.3650999,0.0889,0.7267,0.46770249999999997,2.4871542,10.095744999999999,-1
627,628,1580694605249,1.1833,0.0962,0.5906,0.47978845,2.707957,9.815327,-1
628,629,1580694605259,1.1574,0.2789,0.3275,0.35047280000000003,2.8257517999999995,9.595500999999999,-1
629,630,1580694605269,0.98859996,0.39119998,0.10300000000000001,0.054511185999999996,2.9336536,9.768533999999999,-1
630,631,1580694605280,0.6605,0.48839998,0.2879,-0.14064498,2.9418514,9.922825999999999,-1
631,632,1580694605290,0.4829,0.5108,0.43109998,-0.32573593,2.8868325,10.125625,-1
632,633,1580694605300,0.2219,0.4626,0.7197,-0.6776260999999999,2.7244387000000003,10.827002,-1
633,634,1580694605310,-0.0718,0.33949998,1.3211,-0.76800245,2.5508687,11.435378,-1
634,635,1580694605320,-0.1276,0.2031,2.0069999999999997,-0.6801831,2.5625042999999996,11.5245285,-1
635,636,1580694605330,-0.1276,0.2031,2.0069999999999997,-0.13526282,2.718568,11.174131,-1
636,637,1580694605340,0.3893,0.3574,1.6528,0.39520609999999995,2.831699,10.747179,-1
637,638,1580694605350,1.4329,0.5938,0.5485,0.99452263,2.985359,10.056921,-1
638,639,1580694605360,1.4329,0.5938,0.5485,0.9255313000000001,2.9079878,9.72315,-1
639,640,1580694605370,1.3366,0.49929997,0.21779999,0.32831209999999994,2.6706553,9.687371,-1
640,641,1580694605380,0.7098,0.24479999,0.18169999,-0.3703351,2.3869138,9.710221,-1
641,642,1580694605391,0.015199998999999999,-0.0326,0.20179999,-0.90097636,2.0968033999999998,9.732794,-1
642,643,1580694605401,-0.8423,-0.5654,0.28959998,-1.1904066,1.8604479999999999,9.788416,-1
643,644,1580694605411,-0.7805,-0.64059997,0.52349997,-1.0663774,1.8192101999999999,10.116928999999999,-1
644,645,1580694605421,-0.7805,-0.64059997,0.52349997,-0.7739496,2.0095491,10.430617,-1
645,646,1580694605431,0.044499997,-0.1094,1.0689,-0.13431472,2.3648968,10.573666000000001,-1
646,647,1580694605442,0.6033,0.19569999,0.9898,0.41209957,2.6600442,10.450509,d
647,648,1580694605452,0.8882,0.3671,0.62799996,0.6387729999999999,2.7847437999999998,10.037834,-1
648,649,1580694605462,0.82769996,0.27699998,0.120699994,0.5143607,2.6787286,9.564855,-1
649,650,1580694605472,0.82769996,0.27699998,0.120699994,0.31745198,2.5514528999999997,9.407565,-1
650,651,1580694605482,0.276,-0.0348,-0.00049999997,-0.0058131219999999996,2.4116795,9.547473,-1
651,652,1580694605492,0.0047,-0.0063,0.089999996,-0.26648423,2.4844823,9.583932,-1
652,653,1580694605502,-0.0356,0.074099995,0.131,-0.22033359,2.5708842,9.624375,-1
653,654,1580694605512,0.1265,0.16839999,0.082899995,-0.07414364,2.654777,9.565823,-1
654,655,1580694605523,0.2059,0.2359,-0.1423,0.023080105,2.7375782,9.287836,-1
655,656,1580694605533,0.4818,0.3046,-0.3678,0.4935599,2.8047976,9.082614999999999,-1
656,657,1580694605543,0.9224,0.3848,-0.3879,0.8082729000000001,2.9125655,9.200505,-1
657,658,1580694605553,1.0668,0.44779998,-0.0164,0.90289176,2.9421196,9.728378999999999,-1
658,659,1580694605563,1.1209999,0.5227,0.629,0.93304914,3.0091476000000004,10.408733999999999,-1
659,660,1580694605574,1.05,0.5093,1.1862999,0.7997304000000001,2.9322937000000002,10.786732,-1
660,661,1580694605584,0.87329996,0.4023,1.2939999,0.618566,2.8225434,10.705041,-1
661,662,1580694605594,0.79219997,0.3638,0.9334,0.6427474,2.823051,10.200583,-1
662,663,1580694605604,0.8853,0.3073,0.3592,0.70579153,2.7929223,9.739057,-1
663,664,1580694605614,0.8725,0.23959999,-0.185,0.6715161000000001,2.7312288,9.189435000000001,-1
664,665,1580694605624,0.8459,0.2059,-0.31849998,0.62690735,2.7313533,9.226037,-1
665,666,1580694605635,0.7245,0.1592,-0.1399,0.5179233,2.6623619,9.431813,-1
666,667,1580694605645,0.7022,0.126,-0.0309,0.5124645,2.6300116,9.491401,-1
667,668,1580694605655,0.7005,0.10439999400000001,0.038399998,0.54944056,2.6499599999999996,9.587926,-1
668,669,1580694605665,0.80689996,0.1717,0.18599999,0.7183946,2.814911,9.727297,-1
669,670,1580694605675,1.0388,0.3558,0.2456,0.9691344999999999,3.0121164,9.666963,-1
670,671,1580694605685,1.2975,0.5667,0.16849999,1.2325542,3.1810513,9.630255,-1
671,672,1580694605696,1.5527999,0.68689996,0.1313,1.4313687,3.2426112000000002,9.576711,-1
672,673,1580694605706,1.7664,0.6191,0.045399997000000004,1.6399037,3.086509,9.473981,-1
673,674,1580694605716,2.0087,0.45319998,-0.0699,1.9913821,3.0401093999999995,9.55118,-1
674,675,1580694605726,2.3025,0.49769998,0.2647,2.2165422,3.1596184,10.181697,-1
675,676,1580694605737,2.4477,0.6385,0.83269995,2.2778819,3.34266,10.711371,-1
676,677,1580694605747,2.5909998,0.8734,1.4386,2.6069887,3.5371459,11.026707,-1
677,678,1580694605757,3.0714998,1.0186,1.5351,3.2701635,3.512543,10.862646,-1
678,679,1580694605768,3.6576998,0.9217,1.3292999,3.8842187000000004,3.3028013999999994,10.514529,-1
679,680,1580694605779,4.3155,0.68939996,0.9686,4.712813400000001,2.9230714,10.294493,-1
680,681,1580694605789,5.1910996,0.24659999,0.7952,5.5947037,2.319857,10.398555,-1
681,682,1580694605799,5.9953,-0.3417,1.0332999,6.127892,2.0951276,11.248026,-1
682,683,1580694605809,6.4311,-0.4878,1.7788,6.0408387,2.1215117,12.112717,-1
683,684,1580694605819,6.3676996,-0.4477,2.6397,5.673645,2.0500305,12.546661,-1
684,685,1580694605830,6.065,-0.49289998,3.077,5.688058,2.1154687,12.553412,-1
685,686,1580694605840,6.1429996,-0.4145,3.0749,6.167885,2.0981827,12.372439,-1
686,687,1580694605850,6.6780996,-0.41959998,2.8902,7.0310809999999995,2.0787513,12.171192,-1
687,688,1580694605860,8.5778,-0.40809998,2.699,8.032145,2.1582577,12.153408,-1
688,689,1580694605871,9.099,-0.5313,2.8186,8.557164,2.087332,12.262259,-1
689,690,1580694605881,8.7101,-0.69409996,2.9408,8.054324000000001,1.9641839,12.419787,-1
690,691,1580694605891,8.7101,-0.69409996,2.9408,7.1974105999999995,1.8635700000000002,12.39506,-1
691,692,1580694605901,7.8767996,-0.8261,3.0167,6.5072584,1.7234421999999998,12.106453,-1
692,693,1580694605911,6.3058996,-1.2571,2.2035,5.7100754,1.5979860000000001,11.477611999999999,-1
693,694,1580694605921,5.9712996,-1.3421999,1.7048999,5.465732599999999,1.5804221999999999,11.063185,-1
694,695,1580694605932,5.8761997,-1.4140999,1.3342,5.2882934,1.5503126,10.608564,-1
695,696,1580694605942,5.582000000000001,-1.7017,0.9938,4.886671,1.2804381999999999,10.21827,-1
696,697,1580694605952,5.582000000000001,-1.7017,0.9938,4.2642455,0.9223614,9.743453,-1
697,698,1580694605962,3.949,-2.7803,-0.0037,3.0562751,0.3248836,9.167753,-1
698,699,1580694605972,2.9826,-3.1757,-0.5148,2.102559,0.071126945,8.586354,-1
699,700,1580694605982,2.2670999,-3.2349,-1.0745,1.374789,0.10333375,8.027844,-1
700,701,1580694605993,1.5734999,-3.2949,-1.4787999,0.5666022,0.09191819,7.5211167,-1
701,702,1580694606003,0.6074,-3.4325,-1.9339998999999999,-0.77222586,-0.06213432,7.020861999999999,-1
702,703,1580694606013,-0.4402,-3.6297,-2.3811998,-1.8482279,-0.2540248,6.5877037,-1
703,704,1580694606023,-1.3779,-3.906,-2.7719998,-2.822103,-0.46259809999999996,6.1581745,-1
704,705,1580694606033,-2.1207,-4.0257998,-3.0772998,-3.5757307999999997,-0.5149162,5.956017,-1
705,706,1580694606043,-2.7749999,-4.098099700000001,-3.053,-4.2157297,-0.61369133,6.098146400000001,-1
706,707,1580694606054,-3.4610999,-4.2065997,-2.7489998,-5.072145,-0.70321536,6.4179835,-1
707,708,1580694606064,-4.4655,-4.3554997,-2.4298,-6.3064227,-1.0044634,6.758744999999999,-1
708,709,1580694606075,-5.4883,-4.7421,-2.1915,-7.444473299999999,-1.4242244,6.9123287,-1
709,710,1580694606085,-6.5752997,-5.0681,-2.0519,-8.717806,-1.7365528000000001,7.1322503,-1
710,711,1580694606095,-7.8254,-5.172000000000001,-1.6374999,-10.246656,-1.7895029999999998,7.6298512999999994,-1
711,712,1580694606105,-8.7507,-5.0831,-1.3492,-10.953166,-1.6329604,7.619719,-1
712,713,1580694606115,-9.1645,-4.7822,-1.5778999,-11.140661,-1.2287808999999998,6.978102000000001,-1
713,714,1580694606126,-8.99,-4.3114,-2.4902,-10.645502,-0.7914848000000001,5.9207171999999995,-1
714,715,1580694606136,-8.414599,-3.9311998,-3.4218998,-10.461091,-0.46662992,5.3493648,-1
715,716,1580694606146,-8.4734,-3.5809,-3.7096,-10.79354,-0.11658804,5.4420013,-1
716,717,1580694606159,-8.828899,-3.2826,-3.3945,-11.329506,-0.012363658000000001,6.003298,-1
717,718,1580694606169,-9.2713995,-3.2317998,-2.9173,-11.63945,0.087350056,6.3870597,-1
718,719,1580694606179,-9.5636,-3.0593998,-2.4038,-11.6068125,0.4786775,7.132623700000001,-1
719,720,1580694606189,-9.4313,-2.7198,-1.9017998999999999,-11.1458235,0.82449603,7.307084599999999,-1
720,721,1580694606199,-8.9712,-2.3451998,-1.7329999,-10.702732000000001,0.9814982,7.244241000000001,-1
721,722,1580694606209,-8.429399499999999,-2.144,-1.8577,-9.763181,1.2174132,6.827764999999999,-1
722,723,1580694606219,-7.6211,-1.9203,-2.2268999,-8.74193,1.4664676,6.5237684,-1
723,724,1580694606230,-6.6183,-1.673,-2.5282,-8.126763,1.7252617,6.4605236,-1
724,725,1580694606241,-6.0520997,-1.4196999,-2.6059,-8.039136,1.6685575000000001,6.825697,-1
725,726,1580694606251,-6.0158997,-1.4793,-2.2545,-8.1968565,1.5491059999999999,6.9595227,-1
726,727,1580694606262,-6.4402,-1.8104999,-2.2693,-8.340795,1.2865387,6.826664,-1
727,728,1580694606272,-6.3513,-2.12,-2.3789,-8.180805,0.94094044,6.689217599999999,-1
728,729,1580694606283,-6.2131,-2.4561,-2.7421,-7.9991713,0.5928905,6.262791,-1
729,730,1580694606293,-6.1168,-2.9994,-3.4269,-7.898931,-0.13805924,5.4108386,-1
730,731,1580694606303,-6.141,-3.6848998,-4.1007,-7.906553999999999,-0.58197296,5.0384254,-1
731,732,1580694606314,-6.3156,-4.3668,-4.7943,-8.06935,-1.4405336000000002,4.0457410000000005,-1
732,733,1580694606324,-6.4115,-4.736000000000001,-5.4498,-7.950367999999999,-1.7904223000000001,3.61331,-1
733,734,1580694606335,-6.0952997,-5.0260997000000005,-5.5004,-7.3620553,-1.9886718999999997,3.7391973,-1
734,735,1580694606345,-5.3519,-5.1143,-5.339299700000001,-6.5853667,-1.9959406000000002,3.8919184000000002,-1
735,736,1580694606355,-4.8952,-5.0628,-5.2886,-6.229712999999999,-2.0674314,3.9257245000000003,-1
736,737,1580694606367,-4.6310997,-5.1468,-5.3764,-5.674832299999999,-2.2376592,3.3685842000000004,-1
737,738,1580694606377,-4.1609,-5.3085,-6.0520997,-4.8954144,-2.6057246,2.4352095,-1
738,739,1580694606387,-3.4575998999999995,-5.6886,-7.0105996,-4.51511,-2.9220657,1.3726341999999998,-1
739,740,1580694606397,-3.3428998,-5.9466996,-8.096499,-4.776518299999999,-3.1285512000000004,0.67690784,-1
740,741,1580694606408,-3.7737,-6.1891,-8.6355,-4.865698,-3.7092120000000004,0.8149767,-1
741,742,1580694606418,-3.8448,-6.7549996,-8.386000000000001,-4.1382914,-3.935579,1.456728,-1
742,743,1580694606428,-3.195,-6.8096,-7.7412996,-3.4048707,-4.017135,2.1303704,-1
743,744,1580694606438,-2.5672998,-6.8666,-7.1425,-2.4345967999999996,-4.38114,2.4441159,-1
744,745,1580694606448,-1.7342,-7.0386996,-6.9898,-1.6104838,-4.5668344,2.1611022999999996,-1
745,746,1580694606459,-0.9407,-7.115,-7.4171,-1.2210716000000001,-4.668291,1.9446951000000001,-1
746,747,1580694606469,-0.71379995,-7.0018997,-7.5017,-0.678986,-4.7651796,3.0622032000000003,-1
747,748,1580694606479,-0.2521,-6.9392,-6.3322997,0.05174349,-4.6587334,4.71855,-1
748,749,1580694606489,0.39399999999999996,-6.5232997,-4.4863,0.44085872,-4.3943367,6.4163456,-1
749,750,1580694606499,0.6695,-6.1672997,-2.4417999,1.1347462,-4.632263,8.4384985,-1
750,751,1580694606509,1.2789,-6.170099700000001,-1.1085,2.6214306,-4.961437,8.352,-1
751,752,1580694606520,2.5036,-6.2242,-1.3777,3.7169309999999998,-5.249124500000001,7.434035000000001,-1
752,753,1580694606530,3.741,-6.3229,-2.5432,4.9856186,-5.461136,7.597003,-1
753,754,1580694606540,4.7469997,-6.2167997,-2.1838,5.8518023,-5.240352,9.256099,-1
754,755,1580694606550,6.2007,-4.7784,2.8581998,6.481497,-4.669239,12.666102,-1
755,756,1580694606560,6.2007,-4.7784,2.8581998,6.46671,-4.546235,15.854307,-1
756,757,1580694606570,6.2837996,-3.7008,8.5822,6.508896,-4.3173585,18.36871,-1
757,758,1580694606581,6.2837996,-3.7008,8.5822,6.5063868,-4.261439299999999,18.977612,-1
758,759,1580694606591,6.3132997,-3.323,9.2046995,6.465838400000001,-4.3123593,17.30573,-1
759,760,1580694606601,6.2240996,-2.824,6.284,6.3497580000000005,-4.2664294,15.996523999999999,-1
760,761,1580694606611,5.6198,-2.6094,5.9761,5.557191,-4.26052,15.819314000000002,-1
761,762,1580694606621,5.0817,-2.4085999,7.4107,5.129491000000001,-4.309151,17.03736,-1
762,763,1580694606631,5.0817,-2.4085999,7.4107,4.43794,-4.303846,18.643879000000002,-1
763,764,1580694606641,2.7013,-2.2372,10.5809,2.4418845,-4.6524224,20.139805,-1
764,765,1580694606652,2.214,-2.2173,10.180699,2.1296806,-4.7639055,19.661665,-1
765,766,1580694606662,2.8983998,-1.9761,8.657499000000001,2.7566453999999996,-4.6922717,18.09914,-1
766,767,1580694606672,3.8637998,-1.8417,6.7367,3.8913057,-4.6675916,15.927014000000002,-1
767,768,1580694606683,5.3355,-1.3895,6.8856997,5.0928597,-4.359496599999999,16.235023,-1
768,769,1580694606693,6.7444,-0.57049996,9.0617,6.6116834,-3.5902394999999996,18.839247,-1
769,770,1580694606703,7.0329,-0.067,11.097099,6.5055629999999995,-3.3137093,20.549376000000002,-1
770,771,1580694606713,6.0024,0.026099999,11.432799000000001,5.032822599999999,-3.4736995999999998,20.301354999999997,-1
771,772,1580694606724,4.9549,-0.0543,10.335,4.264945,-3.527454,19.186557999999998,-1
772,773,1580694606733,4.2917,0.17279999,8.6852,3.562936,-3.3534337999999995,17.446749,-1
773,774,1580694606743,3.5238,0.12719999,6.9367,2.5046413,-3.5782684999999996,15.42995,-1
774,775,1580694606753,2.6353,-0.096,5.4834,1.5805083999999998,-3.8283765,14.120743,-1
775,776,1580694606764,1.7779,-0.42339998,4.3463,0.78767323,-4.052761,13.008866000000001,-1
776,777,1580694606774,1.2048,-0.4206,3.2614,0.45395023,-3.9591477,11.972149,-1
777,778,1580694606784,1.3205,-0.2547,2.2824,0.6711809,-3.7545009,11.234361,-1
778,779,1580694606794,1.7099999,0.048,1.5726,1.1358955,-3.473211,10.6614275,-1
779,780,1580694606804,2.6736999,0.32819998,1.6845,2.304965,-2.978406,10.934597,-1
780,781,1580694606814,3.4819,0.83959997,2.0038,2.8307796,-2.6867921000000003,11.215178,-1
781,782,1580694606825,3.4338,0.71999997,2.2078,2.3946902999999997,-3.0773632999999996,11.348382,-1
782,783,1580694606835,2.6359,0.17019999,2.2003999,1.671373,-3.5330086000000005,11.259853,-1
783,784,1580694606845,1.6573,-0.2464,1.8719,0.57651424,-3.9871216,10.735783,-1
784,785,1580694606855,0.7861,-0.6041,1.2447,-0.039159562,-4.2366834,10.159422,-1
785,786,1580694606865,0.6385,-0.6078,0.7169,0.3516316,-3.9433269999999996,9.698576,-1
786,787,1580694606875,1.2802,-0.1477,0.6076,1.1120875,-3.3879582999999998,10.033439,-1
787,788,1580694606885,1.9634999,0.37759998,1.1632999,1.4730853000000002,-3.0636492000000004,10.500634,-1
788,789,1580694606895,2.2422,0.7136,1.6632999,1.6429585999999998,-2.8026428,10.937288,-1
789,790,1580694606905,2.2826,0.78059995,1.9654,1.6094398,-2.8842182000000003,11.096233999999999,-1
790,791,1580694606915,2.0575,0.62979996,1.8894,1.1635053,-3.1168866000000004,10.730783,-1
791,792,1580694606925,1.5959999999999999,0.4053,1.3948,0.7140276,-3.3280551,10.022321,-1
792,793,1580694606935,1.1673,0.2075,0.5223,0.28361714,-3.4581180000000002,9.103579,-1
793,794,1580694606946,0.6336,0.0561,-0.2769,-0.2226033,-3.5395591,8.678483,-1
794,795,1580694606956,-0.0224,-0.0836,-0.5809,-0.96091765,-3.598332,8.471086999999999,-1
795,796,1580694606966,-0.54719996,-0.0098,-0.7193,-1.2551364,-3.4343673999999997,8.442233,-1
796,797,1580694606976,-0.7614,0.061199997,-0.67789996,-1.3138995,-3.4433024,8.503964,-1
797,798,1580694606986,-0.7082,0.0343,-0.6418,-1.1282245000000002,-3.4573708,8.596007,-1
798,799,1580694606997,-0.4477,0.0069,-0.4838,-0.7467802,-3.5091527,8.874837,-1
799,800,1580694607007,0.0517,0.0042,-0.15689999,0.07215167,-3.3296354,9.260992,-1
800,801,1580694607017,0.76659995,0.2077,0.1503,0.6765055999999999,-3.2303336,9.4294,-1
801,802,1580694607027,1.3145,0.2817,0.2608,0.7584735,-3.2625213,9.312027,-1
802,803,1580694607037,1.1733999,0.2047,0.075399995,-0.030214823999999998,-3.5221388,9.154546,-1
803,804,1580694607048,0.34719998,-0.0624,-0.0039999996999999995,-1.0409223,-3.7343224999999998,9.109219,-1
804,805,1580694607058,-0.6353,-0.24479999,-0.065799996,-1.5601575,-3.801073,9.0619,-1
805,806,1580694607068,-1.0275,-0.309,-0.1273,-1.5080885,-3.7184922999999994,9.046606,d
806,807,1580694607078,-0.8793,-0.1916,-0.0784,-1.1334822,-3.5547576000000003,9.283536,-1
807,808,1580694607088,-0.4551,-0.039,0.1696,-0.6122261,-3.4020267,9.329774,-1
808,809,1580694607098,0.1013,0.1349,0.1735,-0.12653835,-3.1888278,9.4295435,-1
809,810,1580694607108,0.5791,0.3568,0.3044,0.35855564,-3.1529529999999997,9.511838000000001,-1
810,811,1580694607118,1.0275,0.3328,0.33699998,0.52478987,-3.1979256,9.315542,-1
811,812,1580694607128,1.0609,0.3148,0.1228,-0.009749189,-3.3076854,9.194596,-1
812,813,1580694607138,0.48929998,0.1757,0.0442,-0.6802406,-3.4614697,9.158415,-1
813,814,1580694607148,-0.1204,0.0241,0.0030999999,-0.9825038,-3.5341769999999997,9.01326,-1
814,815,1580694607159,-0.35959998,-0.0211,-0.17600000000000002,-0.99160177,-3.5295513,8.936042,-1
815,816,1580694607169,-0.3204,-0.0251,-0.1677,-0.6363405,-3.4460032,9.287923,-1
816,817,1580694607179,0.0067,0.0637,0.13669999,-0.26714499999999997,-3.3228455,9.534986,-1
817,818,1580694607189,0.38599998,0.19489999,0.3838,-0.055382676,-3.308193,9.662107,-1
818,819,1580694607199,0.60969996,0.20789999,0.51309997,0.18848114,-3.3203169999999997,9.649878,-1
819,820,1580694607210,0.82979995,0.198,0.5035,0.3124912,-3.2764075,9.630217,-1
820,821,1580694607220,0.7468,0.18429999,0.3116,0.11485464,-3.3177123,9.467029,-1
821,822,1580694607230,0.7468,0.18429999,0.3116,-0.09730035,-3.4097168,9.250813,-1
822,823,1580694607240,0.5552,0.075899996,0.0916,-0.29978278,-3.5096412000000003,9.121402,-1
823,824,1580694607250,0.0315,-0.0699,0.015,-0.6552355,-3.5552652,9.230642999999999,-1
824,825,1580694607261,-0.026899998999999997,-0.125,0.218,-0.6207495,-3.5672550000000003,9.447492,-1
825,826,1580694607271,0.20109999,-0.0404,0.44169998,-0.4258327,-3.4985225,9.605633000000001,-1
826,827,1580694607281,0.6109,0.0276,0.65709996,0.12212344,-3.4499202000000007,9.884136,-1
827,828,1580694607292,1.3585,0.1471,1.0502,0.89542186,-3.2571964,10.314451,-1
828,829,1580694607303,1.3585,0.1471,1.0502,1.3455126,-3.066982,10.711763000000001,-1
829,830,1580694607313,2.1980999,0.4145,1.8752999,1.5794454,-3.0497725,11.068021,-1
830,831,1580694607323,2.085,0.4172,1.9016998999999999,1.4242148000000001,-3.039286,11.084292,-1
831,832,1580694607334,1.6712999,0.32569999,1.8863,0.92100155,-3.1708903,11.015167,-1
832,833,1580694607344,1.3363,0.1831,1.7033,0.78447455,-3.3029354,10.78765,-1
833,834,1580694607354,1.5208,-0.0242,1.5518999,1.0828495,-3.5236902000000003,10.863633,-1
834,835,1580694607364,1.7749,-0.1444,1.8751999,1.3564493999999998,-3.6219002999999996,11.344877,-1
835,836,1580694607375,2.2903,-0.2555,2.7514,1.8834611,-3.6588192000000004,12.416005,-1
836,837,1580694607385,2.7777998,-0.1858,4.0217,2.4084902,-3.572264,14.032435000000001,-1
837,838,1580694607395,3.1653,-0.089999996,5.3199997,2.6261422999999997,-3.4600909,14.975263,-1
838,839,1580694607405,3.2828998999999994,0.0313,6.0245,2.5837553,-3.3455712999999996,15.313820999999999,-1
839,840,1580694607415,3.1069999,0.0327,6.0631,2.1945255,-3.4704528,15.011357,-1
840,841,1580694607426,2.6829998,-0.1859,5.5920997,1.9426074,-3.5510513999999995,14.631847,-1
841,842,1580694607436,2.4362,-0.28579998,5.1927,1.6939263,-3.556424,14.286814999999999,-1
842,843,1580694607446,2.217,-0.3375,5.0059,1.5384182,-3.5210567000000004,14.354503,-1
843,844,1580694607456,2.0966,-0.3954,5.1219,1.5687575,-3.4784017,14.479011999999999,-1
844,845,1580694607466,2.1433,-0.4023,5.1089,1.5791483999999998,-3.36461,14.299273499999998,-1
845,846,1580694607477,2.0732,-0.3999,4.7408,1.4952077,-3.2992769999999996,13.687516,-1
846,847,1580694607487,1.9548999,-0.4966,3.9884,1.4512118,-3.1876497,12.68473,-1
847,848,1580694607497,1.9557999,-0.5026,3.0788,1.5283625,-3.0654402000000003,12.033381,-1
848,849,1580694607508,1.9975,-0.47239998,2.4938,1.4593139,-2.9806662,11.871725999999999,-1
849,850,1580694607518,1.8414999,-0.509,2.3622,1.2396601,-2.8902802000000003,11.941675,-1
850,851,1580694607528,1.6444,-0.5731,2.3799,1.0086293,-2.828778,11.839098,-1
851,852,1580694607539,1.3593,-0.6572,2.2717,0.80177027,-2.735768,11.784980000000001,-1
852,853,1580694607549,1.1635,-0.66389996,2.1749,0.56528056,-2.6367917000000003,11.516483000000001,-1
853,854,1580694607559,0.87,-0.6933,1.7947999,0.25127625,-2.4456291,10.72836,-1
854,855,1580694607569,0.6049,-0.6592,1.0820999,0.23444024,-2.33563,10.344369,-1
855,856,1580694607579,0.56079996,-0.6767,0.67469996,0.28168259999999995,-2.2498312,10.155208,-1
856,857,1580694607589,0.6213,-0.72279996,0.4165,0.43210554,-2.1612747000000003,9.891117,-1
857,858,1580694607600,0.7137,-0.718,0.15079999,0.40898713,-1.8898008999999998,9.769836999999999,-1
858,859,1580694607611,0.66499996,-0.6307,0.0446,0.14847879999999997,-1.814259,9.680867999999998,-1
859,860,1580694607621,-0.116299994,-0.7812,-0.30719998,-0.47094905,-1.7888422,9.427715,-1
860,861,1580694607631,-0.5474,-0.7535,-0.4258,-0.86145294,-1.6247053,9.379112,-1
861,862,1580694607642,-0.5474,-0.7535,-0.4258,-1.1045219,-1.4231996999999998,9.682191,-1
862,863,1580694607653,-1.0325999,-0.64739996,0.0188,-1.357972,-1.3378799,9.832124,-1
863,864,1580694607663,-1.1611999,-0.63629997,0.1692,-1.413441,-1.1911631999999999,10.027826,-1
864,865,1580694607674,-1.1384,-0.6087,0.2516,-1.3788687,-1.1177187,10.02616,-1
865,866,1580694607684,-1.051,-0.65489995,0.060099997,-1.1471864999999999,-1.0447146999999999,9.7889805,-1
866,867,1580694607694,-0.51269996,-0.6164,-0.081199996,-0.5320299,-0.8331343000000001,9.7306385,-1
867,868,1580694607704,-0.21499999,-0.5670000000000001,-0.14289999,-0.529425,-0.7723408,9.573704,-1
868,869,1580694607714,-0.5232,-0.83559996,-0.42859998,-0.8455267,-0.97830915,9.3146515,-1
869,870,1580694607725,-1.0146998999999999,-1.2324,-0.60499996,-1.4116309,-1.2944875,9.327791,-1
870,871,1580694607736,-1.3,-1.3907,-0.14299999,-1.6243893,-1.2540445,10.076946000000001,-1
871,872,1580694607746,-1.3551999,-1.393,0.5845,-1.8662131000000002,-1.2930893,10.903348,-1
872,873,1580694607756,-1.7385,-1.5338999,1.3223,-2.4345777,-1.3404274,11.261636,-1
873,874,1580694607766,-2.2933,-1.6786,1.4036,-2.8040697999999997,-1.4553874,11.031964,-1
874,875,1580694607777,-2.3469,-1.9589,1.0837,-2.2907433999999998,-1.6109625,10.609043,-1
875,876,1580694607787,-1.5048,-2.0446,0.64739996,-0.5754416,-1.1055753000000001,10.441621000000001,-1
876,877,1580694607797,0.11,-1.6351,0.83959997,1.314953,-0.5688335999999999,11.751633,-1
877,878,1580694607807,1.8828,-1.1897,2.2985,2.31798,0.0828298,13.137273,-1
878,879,1580694607817,2.6476,-0.6397,3.52,2.2254392999999997,0.36513492,13.455165,-1
879,880,1580694607828,2.3601,-0.58559996,3.6464999,1.0967071000000002,0.1550964,12.969602,-1
880,881,1580694607837,1.1071,-0.91569996,3.0895,-0.13804966,-0.00980665,12.415486999999999,-1
881,882,1580694607847,-0.0001,-1.2293999,2.5948,-0.7727334,-0.41476193,12.137989,-1
882,883,1580694607857,-0.6245,-1.8262,2.398,-1.5023903,-0.8095562,12.021469,-1
883,884,1580694607867,-1.4448999,-2.3288,2.2644,-2.2045712,-0.9891118,11.708729,-1
884,885,1580694607878,-2.1703,-2.6541,1.9395,-2.607726,-0.8718725,11.045314999999999,-1
885,886,1580694607887,-2.5168998,-2.6673,1.2167,-2.7680037,-0.49980396,9.978601,-1
886,887,1580694607897,-2.7008997999999997,-2.3992,0.1337,-2.8110993,0.07477571,8.729517999999999,-1
887,888,1580694607907,-2.6357,-2.0393999,-1.1152999,-2.4973152,0.42730755,7.2695436,-1
888,889,1580694607917,-2.2154,-1.8483,-2.5807,-2.108085,0.8126781999999999,5.6343994,-1
889,890,1580694607927,-1.7020998999999999,-1.5596,-4.1746,-1.6965888,1.1581136,4.358357,-1
890,891,1580694607937,-1.1546,-1.3794,-5.2991,-1.3028097,1.2101253,3.7076510999999996,-1
891,892,1580694607947,-0.61179996,-1.4851999,-5.9848,-1.3601268999999998,1.0975021,3.2506366,-1
892,893,1580694607957,-0.8071,-1.6367999,-6.1341,-1.9617802,1.0321021000000001,3.5114417,-1
893,894,1580694607967,-1.5773,-1.8144,-5.6698,-2.937245,1.0267007,4.086883,-1
894,895,1580694607977,-2.2556998999999998,-1.7622,-5.2395,-3.4488477999999994,1.2025309,4.1842794,-1
895,896,1580694607987,-2.6831,-1.6458,-5.1923,-3.7678413,1.2705263,4.040292,-1
896,897,1580694607997,-2.8992999,-1.6063,-5.2896,-3.8769405,1.165507,4.1441145,-1
897,898,1580694608007,-2.9269,-1.7693,-5.1356,-3.8642225,0.97727484,4.546733000000001,-1
898,899,1580694608017,-2.8195,-1.9386,-4.6903,-3.7494921999999997,0.85496944,4.9009023,-1
899,900,1580694608028,-2.622,-2.0484,-4.3654,-3.5523538999999995,0.7374906999999999,5.1362906,-1
900,901,1580694608038,-2.3372998,-2.1046999,-4.1298,-3.0766544,0.8951633,5.463989700000001,-1
901,902,1580694608048,-1.7566998999999999,-1.8672999,-3.826,-2.4927087,1.3406093000000001,5.569737,-1
902,903,1580694608058,-1.1846,-1.3883,-3.7768998,-2.2691476,1.7135876,5.5717483,-1
903,904,1580694608069,-0.97279996,-1.0012,-3.7275,-2.130246,2.18514,5.6857595000000005,-1
904,905,1580694608079,-0.7655,-0.5036,-3.6107,-1.7013963,2.4498908999999998,5.965804599999999,-1
905,906,1580694608089,-0.3051,-0.30339998,-3.2687,-1.3173568000000002,2.545515,6.4709334,-1
906,907,1580694608099,0.0369,-0.22,-2.7617998,-0.99353623,2.4606263999999998,6.909014699999999,-1
907,908,1580694608110,0.3463,-0.35889998,-2.3543,-0.75501627,2.0842962,7.326353,-1
908,909,1580694608120,0.405,-0.73969996,-1.754,-0.88296247,1.9846017,7.589283999999999,-1
909,910,1580694608130,-0.108799994,-0.6964,-1.7559999,-1.5347886,2.0018399,7.588833999999999,-1
910,911,1580694608141,-0.108799994,-0.6964,-1.7559999,-1.8806453999999997,1.956781,7.7247386,-1
911,912,1580694608151,-0.63019997,-0.599,-1.365,-2.032093,2.0643764,7.9829006,-1
912,913,1580694608162,-0.69629997,-0.40039998,-1.3062999,-2.135063,2.2466998,8.043263,-1
913,914,1580694608172,-0.6184,-0.29189998,-1.0516,-1.9841611000000001,2.3549368,8.381133,-1
914,915,1580694608182,-0.2852,-0.3398,-0.89519995,-1.6443378,2.2974567,8.405113,-1
915,916,1580694608192,-0.031,-0.48979998,-1.1594,-1.3806212,2.1429157,8.161661,-1
916,917,1580694608203,0.1269,-0.6152,-1.1291,-1.2526273,2.0750737,8.260417,-1
917,918,1580694608213,0.1831,-0.5161,-1.0009,-1.1977806999999998,2.1634580000000003,8.345842,-1
918,919,1580694608223,0.1938,-0.4596,-0.8921,-1.245732,2.207339,8.515255999999999,-1
919,920,1580694608233,-0.0131,-0.3396,-0.57739997,-1.5852298,2.4171669999999996,8.880591,-1
920,921,1580694608243,-0.2303,-0.0828,-0.35079998,-1.7340436999999997,2.6022196,9.022596,-1
921,922,1580694608253,-0.2611,-0.0681,-0.2905,-1.7562044999999997,2.5573425,9.110215,-1
922,923,1580694608263,-0.2499,-0.0725,-0.191,-1.6952002,2.5519795,9.116162,-1
923,924,1580694608273,-0.11009999,-0.1371,-0.29709998,-1.555101,2.5073805,9.010653999999999,-1
924,925,1580694608283,-0.031999997999999995,-0.21939999,-0.38329998,-1.4709687,2.4409556,8.924042,-1
925,926,1580694608293,-0.07400000000000001,-0.24489999,-0.5083,-1.4275476,2.458443,8.726875,-1
926,927,1580694608303,0.1471,-0.20799999,-0.7115,-1.073809,2.5579650000000003,8.643873,-1
927,928,1580694608313,0.5197,-0.1218,-0.5427,-0.7816303000000001,2.6621032000000002,8.936148,-1
928,929,1580694608324,0.6436,0.0053999997,-0.1004,-0.7202142,2.7997699000000003,9.401455,-1
929,930,1580694608334,0.66069996,0.15869999,0.2924,-0.7439934,2.974585,9.724136,-1
930,931,1580694608344,0.60209996,0.33089998,0.49969998,-0.90640646,3.116446,9.825401,-1
931,932,1580694608354,0.3718,0.3978,0.3554,-1.2075011999999998,3.0532775,9.389331,-1
932,933,1580694608364,0.1392,0.2175,-0.1599,-1.4265515,2.8494544,8.936903,-1
933,934,1580694608374,-0.0611,0.0469,-0.45899999999999996,-1.4941543,2.816989,8.82294,-1
934,935,1580694608385,-0.1304,-0.0007,-0.4258,-1.5693226,2.754845,8.971342,-1
935,936,1580694608395,-0.2609,-0.10439999400000001,-0.2857,-1.6851254,2.6982176,9.000703999999999,-1
936,937,1580694608405,-0.3681,-0.1214,-0.3813,-1.6143239999999999,2.7847917,8.814167,-1
937,938,1580694608415,-0.1441,0.0087,-0.4676,-1.228867,2.9406064,8.9479265,-1
938,939,1580694608425,0.24659999,0.14829999,-0.2906,-0.92035025,3.0309541,9.093972,-1
939,940,1580694608436,0.5999,0.2932,-0.0757,-0.669323,3.2150586,9.389781,-1
940,941,1580694608446,0.7274,0.4303,0.20709999,-0.63092005,3.2118888,9.722144,-1
941,942,1580694608456,0.70519996,0.34129998,0.5094,-0.8217667,3.0469282000000004,9.925441000000001,-1
942,943,1580694608466,0.41369998,0.17909999,0.63589996,-1.1125664,2.884448,9.892458,-1
943,944,1580694608476,0.1751,0.0195,0.5186,-1.2384535,2.7759714,9.710882000000002,d
944,945,1580694608486,0.057999999999999996,-0.0288,0.3337,-1.3757753000000001,2.8363342,9.516616,-1
945,946,1580694608496,-0.0296,0.0288,0.16899999999999998,-1.3766947,2.9193554,9.455919,-1
946,947,1580694608506,0.0046,0.1184,0.1218,-1.2493040000000002,3.0457403999999997,9.44051,-1
947,948,1580694608517,0.1915,0.23179999,0.16239999,-1.0059383,3.065488,9.498698,-1
948,949,1580694608527,0.41349998,0.2511,0.1634,-0.91087884,3.126856,9.405611,-1
949,950,1580694608537,0.4723,0.2913,0.0861,-0.90448153,3.1528478,9.313081,-1
950,951,1580694608547,0.4628,0.3217,-0.0106999995,-0.95900226,3.1461248,9.213395,-1
951,952,1580694608557,0.4129,0.3024,-0.107499994,-1.0611773000000002,3.1902835,9.013844,-1
952,953,1580694608567,0.3014,0.3209,-0.3024,-1.1819600000000001,3.041747,9.040353,-1
953,954,1580694608577,0.13329999,0.1127,-0.18429999,-1.43926,2.9047606,9.278183,-1
954,955,1580694608588,-0.0806,0.040799998,0.0508,-1.5382267,2.8361619,9.580801,-1
955,956,1580694608598,-0.19849999,-0.0412,0.325,-1.7748887999999998,2.755257,9.680188000000001,-1
956,957,1580694608608,-0.45929998,-0.1043,0.3843,-1.8326369999999998,2.769373,9.586901,-1
957,958,1580694608618,-0.4211,-0.0802,0.2681,-1.6192081,2.8219976000000004,9.419249,-1
958,959,1580694608628,-0.0963,0.010799999,0.0449,-1.1996195,3.0276883,9.106652,-1
959,960,1580694608638,0.2287,0.18859999,-0.2268,-0.94614065,3.1811662,8.925986,-1
960,961,1580694608648,0.4357,0.29749998,-0.38079998,-1.0628148000000002,3.1269424,8.874146000000001,-1
961,962,1580694608659,0.24139999,0.2016,-0.4076,-1.4938573999999998,2.9763088,8.828954,-1
962,963,1580694608669,-0.217,0.027999998999999998,-0.4639,-2.0158603,2.8444552000000005,8.709713,-1
963,964,1580694608679,-0.7342,-0.0778,-0.5886,-2.4502451,2.7674866000000002,8.6216545,-1
964,965,1580694608689,-1.1654999,-0.1468,-0.6834,-2.9001062,2.7439852000000005,8.430157000000001,-1
965,966,1580694608699,-1.6113,-0.19319999,-0.8749,-3.2903895,2.814997,8.297757,-1
966,967,1580694608709,-1.9885999,-0.109799996,-0.9984,-3.7672572,2.9479518,7.93335,-1
967,968,1580694608719,-2.406,-0.0359,-1.3248999,-3.910737,2.646474,7.047677,-1
968,969,1580694608730,-2.7814999,-1.2829,-3.8504,-4.134469999999999,1.7750515,5.384253,-1
969,970,1580694608740,-2.7814999,-1.2829,-3.8504,-4.5332294,0.8728876,4.426314,-1
970,971,1580694608750,-3.1982,-2.2354998999999998,-4.7869,-5.0489783,0.44513956,4.2466526,-1
971,972,1580694608760,-4.6078,-2.7642999,-5.1109,-5.9158235,0.40931273,4.084651999999999,-1
972,973,1580694608770,-5.1057,-2.5835,-5.3111997,-6.4130125,0.61104816,3.885732,-1
973,974,1580694608781,-5.210099700000001,-2.5274,-5.7771,-6.5207615,0.67572033,3.4169855000000005,-1
974,975,1580694608791,-5.210099700000001,-2.5274,-5.7771,-6.296684,0.765455,2.6074292999999997,-1
975,976,1580694608801,-4.9955997000000005,-2.4633,-6.5743,-6.052082,0.6348274,1.4507521,-1
976,977,1580694608811,-4.7594,-3.076,-9.276199,-6.003997,0.21566011,-0.13291651,-1
977,978,1580694608821,-4.7309,-3.6088998,-10.8561,-5.911035,-0.4675397,-2.2103078,-1
978,979,1580694608832,-4.8845,-4.1224,-12.2056,-6.0912323,-0.87772393,-3.2497554,-1
979,980,1580694608842,-5.2025,-4.4873,-12.3003,-6.2549285999999995,-1.2532401000000002,-2.897348,-1
980,981,1580694608852,-5.2653,-4.8918,-11.2015,-6.186138,-1.5489528000000001,-2.0372741000000003,-1
981,982,1580694608862,-5.2960997,-5.0622,-9.9851,-6.018391,-1.8244201,-0.5956008,-1
982,983,1580694608872,-4.9674,-5.5144997,-9.2646,-5.3845019999999995,-2.435832,0.07198885,-1
983,984,1580694608882,-3.7993998999999996,-6.1257,-8.978499000000001,-4.0865574,-3.074021,0.28010246,-1
984,985,1580694608892,-3.1216998,-6.5733,-9.175099000000001,-3.340122,-3.6720064,0.18854818,-1
985,986,1580694608902,-2.2145998,-7.1064997000000005,-8.5224,-2.453578,-4.1934633,0.8441380999999999,-1
986,987,1580694608912,-1.1740999,-6.7984,-6.9821,-1.1332523,-3.9111773999999997,2.8173529999999998,-1
987,988,1580694608922,-0.3866,-5.9921,-4.9252,-0.14202406,-3.2740996,4.9928303,-1
988,989,1580694608932,0.8102,-5.155999700000001,-2.9663,1.2285607,-2.6440895,6.798795,-1
989,990,1580694608942,2.2791997999999998,-4.6692,-2.3955,2.90047,-2.515377,7.1340699999999995,-1
990,991,1580694608952,4.3956,-4.8473,-2.9262,5.1409926,-2.9566187999999998,6.513042400000001,-1
991,992,1580694608963,5.7936,-5.0818,-4.0399,6.2824235,-3.3822504999999996,5.3978043,-1
992,993,1580694608973,5.8036,-5.5734,-4.4452,6.2388015,-3.9615803,5.2277393,-1
993,994,1580694608983,5.6345,-5.751,-2.7818,6.063852,-4.3558097,7.4411119999999995,-1
994,995,1580694608993,5.3761997,-5.5007,-0.038799997,5.8276305,-4.3921247,10.277761,-1
995,996,1580694609004,4.8191,-5.3499,2.6406999,5.3537989999999995,-4.493533599999999,12.406074,-1
996,997,1580694609014,4.2881,-5.0792,4.1816,4.8893523000000005,-4.499931,14.142261499999998,-1
997,998,1580694609024,4.659,-4.830899700000001,4.0246,5.5750995,-4.5038,13.220906,-1
998,999,1580694609034,5.5158,-4.5997,2.0583,6.453839,-4.5385256,10.802427,-1
999,1000,1580694609044,6.4856997000000005,-4.657,-0.1989,7.480281,-5.0193005,9.213674000000001,-1
1000,1001,1580694609055,7.5339,-4.648,-0.5291,8.149039,-5.028542,9.471175,-1
1001,1002,1580694609065,8.2302,-4.2857,1.6026,8.837468,-5.048615,12.850868,-1
1002,1003,1580694609076,8.642799,-4.0452,5.3671,8.961400999999999,-5.1106534,15.114729999999998,-1
1003,1004,1580694609086,8.6727,-3.7549,7.8704996,8.863124000000001,-5.205598,18.025579999999998,-1
1004,1005,1580694609096,8.5081,-3.6285,8.3119,8.474822999999999,-5.6190667,17.066895000000002,-1
1005,1006,1580694609106,8.1236,-3.7912,6.5074997,7.9620137,-5.7691545,14.6886,-1
1006,1007,1580694609116,7.7099,-3.4798,4.2687,8.018114,-5.587617,12.369366000000001,-1
1007,1008,1580694609127,8.0182,-3.1883,2.589,8.767164,-5.2336774,11.633388,-1
1008,1009,1580694609137,8.8322,-2.4882998,2.2294,9.734508,-4.4795322,12.882606,-1
1009,1010,1580694609148,9.84,-1.5525,3.9915998,10.766294,-4.299613,15.846081,-1
1010,1011,1580694609158,10.810699000000001,-1.2573,7.1053,11.299645,-4.5228863,18.272366,-1
1011,1012,1580694609168,11.3264,-1.1911,9.330999,11.48807,-4.7562447,19.218601,-1
1012,1013,1580694609178,11.4464,-1.1757,10.189199,11.267228,-5.0397854,19.582826999999998,-1
1013,1014,1580694609189,11.2012,-1.1711,10.6023,10.8585,-4.7628527,19.546062,-1
1014,1015,1580694609199,10.754000000000001,-0.541,10.5823,10.601735000000001,-4.0749407,19.674591,-1
1015,1016,1580694609209,10.5085,0.3759,10.972099,10.7184,-2.678748,21.095798000000002,-1
1016,1017,1580694609219,10.5278,1.7038,12.3076,10.972377,-1.9902136000000001,22.102379,-1
1017,1018,1580694609229,10.7125,2.6662998,13.6606,10.67882,-1.5585774,23.461212,-1
1018,1019,1580694609239,10.2719,3.0686,14.805598999999999,9.734709,-2.259868,24.288889,-1
1019,1020,1580694609250,9.2322,2.477,15.700999,8.741853,-3.2937512000000004,24.41399,-1
1020,1021,1580694609260,7.8788,1.2282,15.851899,6.860001,-4.930686,24.02911,-1
1021,1022,1580694609270,3.8455,-1.2034,14.935498999999998,4.6260667,-6.08879,23.416134,-1
1022,1023,1580694609280,3.8455,-1.2034,14.935498999999998,2.0645392,-6.5746025999999995,22.54431,-1
1023,1024,1580694609290,1.1498,-1.7157999,14.0569,0.3799215,-6.7241539999999995,21.300388,-1
1024,1025,1580694609300,-0.6764,-1.9520998999999999,12.7837,-1.1400614,-7.3099,19.842436,-1
1025,1026,1580694609310,-4.6147,-3.7063,9.9987,-3.2262442000000005,-8.213011999999999,18.61395,-1
1026,1027,1580694609320,-6.7042,-4.7249,9.1963,-5.1258135000000005,-9.056355,17.862766,-1
1027,1028,1580694609331,-6.7042,-4.7249,9.1963,-6.9718865999999995,-9.705864,17.32226,-1
1028,1029,1580694609341,-10.7681,-6.2472,7.8837,-9.24293,-10.273691,16.523294,-1
1029,1030,1580694609351,-12.4053,-6.7007,7.2246,-10.428433,-10.4617605,16.077515,-1
1030,1031,1580694609362,-13.411098999999998,-6.8011,6.8673,-11.366951,-10.376059,15.780202,-1
1031,1032,1580694609372,-13.8292,-6.7931,6.1832,-11.753308,-10.111775999999999,14.97349,-1
1032,1033,1580694609382,-13.8292,-6.7931,6.1832,-11.601966000000001,-9.830784,14.060763,-1
1033,1034,1580694609392,-13.3474,-6.5013,3.8383,-11.12124,-9.366902,12.753117999999999,-1
1034,1035,1580694609402,-12.947599,-6.2925997,2.7008,-10.673886999999999,-8.903336999999999,11.640992,-1
1035,1036,1580694609412,-12.3139,-5.9445996,1.3773,-9.9538555,-8.263845,10.39707,-1
1036,1037,1580694609423,-11.2093,-5.2876997,0.182,-9.100543,-7.5283084,9.505823,-1
1037,1038,1580694609433,-10.324699,-4.9314,-1.2081,-8.290460000000001,-6.943989299999999,8.178411500000001,-1
1038,1039,1580694609443,-10.3279,-5.1843,-2.8109999,-8.60387,-7.069551,6.0666294,-1
1039,1040,1580694609453,-10.861899000000001,-5.6257,-4.2311,-9.190785,-7.23274,4.764404,-1
1040,1041,1580694609463,-11.1421995,-5.9389997,-5.5641,-9.351761999999999,-7.3002367,3.7286625,-1
1041,1042,1580694609473,-10.935699000000001,-6.1675,-6.9075,-9.007169000000001,-7.239597,2.187496,-1
1042,1043,1580694609484,-10.2774,-6.1853,-8.1247,-8.242097,-6.957397,1.0746997999999999,-1
1043,1044,1580694609494,-9.2876,-5.9607997,-9.0604,-7.147276400000001,-6.5523553,0.36316207,-1
1044,1045,1580694609504,-7.8026,-5.6604,-9.4713,-5.8951087,-6.1690054000000005,0.20280804,-1
1045,1046,1580694609514,-6.0060997,-5.2089,-9.1925,-3.7097580000000003,-5.420472599999999,0.8602271,-1
1046,1047,1580694609524,-3.9248998,-4.4294,-8.0782995,-1.6660483,-4.4993367,2.1211765,-1
1047,1048,1580694609534,-1.8698,-3.4851,-6.9733996,0.12458468,-3.618721,3.0100956,-1
1048,1049,1580694609544,-0.39679998,-2.8300998,-6.4082,1.3092741,-3.106965,3.499461,-1
1049,1050,1580694609554,0.505,-2.3975,-6.0579996,1.8692011999999998,-2.7347912999999995,3.7382107,-1
1050,1051,1580694609565,1.048,-2.1275,-5.8820996,2.2701054,-2.5761898,3.9829748,-1
1051,1052,1580694609575,1.4166,-1.9555,-5.5562997,2.5664307999999996,-2.3988464,4.391167,-1
1052,1053,1580694609585,2.0101,-1.734,-5.0611,3.5419245000000004,-2.1091672999999997,4.99894,-1
1053,1054,1580694609595,3.1839999999999997,-1.3919,-4.5833,5.0056343,-1.7423277,5.496752,-1
1054,1055,1580694609605,4.762,-0.99219996,-4.0353,6.2666793,-1.3254013999999998,6.0758324,-1
1055,1056,1580694609615,5.9270000000000005,-0.3798,-3.3590998999999995,7.0981570000000005,-0.7434763000000001,6.725082400000001,-1
1056,1057,1580694609625,6.7985,0.3317,-2.5451999,7.8369503,-0.19664058,7.7900233,-1
1057,1058,1580694609635,7.2591996,0.69949996,-1.5142,7.8674808,-0.08541554,8.598048,-1
1058,1059,1580694609645,6.9827,0.8815,-0.3732,7.293112,-0.07872135,9.816754,-1
1059,1060,1580694609655,6.5881,0.8736,0.7698,7.0319715,-0.19693746,10.963548,-1
1060,1061,1580694609665,6.5996,0.9281,1.7766,6.9139853,-0.18410453,11.947957,-1
1061,1062,1580694609675,6.3785996,0.9302,2.3316,6.425501000000001,-0.34666127,12.113463000000001,-1
1062,1063,1580694609685,5.8222,0.7895,2.3158998,5.988033000000001,-0.47658019999999995,11.961786,-1
1063,1064,1580694609696,5.3803,0.78669995,2.0434,5.660448000000001,-0.3819422,11.602129,-1
1064,1065,1580694609706,5.1945,0.92249995,1.5246998999999999,5.4195724,-0.39206487,10.918,-1
1065,1066,1580694609716,4.9107,0.7849,0.996,4.8961234000000005,-0.5538938,10.595406,-1
1066,1067,1580694609726,4.3136,0.5969,0.90929997,4.3092947,-0.84327614,10.885707,-1
1067,1068,1580694609736,3.7982,0.30069998,1.3633,3.8888443,-1.0653719,11.277714999999999,-1
1068,1069,1580694609746,3.3074,0.18259999,1.749,3.3715818,-1.1794221,11.644066,-1
1069,1070,1580694609756,2.7768998,0.087,2.1341999,2.8110993,-1.2725948,11.861335,-1
1070,1071,1580694609766,2.4196,0.095699996,1.9885,2.5475168,-1.1857236999999998,11.292913,-1
1071,1072,1580694609776,2.2473,0.2456,1.2229999,2.7495107999999995,-0.83847815,10.576711999999999,-1
1072,1073,1580694609786,2.6755998,0.72069997,0.7019,3.3891745,-0.30052978,10.23143,-1
1073,1074,1580694609796,3.1904,1.1379,0.4262,3.506787,-0.1629781,10.11688,-1
1074,1075,1580694609806,2.8047,0.9813,0.4649,2.5965116000000004,-0.5962903,10.295287,-1
1075,1076,1580694609816,1.844,0.50049996,0.6418,1.7372136000000002,-1.0676991000000002,10.423751,-1
1076,1077,1580694609827,1.0224,0.072399996,0.78959996,0.9277053,-1.4926603,10.578378,d
1077,1078,1580694609837,0.26729998,-0.2886,0.80979997,0.23210348,-1.7933241000000002,10.454281,-1
1078,1079,1580694609847,-0.23629999,-0.49789998,0.70199996,0.09799947,-1.7561563999999998,10.250306,-1
1079,1080,1580694609857,-0.2724,-0.3698,0.3877,0.42382159999999997,-1.4580591999999999,9.928697999999999,-1
1080,1081,1580694609867,0.2304,-0.02,0.1219,1.1841722,-1.0776781000000002,9.732565,-1
1081,1082,1580694609877,0.8534,0.25169998,-0.0163,1.7606192999999999,-0.8311710999999999,9.678579,-1
1082,1083,1580694609887,1.6268,0.5646,-0.0074,2.649845,-0.43472955,9.858116,-1
1083,1084,1580694609898,2.2653,0.8402,0.1487,2.7470207,-0.46908158,9.945734,-1
1084,1085,1580694609908,2.1978,0.7333,0.2069,2.2050982000000006,-0.8024981,9.89943,-1
1085,1086,1580694609918,1.5791998999999999,0.34,0.15699999,1.4033468999999998,-1.2063903999999999,9.922194500000002,-1
1086,1087,1580694609928,0.72429997,-0.054399997,0.2051,0.7185382,-1.4272698,9.954593,-1
1087,1088,1580694609938,-0.100999996,-0.2735,0.2138,-0.031364042,-1.6259598999999998,9.852963,-1
1088,1089,1580694609948,-0.62299997,-0.46539998,0.085099995,-0.32568806,-1.703848,9.52084,-1
1089,1090,1580694609959,-0.84889996,-0.5026,-0.3087,-0.23468922,-1.5261023999999999,9.086877000000001,-1
1090,1091,1580694609969,-0.6763,-0.3224,-0.71239996,0.35763627,-1.2703058999999999,8.951077,-1
1091,1092,1580694609979,-0.0145,-0.0667,-0.7726,1.3857353000000001,-0.8092689000000001,9.040439,-1
1092,1093,1580694609989,0.8595,0.33429998,-0.7046,1.9156294999999999,-0.60530204,9.173528,-1
1093,1094,1580694609999,1.5222,0.56409997,-0.50879997,2.215489,-0.5177126,9.516186,-1
1094,1095,1580694610009,1.7227999,0.6394,-0.2243,1.9050663,-0.58976847,9.677688999999999,-1
1095,1096,1580694610019,1.2903,0.5356,-0.0184,1.0251971,-0.87182456,9.7328415,-1
1096,1097,1580694610030,0.54359996,0.28759998,0.0009,0.5264083,-0.97817504,9.427811,-1
1097,1098,1580694610040,0.023599999,0.1696,-0.3135,0.19378668,-1.0187998999999999,9.062522999999999,-1
1098,1099,1580694610050,-0.4156,0.0743,-0.7755,0.10030747,-1.0587448,8.960214,-1
1099,1100,1580694610060,-0.4156,0.0743,-0.7755,0.38020879999999996,-0.8835658000000002,9.196484,-1
1100,1101,1580694610070,-0.12629999,0.257,-0.5397,0.8612039,-0.79636896,9.5901375,-1
1101,1102,1580694610081,1.0272,0.5898,0.375,1.5027925,-0.5874796,10.112591,-1
1102,1103,1580694610091,1.1973,0.6896,0.79819995,1.6348183,-0.5226734000000001,10.619558,-1
1103,1104,1580694610101,1.0849999,0.6361,1.1819,1.4582317,-0.6137201,10.941856,-1
1104,1105,1580694610111,0.67759997,0.4933,1.1136,0.9991003,-0.74978733,10.801641,-1
1105,1106,1580694610121,0.1927,0.3213,0.917,0.5592663,-0.930789,10.650682000000002,-1
1106,1107,1580694610131,-0.102199994,0.2042,0.9457,0.33531275,-1.0018201999999998,10.678264,-1
1107,1108,1580694610141,0.076799996,0.1978,1.1218,0.62223387,-0.9815364999999999,10.925135000000001,-1
1108,1109,1580694610151,0.7290000000000001,0.2972,1.6316998999999999,1.1768172,-0.9058223,11.366223,-1
1109,1110,1580694610161,1.4555999,0.4626,2.3183,1.9973389,-0.68886924,12.161778,-1
1110,1111,1580694610171,1.9276999,0.6878,2.7889,2.356833,-0.51793283,12.592582,-1
1111,1112,1580694610182,1.9981999,0.68079996,2.9548,2.3091022999999997,-0.5348071999999999,12.676983,-1
1112,1113,1580694610192,1.9981999,0.68079996,2.9548,2.023589,-0.61893946,12.512108,-1
1113,1114,1580694610202,1.1543,0.3513,2.4498,1.3610749,-0.87974465,12.131698,-1
1114,1115,1580694610212,0.7126,0.1548,2.388,0.93144023,-1.0538988,12.195805,-1
1115,1116,1580694610223,0.3849,-0.021,2.8462,0.62253076,-1.1778611,12.716486,-1
1116,1117,1580694610233,0.3658,0.037000000000000005,3.4613998,0.69041115,-1.0669137,13.312806,-1
1117,1118,1580694610243,0.3658,0.037000000000000005,3.4613998,0.9463034,-0.9341792,13.529375,-1
1118,1119,1580694610253,1.3693,0.5841,3.9053,1.9940636000000003,-0.24085669,13.81599,-1
1119,1120,1580694610263,2.3128,1.1057,4.3423,2.8327044999999997,0.27505547,14.216157,-1
1120,1121,1580694610273,2.7976,1.3916,4.4653,3.056821,0.43061155,14.202989,-1
1121,1122,1580694610284,2.8035997999999998,1.3707,4.4116,2.8788552000000003,0.38732436,14.161501999999999,-1
1122,1123,1580694610294,2.5068998,1.2169,4.3673997,2.5248199000000002,0.25318202,14.136823000000001,-1
1123,1124,1580694610304,2.2865999,1.0436,4.3817,2.3482428,0.18720742,14.190098999999998,-1
1124,1125,1580694610314,2.1283998,0.9669,4.4544997,2.2016313,0.20352629,14.282734,-1
1125,1126,1580694610325,2.0860999,0.92029995,4.6056,2.2259946,0.25661054,14.450329,-1
1126,1127,1580694610335,2.0204,0.877,4.5706997000000005,2.0529993,0.25137204,14.202604999999998,-1
1127,1128,1580694610345,1.6669999,0.70159996,4.0752,1.4269347,0.09394847,13.553595000000001,-1
1128,1129,1580694610355,1.0853,0.4463,3.5804,0.9816706000000001,-0.08061756,13.14277,-1
1129,1130,1580694610365,0.80689996,0.2827,3.1843998,0.9138189,-0.027341782999999998,12.842181,-1
1130,1131,1580694610376,0.8739,0.3014,2.9756,1.1075864,0.14345099,12.712502,-1
1131,1132,1580694610385,1.1955999,0.3832,2.8657,1.3869611000000002,0.1786266,12.661352,-1
1132,1133,1580694610395,1.6099,0.2589,2.8839998,1.7233751,0.06114791,12.9059725,-1
1133,1134,1580694610405,1.7448,0.050499998,3.2266,1.5051197,-0.19916886,13.257806,-1
1134,1135,1580694610415,1.3323,-0.369,3.4424,0.8287385,-0.48669332,12.975596000000001,-1
1135,1136,1580694610425,0.5409,-0.74539995,2.8945,0.047826573,-0.6632992,12.338921000000001,-1
1136,1137,1580694610436,-0.22369999,-0.9562,2.2898,-0.6523338000000001,-0.58738387,11.765654,-1
1137,1138,1580694610446,-0.775,-1.1287999,1.8492998999999999,-0.7444722,-0.49460375,11.533281,-1
1138,1139,1580694610456,-0.8366,-1.0018,1.5978999,-0.95297843,-0.35436100000000004,11.064257000000001,-1
1139,1140,1580694610466,-1.1508,-1.1502,1.0486,-1.3046197,-0.63880175,10.469536999999999,-1
1140,1141,1580694610476,-1.4555,-1.6692,0.4412,-1.4718403999999998,-0.86332035,10.098522,-1
1141,1142,1580694610486,-1.5488,-1.9781,0.0106,-1.39151,-0.97533077,9.673561,-1
1142,1143,1580694610496,-1.2372999,-1.9674,-0.116299994,-1.116378,-0.7857291000000001,9.605260000000001,-1
1143,1144,1580694610507,-1.061,-1.8238,-0.12619999,-1.2362509,-0.48182829999999993,9.775583000000001,-1
1144,1145,1580694610517,-1.1319,-1.5899999,0.23600000000000002,-1.2540063,-0.20874566,10.382522999999999,-1
1145,1146,1580694610527,-1.0382,-1.3909999,0.8828,-1.1428770000000001,0.11352347,10.786875,-1
1146,1147,1580694610537,-0.83629996,-1.1513,1.0313,-0.71012026,0.40736863,10.447606,-1
1147,1148,1580694610547,-0.3231,-1.0374,0.6239,-0.18451634,0.68524927,9.634794,-1
1148,1149,1580694610557,0.22119999,-0.8412,-0.2311,0.3496588,0.9019724,8.823053999999999,-1
1149,1150,1580694610568,0.72609997,-0.78099996,-0.97569996,0.53641605,0.9984108,8.150696,-1
1150,1151,1580694610578,0.81369996,-0.8192,-1.6007999,0.040107667,0.8534371,7.7836933,-1
1151,1152,1580694610588,0.2488,-1.1384,-1.8521999,-0.79867697,0.6309488,7.647846,-1
1152,1153,1580694610598,-0.5311,-1.4143,-1.9655999,-1.4185836,0.6613264,7.5280119999999995,-1
1153,1154,1580694610608,-1.0727999,-1.4609,-2.0586998,-1.7234707999999999,0.8618167999999999,7.557010000000001,-1
1154,1155,1580694610618,-1.2319,-1.3191998999999999,-1.9646,-1.3525516000000002,1.418009,7.601791400000001,-1
1155,1156,1580694610628,-0.6839,-0.8185,-1.9569,-0.68153346,1.7519523000000001,7.4326077,-1
1156,1157,1580694610638,0.11889999,-0.6295,-2.1425,-0.1778892,1.9567715,7.140496300000001,-1
1157,1158,1580694610648,0.34289998,-0.59749997,-2.5205998,-0.47967353,1.7959578,6.339473,-1
1158,1159,1580694610658,-0.0832,-1.0479,-3.2472,-1.298682,1.3264643999999999,5.5877504,-1
1159,1160,1580694610668,-0.93549997,-1.6293,-3.8827,-2.0461328,1.0624413000000001,5.242095,-1
1160,1161,1580694610678,-1.6310999,-1.9541998999999999,-4.1363997,-2.5700893,1.0177559999999999,4.958181400000001,-1
1161,1162,1580694610690,-2.1255,-2.0851,-4.3835,-2.9476357,1.0570879,4.9278900000000005,-1
1162,1163,1580694610700,-2.0730999,-2.0657,-4.538,-2.6785467,1.2160916000000002,4.6995306,-1
1163,1164,1580694610710,-1.5256,-2.0791,-4.9544,-2.1679976,1.2697601,4.2616596,-1
1164,1165,1580694610720,-1.5256,-2.0791,-4.9544,-1.9408165000000002,1.4912621000000001,4.2045918,-1
1165,1166,1580694610731,-0.6605,-1.8565999,-4.6741,-1.3766851,1.5620346999999999,4.494683,-1
1166,1167,1580694610741,-0.6605,-1.8565999,-4.6741,-0.9206184000000001,1.5749153999999999,4.691351999999999,-1
1167,1168,1580694610751,-0.52849996,-1.9671999,-4.303999999999999,-1.3960303,1.4647341999999999,4.920094000000001,-1
1168,1169,1580694610761,-0.64489996,-2.1433,-3.6543,-1.4422385,1.3066691000000001,5.701293499999999,-1
1169,1170,1580694610773,-0.5877,-2.0424,-2.6562,-1.4250671999999998,1.4051091999999998,6.4965324,-1
1170,1171,1580694610782,-0.7434,-1.9626,-1.6511999,-1.6508691000000002,1.4285818000000001,7.6933169999999995,-1
1171,1172,1580694610792,-1.008,-1.9441998999999999,-0.8243,-1.9769593,1.5023999,8.452126,-1
1172,1173,1580694610803,-1.008,-1.9441998999999999,-0.8243,-2.0987763,1.5951321000000003,8.606330999999999,-1
1173,1174,1580694610813,-1.0641,-1.9334999,-0.70019996,-1.8975868000000002,1.3845379999999998,8.309968,-1
1174,1175,1580694610823,-0.8143,-1.9483,-1.1072,-1.5982636000000001,1.5478129999999999,7.889373299999999,-1
1175,1176,1580694610834,-0.36159998,-1.7468,-1.4139,-1.0690398,1.6754144,7.7543883000000005,-1
1176,1177,1580694610844,0.081599995,-1.7573999,-1.2119,-0.7889086,1.7395599,8.113021,-1
1177,1178,1580694610854,0.0854,-1.4839,-0.78669995,-0.803044,2.047368,8.433891000000001,-1
1178,1179,1580694610864,0.16059999,-1.0766,-0.48029998,-0.7107427,2.4785352,8.751688,-1
1179,1180,1580694610874,0.23349999,-0.9034,-0.3208,-0.7019225,2.5477083,8.823839999999999,-1
1180,1181,1580694610884,0.1086,-0.94159997,-0.4535,-0.9717969000000001,2.5165837000000004,8.487158,-1
1181,1182,1580694610895,-0.2705,-1.0295,-0.9166,-1.2927349,2.3848164,8.107361000000001,-1
1182,1183,1580694610905,-0.36249998,-1.0971,-1.0541999,-1.2091484,2.4741874,8.127357,-1
1183,1184,1580694610915,-0.1169,-0.8653,-0.7992,-0.8149863,2.852538,8.471241000000001,-1
1184,1185,1580694610925,0.11699999999999999,-0.64269996,-0.5639,-0.66464955,3.0052689999999997,8.550738,-1
1185,1186,1580694610935,0.2347,-0.5334,-0.5155,-0.48492159999999995,3.1982607999999995,8.627142,-1
1186,1187,1580694610945,0.4849,-0.35889998,-0.4486,-0.27414566,3.332001,8.660086,-1
1187,1188,1580694610956,0.5532,-0.2375,-0.4511,-0.39663303,3.5143337,8.577419,-1
1188,1189,1580694610966,0.376,-0.0442,-0.5227,-0.5843959,3.7309036,8.502172999999999,-1
1189,1190,1580694610976,0.257,0.15779999,-0.61359996,-0.64781356,3.982247,8.403801,-1
1190,1191,1580694610986,0.24769999,0.39569998,-0.6547,-0.6519315,4.1517663,8.352528,-1
1191,1192,1580694610997,0.2613,0.445,-0.7053,-0.6285354000000001,4.127929,8.3585415,-1
1192,1193,1580694611007,0.27269998,0.39679998,-0.5994,-0.6198588,4.1566024,8.731883999999999,-1
1193,1194,1580694611017,0.28399998,0.42029998,-0.2102,-0.62380445,4.1644745,9.112207000000001,-1
1194,1195,1580694611027,0.28689998,0.4067,0.099599995,-0.6895300999999999,4.166208,9.109228,-1
1195,1196,1580694611037,0.18599999,0.41239998,0.057,-0.8608113000000002,4.1657767,8.85009,-1
1196,1197,1580694611047,0.0288,0.37759998,-0.23959999,-1.0532955,4.1106143,8.450536,-1
1197,1198,1580694611058,-0.1594,0.3021,-0.6339,-1.1862313,4.0156507,8.173153,-1
1198,1199,1580694611068,-0.2742,0.19759999,-0.8425,-1.1680064,4.013209,8.236514,-1
1199,1200,1580694611078,-0.21869999,0.20369999,-0.7194,-1.0170857,4.0676146,8.447701,-1
1200,1201,1580694611088,-0.0708,0.2323,-0.5001,-0.9389006,4.0452337,8.660613,-1
1201,1202,1580694611098,-0.0134,0.1651,-0.21329999,-0.8646803,3.9974837,8.946116,-1
1202,1203,1580694611108,0.06359999599999999,0.14819999,-0.015199998999999999,-0.69670314,3.9640126,9.047229,-1
1203,1204,1580694611119,0.2394,0.092,0.0554,-0.50370175,3.975275,8.978764,-1
1204,1205,1580694611129,0.36839998,0.123399995,-0.030199998999999998,-0.46104664,4.072604,8.955157,-1
1205,1206,1580694611139,0.43109998,0.2144,0.0016,-0.3435871,4.131684,9.149987,-1
1206,1207,1580694611149,0.5498,0.2546,0.2007,-0.18353951,4.1489887,9.285116,-1
1207,1208,1580694611159,0.6756,0.2628,0.3091,-0.21222204,4.149487000000001,9.344139,-1
1208,1209,1580694611169,0.64019996,0.2555,0.3705,-0.33168313,4.088674,9.212027,-1
1209,1210,1580694611180,0.46769997,0.1769,0.17819999,-0.6461184,4.005203,8.827278,-1
1210,1211,1580694611190,0.1996,0.096099995,-0.14039999,-0.9265082,3.8688862,8.610986,-1
1211,1212,1580694611200,-0.0753,-0.0622,-0.35119998,-1.1362402,3.7355292,8.645021,-1
1212,1213,1580694611210,-0.2909,-0.1988,-0.3178,-1.2726332,3.6589437000000005,8.80349,-1
1213,1214,1580694611221,-0.41889998,-0.27399999999999997,-0.14829999,-1.2590436,3.703983,9.186715,-1
1214,1215,1580694611231,-0.1998,-0.049399998,0.45399999999999996,-1.0389208,3.9028263,9.40068,-1
1215,1216,1580694611241,0.1349,0.1996,0.25079998,-0.6361394,4.2059994000000005,9.104421,-1
1216,1217,1580694611251,0.49499997,0.38979998,-0.1087,-0.34801158,4.350446,8.839249,d
1217,1218,1580694611261,0.8091,0.514,-0.20439999,-0.0018962076999999998,4.4824343,8.725199,-1
1218,1219,1580694611272,0.87839997,0.5225,-0.20279999,0.0032369606,4.4860826,8.766552,-1
1219,1220,1580694611282,0.6232,0.4635,0.0335,-0.33401987,4.3932357,9.054162,-1
1220,1221,1580694611292,0.1696,0.2574,0.3579,-0.83011764,4.182364,9.30857,-1
1221,1222,1580694611302,-0.3452,0.028199999,0.4188,-1.3166481,3.9590998,9.354319,-1
1222,1223,1580694611312,-0.73569995,-0.1952,0.3538,-1.707152,3.7425108,9.231572,-1
1223,1224,1580694611323,-0.8152,-0.3033,0.24049999,-1.6753186999999998,3.6861992,9.162955,-1
1224,1225,1580694611333,-0.5929,-0.26479998,0.24489999,-1.4160458,3.7713847,9.157419,-1
1225,1226,1580694611343,-0.2597,-0.0867,0.1112,-0.9952409,4.009493,8.997161,-1
1226,1227,1580694611353,0.1479,0.0655,0.0942,-0.60294616,4.1267705,9.04831,-1
1227,1228,1580694611363,0.4987,0.1809,0.18429999,-0.31668586,4.258212599999999,9.114208999999999,-1
1228,1229,1580694611374,0.6612,0.3337,0.118099995,-0.23251529,4.3781805,8.929462,-1
1229,1230,1580694611383,0.6444,0.3258,-0.1428,-0.28205612,4.343628,8.731136,-1
1230,1231,1580694611393,0.4782,0.2374,-0.26569998,-0.57186943,4.208968,8.627811999999999,-1
1231,1232,1580694611403,0.0857,0.051099997,-0.25149998,-1.0089261999999999,4.0190410000000005,8.701448,-1
1232,1233,1580694611413,-0.39519998,-0.1643,-0.1688,-1.4939915000000001,3.8170087,8.726837,-1
1233,1234,1580694611424,-0.8262,-0.3311,-0.2426,-1.9138960999999999,3.6823205999999997,8.5546255,-1
1234,1235,1580694611434,-1.2156,-0.5082,-0.5318,-2.2621757999999996,3.5047187999999996,8.219696,-1
1235,1236,1580694611444,-1.4653,-0.6462,-0.7618,-2.4228077,3.4247620000000003,8.095773,-1
1236,1237,1580694611454,-1.4714999,-0.6274,-0.82519996,-2.3700202,3.5130985,7.9681334,-1
1237,1238,1580694611464,-1.4123,-0.46409997,-1.0446,-2.2038912999999996,3.7816894,7.745290799999999,-1
1238,1239,1580694611474,-1.1582999,-0.2944,-1.1840998999999999,-2.0015624,3.8257809999999997,7.5472803,-1
1239,1240,1580694611485,-1.1764,-0.43339998,-1.7133,-2.3550422,3.5708082,6.754713499999999,-1
1240,1241,1580694611495,-2.0182,-0.9069,-2.7266998,-3.396836,3.0118291,5.641371299999999,-1
1241,1242,1580694611505,-3.1373,-1.6409,-3.8934,-4.8096642,2.0603926,4.1164565,-1
1242,1243,1580694611515,-4.3561997,-2.5546,-5.2946,-5.9749217,1.0907122,2.7159345,-1
1243,1244,1580694611525,-5.3724,-3.5655,-6.4428997,-6.784621700000001,0.19256085,1.8550273999999998,-1
1244,1245,1580694611536,-6.0429,-4.4007998,-7.2207,-7.077289,-0.50657475,1.0291045,-1
1245,1246,1580694611546,-6.1787996,-5.1363,-8.1092,-6.881606,-1.1332332,0.099435985,-1
1246,1247,1580694611556,-5.9983,-5.6397,-8.9531,-6.730110000000001,-1.446165,-0.6513281999999999,-1
1247,1248,1580694611566,-6.0394998,-5.9108996,-9.5989,-6.7529225,-1.5231912,-1.0463715,-1
1248,1249,1580694611576,-5.9097,-5.8828998,-9.9913,-6.250341400000001,-1.4181241000000002,-1.5274911,-1
1249,1250,1580694611586,-5.558399700000001,-5.6798997,-10.4751,-5.975803,-1.1622221000000001,-1.8781744999999999,-1
1250,1251,1580694611596,-5.4203,-5.4000998,-10.6087,-5.7616844,-1.1442368,-1.4219643,-1
1251,1252,1580694611606,-5.2637,-5.3882,-9.8814,-5.592539,-1.2952919,-0.42962512,-1
1252,1253,1580694611616,-5.1582,-5.4853,-8.9261,-5.231254,-1.5624847,0.37763265,-1
1253,1254,1580694611626,-4.6301,-5.7787,-7.9044,-4.3868093,-2.0841813,1.8000758000000001,-1
1254,1255,1580694611636,-3.9780998,-6.1414,-6.7160997,-3.4279127000000003,-2.5682027,3.015229,-1
1255,1256,1580694611647,-3.2138,-6.3348,-5.6164,-2.6229150000000003,-2.4382167000000003,4.410838,-1
1256,1257,1580694611657,-2.7881,-5.8926997000000005,-4.4893,-1.8366879,-1.9264512999999999,5.436332,-1
1257,1258,1580694611667,-1.9969,-5.1861,-3.6397,-0.5760353,-1.5117947,6.279205999999999,-1
1258,1259,1580694611677,-0.8168,-4.6412997,-2.7317998,0.49808013,-1.4031553999999997,7.8702583,-1
1259,1260,1580694611687,0.0431,-4.3986998,-1.1259999,1.43066,-1.5643426,9.260284,-1
1260,1261,1580694611698,0.92569995,-4.3217,0.0641,2.549394,-1.3116586000000001,10.074100999999999,-1
1261,1262,1580694611708,1.9825,-3.8004,0.7827,4.050424,-0.8528338,10.905521,-1
1262,1263,1580694611718,3.4431,-3.0756997999999998,1.6164,5.9836655,-0.07237192,11.866315,-1
1263,1264,1580694611728,5.3001,-2.0904999,2.5916,7.920737299999999,0.7215166000000001,13.333041,-1
1264,1265,1580694611739,7.0604,-1.1383,4.1749,9.495825,1.1625763999999998,15.329097,-1
1265,1266,1580694611749,8.51,-0.5187,6.1289,11.022809,1.4334086000000001,17.19715,-1
1266,1267,1580694611760,10.1002,0.011000000000000001,7.9729996,13.097232,1.9338830000000002,19.574371,-1
1267,1268,1580694611770,13.2933,1.6193,11.763499000000001,14.534842999999999,2.5682504,21.457363,-1
1268,1269,1580694611780,13.2933,1.6193,11.763499000000001,15.432325,3.1510282000000003,22.555841,-1
1269,1270,1580694611790,14.24,2.4422,12.8364,15.534367000000001,3.0209558,22.478642999999998,-1
1270,1271,1580694611800,14.3644,2.4898999,12.743099,15.062985999999999,2.4275577,22.127067999999998,-1
1271,1272,1580694611811,13.8838,2.0708,12.383599,14.995420999999999,2.1910203,22.347123999999997,-1
1272,1273,1580694611821,13.962898999999998,1.9789,12.8814,15.229785000000001,2.2254680000000002,22.618425,-1
1273,1274,1580694611831,13.962898999999998,1.9789,12.8814,15.513901,2.3392977999999998,22.524382,-1
1274,1275,1580694611842,14.2567,2.2737,12.1824,15.659514999999999,2.5102055,21.715899,-1
1275,1276,1580694611852,14.1635,2.2488,11.1763,15.585054999999999,2.4913871,20.895001999999998,-1
1276,1277,1580694611863,14.0222,2.1813,10.0778,15.397341,2.4316852000000004,19.540047,-1
1277,1278,1580694611873,13.6784,1.9253,8.6545,14.775279000000001,2.0745277,17.719362,-1
1278,1279,1580694611883,12.8101,1.3938,7.0176997000000005,13.717713,1.6029181000000001,15.992348000000002,-1
1279,1280,1580694611893,11.5752,0.7798,5.0713,12.405183000000001,1.0483252,13.918376,-1
1280,1281,1580694611903,10.0798,-0.021499999,2.9048998,11.141044,0.5048604999999999,12.159604,-1
1281,1282,1580694611913,8.3664,-0.8836,0.7639,9.437934,-0.21068017,10.051721,-1
1282,1283,1580694611924,6.7441998,-1.6180999,-1.1172,7.656772,-0.7844267,7.8460193,-1
1283,1284,1580694611934,5.4856997000000005,-2.1232998,-2.7208997999999998,6.605813,-1.0502884,6.334703,-1
1284,1285,1580694611944,4.542,-2.5049999,-3.9722998,5.656847,-1.3153552,5.2174153,-1
1285,1286,1580694611954,3.5463998,-2.9417999,-5.0113997,4.695595,-1.6542976000000003,4.104083,-1
1286,1287,1580694611964,2.7164,-3.4415998,-6.2419996,3.9277549,-2.028023,2.8414577999999997,-1
1287,1288,1580694611975,2.1025,-3.8084,-7.3497996,3.3913483999999996,-2.272337,1.9372252,-1
1288,1289,1580694611985,1.6818999,-4.0216,-7.7549996,2.7927597,-2.3792522000000003,1.8994063,-1
1289,1290,1580694611995,1.0839,-4.1612,-7.4860997000000005,2.0562457999999997,-2.521372,2.3529928,-1
1290,1291,1580694612005,0.2782,-4.3413997,-7.0421,1.2330426,-2.7542226000000003,2.6870412999999997,-1
1291,1292,1580694612015,-0.5633,-4.6182,-6.7855,0.38565803,-3.1693006,2.8654094,-1
1292,1293,1580694612025,-1.4527999,-5.1120996,-6.6189,-0.7210186,-3.7507756000000003,3.0193086,-1
1293,1294,1580694612036,-2.7605,-5.6797,-6.6008,-2.3433870999999997,-4.2115730000000005,2.5742457,-1
1294,1295,1580694612045,-4.4568,-6.0801997000000005,-7.3971995999999995,-3.6205117999999996,-4.453224700000001,1.6800305,-1
1295,1296,1580694612055,-5.8496,-6.2348,-8.6251,-5.077221,-4.5109825,0.20370825,-1
1296,1297,1580694612065,-6.9786997,-6.1461997,-9.7744,-6.0860415,-4.4151664,-0.8481412,-1
1297,1298,1580694612075,-7.7994,-6.0894,-10.776999,-6.5076127,-4.602278,-1.6150421999999998,-1
1298,1299,1580694612085,-8.1215,-6.3301997000000005,-11.1821995,-6.7162337,-5.067462,-1.1114362,-1
1299,1300,1580694612095,-8.4728,-6.8514,-9.9593,-7.0586332999999994,-5.745289,0.42355344,-1
1300,1301,1580694612106,-9.3033,-7.7124996,-7.891,-8.31944,-6.825716000000001,2.8064642,-1
1301,1302,1580694612116,-10.7515,-8.2256,-6.0662,-9.957064,-7.316259,4.569334,-1
1302,1303,1580694612126,-12.598599,-8.4978,-4.3018,-11.725545,-7.6679387000000006,6.115653,-1
1303,1304,1580694612136,-14.286098999999998,-8.5397,-2.9812,-12.588751,-7.756074000000001,7.249144599999999,-1
1304,1305,1580694612147,-14.562999999999999,-8.3945,-1.8176999,-12.186717,-7.997706,8.635109,-1
1305,1306,1580694612157,-14.1782,-8.458799,-0.2482,-11.963232000000001,-8.224992,10.728992,-1
1306,1307,1580694612167,-14.1061,-8.3237,1.4864998999999999,-11.619923,-8.1164875,11.961872,-1
1307,1308,1580694612177,-13.8005,-7.9814997000000005,2.5244,-11.19998,-7.992764500000001,12.123395,-1
1308,1309,1580694612187,-13.4648,-7.6003,2.5582,-10.763862,-7.859254400000001,12.210036,-1
1309,1310,1580694612198,-13.059299000000001,-7.2372,2.8404,-10.164699,-7.5773516,13.221642999999998,-1
1310,1311,1580694612208,-12.5313,-6.6724997,4.0478,-9.767137,-7.2674174,14.973041,-1
1311,1312,1580694612218,-12.194699,-6.1398997,5.956,-9.414039,-7.080746,16.944647,-1
1312,1313,1580694612228,-11.8103,-5.7125998,7.9174,-8.519834,-7.0827384,18.553741,-1
1313,1314,1580694612238,-10.8158,-5.4551,9.3892,-7.4590974,-7.0601845,19.172795999999998,-1
1314,1315,1580694612248,-9.6598,-5.1615996,9.9084,-6.0165234000000005,-6.9851217000000005,19.073303,-1
1315,1316,1580694612259,-8.4072,-4.8259,9.8,-4.8989199999999995,-6.932525999999999,18.900805,-1
1316,1317,1580694612269,-7.2251,-4.5434,9.6643,-3.4992502,-6.9902935,19.63549,-1
1317,1318,1580694612279,-5.7697997,-4.3756,10.4451,-2.1818743,-6.7314224000000005,21.12111,-1
1318,1319,1580694612289,-4.0778,-3.8332,12.4474,-0.22229685,-6.5143642,23.935236,-1
1319,1320,1580694612299,-2.4048998,-3.5040998,14.8544,0.6511271,-6.519162000000001,25.096846,-1
1320,1321,1580694612309,-0.9227,-3.2791997999999998,16.6885,2.576707,-6.180153,26.603286999999998,-1
1321,1322,1580694612320,2.1004,-2.7489998,17.0495,4.034383,-6.2287645,26.029741,-1
1322,1323,1580694612330,2.1004,-2.7489998,17.0495,4.825782,-6.489416599999999,24.687206,-1
1323,1324,1580694612340,3.1543,-2.9754,15.3932,5.929001,-6.174971599999999,23.641478,-1
1324,1325,1580694612350,4.2353,-2.5953999,14.654798999999999,6.9091587,-5.851764,23.969607999999997,-1
1325,1326,1580694612361,5.5425997,-2.2231998,15.0856,7.796756299999999,-5.6626606,24.430376000000003,-1
