,Seq,Time,ACCx,ACCy,ACCz,ADGx,ADGy,ADGz,Keydown
0,1,1583238175494,-1.0213,-0.67329997,1.0137,2.2053279999999997,8.427763,2.6248014,-1
1,2,1583238175505,-1.1129999,-0.406,-0.07369999599999999,1.8286433999999998,8.962895,2.127459,-1
2,3,1583238175515,-0.0893,-0.452,-0.103599995,1.7469148999999997,8.94016,2.1145110000000003,-1
3,4,1583238175525,-0.0893,-0.452,-0.103599995,1.7981508999999998,9.061373,2.5325580000000003,-1
4,5,1583238175535,0.3277,-0.1972,0.70159996,2.361583,9.225232,2.8551526000000003,-1
5,6,1583238175545,0.3277,-0.1972,0.70159996,2.6723983,9.310821,2.8255603,-1
6,7,1583238175555,0.5997,0.0468,0.4041,2.6097755,9.383183,2.6164508,-1
7,8,1583238175565,0.5997,0.0468,0.4041,2.5571509999999997,9.356598,2.2393637,-1
8,9,1583238175576,0.11109999599999999,-0.0058999998,-0.52059996,2.2331772,9.235192,1.8127171999999998,-1
9,10,1583238175586,-0.1405,-0.1325,-0.5965,2.0789237000000003,9.098875999999999,1.829419,-1
10,11,1583238175596,-0.1405,-0.1325,-0.5965,2.2254202000000003,9.017099,2.0163105,-1
11,12,1583238175606,0.2445,-0.101399995,-0.2562,2.5733166,9.203561,2.0673165,-1
12,13,1583238175616,0.31059998,0.027199998,-0.3328,2.7355957,9.297232000000001,1.8125352,-1
13,14,1583238175626,0.2253,0.056599997,-0.31919998,2.8336813,9.317350999999999,1.6417615,-1
14,15,1583238175637,0.17600000000000002,0.0642,-0.3463,2.7628896000000003,9.31242,1.5264281000000002,-1
15,16,1583238175647,-0.0967,-0.086899996,-0.3006,2.523613,9.102839999999999,1.5687671,-1
16,17,1583238175657,-0.33949998,-0.3618,-0.105799995,2.2887325,8.885686999999999,1.8236156000000003,-1
17,18,1583238175667,-0.5164,-0.35909998,0.23979999,2.1532013,8.931014,2.178216,-1
18,19,1583238175678,-0.43609998,-0.3049,0.3056,2.1955307,8.855625,2.1127586,-1
19,20,1583238175688,-0.5423,-0.4763,-0.0778,1.9832035,8.81208,1.683957,-1
20,21,1583238175698,-0.76669997,-0.40449998,-0.6563,1.8664143,8.875794,1.1051826,-1
21,22,1583238175708,-0.5374,-0.3144,-1.15,2.5223105,9.009074,0.8567123999999999,-1
22,23,1583238175718,0.1671,-0.1153,-1.0511,3.0836554,9.31649,1.0148158999999999,-1
23,24,1583238175729,0.8868,0.36929998,-0.90889996,3.848957,9.784423,1.0851,-1
24,25,1583238175739,1.4936,0.7169,-0.8646,4.3065752999999996,10.035871499999999,1.0571645,-1
25,26,1583238175750,1.5223999,0.84819996,-0.92579997,4.200464,10.08185,0.7776463,-1
26,27,1583238175760,1.3105999,0.8516,-1.1049,4.150070700000001,10.073661,0.39911345,-1
27,28,1583238175770,1.2652999,0.85969996,-1.4621998999999999,4.2549660000000005,10.168595,0.09475293,-1
28,29,1583238175780,1.4247999,1.1157,-1.6999999,4.6430945,10.636327,0.1702852,-1
29,30,1583238175790,1.9532,1.6797,-1.3737999,5.324475,11.223884,0.72984844,-1
30,31,1583238175801,2.5618,2.2670999,-0.866,6.106344,11.93184,1.2727386,-1
31,32,1583238175810,3.2610997999999998,2.9047,-0.48749998,7.094958,12.518935,1.4126268999999998,-1
32,33,1583238175820,4.611399700000001,3.7477998999999995,-0.48729998,8.700538,13.327974,1.2439984,-1
33,34,1583238175830,6.1173997,4.4613,-0.6885,9.889557,13.977205999999999,0.9687036,-1
34,35,1583238175840,6.9677,5.131,-0.9041,10.312516,14.545513,0.9328959000000001,-1
35,36,1583238175850,7.0936,5.5594997,-0.764,10.109096000000001,14.733841,1.4121575000000002,-1
36,37,1583238175861,6.6561,5.5804996,-0.012499999,9.455756,14.425946,2.54699,-1
37,38,1583238175871,5.9955997000000005,5.1363997,1.2114999,8.776349,13.9348,3.8042428,-1
38,39,1583238175881,5.3039,4.6305,2.362,7.737399000000001,13.453335000000001,5.333534200000001,-1
39,40,1583238175892,4.4786997,4.2799997,3.6766,6.952694999999999,13.12488,6.911208,-1
40,41,1583238175902,3.8586998,3.9685,5.187999700000001,6.65296,12.849508,8.285652,-1
41,42,1583238175912,3.6281998,3.6272,6.441,6.117826999999999,12.388491,9.572535499999999,-1
42,43,1583238175923,3.1532,3.1360997999999998,7.6762,5.822286599999999,11.633924,11.271059,-1
43,44,1583238175933,2.9940999,2.2396,9.4555,5.070517,10.259738,13.663344,-1
44,45,1583238175943,2.1239998,0.78059995,11.9239,3.1577415,8.63805,16.39806,-1
45,46,1583238175953,0.1724,-0.8878,14.5526,0.42375454,6.747416,19.396079999999998,-1
46,47,1583238175963,-1.9659,-2.4707,16.9937,-0.98621,5.9183517,20.82488,-1
47,48,1583238175973,-3.4701998,-3.4857,18.617199,-1.9070200000000002,5.3410234,21.299614000000002,-1
48,49,1583238175983,-4.1405,-3.9926998999999994,18.7732,-2.3677888,5.139652,20.094504999999998,-1
49,50,1583238175993,-4.3689,-4.1589,17.6582,-2.4426699,4.928857,18.511421,-1
50,51,1583238176003,-4.3381,-4.454799700000001,15.6992,-2.4504368,4.5927205,16.23943,-1
51,52,1583238176014,-4.2321,-4.7711997,13.8796,-2.185772,4.3190726999999995,14.985663,-1
52,53,1583238176024,-3.7989,-5.1826,12.474899,-2.198672,3.7301089999999997,13.733217999999999,-1
53,54,1583238176034,-3.7566998,-5.7296,11.614699,-2.8055446,2.9997432,13.067007,-1
54,55,1583238176044,-4.2469,-6.5004,11.068999,-3.3309762000000003,2.3022451,12.500846000000001,-1
55,56,1583238176055,-5.638999999999999,-8.2968,9.413,-4.672802,1.165756,10.961986999999999,-1
56,57,1583238176065,-6.7732,-8.828899,8.3672,-5.9617059999999995,0.7191416,9.810960000000001,-1
57,58,1583238176075,-6.7732,-8.828899,8.3672,-6.7732735,0.43832088,8.558869,-1
58,59,1583238176085,-7.6675997,-9.7983,6.0242996,-6.816733,-0.3089861,7.3036466,-1
59,60,1583238176096,-7.3387,-10.3848,4.7808,-6.539072,-0.79574645,5.9713883,-1
60,61,1583238176105,-7.3387,-10.3848,4.7808,-6.118909400000001,-1.010832,4.917863,-1
61,62,1583238176115,-5.9066,-10.9157,2.5743,-5.1104617,-1.2714839,3.6989074,-1
62,63,1583238176125,-5.9066,-10.9157,2.5743,-4.810775,-1.3416723999999998,3.1895267999999994,-1
63,64,1583238176135,-5.6159,-11.2261,1.3117,-5.0798354,-1.6289191,2.1509125,-1
64,65,1583238176146,-5.6933,-11.530499,0.55939996,-5.0149717,-1.8478544999999997,1.3133538,-1
65,66,1583238176156,-5.5007997,-11.6261,-0.0977,-4.7489085,-1.8719976000000003,0.66166157,-1
66,67,1583238176166,-4.8171,-11.492599499999999,-0.8368,-3.8744216000000002,-1.6970581000000002,-0.27518955,-1
67,68,1583238176176,-4.8171,-11.492599499999999,-0.8368,-2.7658584,-1.4702601,-1.2677969,-1
68,69,1583238176186,-2.1608999,-10.8708,-3.3184,-0.6327779,-1.027103,-3.3980330000000003,-1
69,70,1583238176197,-0.8909999999999999,-10.6658,-4.8759,0.68012565,-0.9115109,-5.0471973,-1
70,71,1583238176208,-0.0255,-10.5148,-6.2005,1.3902172,-0.6898557,-6.1485114,-1
71,72,1583238176218,-0.040799998,-10.084,-6.6247997000000005,1.3160256000000001,-0.15165831,-6.355188,-1
72,73,1583238176228,-0.2137,-9.4611,-6.4484,1.562753,0.48227840000000005,-6.2297416,-1
73,74,1583238176238,0.2917,-8.7918,-6.404,2.5325767999999997,1.0550673000000002,-6.3960233,-1
74,75,1583238176248,1.3158,-8.309999000000001,-6.7734,4.202006,1.5627433000000002,-7.145045,-1
75,76,1583238176258,2.6752,-7.8873997000000005,-7.5676,5.2694654000000005,1.723873,-7.764242599999999,-1
76,77,1583238176269,4.4933,-7.5147,-8.8187,8.331449000000001,2.4359182999999995,-9.32441,-1
77,78,1583238176279,6.5705,-6.496299700000001,-9.5391,10.384323,3.9588413,-9.827967999999998,-1
78,79,1583238176290,7.8566,-4.7854,-10.1331,10.896328,4.841258,-10.234399,-1
79,80,1583238176300,7.5323,-3.7795,-10.5847,10.284628999999999,5.643621400000001,-10.379151,-1
80,81,1583238176311,6.6468,-3.5679,-10.3011,10.014553,5.5140095,-9.999738,-1
81,82,1583238176321,6.5011997,-3.6957,-10.132,10.596688,5.073486,-9.962925,-1
82,83,1583238176331,7.0264997000000005,-3.9919,-10.1249,12.233317,5.576450299999999,-9.724663,-1
83,84,1583238176341,8.6543,-3.1076999,-9.8984995,14.851875,7.206595399999999,-9.343458,-1
84,85,1583238176351,11.1299,-1.2659999,-9.6543,17.155929999999998,8.662403,-9.082816000000001,-1
85,86,1583238176361,12.931,0.15429999,-9.4671,18.194899,9.504932,-8.121792999999998,-1
86,87,1583238176372,13.5863,1.0764999,-8.5039,18.416094,10.211835,-6.8705735,-1
87,88,1583238176382,13.4857,1.8671,-7.5838,18.303259,10.740322,-6.627428,-1
88,89,1583238176392,13.2451,2.4826999,-7.7235,18.32093,11.11262,-6.961563000000001,-1
89,90,1583238176402,13.1529,2.98,-8.1592,18.781641,11.804199,-7.0593705,-1
90,91,1583238176412,13.5859995,3.8009998999999994,-8.3239,19.507505,12.420726,-6.9971504,-1
91,92,1583238176423,14.1705,4.476,-8.252399,19.633116,12.885403,-6.3139987,-1
92,93,1583238176433,13.9795,4.9947,-7.5179996,18.887188000000002,13.309951000000002,-4.6176777,-1
93,94,1583238176443,13.2718,5.3959,-6.127000000000001,18.351995000000002,13.417844,-2.8661467999999997,-1
94,95,1583238176453,12.692599000000001,5.5727,-4.4895997,18.038979,13.388644000000001,-0.7366096999999999,-1
95,96,1583238176463,12.3368,5.5945,-2.4896,18.28194,13.808376,1.3004153999999999,-1
96,97,1583238176473,12.5639,6.0506,-0.6109,19.128225,14.374432999999998,3.4101381,-1
97,98,1583238176484,13.412398999999999,6.645,1.3814,19.816423,14.765645999999998,4.895003,-1
98,99,1583238176494,14.1112995,7.0565,2.7661998,19.758474,14.3396015,6.3423266,-1
99,100,1583238176504,14.0884,6.6305,4.1289997000000005,18.561901000000002,13.118711,8.110396000000001,-1
100,101,1583238176514,12.955899,5.374399700000001,5.8375998,16.422826999999998,11.749189999999999,10.407316999999999,-1
101,102,1583238176525,8.748,3.0388,10.2919,13.406276,10.681453,13.3043585,-1
102,103,1583238176535,6.6709,2.4264997999999998,12.312999999999999,11.513295,10.24047,15.239419,-1
103,104,1583238176545,5.6709,2.0283,13.7632,10.536097,9.960367,16.514015,-1
104,105,1583238176555,4.9231997000000005,1.7936,14.406699,9.71296,9.837603,16.958897,-1
105,106,1583238176566,4.204,1.3844999,14.363199,8.908814999999999,9.436487,16.80675,-1
106,107,1583238176576,4.204,1.3844999,14.363199,7.878389,8.781013,15.840670999999999,-1
107,108,1583238176586,2.3258997999999997,-0.10969999400000001,12.0886,6.2717648,7.9439706999999995,13.923653,-1
108,109,1583238176596,1.3283,-1.0175999,10.5209,5.3192554,7.151078,12.332446000000001,-1
109,110,1583238176606,0.6466,-1.8579999,9.213699,4.5239400000000005,6.579447999999999,11.424661,-1
110,111,1583238176616,-0.3566,-2.7356,8.6882,3.2902079,5.7972529999999995,10.964228,-1
111,112,1583238176627,-1.2623999,-3.6473,8.595699,2.000844,4.9105844,10.852007,-1
112,113,1583238176637,-2.1634998,-4.3644,8.5696,0.7667765999999999,4.296548400000001,10.865683,-1
113,114,1583238176647,-3.2577999,-5.0929,8.612599000000001,-0.5590269,3.713627,10.730217999999999,-1
114,115,1583238176657,-4.1482,-5.6775,8.1388,-1.5076576000000002,3.227585,9.988418,-1
115,116,1583238176668,-4.6735,-6.1980996,7.1415997,-2.210193,2.8213942000000003,8.807339,-1
116,117,1583238176678,-5.2559,-6.6157,5.874399700000001,-3.1002709999999998,2.5005903,7.355869,-1
117,118,1583238176688,-5.9609,-7.0066,4.450599700000001,-3.9414114999999996,2.1859925,5.9655843,-1
118,119,1583238176698,-6.4462,-7.2999997,3.2105,-4.544788400000001,1.9454613,4.797559,-1
119,120,1583238176708,-6.7545,-7.652,2.3669999,-4.9269223,1.7636265,4.1399193,-1
120,121,1583238176718,-6.9186997,-7.7105,1.9037,-5.2913775,1.7559363000000001,3.7156765,-1
121,122,1583238176728,-7.1257,-7.8015,1.5927,-5.763637999999999,1.5423161,3.3989620000000005,-1
122,123,1583238176739,-7.4150996,-8.0838995,1.3426,-6.325864,1.3358305,2.989649,-1
123,124,1583238176749,-7.836,-8.304299,0.8731,-6.7955966,1.1147977,2.4251442,-1
124,125,1583238176759,-8.1073,-8.4539995,0.31669998,-7.0253252999999996,1.1149989,1.8919077000000002,-1
125,126,1583238176769,-8.1431,-8.4451,-0.0907,-7.129521,1.0909708,1.5083375,-1
126,127,1583238176779,-8.160399,-8.5757,-0.4692,-7.2634815999999995,0.93663085,1.0203896000000001,-1
127,128,1583238176790,-8.4942,-8.910999,-1.2803,-7.9838963000000005,0.44675803,-0.14996321,-1
128,129,1583238176800,-9.07,-9.3526,-2.198,-8.46469,0.04260721,-0.8845714,-1
129,130,1583238176810,-9.3776,-9.708799,-2.7515,-8.4681,-0.43180865,-1.154532,-1
130,131,1583238176820,-9.2175,-10.1367,-2.8608,-8.268797,-0.8090678000000001,-0.95050764,-1
131,132,1583238176830,-8.9552,-10.5491,-2.6262,-8.069828999999999,-1.1060063,-0.7586938,-1
132,133,1583238176841,-8.8553,-10.819799,-2.5582,-7.9730077,-1.3563918,-0.7043550000000001,-1
133,134,1583238176850,-8.7109995,-11.0973,-2.5804,-7.6263559999999995,-1.6601682,-0.58116853,-1
134,135,1583238176860,-8.4063,-11.274099,-2.4033,-7.166449000000001,-1.8248031000000002,-0.18847156,-1
135,136,1583238176871,-8.0089,-11.457399,-2.0177,-6.671787700000001,-2.1177669999999997,0.31072906,-1
136,137,1583238176881,-7.750099700000001,-11.774099,-1.6709,-6.597251400000001,-2.5527265,0.49639463,-1
137,138,1583238176891,-7.9874997,-12.1047,-1.6737,-7.044795,-2.977908,0.39051345,-1
138,139,1583238176902,-8.5725,-12.4963,-1.8656,-7.199441,-3.3364925000000003,0.08822154,-1
139,140,1583238176912,-8.833,-12.7794,-2.3283,-7.060999000000001,-3.6756647000000005,-0.5869338000000001,-1
140,141,1583238176922,-8.8519,-13.059299000000001,-3.1009998,-6.740904,-4.0466223,-0.6784785,-1
141,142,1583238176932,-8.6919,-13.3617,-3.0974,-5.9275355,-4.414984,0.05917509,-1
142,143,1583238176942,-8.014,-13.6335,-2.464,-3.8309717000000005,-4.880216000000001,0.8772068000000001,-1
143,144,1583238176953,-6.4358997,-13.8925,-1.9682,-1.8710016,-4.9975895999999995,1.3456275,-1
144,145,1583238176963,-4.3244,-13.852098999999999,-1.5202999,0.50531065,-5.0765696,2.2635932,-1
145,146,1583238176973,-2.7533,-13.765599,-0.91209996,2.026797,-4.981175,3.1143104999999998,-1
146,147,1583238176984,-1.5445,-13.464998999999999,-0.2574,3.5559163000000003,-4.372425,4.347334,-1
147,148,1583238176994,-0.3337,-12.6241,0.74899995,5.8749685,-3.5175707000000003,5.885896,-1
148,149,1583238177004,1.6596999,-11.5049,2.0551,8.142574,-2.3143887999999997,7.414345,-1
149,150,1583238177014,5.2637,-8.5837,4.6131,10.430186,-1.0796413,9.190096,-1
150,151,1583238177025,6.2528996,-7.8128996,5.3181996,11.509089999999999,-0.7673416999999999,9.9808235,-1
151,152,1583238177035,6.686,-7.3921,5.2016,12.268799000000001,-0.7122845999999999,9.921016999999999,-1
152,153,1583238177045,7.7455997000000005,-6.5860996,4.462,13.760425,-0.11492168,9.406589,-1
153,154,1583238177055,9.959499000000001,-4.8855,4.1875,16.43946,1.3294139999999999,9.550068,-1
154,155,1583238177065,13.1376,-2.8025,5.0231,19.857807,3.0047135,10.778332,-1
155,156,1583238177076,15.843698999999999,-0.74719995,6.3462996,22.448792,4.5374336,12.372075,-1
156,157,1583238177086,16.7603,0.49289998,7.6895,23.029022,5.128284,13.889501999999998,-1
157,158,1583238177096,15.2906,0.92289996,8.4871,20.560917,4.8877726,14.900601000000002,-1
158,159,1583238177106,12.212999,0.7529,8.6294,18.026003,4.484598,15.044148000000002,-1
159,160,1583238177116,10.1797,1.2441,8.54,16.778086,5.031271,15.1949835,-1
160,161,1583238177127,11.352099,2.59,8.4435,18.19622,5.9322762,15.147472,-1
161,162,1583238177137,13.096499,4.0572,8.0065,19.90277,7.216353999999999,14.640084,-1
162,163,1583238177147,13.7262,4.9779,7.2499,20.130342000000002,7.451828,14.071335999999999,-1
163,164,1583238177157,13.438398999999999,4.8578997,6.8075,19.425048999999998,6.826721000000001,13.887701000000002,-1
164,165,1583238177167,12.2675,4.3459,6.6601996,18.016598000000002,6.056765,13.848072,-1
165,166,1583238177177,10.772699000000001,3.7387998,6.5783,16.447342000000003,5.2500153,13.911126000000001,-1
166,167,1583238177187,9.1502,3.0807,6.4997997000000005,15.04592,4.626402400000001,13.839023000000001,-1
167,168,1583238177197,7.5843997000000005,2.8142998,6.0224,13.310584,4.30239,13.267220000000002,-1
168,169,1583238177207,6.7681,3.0616,5.2648997,12.796386,4.55676,12.42221,-1
169,170,1583238177217,6.704799700000001,3.4914,4.1131,12.7438,4.776375,11.328874,-1
170,171,1583238177228,6.6152,3.6227998999999995,3.2758,12.455021,4.6909018,10.839413,-1
171,172,1583238177237,6.1610000000000005,3.5149,3.05,11.833419000000001,4.4195623,10.816092999999999,-1
172,173,1583238177247,5.4874,3.1857,3.1125998,11.093045,3.900011,10.945065,-1
173,174,1583238177257,4.6344,2.6245,3.2173,10.359817,3.3885902999999997,11.00806,-1
174,175,1583238177267,3.8395,2.2833,3.1459,9.603833,3.104207,10.838617999999999,-1
175,176,1583238177277,3.7831998,2.4017,2.7574,9.90329,3.3482241999999998,10.339064,-1
176,177,1583238177288,4.5404,2.9064,2.0856,10.639469,3.773798,9.732075,-1
177,178,1583238177298,5.4603,3.3772,1.2434,11.675353,4.2451973,8.706102,-1
178,179,1583238177308,6.0757,3.6464999,0.3653,12.00763,4.3654246,7.946892,-1
179,180,1583238177318,6.058799700000001,3.6030998,-0.24100000000000002,11.738149,4.215921,7.492999,-1
180,181,1583238177328,5.558399700000001,3.3042,-0.45189998,11.080758,3.8122199999999995,7.417428,-1
181,182,1583238177338,4.6864,2.7986999,-0.4495,10.111317999999999,3.2791178,7.51311,-1
182,183,1583238177349,3.804,2.2846,-0.1542,9.259402,2.7696892999999996,8.036359,-1
183,184,1583238177358,3.1683998,1.902,0.324,8.649513,2.4592762,8.344261999999999,d
184,185,1583238177368,2.2838,1.4339,0.6687,7.823676600000001,2.045577,8.574958,-1
185,186,1583238177378,1.6245999,1.0885,0.6904,7.2585015,1.7690182,8.49977,-1
186,187,1583238177388,1.1177,0.782,0.581,6.831577,1.5079832,8.378144,-1
187,188,1583238177398,0.9109,0.6264,0.4473,6.869434,1.504976,8.331697,-1
188,189,1583238177408,1.1329,0.6741,0.5724,7.202744999999999,1.5854979,8.620600999999999,-1
189,190,1583238177419,1.5260999,0.6872,0.8703,7.49026,1.5552351,8.790963,-1
190,191,1583238177429,1.7915,0.6386,1.0313,7.650173,1.4968646,8.932623,-1
191,192,1583238177439,1.7967,0.5121,1.1288999,7.519957499999999,1.4371723,9.022607,-1
192,193,1583238177450,1.5676,0.4723,1.1657,7.217991400000001,1.4599171,9.017397,-1
193,194,1583238177460,1.3698,0.5011,1.2393,7.2898083,1.6504765,9.163577,-1
194,195,1583238177470,1.5899999,0.7123,1.4146,7.817384700000001,2.0855796000000004,9.310093,-1
195,196,1583238177480,2.0372,1.0188,1.5421,8.130881,2.3141491000000003,9.339302,-1
196,197,1583238177490,2.3976,1.1896,1.5604,8.5233965,2.4529746,9.3663845,-1
197,198,1583238177501,2.8025,1.3012999,1.5299,8.765775999999999,2.6270618,9.179416999999999,-1
198,199,1583238177511,2.9252,1.3925999,1.3342,8.744926,2.791773,9.174332000000001,-1
199,200,1583238177521,3.0225,1.5608,1.4499999,9.057045,3.1155652999999996,9.483222999999999,-1
200,201,1583238177531,3.4819,1.8362999,1.8808,9.5660715,3.4377574999999996,10.264278,-1
201,202,1583238177541,3.8709,2.0219,2.6274998,9.748308,3.7829442,11.233824,-1
202,203,1583238177552,4.0435,2.3392,3.5921,9.806612,4.118956,11.887891999999999,-1
203,204,1583238177562,4.1369,2.6444,4.3054,9.918086,4.4773107,12.462711,-1
204,205,1583238177572,4.2674,2.8049998,4.6619,10.154404,4.705813,12.424413000000001,-1
205,206,1583238177583,4.6024,2.9469,4.5445,10.797553,4.9670973,12.058627,-1
206,207,1583238177593,5.3108,3.0534,4.186899700000001,11.470736,5.2535677000000005,11.910157,-1
207,208,1583238177604,5.8554997,3.1680999,4.1168,11.610873,5.46782,12.210104,-1
208,209,1583238177614,6.0312,3.2238,4.4419,11.66184,5.4061074,12.484766,-1
209,210,1583238177624,6.1102,3.0016,4.7437997,11.17869,5.1830254,12.679501,-1
210,211,1583238177635,5.132000000000001,2.2199,5.0429997,10.487389,4.9389606,12.686272,-1
211,212,1583238177645,4.5190997,1.6606,4.855,9.862952,4.595613,12.386825,-1
212,213,1583238177655,4.1258,1.2063,4.5978,9.529017999999999,4.4069785999999995,12.063722,-1
213,214,1583238177665,4.1258,1.2063,4.5978,9.727795,4.3625419999999995,11.682871,-1
214,215,1583238177675,4.4107,0.5875,3.9729997999999997,9.697398,4.277155400000001,11.281842999999999,-1
215,216,1583238177686,4.0803,0.1673,3.7737,9.161662,4.066561,10.935248,-1
216,217,1583238177696,3.4571998,-0.2927,3.4134998,8.472688,3.8743260000000004,10.41495,-1
217,218,1583238177706,2.7649,-0.77129996,2.9928,7.610458400000001,3.641054,9.810376,-1
218,219,1583238177717,2.0541,-1.2443,2.6074998,6.969799000000001,3.465061,9.344675,-1
219,220,1583238177728,1.5237,-1.7351999,2.2230000000000003,6.406308999999999,3.2454937000000004,8.750950999999999,-1
220,221,1583238177738,1.0993998999999999,-2.1708998999999998,1.8333,5.844352,3.0810504,8.157418,-1
221,222,1583238177748,0.4998,-2.6857998,1.4041,5.1143117,2.7902699,7.664558,-1
222,223,1583238177758,-0.109,-3.0623999,1.1294999,4.516786,2.8065119,7.2036743,-1
223,224,1583238177768,-0.4368,-3.1920998,0.7949,4.158881,2.9201217,6.682169,-1
224,225,1583238177778,-0.7017,-3.3300998,0.45069999,3.702633,3.0100767999999998,6.1379766,-1
225,226,1583238177789,-1.0306,-3.5554997999999998,0.1348,3.0667138,2.8543193,5.587587999999999,-1
226,227,1583238177799,-1.7088,-3.8795,-0.3178,2.4460506,2.8287206,5.043098400000001,-1
227,228,1583238177809,-2.2501,-4.0757,-0.8865,1.7683095000000002,2.8294196,4.232154,-1
228,229,1583238177819,-2.6194,-4.2300997,-1.3853999,1.2854564,2.937446,3.4240437000000004,-1
229,230,1583238177830,-3.1424,-4.2612,-2.1422,0.46128604,3.1376779999999997,2.4573702999999996,-1
230,231,1583238177840,-3.8789999999999996,-4.289,-2.8292,-0.28576234,3.1922848,1.6984658,-1
231,232,1583238177850,-4.4582,-4.4316998,-3.4554,-0.87523395,2.9985366,0.781659,-1
232,233,1583238177860,-4.785,-4.7205,-4.0773997,-0.71037877,3.0946016,0.17469053,-1
233,234,1583238177870,-4.3044,-4.6342,-4.5368,0.39076245,3.3700782999999994,-0.13046484,-1
234,235,1583238177881,-3.1545,-4.4667,-4.6601,0.98087573,3.5147072999999995,-0.09837296599999999,-1
235,236,1583238177891,-2.6510000000000002,-4.3803,-4.4969997,0.95814997,3.6048443,0.38575378,-1
236,237,1583238177902,-2.7495,-4.388999999999999,-3.9276998,0.30935958,3.4243212,1.255414,-1
237,238,1583238177912,-3.4004998,-4.6535997,-2.9566,-0.80655867,2.980714,2.5928535,-1
238,239,1583238177922,-4.2559,-5.0702,-1.8464999,-1.4905246,2.6225126,3.1314912,-1
239,240,1583238177932,-5.0081997000000005,-5.5333,-1.2164999,-2.1563618,2.374282,3.3910324999999997,-1
240,241,1583238177943,-5.5543,-5.7486,-1.0143,-2.3437414,2.4321639999999998,3.4019209999999998,-1
241,242,1583238177953,-5.6046,-5.7044997,-1.0146998999999999,-1.7139324,2.6782115,3.145435,-1
242,243,1583238177963,-4.9379,-5.477999700000001,-1.2567999,-0.9448764999999999,2.9954913,2.9313264,-1
243,244,1583238177973,-3.9538998999999997,-5.0587,-1.5085,0.20960757,3.732685,2.8020873,-1
244,245,1583238177983,-3.0268,-4.446399700000001,-1.5805,0.92161447,4.0385585,3.1490072999999996,-1
245,246,1583238177993,-2.3063,-4.1317,-1.2422999,0.85841703,4.162368,3.6797633000000003,-1
246,247,1583238178004,-2.3655,-4.0083,-0.7206,0.50139374,4.2723765,4.2897773,-1
247,248,1583238178013,-2.7027,-3.8818998,-0.1501,0.15803647,4.239231,4.673261,-1
248,249,1583238178023,-3.1183,-3.9011998,0.2809,-0.2736381,4.4300489999999995,4.8658123,-1
249,250,1583238178034,-3.4814,-3.6171,0.39399999999999996,0.05719269,5.0863857,4.7873980000000005,-1
250,251,1583238178045,-2.2435,-2.4180999,0.0327,1.1601344,5.8244224,4.506989,-1
251,252,1583238178055,-1.2732999,-1.7646998999999999,-0.1677,2.1399470000000003,6.4380083,4.364734599999999,-1
252,253,1583238178065,-0.3612,-1.2846999,-0.089899994,3.0010168999999998,6.845827000000001,4.498456,-1
253,254,1583238178076,-0.1398,-1.0983,0.1204,3.020391,7.017845599999999,4.787857499999999,-1
254,255,1583238178086,-0.5762,-0.9237,0.2891,2.5380356,7.1208344,4.8996763,-1
255,256,1583238178096,-0.9777,-0.87829995,0.3687,2.2374772999999997,7.161162400000001,5.0716662,-1
256,257,1583238178106,-0.9589,-0.71529996,0.8222,2.3241377,7.332463000000001,5.599971,-1
257,258,1583238178116,-0.6809,-0.42569998,1.3306,2.6825786,7.623157000000001,6.063651,-1
258,259,1583238178127,-0.1633,-0.1893,1.4282,3.3036727999999997,7.871550599999999,5.998261,-1
259,260,1583238178137,0.2059,0.0112,1.0081,3.5286129,8.107878,5.3916078,-1
260,261,1583238178147,0.147,0.2355,0.23269999,3.3895671000000003,8.261211999999999,4.756387999999999,-1
261,262,1583238178157,-0.043899997999999996,0.3398,-0.4051,3.2432623,8.353408,4.094334,-1
262,263,1583238178167,-0.015299999,0.35819998,-0.7065,3.3245214999999995,8.339426,3.9686,-1
263,264,1583238178178,0.1244,0.3629,-0.4711,3.5209322,8.365446,4.454403,-1
264,265,1583238178188,0.2962,0.40919998,0.1604,3.5605322999999998,8.328182,5.21279,-1
265,266,1583238178198,0.2065,0.3012,0.7069,3.3669946000000004,8.161736999999999,5.630032,-1
266,267,1583238178208,0.0,0.1617,0.9525,3.1211197,8.095428,5.653496,-1
267,268,1583238178218,-0.23799999,0.13599999,0.8139,2.9832232000000003,8.109046000000001,5.430346,-1
268,269,1583238178228,-0.2942,0.24409999,0.4391,3.0622892000000004,8.291628,5.005987999999999,-1
269,270,1583238178238,-0.0513,0.40919998,-0.0468,3.2931383000000003,8.393516,4.522666,-1
270,271,1583238178248,0.0914,0.4369,-0.39409998,3.357954,8.355094,4.277787,-1
271,272,1583238178258,0.0298,0.3092,-0.5585,3.300139,8.217733,4.092189,-1
272,273,1583238178268,0.0296,0.23179999,-0.81509995,3.3024948,8.198532,3.8024712,-1
273,274,1583238178279,-0.0084999995,0.22469999,-1.0459,3.2246735,8.156450999999999,3.6794379,-1
274,275,1583238178289,-0.0866,0.19039999,-1.0349,3.1811852000000003,8.159315,3.8667792999999997,-1
275,276,1583238178299,-0.059699997000000005,0.28599998,-0.79039997,3.2757084,8.285212,4.0806293,-1
276,277,1583238178309,0.051,0.3436,-0.6529,3.4705007000000005,8.266422,4.142697,-1
277,278,1583238178320,0.2848,0.34199998,-0.64879996,3.7550275,8.265139,4.0921693,-1
278,279,1583238178330,0.5642,0.36859998,-0.74829996,4.098882700000001,8.336112,3.9189827000000004,d
279,280,1583238178340,0.96999997,0.46199998,-1.0203999,4.531036,8.418703,3.4040663,-1
280,281,1583238178350,1.2907,0.5247,-1.6358,4.6998177000000005,8.42079,2.6971064,-1
281,282,1583238178360,1.3628,0.5488,-2.1488,4.7358456,8.567833,2.4803642999999997,-1
282,283,1583238178370,1.3901,0.7328,-2.3263,4.7953176,8.684756,2.5243506,-1
283,284,1583238178380,1.5052999,0.86079997,-2.2433999,5.016724,8.833772,2.5187001,-1
284,285,1583238178391,1.6967,0.9705,-2.3377,5.15011,8.8682,2.298338,-1
285,286,1583238178401,1.7982,0.9914,-2.6162,5.174951999999999,8.831827,1.8809233,-1
286,287,1583238178412,1.8104,0.97239995,-3.03,5.3134995,8.89874,1.6356995,-1
287,288,1583238178422,1.9777999,1.1015999,-3.2482998,5.7259636,9.153761,1.5257863999999999,-1
288,289,1583238178432,2.4657,1.3902999,-3.3507998,6.3904595,9.470025,1.4889923,-1
289,290,1583238178442,3.0981998,1.7206,-3.4160000000000004,6.7632747,9.737314,1.4952364,-1
290,291,1583238178452,3.398,1.9922999,-3.3839,7.11143,9.900752,1.7156179,-1
291,292,1583238178463,3.7566,2.1555,-3.1643999,7.402527,9.999374000000001,1.7710101999999999,-1
292,293,1583238178473,3.9970999,2.2487,-3.2166997999999998,7.618733,10.00783,1.3208141000000002,-1
293,294,1583238178483,4.161299700000001,2.263,-3.6325998,8.100916,10.244864999999999,1.0673926,-1
294,295,1583238178493,4.632,2.5074,-3.9004,8.641813,10.553497,0.95853305,-1
295,296,1583238178503,5.3208,2.9461,-4.0642,9.575045,11.216422999999999,1.0229753000000001,-1
296,297,1583238178514,6.0916,3.5507,-4.0379,10.297921,11.835362,1.6498731,-1
297,298,1583238178524,6.8188,4.2125,-3.4773,10.7424965,12.272975,2.9319394,-1
298,299,1583238178534,7.2702,4.6947,-2.2740998,10.928276,12.348919,3.9111488,-1
299,300,1583238178544,7.489,4.7503,-0.6723,10.353983,11.951222,6.732773,-1
300,301,1583238178554,6.2026,4.0969,3.8655998999999994,9.47672,11.359615,9.8748665,-1
301,302,1583238178565,5.7440996,3.4429,6.1165,8.936558999999999,10.690638,12.107871000000001,-1
302,303,1583238178575,5.3855,2.9368,7.6478996,8.609147,10.164784,13.538847,-1
303,304,1583238178585,5.3138,2.3811,8.646299,8.410897,9.611772,14.531951999999999,-1
304,305,1583238178595,5.3138,2.3811,8.646299,7.8198365999999995,8.939307000000001,15.205719,-1
305,306,1583238178605,4.0855,0.88259995,10.0376,6.8734470000000005,8.099288,15.984237,-1
306,307,1583238178615,3.0363998,0.0145,11.2034,5.6781845,7.2246757,17.244370999999997,-1
307,308,1583238178626,1.7569,-1.2045,12.629499000000001,4.1935400000000005,6.023236799999999,18.688862,-1
308,309,1583238178636,0.1936,-2.3167999,14.0287,2.5189877,5.0224032,20.035006,-1
309,310,1583238178646,-1.1771,-3.1290998,14.927098999999998,1.050116,4.28383,20.69342,-1
310,311,1583238178656,-2.1121,-4.075999700000001,14.497399,0.12904747,3.4012794,19.959808,-1
311,312,1583238178666,-2.3192,-4.9988,13.5048,-0.23269725,2.6159048,18.94303,-1
312,313,1583238178676,-2.3192,-4.9988,13.5048,-0.8632245999999999,2.1263766,18.420616,-1
313,314,1583238178687,-3.9852,-5.9241,12.184299000000001,-2.5727324,2.1044269,17.222105,-1
314,315,1583238178697,-4.62,-6.0771,11.437799,-2.9379632,1.8788831999999998,16.457302,-1
315,316,1583238178707,-4.5127997,-6.476,10.948899,-2.9568486000000003,1.7278379000000001,15.812295,-1
316,317,1583238178717,-4.4771,-6.6510997000000005,10.1214,-3.1721928,1.5222334,14.643531,-1
317,318,1583238178727,-4.7633,-7.2595,9.1024,-3.8236167,0.8818707,13.511543,-1
318,319,1583238178738,-5.436,-8.0706,8.1388,-4.7079487,0.2646455,12.360717999999999,-1
319,320,1583238178748,-6.2414,-8.649,7.1161,-5.6526819999999995,-0.06649177,11.125865,-1
320,321,1583238178758,-6.7475996,-8.8176,5.9763,-6.042917,-0.09762597,9.867099000000001,-1
321,322,1583238178768,-6.6808,-8.9803,5.0766,-5.9905610000000005,-0.18695842,8.963173,-1
322,323,1583238178779,-6.3020997,-9.1973,4.4687,-5.667602,-0.37905959999999994,8.187672000000001,-1
323,324,1583238178789,-5.9066,-9.5984,3.8913998999999997,-5.4638653,-0.80850273,7.2703953,-1
324,325,1583238178799,-5.8269,-10.017999999999999,3.3379,-5.5527377,-1.0827346000000002,6.454423,-1
325,326,1583238178809,-5.8174996,-10.3682995,2.7024,-5.5145550000000005,-1.2844508999999997,5.7991204000000005,-1
326,327,1583238178819,-5.7433996,-10.6586,2.1617,-5.5210676,-1.44039,4.772381299999999,-1
327,328,1583238178830,-5.7977,-10.8277,1.4068999,-5.6396375,-1.6034831,3.7455466,-1
328,329,1583238178840,-5.9386997,-11.1668,0.7345,-5.7861724,-1.9928473000000002,3.0220860000000003,-1
329,330,1583238178850,-6.0715,-11.5758,0.3137,-5.808831700000001,-2.1614182,2.363527,-1
330,331,1583238178860,-6.0754,-11.7507,-0.22839999,-5.5659633,-2.2801707,1.3102412,-1
331,332,1583238178870,-5.7032,-11.9372,-1.1228,-4.8321404,-2.4339359,0.09221507599999999,-1
332,333,1583238178881,-4.9603,-12.0758,-2.102,-3.4539042,-2.4656734,-1.4811872,-1
333,334,1583238178891,-3.8558,-12.134999,-3.2062,-2.150702,-2.5264094,-2.608387,-1
334,335,1583238178901,-2.3456,-12.1911,-4.3514,-0.20883185,-2.372175,-3.9711475,-1
335,336,1583238178911,-1.1085,-11.9969,-5.075,1.0360669,-1.9707439999999998,-4.727494999999999,-1
336,337,1583238178921,-0.1095,-11.482599,-5.6115,2.3446991,-1.0924742,-5.465101,-1
337,338,1583238178932,0.8788,-10.5494995,-6.1836996,3.201967,-0.22551465,-6.457593,-1
338,339,1583238178942,1.3519,-9.6689,-7.0305995999999995,3.7592702000000005,0.26814103,-7.1908316999999995,-1
339,340,1583238178952,1.5778999,-9.2336,-7.5269,4.3492107,0.52341086,-7.375424400000001,-1
340,341,1583238178962,1.9216,-8.8813,-7.5234,5.575703,0.7729441,-7.407247999999999,-1
341,342,1583238178972,3.0112997999999997,-8.602099,-7.4891,7.7500786999999995,0.91564804,-7.535864999999999,-1
342,343,1583238178983,5.075599700000001,-8.2197,-7.5585,10.705778,2.058075,-7.930936999999999,-1
343,344,1583238178993,7.6997,-6.7451,-8.0357,13.330197,4.295255,-9.457107,-1
344,345,1583238179003,9.4472,-4.7235,-9.2746,13.572643,5.218622,-10.814763000000001,-1
345,346,1583238179013,9.4115,-3.674,-10.561399,12.879694,5.301404499999999,-11.897554,-1
346,347,1583238179023,8.4688,-3.4645998,-11.5826,12.064153,4.8787317,-12.692736,-1
347,348,1583238179034,7.2387,-3.9278,-12.4964,11.512395,3.9768744,-12.999442,-1
348,349,1583238179044,6.6807,-4.5597997,-12.6367,13.127647,4.4277505999999995,-12.754937,-1
349,350,1583238179054,8.0859995,-3.9907,-12.3827,15.517989000000002,5.856639,-12.780957,-1
350,351,1583238179064,10.2864,-2.4452999,-12.428599,17.030089999999998,6.978121300000001,-12.690792,-1
351,352,1583238179075,11.9214,-0.5825,-12.2,17.44085,7.481507000000001,-12.430235,-1
352,353,1583238179085,11.142999999999999,-0.64919996,-12.2845,16.692347,7.292163400000001,-12.544171,-1
353,354,1583238179095,10.2814,-0.838,-12.915,16.007988,7.026627499999999,-13.125828,-1
354,355,1583238179105,10.141,-1.0744,-13.2858,16.160086,6.668158,-13.280675,-1
355,356,1583238179115,10.639299000000001,-1.5030999,-12.8884,16.717207000000002,6.2051387,-12.632335000000001,-1
356,357,1583238179126,10.719299000000001,-1.6452,-12.039499000000001,16.752804,6.041815799999999,-11.624597,-1
357,358,1583238179136,10.4437,-2.0432,-10.6744995,16.444403,5.494482499999999,-9.986531,-1
358,359,1583238179146,9.450399,-2.7465,-8.7174,15.292753,4.7494926,-7.8807545,-1
359,360,1583238179156,7.7778997,-3.4305,-7.0488,13.612281,4.0443620000000005,-6.1605872999999995,-1
360,361,1583238179166,6.312599700000001,-4.1886,-5.741699700000001,12.255180000000001,3.2539499,-4.740462,-1
361,362,1583238179176,5.2439,-5.0936,-4.5558,11.206569,2.2906382,-3.382624,-1
362,363,1583238179187,4.4502,-6.0248,-3.2826,10.383394000000001,1.1768842,-1.6713827,-1
363,364,1583238179197,3.9487997999999997,-6.882899799999999,-2.0959,9.92662,0.35732025,-0.44568542,-1
364,365,1583238179207,3.2398,-7.6284,-1.2421,8.905885000000001,-0.37102467,0.5632695,-1
365,366,1583238179217,1.9131,-8.0173,-0.2915,7.6226687,-0.6032814000000001,1.6847806,-1
366,367,1583238179228,0.8968,-8.0266,0.6461,6.7192507,-0.6366470000000001,2.7869945,-1
367,368,1583238179238,-0.0087,-8.0743,1.7952,5.926444,-0.74592793,4.1967483,-1
368,369,1583238179248,-0.7743,-8.2098,3.4831,5.1116395,-1.0313263000000001,6.585634700000001,-1
369,370,1583238179258,-1.7172999,-8.522699000000001,6.0887,3.9508542999999996,-1.4928422,9.269832000000001,-1
370,371,1583238179269,-3.4368,-8.9288,8.1634,1.7378648999999997,-2.0043108,11.1925,-1
371,372,1583238179279,-5.1983,-9.2493,9.0435,0.50442,-2.2842216,11.59327,-1
372,373,1583238179289,-6.1222,-9.219,9.0695,0.13445838,-2.0497335999999997,11.449963,-1
373,374,1583238179299,-6.3258,-8.5457,8.5762,0.3972651,-1.2751327,11.180242999999999,-1
374,375,1583238179310,-6.002000000000001,-7.6464996,8.6207,0.81014997,-0.28476635,12.023776,-1
375,376,1583238179320,-5.8321,-6.3367996,9.677,0.94952124,0.7668628000000001,13.853435500000002,-1
376,377,1583238179330,-5.6554,-5.3914,11.6585,1.4145998,1.1320169,16.246775,-1
377,378,1583238179340,-5.6398997,-4.9786,13.908098999999998,0.653301,1.1051347,18.791083999999998,-1
378,379,1583238179350,-6.8261,-4.9347,16.3985,-0.23050417,0.82509935,21.077593,-1
379,380,1583238179361,-7.5039997000000005,-5.0443997000000005,18.1386,-0.61650693,0.7813908,21.828915,-1
380,381,1583238179371,-8.1037,-4.5277,18.035,-0.80992967,1.4652994,20.740385,-1
381,382,1583238179381,-7.8402996,-3.6276998999999996,16.6269,1.0653815,2.0822756,19.467617,-1
382,383,1583238179391,-6.0554,-2.9334998,15.8071995,3.0187626,2.754261,19.811357,-1
383,384,1583238179401,-4.335,-1.9413999,16.2885,4.4758263,3.5248299,21.256891,-1
384,385,1583238179412,-3.0472,-0.8991,17.6377,5.279962,4.391081,22.80208,-1
385,386,1583238179422,-2.4726999,0.3023,18.9051,5.3071980000000005,5.2219644,24.00602,-1
386,387,1583238179432,-2.5239,1.3198999,19.8051,5.6871195,5.5186253,24.196820000000002,-1
387,388,1583238179442,-2.0453,1.7702999,19.5071,6.4033594,5.4682994,22.646698,-1
388,389,1583238179452,-1.36,1.8966999,17.6204,7.4718347000000005,5.3745995,20.70111,-1
389,390,1583238179462,-0.233,1.9832,15.6938,8.576911,5.109935299999999,19.377786999999998,-1
390,391,1583238179473,0.7981,1.8759999,14.3636,9.401005,4.998193,18.713367,-1
391,392,1583238179483,1.6926999,2.07,13.741798999999999,11.403516,5.595776,18.693275,-1
392,393,1583238179493,3.5152997999999998,2.8023,13.5526,13.469473,6.3625526,18.355684,-1
393,394,1583238179503,5.6485996,3.7410997999999998,13.0329,14.902019000000001,6.7957883,17.594154,-1
394,395,1583238179513,7.4466,4.3886,11.820499,16.186365,6.8526362999999995,15.750639000000001,-1
395,396,1583238179523,8.5112,4.486399700000001,10.101999000000001,16.419204999999998,6.703746000000001,14.195039999999999,-1
396,397,1583238179534,8.808599000000001,4.3928,8.4304,16.487392,6.3758163,13.000093,-1
397,398,1583238179544,8.946,4.0917997,7.1355996,16.441952,5.5719585,12.474002,-1
398,399,1583238179554,8.9625,3.2761,6.527199700000001,17.475872,5.4091916,12.13821,-1
399,400,1583238179564,12.6458,3.7056,5.2860000000000005,20.50429,6.260253400000001,11.129332000000002,-1
400,401,1583238179574,12.6458,3.7056,5.2860000000000005,22.376371,6.97203,10.044825999999999,-1
401,402,1583238179584,16.8015,5.0849,2.2728,24.134941,7.679622,8.197564,-1
402,403,1583238179595,17.2894,5.1924,0.9561,24.294145999999998,7.798442,7.072664,-1
403,404,1583238179605,17.2894,5.1924,0.9561,23.716732,7.5056887,6.5928364,-1
404,405,1583238179615,16.7545,4.7158,0.24100000000000002,22.189892,6.6117315,6.2267339999999995,-1
405,406,1583238179625,15.6397,3.6685998,-0.11639999599999999,21.261192,6.0746164,5.987601799999999,-1
406,407,1583238179636,14.3208,2.4649,-0.7794,20.927736,5.8081226,5.3443847,-1
407,408,1583238179646,14.1071,1.8893,-1.6690999,20.50695,5.441244599999999,4.2579155,-1
408,409,1583238179656,13.3764,1.0589,-3.0268998,19.64159,4.876768599999999,2.8995792999999996,-1
409,410,1583238179666,12.3657,0.1173,-4.375,18.304523,4.1198945,1.2488921999999998,-1
410,411,1583238179676,11.3671,-0.7593,-5.4698997,17.444670000000002,3.6875975,0.35114318,-1
411,412,1583238179688,10.6915,-1.4366,-6.2830997,16.805513,3.3655101999999997,-0.58190596,-1
412,413,1583238179698,10.5147,-1.7922,-6.9842,16.444124,3.3132207,-1.520864,-1
413,414,1583238179708,10.0068,-2.2066998,-7.382999999999999,15.604832,3.0675277999999997,-1.8845145,-1
414,415,1583238179718,8.956799499999999,-2.7872,-7.4272,14.203238,2.723663,-2.0941603,-1
415,416,1583238179728,7.4027996,-3.4831998,-7.5497,12.543366,2.2866158,-2.358327,-1
416,417,1583238179738,6.192199700000001,-3.9961998,-7.593899700000001,11.617165,2.127641,-2.5310352000000003,-1
417,418,1583238179749,5.9546,-4.2145,-7.5779,11.463716,2.1839522999999996,-2.7215657,-1
418,419,1583238179759,5.954,-4.4048,-7.6782,11.24954,2.1588135,-2.9723822999999996,-1
419,420,1583238179769,5.6366997,-4.62,-7.7703,10.855644999999999,2.1873044999999998,-3.1997645,-1
420,421,1583238179779,5.4062,-4.6548,-7.8964,10.579077,2.3044957999999998,-3.4845595,-1
421,422,1583238179789,5.3410997,-4.7559,-8.017000000000001,10.491909,2.3373442000000004,-3.737732,-1
422,423,1583238179799,5.2962,-4.982599700000001,-8.0374,9.896988,2.0420241000000003,-3.7655525,-1
423,424,1583238179810,4.5088,-5.4934,-7.7538,8.976896,1.7805966,-3.2768385,-1
424,425,1583238179820,3.7907,-5.8153996,-6.9041,8.402528,1.6132897,-2.4449970000000003,-1
425,426,1583238179830,3.2949998,-6.1622,-5.6865,7.717939,1.3781598999999998,-1.2034790000000002,-1
426,427,1583238179840,2.7939999999999996,-6.3209,-4.6935,7.275864,1.4242148000000001,-0.6178094,-1
427,428,1583238179850,2.5407,-6.4023,-4.2518997,7.1243300000000005,1.4250001,-0.49739063,-1
428,429,1583238179860,2.6037,-6.3589,-4.144,7.276936500000001,1.7725998,-0.4066887,-1
429,430,1583238179870,2.878,-6.0534,-3.8151,7.5283084,2.0628154,0.0965821,-1
430,431,1583238179881,3.0872,-5.9969997,-3.1067998,7.124492999999999,1.9901658,0.90230757,-1
431,432,1583238179891,2.3964,-6.1514997000000005,-2.2735999,5.8091855,1.8276473000000002,1.446232,-1
432,433,1583238179901,1.3556,-6.388999999999999,-1.9456999,5.1064205000000005,1.6730968999999998,1.59586,-1
433,434,1583238179911,0.73149997,-6.5892,-1.6775,4.2637477,1.7058305,2.4731722,-1
434,435,1583238179922,0.055299997000000004,-6.495,-0.70059997,3.5212866999999997,2.1559307999999997,4.1440470000000005,-1
435,436,1583238179932,-0.5301,-6.0190997,1.0505999,3.0736282000000004,2.7746020000000002,5.9580283,-1
436,437,1583238179942,-0.90889996,-5.4588,2.8107,2.1042352,3.2199139999999997,7.625341000000001,-1
437,438,1583238179953,-1.9993999,-5.0744,4.4205,0.30098948,3.4718606,9.012972999999999,-1
438,439,1583238179963,-3.7591998999999996,-4.8989,5.7383,-1.5234113999999999,3.7236828999999996,9.904727000000001,-1
439,440,1583238179973,-5.154,-4.7065,6.4051,-2.0140023,4.2282660000000005,9.853261,-1
440,441,1583238179983,-5.5913997,-4.2283,6.3683,-1.8093843,4.6764793,9.34025,-1
441,442,1583238179993,-5.2276,-3.6648998,5.7114997,-0.90690446,5.5220447,8.317724,-1
442,443,1583238180003,-4.4003,-2.9724998,4.8582,0.23413378,6.2650223,7.936022,-1
443,444,1583238180013,-3.2512999,-2.2275,4.4453,1.0040038,6.6468115,8.193983,-1
444,445,1583238180023,-2.4548,-1.8347,4.6439,1.1510076999999999,6.850903,8.864877,-1
445,446,1583238180033,-2.3034,-1.5561,5.4516,0.7649379,7.0181135999999995,9.886042,-1
446,447,1583238180043,-2.7615,-1.4483,6.4087996,-0.035702337,6.8473883,10.627067,-1
447,448,1583238180053,-3.3729,-1.6154,6.9448,-0.73885065,6.677533599999999,10.576118,-1
448,449,1583238180063,-4.0720997,-1.7939,6.9076,-1.0189435,6.8024344,9.809139,-1
449,450,1583238180074,-4.3395,-1.6854999,6.1805997,-0.70062006,6.979298599999999,8.834872,-1
450,451,1583238180084,-4.0256,-1.5382999,5.245899700000001,-0.24414153,7.148511999999999,8.098742,-1
451,452,1583238180094,-3.4385998,-1.3176999,4.39,0.5386761999999999,7.432875999999999,7.254411999999999,-1
452,453,1583238180104,-2.8009999,-1.1006,3.7238,1.3116682,7.721741000000001,6.6693169999999995,-1
453,454,1583238180114,-2.0354,-0.8106,3.1448,1.9037064,7.9563440000000005,6.0489984,-1
454,455,1583238180124,-1.4354999,-0.5886,2.5339,1.8310183999999998,8.047744999999999,5.405274400000001,d
455,456,1583238180135,-1.4995999,-0.4967,1.8975999,1.3289065,8.108605,4.924240599999999,-1
456,457,1583238180145,-2.1567,-0.4222,1.2892,1.1624329,8.136369,4.703505000000001,-1
457,458,1583238180155,-2.1783,-0.4868,1.1241,1.1343058000000001,8.089423,4.502363,-1
458,459,1583238180165,-2.1783,-0.4868,1.1241,1.1581903,8.105972,4.287335400000001,-1
459,460,1583238180176,-1.946,-0.5177,0.70589995,1.4471608,8.102065,3.9714828,-1
460,461,1583238180186,-1.7479,-0.4703,0.4299,1.6030809,8.1779995,3.6490793,-1
461,462,1583238180196,-1.7041,-0.4384,0.1408,1.6679828999999997,8.221439,3.3112288,-1
462,463,1583238180206,-1.7077,-0.4321,-0.051999997,1.6523343000000001,8.217686,3.170919,-1
463,464,1583238180216,-1.7077,-0.4321,-0.051999997,1.7479588,8.2900095,3.1483464,-1
464,465,1583238180226,-1.2892,-0.26459998,-0.1486,2.1598954,8.395268,3.0656316,-1
465,466,1583238180237,-0.8699,-0.1255,-0.1898,2.6857387999999998,8.584861,2.980762,-1
466,467,1583238180247,-0.56049997,0.012499999,-0.36339998,2.845116,8.672948,2.7271490000000003,-1
467,468,1583238180257,-0.60359997,0.050499998,-0.6788,2.7612902999999998,8.691737,2.475959,-1
468,469,1583238180267,-0.7240000000000001,0.0191,-0.80719995,2.679878,8.667527,2.3579056,-1
469,470,1583238180277,-0.7583,0.1064,-0.7592,2.6859112,8.779594,2.4231333999999998,-1
470,471,1583238180288,-0.76769996,0.1661,-0.6925,2.6745532,8.834566,2.5061162,-1
471,472,1583238180298,-0.8164,0.1987,-0.6319,2.5836308,8.829269,2.5485225,-1
472,473,1583238180309,-0.9111,0.1452,-0.5513,2.5567682,8.772116,2.6839863999999998,-1
473,474,1583238180319,-0.95489997,0.1823,-0.3515,2.4683453999999996,8.900282,2.853247,-1
474,475,1583238180329,-1.0379,0.34849998,-0.3619,2.45443,9.028516,2.8558037,-1
475,476,1583238180339,-0.9069,0.5356,-0.31489998,2.7737594,9.349442999999999,2.9679193,-1
476,477,1583238180349,-0.5834,0.92999995,-0.19899999999999998,3.0707266,9.700156,3.109618,-1
477,478,1583238180360,-0.1542,1.3934,0.0169,3.5913312000000004,10.24295,3.5352879,-1
478,479,1583238180370,0.16759999,1.8168,0.4696,3.6500082000000003,10.52312,4.0864614999999995,-1
479,480,1583238180380,0.0639,2.0223,1.0102999,3.4228082000000004,10.566666,4.610609999999999,-1
480,481,1583238180390,-0.2094,2.0194,1.5008999,3.1062467000000002,10.569769,5.0950527,-1
481,482,1583238180400,-0.5266,2.0439,1.9325999,2.8985164,10.671254,5.5656095,-1
482,483,1583238180410,-0.6063,2.1550999,2.3172,2.8770067999999998,10.766821,5.963171,-1
483,484,1583238180421,-0.6653,2.3343,2.7909,2.7040498,11.08863,6.411643499999999,-1
484,485,1583238180431,-0.8398,2.7085,3.1864998,2.585393,11.505298,6.8362985,-1
485,486,1583238180441,-0.8357,3.0911999,3.6522,2.7668066000000002,11.710385,7.6069727,-1
486,487,1583238180451,-0.6622,3.1776998,4.3262997,2.6006584,11.667711,8.100311999999999,-1
487,488,1583238180461,-0.88519996,3.0929,4.7317,2.4878533,11.497512,8.127892999999998,-1
488,489,1583238180472,-0.91539997,2.8848999,4.6935997,2.3570437,11.311664,8.144844,-1
489,490,1583238180482,-1.0487,2.7022998,4.7690997,2.0841432,11.128604,8.308053,-1
490,491,1583238180492,-1.2761999,2.4866998,4.9386,1.9897634999999998,11.061403,8.409911,-1
491,492,1583238180502,-1.3176,2.4543,5.0481997000000005,2.1792119,11.160993,8.489036,-1
492,493,1583238180512,-1.0763999,2.5174,5.1474,2.4041522,10.757005,8.444636000000001,-1
493,494,1583238180522,-0.80649996,2.0871,5.1384,2.2274406000000004,10.325924,8.294635000000001,-1
494,495,1583238180533,-0.9557,1.6234,5.0404,2.3111994,9.91687,7.659922999999999,-1
495,496,1583238180543,-0.8283,1.176,4.4607997,2.4516720000000003,9.751527000000001,6.7382800000000005,-1
496,497,1583238180553,-0.64089996,0.9823,3.6011,2.6630418,9.714607,6.0433383,-1
497,498,1583238180563,-0.39249998,0.9066,2.9759,3.1583352000000002,9.583071,5.8661010000000005,-1
498,499,1583238180573,0.2497,0.6555,2.8386,3.2650304,8.982824,5.7968125,-1
499,500,1583238180584,0.2985,0.099,2.8402,2.7690856,8.315608000000001,5.405503700000001,-1
500,501,1583238180594,-0.13589999,-0.6077,2.5139,2.225918,7.4631289999999995,5.056899,-1
501,502,1583238180604,-0.62729996,-1.5031999,2.2452,1.3662368,6.589628,4.6529684,-1
502,503,1583238180614,-1.4372,-2.419,1.9189999,0.60552233,6.151413,4.239221,-1
503,504,1583238180624,-2.1519,-2.9020998,1.6064999,0.7785369000000001,6.1073116999999995,3.7427788,-1
504,505,1583238180634,-1.9552,-2.9789999,1.2178,1.7708186000000001,6.1392407,3.0514581,-1
505,506,1583238180644,-0.97459996,-3.0023,0.7305,2.7708862,6.200034,2.2141577999999997,-1
506,507,1583238180654,0.44709998,-3.0400999,-0.61149997,3.3046782,6.088608,1.3811958,-1
507,508,1583238180665,0.44709998,-3.0400999,-0.61149997,3.5551214,6.0095706,0.64689416,-1
508,509,1583238180675,0.7829999999999999,-3.1729998999999998,-1.4453,3.3922677000000006,6.070345400000001,-0.096313946,-1
509,510,1583238180685,0.1521,-3.2039999999999997,-2.1469,2.8845534,5.9768944,-0.20573854,-1
510,511,1583238180695,0.1521,-3.2039999999999997,-2.1469,2.824478,5.8518696,-0.0704853,-1
511,512,1583238180705,0.3622,-3.3033997999999998,-1.7646998999999999,3.3129718,5.9613132,0.062354587,-1
512,513,1583238180716,0.8275,-3.0702,-1.7588999,3.9004803,6.1902275,-0.10226115,-1
513,514,1583238180726,1.6974,-2.7475,-2.0843,4.8398113,6.5669509999999995,-0.5830743,-1
514,515,1583238180736,2.2331998,-2.434,-2.4736,5.238772,6.792445699999999,-1.075935,-1
515,516,1583238180746,2.0811,-2.464,-3.0458998999999998,5.1036529999999996,6.7464104,-1.7759421999999998,-1
516,517,1583238180756,1.9474,-2.4931,-3.7245,5.071570400000001,6.7286167,-2.5329216,-1
517,518,1583238180767,2.0837998,-2.4112,-4.2170997,5.249210400000001,6.8559117,-2.9566282999999998,-1
518,519,1583238180777,2.1548998,-2.2368,-4.0984,5.292699,7.029597,-2.628393,-1
519,520,1583238180787,2.0139,-2.1476,-3.3727,5.1677027,7.074215,-1.5758731000000001,-1
520,521,1583238180797,1.9433999,-2.1157,-2.3567998,5.1096096,7.0966244000000005,-0.6956688,-1
521,522,1583238180807,1.8325,-1.9569,-1.7548,5.0804480000000005,7.326908,-0.2695009,-1
522,523,1583238180818,2.0708,-1.6337,-1.5792999,5.51512,7.6452894,-0.2603551,-1
523,524,1583238180828,2.4821,-1.3629999,-1.7922,5.812183,7.8623476,-0.5696572,-1
524,525,1583238180838,2.6102,-1.077,-2.3099,5.972968,8.176084,-1.3119267,-1
525,526,1583238180848,2.6748,-0.87259996,-2.9222,5.9620986,8.307879,-1.9655917,-1
526,527,1583238180859,2.4529998,-0.91459996,-3.2674,5.5725430000000005,8.202105,-2.1228046000000003,-1
527,528,1583238180869,2.0132,-0.98539996,-3.1271,5.1000905,8.235938,-1.8877707,-1
528,529,1583238180879,1.6463,-0.8872,-2.8214998,4.948163500000001,8.314766,-1.4732769,-1
529,530,1583238180889,1.5734999,-0.7956,-2.3462,4.802874,8.458139,-0.9308177,-1
530,531,1583238180900,1.2742,-0.62329996,-1.8182,4.4214199999999995,8.652942,-0.27303475,-1
531,532,1583238180910,0.9931,-0.4402,-1.1352999,4.3811593,8.716619,0.46567225,-1
532,533,1583238180920,1.0318,-0.42369998,-0.53029996,4.5384774000000006,8.836654,0.82571226,-1
533,534,1583238180930,1.2048,-0.23179999,-0.3981,4.89687,9.03271,0.6433506999999999,-1
534,535,1583238180940,1.6712999,-0.0517,-0.75799996,5.233821,9.139539,0.118062876,-1
535,536,1583238180950,1.7883999,0.0374,-1.2257,5.012807,9.199289,-0.30455202,-1
536,537,1583238180961,1.4024,-0.0028,-1.5296999,4.3901806,8.838942999999999,-0.32959540000000004,-1
537,538,1583238180971,0.8551,-0.36699998,-1.3778,3.8322933,8.542836999999999,0.27421272,-1
538,539,1583238180982,0.3188,-0.63089997,-0.7172,3.4372883,8.409001,1.0500011,-1
539,540,1583238180992,-0.035099998,-0.6967,-0.0112,3.1777662999999996,8.620927,1.5099177,-1
540,541,1583238181002,-0.28869998,-0.44529998,0.35729998,3.0455778,8.859657,1.610838,-1
541,542,1583238181012,-0.3536,-0.2021,0.3822,3.3491913999999996,9.094787,1.4148488000000001,-1
542,543,1583238181022,-0.023599999,0.012499999,0.1366,3.9372934999999996,9.265666,1.1808586,-1
543,544,1583238181033,0.5963,0.2076,-0.0572,4.7381825,9.483039999999999,0.87991697,-1
544,545,1583238181043,1.2171999,0.39139998,-0.3096,4.9573480000000005,9.527266000000001,0.78398615,-1
545,546,1583238181053,1.3834,0.3958,-0.3811,4.375107,9.241311999999999,0.9297164000000001,-1
546,547,1583238181063,0.8246,0.1511,-0.1979,3.4867907,9.031742999999999,1.0907025,-1
547,548,1583238181074,-0.0605,-0.0567,-0.0163,2.7608879,8.986061,1.0947822,-1
548,549,1583238181085,-0.90389997,-0.086399995,-0.108899996,2.7207613,9.021131500000001,0.9312966,-1
549,550,1583238181095,-0.90389997,-0.086399995,-0.108899996,3.0593972000000003,9.083075,0.8564155000000001,-1
550,551,1583238181105,-0.15879999,0.0164,-0.2192,3.5379407,9.10511,0.8482848,-1
551,552,1583238181115,0.3258,0.0559,-0.2591,4.047724,9.126476,0.7906324,-1
552,553,1583238181125,0.3258,0.0559,-0.2591,4.287517,9.191292,0.7533403000000001,-1
553,554,1583238181136,0.5934,0.30879998,-0.3574,4.27048,9.386792999999999,0.6625234999999999,-1
554,555,1583238181146,0.5962,0.5101,-0.5494,4.275393,9.585386999999999,0.43839750000000005,-1
555,556,1583238181156,0.38729998,0.5722,-0.7378,4.0289817,9.611561,0.24847025,d
556,557,1583238181166,0.0361,0.4461,-0.8289,3.5538763999999996,9.397021,0.17131949999999999,-1
557,558,1583238181176,-0.36159998,0.192,-0.73759997,3.3158065999999997,9.176123,0.29328012,-1
558,559,1583238181186,-0.3786,-0.0412,-0.57269996,3.4119577000000003,8.933542,0.44655693,-1
559,560,1583238181196,-0.0075999996999999994,-0.1349,-0.4809,3.8875610000000003,8.900435,0.50370175,-1
560,561,1583238181206,0.54609996,-0.07,-0.5581,4.5004287000000005,8.977921,0.35606566,-1
561,562,1583238181216,1.0504999,0.10300000000000001,-0.8617,4.8734836999999995,9.158875,0.07029376,-1
562,563,1583238181226,1.2544999,0.2452,-1.097,5.064129400000001,9.265196000000001,-0.17940232,-1
563,564,1583238181236,1.3356999,0.258,-1.3331,5.102752,9.266863,-0.40615237,-1
564,565,1583238181246,1.2251999,0.33769998,-1.5110999,5.012203700000001,9.371891999999999,-0.61012876,-1
565,566,1583238181257,1.2256,0.3279,-1.7775999,5.084882299999999,9.315379,-0.9568091999999999,-1
566,567,1583238181267,1.5802,0.36679998,-2.1827,5.658715,9.455698,-1.4300375,-1
567,568,1583238181277,2.4348,0.46469998,-2.6274,6.658964,9.464317,-1.7301363999999997,-1
568,569,1583238181287,3.4673998,0.41459998,-2.8549,7.496705,9.410582000000002,-2.0221524,-1
569,570,1583238181297,3.9455,0.4111,-3.2331,7.784181599999999,9.414672,-2.3897486,-1
570,571,1583238181308,4.1428,0.2974,-3.4571998,7.961937,9.265417,-2.539453,-1
571,572,1583238181318,4.5165997,0.18339999,-3.5698998,8.4142685,9.217782000000001,-2.6824827,-1
572,573,1583238181328,4.8205,0.1681,-3.6638,8.611025,9.18298,-2.7509186000000003,-1
573,574,1583238181338,5.1735,0.0453,-3.7805,9.096903,9.003989,-2.9565997000000004,-1
574,575,1583238181348,5.6931996,-0.1265,-4.0239997,9.655624000000001,8.869532000000001,-3.2093507999999997,-1
575,576,1583238181359,6.2931,-0.2504,-4.2639,10.203849,8.73649,-3.5487718999999998,-1
576,577,1583238181369,6.867799799999999,-0.39589998,-4.7455997000000005,11.021765,8.633137,-4.2406483,-1
577,578,1583238181379,7.634999799999999,-0.4263,-5.344599700000001,11.548144,8.682677,-4.8193555,-1
578,579,1583238181389,7.9704,-0.3716,-5.8395,11.553738000000001,8.654244,-5.052474,-1
579,580,1583238181399,7.7688,-0.5464,-5.8441997,10.916976,8.409317,-4.914051000000001,-1
580,581,1583238181409,7.0291996,-0.773,-5.704799700000001,10.127338,8.201013,-4.733317400000001,-1
581,582,1583238181419,6.4228997,-1.0202,-5.4474998,9.675333,7.980027000000001,-4.3052154,-1
582,583,1583238181429,6.1808996,-1.306,-4.9522,9.480933,7.67537,-3.7145464,-1
583,584,1583238181439,6.0081997000000005,-1.6305,-4.4483,9.176994,7.377608,-3.3927178,-1
584,585,1583238181449,5.8371997,-1.9066999,-4.3215,9.099901,7.211411999999999,-3.4953525,-1
585,586,1583238181460,5.8437,-2.046,-4.5613,9.062512,7.127069500000001,-3.8296309,-1
586,587,1583238181470,5.8827,-2.1467,-4.9365,9.065156,7.057560400000001,-4.1177588,-1
587,588,1583238181480,5.9273996,-2.2479,-5.1534,8.770525,6.8546762,-4.1485577000000005,-1
588,589,1583238181491,5.6580997,-2.487,-5.1026998,8.260292999999999,6.5357012999999995,-3.7158105000000003,-1
589,590,1583238181500,4.9486,-2.9908,-4.4364,7.145763400000001,6.064867,-2.7589438,-1
590,591,1583238181510,3.826,-3.444,-3.4584,6.1327476999999995,5.763064,-1.8875311999999997,-1
591,592,1583238181520,2.7445,-3.8058,-2.6021,4.871070400000001,5.352688,-0.7901249,-1
592,593,1583238181530,2.1766999,-4.0552998,-1.995,4.5161924,5.3255186,0.11973882,-1
593,594,1583238181541,1.9401,-4.0347,-1.0737,4.357715,5.419161,1.2399091999999998,-1
594,595,1583238181551,2.039,-3.9410000000000003,0.2015,4.700804,5.4600153,2.872659,-1
595,596,1583238181561,2.3451,-3.9017,1.5077,4.531745,5.5897713,4.467054,-1
596,597,1583238181572,2.1104998999999998,-3.7819998,3.0625,3.8676796,5.580463,5.91477,-1
597,598,1583238181582,1.4241999,-3.8174998999999996,4.3703,2.724841,5.46444,7.327004400000001,-1
598,599,1583238181592,0.2668,-3.9092,5.6528,1.4236498,5.5164514,8.705278999999999,-1
599,600,1583238181602,-0.9422,-3.7807,6.9728,0.47752833,5.740405,10.302605,-1
600,601,1583238181613,-1.7652999,-3.5967,8.3967,-0.13286862,5.609634,12.134657,-1
601,602,1583238181622,-2.154,-3.7115,9.8231,-0.13649823,5.437213,13.878201500000001,-1
602,603,1583238181633,-2.0799,-3.8725998,11.9105,-0.21034499,5.503274,16.36297,-1
603,604,1583238181643,-2.1667,-3.7698998,13.796598999999999,-1.0645962,5.5401926,17.357426,-1
604,605,1583238181653,-2.9930000000000003,-3.7115,14.7009,-2.4573127999999995,5.473509,17.567598,-1
605,606,1583238181663,-4.3377,-3.7663998999999997,14.8354,-3.9764242,5.2000720000000005,17.275057,-1
606,607,1583238181674,-5.8002,-4.0308,14.458798999999999,-5.5042504999999995,4.733854,16.825512,-1
607,608,1583238181684,-8.2703,-4.8382998,13.3329,-6.695538000000001,4.313470400000001,16.140684,-1
608,609,1583238181694,-8.6189995,-5.0390997,12.6152,-7.015346000000001,4.1309557,15.447829999999998,-1
609,610,1583238181705,-8.6189995,-5.0390997,12.6152,-7.1823754,3.9584483999999995,14.753875,-1
610,611,1583238181715,-9.0022,-5.4585,10.571099,-7.479543700000001,3.7312865,13.315248,-1
611,612,1583238181725,-9.0022,-5.4585,10.571099,-8.003615,3.5914464,12.276489,-1
612,613,1583238181735,-9.595799000000001,-5.8841996,8.149,-7.890828999999999,3.2618797,10.922616,-1
613,614,1583238181746,-9.1846,-6.1896,7.1052,-7.5113864,2.8726877999999996,9.710174,-1
614,615,1583238181757,-9.1185,-6.5527997000000004,6.1826,-7.507824,2.4324708,8.831002999999999,-1
615,616,1583238181767,-9.337299,-7.2476997,5.4179997,-7.6986322,1.6365709,8.113145,-1
616,617,1583238181777,-9.4893,-8.0181,4.838,-7.734411200000001,1.02898,7.658199000000001,-1
617,618,1583238181787,-9.4702,-8.7935,4.391,-7.601035,0.23851994,7.228372599999999,-1
618,619,1583238181797,-9.136499,-9.4358,4.1857,-6.9418254,-0.46237782,7.098875,-1
619,620,1583238181808,-9.136499,-9.4358,4.1857,-6.5268334999999995,-0.66933256,7.0091887,-1
620,621,1583238181818,-8.2393,-10.3505,3.6128,-6.052772,-1.4684117,6.218824400000001,-1
621,622,1583238181828,-8.4506,-10.885799,2.8832998,-6.334675,-1.992244,5.475482,-1
622,623,1583238181838,-8.9361,-11.3229,2.0981998,-6.543037,-2.4408693,4.7625556,-1
623,624,1583238181848,-8.9492,-11.590199,1.5123999,-6.187987000000001,-2.6878936,4.370184,-1
624,625,1583238181858,-8.6714,-11.6748,1.3219,-5.805891,-2.7879810000000003,4.3948636,-1
625,626,1583238181868,-8.6518,-11.712299,1.4986,-5.590461,-3.044649,4.786028400000001,-1
626,627,1583238181879,-8.2922,-12.0447,2.0458998999999998,-4.11456,-3.6910641,5.609471,-1
627,628,1583238181889,-6.781399700000001,-12.4839,2.6169999,-2.2338765,-4.2333126,6.177807,-1
628,629,1583238181900,-5.2335,-12.8721,2.9484,-0.32344708,-4.618195,6.191961,-1
629,630,1583238181910,-3.531,-12.873,2.6878998,1.8124968000000001,-4.373613,6.2322315999999995,-1
630,631,1583238181921,-1.4928,-12.098499,2.9034998,4.781785500000001,-3.2695217,6.976905,-1
631,632,1583238181931,1.6768,-10.436999,3.6922,9.312151,-1.398932,8.458312,-1
632,633,1583238181942,5.0232997,-8.6862,4.8679,11.468197,-0.58958656,9.512057,-1
633,634,1583238181952,6.9047,-7.6928997,5.8532,12.666849000000001,-0.68471295,10.276441,-1
634,635,1583238181962,7.1836996,-7.7162,6.0615997,12.8168125,-0.6630215,10.03612,-1
635,636,1583238181972,7.2977,-7.1808996,5.5382,14.448661999999999,0.44027454,9.375771,-1
636,637,1583238181982,9.0501995,-5.651799700000001,4.7342997,17.606998,2.0628633,8.711285,-1
637,638,1583238181992,12.1852,-3.5995998,3.9136998999999997,22.014484,4.7150927000000005,8.067196000000001,-1
638,639,1583238182002,15.6529,-1.0023999,3.2436,24.122004,6.0275364,7.943617,-1
639,640,1583238182013,17.8472,0.8262,2.9657,23.484362,6.1820683,8.066486,-1
640,641,1583238182023,16.824299,1.1067,2.9336,20.005547,4.7739043,8.273988000000001,-1
641,642,1583238182034,13.246799,-0.023799999,2.9959998,17.054377,3.3982437000000005,9.018191,-1
642,643,1583238182044,9.8227,0.3217,3.7020998,17.297771,5.0622807,9.088111999999999,-1
643,644,1583238182054,13.5287,2.5993,2.4322999,21.322924,6.975564,7.716052,-1
644,645,1583238182065,16.7951,4.7145,0.35639998,24.146960999999997,8.737169999999999,5.7651900000000005,-1
645,646,1583238182075,17.509698999999998,5.7469,-1.2501999,24.430483,9.198532,4.4696107000000005,-1
646,647,1583238182085,17.509698999999998,5.7469,-1.2501999,23.2151,8.672219,3.8950021,-1
647,648,1583238182095,13.461499,4.5148,-2.4199998,19.967478,7.3601684999999994,3.7808561000000003,-1
648,649,1583238182106,11.362499,3.3427,-1.8891,18.065217999999998,6.021197,4.526200299999999,-1
649,650,1583238182116,9.810599,2.1947,-0.7599,16.526217000000003,4.808553,5.7056413,-1
650,651,1583238182126,8.0091,1.3404,0.2789,14.552504,3.8092515,6.644494,-1
651,652,1583238182136,7.0485997000000005,0.9167,0.2188,14.25862,3.5096983999999996,6.062722,-1
652,653,1583238182147,7.3824997,0.9668,-0.7642,14.826401,3.617725,5.048873400000001,-1
653,654,1583238182157,7.9883,1.3905,-1.6223999,15.372595,4.0000215,4.4262084999999995,-1
654,655,1583238182168,8.3164,1.7824999,-1.8636999,15.500962,4.1478205,4.3930826,-1
655,656,1583238182178,7.9171996,1.9066999,-1.7874999,14.814008,4.0992274,4.6132917,-1
656,657,1583238182188,7.0348997,1.8713,-1.5157,13.756585000000001,3.9104881000000002,5.0049253,-1
657,658,1583238182198,5.8461,1.6208999,-0.89879996,12.670163,3.5114129000000003,5.773464,-1
658,659,1583238182208,4.8459,1.3011999,-0.0782,11.755616,3.227068,6.42643,-1
659,660,1583238182218,4.1665998,1.13,0.16489999,11.443019999999999,3.1040921000000004,6.3792644,-1
660,661,1583238182228,4.113,1.1623,-0.3205,11.49575,3.153566,5.5861225,-1
661,662,1583238182238,4.1275,1.2598,-1.1583999,11.40705,3.2515557,4.710094000000001,-1
662,663,1583238182248,3.8546998999999995,1.3496,-1.8302,10.999796,3.2300652999999997,4.27343,-1
663,664,1583238182259,3.4406,1.2100999,-1.8359999999999999,10.598517,2.9679002999999997,4.494472,-1
664,665,1583238182269,2.8595998,0.9385,-1.3347,9.844402,2.6629747999999998,5.3672733,-1
665,666,1583238182279,2.2621999,0.6981,-0.5043,9.498037,2.3936558,6.026512,-1
666,667,1583238182289,2.0167,0.4258,0.14199999,9.178326,2.120669,6.6372538,-1
667,668,1583238182299,1.6788,0.28300000000000003,0.4428,8.783713,2.0242114,6.709520299999999,-1
668,669,1583238182310,1.2767,0.2854,0.41009998,8.473913,2.0754664000000003,6.5908929999999994,-1
669,670,1583238182319,1.0356,0.3566,0.2296,8.289617999999999,2.1466892000000004,6.2972007,-1
670,671,1583238182329,0.88089997,0.4428,-0.0843,8.222282,2.3007417,6.0077987,-1
671,672,1583238182339,0.8853,0.5879,-0.34219998,8.335375,2.3487310000000003,5.7918515,d
672,673,1583238182349,0.9546,0.5502,-0.4807,8.305457,2.2039008,5.7943034,-1
673,674,1583238182359,0.9026,0.3116,-0.4024,8.187816,1.9014654,5.965642,-1
674,675,1583238182369,0.8156,0.0583,-0.1831,8.215196,1.744607,6.354623,-1
675,676,1583238182379,0.9571,0.018299998999999997,0.2855,8.430394999999999,1.7864383000000001,6.8505197,-1
676,677,1583238182389,1.2203,0.119899996,0.60569996,8.730322,1.9702939999999998,6.847608599999999,-1
677,678,1583238182399,1.5818,0.3669,0.4163,9.034674,2.168821,6.608111999999999,-1
678,679,1583238182410,1.8719,0.5768,0.1144,9.2424135,2.3785243,6.32324,-1
679,680,1583238182420,1.9738,0.7502,-0.036199998,9.476001,2.5349522,6.308137400000001,-1
680,681,1583238182430,2.2924,0.8595,-0.01,9.695789,2.6020377,6.430816,-1
681,682,1583238182440,2.4185998,0.8965,0.14999999,9.738626,2.6218424,6.546025299999999,-1
682,683,1583238182450,2.4724,0.82159996,0.1769,9.694189,2.4221947,6.5206175,-1
683,684,1583238182460,2.3641,0.6252,0.1603,9.642217,2.452601,6.441772,-1
684,685,1583238182471,2.4342,0.6911,0.024799999,10.0800295,2.6778476,6.4055815,-1
685,686,1583238182481,3.0131,0.94269997,-0.0009999999,10.993006,3.110403,6.3355174000000005,-1
686,687,1583238182491,3.9747999,1.3706,-0.1153,11.810780000000001,3.4290714,6.0934443,-1
687,688,1583238182501,4.7623,1.6283,-0.3782,12.389975,3.7087429,6.1028776,-1
688,689,1583238182511,5.3468,1.8707,-0.2992,12.896118,3.8985648,6.5594997,-1
689,690,1583238182522,5.8671,2.0007,0.20799999,13.342551,4.1133823,7.165559,-1
690,691,1583238182533,6.3641996,2.2042,0.779,13.996225,4.428488,7.738855,-1
691,692,1583238182543,7.0947,2.4802,1.2753,14.856941,4.7255697,7.8821144,-1
692,693,1583238182553,7.861399700000001,2.6581,1.3074,15.382191,4.8729949999999995,7.583825,-1
693,694,1583238182564,8.4447,2.7317998,0.96989995,15.772435,4.941612999999999,7.290190700000001,-1
694,695,1583238182573,8.8785,2.7001998,0.6617,15.868414000000001,4.9710712,7.355264999999999,-1
695,696,1583238182583,8.965,2.6146,0.76659995,15.298632999999999,4.8668375,7.793786999999999,-1
696,697,1583238182594,8.3427,2.3776,1.2541,14.639873499999998,4.7647010000000005,8.567103999999999,-1
697,698,1583238182603,7.8887997,2.1794999,1.9229,14.449544,4.723693,9.422514999999999,-1
698,699,1583238182614,7.7447,2.0063,2.7668998,14.566831,4.7753309999999995,10.307344,-1
699,700,1583238182624,7.9333,1.9157,3.6564998999999996,14.828192000000001,4.8018875,10.621052,-1
700,701,1583238182634,8.1617,1.6388999,3.5874,14.585726000000001,4.828138,10.092775999999999,-1
701,702,1583238182644,7.8694997,1.4,2.7839,14.229754999999999,4.768206,9.201837,-1
702,703,1583238182655,7.447499799999999,1.1495,1.8932999,13.662654999999999,4.7998285,8.289195,-1
703,704,1583238182665,7.447499799999999,1.1495,1.8932999,12.878133,5.1577997,7.7050867,-1
704,705,1583238182675,5.455899700000001,1.3647,1.2026,11.435157,5.4863515,7.7004037,-1
705,706,1583238182685,4.3831,1.2234,1.8929,10.329725,5.5729256,8.348112,-1
706,707,1583238182695,3.6780998999999994,1.0512,2.7192,9.722806,5.659930999999999,9.005053,-1
707,708,1583238182705,3.6546998,0.78,3.1525,9.70958,5.5899152999999995,9.176582000000002,-1
708,709,1583238182716,3.6192,0.3002,3.0853999,9.538557,5.356097,8.856266999999999,-1
709,710,1583238182726,3.1525998,-0.11409999400000001,2.6938,8.970576,5.219158599999999,8.31194,-1
710,711,1583238182736,2.8815,-0.3624,2.4687997999999998,8.755606,5.286857,7.7953577,-1
711,712,1583238182746,2.9133,-0.5197,2.0269,8.7254,5.3460703,7.1488466,-1
712,713,1583238182756,2.8118,-0.8504,1.7858,8.439695,5.195494,6.768006,-1
713,714,1583238182766,2.2,-1.4132999,1.75,7.5285673,4.8303975999999995,6.5309989999999996,-1
714,715,1583238182777,1.355,-1.9704,1.8161999,6.701859,4.5031295,6.260157599999999,-1
715,716,1583238182787,0.76769996,-2.557,1.6834999,6.079653700000001,4.1561713,5.885139,-1
716,717,1583238182797,0.2622,-3.0017,1.5968,5.5418389999999995,4.0441513,5.6940722,-1
717,718,1583238182807,-0.51339996,-3.2437,1.8313999,4.444175,3.969299,5.819854,-1
718,719,1583238182818,-1.2567999,-3.5468,2.1968,3.5971347999999996,3.8439197999999997,5.985801,-1
719,720,1583238182828,-1.9812,-3.8054997999999998,2.501,2.7719110000000002,3.7606300999999998,6.1941447,-1
720,721,1583238182838,-2.3492,-4.1693997000000005,3.0091,2.6413407,3.4979669999999996,6.54411,-1
721,722,1583238182848,-1.9555,-4.5333,3.2238998,2.9325905,3.4274337,6.147659,-1
722,723,1583238182858,-1.5947,-4.5487,2.6366,3.2664285,3.9198062000000005,5.0487394,-1
723,724,1583238182869,-1.1438999,-3.8837998,1.5386,3.2254972,4.964013,3.6257217000000006,-1
724,725,1583238182879,-1.3891,-3.1165,0.2586,2.6715746,5.3013277,2.5829413,-1
725,726,1583238182889,-2.0011,-3.3042998,-0.5596,1.6302694,4.928091,1.9365740000000002,-1
726,727,1583238182899,-2.7869,-3.8455,-0.5613,0.78299016,4.30828,2.2081435000000003,-1
727,728,1583238182909,-3.2742,-4.7483997,-0.0264,0.32650208,3.4277879999999996,2.7109451,-1
728,729,1583238182919,-3.4821,-5.6011,0.5273,-0.1220181,3.2058647000000002,3.085714,-1
729,730,1583238182930,-3.7812997999999998,-5.4234,0.9331,-0.33627042,3.883692,3.2345762000000002,-1
730,731,1583238182940,-3.4803,-4.8526998,0.9101,0.34927574,4.432826,2.7835853,-1
731,732,1583238182950,-2.5512,-4.3389997000000005,0.4016,1.156476,5.061438,2.1486235000000002,-1
732,733,1583238182960,-1.6615,-3.8037998999999996,-0.1112,1.9012740000000001,5.441704799999999,1.8117976999999998,-1
733,734,1583238182970,-0.8793,-3.7285998,-0.25149998,2.2306204,5.1522646,1.9374262999999998,-1
734,735,1583238182980,-0.7956,-4.2439,0.1195,1.6259694,4.516728400000001,2.690259,-1
735,736,1583238182991,-1.4668,-4.8919,0.94549996,0.76478463,3.865879,3.8638682,-1
736,737,1583238183001,-1.9592999,-5.4782,1.9038,0.21551646,3.4307377,4.6734433,-1
737,738,1583238183011,-2.3815,-5.8085,2.5534,-0.1464581,3.753572,4.7240376,-1
738,739,1583238183021,-2.504,-5.4339,2.4171999,-0.18060899,4.1553574,3.8765669999999997,-1
739,740,1583238183031,-2.5158,-5.0413,1.4382,-0.5489713,4.5944157,2.6607529999999997,-1
740,741,1583238183042,-2.7733998,-4.6782,0.2986,-0.62220514,4.608752,1.6332479,-1
741,742,1583238183052,-2.6738,-4.8026,-0.6666,-0.46151590000000003,4.3780947,0.893382,-1
742,743,1583238183062,-2.5089,-5.0197997,-1.2760999,-0.83833456,4.1491036,0.8850598,-1
743,744,1583238183073,-2.8723,-5.3187,-1.1281999,-1.1200937,3.7862480000000005,1.8989179,-1
744,745,1583238183083,-2.9808998,-5.6103,-0.2446,-1.11701,3.9990157999999996,3.1185243,-1
745,746,1583238183095,-2.9075,-5.395,0.9112,-1.0571358,4.3964915,4.2537303,-1
746,747,1583238183104,-2.7812997999999998,-4.9895997,1.9815999,-0.8655997,4.9783015,4.825801,-1
747,748,1583238183114,-2.5263,-4.417,2.491,-0.9513886999999999,5.648391200000001,4.724411,-1
748,749,1583238183124,-2.8221,-3.4494998,1.7215999,-1.3458669,5.999582,3.8668275000000003,-1
749,750,1583238183135,-2.8221,-3.4494998,1.7215999,-1.5412146999999998,5.991978,3.3059711000000003,-1
750,751,1583238183145,-2.7982,-3.3706,0.2368,-1.0914591999999999,6.1165533,2.4346827999999996,-1
751,752,1583238183156,-2.0488,-3.1555,-0.102699995,-0.40231207,6.313194,2.1887217,-1
752,753,1583238183165,-2.0488,-3.1555,-0.102699995,0.04550899,6.454557,2.1804377999999995,-1
753,754,1583238183175,-1.0034,-2.1886,-0.2523,0.54396266,7.390565400000001,1.9830311999999999,-1
754,755,1583238183185,-0.71639997,-1.5431,-0.2728,0.7655987,8.02455,2.0398023000000003,-1
755,756,1583238183195,-0.7373,-1.0512,-0.0359,0.7083581,8.432349,2.3318088,-1
756,757,1583238183205,-0.88049996,-1.0684,0.3218,0.49895164,8.331639,2.7027952999999996,-1
757,758,1583238183215,-1.3262,-1.1262,0.5963,-0.014049175,8.320962,2.9758492000000003,-1
758,759,1583238183226,-1.6384,-1.069,0.73719996,-0.25883237,8.377063,3.106065,-1
759,760,1583238183236,-1.2937,-0.8772,0.85609996,0.37548742,8.7456455,3.0978863,-1
760,761,1583238183246,-1.2937,-0.8772,0.85609996,0.7704541,9.048713000000001,2.7580342,-1
761,762,1583238183257,-0.085999995,-0.048499997999999996,-0.2904,1.4687948,9.573292,1.6841293999999998,-1
762,763,1583238183267,0.22,0.35549998,-1.0042,1.5869821000000002,9.935544,0.96606994,-1
763,764,1583238183277,0.1802,0.4671,-1.5332999,1.4868567,9.910109,0.64663553,-1
764,765,1583238183287,-0.205,0.3168,-1.4613999,0.93935066,9.752618,0.9180423000000001,-1
765,766,1583238183298,-0.65459996,0.21849999,-1.0023,0.5705191,9.656333,1.4473716,-1
766,767,1583238183308,-0.82129997,0.1223,-0.4332,0.45124,9.510572999999999,2.0648553,-1
767,768,1583238183318,-0.973,-0.0319,0.1944,0.27881914,9.419326,2.708225,-1
768,769,1583238183328,-0.90569997,-0.0103,0.6322,0.56950396,9.558199,2.9465537,-1
769,770,1583238183338,-0.5621,0.18609999,0.57159996,0.90426123,9.818812,2.620942,-1
770,771,1583238183348,-0.2626,0.44889998,0.1705,1.2397081,10.024236,2.1333964,-1
771,772,1583238183360,0.045399997000000004,0.6412,-0.3102,1.4617176,10.192787,1.65628,-1
772,773,1583238183370,0.1989,0.7345,-0.7488,1.4019583,10.149768,1.3850936000000003,-1
773,774,1583238183380,-0.023899998999999998,0.5829,-0.8488,1.0244502,9.837286,1.4924973999999998,-1
774,775,1583238183390,-0.32899999999999996,0.3056,-0.6263,0.8005635999999999,9.531106,1.9147389,-1
775,776,1583238183401,-0.5329999999999999,-0.0084,-0.2103,0.5543343000000001,9.372256,2.1941519,d
776,777,1583238183411,-0.83529997,-0.1148,0.0806,0.3679505,9.428078999999999,2.3882353,-1
777,778,1583238183421,-0.8483,-0.0242,0.1847,0.7245236999999999,9.587523,2.564803,-1
778,779,1583238183431,-0.4377,0.12529999,0.3707,0.9777440999999999,9.700338,2.7360842,-1
779,780,1583238183443,-0.25779998,0.2746,0.4928,1.2344600000000001,9.94266,2.6935728,-1
780,781,1583238183453,0.0288,0.5011,0.41439998,1.580719,10.079417,2.673423,-1
781,782,1583238183463,0.30789998,0.6088,0.4279,1.4964335,10.036905,2.6433709999999997,-1
782,783,1583238183474,0.22119999,0.5682,0.40359998,1.1373893999999998,9.847093,2.328256,-1
783,784,1583238183484,-0.1311,0.3691,0.0963,0.7988206,9.577237,1.9259724999999999,-1
784,785,1583238183494,-0.44709998,0.1008,-0.3004,0.5535585999999999,9.278183,1.7883633,-1
785,786,1583238183504,-0.6802,-0.2057,-0.4486,0.16558299999999998,9.02753,2.0303310000000003,-1
786,787,1583238183514,-1.0374,-0.4612,-0.2052,-0.31911835,8.855262,2.5692081,-1
787,788,1583238183525,-1.4804,-0.6259,0.3015,-0.8134444000000001,8.541832000000001,3.4385142,-1
788,789,1583238183534,-1.9427999,-0.9356,1.1429,-1.2226517,8.370426,4.212205,-1
789,790,1583238183544,-2.3286998,-1.0972998999999999,1.8745999,-1.4494402,8.171889,4.6394839999999995,-1
790,791,1583238183554,-2.5317,-1.2889999,2.2775,-1.5695716,7.860873,4.755182,-1
791,792,1583238183564,-2.6290998,-1.6099,2.375,-1.8322634999999998,7.4169974000000005,4.4628879999999995,-1
792,793,1583238183574,-2.8734999,-2.0503,2.0779,-2.3874020000000002,6.7329645000000005,4.13221,-1
793,794,1583238183585,-4.4014,-3.4125,1.7777,-3.6380184,5.900309,4.282776999999999,-1
794,795,1583238183595,-5.5488,-4.2135,2.3813,-4.8485074,5.063947,4.989726999999999,-1
795,796,1583238183605,-6.8943,-5.2475,3.2910000000000004,-6.2700024,4.0042352999999995,5.9820375,-1
796,797,1583238183615,-8.306000000000001,-6.2899,4.2964,-7.6367273,2.9383654999999997,7.001699400000001,-1
797,798,1583238183625,-9.3523,-7.4101,5.1398,-8.592042999999999,1.7986201000000002,7.815038,-1
798,799,1583238183636,-9.8649,-8.4327,5.6414,-8.938063,0.7973075,8.233592999999999,-1
799,800,1583238183646,-9.6137,-9.3188,5.6186,-8.497587,-0.032915484,8.094517999999999,-1
800,801,1583238183656,-8.9523,-9.9501,5.1298,-7.709013499999999,-0.68072903,7.5347347000000005,-1
801,802,1583238183666,-8.1409,-10.530499,4.3649,-6.606541,-1.3029532,6.571260499999999,-1
802,803,1583238183677,-7.4389997,-10.8714,3.6202998,-6.0004826,-1.5267825000000002,5.987774,-1
803,804,1583238183687,-7.3023996,-10.9417,2.9684,-5.9477425,-1.6486186,5.2027345,-1
804,805,1583238183697,-7.7967,-11.2506,2.3783,-6.2875757000000005,-2.2368932,4.7159166,-1
805,806,1583238183707,-8.0058,-12.1893,2.1169,-6.142238,-3.128896,4.569535299999999,-1
806,807,1583238183717,-7.6052,-13.275,1.933,-5.243302,-4.3753176,4.3448725,-1
807,808,1583238183727,-6.9028997,-13.9956,1.7407,-4.1701155,-5.0012193,4.133465,-1
808,809,1583238183737,-5.7226,-14.3769,1.4885,-2.478899,-5.361834,3.8033426,-1
809,810,1583238183747,-4.187,-14.514000000000001,1.0929999,-0.603176,-5.486055,3.4313510000000003,-1
810,811,1583238183757,-2.6746,-14.344399,0.715,0.8356530000000001,-5.360302,3.0997825,-1
811,812,1583238183768,-1.3234,-13.7879,-0.1628,2.687999,-4.727744,1.7912938999999999,-1
812,813,1583238183777,-0.536,-13.0288,-1.6682999,3.6526039,-4.3091803,0.41543230000000003,-1
813,814,1583238183787,0.195,-12.8011,-2.8379998,5.0011906999999995,-4.433314299999999,-0.42677125,-1
814,815,1583238183797,1.6819998999999999,-12.8258,-3.4678998,7.158672999999999,-4.6716432999999995,-0.7983705,-1
815,816,1583238183808,4.1084,-12.5412,-4.0089999999999995,10.2567215,-4.3214765,-1.1475792,-1
816,817,1583238183818,7.0329,-11.5425,-4.2292,13.528331,-3.4746763999999994,-0.81714106,-1
817,818,1583238183828,10.0043,-10.0946,-3.5507,16.767187,-2.137754,0.35513672,-1
818,819,1583238183838,12.4888,-8.1544,-2.4069998,19.368526,-0.20417751,1.9365165000000002,-1
819,820,1583238183848,13.8003,-6.2748,-1.7096,20.39582,0.9764415999999999,2.3644657000000002,-1
820,821,1583238183858,14.1356,-5.0508,-1.7432,20.299019,1.3562673,2.5635004,-1
821,822,1583238183869,13.9493,-4.4501,-1.7587,21.230985999999998,1.7358154,3.0050678,-1
822,823,1583238183879,15.5067,-3.4949,-1.4581,23.854649,2.6009648,3.7009857000000004,-1
823,824,1583238183890,18.3809,-1.9455999,-0.99619997,26.349981,3.8184261,4.1810994,-1
824,825,1583238183900,21.0971,0.1104,-0.8858,29.291821999999996,5.9595795,4.14104,-1
825,826,1583238183910,22.597599,1.8323,-1.3866999,29.57452,6.834086,3.5121982000000003,-1
826,827,1583238183920,22.4065,2.8432,-2.1585999,28.463103999999998,7.0394125,3.5281053,-1
827,828,1583238183931,20.8036,3.3779,-2.095,26.774729999999998,7.386275,4.0365470000000006,-1
828,829,1583238183941,19.6499,3.9383998,-1.8130000000000002,26.488221999999997,7.740817999999999,4.7169414000000005,-1
829,830,1583238183951,19.563,4.5848,-1.2032,26.801804999999998,8.249136,5.634256,-1
830,831,1583238183961,19.8934,5.3101997,-0.4533,26.843234999999996,8.378843,6.3051205,-1
831,832,1583238183971,19.8976,5.559,-0.0056,26.486624,8.1201935,6.424754,-1
832,833,1583238183981,19.41,5.5122,-0.096999995,25.421259,7.928628999999999,6.572955,-1
833,834,1583238183992,18.362999,5.5023,0.152,24.559338,7.8759565,7.4446745,-1
834,835,1583238184002,17.258999,5.736799700000001,1.1783,23.226936,8.236417999999999,8.863919000000001,-1
835,836,1583238184012,16.2727,6.2681,2.2968,22.355438,8.698068,9.897438000000001,-1
836,837,1583238184023,15.404098999999999,6.7549996,3.2228,21.521421,8.687676,10.512039,-1
837,838,1583238184033,14.571898999999998,6.7103996,3.7429,20.225851000000002,8.09833,10.941885000000001,-1
838,839,1583238184043,13.4157,6.2131,4.1179,19.022085,7.299815700000001,11.497867,-1
839,840,1583238184053,12.1788,5.4073997,4.7109,17.732426,6.5154176,12.358065,-1
840,841,1583238184063,10.8397,4.5849,5.6299,16.544508,5.9247203,13.120427,-1
841,842,1583238184074,9.6064,3.9245,6.4613,15.801166,5.470703,13.607223999999999,-1
842,843,1583238184084,8.6474,3.3005998,7.125099700000001,14.717531,4.961992700000001,14.323379000000001,-1
843,844,1583238184094,7.6895,2.7726998,7.8167995999999995,13.717291000000001,4.343005000000001,15.036457999999998,-1
844,845,1583238184104,6.6457996,2.0261,8.6348,12.55391,3.5081472000000002,16.0068,-1
845,846,1583238184114,5.4372997000000005,1.0392,9.6998,11.072522,2.6936495,17.144505,-1
846,847,1583238184124,3.9180998999999996,0.0462,10.9643,8.826148,1.9112433000000002,18.266417999999998,-1
847,848,1583238184134,0.2041,-1.5107,12.695,7.0746365,1.4761018999999997,18.624352,-1
848,849,1583238184145,-1.5446,-2.2566,12.602099,5.32752,0.9556312,18.274176,-1
849,850,1583238184155,-1.5446,-2.2566,12.602099,4.1926875,0.57927233,17.647966,-1
850,851,1583238184165,-4.138499700000001,-3.4255998,11.1677,2.7771208,0.34611538,16.675213,-1
851,852,1583238184175,-4.7235,-3.5293998999999996,10.7597,2.2387989,0.47766238,16.3071,-1
852,853,1583238184185,-4.8827,-3.4431998999999998,10.3824,1.9911522000000001,0.8049881,15.889110999999998,-1
853,854,1583238184195,-5.0389,-3.1392999,9.7631,1.734896,1.2721063999999997,15.192196,-1
854,855,1583238184205,-5.0389,-3.1392999,9.7631,1.3863098999999999,1.3236583,14.562597,-1
855,856,1583238184215,-6.1264997,-3.6924,8.4837,0.29831752,0.96950805,13.907745000000002,-1
856,857,1583238184225,-6.9487996,-4.2742,8.1083,-0.6284491999999999,0.6248005,13.456534,-1
857,858,1583238184235,-7.6320996,-4.6384,7.6221,-1.3454647,0.51868945,12.840171,-1
858,859,1583238184245,-7.7802,-4.7676,6.9543,-1.4924304,0.62678283,12.108234,-1
859,860,1583238184255,-7.4413996,-4.6874,6.2067,-1.2311368,0.9177071,11.265887,-1
860,861,1583238184265,-7.1857996,-4.6154,5.2736998,-1.144955,1.0877816999999999,10.312622,-1
861,862,1583238184275,-7.2036996,-4.8589997,4.8005,-1.3212066999999998,1.0109373,9.905242999999999,-1
862,863,1583238184286,-7.3545,-5.1156,4.5987,-1.5886198,0.87940943,9.631642999999999,-1
863,864,1583238184297,-7.4568,-5.4459,4.312999700000001,-1.7709432,0.69442385,9.090353,-1
864,865,1583238184307,-7.3767996,-5.6036,3.6511,-1.7117297999999999,0.7950951999999999,8.301349,-1
865,866,1583238184317,-7.027,-5.5277,2.5516,-1.2339046,1.0470994,6.851075,-1
866,867,1583238184327,-6.2483997,-5.4781,1.2990000000000002,-0.44031283,1.1944959,5.585308599999999,-1
867,868,1583238184337,-5.4289,-5.3722,0.3416,0.17484376,1.3869227,4.851208,-1
868,869,1583238184347,-4.5848,-5.2676,-0.1024,1.0964581,1.5680585,4.404575,-1
869,870,1583238184358,-3.8925998,-5.2746,-0.1103,1.6107327,1.6594307000000001,4.396281200000001,-1
870,871,1583238184368,-3.5886,-5.2125998,-0.17369999,1.8093653000000003,1.8272164,4.1774510000000005,-1
871,872,1583238184378,-3.3139999999999996,-5.0081,-0.5552,2.2372856,2.2233229,3.350101,-1
872,873,1583238184389,-2.8084,-4.6919,-1.3851,2.9607080000000003,2.5954677999999998,2.305396,-1
873,874,1583238184399,-1.8771,-4.3412,-2.3686,4.0350532999999995,3.0494852000000003,1.2340194,-1
874,875,1583238184409,-0.733,-3.9143,-3.3565,5.425338,3.5688066,0.21773829,-1
875,876,1583238184419,0.7176,-3.4099,-4.1814,6.736584700000001,4.0837517,-0.6645059,-1
876,877,1583238184429,1.7752,-2.9373,-4.9967,7.457478500000001,4.6165667,-1.4682491000000002,-1
877,878,1583238184439,2.2496,-2.4108,-5.5909,7.686958,5.1402645,-1.9070487,-1
878,879,1583238184449,2.3478,-1.9591999,-5.8757,7.664088700000001,5.514469,-2.080207,-1
879,880,1583238184460,2.2442,-1.6028999,-5.915499700000001,7.5224767,5.894496,-2.1215022,-1
880,881,1583238184470,2.1619,-1.3033,-5.9125,7.588805000000001,6.0210724,-2.072622,-1
881,882,1583238184480,2.3428,-1.2964,-5.6745,7.8066587,5.9620028,-1.7054759999999998,-1
882,883,1583238184490,2.5542,-1.2918999,-5.3834,8.187517999999999,6.154065599999999,-1.6125332,-1
883,884,1583238184500,3.0182,-1.0303999,-5.3968,8.767969,6.517572400000001,-1.7004578000000001,-1
884,885,1583238184510,3.5521,-0.6184,-5.4382,9.017665,7.026427,-1.6178961,-1
885,886,1583238184520,3.622,-0.23349999,-5.2878,8.954601,7.1110954,-1.3707284,-1
886,887,1583238184532,3.3966,-0.2101,-4.6622,8.332713,7.1149645,-0.23643221,-1
887,888,1583238184542,2.8312,-0.1856,-3.8511,7.530655,7.2131076,0.5527350000000001,-1
888,889,1583238184553,2.0584,-0.0668,-3.1439,7.001736999999999,7.3274064,1.0309241,-1
889,890,1583238184563,1.6152999,0.0508,-2.7667,6.7142897,7.415762400000001,1.349669,-1
890,891,1583238184573,1.4128,0.1086,-2.5277998,6.6616364,7.3887076,1.4895861000000001,-1
891,892,1583238184583,1.3630999,0.078499995,-2.392,6.7084,7.3198023,1.5684893999999998,-1
892,893,1583238184593,1.4296,0.021499999,-2.2979998999999998,6.671031500000001,7.323413,1.7186633000000002,-1
893,894,1583238184603,1.3607999,0.047599997000000005,-2.1369,6.36488,7.458120299999999,2.380775,-1
894,895,1583238184614,1.1001999,0.1681,-1.5807999,6.337845,7.484503999999999,3.3993545,-1
895,896,1583238184624,1.0879999,0.217,-0.6289,6.362208,7.421958,4.4537705999999995,-1
896,897,1583238184635,1.0110999,0.1048,0.8576,6.171524,7.277176400000001,5.05325,-1
897,898,1583238184645,0.8752,-0.1055,0.85429996,6.051776,7.0541034,5.029058999999999,-1
898,899,1583238184655,0.8053,-0.1946,0.4931,5.927909400000001,7.028974000000001,4.631727,-1
899,900,1583238184666,0.6821,0.0352,-0.0806,5.8329268,7.2741785000000005,4.0964217000000005,-1
900,901,1583238184676,0.76129997,0.2538,-0.42159998,5.943184400000001,7.508427,3.7986214,-1
901,902,1583238184686,0.9077,0.4445,-0.45949998,6.1265707,7.703525999999999,3.9429437999999997,d
902,903,1583238184697,1.0950999,0.5686,-0.1792,6.225633,7.729862,4.253759,-1
903,904,1583238184707,1.0606999,0.45659998,0.1472,6.076158,7.5234723,4.616356,-1
904,905,1583238184717,0.7739,0.19399999,0.3491,5.717018599999999,7.2732399999999995,4.7272553,-1
905,906,1583238184727,0.4585,0.024899999,0.3222,5.4450083,7.185525999999999,4.6663184,-1
906,907,1583238184737,0.2498,-0.0101,0.1943,5.2698584,7.1907167,4.579217400000001,-1
907,908,1583238184747,0.0686,0.1096,-0.0061,5.0481167000000005,7.354863000000001,4.2695513,-1
908,909,1583238184758,0.0122,0.22749999,-0.3477,5.126081500000001,7.4706564,3.926912,-1
909,910,1583238184768,0.27609998,0.267,-0.5679,5.3383226,7.4698806,3.771318,-1
910,911,1583238184778,0.30449998,0.2189,-0.6811,5.257466,7.386888000000001,3.7226293,-1
911,912,1583238184788,0.14919999,0.034199997999999995,-0.6609,5.084154,7.152706599999999,3.7666730000000004,-1
912,913,1583238184798,-0.0328,-0.2084,-0.63549995,4.7732339999999995,6.9097714,3.7037150000000003,-1
913,914,1583238184808,-0.0328,-0.2084,-0.63549995,4.5983515,6.876492,3.618443,-1
914,915,1583238184819,-0.4432,-0.28849998,-0.96529996,4.600382,7.022471400000001,3.3229892,-1
915,916,1583238184829,-0.17909999,-0.103599995,-1.2674,5.0014873,7.2768025,3.022967,-1
916,917,1583238184839,0.2271,0.0933,-1.4794999,5.3082995,7.373203,2.9190297000000003,-1
917,918,1583238184849,0.5155,0.1548,-1.4685999,5.4850970000000006,7.412985000000001,3.038807,-1
918,919,1583238184859,0.5789,0.1479,-1.2724999,5.4675139999999995,7.345764999999999,3.2800467,-1
919,920,1583238184869,0.4858,0.1007,-1.0749999,5.310751,7.343802,3.527358,-1
920,921,1583238184879,0.28329998,0.1594,-0.88229996,5.0775843,7.5133686,3.5544797999999993,-1
921,922,1583238184890,0.166,0.3726,-0.97669995,5.235803,7.7702575,3.367952,-1
922,923,1583238184900,0.46629998,0.6746,-1.1263,5.691735700000001,8.172157,3.2816940000000003,-1
923,924,1583238184910,0.95119995,1.1255,-1.2082,6.182222,8.69122,3.120363,-1
924,925,1583238184920,1.4865999,1.6566,-1.3632,6.9258313,9.174954,3.099342,-1
925,926,1583238184930,2.0760999,1.9541998999999999,-1.3306999,7.179924000000001,9.233976,3.2393452999999996,-1
926,927,1583238184941,2.3211,2.0760999,-1.0735999,7.3082720000000005,9.469872,3.7150733,-1
927,928,1583238184951,2.4176,2.296,-0.551,7.376928299999999,9.612672,4.338964,-1
928,929,1583238184961,2.4982,2.4157999,-0.0779,7.4544716,9.809197,4.884765,-1
929,930,1583238184971,2.6360997999999998,2.6095,0.45319998,7.7575965,10.071191,5.329253,-1
930,931,1583238184981,2.9842,2.9050999,0.8332,8.111977,10.363331,5.606684,-1
931,932,1583238184991,3.3267998999999997,3.1539,1.1434,8.334541999999999,10.587371000000001,5.893441999999999,-1
932,933,1583238185002,3.5491,3.3658997999999998,1.4484999,8.7133045,10.806555,6.0324116,-1
933,934,1583238185012,4.0085998,3.5437,1.6031,9.2472105,11.027244,6.183342,-1
934,935,1583238185022,4.532099700000001,3.7280998,1.8068,9.702981,11.238411,6.414717700000001,-1
935,936,1583238185032,4.9964,3.8890998,2.0853999,10.044969,11.267083999999999,6.695701,-1
936,937,1583238185042,5.3251,3.8388,2.4008,9.850483,11.128853,6.882496400000001,-1
937,938,1583238185053,5.1365,3.6717,2.5619,9.485023,11.071305,6.733759399999999,-1
938,939,1583238185062,4.7332997,3.5226,2.4089,8.874683000000001,10.960761,6.439148,-1
939,940,1583238185072,4.2099,3.3632,2.1904,8.177424,10.912455,6.210033,-1
940,941,1583238185082,3.5068998,3.2257,2.0204,7.644417999999999,10.776206,6.1539316,-1
941,942,1583238185092,2.9757,2.908,2.0815,6.9695883,10.389514,6.206795,-1
942,943,1583238185102,2.5265,2.4701,2.1968,6.514125,10.12009,6.159936,-1
943,944,1583238185113,2.1683,2.1573,2.2014,6.2431779999999995,9.845130000000001,5.921512,-1
944,945,1583238185123,2.0284,1.7936,1.9971,6.1177025,9.650903,5.344681700000001,-1
945,946,1583238185133,1.9719,1.5273,1.4417,5.7119718,9.623283,4.238675,-1
946,947,1583238185143,1.7178999,1.4293,0.5766,5.4648614,9.561981,3.5887167,-1
947,948,1583238185153,1.5697,1.2868,0.0033999997999999997,4.925974,9.52924,3.3917985,-1
948,949,1583238185164,1.1431999,1.179,-0.1308,4.2686987,9.619491,3.7626605000000004,-1
949,950,1583238185174,0.6033,1.1925,0.28689998,4.274732599999999,9.213377000000001,4.581161,-1
950,951,1583238185184,0.7288,0.7169,1.1705999,4.261478,8.835015,5.166333,-1
951,952,1583238185194,0.82379997,0.25759998,1.8355,4.142553299999999,8.593307000000001,5.093626,-1
952,953,1583238185205,0.8851,-0.5751,1.5155,4.0441709999999995,8.0619955,4.506807299999999,-1
953,954,1583238185215,0.8851,-0.5751,1.5155,3.6326169999999998,7.501436,3.8449922,-1
954,955,1583238185225,-0.41979998,-1.9779999,-0.0025,2.2529056,6.8116093,2.5992124,-1
955,956,1583238185235,-1.2893,-2.8265,-0.8267,1.2976669,6.0404177,1.7478726000000002,-1
956,957,1583238185245,-1.9548999,-3.6027,-1.3163999,0.5427559000000001,5.3774157,1.2307538,-1
957,958,1583238185255,-2.4341,-4.0604,-1.4038,-0.058475982,5.040992,1.2037854,-1
958,959,1583238185265,-2.7136,-4.2692,-0.8384,-0.38274667,4.912030000000001,1.8443493999999998,-1
959,960,1583238185275,-2.3353,-4.2421,-0.0718,0.049741935,5.0368447,2.563079,-1
960,961,1583238185285,-1.3866999,-3.8952,0.5262,0.9676597,5.4111733,3.093117,-1
961,962,1583238185296,-0.52599996,-3.8516,0.80979997,1.6676189,5.378908999999999,3.2676926,-1
962,963,1583238185306,-0.2557,-4.1348,0.7082,1.713961,5.148807,3.0462768,-1
963,964,1583238185316,-0.4439,-4.236000000000001,0.3994,1.4054155000000002,5.0792413,2.6908529,-1
964,965,1583238185326,-1.0605999,-4.496299700000001,0.25959998,0.59666383,4.8158407,2.5121686000000003,-1
965,966,1583238185337,-2.0269,-4.6382,0.2471,-0.6205388000000001,4.781708999999999,2.3662853,-1
966,967,1583238185346,-2.6908998,-4.6384,0.046099997999999996,-1.1045219,4.7714715,2.1058824,-1
967,968,1583238185356,-2.8418,-4.6712,-0.17379999,-1.2223645,4.809069999999999,1.8773414000000002,-1
968,969,1583238185366,-2.5312,-4.5201,-0.23089999,-0.9073353999999999,5.007501599999999,1.8676018,-1
969,970,1583238185376,-1.9935,-4.2251997,0.053,-0.43445185,5.319935299999999,2.1667907000000004,-1
970,971,1583238185386,-1.8046999,-3.8578,0.2659,-0.3606817,5.716730999999999,2.3580970000000003,-1
971,972,1583238185397,-1.5122,-3.2835998999999996,0.29299998,-0.06909666,6.317456,2.3801715,-1
972,973,1583238185407,-1.3515999,-2.9659,0.23249999,-0.032800563,6.5676303,2.2694924,-1
973,974,1583238185417,-1.3699,-2.8764,0.0596,-0.096438445,6.6599226,2.0261362000000003,-1
974,975,1583238185427,-1.4008,-2.8478,-0.17009999,-0.27300605,6.622132000000001,1.8031977,-1
975,976,1583238185438,-1.8255,-2.8876998,-0.3001,-0.7609443,6.714567,1.7292361,-1
976,977,1583238185448,-2.1059,-2.6508,-0.2324,-0.92914176,7.01617,1.8200052,-1
977,978,1583238185458,-2.0507998,-2.3023999,-0.0782,-0.81014997,7.4428644,1.9941306,-1
978,979,1583238185468,-1.8273,-1.7059,0.0469,-0.5594579000000001,8.049239,2.0550008,-1
979,980,1583238185478,-1.3655,-1.1956999,0.00049999997,-0.0009193735000000001,8.504567999999999,1.9687233,-1
980,981,1583238185488,-0.81979996,-0.82229996,-0.0854,0.626237,8.884547,1.8695556,-1
981,982,1583238185498,-0.39209998,-0.5474,-0.2076,0.74301654,9.043263,1.7133098999999998,-1
982,983,1583238185508,-0.4809,-0.4899,-0.49109998,0.66804934,9.029425,1.4221078999999999,-1
983,984,1583238185518,-0.4008,-0.48229998,-0.6829,0.7221295,9.144097,1.3032215,-1
984,985,1583238185528,-0.4181,-0.21,-0.7574,0.6582235,9.441697,1.2383195,-1
985,986,1583238185539,-0.49319997,-0.0744,-0.7466,0.5792149000000001,9.4759445,1.3415096000000002,-1
986,987,1583238185549,-0.5575,-0.0748,-0.50729996,0.40641096,9.468015,1.6122553,-1
987,988,1583238185559,-0.76809996,-0.0638,-0.3443,0.21701044,9.446218,1.8102272000000001,-1
988,989,1583238185569,-0.9007,-0.1498,-0.1564,0.035587415,9.272924,2.0217118000000003,-1
989,990,1583238185580,-1.036,-0.2549,0.069699995,0.0058131219999999996,9.348295,2.286913,-1
990,991,1583238185590,-0.951,-0.124699995,0.2987,0.32654038,9.542196,2.4473436,-1
991,992,1583238185600,-0.5481,0.083799995,0.3454,0.77539575,9.729969,2.35577,-1
992,993,1583238185610,-0.1283,0.2722,0.18949999,0.9846011,9.902130999999999,2.2384253,-1
993,994,1583238185620,-0.0315,0.4601,0.114599995,1.0375608,10.075002,2.216437,-1
994,995,1583238185630,0.0078,0.5589999999999999,0.0911,0.99479085,10.042307000000001,2.1624527000000002,-1
995,996,1583238185640,-0.1173,0.48049998,0.0018,0.75608885,10.028354,2.100347,-1
996,997,1583238185651,-0.3092,0.48929998,-0.0252,0.5813026,9.975384,2.0568109,-1
997,998,1583238185661,-0.4716,0.43879998,-0.0499,0.48784253,9.967665,2.0709364,d
998,999,1583238185671,-0.53679997,0.41759998,-0.0541,0.5550046999999999,9.913604,2.0343914,-1
999,1000,1583238185681,-0.4465,0.3477,-0.0689,0.6622266,9.813019,1.9728221999999997,-1
1000,1001,1583238185691,-0.3381,0.2489,-0.1443,0.8925105,9.801824,1.8714038,-1
1001,1002,1583238185701,-0.0648,0.25849998,-0.2412,1.242811,9.862291,1.7910544999999998,-1
1002,1003,1583238185711,0.26569998,0.3374,-0.3102,1.3235242,9.936435000000001,1.8372338,-1
1003,1004,1583238185722,0.27429998,0.3969,-0.2047,1.1962485,9.878264999999999,2.1443906000000004,-1
1004,1005,1583238185733,0.119799994,0.319,0.1151,0.7878264,9.696861,2.4751642000000005,-1
1005,1006,1583238185742,-0.22649999,0.1621,0.3665,0.5534819999999999,9.480119,2.4953902,-1
1006,1007,1583238185752,-0.55009997,-0.122999996,0.3752,0.1883662,9.227608,2.5719279999999998,-1
1007,1008,1583238185762,-0.86219996,-0.3403,0.5143,0.021490354,9.0675125,2.8048742,-1
1008,1009,1583238185773,-0.9690000000000001,-0.509,0.7538,-0.0006991069,8.873917,2.8704658,-1
1009,1010,1583238185782,-0.9791,-0.7078,0.7711,-0.2670397,8.652395,2.7502383999999997,-1
1010,1011,1583238185793,-1.3136,-0.94629997,0.6344,-0.7363510999999999,8.389561,2.6304712,-1
1011,1012,1583238185803,-1.7664,-1.2141,0.5466,-1.0251302,8.119466000000001,2.6443288,-1
1012,1013,1583238185813,-2.0159,-1.4907,0.6121,-1.1662443999999998,7.776808,2.9322457,-1
1013,1014,1583238185823,-2.1028,-1.7754999,0.86859995,-1.3056155,7.497528999999999,3.1958666,-1
1014,1015,1583238185834,-2.2412,-2.0591,1.1302999,-1.7498358,7.0219254,3.581151,-1
1015,1016,1583238185844,-2.6842,-2.5283,1.5062,-2.2027419999999998,6.4623623,4.184643299999999,-1
1016,1017,1583238185854,-3.1467998,-3.0853,2.0959,-3.0510077,5.547930200000001,4.989986,-1
1017,1018,1583238185864,-3.9919,-3.9957998,2.9036999,-4.131693,4.4341764,5.9288383,-1
1018,1019,1583238185874,-5.0741,-5.1039,3.8469,-5.5559273000000005,3.227882,6.8724318,-1
1019,1020,1583238185885,-7.5485997000000005,-7.1310997,5.4934,-6.8333387000000005,2.2012959999999997,7.714328999999999,-1
1020,1021,1583238185895,-8.7543,-8.334,6.2499,-7.930343,0.9771695,8.2751465,-1
1021,1022,1583238185905,-9.5623,-9.488299000000001,6.1024,-8.568264,-0.11686578,7.883646499999999,-1
1022,1023,1583238185915,-9.851299000000001,-10.4934,5.3299,-8.632753999999998,-1.1460757,6.997552400000001,-1
1023,1024,1583238185926,-9.851299000000001,-10.4934,5.3299,-8.008672,-1.8243339,6.3636446,-1
1024,1025,1583238185936,-8.200399,-11.7542,4.0024,-6.519477999999999,-2.1913936,5.5533795,-1
1025,1026,1583238185946,-7.5790997,-11.4263,3.5863998,-5.814280999999999,-1.801407,5.2547555,-1
1026,1027,1583238185956,-7.2565,-10.8902,4.1029,-5.146135299999999,-1.3312624,6.1122723,-1
1027,1028,1583238185966,-6.7622,-10.7251,4.9772,-4.4217744,-1.2838763000000002,6.6978464,-1
1028,1029,1583238185977,-6.7622,-10.7251,4.9772,-3.0811365,-1.1050007,6.8501844,-1
1029,1030,1583238185987,-3.4527,-9.9113,4.7890997,0.28369376,-0.3429359,5.8114360000000005,-1
1030,1031,1583238185997,-1.1682,-9.0349,3.5086,2.9134848,0.63167655,4.264744,-1
1031,1032,1583238186008,1.2656,-7.7616,1.7628,5.694389,1.9209349999999998,2.1412207999999997,-1
1032,1033,1583238186018,3.4861,-6.1491,-0.3775,8.040361,3.5928156,0.15817055,-1
1033,1034,1583238186028,5.5877,-4.1478,-1.7443,10.71932,5.545354,-0.78863084,-1
1034,1035,1583238186038,8.2577,-2.0999,-2.1346,13.632882,7.2980339999999995,-0.8842648999999999,-1
1035,1036,1583238186048,10.2773,-0.47100000000000003,-1.9402,15.333789000000001,8.668725,-0.43702802,-1
1036,1037,1583238186058,10.929299,0.9359,-1.7136999,15.860159,9.558074000000001,-0.29057947,-1
1037,1038,1583238186068,11.3109,1.9585999,-2.0930998,16.821382999999997,10.647494,-0.9308559999999999,-1
1038,1039,1583238186078,12.4855995,3.2900998999999995,-3.3418,18.509506,11.980375,-2.2626548,-1
1039,1040,1583238186088,14.431398999999999,4.9487,-4.762,21.549826,13.820682999999999,-3.7073351999999997,-1
1040,1041,1583238186098,16.9855,6.4802,-5.665499700000001,23.536171,14.723861999999999,-3.9465637000000005,-1
1041,1042,1583238186108,18.492199,7.3557,-5.5601997,24.276554,15.119709,-3.490679,-1
1042,1043,1583238186118,17.5116,7.3287997,-4.7528,22.455889000000003,14.716392,-2.583746,-1
1043,1044,1583238186129,14.868198999999999,6.7099,-4.205,19.207138,13.8615465,-2.5876725,-1
1044,1045,1583238186140,12.3046,6.1259,-4.7834,17.433666,13.526637,-3.6030054,-1
1045,1046,1583238186150,11.195499,5.9732,-6.0678,17.367826,13.451784,-4.950289700000001,-1
1046,1047,1583238186160,11.6456995,5.9188,-7.361799700000001,18.276004999999998,13.369356,-5.9641957,-1
1047,1048,1583238186170,12.5448,5.8069,-8.2218,18.864777,13.011510000000001,-6.479036,-1
1048,1049,1583238186181,12.799999,5.3473997,-8.4966,18.923063,12.440952000000001,-6.360503,-1
1049,1050,1583238186191,12.9361,4.7511,-8.2515,19.105767999999998,11.769666,-6.118641,-1
1050,1051,1583238186201,12.847799,3.9752998,-8.0218,18.116034,10.519309,-5.7353195999999995,-1
1051,1052,1583238186211,11.775499,2.8393,-7.6411,16.812676999999997,9.384926,-5.3897505,-1
1052,1053,1583238186221,10.5036,1.6780000000000002,-7.3001,15.522606,8.310868,-5.224818,-1
1053,1054,1583238186231,9.3712,0.68189996,-7.1373,14.195873,7.387376299999999,-5.1611805,-1
1054,1055,1583238186242,7.9441996,-0.38079998,-7.0386,12.673084,6.420396299999999,-5.1266940000000005,-1
1055,1056,1583238186252,6.4846,-1.3988999,-6.9487,11.215388,5.5589437,-4.9598665,-1
1056,1057,1583238186262,5.1257,-2.2992,-6.6963,10.057371,4.7572209999999995,-4.4450080000000005,-1
1057,1058,1583238186272,4.0986,-3.1467998,-6.0771,9.2122555,4.082459,-3.9683222999999996,-1
1058,1059,1583238186282,3.3516,-3.8321,-5.67,8.600719,3.4812841,-3.7325606,-1
1059,1060,1583238186292,2.8358998,-4.4818997000000005,-5.4105,8.115903,2.8783476,-3.3408499,-1
1060,1061,1583238186303,2.4342,-5.1050997,-4.9523,7.6703134,2.4341272999999997,-2.5556283,-1
1061,1062,1583238186313,1.9704,-5.5161,-4.1568,6.659252,2.1841536,-1.6534644,-1
1062,1063,1583238186324,1.1413,-5.7367,-3.4287998999999996,5.931635,1.955718,-0.9468014000000001,-1
1063,1064,1583238186334,0.4552,-5.9831,-2.7516,5.1037583,1.8135694,-0.33997667,-1
1064,1065,1583238186344,-0.3439,-6.148,-2.1785,4.159476000000001,1.4814075,0.086842485,-1
1065,1066,1583238186354,-1.2573,-6.4968996,-1.7823,3.3465385000000003,1.0160799999999999,0.41124722,-1
1066,1067,1583238186364,-2.5951998,-7.4911,-1.1496998999999999,2.7228587,0.4133733,0.8023640000000001,-1
1067,1068,1583238186374,-2.8757,-7.8743,-0.5633,2.4645528999999997,0.08459193,1.5534921999999998,-1
1068,1069,1583238186385,-3.3148,-7.7242,0.46089998,1.9871587,0.32604238,2.5900762000000004,-1
1069,1070,1583238186395,-3.9008,-7.1403,1.3073,1.4533379,0.8861515,3.5087504000000003,-1
1070,1071,1583238186405,-3.9008,-7.1403,1.3073,1.1791923,1.1640896,4.3370104000000005,-1
1071,1072,1583238186415,-4.6584997,-6.5204,3.2900998999999995,0.8108299,1.2936447,5.711579,-1
1072,1073,1583238186425,-4.9652,-6.7355,4.4165998,0.58355314,0.9350794,6.9306779999999995,-1
1073,1074,1583238186435,-5.2597,-7.4079999999999995,5.7113,0.28451738,0.10024044,8.369564,-1
1074,1075,1583238186445,-5.2597,-7.4079999999999995,5.7113,-0.50059885,-0.6038943,10.405766,-1
1075,1076,1583238186456,-7.1923,-8.2837,9.692699000000001,-1.6389748,-0.70149153,12.504226,-1
1076,1077,1583238186466,-8.1012,-7.8315997,11.1255,-2.355473,-0.25446534,13.780029,-1
1077,1078,1583238186476,-8.5157995,-6.9087,11.565,-2.501548,0.644385,14.135157000000001,-1
1078,1079,1583238186486,-8.0204,-5.9813,11.5447,-1.4861958999999998,1.439873,14.3082285,-1
1079,1080,1583238186497,-7.0115,-5.4895997,11.988,-0.29657456,1.6646788000000001,15.164786999999999,-1
1080,1081,1583238186507,-5.8156,-5.0831,12.9548,1.0924934,1.8858266,16.39264,-1
1081,1082,1583238186517,-4.7823997,-4.7502,14.131499,1.9541667,1.9440534,17.774420000000003,-1
1082,1083,1583238186527,-4.6949,-4.4252,15.063998999999999,1.6760944,2.2634687000000002,18.531313,-1
1083,1084,1583238186537,-5.4851,-3.6962,15.1915,1.0997333999999999,2.727848,18.557660000000002,-1
1084,1085,1583238186548,-6.1756997,-2.905,14.8757,0.54085976,3.4994226000000004,18.254773999999998,-1
1085,1086,1583238186558,-6.1993,-2.0537,14.544498999999998,1.1394101,4.0883675,18.159214000000002,-1
1086,1087,1583238186568,-5.016,-1.4375,14.4858,2.6470293999999996,4.3873935,18.25842,-1
1087,1088,1583238186578,-3.6989,-1.0620999,14.4199,4.2632685,4.4860444,18.235476000000002,-1
1088,1089,1583238186589,-2.4159,-0.7818,14.3303995,5.491935,4.597423,18.26141,-1
1089,1090,1583238186599,-0.927,-0.35639998,13.889199,7.164237,5.16369,17.458797,-1
1090,1091,1583238186609,0.2941,0.7208,12.7666,8.568043,6.4122753,16.415526999999997,-1
1091,1092,1583238186619,1.6651,2.1811,11.7087,10.275195,7.724365,15.658911999999999,-1
1092,1093,1583238186629,3.6620998,3.7656,10.822000000000001,12.270131,8.976686,15.1667595,-1
1093,1094,1583238186640,5.4414,5.0057,10.523,13.439620999999999,9.580283,15.302933,-1
1094,1095,1583238186649,6.4479,5.6003,10.6804,14.177341,9.745847,15.470623000000002,-1
1095,1096,1583238186659,6.7086997,5.5464997,10.4381,14.049443,9.368856,15.033710000000001,-1
1096,1097,1583238186669,6.455,5.2004,9.822499,13.592820999999999,8.770114,14.651069,-1
1097,1098,1583238186679,5.9272,4.6464,9.472999999999999,13.159863,8.451819,14.537669000000001,-1
1098,1099,1583238186689,6.1531997,4.7244,9.1466,14.700159,9.018889999999999,13.942920999999998,-1
1099,1100,1583238186700,8.4178,5.4986997,8.1265,17.086336,9.718993,12.674157000000001,-1
1100,1101,1583238186710,10.67,6.166,6.5964,18.828539000000003,10.246216,11.198917,-1
1101,1102,1583238186720,12.1275,6.5393996,5.1770997,19.818464000000002,10.422582,9.969016,-1
1102,1103,1583238186731,12.7226,6.5558,4.2715,19.492575,10.253657,9.436143,-1
1103,1104,1583238186741,12.2808,6.2334,3.7903,18.944532000000002,9.858911500000001,9.217121,-1
1104,1105,1583238186751,11.7064,5.5962,3.5428,18.379847,9.228183,8.791203,-1
1105,1106,1583238186761,11.4221,4.9860997000000005,3.0913,18.310337,9.004324,8.071237,-1
1106,1107,1583238186771,11.507,4.6544,2.3639997999999998,18.522427,8.799199,7.351549,-1
1107,1108,1583238186782,11.7226,4.2598,1.6976999,18.22133,8.560133,6.6996082999999995,-1
1108,1109,1583238186792,11.459499000000001,3.8488998,1.0879999,17.88168,8.186819,6.090782,-1
1109,1110,1583238186802,11.186,3.2531,0.5714,17.4033,7.662422,5.49567,-1
1110,1111,1583238186812,10.723499,2.491,0.0071,16.320814000000002,7.01572,4.2107205,-1
1111,1112,1583238186823,9.8678,1.7196,-0.9661,15.620375,6.5873103,3.1701338,-1
1112,1113,1583238186833,9.1214,0.92509997,-2.0972,14.691799,5.80638,1.9373688999999998,-1
1113,1114,1583238186843,8.398,0.0188,-2.8852,13.724953,5.409267400000001,1.3674434,-1
1114,1115,1583238186853,7.5133996,-0.6293,-3.2703998,12.555299,5.0703735,1.1136868999999998,-1
1115,1116,1583238186863,6.4409,-1.2017,-3.3197,11.401447000000001,4.399987,1.1610633,-1
1116,1117,1583238186873,5.3873,-2.0979,-3.0781,10.171632,3.9508160000000005,1.301603,-1
1117,1118,1583238186884,4.2723,-2.7667,-2.7628999,9.339369,3.5912452000000004,1.1647121,-1
1118,1119,1583238186894,3.5526,-3.3365,-2.7019,8.870642,3.0323808,0.8189702,-1
1119,1120,1583238186904,3.1955,-4.0927997000000005,-2.8502,8.622746000000001,2.7707043,0.23404758,-1
1120,1121,1583238186914,3.0224,-4.5766,-3.4557,8.538011000000001,2.5392616,-1.303547,-1
1121,1122,1583238186925,3.0811,-4.9558,-4.522599700000001,8.520638,2.0847943,-2.7941291,-1
1122,1123,1583238186935,3.1975,-5.558799700000001,-5.4888,8.288085,1.8172278000000002,-3.7572495999999997,-1
1123,1124,1583238186945,2.4786,-6.4519,-7.6614,7.500852,1.5314271000000002,-5.4944057,-1
1124,1125,1583238186955,2.0321,-6.6256,-8.592,6.982335000000001,1.5187954,-6.583958999999999,-1
1125,1126,1583238186965,1.8592999,-6.7402,-8.799,6.7431545,1.5096208,-6.815641,-1
1126,1127,1583238186976,1.7129999,-7.0017,-8.2733,6.455419,1.3480887,-6.393773,-1
1127,1128,1583238186985,1.7129999,-7.0017,-8.2733,6.096097,1.3290883,-6.095934400000001,-1
1128,1129,1583238186995,1.0525,-7.2837,-7.2922997,5.60882,1.2469769,-5.724986599999999,-1
1129,1130,1583238187005,1.1194998999999999,-7.4368,-6.9073997,5.7161756,1.1786367,-5.4936967,-1
1130,1131,1583238187015,1.6638998999999999,-7.2566,-6.9765,6.3710375,1.5286594999999998,-5.8780622000000005,-1
1131,1132,1583238187026,2.6968,-6.9210997,-7.5357,7.254326,1.815322,-6.501857,-1
1132,1133,1583238187036,3.4391,-6.9135,-7.950999700000001,7.845502000000001,1.8531792,-6.894601299999999,-1
1133,1134,1583238187046,3.7501,-6.8051,-7.68,8.006727,2.01587,-6.587110000000001,-1
1134,1135,1583238187056,3.6311998,-6.7732,-7.0281997,7.8096175,2.0418615,-6.007406,-1
1135,1136,1583238187066,3.3753,-6.8759,-6.5575,7.4325886,1.9568002,-5.6965814,-1
1136,1137,1583238187076,2.8818998,-6.9651,-6.6675,6.7897167000000005,1.9218256,-6.125297,-1
1137,1138,1583238187086,2.4891999,-6.9205,-7.3226,6.476431,2.0231578000000003,-6.715515600000001,-1
1138,1139,1583238187097,2.7587,-6.6322,-7.9572997,7.2060494,2.4998531,-7.318480999999999,-1
1139,1140,1583238187107,3.9717998999999997,-6.0308,-7.9771,8.591019000000001,3.2387322999999997,-7.0631537,-1
1140,1141,1583238187118,5.6619997,-5.1675997,-7.7022996,10.41245,4.056649,-6.87789,-1
1141,1142,1583238187128,7.495,-4.4783,-7.7492,12.056892999999999,4.679678,-6.9789257,-1
1142,1143,1583238187139,8.5135,-4.0174,-7.916599799999999,12.392503,4.884468,-7.085716199999999,-1
1143,1144,1583238187149,8.2021,-4.1624,-7.8917,11.486087,4.577417,-6.6045110000000005,-1
1144,1145,1583238187159,7.0039997000000005,-4.5501,-7.2583,9.813345,4.0466604,-5.584964,-1
1145,1146,1583238187170,5.1496,-5.1963,-6.1348,7.7886443,3.431724,-3.9436139999999997,-1
1146,1147,1583238187179,3.4503998999999994,-5.7226,-4.4066,6.721482000000001,3.101037,-2.2567458,-1
1147,1148,1583238187189,2.5175,-6.093499700000001,-2.3459,5.816253,2.7908058,0.36042312,-1
1148,1149,1583238187199,2.0779998,-6.2686,-0.45889997,5.5431422999999995,2.7115004000000003,2.3087382,-1
1149,1150,1583238187209,1.8525,-6.2197,1.2875999,5.1318564,2.8994452999999996,3.9999065000000003,-1
1150,1151,1583238187220,1.5081999,-5.9395,2.6641,5.144881,3.1772202999999997,4.9323907,-1
1151,1152,1583238187230,1.9502,-5.5164,3.5444,5.887189,3.5926622999999998,6.1633744,-1
1152,1153,1583238187240,2.5469,-5.2627,4.6349998,6.253415599999999,3.7209246,7.8110539999999995,-1
1153,1154,1583238187250,2.7289999,-5.0692997,6.5744996,6.2786599999999995,3.9552883999999997,9.869513000000001,-1
1154,1155,1583238187260,2.52,-4.6122,9.389299000000001,5.7853203,4.585691000000001,13.684567000000001,-1
1155,1156,1583238187270,1.8910999,-3.9236,12.3187,5.0748167,5.2593427,16.113782999999998,-1
1156,1157,1583238187281,1.1925,-3.2463,13.802199,4.236597,5.963956400000001,16.361753,-1
1157,1158,1583238187291,0.48709998,-2.6067,13.370899,3.6895607000000004,6.4365716,15.245807999999998,-1
1158,1159,1583238187301,-0.1158,-1.9926,11.6627,3.5162299,6.9701433,13.370410000000001,-1
1159,1160,1583238187311,0.0311,-1.4964,9.835899000000001,3.9477512999999997,7.5622582,11.858939999999999,-1
1160,1161,1583238187321,0.3028,-0.9748,8.8975,3.8882315000000003,7.9903994,11.9546795,-1
1161,1162,1583238187332,0.1192,-0.6006,9.189199,3.4612591,8.091731,12.489659,-1
1162,1163,1583238187342,-0.523,-0.442,9.759399,2.4155292999999998,8.286619,12.726494,-1
1163,1164,1583238187352,-1.4656999,-0.3236,9.6981,1.5679243999999999,8.234579,12.151608,-1
1164,1165,1583238187362,-2.2217,-0.384,8.9942,1.0259633,8.215321000000001,11.420007,-1
1165,1166,1583238187372,-2.6899998,-0.3872,8.2525,0.71854776,8.209439,10.91324,-1
1166,1167,1583238187382,-2.9148,-0.3419,7.731,0.74812096,8.425014,10.613391,-1
1167,1168,1583238187392,-2.8099,-0.061499998,7.3915,0.7883149,8.651141,10.375119999999999,-1
1168,1169,1583238187403,-2.8062,0.1096,7.1872997000000005,0.6371545,8.904639,10.210811,-1
1169,1170,1583238187413,-2.9417,0.32619998,7.0442,0.48123452,8.948587,9.940811,-1
1170,1171,1583238187423,-3.1371999,0.3712,6.6414,0.18995596,8.920748,9.1747055,-1
1171,1172,1583238187433,-3.4117,0.32279998,5.8022,0.18651788,8.790877,7.7592053,-1
1172,1173,1583238187443,-3.3641,0.183,4.6299,0.35034832,8.6810875,6.9062660000000005,-1
1173,1174,1583238187453,-3.1906,0.0634,3.8014997999999998,0.63208836,8.585042,6.471355,-1
1174,1175,1583238187463,-2.9004,-0.0334,3.3776,0.8395795,8.606849,6.393754,-1
1175,1176,1583238187473,-2.6611,-0.009000000000000001,3.2986998999999995,0.9925306999999999,8.685379,6.258740400000001,-1
1176,1177,1583238187483,-2.5023,0.085999995,3.1088998,1.2094454,8.829566,5.7144904,-1
1177,1178,1583238187495,-2.3167999,0.1906,2.6482,1.4377563999999998,8.816562,5.0877075,d
1178,1179,1583238187505,-1.9832,0.2003,1.5695,1.6002748,8.854265,4.512850299999999,-1
1179,1180,1583238187515,-1.9832,0.2003,1.5695,1.891362,8.903845,4.103633,-1
1180,1181,1583238187525,-1.1056,0.27699998,0.7967,2.5682697,8.963211,3.7429224999999997,-1
1181,1182,1583238187536,-0.5316,0.361,0.746,3.1331290000000003,9.012369,3.7253108,-1
1182,1183,1583238187546,-0.44169998,0.20989999,0.89309996,3.0370734,8.825306,3.9158223,-1
1183,1184,1583238187556,-1.0501,-0.1092,1.2801,2.3572450000000003,8.461913000000001,4.302639,-1
1184,1185,1583238187566,-1.8702999,-0.5284,1.5698999,1.3179983999999998,7.9789452999999995,4.4733934,-1
1185,1186,1583238187576,-2.6042,-0.8602,1.3353,0.8666052,7.8153733999999995,4.155204299999999,-1
1186,1187,1583238187586,-2.3456,-0.75839996,0.7116,1.3898245,8.031417,3.4757008999999996,-1
1187,1188,1583238187597,-1.0087,-0.2391,0.0050999997,2.8259242,8.571003,2.8067417000000003,-1
1188,1189,1583238187607,0.36409998,0.3042,-0.505,4.274895,9.122972,2.243099,-1
1189,1190,1583238187617,1.0372,0.58419997,-0.76199996,4.618510700000001,9.294731,2.2286474999999997,-1
1190,1191,1583238187628,0.8215,0.5204,-0.46469998,3.9856277,9.053674,2.745048,-1
1191,1192,1583238187638,0.8215,0.5204,-0.46469998,2.4689581,8.442931,4.082564,-1
1192,1193,1583238187648,-1.5015,-0.46339998,1.5367998999999999,1.4604151,7.9582977,4.978532,-1
1193,1194,1583238187659,-2.1785997999999998,-0.774,2.1139,1.3308218,8.025882000000001,4.9988823,-1
1194,1195,1583238187669,-1.9632,-0.5017,1.7774999,2.0940453999999997,8.557614,4.062289700000001,-1
1195,1196,1583238187679,-1.9632,-0.5017,1.7774999,3.148203,9.160214999999999,2.977372,-1
1196,1197,1583238187689,0.29799998,0.8495,-0.53139997,4.236894,9.872519500000001,1.9053729,-1
1197,1198,1583238187699,0.94979995,1.1716,-1.04,4.507372,9.721838,1.969116,-1
1198,1199,1583238187710,0.8501,0.8412,-0.5395,3.9124513,9.388392,3.05775,-1
1199,1200,1583238187720,0.0849,0.5815,0.75509995,3.061935,9.190335000000001,4.512926599999999,-1
1200,1201,1583238187730,-0.7653,0.3992,2.1478999,2.350244,9.069714999999999,5.6163087,-1
1201,1202,1583238187740,-1.3765999,0.4782,3.2647,2.3047447,9.461780000000001,6.365665,-1
1202,1203,1583238187750,-0.8143,0.96459997,3.2724998,3.3965870000000002,10.112542999999999,5.509614,-1
1203,1204,1583238187760,0.6271,1.6926,1.9825,5.047466,10.744028,3.8706675,-1
1204,1205,1583238187771,2.0657,2.174,0.3971,6.102073000000001,11.199137,2.482586,-1
1205,1206,1583238187781,2.662,2.4884999,-0.3962,6.0582970000000005,11.276402000000001,2.5802023,-1
1206,1207,1583238187791,2.4909,2.5184,-0.092,5.149966200000001,11.095794,3.7217004,-1
1207,1208,1583238187801,1.4915,2.292,1.2184,4.069376999999999,10.899853,5.1071485999999995,-1
1208,1209,1583238187812,0.5193,2.0918999,2.4414,3.4191498999999994,10.803289,5.5235,-1
1209,1210,1583238187822,0.0376,2.0063999,2.6348999,3.556376,10.925594,4.868341,-1
1210,1211,1583238187832,0.38509998,2.194,1.8582,4.481179,11.237751,4.0235133,-1
1211,1212,1583238187842,1.4043,2.4515998,1.1129999,5.456041,11.412239999999999,3.6526803999999995,-1
1212,1213,1583238187852,2.3664,2.5741,0.889,6.167406,11.091762,4.3532624,-1
1213,1214,1583238187863,2.9457998,2.2364,1.5738,5.7485833,10.429067,5.461355999999999,-1
1214,1215,1583238187873,2.5881998999999998,1.5524,2.6743,4.7093086,9.766667,6.2173110000000005,-1
1215,1216,1583238187883,1.3026,0.71419996,3.5683,2.867363,9.030775,6.855586,-1
1216,1217,1583238187893,-0.15519999,0.093399994,4.0934,1.9582941999999999,8.782267,6.7077293000000004,-1
1217,1218,1583238187903,-0.9923,-0.1805,4.002,2.0770082,8.86886,5.7645764,-1
1218,1219,1583238187913,-0.83269995,-0.1339,3.135,2.9069917000000003,9.035794000000001,4.575655,-1
1219,1220,1583238187923,0.0409,-0.0187,2.0503,3.7905383,9.034041,3.3512695,-1
1220,1221,1583238187933,0.96019995,-0.0585,0.9289,4.1596093000000005,9.059669,2.2701627999999996,-1
1221,1222,1583238187943,1.4229,-0.0568,-0.2987,4.1634398,9.09877,1.0846978,-1
1222,1223,1583238187954,1.4232999,-0.062,-1.1508,3.380814,8.950101,1.0490146999999999,-1
1223,1224,1583238187964,0.70669997,-0.2409,-1.1288999,2.389825,8.767221000000001,1.5394142,-1
1224,1225,1583238187974,-0.22109999,-0.45659998,-0.5895,1.8734148999999998,8.648374,1.9382689999999998,-1
1225,1226,1583238187985,-0.74539995,-0.8032,0.024799999,1.7487631999999997,8.459192999999999,2.0281665,-1
1226,1227,1583238187995,-0.6615,-0.8569,-0.30949998,1.8366784,8.439225,1.53159,-1
1227,1228,1583238188005,-0.3204,-0.87049997,-1.0379,2.1893826,8.485375999999999,0.711145,-1
1228,1229,1583238188015,0.1801,-0.6667,-1.7327,2.6441467,8.72495,-0.029793445,-1
1229,1230,1583238188025,0.5007,-0.4612,-2.2512,2.8807897999999996,8.93201,-0.5874891999999999,-1
1230,1231,1583238188036,0.66459996,-0.3624,-2.5281,3.0516686,9.031130000000001,-0.8932191999999999,-1
1231,1232,1583238188046,0.8499,-0.36069998,-2.5254,3.1543798,9.027481,-0.8996548000000001,-1
1232,1233,1583238188056,0.7637,-0.47649997,-2.4176,2.9438624,8.89194,-0.8397136000000001,-1
1233,1234,1583238188066,0.50519997,-0.6022,-2.3604998999999998,2.6798682,8.826397,-0.8835562,-1
1234,1235,1583238188077,0.2879,-0.73749995,-2.5205,2.459439,8.686125,-1.1093485,-1
1235,1236,1583238188086,0.1971,-0.8815,-2.6834998,2.3317034,8.579104,-1.3248746,-1
1236,1237,1583238188096,0.1431,-0.9256,-2.7635,2.286204,8.565601,-1.4131535,-1
1237,1238,1583238188106,0.2625,-0.9578,-2.5856,2.3768293999999996,8.541764,-1.2009125,-1
1238,1239,1583238188116,0.3398,-0.9586,-2.083,2.3827,8.542799,-0.70008373,-1
1239,1240,1583238188126,0.2005,-1.0365,-1.6854,2.1970822999999995,8.465169,-0.41457996,-1
1240,1241,1583238188137,0.0313,-1.1431999,-1.5847,2.0101526,8.3505535,-0.36016455,-1
1241,1242,1583238188146,-0.1099,-1.2298,-1.7786,1.8440523999999998,8.284130000000001,-0.6741593000000001,-1
1242,1243,1583238188156,-0.18519999,-1.2275,-2.237,1.790317,8.3398,-1.1245278,-1
1243,1244,1583238188166,0.0005999999700000001,-1.1258,-2.4443998,2.0543497,8.476557000000001,-1.2781111,-1
1244,1245,1583238188177,0.42859998,-0.95379996,-2.3950999,2.4703180000000002,8.658659,-1.1929541000000001,-1
1245,1246,1583238188186,0.6511,-0.83959997,-2.1292,2.590507,8.720161000000001,-0.8323298000000001,-1
1246,1247,1583238188196,0.5638,-0.87229997,-1.6257,2.3587482000000004,8.677315,-0.3611031,-1
1247,1248,1583238188206,-0.0879,-0.98389995,-1.1935999,1.6304610000000002,8.550605000000001,0.05467399,-1
1248,1249,1583238188216,-0.7782,-1.0958999,-0.86719996,0.9846298000000001,8.455152499999999,0.39373127,-1
1249,1250,1583238188226,-1.1302999,-1.129,-0.62409997,0.6301922,8.435587,0.6005136999999999,-1
1250,1251,1583238188237,-1.2852,-1.1121,-0.65,0.61754125,8.52287,0.46991476,-1
1251,1252,1583238188247,-0.9794,-1.0152,-0.91749996,1.0361626,8.580981,0.06810067,-1
1252,1253,1583238188257,-0.5062,-0.8774,-1.4207,1.4876419,8.817988,-0.43130106,-1
1253,1254,1583238188267,-0.0579,-0.57089996,-1.7249999,2.0303023000000002,9.139951,-0.5700499,-1
1254,1255,1583238188277,0.5458,-0.2628,-1.6581,2.475327,9.364001,-0.44241974,-1
1255,1256,1583238188288,0.6432,-0.0914,-1.4539,2.4077816000000003,9.499684,-0.12407711,-1
1256,1257,1583238188298,0.40399998,-0.0481,-1.1661999,2.167806,9.470858999999999,0.22607969,-1
1257,1258,1583238188308,0.0703,-0.1918,-0.7802,1.7958716000000001,9.3368025,0.6963583000000001,-1
1258,1259,1583238188318,-0.2042,-0.25779998,-0.2411,1.6203382,9.223662,1.3050985000000002,-1
1259,1260,1583238188328,-0.22829999,-0.38299999999999995,0.0919,1.6669581000000002,9.152784,1.4049271,-1
1260,1261,1583238188339,-0.1856,-0.3136,-0.0611,1.6661728999999998,9.304893,0.9969073,-1
1261,1262,1583238188349,-0.18689999,-0.19559999,-0.46899998,1.8131386000000003,9.42238,0.57263553,-1
1262,1263,1583238188359,0.0641,-0.0771,-0.8477,2.1083627000000003,9.541488000000001,0.28509194,-1
1263,1264,1583238188369,0.40199998,0.0918,-1.1460999,2.5048137,9.771111,0.037656005,-1
1264,1265,1583238188379,0.73139995,0.3012,-1.1905,2.8803202999999997,9.9322405,0.2682272,-1
1265,1266,1583238188390,1.0444,0.4524,-0.87149996,3.0567827000000003,10.040085000000001,0.6141989000000001,-1
1266,1267,1583238188400,1.1080999,0.5244,-0.5067,2.95546,10.039741000000001,1.0945811,-1
1267,1268,1583238188410,0.963,0.47709998,-0.0222,2.7693252999999998,9.939011,1.5707017,-1
1268,1269,1583238188420,0.7057,0.3394,0.4012,2.3750672,9.799161,1.8557457,d
1269,1270,1583238188430,0.28509998,0.2094,0.5797,2.03397,9.6896305,1.8441386000000002,-1
1270,1271,1583238188440,0.051099997,0.1078,0.4525,1.8598255000000001,9.601592,1.589252,-1
1271,1272,1583238188451,-0.0777,0.103999995,0.1541,1.8593084,9.822462,1.1861066999999998,-1
1272,1273,1583238188461,0.0058,0.3168,-0.1255,2.2095225,10.016641,1.0988716,-1
1273,1274,1583238188471,0.4015,0.5015,-0.168,2.5202708,10.060302,1.1682841999999998,-1
1274,1275,1583238188481,0.65209997,0.4913,-0.0747,2.4602817999999997,9.935698,1.3372958000000001,-1
1275,1276,1583238188491,0.5355,0.3539,0.0963,2.2052896,9.796978,1.5748581,-1
1276,1277,1583238188501,0.29709998,0.24569999,0.3105,2.0784447,9.67833,1.8256267,-1
1277,1278,1583238188512,0.20879999,0.0879,0.55439997,1.838699,9.557021,2.0596266,-1
1278,1279,1583238188522,-0.0633,-0.011899999,0.7335,1.5023233,9.465983999999999,2.1338944,-1
1279,1280,1583238188532,-0.32349998,-0.0932,0.7705,1.4028299,9.406837,2.2524076,-1
1280,1281,1583238188543,-0.37739998,-0.1652,0.9191,1.2921028,9.283717999999999,2.453913,-1
1281,1282,1583238188553,-0.5094,-0.30609998,1.0988,1.0282712999999999,9.188295,2.5878257999999996,-1
1282,1283,1583238188563,-0.7671,-0.3985,1.2214999,0.6734698,9.092125,2.6705213,-1
1283,1284,1583238188573,-1.0142,-0.4815,1.2779,0.53946155,8.996089,2.5505527999999997,-1
1284,1285,1583238188583,-1.1724,-0.6139,1.1113,0.25283727,8.735149,2.2060173,-1
1285,1286,1583238188593,-1.3780999,-0.8445,0.8170000000000001,-0.024363395,8.558946,2.0685808999999997,-1
1286,1287,1583238188604,-1.6015999,-1.0253999,0.664,-0.45877692,8.34498,2.1819415,-1
1287,1288,1583238188614,-1.9993999,-1.2444998999999999,0.7659999999999999,-0.9880296000000001,7.9625497,2.4785736000000003,-1
1288,1289,1583238188624,-2.5033998,-1.6287999,1.0346,-1.5099465,7.5609850000000005,3.1641865,-1
1289,1290,1583238188634,-2.9887998,-2.0314,1.6984999,-1.9452026000000002,7.090600500000001,3.928339,-1
1290,1291,1583238188645,-3.3999998999999996,-2.5017998,2.4313,-2.3890972,6.731154400000001,4.4628973,-1
1291,1292,1583238188655,-3.9585,-3.1097,3.1476,-2.5787947,6.4105706,4.7177553,-1
1292,1293,1583238188665,-4.1443,-3.4922,3.3739998,-2.8317947,6.0019860000000005,4.974844999999999,-1
1293,1294,1583238188676,-4.1443,-3.4922,3.3739998,-3.6810372000000005,5.399346400000001,5.2360425,-1
1294,1295,1583238188685,-5.9502997,-4.7844,3.9124,-4.8064175,4.648285400000001,5.5538682999999995,-1
1295,1296,1583238188695,-5.9502997,-4.7844,3.9124,-5.993558,3.8690875,5.947915,-1
1296,1297,1583238188705,-8.1746,-6.3992,4.9119,-6.948605499999999,2.995788,6.776022,-1
1297,1298,1583238188715,-8.9230995,-7.2589999999999995,5.7978997,-7.668034,2.1281578999999997,7.6884136,-1
1298,1299,1583238188726,-9.674399000000001,-8.007299,6.5873,-8.314143,1.4155766,8.500067999999999,-1
1299,1300,1583238188735,-9.9741,-8.6057,7.1635,-8.434427000000001,0.81396157,9.045303,-1
1300,1301,1583238188745,-9.8171,-9.035,7.3684997999999995,-8.078688,0.40810606,9.203503,-1
1301,1302,1583238188755,-9.1944,-9.1473,7.2739997,-7.2477655,0.34501404,9.055427,-1
1302,1303,1583238188766,-8.3758,-9.039,6.883599799999999,-6.239797599999999,0.43569684,8.5921,-1
1303,1304,1583238188776,-7.8325996,-8.9825,6.5957,-5.603763,0.40769425,8.376536,-1
1304,1305,1583238188786,-7.5875998,-9.2994995,6.7127,-5.1431856,-0.07044699,8.486621000000001,-1
1305,1306,1583238188796,-7.1626,-9.9586,6.6537,-4.160183999999999,-0.9181285,8.159439,-1
1306,1307,1583238188806,-5.973,-10.3792,5.7160997,-2.7701008,-1.207913,7.175451299999999,-1
1307,1308,1583238188816,-4.2482,-10.342199,4.1533,-0.21072806,-0.97978395,5.2268963,-1
1308,1309,1583238188827,-1.6933999,-9.392999999999999,2.4199,3.1975713,0.21818839,3.4549095999999997,-1
1309,1310,1583238188837,1.8879,-7.7732997,0.4845,7.1087869999999995,1.7565491999999998,1.4626466,-1
1310,1311,1583238188847,5.3009,-6.0144,-1.3686,10.716073,3.5061839,0.019325996,-1
1311,1312,1583238188857,8.2471,-3.9842,-2.2456,13.153045,4.9393053,-0.39802167,-1
1312,1313,1583238188867,10.6839,-2.516,-2.0915,16.206217000000002,6.2070065,0.13150871,-1
1313,1314,1583238188877,12.427099,-1.6886,-1.6848999,18.021442,6.769481,0.42614874,-1
1314,1315,1583238188888,14.101299,-0.9892,-1.8326,20.135468,7.405294400000001,-0.02528277,-1
1315,1316,1583238188898,15.8889,-0.19319999,-3.0353,21.752615,7.9663520000000005,-1.5343673,-1
1316,1317,1583238188908,16.991,0.5429999999999999,-5.059,22.939718,8.723791,-3.6395410000000004,-1
1317,1318,1583238188918,17.9511,1.5439,-7.3121996,23.860058,9.477658,-5.621605000000001,-1
1318,1319,1583238188928,18.5606,2.1612,-8.7706995,24.424879999999998,9.779575999999999,-6.436783,-1
1319,1320,1583238188939,18.4292,2.2639,-8.776199,24.115414,9.691258,-5.9449559999999995,-1
1320,1321,1583238188949,17.814498999999998,2.2307,-8.1131,23.261421,9.501141,-5.247937,-1
1321,1322,1583238188959,17.0177,2.1798,-8.0749,22.441944,9.564347,-5.6672096,-1
1322,1323,1583238188969,16.1222,2.3507,-8.8218,21.719316,9.67698,-6.4276656999999995,-1
1323,1324,1583238188979,15.5171995,2.4735,-9.7027,21.102655,9.570544,-7.216717699999999,-1
1324,1325,1583238188990,14.6909,2.2472,-10.5151,19.81829,9.105522,-7.5944652999999995,-1
1325,1326,1583238189000,13.280498999999999,1.7208999,-10.7581,18.370767999999998,8.421384,-7.373125999999999,-1
1326,1327,1583238189010,11.9191,0.94619995,-10.418699,17.071358,7.563206699999999,-6.7579503,-1
1327,1328,1583238189020,10.7568,0.1505,-9.8905,16.10931,6.8132277000000006,-6.008479,-1
1328,1329,1583238189030,9.9737,-0.4791,-9.213799,15.380179,6.349653,-5.3144290000000005,-1
1329,1330,1583238189041,9.1454,-0.8743,-8.6394,13.952679999999999,5.751332,-4.407428299999999,-1
1330,1331,1583238189051,7.9087,-1.3498,-7.9413996,12.93093,5.409057,-3.7685977999999993,-1
1331,1332,1583238189061,6.9967,-1.6281999,-7.3967,12.433204,5.141548,-3.1800650000000004,-1
