,Seq,Time,ACCx,ACCy,ACCz,ADGx,ADGy,ADGz,Keydown
0,1,1580695371585,0.018000000000000002,-0.1249,-0.5086,0.007067683000000001,2.593706,8.393697999999999,-1
1,2,1580695371596,-0.0279,-0.3261,-0.6627,0.35181355,3.995932,8.099651,-1
2,3,1580695371606,0.0376,-0.479,-0.67969996,0.43646297,3.7570580000000002,8.260485000000001,-1
3,4,1580695371616,0.0791,-0.6719,-0.48529997,0.41225280000000003,3.5984945,8.391945,-1
4,5,1580695371627,-0.114999995,-0.8170000000000001,-0.2166,0.10914686,3.4983980000000003,8.719558000000001,-1
5,6,1580695371637,-0.3288,-0.779,-0.068799995,-0.12566686,3.6060796,8.573578999999999,-1
6,7,1580695371647,-0.5087,-0.65959996,-0.2755,-0.15693514,3.6334405,8.457661,-1
7,8,1580695371657,-0.4766,-0.6342,-0.3766,-0.17744866,3.5842159,8.546227,-1
8,9,1580695371667,-0.5182,-0.65059996,-0.2654,-0.3244718,3.6163745,8.720372,-1
9,10,1580695371677,-0.7029,-0.5236,-0.0786,-0.5146384,3.7103517,8.843013000000001,-1
10,11,1580695371687,-0.6979,-0.3744,-0.0513,-0.5725398,3.6892636,8.95237,-1
11,12,1580695371698,-0.5395,-0.32999998,0.0074,-0.43411663,3.7905865,9.005005,-1
12,13,1580695371708,-0.2599,-0.1375,0.023799999,-0.04297113,3.9675562000000006,9.16194,-1
13,14,1580695371718,0.27969998,0.13069999,0.21149999,0.6512995,4.0305905,9.652578,-1
14,15,1580695371729,0.9497,0.22839999,0.7378,1.118188,4.156333999999999,10.229964,-1
15,16,1580695371739,1.3112999,0.3734,1.2649,1.1613793,4.272414700000001,10.619348,-1
16,17,1580695371749,1.202,0.50909996,1.6352999,0.8533318000000001,4.266879599999999,10.985383,-1
17,18,1580695371759,0.8408,0.48839998,1.9763998999999999,0.45274353,4.105586499999999,11.288173,-1
18,19,1580695371769,0.4066,0.35779998,2.2498999,0.039619252,4.0417190000000005,11.452674,-1
19,20,1580695371779,0.060399997999999996,0.35079998,2.378,0.15087302,3.9066093,11.7931,-1
20,21,1580695371790,0.1775,0.2225,2.6938999,0.46929225,3.743727,12.441536,-1
21,22,1580695371799,0.5585,0.046699997,3.5191998,0.8596046,3.6860267999999996,13.3919,-1
22,23,1580695371809,0.9079,0.0499,4.5299997,1.165392,3.7762879999999996,14.691895,-1
23,24,1580695371819,1.1739,0.19049999,5.7762,1.4228931999999999,3.9661769999999996,15.531119,-1
24,25,1580695371829,1.3419999999999999,0.3724,6.398,1.6670346999999999,3.8362582,15.699413,-1
25,26,1580695371840,1.5805999,0.2365,6.5642,1.720866,3.6219482000000003,15.694567000000001,-1
26,27,1580695371851,1.2514,-0.23959999,6.4544,1.2453296,3.3398347000000004,15.508901999999999,-1
27,28,1580695371861,1.2514,-0.23959999,6.4544,0.9886808000000001,3.1724322,15.239676999999999,-1
28,29,1580695371871,0.4299,-0.8512,5.5385,0.42285433,2.8703797000000004,14.544804000000001,-1
29,30,1580695371881,0.044299997,-1.1154,5.1689,0.09581595,2.7153215,14.211617000000002,-1
30,31,1580695371891,-0.2931,-1.3715,4.5698,-0.3180745,2.5610106,13.442160000000001,-1
31,32,1580695371901,-0.3633,-1.4290999,3.8672,-0.31424376,2.6229245999999997,12.679788,-1
32,33,1580695371912,-0.0861,-1.3319,3.2257,-0.08377791,2.7831829,12.139158,-1
33,34,1580695371922,0.1305,-1.3206999,2.6922998,0.14340311,2.8936896,11.566483999999999,-1
34,35,1580695371932,0.1435,-1.4323,2.2659,0.06475837,2.8683016,11.047805,-1
35,36,1580695371942,-0.114,-1.6747999,2.1318998,-0.2869786,2.6679356,10.876762,-1
36,37,1580695371952,-0.4276,-1.9425999,1.9678999,-0.65217096,2.5136914,10.657291,-1
37,38,1580695371962,-0.73899996,-2.0913,1.6577,-1.034027,2.4345392999999995,10.241695,-1
38,39,1580695371973,-0.9648,-2.3323998,1.0573,-1.3781406999999999,2.353912,9.330969999999999,-1
39,40,1580695371983,-0.9884,-2.2591,0.0222,-1.273045,2.5642476000000003,8.103348,-1
40,41,1580695371993,-0.57559997,-2.1597,-1.1903,-0.9185499,2.7464464,7.1065845,-1
41,42,1580695372003,-0.022799998999999998,-1.9647,-2.1794,-0.3747213,3.0605655,6.1080685,-1
42,43,1580695372013,0.5087,-1.8247,-3.0263,0.2299104,3.2709582000000004,5.0121555,-1
43,44,1580695372023,0.7137,-1.8493998999999999,-3.8916998,0.19377711,3.393618,4.19987,-1
44,45,1580695372034,0.4716,-1.8637999,-4.8781,-0.14576857,3.4086727999999997,3.0723162,-1
45,46,1580695372044,0.2696,-2.0417,-5.3334,-0.3324493,3.3868089999999995,2.7680228,-1
46,47,1580695372054,0.0797,-2.12,-5.6962,-0.5576766,3.4319830000000002,2.1814435000000003,-1
47,48,1580695372064,0.0404,-2.0063,-6.2697997,-0.6259784,3.7169309999999998,1.4838209,-1
48,49,1580695372074,0.2571,-1.699,-7.1447997,-0.35508883,3.9857519,0.62332565,-1
49,50,1580695372085,0.77309996,-1.6739998999999999,-8.3672,0.21057484,4.020621299999999,-0.98856586,-1
50,51,1580695372095,0.99859995,-1.8012999,-9.695399,0.039303213,4.056103,-2.6476995999999997,-1
51,52,1580695372105,0.6114,-1.8234999,-10.909699,-0.45787669999999997,4.1155175999999996,-3.497833,-1
52,53,1580695372116,-0.0088,-1.8477999,-11.5961,-1.0330024,4.2416444,-4.1205172999999995,-1
53,54,1580695372126,-0.1574,-1.6932,-11.965,-0.93294376,4.5354323,-4.5865436,-1
54,55,1580695372136,-0.0444,-1.4613,-12.3875,-0.96528465,4.6563773,-4.893968599999999,-1
55,56,1580695372146,-0.12079999599999999,-1.4187,-12.5977,-1.1510652,4.7114825,-5.055855,-1
56,57,1580695372157,-0.3545,-1.3808999,-12.7116995,-1.4732385000000001,4.588928,-5.0969973,-1
57,58,1580695372167,-0.615,-1.6166999,-12.746799000000001,-1.630097,4.174032,-5.1656528,-1
58,59,1580695372177,-0.6753,-2.0908,-12.8972,-1.306085,3.573825,-5.379733,-1
59,60,1580695372187,-0.3058,-2.5877,-13.0845995,-0.78819996,2.9960560000000003,-5.432702,-1
60,61,1580695372197,0.1999,-3.1324,-13.086599,-0.23795493,2.4858038,-4.986816,-1
61,62,1580695372208,0.64,-3.531,-12.604000000000001,-0.08219773,2.304534,-4.5193048,-1
62,63,1580695372217,0.61439997,-3.7487998,-11.7758,-0.40843168,1.9941881000000001,-3.3760638,-1
63,64,1580695372227,0.022799998999999998,-3.8414998,-10.8861,-1.0796893,1.6988202000000001,-2.2960107000000005,-1
64,65,1580695372237,-0.5025,-4.0264997000000005,-10.1282,-1.3954173,1.2376107,-1.6313802,-1
65,66,1580695372247,-0.82729995,-4.3897,-9.6140995,-1.717495,0.40206307,-0.9482954,-1
66,67,1580695372258,-1.1874,-5.1663,-8.965199,-1.7396748,-0.41706038,-0.12135729,-1
67,68,1580695372268,-1.1304,-5.8631,-8.0401,-1.243443,-1.0332608,0.9210398000000001,-1
68,69,1580695372278,-0.7493,-6.1284,-7.3374,-0.6279225,-1.3374012,1.6061838,-1
69,70,1580695372289,-0.308,-6.1405997,-6.83,-0.28097394,-0.87562656,2.0352436999999997,-1
70,71,1580695372299,-0.0924,-5.4549,-6.4944,0.15346833,-0.72636247,2.7647092,-1
71,72,1580695372309,0.2251,-5.2163,-5.8058996,0.36321953,-1.202234,4.062787999999999,-1
72,73,1580695372319,0.2738,-5.3926997000000005,-4.8031,0.26332387,-1.5998056,5.4888415,-1
73,74,1580695372329,0.0689,-5.6359997,-3.0788,0.2539865,-2.4258914000000003,7.8461914,-1
74,75,1580695372339,0.0492,-6.2035,-0.8109999999999999,0.33745795,-3.199257,9.833341,-1
75,76,1580695372350,0.033099998,-6.5916,0.8606,0.45177627,-3.5439355000000003,11.048571,-1
76,77,1580695372360,0.0208,-6.5344,1.7035999,0.7979970000000001,-3.29084,11.479622,-1
77,78,1580695372370,0.2778,-5.9688,2.0486,1.3071766000000002,-2.9800725,12.138622,-1
78,79,1580695372380,0.7043,-5.3508,2.6355,1.5450646000000001,-2.763723,13.412414000000002,-1
79,80,1580695372390,0.91209996,-4.792,3.8332998999999996,1.9398205000000002,-2.9578254,15.260383,-1
80,81,1580695372400,1.3044,-4.532099700000001,5.5927997000000005,2.136921,-3.5981882000000005,17.420088,-1
81,82,1580695372411,1.1699,-5.3192,9.0727,1.6331903,-4.5565677,18.910803,-1
82,83,1580695372421,-0.010799999,-5.4002,8.665,0.308287,-4.7953367,18.189363,-1
83,84,1580695372431,-0.64959997,-4.8276,6.9865,0.0320823,-4.386656299999999,16.395138,-1
84,85,1580695372441,0.1468,-3.9850998,5.2095,1.0310390999999999,-3.7662612999999996,14.752918,-1
85,86,1580695372451,1.2789999,-3.1957998,4.673899700000001,2.1848813999999996,-3.282125,14.650732999999999,-1
86,87,1580695372461,2.0456998,-2.6489999999999996,6.6154,2.868991,-3.0605655,16.991657,-1
87,88,1580695372472,2.0456998,-2.6489999999999996,6.6154,3.0141659,-3.1739740000000003,19.417225,-1
88,89,1580695372482,1.7427,-2.5347,11.840799,2.2000607999999997,-3.7717104,21.834938,-1
89,90,1580695372492,0.84639996,-2.8499,12.5151,1.1837796,-4.387719000000001,22.157848,-1
90,91,1580695372502,-0.1955,-2.8281999,11.6528,0.019335573999999998,-4.528058000000001,20.966763,-1
91,92,1580695372512,-1.2177,-2.4303,9.533,-1.108525,-4.263575,18.592691000000002,-1
92,93,1580695372522,-2.1720998,-1.7590000000000001,6.741699700000001,-1.9060814,-3.867354,16.325104,-1
93,94,1580695372532,-2.0891,-1.2477,4.771,-1.7826077,-3.4243980000000005,14.067831,-1
94,95,1580695372542,-1.3327,-0.71059996,3.8297,-0.995308,-2.9733397999999998,13.277657999999999,-1
95,96,1580695372552,-0.45049998,-0.0266,4.0478997,-0.1038892,-2.4127807999999997,13.763816,-1
96,97,1580695372562,0.34399998,0.5809,5.4091,0.69251806,-1.9796599999999998,15.124823999999998,-1
97,98,1580695372572,0.9479,0.8774,6.4719996,1.1651334999999998,-1.9056408,15.882482999999999,-1
98,99,1580695372583,1.1313,0.82449996,6.7928996,1.3701155,-2.159771,16.152739999999998,-1
99,100,1580695372593,1.0967,0.7073,6.7809,1.2129504999999998,-2.4342327,16.084764,-1
100,101,1580695372603,0.8814,0.6563,6.8261,0.9106011,-2.6165175,16.096667999999998,-1
101,102,1580695372613,0.5159,0.6957,6.6614,0.47745168,-2.5821943,15.721975,-1
102,103,1580695372623,0.0482,1.1456,6.0394998,0.124910295,-2.1751322999999996,15.121289,-1
103,104,1580695372634,0.27339998,1.7176,5.5504,0.5829401999999999,-1.6766691000000002,14.518296,-1
104,105,1580695372644,0.8247,1.999,5.1872,1.0516386999999998,-1.5541530000000001,14.200776000000001,-1
105,106,1580695372654,1.1777999,2.1038,4.9031,1.2923135000000001,-1.6138643999999998,13.953647,-1
106,107,1580695372664,1.3915,1.9750999,4.9344997,1.4007325000000002,-1.8766519,14.111127999999999,-1
107,108,1580695372674,1.3507999,1.7669,5.2311,1.1930690000000002,-2.1872182000000002,14.382727,-1
108,109,1580695372684,1.0414,1.4340998999999999,5.5845,0.7859781,-2.6763057999999997,14.746051000000001,-1
109,110,1580695372694,0.54649997,0.9996,5.9227,0.17493953,-3.0705445,15.001101,-1
110,111,1580695372704,-0.0968,0.8095,5.9581,-0.34436283,-3.1845470000000002,14.867351000000001,-1
111,112,1580695372714,-0.5011,0.8508,5.4437,-0.63538283,-3.0713394,14.117334,-1
112,113,1580695372724,-0.35529998,0.99979997,4.5969999999999995,-0.34232298,-2.9077675,13.215160000000001,-1
113,114,1580695372735,0.0491,1.1945,3.7052998999999995,0.04408204,-2.6701764999999997,12.347980499999998,-1
114,115,1580695372745,0.39569998,1.3321999,2.8887,0.39053258,-2.5955827,11.621397,-1
115,116,1580695372755,0.7891,1.3282,2.2761,0.6920583,-2.566498,11.19839,-1
116,117,1580695372765,1.1185,1.3125,1.9375,1.0420235,-2.5670247,10.913624,-1
117,118,1580695372775,1.2362,1.2872,1.9126999,1.0162716,-2.5684805,11.0271,-1
118,119,1580695372786,1.1388,1.1961,1.9873999,0.9197181999999999,-2.6281056,11.002208999999999,-1
119,120,1580695372796,1.03,1.0785999,1.8872,0.7113173,-2.7263157000000002,10.913872999999999,-1
120,121,1580695372806,0.84059995,1.0217,1.8271998999999999,0.6177902,-2.6938791,10.8506365,-1
121,122,1580695372816,0.8404,1.0321,1.6784999,0.6853066999999999,-2.6233459,10.60505,-1
122,123,1580695372826,0.96639997,1.1064,1.3515999,0.8344368000000001,-2.5107706000000003,10.253179,-1
123,124,1580695372837,1.127,1.1259,0.99289995,0.8653028,-2.5240726,9.811812,-1
124,125,1580695372847,1.0839,1.0529,0.60319996,0.6951516999999999,-2.6707702,9.405228999999999,d
125,126,1580695372857,0.8854,0.81979996,0.16319999,0.35845029999999994,-2.8849077000000003,8.927528,-1
126,127,1580695372867,0.514,0.5664,-0.3258,0.00638773,-3.1171165000000003,8.662174,-1
127,128,1580695372878,0.1875,0.2871,-0.5291,-0.24818295,-3.284136,8.840274,-1
128,129,1580695372888,-0.0628,0.1327,-0.2882,-0.42522937,-3.3081067,9.206548,-1
129,130,1580695372898,-0.21319999,0.0843,0.06359999599999999,-0.47387955,-3.308078,9.471366,-1
130,131,1580695372908,-0.23979999,0.061499998,0.3101,-0.37053624,-3.312675,9.788692999999999,-1
131,132,1580695372919,-0.1328,0.041899998,0.607,-0.27542895,-3.2449381,9.94426,-1
132,133,1580695372929,-0.050499998,0.081,0.7078,-0.27449045,-3.2911558,9.922079,-1
133,134,1580695372939,-0.0677,-0.0021,0.66969997,-0.37752733,-3.3710263,9.785189,-1
134,135,1580695372949,-0.1718,-0.0932,0.53069997,-0.35528037,-3.3384078,9.69304,-1
135,136,1580695372959,-0.16669999,-0.1028,0.42839998,-0.23972662,-3.2385217999999996,9.710652,-1
136,137,1580695372970,-0.0682,-0.0558,0.4236,-0.24683261,-3.132018,9.886396000000001,-1
137,138,1580695372979,-0.0874,0.0128,0.5865,-0.27690378,-3.1094167,10.033897999999999,-1
138,139,1580695372989,-0.1423,0.0072999996999999995,0.7509999999999999,-0.26532543,-3.1202384999999997,10.199997999999999,-1
139,140,1580695372999,-0.1319,-0.042099997,0.9273,-0.30673555,-3.1797297,10.613908,-1
140,141,1580695373009,-0.185,-0.12619999,1.2916,-0.43098503,-3.2414042999999997,10.911966,-1
141,142,1580695373019,-0.35119998,-0.1972,1.6571,-0.6299815,-3.0680354,11.426865,-1
142,143,1580695373030,-0.4933,-0.0501,2.0921,-0.6734124,-2.8465812,12.04476,-1
143,144,1580695373039,-0.5358,0.147,2.6942,-0.67861253,-2.5746862999999998,12.662894,-1
144,145,1580695373049,-0.5215,0.4799,3.4724,-0.48430870000000004,-2.3206708,13.605501,-1
145,146,1580695373059,-0.3346,0.6306,4.239,-0.25051013,-2.2696266,14.187331,-1
146,147,1580695373070,-0.1125,0.6537,4.8160996,-0.028797458999999997,-2.2375442999999997,14.639194,-1
147,148,1580695373080,0.1078,0.5778,5.5097,0.07637503,-2.2320279999999997,14.915063,-1
148,149,1580695373090,0.1838,0.5778,5.5097,-0.08556877,-2.3458292000000003,15.088536999999999,-1
149,150,1580695373100,0.0605,0.4041,5.6668,-0.54792744,-2.5402767999999996,15.304302999999999,-1
150,151,1580695373110,-1.4411,-0.2695,6.1531997,-1.7692383999999999,-2.9046838,15.655724,-1
151,152,1580695373121,-1.4411,-0.2695,6.1531997,-2.3672526,-2.9809916000000003,15.658462,-1
152,153,1580695373131,-2.4751,-0.7252,6.0028996,-2.6447022000000002,-3.1177006,15.518162,-1
153,154,1580695373141,-2.559,-0.8495,5.7275,-2.7211635,-3.0767407,15.233778,-1
154,155,1580695373151,-2.2229,-0.7497,5.5394998,-2.4021697,-2.889897,15.128682999999999,-1
155,156,1580695373161,-1.4301,-0.59999996,5.5379996,-1.4371436000000002,-2.4901134999999996,15.172525,-1
156,157,1580695373171,-0.63119996,-0.24239999,5.6647,-0.6368577,-1.9705716,15.366437,-1
157,158,1580695373182,0.0669,0.048299998,5.8610997000000005,-0.0016759413000000001,-1.5529271,15.538704000000001,-1
158,159,1580695373192,0.4132,0.1219,5.5388,0.29477412,-1.3668879999999999,15.110133,-1
159,160,1580695373202,0.25079998,-0.1219,4.7960997,0.020216638000000002,-1.4744356,14.360968,-1
160,161,1580695373212,-0.2667,-0.494,3.9673998,-0.5198961,-1.6519608000000001,13.579442000000002,-1
161,162,1580695373222,-0.8092,-0.8929,3.4264997999999998,-1.0477985,-1.8419263,13.165294,-1
162,163,1580695373232,-1.2779,-1.1465,3.3407,-1.4708921999999998,-1.8559371999999998,13.139915,-1
163,164,1580695373243,-1.5515,-1.3122,3.2591999,-1.6656845,-1.8302331000000003,12.987788,-1
164,165,1580695373253,-1.5636,-1.5373,2.8192,-1.6591339,-1.8421083999999999,12.515814,-1
165,166,1580695373263,-1.7091999,-1.6229999,2.0209,-1.9035052,-1.6215066,11.420246,-1
166,167,1580695373273,-1.9183999,-1.5668,1.0306,-2.0322845000000003,-1.3765318000000002,10.513553,-1
167,168,1580695373283,-1.8639,-1.5219999999999998,0.3189,-1.9676316000000003,-1.1582093999999998,10.028630999999999,-1
168,169,1580695373293,-1.7095,-1.2211,0.0126,-1.7645650000000002,-0.55052274,9.740608,-1
169,170,1580695373304,-1.4137,-1.0005,-0.1537,-1.4915781000000001,-0.29736942,9.593805,-1
170,171,1580695373314,-1.3139,-1.0217999,-0.33699998,-1.5692363999999999,-0.12955503,9.196359,-1
171,172,1580695373324,-1.4930999,-0.99359995,-1.0764999,-1.7585411,-0.026623523,8.421269,-1
172,173,1580695373334,-1.5656999,-1.1774,-1.5978,-1.7433715,-0.053429004,8.067042,-1
173,174,1580695373344,-1.5422,-1.2437999,-1.9803,-1.812066,0.19331743,7.6375227,-1
174,175,1580695373355,-1.7560999,-1.0256,-2.0481,-2.0227845,0.5993261999999999,7.742694999999999,-1
175,176,1580695373365,-1.7276,-0.84559995,-1.7819999999999998,-1.7327700000000001,0.809087,8.008307,-1
176,177,1580695373375,-1.1272,-0.784,-1.6234,-0.9726109000000001,1.0526634,7.836940299999999,-1
177,178,1580695373385,-0.42819998,-0.7373,-2.0523,-0.15859193,1.1355795,7.172846300000001,-1
178,179,1580695373395,0.3409,-0.7664,-2.7054,0.41156328,1.1638118999999998,6.575033,-1
179,180,1580695373405,0.7941,-0.9482,-3.1615999,0.5331313,1.0462087,6.309392,-1
180,181,1580695373416,0.7273,-1.1646,-3.3132,0.30198544,0.97289824,6.2931113,-1
181,182,1580695373426,0.5261,-1.3105999,-3.1209,0.17195156,1.0350517,6.7077293000000004,-1
182,183,1580695373437,0.5061,-1.2422999,-2.6529,0.18381724,1.2368733,7.048951,-1
183,184,1580695373447,0.49949998,-1.2784,-2.3295,0.054281342999999996,1.1473589,6.970785,-1
184,185,1580695373457,0.30089998,-1.5798999,-2.5937,-0.101102345,0.9509003,6.057215,-1
185,186,1580695373467,0.20979999,-1.8391998999999999,-3.6053998,-0.009165004000000001,0.71788704,4.782676,-1
186,187,1580695373478,0.3234,-2.1957,-4.8341,0.18803102,0.5926607,3.9308864999999997,-1
187,188,1580695373487,0.5668,-2.3783998,-5.4972997,0.5538841999999999,0.6773484000000001,3.8326572999999997,-1
188,189,1580695373497,1.1355,-2.2554,-5.4012,1.3228252,1.1481538,4.189633000000001,-1
189,190,1580695373507,1.7548,-1.8802999,-5.0552,1.5688055,1.5804796,4.6244483,-1
190,191,1580695373517,1.9132999,-1.5333999,-4.5559,1.4894711999999999,1.9059473999999998,5.27004,-1
191,192,1580695373527,1.7802,-1.2566998999999999,-3.8437,1.1930403,2.2836852000000003,5.923580599999999,-1
192,193,1580695373537,1.48,-0.9245,-3.2414,0.92935246,2.2649915000000003,6.153022,-1
193,194,1580695373547,1.2116,-1.1108,-3.0805,0.72365224,1.9774381999999997,6.1932635000000005,-1
194,195,1580695373557,0.88259995,-1.4764,-3.0460000000000003,0.37591840000000004,1.7890528,5.9772300000000005,-1
195,196,1580695373567,0.7206,-1.5841,-3.313,0.85846496,1.9546646,5.692033,-1
196,197,1580695373577,1.3231,-1.4319998999999999,-3.49,1.8901839,2.3670132,5.8451176,-1
197,198,1580695373587,2.3286,-1.0432,-3.2652,2.7629759999999997,2.7185392000000004,6.291723,-1
198,199,1580695373598,3.1079,-0.78679997,-2.7575,2.9829263999999998,2.89617,6.723292,-1
199,200,1580695373608,3.0943,-0.6717,-2.3690999,2.4151652,2.9662243999999998,6.8436145999999995,-1
200,201,1580695373618,2.444,-0.68759996,-2.2179,1.4954087999999999,2.7286143,7.0867796,-1
201,202,1580695373628,1.5013,-0.98859996,-2.0009,0.53705776,2.4409077,7.160511,-1
202,203,1580695373638,0.6026,-1.2835,-1.9331,-0.28356925,2.1890568999999998,7.122061,-1
203,204,1580695373649,-0.1094,-1.5576999,-2.0126,-0.6617381999999999,1.962259,6.928714299999999,-1
204,205,1580695373659,-0.3548,-1.7573999,-2.1497,-0.19710027,1.8842941999999998,6.773934,-1
205,206,1580695373669,0.1094,-1.8656,-2.2944999,0.35758838,2.1469285,6.6947149999999995,-1
206,207,1580695373679,0.7725,-1.5478,-2.3594,1.0866803,2.5382082,6.8921022,-1
207,208,1580695373689,1.3985,-1.2285,-2.0621998,1.4311771,2.7772644,7.3652253,-1
208,209,1580695373700,1.5834999,-1.0170000000000001,-1.5921999,1.2129601,2.9364310000000002,7.743308,-1
209,210,1580695373710,0.6958,-0.99179995,-1.081,0.5803449,2.8489757,7.953385000000001,-1
210,211,1580695373721,0.3374,-1.1130999,-0.97969997,0.20598753,2.7174764,8.056602999999999,-1
211,212,1580695373731,0.3374,-1.1130999,-0.97969997,0.05890694,2.6010892000000005,8.110559,-1
212,213,1580695373741,0.0229,-1.2120999,-0.95239997,-0.13480313,2.6200707000000003,8.086752,-1
213,214,1580695373751,0.0866,-1.1705999,-0.9341,-0.048745945,2.6255581,8.113566,-1
214,215,1580695373761,0.3279,-1.1165,-0.8835,0.25047179999999997,2.6900294,8.162868,-1
215,216,1580695373771,0.5222,-0.8882,-0.8907,0.59663504,2.9785880000000002,8.187825,-1
216,217,1580695373782,0.7097,-0.7248,-0.654,0.7371843000000001,3.1471589,8.5297365,-1
217,218,1580695373792,0.5758,-0.4362,-0.2438,0.5656828,3.4633086000000004,8.871877,-1
218,219,1580695373802,0.32299998,-0.23869999,-0.1503,0.33876997,3.5605992999999994,8.896777,-1
219,220,1580695373812,0.1344,-0.37109998,-0.20539999,0.17226759,3.3648589,8.842812,-1
220,221,1580695373822,-0.0714,-0.6523,-0.3579,-0.017238252,3.1133432,8.709311,-1
221,222,1580695373832,-0.0714,-0.6523,-0.3579,-0.24913105,2.857949,8.580666,-1
222,223,1580695373842,-0.5172,-1.0033,-0.4901,-0.47540227,2.7859602000000003,8.576682,-1
223,224,1580695373853,-0.65279996,-0.71849996,-0.49969998,-0.52366936,3.117557,8.571903,-1
224,225,1580695373862,-0.4587,-0.3651,-0.48959997,-0.25874615,3.4591617999999995,8.579699,-1
225,226,1580695373872,-0.2242,-0.029099998999999998,-0.48029998,-0.053275775,3.7284424,8.591851,-1
226,227,1580695373882,-0.2242,-0.029099998999999998,-0.48029998,0.07135679,3.9623272000000003,8.667565,-1
227,228,1580695373892,-0.1478,0.19659999,-0.2969,0.08546343,3.9403483999999995,8.797647,-1
228,229,1580695373902,-0.2778,0.1241,-0.2988,-0.08035899,3.8399449999999997,8.774137,-1
229,230,1580695373913,-0.4576,0.0901,-0.261,-0.1883662,3.824469,8.812176,-1
230,231,1580695373923,-0.3859,0.15359999,-0.1836,0.0026240451000000002,3.9565907,8.860548,-1
231,232,1580695373933,-0.21679999,0.31509998,-0.2924,0.1934898,4.0336075,8.769722,-1
232,233,1580695373943,-0.2025,0.3123,-0.2747,0.107767805,4.031692,8.862368,-1
233,234,1580695373954,-0.3811,0.3823,-0.092099994,-0.013139378,4.122126000000001,9.078372,-1
234,235,1580695373964,-0.3818,0.3967,0.079399996,0.10261548,4.0508074999999995,9.22757,-1
235,236,1580695373974,-0.23789999,0.33319998,0.1626,0.27178976,4.021349,9.277474,-1
236,237,1580695373984,-0.0414,0.3858,0.27629998,0.5288026,4.0365186,9.508275,d
237,238,1580695373994,0.1356,0.3877,0.6071,0.67133415,4.0847663999999995,9.829251,-1
238,239,1580695374005,0.2658,0.573,0.8807,0.93122,4.35126,10.098005,-1
239,240,1580695374015,0.56869996,0.89419997,1.2242,1.2518898,4.577637,10.393325,-1
240,241,1580695374025,1.0519,1.0411,1.7432,2.0100951,4.7726593,11.224017,-1
241,242,1580695374035,1.5230000000000001,1.2387999,2.3397,2.4231715,4.8665886,11.635504,-1
242,243,1580695374045,1.8565999,1.3069998999999999,2.8285,2.593227,4.9151235,12.026028,-1
243,244,1580695374055,1.8894,1.2004,3.1439,2.6062033,4.762593700000001,12.177379,-1
244,245,1580695374066,1.8518,1.129,2.9452,2.6824443,4.715696299999999,11.88294,-1
245,246,1580695374076,2.0235,1.0537,2.5858998,3.058296,4.701723599999999,11.521616999999999,-1
246,247,1580695374086,2.5498,1.0876,2.3978,4.0380125,4.930705000000001,11.400260000000001,-1
247,248,1580695374096,3.6090998999999995,1.3651999,2.3288999,4.736822599999999,5.1408873,11.38418,-1
248,249,1580695374106,4.7791,1.5685999,2.533,6.3508496,5.393667,11.803405,-1
249,250,1580695374116,5.6282997,1.7001,2.9492,6.802836999999999,5.4989357000000005,12.234974000000001,-1
250,251,1580695374127,5.8195,1.6488,3.4208998999999998,6.685588,5.254325,12.614408000000001,-1
251,252,1580695374137,5.5657,1.2515,3.6664999,6.335910299999999,4.6095180000000004,12.506860000000001,-1
252,253,1580695374147,5.5657,1.2515,3.6664999,6.0936356,4.176771,12.214806,-1
253,254,1580695374157,5.062,0.1678,3.0785,6.0422373,3.9364314,11.865136999999999,-1
254,255,1580695374167,5.1408,-0.0791,2.8892999,6.3035974999999995,3.8849561,11.773841000000001,-1
255,256,1580695374177,5.3943,-0.10669999599999999,2.8113,6.6185979999999995,4.0498400000000006,11.38033,-1
256,257,1580695374187,5.8506,0.056199998,2.2161,7.2072463,4.2489038,10.414433,-1
257,258,1580695374197,6.3473,0.0778,1.4066,7.479611,4.092601,9.822835000000001,-1
258,259,1580695374208,6.5716,-0.32439998,0.8037,7.348523599999999,3.6686542,9.243831,-1
259,260,1580695374218,6.4149,-0.6976,0.3577,7.080449000000001,3.4093432,8.555058,-1
260,261,1580695374228,6.2043,-1.0698,-0.3441,6.773407499999999,3.1613995999999998,7.735407400000001,-1
261,262,1580695374238,5.9103,-1.3407999,-1.1458,6.190802,3.0177857999999995,6.891508,-1
262,263,1580695374248,5.364,-1.5782,-1.9395,5.373843,2.8522412999999998,6.1935887,-1
263,264,1580695374259,4.6275997,-1.7705,-2.5784,4.668349,2.6933045,5.723789,-1
264,265,1580695374269,4.0655,-2.0349998,-2.9347,4.3198676,2.5310063,5.5275416,-1
265,266,1580695374279,3.8813,-2.2084,-3.1434,4.265107599999999,2.4638731,5.0458374,-1
266,267,1580695374289,3.8369999999999997,-2.3442,-3.6241,3.6969156,2.2428787,4.6969447,-1
267,268,1580695374299,3.3592,-2.5974998,-3.8388,3.2203834,2.0310013,4.4743319999999995,-1
268,269,1580695374310,2.5646,-3.0331,-4.212,2.1165411,1.5976124,3.9955587,-1
269,270,1580695374320,1.6901,-3.4006,-4.5313,1.0009104,1.2610451999999999,3.9027212,-1
270,271,1580695374330,0.807,-3.7149,-4.5643,-0.10707828,1.0998484,4.163364,-1
271,272,1580695374341,-0.2101,-3.8867998,-4.3018,-1.2765978999999998,0.9484485999999999,4.3531857,-1
272,273,1580695374351,-2.552,-4.1265,-4.3627,-2.88056,0.8488976999999999,3.967604,-1
273,274,1580695374361,-3.8111,-4.3582997,-4.9902997000000004,-3.9143858,0.65526426,3.4490294,-1
274,275,1580695374371,-4.8629,-4.6299,-5.7881,-5.160548,0.40950426,2.413298,-1
275,276,1580695374381,-5.4941998,-4.6257,-7.0028,-5.6873207,0.48827349999999997,1.1947354,-1
276,277,1580695374392,-5.4941998,-4.6257,-7.0028,-5.872622499999999,0.6008393,0.7010126999999999,-1
277,278,1580695374402,-6.1665998,-4.3487,-7.5046,-6.354403,0.7531104999999999,1.0586394,-1
278,279,1580695374413,-6.896,-4.6665998,-6.4747,-7.113949000000001,0.32919315,2.1287613,-1
279,280,1580695374423,-8.065,-5.242000000000001,-5.4609,-8.411645,-0.31817985,3.1424856,-1
280,281,1580695374433,-9.9766,-5.876,-4.5565,-10.896625,-1.3151158,4.2833705,-1
281,282,1580695374443,-12.1514,-6.8919997,-3.6181,-12.664474499999999,-2.1805623,5.0471115,-1
282,283,1580695374453,-14.2746,-7.6148,-2.9724998,-15.149541000000001,-2.9790285,5.699847,-1
283,284,1580695374463,-15.8866,-7.8963,-2.7914999,-16.398127,-3.1310604,5.763274,-1
284,285,1580695374474,-16.5898,-7.8286996,-2.9752998,-16.68841,-3.1087177,5.419295,-1
285,286,1580695374484,-16.3457,-7.8940997,-3.6211998,-16.08147,-3.1996782,4.730578400000001,-1
286,287,1580695374494,-15.632098999999998,-7.8307,-4.0758,-15.480286999999999,-3.158316,4.474744,-1
287,288,1580695374504,-14.9909,-7.8124,-4.7131,-14.760368,-3.1191278,3.6181845999999998,-1
288,289,1580695374515,-14.715198999999998,-7.6317,-5.3637,-14.52839,-2.8829637000000004,3.2728162,-1
289,290,1580695374525,-14.4444,-7.1492,-5.111799700000001,-14.255556,-2.5408513999999998,3.7818046,-1
290,291,1580695374535,-13.7755995,-6.7834997,-3.9085998999999996,-12.894146000000001,-2.330717,5.7617035,-1
291,292,1580695374545,-12.380799,-6.5674,-2.6671,-11.056577,-2.3615735,6.4188165999999995,-1
292,293,1580695374555,-10.3256,-6.6499,-2.5428,-9.022444,-2.8656007999999997,6.1487694,-1
293,294,1580695374565,-8.452,-7.1105,-2.9417,-7.242977000000001,-3.5035024,6.177462,-1
294,295,1580695374576,-6.9835997,-7.4656997,-2.4076,-5.692789,-3.5882955,7.978821000000001,-1
295,296,1580695374586,-5.414,-6.9227996,0.19649999,-3.7627273,-2.6090958,11.825633,-1
296,297,1580695374596,-3.3915,-5.4041,4.4830000000000005,-1.405722,-1.1780813,16.406937,-1
297,298,1580695374606,-1.0691998999999999,-3.8588,8.7505,1.1343248,-0.41922474,20.208681,-1
298,299,1580695374616,1.5346999,-2.9668,11.9907,3.5664985000000002,0.24856603,22.444654,-1
299,300,1580695374626,3.5493998999999996,-2.0718,13.0878,4.486800700000001,0.46515509999999993,21.99393,-1
300,301,1580695374636,3.6780998999999994,-2.0031,11.908899,3.2934928,-0.22327366,20.574965,-1
301,302,1580695374647,2.541,-2.4112,10.8828,2.6654935,-0.57157254,20.272118,-1
302,303,1580695374657,2.182,-2.5764,10.6235,2.9887202,-0.5399212,20.324091,-1
303,304,1580695374667,2.9264997999999998,-2.2305,10.9136,4.637176,0.04850653,21.145138,-1
304,305,1580695374677,4.5407,-1.5726999,11.644999499999999,6.6654862999999995,0.5957061,21.510963,-1
305,306,1580695374687,7.2777996,-0.831,11.6893,10.342089999999999,1.5317336000000001,20.086184,-1
306,307,1580695374697,10.166699000000001,0.0274,10.0135,12.457386,2.4247517999999997,18.162585999999997,-1
307,308,1580695374708,11.991199499999999,0.9144,8.239699,13.32695,2.9878967,17.333054,-1
308,309,1580695374718,12.8024,1.604,7.5600996,13.875567000000002,3.6621040000000002,17.376407999999998,-1
309,310,1580695374728,13.1452,2.1461,7.8089,13.904843,4.0901966,17.602420000000002,-1
310,311,1580695374738,13.1444,2.5944998,7.9019,13.86011,4.361182,17.267328,-1
311,312,1580695374749,13.154698999999999,2.7740998,7.4609,14.187168,4.1444016,16.262729999999998,-1
312,313,1580695374759,13.4297,2.4795,6.3311996,14.372269000000001,3.8502786,14.659457999999999,-1
313,314,1580695374769,13.5112,2.164,4.670099700000001,14.4220295,3.7472513,12.919822,-1
314,315,1580695374779,13.510798999999999,1.9578999,3.0142999,14.565317000000002,3.6214983,11.434372,-1
315,316,1580695374790,13.5446,1.7975999,1.8414999,14.395567999999999,3.673165,10.716859,-1
316,317,1580695374800,13.213698999999998,1.7772,1.0425999,13.589422,3.6221205999999997,10.258609,-1
317,318,1580695374810,12.3889,1.6425999,0.71559995,12.324517,3.2638621,9.759675999999999,-1
318,319,1580695374820,11.0362,1.2069,0.2519,11.549686,2.9613116,8.86957,-1
319,320,1580695374830,10.0692,0.7609999999999999,-0.8725,11.006155,2.5927575000000003,7.5505266,-1
320,321,1580695374841,9.6304,0.42119998,-1.9259,10.696010000000001,2.4184308,6.8192225,-1
321,322,1580695374851,9.2217,0.1391,-2.7298,10.626932,2.3350172000000002,6.7328586999999995,-1
322,323,1580695374861,9.4549,0.4034,-2.4164,10.930096,2.6729634,7.171889,-1
323,324,1580695374871,9.623799,0.6846,-1.7114999,11.075663,2.849646,7.9100399999999995,-1
324,325,1580695374881,9.3117,0.50299996,-1.0059,10.609694500000002,2.5727134,8.564127000000001,-1
325,326,1580695374892,8.2107,0.0744,-0.7497,9.382407,2.1287613,8.691785000000001,-1
326,327,1580695374902,6.5783997,-0.5676,-0.9321,7.7228136,1.4527345,8.508208,-1
327,328,1580695374912,5.0489999999999995,-1.3619999999999999,-0.945,6.2310343,0.70469016,8.487713000000001,-1
328,329,1580695374922,3.6971998,-1.9439,-1.3176999,4.9177384,0.22043893,7.9763402999999995,-1
329,330,1580695374932,2.6437,-2.2725,-2.0314,3.974011,-0.0011109096,7.278402000000001,-1
330,331,1580695374943,2.1896,-2.4968,-2.5772998,3.5798965,-0.252617,6.675935000000001,-1
331,332,1580695374953,2.0324,-2.7266998,-2.9968,3.417311,-0.39586687,6.2271557,-1
332,333,1580695374963,1.8757,-2.9078,-3.3416,3.187755,-0.5592855,5.946891,-1
333,334,1580695374973,1.5090000000000001,-3.1727998,-3.4861998999999995,2.6810462000000004,-0.8185776,5.925199,-1
334,335,1580695374983,0.9108,-3.4529,-3.3813998999999995,1.9448387999999999,-1.0530465,6.124683999999999,-1
335,336,1580695374994,0.1239,-3.6346,-3.0741,1.026356,-1.1596364,6.412543299999999,-1
336,337,1580695375004,-0.7624,-3.6069,-2.8946,0.119825006,-1.0966879999999999,6.528241,-1
337,338,1580695375014,-1.5878999,-3.5619998,-2.9975998,-0.7695922,-1.1077780000000002,6.230297,-1
338,339,1580695375024,-2.3662999,-3.6996,-3.5583,-1.5205191,-1.2535561000000002,5.5852895,-1
339,340,1580695375034,-3.0039999999999996,-3.8327,-4.194,-2.1229577,-1.3792613999999999,5.0146937000000005,-1
340,341,1580695375044,-3.5347998,-4.0158,-4.6601,-2.5979292000000003,-1.5398835,4.576775,-1
341,342,1580695375055,-4.0175,-4.2065,-5.1047997,-3.0825825,-1.8471457999999998,4.163938,-1
342,343,1580695375065,-4.6286,-4.6861997,-5.2932,-3.8037447999999996,-2.2581057999999996,4.1643214,-1
343,344,1580695375075,-5.6684,-4.8801,-5.041,-4.9859443,-2.3823072999999995,4.734716000000001,-1
344,345,1580695375086,-6.5558996,-4.9656997,-4.3420997,-5.439387,-2.5316,5.570627,-1
345,346,1580695375097,-6.8845,-5.0885,-3.4817,-5.707968,-2.7268999,6.622668300000001,-1
346,347,1580695375107,-7.2324996,-5.1854,-2.625,-6.250207,-2.9981916,7.3354607000000005,-1
347,348,1580695375117,-7.8813,-5.4147,-1.9636999,-6.921512599999999,-3.2114289,7.746764999999999,-1
348,349,1580695375128,-8.636000000000001,-5.5262,-1.6139,-7.527734,-3.2809565000000003,7.9961834000000005,-1
349,350,1580695375138,-9.2815,-5.5341997,-1.3725,-7.928800999999999,-3.4925466,8.287587,-1
350,351,1580695375148,-9.937699,-5.7613997,-0.9115,-8.992459,-3.901754,9.008422999999999,-1
351,352,1580695375158,-11.005899000000001,-6.0055,-0.28309998,-10.46406,-4.271217299999999,9.765614,-1
352,353,1580695375168,-12.4855995,-6.2598,0.43519998,-11.61139,-4.716932,10.356052,-1
353,354,1580695375178,-13.4711,-6.594599700000001,0.9259,-11.913758999999999,-5.3042865,10.565152000000001,-1
354,355,1580695375189,-13.587999,-7.0306997,1.0178,-11.65372,-5.525329,10.25403,-1
355,356,1580695375199,-13.1254,-6.9651,0.3987,-10.669664,-5.129576999999999,9.335376,-1
356,357,1580695375209,-12.1762,-6.4023,-0.3254,-9.314939,-4.4275970000000004,9.14225,-1
357,358,1580695375219,-11.027599,-5.6832,-0.44169998,-8.522821,-3.8124597000000002,9.132423,-1
358,359,1580695375229,-10.0571995,-4.7732,-0.4418,-7.6070204,-3.2492957000000002,9.863277,-1
359,360,1580695375239,-9.296599,-4.2025,0.23449999,-7.066812,-3.1808883999999997,10.827557,-1
360,361,1580695375249,-8.606999,-3.9552998999999995,1.4035,-6.4466085,-3.1434526000000003,11.708748,-1
361,362,1580695375260,-7.9634,-3.7551,2.1728,-5.6629190000000005,-3.3837254,12.13185,-1
362,363,1580695375270,-7.1117,-3.9301998999999994,2.5118,-4.848708599999999,-3.880235,12.261396000000001,-1
363,364,1580695375280,-6.017299700000001,-4.0502,2.5816,-4.495410400000001,-3.942168,12.281536000000001,-1
364,365,1580695375290,-6.017299700000001,-4.0502,2.5816,-4.143444000000001,-3.8960366,12.817473,-1
365,366,1580695375301,-5.5650997,-3.8248,3.1067998,-3.4758348,-3.4999589999999996,13.756719,-1
366,367,1580695375311,-3.7205,-2.8724,5.1377997,-2.5018352999999998,-3.3258812000000004,14.865943,-1
367,368,1580695375321,-2.6548,-3.0091,6.029,-1.5263323,-3.639972,15.760465,-1
368,369,1580695375331,-1.9918,-3.1822,6.4438996,-0.94985646,-3.9921589999999996,16.171732000000002,-1
369,370,1580695375341,-1.5093,-3.688,6.1844,-0.5216390999999999,-4.762776000000001,15.757697,-1
370,371,1580695375351,-1.5093,-3.688,6.1844,-0.5994315,-4.923513400000001,15.105545000000001,-1
371,372,1580695375362,-0.8829,-3.5609998999999997,5.0415,0.22804293,-4.6915054000000005,14.836035,-1
372,373,1580695375372,0.4822,-3.0224,5.6122,1.7173991000000002,-4.2381487,15.651644000000001,-1
373,374,1580695375382,2.3869998,-2.3781,7.0504,3.0532392999999995,-3.8824086,16.72573,-1
374,375,1580695375392,2.3869998,-2.3781,7.0504,4.871769400000001,-3.2606156000000004,18.520884,-1
375,376,1580695375402,5.6677,-0.9690000000000001,10.3652,6.233965,-2.739302,20.004284,-1
376,377,1580695375412,6.6727,-0.69589996,10.793799,7.282539,-2.5787852000000004,20.331867000000003,-1
377,378,1580695375423,7.1739999999999995,-0.5226,9.8632,7.579467999999999,-2.482634,19.477558,-1
378,379,1580695375433,7.4725,-0.1182,8.132,7.8017262999999994,-2.027343,17.372854,-1
379,380,1580695375443,7.6892,0.22549999,6.2289,7.8676434,-1.7438216,15.448022,-1
380,381,1580695375453,7.7539997000000005,0.3376,4.2042,7.8183136,-1.6657706,13.817982,-1
381,382,1580695375463,7.5716,0.41259998,2.3636,7.4374247,-1.5524003999999998,11.408812,-1
382,383,1580695375474,7.468,0.363,1.0816,7.3141522,-1.5506479,10.517805000000001,-1
383,384,1580695375484,7.4693,0.4524,0.4965,7.354394,-1.3195117,10.15629,-1
384,385,1580695375494,7.7622,0.775,0.78569996,7.619106299999999,-1.0139923,10.536881,-1
385,386,1580695375504,8.0476,0.9668,1.3014,7.8053465,-0.86804175,10.938369999999999,-1
386,387,1580695375514,7.8745,0.9833,1.6211,7.4575070000000006,-0.7711531999999999,11.327141000000001,-1
387,388,1580695375524,7.5174,1.1309999,1.6747999,7.188514,-0.5534819999999999,11.241676,-1
388,389,1580695375534,7.5326,1.3657,1.3536,7.420675,-0.23350170000000003,10.853348,d
389,390,1580695375544,7.9103,1.6387,1.0108,7.710891,-0.014422671000000001,10.618314,-1
390,391,1580695375554,7.9458,1.7182,0.64739996,7.627103,0.13609602,10.2008505,-1
391,392,1580695375564,7.6619997,1.5574,0.35200000000000004,7.3502279999999995,-0.15556565,9.906871,-1
392,393,1580695375574,7.1066,1.0688,-0.061199997,6.579064999999999,-0.54643345,9.408954,-1
393,394,1580695375584,6.0288,0.73469996,-0.6017,5.430097,-0.7613753000000001,8.957091,-1
394,395,1580695375595,4.8022,0.4899,-0.9453,4.3000245,-0.9339780999999999,8.669328,-1
395,396,1580695375605,3.8223998999999997,0.3094,-1.2580999,3.6286519999999998,-1.0081025,8.392195,-1
396,397,1580695375615,3.1541,0.2165,-1.5985999,3.0215688,-1.110517,8.06143,-1
397,398,1580695375625,2.9849,0.0481,-1.6919999,2.987351,-1.1290576,8.141828,-1
398,399,1580695375635,3.0296,0.050699997999999996,-1.4403,3.1871421000000004,-1.1049145,8.532005999999999,-1
399,400,1580695375645,3.4045,0.0849,-0.9027,3.6548543,-1.0301963,9.0452175,-1
400,401,1580695375655,3.5965,0.1512,-0.6687,3.359582,-0.9411128000000001,8.994555,-1
401,402,1580695375665,3.0056998999999998,0.2805,-0.8865,2.4603007000000003,-0.7532829000000001,8.635119,-1
402,403,1580695375675,1.9880999,0.42029998,-1.3014,1.6389842000000001,-0.57699305,8.232127,-1
403,404,1580695375685,1.1401,0.64129996,-1.7857,1.1512183999999999,-0.44515872,7.9515557,-1
404,405,1580695375695,1.1314,0.19489999,-1.5929999,1.3302566999999998,-1.2783697,8.42647,-1
405,406,1580695375705,1.3047,-0.6053,-1.2227,1.5173969999999999,-2.1873906,8.720497,-1
406,407,1580695375716,1.3083,-1.5493,-0.9492,1.1441603,-2.8967447,8.835256,-1
407,408,1580695375726,0.6626,-1.9093,-1.0373,-0.037100546,-2.4865603,8.466635,-1
408,409,1580695375736,-0.72169995,-0.8738,-1.4969999999999999,-1.0769886,-1.2337513,8.150696,-1
409,410,1580695375746,-1.1590999,0.743,-1.4550999,-0.5748574000000001,0.21244231,8.940227,-1
410,411,1580695375756,0.0643,1.5928999,0.0011,1.0796317,0.9454703000000001,11.215992,-1
411,412,1580695375766,1.6277,2.3892,2.4401,2.2435586,1.6399324,13.618554999999999,-1
412,413,1580695375776,2.2944,2.8648,4.2999997,2.0583047999999997,1.3990662,14.42087,-1
413,414,1580695375786,1.6441,2.162,4.5775,0.80615646,0.018856734,13.691692000000002,-1
414,415,1580695375796,0.20639999,0.6166,3.2798,-0.57235783,-1.2084876,11.673264999999999,-1
415,416,1580695375806,-0.9501,-0.35889998,0.94689995,-1.2411063,-1.7721595,9.369939,-1
416,417,1580695375817,-1.3175,-0.83089995,-1.2113999,-1.0969466,-1.8577185,7.473462599999999,-1
417,418,1580695375827,-1.0185,-0.79819995,-2.8483999,-0.6127815999999999,-1.3742526000000002,6.4306245,-1
418,419,1580695375837,-0.41939998,-0.1361,-3.3637998,0.08670841,-0.64324534,6.7037745,-1
419,420,1580695375847,0.6204,0.64169997,-2.1687,1.6268601,0.0046830587,9.226716999999999,-1
420,421,1580695375857,1.6373,0.88199997,-0.15619999,2.132975,0.102213256,10.838761,-1
421,422,1580695375867,2.0194,1.0209,1.2691,2.0224109,-0.006397307,11.515756,-1
422,423,1580695375877,1.8363999,0.8968,1.8015,1.3329862,-0.33866462,11.530284,-1
423,424,1580695375888,1.0451,0.5534,1.6748999,0.4473805,-0.7482934,10.905493,-1
424,425,1580695375898,-0.0879,0.0334,0.6433,-0.8354519,-0.99105585,9.523052,-1
425,426,1580695375908,-1.0754,-0.048299998,-0.3802,-1.1235605,-0.71808815,9.377265,-1
426,427,1580695375918,-1.2294999,0.2003,-0.2856,-0.7704637,-0.394507,10.111231,-1
427,428,1580695375928,-0.8889,0.47259998,0.5266,-0.30900526,-0.25462815,11.23755,-1
428,429,1580695375938,-0.466,0.5591,1.7131,0.054137687999999996,-0.37543000000000004,12.633369,-1
429,430,1580695375948,-0.16409999,0.3997,3.1262,0.13532028,-0.7412257,13.655807999999999,-1
430,431,1580695375958,-0.1653,0.003,3.9410000000000003,-0.37130237,-1.2859927,13.550588000000001,-1
431,432,1580695375968,-0.7202,-0.5582,3.6366,-1.1382705,-1.7707803,12.725546000000001,-1
432,433,1580695375978,-1.3833,-0.9869,2.7623,-1.4768777,-1.7877408,11.933448,-1
433,434,1580695375988,-1.5428,-0.90709996,2.0737,-1.2206119,-1.4614878,11.966508000000001,-1
434,435,1580695375999,-1.0134,-0.48659998,2.5228,-0.4236109,-1.0530369,13.355967499999998,-1
435,436,1580695376009,-0.3561,-0.22,3.8451998,0.2143864,-0.65136653,14.672262,-1
436,437,1580695376019,0.1426,0.103199996,4.8929996,0.6525253000000001,-0.41974184,15.131804,-1
437,438,1580695376029,0.5846,0.3206,5.3420000000000005,1.182908,-0.23840503,15.438474,-1
438,439,1580695376039,1.1283,0.46409997,5.6534,1.6277793999999999,-0.043057323,15.850898999999998,-1
439,440,1580695376050,1.5978,0.624,6.0627,1.8790174,0.0649116,16.021116,-1
440,441,1580695376060,1.8593998999999999,0.6756,6.1642,1.8210490000000001,0.13516705,15.971403,-1
441,442,1580695376070,1.6489999,0.78059995,6.0031,1.5970091999999998,0.32056445,15.803042999999999,-1
442,443,1580695376080,1.6489999,0.78059995,6.0031,1.499498,0.43104252,15.781505,-1
443,444,1580695376091,1.5431,0.7844,5.9691997,1.3346621,0.5148491,15.756375,-1
444,445,1580695376101,1.1869999,0.6913,5.6981,1.2194723,0.60984147,15.514082,-1
445,446,1580695376111,0.98999995,0.60429996,5.1587996,1.0322744000000001,0.6586449000000001,14.855523000000002,-1
446,447,1580695376121,0.6265,0.3972,4.6319,0.6688921,0.629292,14.372163,-1
447,448,1580695376131,0.132,0.31399998,4.3034,0.22697031,0.7129358,14.049952,-1
448,449,1580695376142,0.0197,0.2505,4.045099700000001,0.21961533,0.8201576999999999,13.718173,-1
449,450,1580695376152,0.19659999,0.371,3.4155,0.38217205,1.1616379,12.969619999999999,-1
450,451,1580695376163,0.3854,0.6734,2.6597,0.59655845,1.5546508999999997,12.256914,-1
451,452,1580695376173,0.7752,0.83419997,2.1503,1.0274669,1.8349736,11.733839,-1
452,453,1580695376183,1.0109999,0.8781,1.7012999,0.9843424999999999,1.8952118000000002,11.337943,-1
453,454,1580695376193,0.74039996,0.7123,1.6369999999999998,0.72214866,1.8514745,11.63605,-1
454,455,1580695376204,0.5688,0.5291,2.4287,0.63561267,1.8104186999999998,12.423924000000001,-1
455,456,1580695376214,0.4112,0.46879998,2.7835,0.48561114,1.9812976999999998,12.432439,-1
456,457,1580695376224,0.18349999,0.44099998,2.6437,0.3641389,2.057213,12.241064,-1
457,458,1580695376234,0.1413,0.22749999,2.2930999,0.4075506,1.9312300999999998,11.766964999999999,-1
458,459,1580695376244,-0.0255,-0.20439999,1.7895,0.1372165,1.6918578000000002,11.024264,-1
459,460,1580695376254,-0.0255,-0.20439999,1.7895,-0.54532254,1.5933986999999998,9.616674,-1
460,461,1580695376264,-1.0783,-0.80869997,-0.3673,-0.9026139999999999,1.4047931,8.705480999999999,-1
461,462,1580695376274,-1.4345,-1.1385,-1.4839,-1.1914409,1.3359836,7.4908056,-1
462,463,1580695376284,-1.5288,-1.3302,-2.6791,-1.1482017,1.2260611000000001,6.4777517,-1
463,464,1580695376294,-1.3428999,-1.6347,-2.9933,-0.9644323,1.0833571000000002,6.575311,-1
464,465,1580695376305,-1.2275,-1.7665,-2.6036,-0.8609261999999999,1.0950024999999999,6.8143673,-1
465,466,1580695376315,-0.9309,-1.8402,-2.715,-0.115094066,1.4059422,6.314237599999999,-1
466,467,1580695376325,-0.096499994,-1.4347,-3.2301,0.82631564,2.007605,5.7107553,-1
467,468,1580695376335,0.8472,-1.0328,-3.7991998,1.4424012,2.2769717999999997,5.2084904000000005,-1
468,469,1580695376345,1.2422999,-0.963,-4.1500998,1.4435505,2.272739,5.074769,-1
469,470,1580695376356,1.0828,-1.2565,-4.1445,0.9924445,1.7348003,5.159456700000001,-1
470,471,1580695376366,0.5624,-1.7929,-3.9759998,0.13121182,1.2801892,5.4823002999999995,-1
471,472,1580695376376,-0.217,-2.248,-3.5328,-0.67641944,0.91559064,5.884047499999999,-1
472,473,1580695376387,-0.83089995,-2.6476,-3.3056997999999997,-1.2498403999999999,0.5915210999999999,5.679439,-1
473,474,1580695376397,-1.3002,-2.9427998,-3.6961,-1.5389258,0.45738829999999997,5.227433,-1
474,475,1580695376407,-1.367,-3.0872998,-4.1447997,-1.486445,0.37302622,4.681603,-1
475,476,1580695376417,-1.2303,-3.2594,-4.6819997,-1.2723841999999999,0.23927651,4.2055593,-1
476,477,1580695376427,-0.9083,-3.3725998,-5.0948997,-0.9700348,0.4778348,3.5555427,-1
477,478,1580695376437,-0.6202,-3.1173,-5.6503,-0.897682,0.5872977,3.4081940000000004,-1
478,479,1580695376448,-0.51449996,-3.0888,-5.6235,-0.9760777,0.48733497,4.071751600000001,-1
479,480,1580695376458,-0.5362,-3.1722,-4.8472,-1.1315285,0.65485245,5.03153,-1
480,481,1580695376468,-0.6421,-2.9071,-3.8772,-1.2634777,1.2463065,5.885398,-1
481,482,1580695376478,-0.6551,-2.2361999,-3.0627,-0.81235266,1.9101516,6.611041999999999,-1
482,483,1580695376489,-0.1235,-1.6351,-2.412,-0.2934525,2.3660363999999996,6.6078243,-1
483,484,1580695376499,0.3712,-1.2398,-2.5816,0.03866157,2.4250677000000005,5.970325,-1
484,485,1580695376509,0.65389997,-1.3271998999999999,-3.2495,0.063168615,1.9470127000000002,5.4520855,-1
485,486,1580695376519,0.6221,-1.8384,-3.6741,-0.43069769999999996,1.5781428999999998,5.31802,-1
486,487,1580695376529,0.1432,-2.141,-3.7494998,-1.0393803,1.4569484,5.6133785000000005,-1
487,488,1580695376539,-0.30069998,-2.2161,-3.4563,-1.3273071,1.4462223,6.0687175,-1
488,489,1580695376550,-0.6117,-2.2236,-2.8234,-1.8528631999999998,1.5941169,7.0902080000000005,-1
489,490,1580695376560,-1.1448,-1.9254999,-1.7902,-2.206573,2.4226642000000003,8.231812,-1
490,491,1580695376570,-0.79789996,-0.7955,-0.2295,-1.62573,2.8068182,8.86117,-1
491,492,1580695376580,-0.79789996,-0.7955,-0.2295,-0.9337770000000001,3.0121834,8.949938000000001,-1
492,493,1580695376590,-0.1269,-0.6098,-0.1393,-0.36438790000000004,3.1709766,8.289857000000001,-1
493,494,1580695376600,0.649,-0.35639998,-1.5352,-0.113006316,3.3197233999999995,7.5411515,-1
494,495,1580695376611,0.649,-0.35639998,-1.5352,-0.26976907,3.3727982000000005,7.147429499999999,-1
495,496,1580695376621,0.20639999,-0.4772,-1.6503999,-0.53816867,3.2270775,7.4197940000000004,-1
496,497,1580695376631,-0.061199997,-0.8009999999999999,-0.94449997,-0.8780304,2.8765566000000002,8.242135000000001,-1
497,498,1580695376641,-0.061199997,-0.8009999999999999,-0.94449997,-1.2402444,2.8965628,8.691269,-1
498,499,1580695376651,-0.7556,-0.4856,0.079799995,-1.4724628,3.2818377,9.236533,-1
499,500,1580695376661,-0.5669,-0.21679999,0.41099998,-1.298184,3.47436,9.48192,-1
500,501,1580695376672,-0.2365,0.0155,0.3621,-0.8765651,3.7774372000000005,9.374737,-1
501,502,1580695376682,0.1961,0.309,0.11009999,-0.3788489,4.021961699999999,9.168002,-1
502,503,1580695376692,0.7014,0.29459998,0.22199999,0.13041696,3.9968421000000003,9.357861999999999,-1
503,504,1580695376702,0.81049997,0.1604,0.61899996,0.13583744,3.868149,9.749514999999999,-1
504,505,1580695376712,0.5094,-0.0167,0.8904,-0.17220056,3.6981127000000003,9.966181,-1
505,506,1580695376722,0.1854,-0.2961,0.8207,-0.46700340000000007,3.4584916,9.782928,-1
506,507,1580695376733,-0.1354,-0.25259998,0.3306,-0.7530435000000001,3.5885347999999997,9.276985,-1
507,508,1580695376743,-0.13939999,-0.0285,0.026099999,-0.6236225000000001,3.8711943999999994,9.000446,-1
508,509,1580695376753,0.1871,0.1235,-0.094299994,-0.36890817,3.9964302000000003,8.913153999999999,-1
509,510,1580695376763,0.2606,0.2103,-0.0591,-0.3986633,4.0399756,9.015058999999999,-1
510,511,1580695376773,0.1325,0.109799996,0.2017,-0.53495085,3.9438822,9.273814999999999,-1
511,512,1580695376783,0.020399999,-0.0556,0.5329,-0.607907,3.7880675999999998,9.572344000000001,-1
512,513,1580695376794,0.0374,-0.1149,0.46589997,-0.56943697,3.821165,9.3873205,-1
513,514,1580695376804,-0.065299995,0.098699994,0.0736,-0.63133186,4.201958,8.883494,-1
514,515,1580695376814,-0.057099998,0.38529998,-0.2452,-0.520193,4.4166989999999995,8.592388,-1
515,516,1580695376824,0.092,0.3852,-0.6116,-0.34452564,4.4339949999999995,8.1015,-1
516,517,1580695376834,0.2979,0.3373,-1.119,-0.09379524,4.309984,7.7633715,-1
517,518,1580695376845,0.5438,0.0862,-1.0432,0.15544115,4.0858393,8.026283,d
518,519,1580695376855,0.71389997,-0.094299994,-0.57049996,0.22395363,3.9145582,8.567267,-1
519,520,1580695376865,0.5894,-0.309,0.0274,-0.103793435,3.6173900000000003,9.175796499999999,-1
520,521,1580695376876,0.2908,-0.5924,0.292,-0.46457088,3.3556175,9.129714,-1
521,522,1580695376886,-0.15699999,-0.83129996,0.107999995,-1.2665998,3.0968904,8.706112,-1
522,523,1580695376896,-0.93369997,-1.0094,-0.3073,-2.1265202000000003,3.0998878,8.265263000000001,-1
523,524,1580695376907,-1.9258,-1.0794,-0.80649996,-2.8809812000000004,2.9095297,7.9227295,-1
524,525,1580695376917,-2.4522,-1.3342999,-1.1352999,-3.2125208,2.8046252999999997,7.1371535999999995,-1
525,526,1580695376927,-2.6691,-1.3804,-1.8924999,-3.2374394,2.6587899,6.3864856,-1
526,527,1580695376937,-2.6457999,-1.6365,-2.6281998,-3.2715042000000003,2.4005415,5.4701953,-1
527,528,1580695376947,-2.73,-1.9282999,-3.5372,-3.5356421,2.1239060000000003,4.625511599999999,-1
528,529,1580695376958,-2.9942,-2.2502,-4.3082,-3.6203491999999997,1.7207702,4.164072,-1
529,530,1580695376968,-3.0177,-2.9146,-4.864,-3.5948555,0.7019225,3.4909184,-1
530,531,1580695376978,-3.0737,-3.8260998999999996,-5.3945,-4.235343,-0.04384262,3.1397943,-1
531,532,1580695376989,-3.8916,-4.4625,-5.6846,-5.4021044,-0.28647100000000003,3.0595597999999997,-1
532,533,1580695376999,-5.0667995999999995,-4.646,-5.7349,-6.588114999999999,-0.34117374,2.9697583,-1
533,534,1580695377009,-6.1984,-4.624,-5.867999999999999,-7.445028999999999,-0.124871984,2.5543258,-1
534,535,1580695377019,-6.9378,-4.3715,-6.337000000000001,-7.285757,0.18067604,1.7494911,-1
535,536,1580695377029,-6.7054,-4.1293,-7.0611997,-6.2334285000000005,0.24095245,0.36937743,-1
536,537,1580695377040,-5.671,-4.0517,-8.4401,-4.8623843,-0.24440011,-1.5742833999999999,-1
537,538,1580695377050,-3.2131,-5.5649,-11.9085,-3.618807,-1.2899479999999999,-3.1061799999999997,-1
538,539,1580695377060,-3.2131,-5.5649,-11.9085,-3.2470737,-1.8488026000000002,-3.7723807999999996,-1
539,540,1580695377070,-3.0753999,-5.5017,-11.347199,-3.2421992000000004,-1.3274700000000001,-2.4904869,-1
540,541,1580695377080,-3.0753999,-5.5017,-11.347199,-2.9507195999999998,-1.0338546,1.2118491000000002,-1
541,542,1580695377091,-2.8950999,-5.0554,-7.7314,-2.728844,-0.59906757,4.3015475,-1
542,543,1580695377101,-2.008,-3.7439999999999998,-1.4041,-1.8768721999999998,-0.15843870000000002,7.7273054000000005,-1
543,544,1580695377111,-0.9209999999999999,-3.0493,-0.2382,-0.3707469,0.49072516,9.006728,-1
544,545,1580695377121,0.80719995,-2.2528,-0.8767,1.5933125,0.9678991,8.09585,-1
545,546,1580695377131,2.355,-2.5082,-2.4305,3.0552406000000003,0.40811563,6.6633124000000015,-1
546,547,1580695377141,2.355,-2.5082,-2.4305,3.6546529999999997,0.11610921,6.419918,-1
547,548,1580695377152,4.2297,-2.3288,-1.4252,5.012386,0.44561842,7.9651837,-1
548,549,1580695377161,4.7453,-1.54,1.3567,5.659845,1.0358657,10.789489,-1
549,550,1580695377171,4.6432,-0.3515,3.6639,5.6554203,2.0081130000000003,13.143937,-1
550,551,1580695377181,4.9547,0.1504,5.2165,6.174081,2.2494388,14.986965,-1
551,552,1580695377191,4.9547,0.1504,5.2165,6.6749578,2.1121647,15.557331,-1
552,553,1580695377201,7.0312,0.34379998,7.1749997,8.240545,2.0405971999999997,16.773989,-1
553,554,1580695377212,9.0657,0.7689,9.3088,10.791481,2.3965096000000004,19.471007999999998,-1
554,555,1580695377222,11.0841,1.6144999,11.741199499999999,12.744327,3.0540533,21.73712,-1
555,556,1580695377232,12.1985,2.3669999,13.280999999999999,13.586913000000001,3.4845212,22.942905,-1
556,557,1580695377242,12.1985,2.3669999,13.280999999999999,13.975942000000002,3.966761,24.536535,-1
557,558,1580695377252,12.8679,3.1462,15.215698999999999,14.254482999999999,3.9135046,24.906239000000003,-1
558,559,1580695377262,13.1124,2.9822,14.9408,14.53085,3.5781730000000005,24.522955,-1
559,560,1580695377273,13.6171,2.7238,14.3108,15.063953,3.3538074,23.876684,-1
560,561,1580695377284,13.851398999999999,2.7593,13.5209,15.242944,3.3957536,22.858324,-1
561,562,1580695377294,13.695398999999998,2.6612,12.715099,14.914488,3.2817419,22.106133,-1
562,563,1580695377304,13.060699000000001,2.3897,11.939899,14.1927805,3.024279,21.299221,-1
563,564,1580695377314,12.3832,2.0479998999999998,11.05,13.805216,2.8491576000000003,20.73329,-1
564,565,1580695377324,11.9929,1.7033,9.8055,13.243029,2.4749822999999997,19.002615,-1
565,566,1580695377334,11.5008,1.1912,8.2578,12.44099,1.8904138,17.161217,-1
566,567,1580695377345,11.5008,1.1912,8.2578,11.989108,1.5966931999999998,16.33561,-1
567,568,1580695377355,9.3756,-0.6784,3.7842998999999997,10.158885,0.25115177,12.268196000000001,-1
568,569,1580695377365,8.405399000000001,-1.6200999,0.8523,9.051375,-0.47131297,8.912061999999999,-1
569,570,1580695377375,7.585099700000001,-2.2080998,-1.5920999,8.431057000000001,-0.6618148,7.234856,-1
570,571,1580695377386,6.8385,-2.533,-3.4443,7.556512400000001,-0.9518484,5.208615,-1
571,572,1580695377395,6.0165,-3.0951,-4.835099700000001,6.404096599999999,-1.4278923000000001,4.1453686,-1
572,573,1580695377405,4.6306,-3.6499998999999996,-5.5920997,5.076675,-1.6465212,3.8747952000000003,-1
573,574,1580695377415,2.8630998,-4.0165,-5.4632998,3.2811,-2.0164638,4.1379275,-1
574,575,1580695377425,1.3936,-4.6299,-5.6358,1.9368708,-2.808734,2.9826772,-1
575,576,1580695377435,0.6012,-5.3917,-7.2622,1.2619837999999999,-3.3355346,1.0121152,-1
576,577,1580695377446,0.0464,-5.7393,-9.152599,0.8407190999999999,-3.3171856,-0.40890092,-1
577,578,1580695377456,-0.2592,-5.6766,-10.1298,0.58640707,-3.087601,-0.8690952,-1
578,579,1580695377466,-0.7195,-5.1972,-10.3918,-0.04687847,-2.319608,-1.007528,-1
579,580,1580695377476,-1.3400999,-4.6157,-10.326099000000001,-0.7874721,-2.0128725,-0.5275001,-1
580,581,1580695377486,-2.2115998,-4.4837,-9.5836,-1.7698131000000001,-2.0071743000000004,0.36392823,-1
581,582,1580695377496,-3.2222998,-4.4799,-8.811399,-2.7468388,-2.063936,0.7618254,-1
582,583,1580695377507,-4.053499700000001,-4.4901,-8.7993,-3.3109512000000003,-2.2122613999999996,0.46435059999999995,-1
583,584,1580695377516,-4.6496997,-4.7507997,-9.3763,-3.8701502999999997,-2.5711617,-0.0606978,-1
584,585,1580695377526,-5.1814,-5.0464,-9.815,-4.328295,-2.8514369,-0.41709867,-1
585,586,1580695377536,-5.8995,-5.3448,-10.154799,-5.4843884,-3.4762852,-0.61651653,-1
586,587,1580695377546,-6.9907,-5.7271,-9.985,-6.8298144,-3.7859222999999997,-0.09622775,-1
587,588,1580695377556,-8.5518,-5.85,-9.3279,-8.165559,-4.001353,0.63178194,-1
588,589,1580695377566,-10.2223,-6.0945,-8.1573,-9.903155,-4.5774074,2.364868,-1
589,590,1580695377577,-11.3901,-6.4909,-6.5533,-10.676644999999999,-5.299355,4.1857347,-1
590,591,1580695377587,-11.9487,-7.0250998,-4.6984997,-11.073949,-6.0405326,6.0540449999999995,-1
591,592,1580695377597,-12.237599000000001,-7.4603,-3.0077999,-11.445998,-6.679017999999999,7.502795699999999,-1
592,593,1580695377607,-12.6431,-7.62,-2.1234999,-12.096666,-6.700767,7.694408999999999,-1
593,594,1580695377617,-13.562798999999998,-7.3897,-1.9950999,-12.959727,-6.9148374000000015,7.8629603,-1
594,595,1580695377627,-14.3229,-7.5512,-1.6917,-13.591903,-7.3366957,8.469661,-1
595,596,1580695377638,-14.9375,-7.6520996,-0.9794,-14.087435000000001,-7.7267594,9.350622,-1
596,597,1580695377648,-15.3678,-7.9287,0.1016,-14.384488000000001,-8.354069,11.048675999999999,-1
597,598,1580695377658,-15.6275,-8.1214,1.64,-14.287763,-8.556245,12.453957,-1
598,599,1580695377668,-15.4169,-8.0163,2.9594,-13.233193,-8.668006,13.51818,-1
599,600,1580695377678,-14.1711,-7.8343997000000005,4.0204997,-11.630063999999999,-8.612767,14.608825,-1
600,601,1580695377689,-12.5557995,-7.3926997000000005,5.196000000000001,-10.086139999999999,-8.186551,16.147465,-1
601,602,1580695377699,-11.0243,-6.7131996,6.8787,-8.813009,-8.047074,17.928194,-1
602,603,1580695377709,-9.828199,-6.3436,8.6368,-8.0965395,-8.054669,19.302570000000003,-1
603,604,1580695377721,-9.2535,-6.0901,9.751699,-7.3705305999999995,-7.9954367,19.711721,-1
604,605,1580695377731,-6.594599700000001,-5.1632,10.5626,-4.820026,-7.4676203999999995,20.116245000000003,-1
605,606,1580695377741,-4.1005,-4.4505,10.9836,-2.5031377999999997,-6.898337,20.482492,-1
606,607,1580695377751,-2.0876,-3.7603,11.2871,-0.91198975,-6.6275334,20.656416,-1
607,608,1580695377761,-0.83529997,-3.7979998999999998,11.1181,0.050421886,-6.907070599999999,20.338638,-1
608,609,1580695377772,-0.2659,-4.0624,11.2904,0.5511644,-7.3164506,20.821377,-1
609,610,1580695377782,0.8473,-4.0288,13.603399,1.7644788,-7.2955445999999995,23.482521,-1
610,611,1580695377792,2.8035997999999998,-3.2735999,17.0859,3.7765372000000004,-6.5702257,26.901587,-1
611,612,1580695377802,5.1091,-2.1696,19.944000000000003,5.958114599999999,-5.601158,29.462010999999997,-1
612,613,1580695377813,6.8487,-1.3335999,21.0574,7.4042315,-4.9165410000000005,30.057928000000004,-1
613,614,1580695377823,7.2953,-1.0811,19.5044,7.5075746,-4.7696137,28.067781,-1
614,615,1580695377833,6.8208,-1.2849,16.726599,6.9218383,-4.9308205,24.871742,-1
615,616,1580695377843,6.7275,-1.5745,14.5371,7.0492577999999995,-5.062137,23.198868,-1
616,617,1580695377853,7.079,-1.6933999,13.4067,7.3355083,-4.9165220000000005,22.512173,-1
617,618,1580695377863,7.2797,-1.4739,12.742599499999999,7.5995984,-4.4132705,21.838117999999998,-1
618,619,1580695377874,7.4027996,-1.3331,12.0081,7.5855494000000006,-4.0997925,20.927803,-1
619,620,1580695377884,7.1835,-1.1739,10.5667,7.3235755000000005,-3.6862277999999997,19.286634,-1
620,621,1580695377894,6.9546,-0.9984,8.439,7.1553783,-3.1933289,17.050652,-1
621,622,1580695377904,6.9800997,-0.8559,6.0976996,7.3333344,-2.9223435,14.844252,-1
622,623,1580695377914,7.1944,-1.0755,4.105,7.4078135,-2.845078,13.111328,-1
623,624,1580695377924,6.932699700000001,-1.122,2.6108,7.075297,-2.529886,11.905043,-1
624,625,1580695377935,6.5927997000000005,-1.3001,1.7056999,6.768466,-2.5576682,11.14816,-1
625,626,1580695377945,6.0478997,-1.7256999,0.96879995,5.9984136,-2.6017313,10.32059,-1
626,627,1580695377955,5.3701,-1.9636999,0.2224,5.622888,-2.5744085,9.4233675,-1
627,628,1580695377965,5.1106,-2.2212,-0.7995,5.458895,-2.4422581,8.30518,-1
628,629,1580695377975,4.9575,-2.3559,-2.0683,5.494626,-2.1998692,6.7376570000000005,-1
629,630,1580695377986,5.1389,-2.2707999,-3.6920998,6.0262156,-1.6933996999999998,5.2476687,-1
630,631,1580695377996,5.9066997,-2.0479,-5.0213,6.9416139999999995,-1.1522814,4.2338777,-1
631,632,1580695378006,6.7988,-1.735,-5.7732997,7.750797,-0.71568435,3.7458242999999993,-1
632,633,1580695378016,7.5211997,-1.4587,-6.1301,8.183898,-0.20474255,3.5891287000000003,-1
633,634,1580695378026,7.8472,-1.2135,-6.1941,8.213625,-0.037723042000000005,3.5283256,-1
634,635,1580695378037,7.6846,-1.275,-6.171,7.7199693,-0.13044567,3.4558291,-1
635,636,1580695378047,7.2844996,-1.6446999,-6.442,7.520743400000001,-0.40085640000000006,2.9067142,-1
636,637,1580695378057,7.2893,-1.8737999,-7.0642996,7.764539699999999,-0.48248909999999995,2.3431954,-1
637,638,1580695378067,7.6130996,-2.0386,-7.3325,8.028399,-0.51649636,2.4972386,-1
638,639,1580695378077,7.8391,-2.2417998,-6.9849997,7.781136,-0.92263913,3.0294216,-1
639,640,1580695378087,7.4551997000000005,-2.7178,-6.6327996,6.922432000000001,-1.4984639,2.6536949,-1
640,641,1580695378097,6.5867996,-3.353,-7.1878,6.1315985,-1.7681276000000001,1.9351375,-1
641,642,1580695378108,6.0067,-3.5105998999999994,-7.7160997,6.502834,-1.6926526999999998,2.6187682,-1
642,643,1580695378118,6.654,-3.3823998,-6.7945,7.500315700000001,-1.4883411,3.4618528,-1
643,644,1580695378128,7.7235,-3.2026,-6.0811,8.564633,-1.4899021000000001,4.210424,-1
644,645,1580695378139,8.6742,-3.1666,-5.2228,9.062666,-1.1919198,5.794916000000001,-1
645,646,1580695378149,9.171599,-2.7800999,-3.4652,9.376354,-0.7926723000000001,7.6800723,-1
646,647,1580695378159,9.425099000000001,-2.3398,-1.7472,8.973726,-0.49057192,8.488,-1
647,648,1580695378169,8.9281,-2.0967999,-1.1432999,8.278689,-0.84644604,7.590816499999999,-1
648,649,1580695378179,8.412499,-2.437,-2.093,8.333699000000001,-1.0678715,5.328420599999999,-1
649,650,1580695378189,8.472999999999999,-2.6889,-4.3539,8.383804,-1.2605473,4.6572394,-1
650,651,1580695378199,8.4965,-2.9219,-5.013099700000001,8.09651,-1.3614389,5.2708635,-1
651,652,1580695378209,8.0668,-3.0326,-4.1547,7.570638000000001,-1.0810683,6.586171,-1
652,653,1580695378219,7.4986,-2.7108998,-2.7897,7.072394999999999,-0.7108576999999999,7.9202394,-1
653,654,1580695378229,7.0267,-2.3593,-1.5654,6.480683,-0.6369343000000001,8.460602,-1
654,655,1580695378239,6.5519,-2.3222,-1.2054,6.004188500000001,-0.70829105,8.541266,-1
655,656,1580695378249,6.0024,-2.4071999,-1.1191,5.4635489999999995,-1.0052199,8.452174000000001,-1
656,657,1580695378259,5.477999700000001,-2.7686,-1.2957,4.633182499999999,-1.6020083,8.085449,-1
657,658,1580695378270,4.7434998,-3.2877998,-1.5784999,3.7021732000000003,-1.9436991000000001,8.035573,-1
658,659,1580695378280,3.8056997999999997,-3.6316998,-1.6258,2.7910454,-2.1844792,8.204594,-1
659,660,1580695378290,2.8931,-3.8832998,-1.4678999,2.070496,-1.8942158,8.552271000000001,-1
660,661,1580695378300,2.154,-3.5881,-1.1053,1.3076268,-1.7801273000000002,8.975374,-1
661,662,1580695378310,0.20629999,-3.7266998,-0.22929999,0.12038046,-2.0780234,9.44661,-1
662,663,1580695378321,-0.9966,-4.0762,0.1477,-1.1288278,-2.4424403,9.835352,-1
663,664,1580695378331,-0.9966,-4.0762,0.1477,-2.1595414,-2.956188,9.967425,-1
664,665,1580695378341,-2.8488,-5.0558,0.010799999,-3.191461,-3.561107,9.720402,-1
665,666,1580695378351,-3.6574,-5.2226,0.5261,-3.8469746,-3.6815257000000003,10.211414,-1
666,667,1580695378361,-4.473799700000001,-5.0141,1.285,-4.869911699999999,-3.4592671000000004,11.1349535,-1
667,668,1580695378371,-5.3227997,-4.6598997,1.9746,-5.753927,-3.1430123,11.737564,-1
668,669,1580695378381,-5.3227997,-4.6598997,1.9746,-6.3161726,-2.8482380000000003,11.594478,-1
669,670,1580695378392,-6.7172,-4.124,1.319,-7.2584057,-2.79275,10.868795,-1
670,671,1580695378402,-7.9323997,-4.4667,0.2886,-8.574135,-3.2109213,9.723821000000001,-1
671,672,1580695378413,-9.004399000000001,-4.8613,-1.0248,-9.547607000000001,-3.5695155,8.484409,-1
672,673,1580695378424,-9.1888,-4.8627996,-1.0052999,-9.402614999999999,-3.3464046,9.161567,-1
673,674,1580695378434,-8.7019,-4.3089,0.44349998,-8.810145,-2.6519327,10.87069,-1
674,675,1580695378444,-8.1926,-3.5221998999999995,2.0669999999999997,-8.389685,-1.9083223000000002,12.159336,-1
675,676,1580695378454,-7.6776,-2.7691998,2.6218998,-7.7120875999999985,-1.2544851000000001,12.2534,-1
676,677,1580695378464,-6.7226996,-2.2698,2.1197,-6.8471006999999995,-0.8757607,11.469864,-1
677,678,1580695378475,-6.0664,-1.9613999,1.1589,-6.410255,-0.6285641,10.401178,-1
678,679,1580695378485,-5.8968997000000005,-1.8428999,0.43519998,-6.392193,-0.6007051999999999,10.054526,-1
679,680,1580695378495,-5.8252997,-1.8307999,0.0358,-6.360695,-0.6239098000000001,9.415687,-1
680,681,1580695378506,-5.8503,-1.9411999,-0.6182,-6.460897,-0.74384016,8.761352,-1
681,682,1580695378516,-5.8521,-1.9755,-1.0859999999999999,-6.3085585,-0.6417227,8.648144,-1
682,683,1580695378526,-5.4249997,-1.7027999,-0.9468,-5.6374736,-0.16666517,8.984452000000001,-1
683,684,1580695378536,-4.8153,-1.3054999,-0.57339996,-5.1061525,0.083117105,9.415294,-1
684,685,1580695378546,-4.2927,-1.1528,-0.0831,-4.5185385,0.2745,9.930689,-1
685,686,1580695378556,-3.6574998,-0.9327,0.3972,-3.9757633,0.43355164,10.267439,-1
686,687,1580695378568,-3.1689,-0.7705,0.5546,-3.6416477999999994,0.59077406,10.137032000000001,-1
687,688,1580695378578,-2.8039,-0.62479997,0.25239998,-3.2083068,0.6937727,9.527189,-1
688,689,1580695378588,-2.3727999,-0.5566,-0.28399998,-2.8294770000000002,0.76341516,8.958586,-1
689,690,1580695378598,-1.9978999,-0.4957,-0.8689,-2.6715841,0.7709999999999999,8.514298,-1
690,691,1580695378608,-1.8591,-0.54679996,-1.2579,-2.6355755000000003,0.7396550999999999,8.49208,-1
691,692,1580695378618,-1.8004999,-0.528,-1.1773,-2.5555325,0.80511254,8.5825815,d
692,693,1580695378628,-1.7353,-0.4648,-1.0289,-2.596234,0.90496993,8.927155,-1
693,694,1580695378639,-1.7928,-0.3836,-0.7048,-2.6889950000000002,0.9259335999999999,9.178718,-1
694,695,1580695378649,-1.8362,-0.35529998,-0.4888,-2.623959,1.008658,9.313636,-1
695,696,1580695378659,-1.7429999,-0.24749999,-0.3123,-2.4645912999999995,1.0896873,9.585637,-1
696,697,1580695378669,-1.5669,-0.1603,-0.0969,-2.2803335,1.1220953000000002,9.494187,-1
697,698,1580695378680,-1.3765999,-0.1557,-0.24419999,-1.9912096999999997,1.1045123,9.157036,-1
698,699,1580695378690,-1.025,-0.16499999,-0.6171,-1.4979850000000001,1.1091474,8.952581,-1
699,700,1580695378700,-0.32529998,0.0341,-0.6189,-1.1690695,1.2982893999999998,9.088045,-1
700,701,1580695378710,0.0775,0.2298,-0.2188,-0.75837773,1.4841943000000002,9.487206,-1
701,702,1580695378721,0.2766,0.3606,0.073,-0.55601025,1.589836,9.770267500000001,-1
702,703,1580695378731,0.2766,0.3606,0.073,-0.571812,1.6218992,9.879108,-1
703,704,1580695378741,0.13509999,0.45319998,0.5101,-0.71858615,1.6895113999999998,10.290777,-1
704,705,1580695378751,-0.0347,0.4991,0.68479997,-0.8456319999999999,1.7087705000000002,10.399818,-1
705,706,1580695378762,-0.1363,0.28419998,0.5168,-0.9513792,1.4601566000000001,10.184656,-1
706,707,1580695378772,-0.2865,0.1241,0.2907,-1.0962571,1.2939032,9.963529,-1
707,708,1580695378783,-0.4258,-0.0178,0.2217,-1.2137741000000002,1.1765299,9.945025,-1
708,709,1580695378793,-0.4258,-0.0178,0.2217,-1.2691281,1.1747676999999999,9.973478,-1
709,710,1580695378803,-0.53389996,-0.025899999,0.2015,-1.3078662,1.1848521,9.875604,-1
710,711,1580695378813,-0.6026,-0.0565,-0.013999999499999999,-1.3547543,1.1624329,9.666139999999999,-1
711,712,1580695378823,-0.6175,-0.0942,-0.0727,-1.4020348999999999,1.09008,9.683607,-1
712,713,1580695378834,-0.6896,-0.1971,0.035,-1.4902278,0.9728408000000002,9.830841,-1
713,714,1580695378844,-0.8517,-0.2689,0.3189,-1.7042119999999998,0.9279447000000001,10.186447,-1
714,715,1580695378854,-1.0935,-0.3198,0.75949997,-1.9991679,0.7845799,10.652483,-1
715,716,1580695378864,-1.4922999,-0.5281,1.1413,-2.4629247000000003,0.59346515,10.924685,-1
716,717,1580695378874,-1.9381,-0.6321,1.2882999,-2.8565602,0.5612583999999999,11.039434,-1
717,718,1580695378884,-2.2057,-0.64309996,1.4262999,-3.046564,0.55400866,11.251905,-1
718,719,1580695378894,-2.3039,-0.6577,1.6826999,-3.1855237,0.538092,11.456006,-1
719,720,1580695378905,-2.5235,-0.6471,1.7732999,-3.386493,0.5367417,11.449829,-1
720,721,1580695378915,-2.6559,-0.75879997,1.63,-3.547029,0.37218344,11.2459,-1
721,722,1580695378925,-2.7407,-0.9327,1.3604,-3.7375402,0.12745772,10.859036,-1
722,723,1580695378936,-2.9689999,-1.2476,0.9741,-4.077306299999999,-0.16413689,10.361778999999999,-1
723,724,1580695378946,-3.2515,-1.4794999,0.3822,-4.321467,-0.25709897,9.846288000000001,-1
724,725,1580695378956,-3.3845,-1.5306,0.1426,-4.328123000000001,-0.119987816,9.944517,-1
725,726,1580695378966,-3.3711,-1.3576,0.43089998,-4.2670900000000005,0.12592544,10.444054,-1
726,727,1580695378976,-3.3095,-1.1633999,0.99259996,-4.129519,0.39004418,10.995256,-1
727,728,1580695378986,-3.085,-0.9115,1.4268,-3.6967432000000002,0.6712670999999999,11.135336,-1
728,729,1580695378997,-2.763,-0.7238,1.4501,-3.5320318,0.8439848,11.039961,-1
729,730,1580695379007,-2.6197999,-0.5933,1.3274,-3.3983681000000003,1.0406445,10.914964999999999,-1
730,731,1580695379017,-2.5002,-0.44149998,1.1472,-3.2872102,1.1613603000000001,10.364011,-1
731,732,1580695379027,-2.4875998,-0.4622,0.59569997,-3.4743315999999997,1.0594726,10.048005,-1
732,733,1580695379037,-2.8233,-0.6202,0.33929998,-3.843757,1.0053731,9.794296000000001,-1
733,734,1580695379047,-3.0979,-0.76049995,0.1034,-3.8863160000000003,0.92177725,9.498325,-1
734,735,1580695379058,-3.1311,-0.86679995,-0.1929,-3.67645,0.94593954,9.244683,-1
735,736,1580695379068,-2.8428,-0.84779996,-0.4202,-3.12338,1.2195777,9.016544999999999,-1
736,737,1580695379078,-2.2631,-0.5805,-0.648,-2.492747,1.4927752,8.977711,-1
737,738,1580695379088,-1.7329999,-0.406,-0.5529999999999999,-2.372721,1.4952077,9.269487,-1
738,739,1580695379098,-1.7231,-0.461,-0.312,-2.575577,1.4220887,9.333153999999999,-1
739,740,1580695379109,-1.9538,-0.5915,-0.24749999,-2.6488872000000003,1.2890861,9.478931,-1
740,741,1580695379119,-1.9871,-0.7504,-0.0752,-2.6344457,1.1611687,9.544111000000001,-1
741,742,1580695379129,-2.0115,-0.90059996,-0.0791,-2.6339952999999996,1.0882795,9.212572,-1
742,743,1580695379139,-2.0156999,-0.99469995,-0.3667,-2.2613618,1.1380598999999998,8.893301,-1
743,744,1580695379150,-1.6556,-0.98139995,-0.6735,-1.7710389,1.1281575000000001,8.507968,-1
744,745,1580695379159,-1.1657,-1.0241,-1.0491999,-1.5085768999999998,1.0426844000000002,8.161392999999999,-1
745,746,1580695379169,-0.85029995,-1.1609,-1.4550999,-1.2310601,0.97717905,7.964589999999999,-1
746,747,1580695379179,-0.5947,-1.2128999,-1.578,-0.90388775,0.9467056999999999,8.224867999999999,-1
747,748,1580695379189,-0.33799999999999997,-1.2816,-1.3292999,-0.78019375,0.9263261999999999,8.682936999999999,-1
748,749,1580695379199,-0.2339,-1.3074,-0.8677,-0.68454057,1.0010444,9.097783999999999,-1
749,750,1580695379209,-0.1589,-1.2348,-0.4558,-0.35934094,1.1386631999999999,9.303973,-1
750,751,1580695379220,0.2574,-1.0746,-0.2006,0.38361818,1.343942,9.449177,-1
751,752,1580695379230,1.0318999,-0.91779995,-0.1979,0.58677095,1.3457521000000001,9.345757,-1
752,753,1580695379240,1.0318999,-0.91779995,-0.1979,0.48176125,1.072794,9.290872,-1
753,754,1580695379250,0.7611,-1.5802,-0.5243,0.33659604,0.7157514,9.012436,-1
754,755,1580695379260,0.4297,-1.9671999,-0.7055,0.037435737000000004,0.347437,8.821369,-1
755,756,1580695379271,0.104899995,-1.9919,-0.9651,-0.29132646,0.34877774,8.560075,-1
756,757,1580695379281,0.3469,-1.778,-1.0981,-0.030550014,0.5868667,8.421595,-1
757,758,1580695379291,0.3469,-1.778,-1.0981,0.75088865,0.89323837,8.384877000000001,-1
758,759,1580695379301,1.8089998999999999,-1.2279999,-1.0654,1.7257406000000002,1.2301024999999999,8.478711,-1
759,760,1580695379311,2.5145,-1.0005,-0.9485,2.3902273,1.4361283999999999,8.638328,-1
760,761,1580695379321,3.0742,-0.8774,-0.6069,2.877974,1.5336777,9.039136,-1
761,762,1580695379332,3.1889,-0.7168,-0.265,2.8476923,1.704164,9.304682000000001,-1
762,763,1580695379342,3.1889,-0.7168,-0.265,2.473737,1.7870321,9.560881,-1
763,764,1580695379352,2.2068,-0.6483,0.32459998,1.8840740000000002,1.7367636000000002,9.870757000000001,-1
764,765,1580695379363,1.9207,-0.60789996,0.28919998,1.6986381999999998,1.8047204,9.747418,-1
765,766,1580695379373,1.8935,-0.6272,-0.2043,1.7785566000000002,1.7900201,8.957475,-1
766,767,1580695379383,2.1869,-0.6828,-1.0489,2.315624,1.8692204,8.22915,-1
767,768,1580695379393,2.1869,-0.6828,-1.0489,3.3320394,2.2018611,8.114371,-1
768,769,1580695379403,3.7361998999999995,-0.1436,-1.1717,3.7460349,2.4607794,8.537742999999999,-1
769,770,1580695379414,3.5904,-0.047199998,-0.5535,3.3520546,2.502094,9.179781,-1
770,771,1580695379424,3.0286999,0.0030999999,0.0023999998999999998,2.7612229999999998,2.4933598,9.669443,-1
771,772,1580695379434,2.4756,-0.0782,0.42949998,2.2296052000000004,2.3901505000000003,10.054958000000001,-1
772,773,1580695379444,2.0277998,-0.065299995,0.5438,1.9320825000000001,2.4201262000000003,9.957313000000001,-1
773,774,1580695379454,1.9913,-0.1415,0.3177,1.979411,2.298041,9.737917,-1
774,775,1580695379464,2.0084999,-0.18859999,0.18239999,1.9819776999999998,2.3483767999999996,9.65119,-1
775,776,1580695379475,2.1218998,-0.0263,0.1566,2.2166955,2.530518,9.660919999999999,-1
776,777,1580695379485,2.4847,0.2024,0.2591,2.658847,2.8571157000000005,9.7865095,-1
777,778,1580695379495,2.7424998,0.5107,0.37129998,3.0550493999999997,3.1321905,9.830917999999999,-1
778,779,1580695379505,3.0672,0.5374,0.2769,3.218554,2.9483829,9.59574,-1
779,780,1580695379515,2.9907,0.3031,0.0343,2.9026822999999995,2.767362,9.463561,-1
780,781,1580695379525,2.5995998,0.20289999,-0.0041,2.5035114,2.7299168,9.619175,-1
781,782,1580695379536,2.1736,0.1096,0.32799998,2.0067816,2.6288624,10.153274,-1
782,783,1580695379546,1.66,0.1104,0.894,1.6767552,2.7354522,10.621348,-1
783,784,1580695379556,1.5248,0.22749999,1.225,1.8780214,2.793765,10.694458000000001,-1
784,785,1580695379566,1.9038,0.29909998,1.1068,2.4003308,2.9331843999999996,10.3491955,-1
785,786,1580695379576,2.438,0.4527,0.7255,2.9739623,3.091518,10.067963,-1
786,787,1580695379586,2.9548,0.60469997,0.5506,3.3369042999999996,3.254946,10.036686,-1
787,788,1580695379596,3.1527998,0.7381,0.5714,3.2730843999999997,3.2519867000000002,10.172791499999999,-1
788,789,1580695379607,2.8966,0.66679996,0.8271,2.749348,3.1877646,10.584268,-1
789,790,1580695379617,2.2798,0.5351,1.2793,1.9710697,2.8526816000000004,10.916468,-1
790,791,1580695379627,1.6386,0.24849999,1.4199,1.3822299999999998,2.671977,10.686414,-1
791,792,1580695379637,1.0667,0.0667,1.1425999,1.1175271999999998,2.6432178,10.240059,-1
792,793,1580695379647,0.85069996,0.0224,0.6818,1.0726407,2.7049212000000002,9.742984,-1
793,794,1580695379657,0.8204,0.0449,0.2119,1.169625,2.7399435000000003,9.453525,-1
794,795,1580695379668,0.9424,0.0823,-0.0827,1.3840497,2.8338919999999996,9.303992,-1
795,796,1580695379678,1.1417999,0.1393,-0.105799995,1.5594201,2.8249283,9.430483,-1
796,797,1580695379688,1.3017,0.079399996,0.034399997,1.6045462,2.8023365,9.625706,-1
797,798,1580695379698,1.3303,0.1043,0.2512,1.6256343,2.8774187999999996,9.821686,-1
798,799,1580695379708,1.3694,0.1506,0.4283,1.5640363000000002,2.9427516,9.901862,-1
799,800,1580695379718,1.2707,0.2155,0.4585,1.3097143999999998,2.9645387999999997,9.833772,-1
800,801,1580695379728,0.9855,0.2191,0.39139998,1.0305507,2.925743,9.823477,-1
801,802,1580695379739,0.74899995,0.1625,0.413,0.8374438,2.8855877,9.914294,-1
802,803,1580695379749,0.5808,0.1043,0.5234,0.50298345,2.7834892000000004,9.930756,-1
803,804,1580695379759,0.2747,0.012999999,0.50729996,0.40122990000000003,2.7128987,9.566225,-1
804,805,1580695379769,0.1821,-0.074599996,0.14999999,0.5658169,2.7430847000000003,9.132854,-1
805,806,1580695379779,0.35079998,-0.0686,-0.27449998,0.64704734,2.8633792000000002,8.74916,-1
806,807,1580695379789,0.4306,0.025799999,-0.65,0.72334576,2.9294496,8.620054,-1
807,808,1580695379799,0.5419,0.0859,-0.80149996,0.7509939999999999,2.9729759999999996,8.515227000000001,-1
808,809,1580695379810,0.5489,0.1039,-0.86679995,0.5665639,2.9679866,8.689428999999999,-1
809,810,1580695379820,0.3712,0.0881,-0.69839996,0.4798459,2.887848,8.899315,-1
810,811,1580695379831,0.2757,-0.1095,-0.4596,0.47098738,2.7770443,8.923879,-1
811,812,1580695379841,0.2757,-0.1095,-0.4596,0.34772426,2.7596047,8.970269,-1
812,813,1580695379851,0.0539,-0.264,-0.3135,0.27426058,2.6506493,9.061095,-1
813,814,1580695379861,-0.2965,-0.22729999,-0.1784,-0.06854121,2.7024121,9.186293,-1
814,815,1580695379871,-0.2965,-0.22729999,-0.1784,-0.2709949,2.905268,9.034156,-1
815,816,1580695379881,-0.41619998,0.122899994,-0.7611,-0.09702263,3.128197,8.574517,-1
816,817,1580695379891,-0.41619998,0.122899994,-0.7611,0.4988367,3.4105597000000003,7.8619164999999995,-1
817,818,1580695379901,0.93399996,0.7723,-1.7767998999999999,1.4045823999999998,3.8611674,7.5353,d
818,819,1580695379911,1.5433999,0.9324,-1.5395,2.0769222,4.04215,7.751467,-1
819,820,1580695379921,1.5433999,0.9324,-1.5395,2.1634772,4.0844126,8.074541,-1
820,821,1580695379931,1.5590998999999999,1.0149,-0.60679996,2.1287997000000005,4.1327176,8.688922,-1
821,822,1580695379941,1.5590998999999999,1.0149,-0.60679996,2.425987,4.2100599999999995,9.762347,-1
822,823,1580695379951,2.185,1.2971,0.91239995,2.7292848,4.3494987,10.228852999999999,-1
823,824,1580695379961,2.7742,1.3636999,1.0495,3.296739,4.387748200000001,10.379525,-1
824,825,1580695379971,2.7742,1.3636999,1.0495,3.7581306000000003,4.4221580000000005,10.366003,-1
825,826,1580695379981,3.7368998999999996,1.3411,1.095,4.22545,4.331704599999999,10.433845,-1
826,827,1580695379992,4.2956,1.2264,1.2866,4.886384,4.177796,10.70234,-1
827,828,1580695380002,4.8068,1.0726,1.6938,5.276418700000001,4.0373516,11.032779,-1
828,829,1580695380012,5.0552998,0.9414,1.8249999,5.5024595000000005,3.8914970999999996,11.179782000000001,-1
829,830,1580695380022,5.1452,0.7467,2.0029,5.553063400000001,3.6723702000000005,11.36085,-1
830,831,1580695380032,5.3429,0.5147,2.0722,5.7709455,3.3579730000000003,11.408064999999999,-1
831,832,1580695380042,5.693,0.1689,1.9181999,6.053375,2.9747763,11.290279,-1
832,833,1580695380052,5.9473,-0.19759999,1.9742998999999999,6.279033,2.6312277,11.388144500000001,-1
833,834,1580695380063,6.4136,-0.5087,2.0449998,6.691478,2.3793382999999997,11.418474,-1
834,835,1580695380073,7.1411,-0.8016,1.8646,7.6184072,2.1082094,11.19046,-1
835,836,1580695380083,7.9926996,-0.7883,1.6669999,8.49434,2.2162262999999998,10.985,-1
836,837,1580695380093,8.288,-0.7606,1.53,8.512192,2.1717997,10.736577,-1
837,838,1580695380103,7.7166996,-1.0637,0.7676,7.7165504,1.8259428,9.776886,-1
838,839,1580695380113,6.8176,-1.4311,-0.2676,6.911275,1.5225111,8.772949,-1
839,840,1580695380124,6.4591,-1.6882,-0.8229,6.818811,1.3989416000000001,8.3596325,-1
840,841,1580695380134,6.7942995999999996,-1.6926999,-1.0274,7.3359585,1.5088451,8.358742,-1
841,842,1580695380144,7.468899700000001,-1.4531,-0.6756,8.103214,1.8688372,8.801583,-1
842,843,1580695380154,8.2014,-1.1575,-0.23789999,8.603334,2.0551445,9.161298,-1
843,844,1580695380165,8.3267,-1.1154,-0.036000000000000004,8.536478,2.0409898999999996,9.285997,-1
844,845,1580695380175,7.9637,-1.3389,0.1073,8.081522,1.7576984,9.490846000000001,-1
845,846,1580695380185,7.4563,-1.5622,0.4368,7.513704300000001,1.5600044,9.903596,-1
846,847,1580695380195,6.7746997,-1.8563,0.9923,6.473548,1.1699697,10.517623,-1
847,848,1580695380205,5.7714,-2.1806,1.2896999,5.448293700000001,0.8794956,10.503669,-1
848,849,1580695380215,4.8478,-2.4738,1.1776,4.4883337,0.6657126,10.168692,-1
849,850,1580695380226,3.8539,-2.7233,0.6555,3.2857833,0.446691,9.449014,-1
850,851,1580695380236,2.6501,-2.9368,-0.022000000000000002,2.3323642999999996,0.32178070000000003,9.119993,-1
851,852,1580695380246,1.7039,-3.1358,0.024699999,1.151726,0.054080225999999995,9.546477000000001,-1
852,853,1580695380256,0.6265,-3.3435,0.5385,-0.17671125,-0.1468699,10.10717,-1
853,854,1580695380266,-0.6027,-3.6467998,1.0876,-1.4406104,-0.5848268,10.639526,-1
854,855,1580695380277,-1.7657,-4.0964,1.6337999,-2.7218337000000004,-1.1291917999999999,11.118558,-1
855,856,1580695380287,-3.0133,-4.6976,2.0519,-4.244173,-1.7103888999999999,11.579174,-1
856,857,1580695380297,-4.5318,-5.1450996,2.5118,-6.191635,-1.9753888,11.805904,-1
857,858,1580695380307,-5.9996,-5.2418,2.5061,-7.541036,-1.6625816000000002,11.218664,-1
858,859,1580695380318,-7.1201,-4.9065,1.8307999,-7.976494000000001,-1.4370477,10.437322,-1
859,860,1580695380328,-7.3942,-4.724,1.0627999,-8.430032,-1.1125951,9.582381,-1
860,861,1580695380338,-7.8245997,-4.4224997,0.21939999,-8.865672,-0.80083174,8.576777,-1
861,862,1580695380349,-8.1655,-4.2098,-0.8093,-9.004832,-0.7452861999999999,7.610257000000001,-1
862,863,1580695380359,-8.2003,-4.1774,-1.6825999,-9.196013,-0.477739,7.092286,-1
863,864,1580695380370,-8.453199,-3.4018998,-1.9408,-9.393459,0.11880028,7.179817999999999,-1
864,865,1580695380380,-8.453199,-3.4018998,-1.9408,-9.44934,0.45561656,7.601380000000001,-1
865,866,1580695380390,-8.4494,-3.0700998,-1.5129,-9.566175999999999,0.6741785,7.577811200000001,-1
866,867,1580695380400,-8.516,-2.8418,-1.5279,-9.590359,0.81639403,7.3115664,-1
867,868,1580695380410,-8.3817,-2.707,-2.1052,-9.515783,0.80572546,6.996135000000001,-1
868,869,1580695380421,-8.5365,-2.7042,-2.4615,-9.693233,0.8158865,6.6285005,-1
869,870,1580695380431,-8.5365,-2.7042,-2.4615,-9.792686999999999,0.9321202,5.990896,-1
870,871,1580695380441,-8.2689,-2.3167999,-3.7312,-9.392472,1.3044378,5.228745,-1
871,872,1580695380451,-8.2689,-2.3167999,-3.7312,-9.032577,1.566938,4.8484693,-1
872,873,1580695380461,-7.3307,-1.7773,-4.6823997,-8.451447,1.8196028000000002,4.292976,-1
873,874,1580695380472,-6.8188,-1.8030000000000002,-4.9568996,-7.972250999999999,1.7033883,4.133187,-1
874,875,1580695380482,-6.5994,-2.1899,-4.6668,-7.832803200000001,1.295876,4.495832,-1
875,876,1580695380492,-6.5123997000000005,-2.5911999,-4.2616997,-7.720132400000001,0.7775025999999999,4.93987,-1
876,877,1580695380502,-6.312,-3.037,-4.0624,-7.5206757,0.39793548,4.9382324,-1
877,878,1580695380512,-6.3637,-3.2124999,-4.6345997,-7.6586110000000005,0.2987006,4.2212744,-1
878,879,1580695380523,-6.8195,-3.1859,-5.8599997,-8.092018,0.36070085,2.9784155,-1
879,880,1580695380533,-7.2690997,-3.1727,-7.1727,-8.472419,0.34051293,1.658406,-1
880,881,1580695380543,-7.4115,-3.4843,-8.135,-8.459883,-0.12489114,0.80982435,-1
881,882,1580695380553,-7.1084,-3.9729,-8.309899,-7.869817299999999,-0.6977661000000001,0.8269669,-1
882,883,1580695380563,-6.2261996,-4.4713,-8.0213995,-6.861811,-1.148623,1.3063722,-1
883,884,1580695380574,-5.2432,-4.8327,-7.4537997,-5.8789144,-1.5490483999999998,1.9389682000000001,-1
884,885,1580695380584,-4.5439997000000005,-5.1861,-6.9175,-5.4864473,-1.8504401000000001,2.294555,-1
885,886,1580695380594,-5.1556997,-5.1643,-7.1547,-6.536726,-1.6790057,1.6479002,-1
886,887,1580695380604,-6.6252,-5.0039997000000005,-8.1172,-7.6314983,-1.8052471999999997,0.8133007,-1
887,888,1580695380614,-6.8613,-5.4613,-8.6142,-7.202027,-2.3471507999999996,0.5840128000000001,-1
888,889,1580695380624,-6.0846995999999995,-5.6545997,-8.59,-6.0933485,-2.5382943,0.8649293,-1
889,890,1580695380635,-4.621,-5.9108996,-7.8276997,-3.942053,-3.10029,2.2191281000000003,-1
890,891,1580695380645,-2.8964999,-6.2388997,-6.6766,-2.4602911,-3.3858802000000003,3.0328789,-1
891,892,1580695380655,-1.4841,-6.4618998,-6.0341997,-1.1365085,-3.9304650000000003,3.3571112000000003,-1
892,893,1580695380665,-1.0372,-6.864,-6.1742,-1.1151618,-4.283005999999999,3.1699805,-1
893,894,1580695380675,-1.5021,-6.7623,-6.2739997,-1.5280753,-4.1411457,3.5939744,-1
894,895,1580695380686,-1.8032,-6.6505,-5.3929,-1.2902257,-4.605046,5.215299,-1
895,896,1580695380696,-1.6005,-7.1211,-3.4025998,-0.76329064,-5.332203,7.682294000000001,-1
896,897,1580695380706,-1.1731,-7.4943,-0.98639995,0.036162023,-5.741037,9.642610000000001,-1
897,898,1580695380716,-0.35259998,-7.6703997,0.39609998,1.189516,-6.1718497,10.16852,-1
898,899,1580695380726,1.0986,-7.9859995999999995,0.4195,2.870485,-6.5303864,9.7329855,-1
899,900,1580695380736,2.1357,-7.7732,-0.0743,3.82694,-6.264601,9.804983,-1
900,901,1580695380747,2.9134998,-7.0435996,0.5815,4.6256843,-5.493831,11.328788000000001,-1
901,902,1580695380757,3.6875,-5.8394,2.5551999,5.777553,-4.342823,14.524664000000001,-1
902,903,1580695380767,4.6342,-4.6245,5.3975,6.862845399999999,-3.8338926,17.062996,-1
903,904,1580695380777,5.7197,-3.9246998,7.6973,7.8176527,-3.6684246,18.12154,-1
904,905,1580695380787,6.5234,-3.5396,8.405,7.8714070000000005,-3.979374,17.531725,-1
905,906,1580695380798,6.3475,-3.6195,7.5189996,6.695251,-4.602479499999999,15.743198000000001,-1
906,907,1580695380808,5.0566,-4.0573997,5.6331,5.1260433,-5.175536,13.856710999999999,-1
907,908,1580695380818,3.5589999999999997,-4.4189997000000005,3.8744998,4.3372593,-5.229674,13.441671,-1
908,909,1580695380828,3.2038,-4.1047,4.0147,5.29312,-4.2631726,15.420306,-1
909,910,1580695380838,4.375499700000001,-2.7691,6.2903,6.869203999999999,-3.3704326,18.256248,-1
910,911,1580695380849,6.0516996,-1.8043,9.1806,8.15536,-2.9273999,20.448973000000002,-1
911,912,1580695380859,7.3241,-1.0939,11.0556,9.26037,-2.3380914,20.741276,-1
912,913,1580695380869,8.2922,-0.39799999999999996,11.1651,9.303312,-2.1434522,19.606194,-1
913,914,1580695380879,8.4482,-0.0128,10.0653,8.655517999999999,-2.2199612,18.514744,-1
914,915,1580695380889,7.6056,0.0028,8.6181,6.2372303,-2.6319747000000002,16.126442,-1
915,916,1580695380900,5.5887,-0.24849999,6.6176996,4.618827,-2.9751594,14.769878,-1
916,917,1580695380910,3.1032999,-0.5239,4.2788997,3.601636,-3.0665221000000003,13.746970000000001,-1
917,918,1580695380920,3.9334,0.2504,4.9652,4.397536,-2.3746362000000003,14.420727,-1
918,919,1580695380930,3.9334,0.2504,4.9652,5.7930775,-1.7651587,15.279929999999998,-1
919,920,1580695380941,5.3448997,0.9442,5.851,6.673205,-1.3451391000000001,15.436893,-1
920,921,1580695380950,6.2655997,1.4554,6.0323997,7.198454400000001,-1.151793,15.228962,-1
921,922,1580695380960,7.2267,1.7715,5.554199700000001,7.530349,-1.2040727,14.904948999999998,-1
922,923,1580695380970,6.7117996,1.7418,5.5783,6.987161599999999,-1.3165236999999999,14.906559,-1
923,924,1580695380980,6.7117996,1.7418,5.5783,5.7882986,-1.714191,15.045585,-1
924,925,1580695380990,5.5284,1.4117,5.7457,4.4599957,-2.2381957000000003,14.538818,-1
925,926,1580695381000,3.0512998,0.3971,4.4144,3.3288023,-2.7819380000000002,13.703251999999999,-1
926,927,1580695381011,2.1763,0.25169998,3.7617,2.3539505000000003,-2.9468023999999997,12.916891,-1
927,928,1580695381021,1.9369999,0.27899998,3.0779998,2.2292507,-2.9107747,12.202489,-1
928,929,1580695381031,1.9369999,0.27899998,3.0779998,2.193127,-2.8903282000000003,11.6015835,-1
929,930,1580695381041,1.7719999999999998,0.1801,1.7305,1.9866415000000002,-3.085609,10.890275,-1
930,931,1580695381051,1.5917,0.0655,1.2541,1.8286146,-3.1662838,10.460497,-1
931,932,1580695381061,1.6441,0.14919999,1.1903,1.8818903999999999,-3.1043506,10.488806,-1
932,933,1580695381072,1.5229,0.0656,1.4011999,1.7014443,-3.2243288,10.702762,-1
933,934,1580695381081,1.5229,0.0656,1.4011999,1.4269347,-3.3090932,10.756699000000001,-1
934,935,1580695381091,1.0685999,0.0229,1.4331,1.3710636,-3.19647,10.663583000000001,d
935,936,1580695381101,1.3793,0.268,1.3123,1.7332201,-2.9447243,10.529632000000001,-1
936,937,1580695381112,1.7822,0.5492,1.1315,2.1149802,-2.6391478,10.318272,-1
937,938,1580695381122,2.0384,0.76199996,0.6857,2.3194833,-2.456336,9.874233,-1
938,939,1580695381132,1.9511,0.75229996,0.32899999999999996,2.1359727000000004,-2.4955529999999997,9.555221000000001,-1
939,940,1580695381142,1.5674,0.62939996,0.13059999,1.7310365,-2.6286417999999996,9.386918,-1
940,941,1580695381152,1.1726999,0.3834,0.100499995,1.3024553,-2.8703412999999998,9.38008,-1
941,942,1580695381163,0.85569996,0.17729999,0.1883,1.0019543,-3.0495234,9.490396,-1
942,943,1580695381173,0.6297,0.19389999,0.2852,0.78848726,-2.9951751,9.582647999999999,-1
943,944,1580695381183,0.5428,0.2147,0.2724,0.7099383,-2.9580362,9.489887,-1
944,945,1580695381193,0.5381,0.30769998,0.0614,0.7674757,-2.82353,9.203694,-1
945,946,1580695381203,0.5381,0.30769998,0.0614,0.93135405,-2.6597667,9.002399,-1
946,947,1580695381213,0.83779997,0.537,-0.2543,1.0951461,-2.5782392000000005,9.099202,-1
947,948,1580695381224,1.0067999,0.6268,-0.0708,1.2481165,-2.5176852000000003,9.328671,-1
948,949,1580695381234,1.0097,0.5575,0.2228,1.1163684,-2.6674569,9.651161,-1
949,950,1580695381244,0.7653,0.32639998,0.5377,0.83782697,-2.9393133999999996,9.896289,-1
950,951,1580695381254,0.5112,0.1131,0.60679996,0.55750424,-3.093682,9.874176,-1
951,952,1580695381264,0.2606,-0.0285,0.5168,0.26676196,-3.2593702999999996,9.819291999999999,-1
952,953,1580695381274,-0.019199999,-0.14819999,0.4637,0.058083333,-3.2714086,9.647923,-1
953,954,1580695381285,-0.1182,-0.086799994,0.1344,0.08213069,-3.1674235,9.341130999999999,-1
954,955,1580695381295,0.1476,0.044299997,-0.0179,0.45742659999999996,-2.9752839,9.343592999999998,-1
955,956,1580695381305,0.6254,0.251,0.1652,1.0145860999999998,-2.7646997000000004,9.6043215,-1
956,957,1580695381315,1.298,0.4263,0.55689996,1.6738343,-2.6102927000000005,10.081513000000001,-1
957,958,1580695381325,1.8787999,0.5093,1.0485,2.0823042000000003,-2.6134436,10.537686,-1
958,959,1580695381335,2.0518,0.40829998,1.4429,2.0233974,-2.797031,10.917425999999999,-1
959,960,1580695381346,1.8534,0.2482,1.6803,1.7460914,-2.9222286,11.050265,-1
960,961,1580695381356,1.4793999,0.0387,1.8980999,1.2987778,-3.1745775000000003,11.340117,-1
961,962,1580695381366,1.2317,-0.0932,2.1255,1.1251311000000002,-3.1903214,11.555203,-1
962,963,1580695381376,1.179,-0.060399997999999996,2.3229,1.2973700000000001,-3.1490169,11.804908,-1
963,964,1580695381386,1.5587,0.0409,2.7261999,1.8915629,-2.932361,12.472105,-1
964,965,1580695381396,2.3529,0.3209,3.5325,2.6198792,-2.6501799999999998,13.2457,-1
965,966,1580695381407,3.2396998,0.7392,4.5354,3.5620072,-2.1201517999999995,14.338529999999999,-1
966,967,1580695381417,3.9445998999999996,1.1428,5.2524,3.9543593,-1.8784716000000001,14.6789465,-1
967,968,1580695381427,4.1699,1.3090998999999999,5.3577,3.8635902,-1.7668921000000002,14.539891,-1
968,969,1580695381437,3.9963998999999997,1.3235999,5.1443,3.4858716,-1.943814,14.302404999999998,-1
969,970,1580695381447,3.6815,1.0681,4.9649,3.0975892999999997,-2.2793853,14.283463000000001,-1
970,971,1580695381458,3.2789998,0.66099995,4.9768,2.690738,-2.6332867,14.595849,-1
971,972,1580695381468,2.8251,0.2688,5.317199700000001,2.1429925,-2.8540799999999997,14.948314000000002,-1
972,973,1580695381478,2.2426,-0.022599999,5.6035,1.6177046,-3.0026450000000002,14.947614999999999,-1
973,974,1580695381488,1.6546999,-0.2746,5.4632998,1.075351,-3.081874,14.474472,-1
974,975,1580695381498,1.0497999,-0.45479998,4.8958,0.66851854,-3.1198650000000003,13.93525,-1
975,976,1580695381508,0.6637,-0.61439997,4.3556,0.59382904,-3.1559792,13.604764000000001,-1
976,977,1580695381519,0.5947,-0.76199996,4.08,0.61533856,-3.1824017,13.626579999999999,-1
977,978,1580695381529,0.6199,-0.90279996,4.1312,0.661834,-3.2069852,13.991685999999998,-1
978,979,1580695381539,0.6224,-1.0217,4.4785,0.5327769,-3.0830326,14.207279000000002,-1
979,980,1580695381549,0.4664,-1.0098,4.6492,0.37142688,-3.030753,14.284651,-1
980,981,1580695381559,0.2908,-1.0809,4.6126,0.058792014000000004,-2.969059,13.704476999999999,-1
981,982,1580695381569,-0.4168,-1.4461,3.1334999,-0.31557494,-3.0630841,12.820175,-1
982,983,1580695381580,-0.4168,-1.4461,3.1334999,-0.88809556,-3.0845938,11.821197999999999,-1
983,984,1580695381590,-1.0294,-1.6538,2.1157,-1.2019277,-3.0989876,10.935746,-1
984,985,1580695381600,-1.3931,-1.8421999,1.1995,-1.192188,-2.944389,10.413169,-1
985,986,1580695381610,-1.4122,-1.8522999,0.6604,-0.9714234,-2.690393,10.120329,-1
986,987,1580695381620,-1.1214,-1.7559999,0.0158,-0.9101414000000001,-2.5683177,9.792285000000001,-1
987,988,1580695381631,-1.3433,-1.7176,-0.3856,-1.1692898,-2.4226737000000003,9.396906,-1
988,989,1580695381642,-1.4767,-1.7313,-0.82409996,-1.4203649999999999,-2.3422282,8.91186,-1
989,990,1580695381652,-1.7176,-1.6628,-0.98609996,-1.6888508000000002,-2.1984517999999995,8.8123,-1
990,991,1580695381662,-1.5935,-1.3776,-0.87189996,-1.6418381999999998,-1.8412465,8.925785000000001,-1
991,992,1580695381672,-1.2473999,-1.2231,-0.4131,-1.331224,-1.5475927999999999,9.579345,-1
992,993,1580695381682,-1.1673,-0.9478,0.14459999,-1.3666965,-1.2267603,10.056327,-1
993,994,1580695381692,-1.1524999,-0.8135,0.23249999,-1.4475343,-1.0463811,9.92795,-1
994,995,1580695381703,-1.1458,-0.7979999999999999,-0.2474,-1.4792718999999999,-1.020744,9.466002,-1
995,996,1580695381713,-1.1745,-0.96269995,-0.78569996,-1.620731,-1.1098944,8.839814,-1
996,997,1580695381723,-1.4089999,-1.1811,-1.5487,-1.9268631999999999,-1.2681321,8.159737,-1
997,998,1580695381733,-1.4745,-1.476,-1.5755999,-1.9975494999999999,-1.449986,8.465169,-1
998,999,1580695381744,-1.4466,-1.6374999,-0.8859999999999999,-1.9138674999999998,-1.3777673000000001,9.181678,-1
999,1000,1580695381754,-1.1381,-1.5134,-0.5387,-1.504909,-1.0507386,9.075001,-1
1000,1001,1580695381764,-0.64129996,-1.3065,-1.1996,-1.0100945,-0.7503715,8.165913,-1
1001,1002,1580695381775,-0.1585,-1.2293999,-2.427,-0.5144469,-0.52728945,6.7656307,-1
1002,1003,1580695381785,0.2519,-1.0974,-3.7206,-0.20399556,-0.17625156,5.7238370000000005,-1
1003,1004,1580695381795,0.3478,-0.9007,-4.2383,-0.33323455,0.11678916,5.648764599999999,-1
1004,1005,1580695381805,-0.018000000000000002,-0.9457,-3.8730998,-0.9806267,0.030310594,6.2147155,-1
1005,1006,1580695381815,-0.8164,-1.202,-3.3607,-1.7838048,-0.25758737,6.5407577,-1
1006,1007,1580695381825,-1.5608,-1.65,-3.1420999,-2.3067653,-0.48492159999999995,6.604309599999999,-1
1007,1008,1580695381835,-2.1492,-1.9534999,-3.2273,-2.7452972,-0.645946,6.386638,-1
1008,1009,1580695381845,-2.5117,-2.1522,-3.6948998,-3.1515546000000003,-0.7651198,5.914367700000001,-1
1009,1010,1580695381855,-2.5607998,-2.3058999,-4.2316,-2.9683504000000003,-0.7620456999999999,5.1251907,-1
1010,1011,1580695381865,-2.0314,-2.1457,-4.8377,-2.2448611,-0.32505596,4.4067099999999995,-1
1011,1012,1580695381875,-1.1853,-1.6464,-5.4845,-1.5930347,0.113916114,3.9157455000000003,-1
1012,1013,1580695381886,-0.2633,-1.2271,-6.291,-0.5262647,0.70103186,2.6455642999999998,-1
1013,1014,1580695381896,0.529,-0.69839996,-7.2577996,0.060161497,1.273045,2.4725306000000002,-1
1014,1015,1580695381906,0.94949996,-0.0676,-6.8767,0.17092685,1.7515116999999998,3.5821089999999995,-1
1015,1016,1580695381917,0.769,0.109299995,-5.5604997,-0.38465244,1.3771353000000002,4.9008255,-1
1016,1017,1580695381926,-0.1296,-0.4156,-4.1891,-1.725166,0.71968746,6.489982,-1
1017,1018,1580695381936,-1.3593,-0.86829996,-2.4659,-2.5606657999999998,0.31760523,8.223125,-1
1018,1019,1580695381946,-1.9952999,-1.1214,-0.8495,-3.1112077,0.12365573,9.545250999999999,-1
1019,1020,1580695381956,-2.3587,-1.0613999,0.0438,-2.9862783,0.3270671,9.508783,-1
1020,1021,1580695381967,-1.7816999,-0.78319997,-0.6088,-1.8689522,0.59864616,8.311988000000001,-1
1021,1022,1580695381977,-0.5007,-0.4231,-1.9550999,-0.52384174,0.9804639,6.933789999999999,-1
1022,1023,1580695381987,0.68549997,-0.071499996,-3.2416,0.47574705,1.246067,6.072816,-1
1023,1024,1580695381997,1.2333,0.0044,-3.6067998,0.32645419999999997,0.9721225,6.783989999999999,-1
1024,1025,1580695382007,0.8458,-0.2978,-2.7086,-0.25045264,0.7713446999999999,7.739544400000001,-1
1025,1026,1580695382017,0.0707,-0.4939,-1.6054,-1.1420534,0.5583566,8.517822,-1
1026,1027,1580695382028,-0.6626,-0.6213,-1.1394,-1.7732415000000001,0.52248186,8.810576,-1
1027,1028,1580695382038,-1.2425,-0.62,-0.8488,-1.9954618000000002,0.4843949000000001,9.342041,-1
1028,1029,1580695382048,-1.4217,-0.6055,-0.2732,-2.0105834,0.6046891,9.729174,-1
1029,1030,1580695382058,-1.3691,-0.45899999999999996,-0.0005999999700000001,-1.4885422,0.7699081999999999,9.357028,-1
1030,1031,1580695382069,-0.8358,-0.3217,-0.47169998,-0.6217550000000001,0.85628146,8.296464,-1
1031,1032,1580695382079,0.10229999599999999,-0.26549998,-1.6962999,0.15954961,0.9487838,7.2719183,-1
1032,1033,1580695382089,0.7679,-0.168,-2.5575,0.38621348,1.1208025,7.186503,-1
1033,1034,1580695382099,0.9037,-0.0268,-2.5470998,0.17940232,1.2211578,7.4742284,-1
1034,1035,1580695382109,0.6296,0.1082,-2.1361,-0.17452772,1.3958865,8.350477,-1
1035,1036,1580695382120,-0.0927,0.24509999,-0.24859999,-0.5886193000000001,1.3669646999999998,9.493661,-1
1036,1037,1580695382130,-0.0927,0.24509999,-0.24859999,-0.8569039,1.3058455,10.064927,-1
1037,1038,1580695382140,-0.38959998,0.19669999,0.3173,-0.84240466,1.2378023,10.248314,-1
1038,1039,1580695382150,-0.22819999,0.0165,0.6277,-0.6256528,1.1168951999999999,10.371863000000001,-1
1039,1040,1580695382161,0.2021,0.2532,0.6561,-0.17943105,1.3505308999999999,10.409492,-1
1040,1041,1580695382172,0.7698,0.52099997,0.64559996,0.5016906,1.654537,10.406541,-1
1041,1042,1580695382182,0.92509997,0.6735,0.6841,0.57416785,1.7905084999999998,10.4448,-1
1042,1043,1580695382192,0.941,0.7589,0.62479997,0.6371928000000001,1.868502,10.2996645,-1
1043,1044,1580695382203,0.95849997,0.7445,0.47739998,0.56099015,1.7992424999999999,10.224965,-1
1044,1045,1580695382213,0.95849997,0.7445,0.47739998,0.09978074599999999,1.6359197,10.2146225,-1
1045,1046,1580695382223,0.239,0.5006,0.301,-0.20965546,1.537566,9.982548,-1
1046,1047,1580695382233,-0.0605,0.4035,-0.0905,-0.5267626999999999,1.4703941,9.538097,-1
1047,1048,1580695382243,-0.2678,0.3523,-0.3053,-0.68473214,1.43021,9.371853999999999,-1
1048,1049,1580695382254,-0.4403,0.26139998,-0.4908,-0.85286254,1.3413658000000002,9.153742,-1
1049,1050,1580695382263,-0.6024,0.2321,-0.73539996,-0.9442923000000001,1.3560472,8.975584,-1
1050,1051,1580695382273,-0.5258,0.15969999,-0.8824,-0.79484624,1.2810799,8.843041,-1
1051,1052,1580695382283,-0.2286,0.2126,-1.0203999,-0.39734169999999996,1.3725671999999998,8.678675,-1
1052,1053,1580695382293,0.1313,0.28239998,-1.0904,-0.05227021,1.3882825,8.664280999999999,-1
1053,1054,1580695382303,0.45279998,0.2602,-1.0237,0.33379003,1.3215705,8.8568125,-1
1054,1055,1580695382314,0.8993,0.2529,-0.6536,0.7512909000000001,1.3468726,9.293439,d
1055,1056,1580695382324,1.1947,0.2386,-0.19559999,0.98978215,1.1837796,9.7379265,-1
1056,1057,1580695382334,1.3716999,0.0295,0.2818,1.1536509,0.9568858,10.226851,-1
1057,1058,1580695382344,1.4727,-0.16899999999999998,0.6809,1.2639278,0.8212782,10.492282000000001,-1
1058,1059,1580695382354,1.5984,-0.0646,0.81549996,1.4382066,1.0448775,10.661284,-1
1059,1060,1580695382365,2.0604,0.4095,1.0291,2.1034593999999998,1.6250501,10.847937,-1
1060,1061,1580695382375,2.807,1.1310999,1.0561,2.9912775000000003,2.391865,10.662069,-1
1061,1062,1580695382385,3.5749998,1.5895,0.69269997,3.7386897000000006,2.5350572999999996,10.00714,-1
1062,1063,1580695382395,4.2766,1.5841999,-0.0626,4.281091,2.3863773,9.291513,-1
1063,1064,1580695382405,4.6633997,1.38,-0.7687,4.448743,2.1394968,8.7427435,-1
1064,1065,1580695382416,4.7763,1.0433999,-1.2006,4.4853163,1.8431043999999999,8.745799,-1
1065,1066,1580695382425,4.7226,0.9540000000000001,-0.70199996,4.3266287000000005,1.8325411,9.741288,-1
1066,1067,1580695382435,4.5147,0.93899995,0.44259998,3.9988243999999997,1.7407857,10.871275,-1
1067,1068,1580695382445,4.1721997,0.93189996,1.4004999,3.8039746,1.7526897000000001,11.48172,-1
1068,1069,1580695382455,4.1521,1.0098,1.8684,3.8320345999999996,1.7960343,11.899384,-1
1069,1070,1580695382465,4.2724,1.1287999,2.3271,4.345534,1.9909893,12.190796,-1
1070,1071,1580695382476,5.1289,1.4121,2.3451,5.661818,2.2975907,11.9376335,-1
1071,1072,1580695382487,6.5137,1.6564,2.0697,6.784459,2.3420177000000004,11.761018,-1
1072,1073,1580695382497,7.3262,1.5798,1.9709999999999999,7.025593300000001,2.1678636000000004,11.897746000000001,-1
1073,1074,1580695382507,7.1720996,1.3956,2.3530998,6.041414,1.8735203,12.953119000000001,-1
1074,1075,1580695382517,6.2186,1.1909,3.3924,4.8519073,1.7513777,14.094244,-1
1075,1076,1580695382527,5.013099700000001,1.0843999,4.490999700000001,3.6555053999999996,1.5623794,14.854719000000001,-1
1076,1077,1580695382537,3.9450998,0.93479997,5.1292995999999995,3.0313944999999998,1.3627316999999999,14.987166,-1
1077,1078,1580695382547,3.3478,0.58529997,5.2679996,2.4916650000000002,0.78136206,15.003878,-1
1078,1079,1580695382558,2.9018998,0.0392,5.1719,1.9531802,0.12081142,14.744155,-1
1079,1080,1580695382569,2.3592,-0.6653,4.9393,1.2218186000000002,-0.6092668000000001,14.613776000000001,-1
1080,1081,1580695382579,1.5279,-1.4096,4.8255,-0.43276632,-1.1773343,14.598644,-1
1081,1082,1580695382589,0.1741,-1.8921,4.8306,-1.619237,-1.3907726,14.88843,-1
1082,1083,1580695382599,-1.2163,-2.162,5.1998997000000005,-3.201584,-1.3383205,15.353076999999999,-1
1083,1084,1580695382609,-2.4510999,-2.1001,5.6,-4.176455000000001,-1.3719734,15.852842,-1
1084,1085,1580695382620,-3.3437,-2.1764997999999998,6.1094,-4.8316426,-1.7778001,16.214827,-1
1085,1086,1580695382630,-4.1180997,-2.7321,6.5126,-6.088378400000001,-2.3837533,16.185904999999998,-1
1086,1087,1580695382640,-5.1335998,-3.3269,6.4667997,-6.863544500000001,-3.0020514,15.949233,-1
1087,1088,1580695382650,-7.1172,-4.8968,4.2957,-8.123584,-3.6858926,13.987576999999998,-1
1088,1089,1580695382660,-7.8655996,-5.3759,2.6826,-8.910155,-4.0097227,12.349378999999999,-1
1089,1090,1580695382671,-8.0695,-5.4969,1.8965,-9.18025,-3.9843252000000002,11.531912,-1
1090,1091,1580695382681,-8.0405,-5.0676,1.6716,-9.239283,-3.4386482000000003,11.276383000000001,-1
1091,1092,1580695382691,-7.7998996,-4.7815,1.9684999,-9.061048,-3.0250547,11.552052,-1
1092,1093,1580695382701,-7.5649,-4.7103,1.6406,-8.978142,-2.8143172,10.964122,-1
1093,1094,1580695382712,-7.5326,-4.700999700000001,0.3656,-9.071199,-2.7520103,9.613103,-1
1094,1095,1580695382722,-7.6035,-4.8124,-0.8573,-9.2139225,-2.7384209999999998,8.325549,-1
1095,1096,1580695382732,-7.7275,-5.0669,-2.3139,-9.436555,-2.855373,6.7900615,-1
1096,1097,1580695382742,-7.9347,-5.3066,-3.4559998999999997,-9.720018,-2.9769025,5.8326583,-1
1097,1098,1580695382752,-8.134399,-5.343499700000001,-3.6002,-9.95532,-2.788431,5.748919,-1
1098,1099,1580695382763,-7.9716997,-4.9705997,-3.3058998999999996,-9.760432000000002,-2.2962599,6.0844517,-1
1099,1100,1580695382773,-7.4083996,-4.5463,-2.7393,-9.095112,-1.7005249,6.571126,-1
1100,1101,1580695382783,-6.7995,-4.1482997,-2.8104,-8.532743,-1.2383768999999998,6.156153,-1
1101,1102,1580695382793,-6.047999999999999,-3.8820998999999996,-3.4682,-7.799983500000001,-0.9106201999999999,5.375701,-1
1102,1103,1580695382803,-5.2597,-3.6125998,-4.3118,-7.178764999999999,-0.63431984,4.6196980000000005,-1
1103,1104,1580695382814,-4.2608,-3.5916997999999998,-5.1955,-5.9884157,-0.6454671999999999,3.56126,-1
1104,1105,1580695382824,-3.4222998999999996,-3.7733,-5.8666,-5.3633184,-0.66616267,3.0532298,-1
1105,1106,1580695382834,-3.1087,-3.8734,-5.9441,-5.184892700000001,-0.69177103,3.1779006,-1
1106,1107,1580695382844,-3.0121,-3.9262998,-5.7039,-5.1791754,-0.5250963000000001,3.4154913000000002,-1
1107,1108,1580695382854,-3.1301,-3.4436998,-5.4589996,-5.3783154,0.074852325,3.5793698,-1
1108,1109,1580695382864,-3.4510998999999996,-2.8602,-5.1491,-5.6435455999999995,0.6875094,4.0044174,-1
1109,1110,1580695382875,-3.2979998999999998,-2.4273,-4.8233,-5.190055,1.10117,4.0851784,-1
1110,1111,1580695382885,-2.3581,-2.0885,-5.1858997,-3.9889699999999997,1.4902374,3.4598129,-1
1111,1112,1580695382895,-1.0972998999999999,-1.8294,-6.0986,-2.5649943,1.6608672999999998,2.2593699000000003,-1
1112,1113,1580695382905,-0.1299,-1.839,-6.9059,-1.7738161,1.7451911,1.7822725,-1
1113,1114,1580695382915,0.48589998,-1.7744,-7.3265,-1.1950611,1.774544,1.3786771,-1
1114,1115,1580695382925,0.8944,-1.8741,-7.587000000000001,-0.84629285,1.5558671999999998,1.5699548,-1
1115,1116,1580695382936,1.0494,-2.121,-7.1109,-0.6928437,1.3609505,2.4261402999999997,-1
1116,1117,1580695382946,1.0438,-2.2475998,-6.1238,-0.76898885,1.2916718999999999,3.5206544,-1
1117,1118,1580695382956,0.82589996,-2.2863998,-4.9856,-0.89451206,1.2811565,4.7266045,-1
1118,1119,1580695382966,0.6617,-2.2057,-3.9185998,-0.9638386,1.4165725,5.548668,-1
1119,1120,1580695382976,0.49839997,-1.9097998999999999,-3.3895998,-0.824994,1.8608885,5.5092974,-1
1120,1121,1580695382987,0.9083,-1.4298999,-3.9148,0.34847128,2.0365176,4.524342,-1
1121,1122,1580695382997,2.3100998,-1.4389,-5.0917997,2.1965556,1.9755611000000002,3.291472,-1
1122,1123,1580695383007,4.1373997000000005,-1.4298999,-6.1977,4.4639505999999995,1.9809433,2.6505058,-1
1123,1124,1580695383017,5.7629,-1.4631,-6.4723,5.589982,1.8532461999999998,2.938509,-1
1124,1125,1580695383027,6.7983,-1.6183,-5.9293,6.0541124,2.0093002,3.9324093,-1
1125,1126,1580695383037,6.627000000000001,-1.1829,-5.1184998,5.1165338,2.5626004,4.7247367,-1
1126,1127,1580695383048,5.5822997,-0.56299996,-4.303,4.430413,3.1928787,5.750872599999999,-1
1127,1128,1580695383058,4.9747,0.15779999,-3.4304,4.627781400000001,3.4105307999999996,5.687158,-1
1128,1129,1580695383068,5.2886,0.3198,-3.7793,5.4726567,2.879066,5.1462507,-1
1129,1130,1580695383078,6.0927,-0.23259999,-4.2204,6.3985715,2.2035560000000003,5.266947,-1
1130,1131,1580695383089,6.877000000000001,-0.8315,-4.0211997,7.209267,1.5310441000000001,5.7937093,-1
1131,1132,1580695383099,7.4651,-1.4533,-3.4785,7.440479799999999,0.98036814,6.4199657,-1
1132,1133,1580695383109,7.4385996,-1.7829,-2.8989999999999996,7.11981,1.6857095000000002,7.006191,-1
1133,1134,1580695383119,7.065,-0.92999995,-2.4615,7.606005000000001,2.8850322,7.527619400000001,-1
1134,1135,1580695383130,7.504699700000001,0.41009998,-1.9699999,8.291897,3.7382586000000004,7.967721000000001,-1
1135,1136,1580695383140,8.1504,1.4232999,-1.5783,9.100906,3.7439184,8.74667,-1
1136,1137,1580695383150,8.929299,1.5847,-0.8308,9.608199,3.4128866,9.482974,-1
1137,1138,1580695383160,9.8524,0.7687,0.3825,10.216536999999999,2.6492703,10.012464999999999,-1
1138,1139,1580695383170,10.5035,0.24589999,0.6615,11.010685,2.0051533999999998,10.313292,-1
1139,1140,1580695383180,10.5035,0.24589999,0.6615,11.39775,1.8945988,11.720728999999999,-1
1140,1141,1580695383191,10.761,0.2565,2.059,11.18029,1.9931825,14.1612625,-1
1141,1142,1580695383201,10.0753,0.55939996,7.4270997,10.908289,1.8652746999999998,17.115698000000002,-1
1142,1143,1580695383211,9.892999999999999,1.0084,10.020599,10.8085375,2.1931557999999995,20.170154999999998,-1
1143,1144,1580695383221,9.958099,1.2802,11.7164,10.928343,2.255223,21.436026000000002,-1
1144,1145,1580695383231,9.7754,1.1257,11.866799,10.726886,1.9322644,21.412207000000002,-1
1145,1146,1580695383241,9.7754,1.1257,11.866799,10.593155,1.7398664000000001,19.998835,-1
1146,1147,1580695383252,9.4853,0.9949,10.5682,11.268645,1.8221311999999998,18.910574,-1
1147,1148,1580695383262,10.3988,1.1594,8.979899000000001,11.428128,1.7897328000000001,18.737377,-1
1148,1149,1580695383272,9.821099,0.8997,9.2556,10.743098,1.4778258,19.082747,-1
1149,1150,1580695383282,8.6009,0.3584,9.7949,9.430943,0.9134167,19.636295,-1
1150,1151,1580695383293,6.9879999999999995,-0.2067,10.461599,7.7533927,0.37666538,20.337114,-1
1151,1152,1580695383303,6.9879999999999995,-0.2067,10.461599,6.361145,-0.08127836,20.513873999999998,-1
1152,1153,1580695383313,3.7619998,-1.5153999,10.0357,4.6213646,-0.9061383,19.488209,-1
1153,1154,1580695383323,2.6279,-2.2282999,8.6605,3.5261419999999997,-1.4935508999999998,18.115736,-1
1154,1155,1580695383333,1.4994999,-2.8723,7.5425,2.6013767999999997,-1.9126128,17.252743,-1
1155,1156,1580695383343,0.24149999,-3.5704,6.6108,1.0427418,-2.577722,16.15521,-1
1156,1157,1580695383353,0.24149999,-3.5704,6.6108,0.7681557,-2.6191897,16.019499,-1
1157,1158,1580695383365,-1.8797,-3.6164,5.5,-1.250118,-2.1265779,14.899070000000002,-1
1158,1159,1580695383375,-2.4519,-3.3704,4.7643,-1.9211171000000002,-1.8008802,13.906998000000002,-1
1159,1160,1580695383385,-2.9556,-3.2489,3.8356,-2.5947017999999997,-1.5460606000000001,12.74151,-1
1160,1161,1580695383396,-3.5821,-3.1757,2.5874999,-3.195206,-1.504162,11.422555000000001,-1
1161,1162,1580695383406,-4.0104,-3.3339,1.2257,-3.5673892,-1.5822513,10.079513,-1
1162,1163,1580695383416,-4.3694997,-3.57,0.1511,-4.026674,-1.603349,9.581739,-1
1163,1164,1580695383426,-5.0162997,-3.6186,0.027999998999999998,-4.7548943,-1.3672328,9.926102,-1
1164,1165,1580695383436,-5.3241997,-3.4173,0.67789996,-4.833261,-0.89566123,10.549944,-1
1165,1166,1580695383446,-5.2581997000000005,-3.0017998,1.072,-4.9314423,-0.42679042,10.563993,-1
1166,1167,1580695383457,-5.3662,-2.7080998,0.98789996,-5.1178837,-0.23007321,10.135268,-1
1167,1168,1580695383467,-5.4316,-2.7515,0.3011,-5.3388495,-0.2591005,9.069417999999999,-1
1168,1169,1580695383477,-5.6607,-3.0063,-0.9281,-5.76201,-0.513652,7.238524000000001,-1
1169,1170,1580695383487,-5.9386,-3.3611,-2.4940999,-5.943653599999999,-0.5799906,6.2292819999999995,-1
1170,1171,1580695383497,-6.1059,-3.6446998,-4.0938,-6.114408,-0.6620446999999999,4.0620985,-1
1171,1172,1580695383507,-6.062999700000001,-3.7779,-5.4948997,-5.9420543,-0.5494597,3.0511706000000003,-1
1172,1173,1580695383517,-5.7485,-3.7603,-6.3287,-5.552949,-0.10740388,2.7298496,-1
1173,1174,1580695383527,-5.3201,-3.3996,-6.450999700000001,-5.462496,0.38704666,2.9836158999999998,-1
1174,1175,1580695383537,-5.2360997000000005,-2.8904,-6.0006,-5.5143059999999995,0.94962656,3.4226932999999997,-1
1175,1176,1580695383547,-5.2107,-2.5725,-5.6816998,-5.5301747,1.176434,3.4629830000000004,-1
1176,1177,1580695383557,-5.1881,-2.4164999,-5.6773,-5.720466,1.3972466000000001,3.0736953999999996,-1
1177,1178,1580695383567,-5.3104,-2.3408,-6.1419,-5.6619325,1.4748666000000001,2.2729880000000002,-1
1178,1179,1580695383577,-5.0189,-2.3284,-7.2216997,-5.1189375,1.605341,1.2240309,-1
1179,1180,1580695383587,-4.3408,-2.2247,-8.0862,-4.384607,1.8857211999999999,0.5573030999999999,-1
1180,1181,1580695383598,-3.5393999,-1.9562,-8.4875,-3.8107263999999996,2.3705852000000003,0.4872775,-1
1181,1182,1580695383608,-3.1402,-1.4911,-8.3382,-3.9747483999999997,2.7798595,0.84381247,-1
1182,1183,1580695383618,-3.4796998999999995,-1.2716,-8.0512,-4.6568464999999994,2.8326087,0.6569210999999999,-1
1183,1184,1580695383630,-4.1798997,-1.3196,-8.3364,-5.2320685,2.6164508,0.019594146,-1
1184,1185,1580695383640,-4.6734,-1.6310999,-8.9699,-5.433545,2.1654022,-0.7274351,-1
1185,1186,1580695383650,-4.7728,-2.003,-9.5723,-4.970353,1.8550944,-1.0030459999999999,-1
1186,1187,1580695383661,-3.008,-2.2903,-9.4951,-3.245714,1.8483237000000001,-0.39892188,-1
1187,1188,1580695383670,-1.8176,-2.1220999,-8.7976,-2.4879205,1.9377423999999999,0.11687535,-1
1188,1189,1580695383680,-1.8176,-2.1220999,-8.7976,-2.2303998,2.145674,0.6161622,-1
1189,1190,1580695383690,-1.5647,-1.7945,-8.217,-2.3098874,2.182066,1.1891426,-1
1190,1191,1580695383701,-1.6574999,-1.7077999,-7.7985997000000005,-2.4405055,1.9214810000000002,1.5087492,-1
1191,1192,1580695383711,-2.3707,-2.6784,-7.2974997,-2.9529798,1.0120482,1.7845708999999998,-1
1192,1193,1580695383721,-2.7777998,-3.5384,-7.2506,-3.2725003,0.06064034,1.8677549999999998,-1
1193,1194,1580695383731,-2.7384,-4.3687997,-7.4479999999999995,-3.0963635,-1.0725257,1.6829227,-1
1194,1195,1580695383741,-2.7396,-5.0621,-7.5489999999999995,-3.0087264,-1.7724466,1.7115668999999998,-1
1195,1196,1580695383751,-2.7075,-5.2405,-7.0772,-2.8543193,-1.975542,2.1804377999999995,-1
1196,1197,1580695383762,-2.3453,-4.8333,-6.114,-2.397975,-1.7357962,3.198414,-1
1197,1198,1580695383772,-1.8635999,-4.4483,-4.7169,-1.714823,-1.5588933999999999,4.9656897,-1
1198,1199,1580695383782,-1.1429,-4.4119,-3.3216,-0.86387587,-1.8090683,6.408732,-1
1199,1200,1580695383792,-0.0543,-4.4901,-2.0582,0.37712505,-2.0515916,7.6439867,-1
1200,1201,1580695383802,0.7917,-4.4164,-1.4808999,1.1499256000000002,-2.3457432000000003,8.163376,-1
1201,1202,1580695383812,0.7147,-4.7833,-1.276,1.0231572,-2.860736,8.345613,-1
1202,1203,1580695383823,0.0907,-5.0621,-1.5644,0.35225412,-3.246528,7.9023023,-1
1203,1204,1580695383833,-0.9166,-5.160599700000001,-2.2814999,-0.5554452,-3.5676959000000004,7.344961,-1
1204,1205,1580695383843,-1.4721,-5.1786,-2.0379,-0.93616164,-3.6791122000000005,7.7737336,-1
1205,1206,1580695383853,-1.4731,-4.6898,-1.2348,-0.77409333,-3.4331129000000002,9.011469,-1
1206,1207,1580695383863,-1.0881,-4.4748,0.1497,-0.28045678,-3.5333343,10.189598,-1
1207,1208,1580695383873,-0.016999999,-4.5469,1.2162,1.0279937,-3.9735129999999996,11.010914,-1
1208,1209,1580695383884,0.7538,-4.9097,0.9065,1.5725308999999998,-4.8938155,10.470188,-1
1209,1210,1580695383894,0.7669,-5.6685,0.5632,1.1732067,-5.6381726,10.507117,-1
1210,1211,1580695383904,0.3048,-5.7075996,1.4316,0.9383834000000001,-5.7383942999999995,11.9259405,-1
1211,1212,1580695383914,0.389,-5.2007,3.2877998,0.9890351000000001,-5.361537,13.839893,-1
1212,1213,1580695383924,0.6683,-4.3307,5.1728,1.4229506,-4.7917933,15.994225,-1
1213,1214,1580695383935,1.0792,-3.7991,6.8718996,1.6492218999999997,-4.8104973,17.423113,-1
1214,1215,1580695383945,1.3534,-3.5579998,8.0306,1.8231462,-4.814223,17.856512,-1
1215,1216,1580695383955,1.6193,-3.2347,7.7818,1.7997884999999998,-4.91679,16.511612,-1
1216,1217,1580695383965,1.3679,-3.4338,5.964299700000001,1.1613411,-5.64615,14.39395,-1
1217,1218,1580695383975,0.74689996,-3.9108998999999995,4.2736998,0.8212686,-5.9088416,13.787623000000002,-1
1218,1219,1580695383986,0.797,-3.6517,4.5467997,1.5256045,-5.420817400000001,15.019287,-1
1219,1220,1580695383996,1.8937,-2.8929,6.1793,2.5369248,-5.0283217,16.495686,-1
1220,1221,1580695384006,2.9661,-2.2996,8.0246,3.4851916,-4.626268,18.13809,-1
1221,1222,1580695384016,3.6215,-1.8603,8.8944,4.0075774,-4.5834503,18.3368,-1
1222,1223,1580695384026,4.0685,-1.5871998999999999,8.795199,4.1627602999999995,-4.2765617,17.78732,-1
1223,1224,1580695384036,4.0758,-1.0497,8.1451,3.6640482000000003,-4.036691,16.746933,-1
1224,1225,1580695384047,3.6348,-0.81299996,7.2644997,3.1153447999999995,-4.1468244,15.711402,-1
1225,1226,1580695384057,3.2103999,-0.77059996,6.3177,2.9155917000000002,-4.0756974,15.208055499999999,-1
1226,1227,1580695384067,3.0331,-0.5241,5.9821,2.868809,-3.846486,15.386586,-1
1227,1228,1580695384077,3.0895998,-0.2102,6.457000000000001,3.0096552000000005,-3.597039,15.825941,-1
1228,1229,1580695384087,3.1885998,0.0972,6.7341,2.9292004,-3.5445964,15.649076999999998,-1
1229,1230,1580695384097,3.0282998,0.1532,6.450599700000001,2.8145373,-3.5827025999999997,15.116634,-1
1230,1231,1580695384108,3.0261998,0.1744,5.9501,3.346864,-3.488055,14.563766500000002,-1
1231,1232,1580695384118,3.7068,0.4042,5.4179,4.4154824999999995,-3.2448232000000004,14.060188,-1
1232,1233,1580695384128,4.8155,0.6823,4.96,5.248875599999999,-3.093069,13.592476999999999,-1
1233,1234,1580695384138,5.5002,0.85999995,4.4969997,5.223008,-2.9201598,13.267134,-1
1234,1235,1580695384148,5.2709,1.0784999,4.3441,4.396118,-2.8945227000000004,13.8863125,-1
1235,1236,1580695384159,4.3385,1.0713999,5.0639997,3.4382555,-3.0536222,14.370545000000002,-1
1236,1237,1580695384169,3.3987,0.9446,5.4302,2.4914157,-3.243042,14.250825,-1
1237,1238,1580695384179,2.6146998,0.8007,5.3128,1.8728308999999999,-3.3834763,13.640638000000001,-1
1238,1239,1580695384189,1.9957,0.67609996,4.7007,1.6718519,-3.5214398,12.643253,-1
1239,1240,1580695384199,1.7946999,0.54069996,3.7112,1.7641914,-3.5678872999999998,11.957103,-1
1240,1241,1580695384209,1.9291999,0.4948,2.8845,1.9325901,-3.5798485,11.346017,-1
1241,1242,1580695384219,2.148,0.4324,2.2999,2.2828236,-3.5387738,10.879502,-1
1242,1243,1580695384229,2.447,0.53929996,1.8003,2.3003395,-3.2764747000000005,10.176286,-1
1243,1244,1580695384239,2.4248,0.7193,1.2099,2.216418,-3.2496881,9.865902,d
1244,1245,1580695384249,2.2666,0.74079996,0.8346,1.8688276000000001,-3.0471964,9.831464,-1
1245,1246,1580695384259,1.9461998999999999,0.8925,0.8332,1.5069776000000001,-3.0176517999999994,10.055100999999999,-1
1246,1247,1580695384269,1.4485999,0.9027,1.0698,1.0033140999999999,-3.1571476,9.849928,-1
1247,1248,1580695384279,1.0249,0.7496,0.8373,0.8557068999999999,-3.3252203000000002,9.738175,-1
1248,1249,1580695384289,0.8458,0.551,0.7436,0.7823485,-3.517523,9.863058,-1
1249,1250,1580695384299,0.7689,0.3249,0.8666,0.75949824,-3.685136,9.971917,-1
1250,1251,1580695384309,0.7592,0.18069999,0.94769996,0.8270146999999999,-3.7281741999999998,9.8738985,-1
1251,1252,1580695384319,0.8319,0.1082,0.7948,1.1215398,-3.7174002999999995,9.472946,-1
1252,1253,1580695384329,1.1063,0.110199995,0.4301,1.1658803999999998,-3.6677735,9.094644,-1
1253,1254,1580695384340,1.1333,0.126,0.0337,0.8021246,-3.6419735,8.7307825,-1
1254,1255,1580695384350,0.26729998,-0.0041,-0.682,0.32631055,-3.7278964999999995,8.400889,-1
1255,1256,1580695384360,-0.0806,-0.16139999,-0.8117,-0.021432892999999998,-3.8529410000000004,8.289607,-1
1256,1257,1580695384370,-0.0806,-0.16139999,-0.8117,-0.27919266,-3.9213192,8.362574,-1
1257,1258,1580695384381,-0.4261,-0.2949,-0.5513,-0.35373852,-3.9537656,8.561167,-1
1258,1259,1580695384391,-0.4261,-0.2949,-0.5513,-0.27692294,-3.9444282,8.842553,-1
1259,1260,1580695384401,-0.0927,-0.1918,-0.1453,-0.033547554,-3.8362296000000002,8.969915,-1
1260,1261,1580695384411,0.3283,-0.061899997000000005,-0.1778,0.39374083,-3.6973274,8.941185,-1
1261,1262,1580695384421,0.95559996,0.2139,-0.15179999,1.1456255,-3.3523326,9.002314,-1
1262,1263,1580695384431,1.2986,0.43159997,0.0312,1.3674531,-3.176962,9.241617999999999,-1
1263,1264,1580695384442,1.1699,0.3473,0.2839,1.0936808999999998,-3.2987216,9.476796,-1
1264,1265,1580695384452,0.8138,0.22389999,0.4287,0.7735378,-3.4238519999999997,9.608822,-1
1265,1266,1580695384462,0.584,0.042,0.65209997,0.565271,-3.5787666,9.826531,-1
1266,1267,1580695384472,0.3536,-0.060399997999999996,0.8759,0.33161609999999997,-3.6563387,10.056413000000001,-1
1267,1268,1580695384482,0.2625,-0.053099997,1.1984999,0.29638302,-3.6414945,10.420504,-1
1268,1269,1580695384492,0.5358,-0.0244,1.5611,0.6830849,-3.5784697999999997,10.777758,-1
1269,1270,1580695384502,1.2327,0.1415,2.0609,1.3856777,-3.4123120000000005,11.329593,-1
1270,1271,1580695384513,1.9516,0.3479,2.8260999,2.0667994,-3.2314925,12.131746000000001,-1
1271,1272,1580695384523,2.4878,0.35709998,3.5124,2.5265242999999997,-3.2339249,12.723649,-1
1272,1273,1580695384533,2.6357,0.3129,3.7752998,2.5198972,-3.3630586000000005,13.004901,-1
1273,1274,1580695384543,2.3827,0.0277,4.0165,2.205261,-3.6185007000000007,13.218520999999999,-1
1274,1275,1580695384553,1.9095,-0.23519999,4.3039,1.7269758999999998,-3.8727267,13.558594,-1
1275,1276,1580695384563,1.7353,-0.3788,4.696000000000001,1.6217173,-3.8817382000000005,14.108139999999999,-1
1276,1277,1580695384574,1.7725999,-0.2555,5.3304996,1.7420881000000001,-3.6912172,14.740832000000001,-1
1277,1278,1580695384584,1.9941,-0.1328,5.7748,1.9900604,-3.468461,15.005114,-1
1278,1279,1580695384594,2.2842,0.015999998999999997,5.6066,2.306296,-3.4138919999999997,14.613009,-1
1279,1280,1580695384605,2.5326,-0.2455,5.014199700000001,2.2988837,-3.7499518,13.960494,-1
1280,1281,1580695384615,2.1811,-0.7389,4.2472997,1.7014058999999997,-4.3078485,13.151176999999999,-1
1281,1282,1580695384625,1.6956999,-1.2633,3.7919998,1.0891607,-4.682637000000001,13.164976999999999,-1
1282,1283,1580695384635,1.1169,-1.5655999,3.985,0.25629450000000004,-4.923551,13.601920000000002,-1
1283,1284,1580695384645,0.3832,-1.8036,4.6261,-0.4009522,-5.036912,14.262978,-1
1284,1285,1580695384656,-0.0343,-1.767,5.1164,-0.5804406999999999,-4.696696,14.550626999999999,-1
1285,1286,1580695384666,0.069299996,-1.3478999,5.4082,-0.4052426,-4.218775,14.820606,-1
1286,1287,1580695384676,0.14299999,-1.021,5.4312,-0.56003255,-3.9658132000000004,14.384996,-1
1287,1288,1580695384686,-0.17189999,-0.8781,4.8073997,-0.69761294,-3.7475097,13.736483999999999,-1
1288,1289,1580695384696,-0.11,-0.7374,4.0345,-0.24864264,-3.3124452000000004,12.875259,-1
1289,1290,1580695384707,0.4592,-0.3897,3.1176999,0.20875524,-2.8582842,12.031898,-1
1290,1291,1580695384717,0.98889995,-0.2208,2.4805999,0.95562166,-2.7656572,11.860224,-1
1291,1292,1580695384727,1.6702,-0.030299998999999998,2.3688998,1.3462213,-2.2740989,11.758144,-1
1292,1293,1580695384738,2.0557,0.3041,2.1829,1.6895113999999998,-1.9988616000000001,11.567203,-1
1293,1294,1580695384748,2.3478,0.4222,2.0472,1.489002,-1.8724285,11.60482,-1
1294,1295,1580695384758,2.0792,0.3949,2.1553,0.7190267,-1.9017240000000002,11.92528,-1
1295,1296,1580695384768,1.2556,0.23449999,2.4357,-0.09242576,-2.0636199,12.171125,-1
1296,1297,1580695384779,0.5348,-0.0185,2.6116,-0.5369906999999999,-1.9037926,11.837221000000001,-1
1297,1298,1580695384789,0.163,-0.0357,2.2323,-0.76052296,-1.9970419999999998,11.151617,-1
1298,1299,1580695384799,-0.1583,-0.322,1.3211,-0.86924845,-1.9903476999999998,10.208446,-1
1299,1300,1580695384809,-0.2598,-0.4789,0.315,-0.55233276,-1.7640382,9.075509,-1
1300,1301,1580695384819,0.0117,-0.47379997,-0.6455,-0.15357366,-1.4607025,8.632869,-1
1301,1302,1580695384829,0.39159998,-0.34719998,-1.1093,0.24146959999999998,-1.1270657,8.390278,-1
1302,1303,1580695384840,0.7734,-0.1783,-1.3619999999999999,0.5875083999999999,-0.8444540999999999,8.229341,-1
1303,1304,1580695384850,1.0658,0.036399997999999996,-1.9358,0.53913593,-0.6063172,7.8472643,-1
1304,1305,1580695384860,0.6552,-0.1453,-1.7974,0.14304876,-0.64268035,7.9959826000000005,-1
1305,1306,1580695384871,0.13159999,-0.5256,-1.5784,-0.39199787,-0.8929415,8.222531,-1
1306,1307,1580695384881,-0.8143,-0.91029996,-1.2202,-1.5104443,-1.1683513,8.680705,-1
1307,1308,1580695384892,-0.8143,-0.91029996,-1.2202,-2.0226886000000004,-1.2699995000000002,9.042124000000001,-1
1308,1309,1580695384902,-2.4503999,-1.5646,-0.5377,-2.9687815,-1.5642948,9.172101,-1
1309,1310,1580695384912,-1.9188,-1.4913,-1.341,-2.0555277,-1.2114468999999999,8.227789,-1
1310,1311,1580695384922,0.23259999,-0.9069,-2.5146,-0.24564509,-0.6287269,7.2790246,-1
1311,1312,1580695384932,1.6039,-0.42639998,-2.9213998,1.2665998,0.059720967,6.859895699999999,-1
1312,1313,1580695384942,2.1207,-0.21100000000000002,-2.5821,1.6487526999999997,0.35622847,7.361068700000001,-1
1313,1314,1580695384953,2.0204,-0.21589999,-1.7032,1.3777003,0.36297056,8.261327,-1
1314,1315,1580695384963,1.2658,-0.5029,-0.8829,0.52644664,0.09700348,8.994067,-1
1315,1316,1580695384973,0.3426,-0.96599996,-0.5816,-0.43788993,-0.26523924,9.174083,-1
1316,1317,1580695384983,-0.6906,-1.3088,-1.0239,-1.653407,-0.6111727,8.351866000000001,-1
1317,1318,1580695384993,-1.5764999,-1.8368,-2.0217,-2.3657298,-0.9266423,7.284742,-1
1318,1319,1580695385003,-1.9550999,-1.9843998999999999,-3.1276999,-2.4811592,-0.8144021,6.196376,-1
1319,1320,1580695385013,-1.7773999,-2.0335999,-3.9564998,-2.1320271,-0.7864474,5.666405,-1
1320,1321,1580695385024,-1.3762,-2.0070999,-3.9912,-1.6856521,-0.55225617,5.751878,-1
