,Seq,Time,ACCx,ACCy,ACCz,ADGx,ADGy,ADGz,Keydown
0,1,1580696455691,0.9149,0.7829,0.5304,0.5186128,-3.307561,9.266987,-1
1,2,1580696455701,0.8078,-0.0491,0.0083,1.0699208999999998,1.2405412,8.75617,-1
2,3,1580696455711,-0.014599998999999999,-0.0262,-0.2331,0.49308106,1.1149127,9.558784,-1
3,4,1580696455721,-0.44189999,0.1845,0.020299999,0.1643859,1.2916143999999998,9.752417,-1
4,5,1580696455731,-0.44189999,0.1845,0.020299999,0.19528067,1.4164002,9.885707,-1
5,6,1580696455741,0.035099998,0.45979998,0.2065,0.590391,1.6534834999999999,9.929358,-1
6,7,1580696455752,0.2497,0.58599997,0.0818,0.7156365,1.7717572,9.806899000000001,-1
7,8,1580696455762,0.2877,0.5107,-0.1371,0.7271765,1.7600735,9.541698,-1
8,9,1580696455772,0.2262,0.3002,-0.32619998,0.6970000000000001,1.6724457,9.3829155,-1
9,10,1580696455782,0.1635,0.2341,-0.3306,0.63486564,1.6399419999999998,9.373663,-1
10,11,1580696455792,0.26819998,0.29600000000000004,-0.1889,0.75095576,1.7303088,9.5109,-1
11,12,1580696455802,0.2927,0.58199996,0.0,0.87203526,2.1706022999999997,9.707301,-1
12,13,1580696455813,0.5991,0.848,0.089999996,1.2615911,2.433189,9.786366000000001,-1
13,14,1580696455823,0.9453,0.88729995,0.2093,1.6624762,2.5175509999999997,9.907427,-1
14,15,1580696455833,1.2197,0.9206,0.2601,1.9752738,2.6123326000000002,9.862656,-1
15,16,1580696455843,1.3058,1.0074999,0.0084999995,2.0564277,2.7214603,9.542513,-1
16,17,1580696455853,1.1678,0.99009997,-0.1726,1.9205041,2.7412555,9.458294,-1
17,18,1580696455863,0.7969,0.8807,0.0466,1.4827195,2.6289002999999997,9.897132000000001,-1
18,19,1580696455873,0.22489999,0.7123,0.7802,0.89759576,2.4723005000000002,10.786903,-1
19,20,1580696455884,-0.33299999999999996,0.43949997,1.7357,0.37278676,2.1630654,11.570219,-1
20,21,1580696455895,-0.76299995,0.2059,1.9977,0.031747114,2.0629494,11.503641,-1
21,22,1580696455905,-0.9133,0.17549999,1.5008,0.29135520000000004,2.1681795,10.4576435,-1
22,23,1580696455915,-0.41669998,0.2038,0.47,0.7436581999999999,2.2317119,9.821425999999999,-1
23,24,1580696455925,0.3859,0.1652,-0.58669996,1.8999808999999996,2.2458951000000003,8.343687,-1
24,25,1580696455935,1.091,0.0739,-1.4774,2.4966831000000003,2.1743085,7.8138413,-1
25,26,1580696455945,1.5281,-0.054899998,-1.6373999,2.7479403,2.14622,8.052802,-1
26,27,1580696455955,1.7257999,-0.0635,-1.0402,2.9823517999999996,2.1645596,8.756985,-1
27,28,1580696455965,1.9713999,-0.06839999599999999,-0.3143,3.2447562000000003,2.1187632,9.482619,-1
28,29,1580696455975,2.0928,-0.1339,0.40359998,3.2715902000000003,1.9145377000000001,10.184666,-1
29,30,1580696455985,1.9355999,-0.3654,1.0857999,2.9026343999999997,1.5737184,11.12326,-1
30,31,1580696455996,1.5719,-0.52669996,1.9708999,2.6168337000000004,1.3475142,12.068164999999999,-1
31,32,1580696456006,1.3244,-0.6482,2.7783,2.4789084999999997,1.2479824,12.540091,-1
32,33,1580696456016,1.3252,-0.6728,3.04,2.746954,1.1177666000000002,12.679654,-1
33,34,1580696456026,1.7542,-0.76119995,3.1692998,3.3766288999999996,1.0271412,12.788446,-1
34,35,1580696456037,2.4373,-0.8118,3.1945,4.2220693,0.9134359000000001,12.686166,-1
35,36,1580696456047,3.1011,-0.8772,3.0932999,4.564287,0.8694208000000001,12.64308,-1
36,37,1580696456057,3.3054,-0.92939997,3.0883,4.3107414,0.58114934,12.937213,-1
37,38,1580696456067,2.7172,-1.3054999,3.7064998,3.3205757000000005,-0.0001532289,14.009058999999999,-1
38,39,1580696456077,1.6263,-1.9089999,4.9,1.9134746999999999,-0.75532275,15.315095999999999,-1
39,40,1580696456087,0.4991,-2.3999,5.8687997,0.92458326,-1.1389313,16.112432000000002,-1
40,41,1580696456098,-0.41200000000000003,-2.7522,6.6361,0.21390757,-1.448061,16.725166,-1
41,42,1580696456108,-1.0604,-3.0194,7.1635,-0.16739300000000001,-1.5874226999999999,16.776707000000002,-1
42,43,1580696456118,-1.3399999,-3.1538,7.1067,-0.27787107,-1.6076586000000002,16.313,-1
43,44,1580696456128,-1.4254999,-3.2087998,6.561899700000001,-0.4874116,-1.7229537,15.730661999999999,-1
44,45,1580696456138,-1.7005,-3.4201998999999996,6.0364,-1.2912504999999999,-2.1940942000000003,15.542295000000001,-1
45,46,1580696456149,-2.5751,-3.9856,5.9507,-2.6058204,-2.7337472000000003,15.830672,-1
46,47,1580696456159,-3.9043,-4.5091,6.3241,-4.547125299999999,-2.9043581,16.482653,-1
47,48,1580696456169,-5.4571,-4.6609,6.8738,-6.0194730000000005,-3.2228732000000004,17.182592,-1
48,49,1580696456180,-6.8585,-5.036299700000001,7.5723996,-7.366547,-3.2580297000000003,17.406403,-1
49,50,1580696456190,-9.282,-5.2889,7.321399700000001,-8.576644,-3.3071203000000002,16.911846,-1
50,51,1580696456200,-10.116,-5.6865997,6.5424,-9.462719,-3.5676669999999997,16.10025,-1
51,52,1580696456214,-10.7878,-6.2103996,5.4451,-10.355725999999999,-3.9553552000000005,14.496767000000002,-1
52,53,1580696456224,-11.0577,-6.4210997,3.9615,-10.350028,-3.8602192000000004,12.877578,-1
53,54,1580696456234,-10.556399,-6.4038,2.549,-9.777422,-3.60154,11.3482485,-1
54,55,1580696456245,-9.909699,-6.2608,1.1571,-9.343755,-3.3212366,10.299176,-1
55,56,1580696456255,-9.46,-6.0298,0.1876,-8.882172,-2.8582554,9.015232000000001,-1
56,57,1580696456265,-9.042,-5.9888,-0.57379997,-8.553496,-2.7961786,8.337760000000001,-1
57,58,1580696456275,-8.6619,-6.1611,-1.5479,-8.274505,-2.7027664000000002,7.086511,-1
58,59,1580696456285,-8.3637,-6.1165,-2.3222,-7.895569999999999,-2.4214094,6.6005936,-1
59,60,1580696456295,-7.9041,-5.9584,-2.6046999,-7.5865836,-2.1046276,6.294480999999999,-1
60,61,1580696456305,-7.6758,-5.7928,-2.8869998,-7.503044999999999,-1.7495102999999999,5.9507403,-1
61,62,1580696456315,-7.5063996,-5.6007,-3.1399999,-7.1333994999999994,-1.4262068,5.6288542999999995,-1
62,63,1580696456326,-6.946399700000001,-5.4319997,-3.4222998999999996,-6.432004,-1.2702388999999998,5.309334,-1
63,64,1580696456336,-6.1814,-5.5045,-3.7335,-5.7104583,-1.3436451,4.6916776,-1
64,65,1580696456346,-5.4728,-5.7507,-4.4455,-5.116217,-1.42229,3.800029,-1
65,66,1580696456356,-4.896,-5.9052,-5.2648,-4.7780027,-1.4399781999999999,2.995539,-1
66,67,1580696456366,-4.6308,-6.0346,-6.0355,-4.663454499999999,-1.4023508999999998,1.9766048999999999,-1
67,68,1580696456377,-4.5716,-6.1198997,-7.0322,-4.645958,-1.3194636999999998,1.0421386000000001,-1
68,69,1580696456387,-4.4518,-6.0910997,-7.7851,-4.433841,-1.1691461,0.25304797,-1
69,70,1580696456397,-4.238,-6.0846995999999995,-8.3639,-4.1611705,-1.0140209999999998,-0.5256997,-1
70,71,1580696456407,-3.9301,-5.9635997000000005,-9.1414995,-3.5708942,-0.66443884,-1.5006377,-1
71,72,1580696456417,-3.2164998,-5.6875,-10.011000000000001,-2.38179,-0.098803915,-2.0816338,-1
72,73,1580696456427,-2.024,-5.1443996,-10.4655,-1.1953771,0.71517676,-2.3378901,-1
73,74,1580696456438,-0.9205,-4.4094,-10.615,-0.33270785,1.2524165,-2.3843567,-1
74,75,1580696456448,-0.2207,-4.012,-10.6165,0.28813738,1.2894404,-2.1280048,-1
75,76,1580696456459,0.31129998,-4.0106,-10.3136,1.0605930000000001,1.5205191,-1.987628,-1
76,77,1580696456468,0.8688,-3.8293998,-10.2044,1.9246125,1.4229124,-1.8205414,-1
77,78,1580696456478,1.8707,-3.9492998,-9.9548,3.1921604,1.5412337999999999,-1.3729886,-1
78,79,1580696456489,3.0335999,-3.7019,-9.4769,4.9489875,2.4132689999999997,-0.7670543000000001,-1
79,80,1580696456499,4.393399700000001,-2.9008,-8.996099000000001,6.334683999999999,3.3512980000000003,-0.37218344,-1
80,81,1580696456509,5.6514,-1.9296,-8.6095,7.3048720000000005,4.1364813,-0.014528016000000001,-1
81,82,1580696456519,6.4898996,-1.0943999,-8.2669,8.295133,4.5430264000000005,0.007642291999999999,-1
82,83,1580696456530,7.3465996,-0.62659997,-8.2879,9.519069,4.4799633000000005,0.09155428,-1
83,84,1580696456540,9.41,-0.8796,-8.0767,10.659628,4.1735916,0.25658179999999997,-1
84,85,1580696456550,10.1395,-0.9654,-7.2991996,11.552895,4.009311,1.0479038,-1
85,86,1580696456560,10.1395,-0.9654,-7.2991996,11.528886,4.3666024000000006,1.394498,-1
86,87,1580696456570,10.3258,0.38369998,-5.9424,12.043792,5.170796,2.4683933,-1
87,88,1580696456581,11.3593,1.3148,-4.6886997,13.521398000000001,6.009293,3.9564567000000004,-1
88,89,1580696456591,11.3593,1.3148,-4.6886997,14.726629,5.748133,4.6337376,-1
89,90,1580696456601,12.7226,1.23,-3.8609998,15.612397,5.218268,5.673588,-1
90,91,1580696456611,13.479799,0.8454,-2.8546,16.242714000000003,4.814136,6.651485000000001,-1
91,92,1580696456622,14.4956,0.3725,-1.1202999,17.100912,4.3864746,7.8680460000000005,-1
92,93,1580696456632,14.762,0.5776,0.20629999,17.339527,4.621834,9.092862,-1
93,94,1580696456642,14.9354,1.5363,1.1444,17.612955,5.464306,9.966267,-1
94,95,1580696456652,15.0918,2.1404998,1.6588999,17.948220000000003,5.701188,10.4737425,-1
95,96,1580696456662,15.5815,2.1626,2.0225,18.461603,5.592223000000001,10.895619,-1
96,97,1580696456673,15.6642,2.1115,2.1843998,18.499662,5.3315806,10.983572,-1
97,98,1580696456683,15.1463995,1.5538,2.2609,17.916012,4.625483,11.087558,-1
98,99,1580696456693,14.167399,0.80899996,2.1764997999999998,16.874842,3.711482,10.802446,-1
99,100,1580696456703,14.167399,0.80899996,2.1764997999999998,16.473782999999997,3.4075236000000007,10.458333,-1
100,101,1580696456714,13.4244995,0.3251,1.6498,15.10475,2.716174,10.057572,-1
101,102,1580696456724,10.5528,-0.6202,0.7772,12.864802000000001,2.202244,9.294455000000001,-1
102,103,1580696456734,8.7091,-0.92109996,-0.0902,10.729443,1.6339181999999999,8.273297999999999,-1
103,104,1580696456745,7.0751995999999995,-1.5981,-0.93479997,9.132529,0.71537787,7.4430274999999995,-1
104,105,1580696456756,5.513099700000001,-2.5577,-1.8168999,7.675677,-0.34756145,6.5342937,-1
105,106,1580696456766,4.1828,-3.718,-2.7552,6.6349077,-1.5641798,5.5711827000000005,-1
106,107,1580696456776,3.3065,-4.8612,-3.6085,5.7432300000000005,-2.6529574,4.9562654,-1
107,108,1580696456787,2.5046,-5.6482,-3.9547,4.8301680000000005,-3.1662934,4.869021,-1
108,109,1580696456797,1.1859,-6.2439,-4.0383997,3.3066702000000006,-3.6611269,4.96363,-1
109,110,1580696456807,-0.33089998,-6.4895,-3.708,1.8772647,-3.8314602,5.8713489999999995,-1
110,111,1580696456817,-1.6788,-6.5958,-2.5444999,0.22229685,-3.9814522000000006,7.504424,-1
111,112,1580696456827,-2.9759998,-6.500499700000001,-1.2560999,-0.94363153,-3.7246597,8.370981,-1
112,113,1580696456838,-4.0264997000000005,-6.1096997,-0.5907,-1.524168,-3.7463317000000003,8.606686,-1
113,114,1580696456848,-4.468,-6.1077,-0.5178,-1.8151592,-4.197955,8.265771,-1
114,115,1580696456858,-4.8599,-6.553,-0.8761,-2.5731537,-4.867977,7.838645,-1
115,116,1580696456868,-5.7144,-7.1569,-1.3751999,-4.100912999999999,-5.3644099999999995,7.183208500000001,-1
116,117,1580696456879,-7.1186,-7.4788,-1.9034,-5.938836599999999,-5.288169,6.6152368,-1
117,118,1580696456888,-9.0323,-7.3524,-2.4716,-7.0867224,-5.0845375,6.283563,-1
118,119,1580696456898,-10.4085,-6.9656997,-2.8046,-7.7067630000000005,-4.704185,6.641889,-1
119,120,1580696456908,-10.839,-6.4666996,-2.2995,-7.440528,-4.5279427000000005,7.946326700000001,-1
120,121,1580696456918,-10.3928995,-6.1411,-0.8613,-6.831577,-4.522043,10.416827,-1
121,122,1580696456928,-9.8517,-5.9122,1.1826,-6.569775999999999,-4.8008914,12.251255,-1
122,123,1580696456939,-9.559,-5.9723,2.9859,-7.025689,-5.1142635,12.861794,-1
123,124,1580696456949,-10.263599000000001,-6.164,3.5449998,-8.515668,-5.5173903,12.009948,-1
124,125,1580696456959,-11.867,-6.4129996,2.4003,-10.521798,-5.7942653,10.162533999999999,-1
125,126,1580696456969,-13.5539,-6.4807997,0.8624,-11.410910000000001,-5.7420425,9.215455,-1
126,127,1580696456979,-14.569099,-6.2345,-0.2181,-11.923403,-5.788251,9.36017,-1
127,128,1580696456990,-14.9063,-6.2078,0.19659999,-12.514234,-6.37505,10.627612,-1
128,129,1580696456999,-15.5061,-6.5684,1.5285,-13.41497,-6.813611,12.171355,-1
129,130,1580696457009,-16.2463,-6.7295,3.1023998,-13.831868,-7.4078610000000005,13.948207,-1
130,131,1580696457020,-16.379,-7.0744996,4.7697997,-13.126995999999998,-7.849572,15.102912,-1
131,132,1580696457030,-15.6144,-7.1183,5.6475,-11.924896,-7.6627282999999995,15.248575,-1
132,133,1580696457040,-12.1278,-5.7204,6.2535996,-9.491467,-6.773359299999999,15.885174,-1
133,134,1580696457050,-10.535,-4.5274,7.5555,-8.096319,-5.859732,17.395657,-1
134,135,1580696457061,-9.2234,-3.6529998999999997,9.8532,-7.194212400000001,-5.4410243,19.290388,-1
135,136,1580696457071,-9.2234,-3.6529998999999997,9.8532,-6.365416000000001,-5.204688,21.484581,-1
136,137,1580696457081,-7.1211996,-2.9543998,12.906799000000001,-5.4576116,-5.262656,22.29609,-1
137,138,1580696457091,-6.1973996,-2.9097998,12.309299000000001,-4.6975574,-5.4143147,21.684753,-1
138,139,1580696457101,-5.4203,-2.8855999,10.8331995,-3.9170575,-5.60837,19.80903,-1
139,140,1580696457111,-4.3261,-3.1717,8.8522,-2.9416215,-5.951908599999999,17.890375,-1
140,141,1580696457121,-3.0686,-3.0962,8.1664,-2.027362,-5.942658,17.500725,-1
141,142,1580696457132,-1.0208,-2.7445,9.9102,0.35438973,-5.5936694000000005,19.803420000000003,-1
142,143,1580696457142,1.5849999,-2.0674,12.906799000000001,2.842722,-5.0281587,22.760479,-1
143,144,1580696457152,3.9480998999999994,-1.3730999,15.1477995,4.8992357,-4.4617867,24.720142000000003,-1
144,145,1580696457162,5.3108,-0.9504,16.399,6.058623000000001,-4.1844997,25.765432,-1
145,146,1580696457172,5.928499700000001,-1.0418999,16.0557,6.291253599999999,-4.3813415,25.004066,-1
146,147,1580696457182,5.9449,-1.5228,14.014899,6.117750599999999,-4.893863,22.378785999999998,-1
147,148,1580696457193,6.2158,-1.8273,11.927099,6.5586667,-4.910565,20.936844,-1
148,149,1580696457203,7.6871996,-1.5942,10.887899,8.184453999999999,-4.3990583,20.208164,-1
149,150,1580696457213,9.4937,-0.99509996,10.7755995,10.25179,-3.4987904999999997,20.131119,-1
150,151,1580696457223,10.7696,-0.5708,10.3974,11.203657000000002,-2.9513228,19.548178,-1
151,152,1580696457233,11.311,-0.36519998,9.4023,11.548911,-2.641293,18.415470000000003,-1
152,153,1580696457243,11.4459,-0.36929998,7.9378996,11.644860000000001,-2.487413,16.826926999999998,-1
153,154,1580696457254,11.5194,-0.4863,6.2012,11.567337,-2.374732,15.13395,-1
154,155,1580696457264,11.2343,-0.6199,4.3598,11.197633999999999,-2.2082777,13.295769,-1
155,156,1580696457274,10.847199,-0.6504,2.6016998,10.839441,-1.9642414000000001,11.7990465,-1
156,157,1580696457284,10.6188,-0.5708,1.3406,10.750617,-1.4772416000000002,10.664828,-1
157,158,1580696457295,10.6216,-0.2465,0.3132,10.858901,-0.9196511999999999,9.726828,-1
158,159,1580696457305,10.649099,-0.073199995,-0.6568,10.825115,-0.50835603,8.7783985,-1
159,160,1580696457315,10.4641,0.041699997999999995,-1.5112,10.727853,-0.15491442,8.041214,-1
160,161,1580696457325,10.5879,0.1502,-2.2019,11.067082000000001,0.30686006,7.252698,-1
161,162,1580696457335,10.9993,0.5056,-3.1122,11.502032,0.9796212,6.189816,-1
162,163,1580696457345,11.1867,0.6967,-3.8799998999999996,11.414903,1.0630064,5.533517,-1
163,164,1580696457355,10.8063,0.3829,-4.486799700000001,10.605748,0.78379464,4.8765583,-1
164,165,1580696457366,9.741899499999999,-0.110199995,-5.1495,9.454003,0.48256570000000004,4.5973554000000005,-1
165,166,1580696457376,8.5583,-0.6127,-4.8982997,8.25878,0.11014285,5.658399,-1
166,167,1580696457386,7.3099,-1.1123999,-3.4694998,7.0761395,-0.20572896,7.1132307,-1
167,168,1580696457396,6.1888,-1.5325999,-2.2842999,5.900012,-0.46829626,7.7936916,-1
168,169,1580696457406,4.8473997,-1.8815998999999999,-1.8797,4.9111876,-0.56517524,7.582006,-1
169,170,1580696457417,4.2618,-2.0853,-2.245,5.1119943,-0.5212081000000001,6.8234367,-1
170,171,1580696457427,4.6259,-1.9907999,-3.2828,5.9527516,0.250558,5.6600269999999995,-1
171,172,1580696457437,5.382000000000001,-1.4663999,-4.0548997,6.5951447,0.63086253,5.4641910000000005,-1
172,173,1580696457447,5.9929,-1.2322999,-4.0364,6.73623,0.7952197,5.9335213,-1
173,174,1580696457458,5.8234997,-1.2765,-3.5332,6.020278,0.62689775,6.3064227,-1
174,175,1580696457468,5.0042,-1.5785999,-3.2105,4.7499910000000005,0.2512188,6.428211,-1
175,176,1580696457478,3.6503,-2.0702,-3.1046999,3.0976276,-0.28500578,6.351817,-1
176,177,1580696457488,1.9777999,-2.6987,-3.1743999,1.3407817,-0.85886717,6.463186299999999,-1
177,178,1580696457499,0.54719996,-3.2299,-3.0263999,0.45663172,-0.9082068999999999,6.7398977,-1
178,179,1580696457509,-0.49019998,-3.3391,-2.6604,0.076873034,-0.72243595,7.0044856,-1
179,180,1580696457519,-0.7836,-3.1898,-2.4211,0.16479770000000002,-0.08292556599999999,6.9693966,-1
180,181,1580696457529,-0.72889996,-2.6799,-2.458,0.19822074,0.38588786,6.692023299999999,-1
181,182,1580696457539,-0.723,-2.217,-2.7937999,-0.026805482999999998,0.67474353,6.19154,-1
182,183,1580696457550,-0.89159995,-2.0563,-3.2013998,-0.637212,0.74173325,5.7064265999999995,-1
183,184,1580696457560,-2.2840000000000003,-2.3537,-3.5563,-1.6634818,0.33815706,5.9446015,-1
184,185,1580696457571,-3.2865998999999997,-2.7798998,-2.9357998,-2.4898357000000004,0.0054683564,6.437003,-1
185,186,1580696457581,-4.1528997,-3.0084,-2.0883,-3.3468833,-0.22775562,7.287576700000001,-1
186,187,1580696457591,-4.6050997,-3.0909,-1.4253,-3.7763457000000002,-0.28889394,7.9450436,-1
187,188,1580696457601,-4.6050997,-3.0909,-1.4253,-4.102216,-0.30368054,8.271363000000001,-1
188,189,1580696457611,-5.3114,-2.9689999,-1.0266,-4.513396,-0.12492944,8.333527,-1
189,190,1580696457621,-5.410599700000001,-2.8648,-1.1478,-4.566519,-0.04798938,8.172943,-1
190,191,1580696457632,-5.2170000000000005,-2.8019,-1.4093,-4.3267435999999995,0.036516365,7.914847999999999,-1
191,192,1580696457642,-4.7869,-2.722,-1.5258,-3.9424841,0.074086174,7.8712826,-1
192,193,1580696457652,-4.7869,-2.722,-1.5258,-3.8654387000000003,0.066290654,8.029578,-1
193,194,1580696457663,-4.4681997,-2.5635,-0.74729997,-3.7131674,0.23376985,8.920595,-1
194,195,1580696457673,-4.3704,-2.3469,-0.19219999,-3.6535902,0.38366604,9.39119,-1
195,196,1580696457683,-4.255,-2.1785,0.0722,-3.5223782,0.53927004,9.427275,-1
196,197,1580696457693,-4.027,-2.0049999,-0.1973,-3.309256,0.6909666,9.082816000000001,-1
197,198,1580696457703,-3.8848998999999997,-1.8895998999999999,-0.5815,-3.1211197,0.749749,8.758602,-1
198,199,1580696457714,-3.6515,-1.851,-0.80939996,-2.8835096,0.8078611,8.615525,-1
199,200,1580696457725,-3.5182998,-1.7454,-0.7852,-2.7759047000000003,0.86915267,8.740541,-1
200,201,1580696457734,-3.3660997999999998,-1.6877999,-0.5586,-2.7007937,0.9035813,8.9424,-1
201,202,1580696457744,-3.1789,-1.5733999,-0.3441,-2.4188522999999997,1.0088304,9.19585,-1
202,203,1580696457754,-2.7354998999999998,-1.3964,-0.2286,-1.8236346,1.2397559999999999,9.402681,-1
203,204,1580696457764,-2.2124,-1.0795,0.0629,-1.3592458,1.5661718999999998,9.8898735,-1
204,205,1580696457774,-1.7665,-0.7703,0.6777,-1.0963911,1.7253193,10.589122999999999,-1
205,206,1580696457784,-1.6148,-0.5812,1.2933999,-1.0823803,1.822543,10.953510000000001,-1
206,207,1580696457795,-1.558,-0.38419998,1.7066,-0.96772677,2.036843,11.316922,-1
207,208,1580696457805,-1.2207,-0.1848,1.7032,-0.55571336,2.1867490000000003,11.053245,-1
208,209,1580696457815,-0.78169996,-0.063,0.8809999999999999,-0.14735833,2.3116686,9.959783999999999,-1
209,210,1580696457825,-0.5475,0.036199998,-0.252,0.018741813,2.374119,8.83334,-1
210,211,1580696457835,-0.42,0.0401,-1.1606,0.12427822,2.407772,8.182347,d
211,212,1580696457845,-0.3708,0.0266,-1.3666999,0.12055284,2.379444,8.322609,-1
212,213,1580696457855,-0.3861,0.0358,-0.99759996,0.035558686,2.381771,8.841797,-1
213,214,1580696457866,-0.4798,0.0336,-0.45389998,-0.1570309,2.2945647,9.438489,-1
214,215,1580696457876,-0.63479996,-0.0637,0.0795,-0.2777274,2.1995819,9.7172985,-1
215,216,1580696457886,-0.7248,-0.12529999,0.1433,-0.35242647,2.1437106,9.611513,-1
216,217,1580696457896,-0.8009,-0.18349999,-0.1048,-0.37520972,2.1104982000000003,9.360132,-1
217,218,1580696457906,-0.57199997,-0.1978,-0.2631,0.23827095,2.16817,9.077041,-1
218,219,1580696457916,-0.0358,-0.0672,-0.5187,0.8542895,2.5012128,8.941614999999999,-1
219,220,1580696457927,0.5392,0.2712,-0.5786,1.2095698000000001,2.6512432,9.168787,-1
220,221,1580696457936,0.8239,0.4191,-0.3066,1.2354655,2.7607155,9.426834,-1
221,222,1580696457946,0.8084,0.5315,-0.0257,1.1121067,2.7432187000000003,9.620773,-1
222,223,1580696457956,0.59749997,0.457,0.1276,0.81424886,2.5952284,9.727412,-1
223,224,1580696457966,0.28759998,0.2823,0.16399999,0.50146073,2.4004936000000003,9.622717999999999,-1
224,225,1580696457976,0.015199998999999999,0.124699995,0.0343,0.31930992,2.2984145000000002,9.57674,-1
225,226,1580696457986,-0.0632,0.0548,0.0716,0.37112042,2.255089,9.694851,-1
226,227,1580696457997,0.072399996,0.0547,0.24589999,0.5974395,2.3383017,9.884892,-1
227,228,1580696458007,0.30949998,0.19399999,0.3804,0.79224133,2.4542672999999997,10.0761795,-1
228,229,1580696458017,0.49139997,0.3154,0.5243,0.9983438,2.5772147000000003,10.050533,-1
229,230,1580696458027,0.7159,0.48569998,0.4032,1.2009412,2.7027185,9.826435,-1
230,231,1580696458037,0.85649997,0.56839997,0.1936,1.2323244,2.7056777000000003,9.672488000000001,-1
231,232,1580696458047,0.8341,0.5168,0.0911,0.97209376,2.5029272999999996,9.803835000000001,-1
232,233,1580696458057,0.5667,0.3514,0.2722,0.64967144,2.2843556,10.267351,-1
233,234,1580696458068,0.265,0.15879999,0.816,0.4902559,2.2068793999999996,10.815605,-1
234,235,1580696458078,0.1192,0.16129999,1.4485999,0.40844122,2.2800078,11.374421,-1
235,236,1580696458088,0.071499996,0.2463,1.8475,0.3326408,2.329587,11.7087,-1
236,237,1580696458099,-0.029199999,0.3065,2.3064,0.37865737,2.4312928,12.049586,-1
237,238,1580696458109,0.030199998999999998,0.40379998,2.4519,0.52173483,2.4542005000000002,12.024246,-1
238,239,1580696458119,0.1706,0.44309998,2.4203,0.73235756,2.390687,12.29458,-1
239,240,1580696458129,0.40289998,0.38959998,2.6813998,1.0359232,2.4375652999999997,12.609897,-1
240,241,1580696458140,0.9798,0.4969,3.4366,1.2563238,2.467177,13.050400999999999,-1
241,242,1580696458150,1.1527,0.7169,3.9921,1.4065936,2.668175,13.608806,-1
242,243,1580696458160,1.4745,0.85889995,4.3339,1.7104943,2.8045008,13.956586999999999,-1
243,244,1580696458171,1.4745,0.85889995,4.3339,1.7396363999999997,2.8702838,13.961882999999998,-1
244,245,1580696458181,1.5157,0.9094,4.3353,1.5423926000000001,2.875398,13.922051999999999,-1
245,246,1580696458191,1.0378,0.8846,4.3145,1.1795561,2.8995316000000004,13.992768,-1
246,247,1580696458202,0.87039995,0.9155,4.594599700000001,0.9996845999999999,2.9566762000000004,14.254195999999999,-1
247,248,1580696458212,0.752,0.88549995,4.6691,0.88812435,2.9265285,14.232294,-1
248,249,1580696458223,0.7815,0.7722,4.450599700000001,0.8959676999999999,2.8619328,13.989033,-1
249,250,1580696458233,0.8947,0.7309,4.0278,0.964892,2.8623927000000005,13.30998,-1
250,251,1580696458243,0.9429,0.70339996,3.2537,0.9043283000000001,2.9715106,12.536156,-1
251,252,1580696458253,0.8479,0.8806,2.6471,0.7877115,3.1548202,12.097844,-1
252,253,1580696458263,0.77239996,0.82549995,2.5012,0.6230671,3.0507302000000003,12.034541,-1
253,254,1580696458273,0.54719996,0.6264,2.4138,0.39627868,2.9298613,11.95196,-1
254,255,1580696458283,0.8504,0.5582,2.5124,0.779169,2.9105543999999997,12.091255,-1
255,256,1580696458294,1.3324,0.54289997,2.6987997999999997,1.0997909,2.9310584,12.1767,-1
256,257,1580696458304,1.2547,0.44059998,2.5128,0.75820535,2.7816985,11.941004,-1
257,258,1580696458314,0.75949997,0.1935,2.4744,0.08491755,2.5892239,12.09003,-1
258,259,1580696458324,0.08779999599999999,0.055099998,2.7214,-0.8190085,2.4589505000000003,12.17169,-1
259,260,1580696458334,-0.45769998,-0.16059999,2.5988,-1.1383566999999999,2.2230353,11.915348,-1
260,261,1580696458344,-0.5287,-0.5811,2.0986,-1.0136188,1.8459008000000001,11.046004,-1
261,262,1580696458354,-0.2306,-0.8458,1.1916,-0.7456789,1.8220737,10.198763,-1
262,263,1580696458364,0.22749999,-0.94799995,0.3177,-0.3412695,1.7577941000000004,9.495548,-1
263,264,1580696458374,0.33859998,-1.0612999,-0.1626,-0.5372876,1.8499327,8.975067,-1
264,265,1580696458384,-0.017199999,-1.0498999,-0.78029996,-0.91788906,1.8006313000000003,8.223183,-1
265,266,1580696458394,-0.22659999,-1.3011999,-1.2031,-1.2016307,1.621478,8.031829,-1
266,267,1580696458404,-0.6347,-1.5288999,-1.4218998999999999,-1.7707324,1.4726734,7.667134299999999,-1
267,268,1580696458414,-1.1908,-1.7391,-1.8768,-2.3395758,1.4025521,7.299968700000001,-1
268,269,1580696458425,-1.3561,-1.6988,-1.9793999,-2.3633547000000004,1.498435,7.242785499999999,-1
269,270,1580696458435,-1.1560999,-1.6269,-2.1023,-2.320872,1.5825768999999998,6.927239999999999,-1
270,271,1580696458445,-1.1425999,-1.6661999,-2.4696999,-2.1666662999999997,1.6021998,6.325481,-1
271,272,1580696458455,-0.7022,-1.693,-3.1494,-1.3954749,1.7649288,5.56468,-1
272,273,1580696458465,0.3319,-1.4792,-3.8286998,-0.1913829,2.146239,4.919874,-1
273,274,1580696458476,1.4613999,-1.0948,-4.3817,0.4760056,2.5700127999999998,4.5499887,-1
274,275,1580696458486,1.4613999,-1.0948,-4.3817,0.4760056,2.5700127999999998,4.5499887,-1
275,276,1580696458497,1.4613999,-1.0948,-4.3817,0.56649685,2.7727152999999998,4.4386487,-1
276,277,1580696458507,1.0074999,-0.43159997,-4.0806,-1.1292683000000001,2.887369,5.429513,-1
277,278,1580696458518,0.21869999,-0.6802,-3.5293998999999996,-1.91675,2.6526701,5.4297523000000005,-1
278,279,1580696458528,-0.4806,-0.9399,-3.6848998,-2.49562,2.4168412999999997,5.088914,-1
279,280,1580696458538,-0.9568,-1.1263,-3.9675998999999997,-2.6295612,2.5546706,4.9704394,-1
280,281,1580696458549,-0.9156,-0.9708,-4.0302997000000005,-2.2619173999999997,2.6919158,5.062511,-1
281,282,1580696458560,-0.53679997,-0.8509,-3.8987,-1.9003258,3.1193767000000006,5.2513175,-1
282,283,1580696458570,-0.2338,-0.4531,-3.7384998999999994,-1.4004643,3.3137763,5.6869283,-1
283,284,1580696458580,0.2866,-0.2511,-3.3055,-1.0582563999999999,3.3716202000000006,6.217263,-1
284,285,1580696458590,0.6562,-0.1771,-2.7769999999999997,-0.8764694,3.3222422999999996,6.7537365000000005,-1
285,286,1580696458600,0.8706,-0.21669999,-2.2398,-1.3745208,2.8651605,7.63713,-1
286,287,1580696458610,0.5471,-0.58849996,-1.5458,-1.9686754000000002,2.721489,8.281783,-1
287,288,1580696458620,-0.5707,-0.6899,-0.1928,-2.3903902,2.7908826,8.802168,-1
288,289,1580696458631,-0.74689996,-0.491,-0.38419998,-2.5856612,3.000222,8.615458,-1
289,290,1580696458641,-0.5431,-0.23539999,-1.0911,-2.3762642999999994,3.2740134999999997,7.8951387,-1
290,291,1580696458651,0.0897,-0.19129999,-1.7178999,-1.7564342,3.3471322,7.251788,-1
291,292,1580696458661,0.0897,-0.19129999,-1.7178999,-1.1100860000000001,3.3774238,6.8127103,-1
292,293,1580696458671,1.1326,-0.2641,-2.2001,-0.7173315,3.3148968,6.7605070000000005,-1
293,294,1580696458681,0.90889996,-0.275,-1.7932999,-0.9463992,3.3215718,7.158069,-1
294,295,1580696458692,0.0844,-0.2188,-1.4178,-1.9649596,3.3779025000000003,7.6317673,-1
295,296,1580696458702,-0.6684,-0.2652,-0.83769995,-2.6627447999999996,3.302083,8.251539,-1
296,297,1580696458712,-0.6684,-0.2652,-0.83769995,-3.0718662999999995,3.1788104,8.724672,-1
297,298,1580696458722,-1.4517,-0.47829998,-0.0423,-3.2977733999999996,3.1347475,8.909092999999999,-1
298,299,1580696458732,-1.2282,-0.36069998,0.0669,-3.062682,3.2505214,9.015452999999999,-1
299,300,1580696458742,-0.68979996,-0.0039999996999999995,0.0202,-2.3689668,3.6786335,8.926905999999999,-1
300,301,1580696458753,-0.26899999999999996,0.1679,-0.1523,-1.9591944,3.8801197999999997,8.785456,-1
301,302,1580696458763,0.0223,0.34759998,-0.1382,-1.7241987,4.0284553,8.793596,-1
302,303,1580696458773,0.0817,0.3879,-0.0659,-1.6851156999999999,4.066025,8.918085000000001,-1
303,304,1580696458783,0.1162,0.3445,0.07400000000000001,-1.6069594999999999,4.0274779999999994,9.037996000000001,-1
304,305,1580696458793,0.2543,0.3216,0.33049998,-1.4792527,4.010757,9.337731,-1
305,306,1580696458803,0.2543,0.3216,0.33049998,-1.4150593999999999,3.9558244,9.413934,-1
306,307,1580696458814,0.4102,0.2661,0.48799998,-1.3326414,3.9738192999999997,9.414595,-1
307,308,1580696458824,0.4789,0.104899995,0.5369,-1.2629508999999999,3.7484197999999997,9.487695,-1
308,309,1580696458834,0.3234,-0.1625,0.79139996,-1.46551,3.5286032999999994,9.797687,-1
309,310,1580696458844,0.0323,-0.243,1.1636,-1.7595468,3.4679246,10.135422,-1
310,311,1580696458855,-0.2681,-0.268,1.2235,-2.0408174999999997,3.449556,10.112475,-1
311,312,1580696458865,-0.29369998,-0.2786,1.1091,-1.8785002,3.4842913,9.945350999999999,-1
312,313,1580696458877,0.013599999,-0.1567,0.88869995,-1.4060190000000001,3.7656102,9.583971,-1
313,314,1580696458887,0.34989998,0.039899997,0.61109996,-1.0083516,3.8740385,9.295766,-1
314,315,1580696458897,0.75549996,0.1073,0.33429998,-0.8234905,3.8983543,9.014802,-1
315,316,1580696458907,0.86109996,0.1175,0.067499995,-0.9814023999999999,3.9365463,8.930201,-1
316,317,1580696458918,0.65999997,0.1126,0.064899996,-1.3102125,3.895165,9.058232,-1
317,318,1580696458928,0.32639998,0.0635,0.1788,-1.6155498,3.8573272000000003,9.059544,-1
318,319,1580696458938,0.065,0.0165,0.1847,-1.8046726000000002,3.8901372000000003,9.064094,-1
319,320,1580696458948,-0.1191,0.0475,0.17099999,-1.9555169,3.8470607000000006,8.952954,-1
320,321,1580696458958,-0.2382,-0.0415,0.069299996,-1.9566948,3.757422,8.896422,-1
321,322,1580696458968,-0.2061,-0.1435,0.0464,-1.9103814,3.7302814,8.896758,-1
322,323,1580696458978,-0.1871,-0.1398,0.0532,-1.9755995,3.7761734,8.989231,-1
323,324,1580696458989,-0.2733,-0.13589999,0.1586,-2.0482204,3.7409496,9.087622999999999,-1
324,325,1580696458999,-0.3053,-0.1806,0.23539999,-2.0895348,3.8261928999999997,8.92183,-1
325,326,1580696459009,-0.3351,-0.070599996,0.0391,-2.086432,3.9006815,8.59235,-1
326,327,1580696459019,-0.2977,-0.0716,-0.3031,-2.0366037,3.8878867999999995,8.168786,-1
327,328,1580696459029,-0.27199998,-0.0931,-0.6354,-1.9091173,3.9346023,7.993464,-1
328,329,1580696459039,-0.1092,-0.0727,-0.8218,-1.9248519,3.9058144,8.036627000000001,-1
329,330,1580696459050,-0.3606,-0.095199995,-0.4755,-2.1462486000000003,3.9233592000000006,8.304863000000001,-1
330,331,1580696459060,-0.44219998,-0.0137,-0.2258,-2.233359,4.003862000000001,8.543785,d
331,332,1580696459071,-0.5046,0.1551,0.0436,-2.3074262,4.1936646,8.812883,-1
332,333,1580696459081,-0.61579996,0.12459999,0.14800000000000002,-2.420471,4.1689568,8.915194,-1
333,334,1580696459092,-0.7071,0.0297,-0.0095999995,-2.526103,4.0803614,8.752962,-1
334,335,1580696459102,-0.8086,-0.0716,-0.3899,-2.6473262,3.978646,8.265875999999999,-1
335,336,1580696459112,-0.94269997,-0.22749999,-0.8074,-2.7669597,3.8787217000000003,7.9248266,-1
336,337,1580696459123,-1.0734999,-0.3092,-1.1554999,-2.925408,3.8221323,7.5031886,-1
337,338,1580696459133,-1.2135,-0.3453,-1.3959,-3.0857046,3.8958353999999997,7.2390795,-1
338,339,1580696459143,-1.3744999,-0.24679999,-1.5389999,-3.2189753,4.023025,7.1168027,-1
339,340,1580696459154,-1.5349,-0.18899999999999997,-1.6829,-3.3154137,4.110260500000001,6.922461,-1
340,341,1580696459164,-1.609,-0.1687,-1.8865999,-3.3544967000000003,4.1206417,6.7086587,-1
341,342,1580696459174,-1.7579,-0.2412,-2.0526,-3.5913023999999996,4.0396123,6.525435,-1
342,343,1580696459184,-2.0358999,-0.3548,-2.1523,-3.8565896,3.9188104,6.461347,-1
343,344,1580696459194,-2.3518,-0.49859998,-2.2051,-4.2167544,3.8015230000000004,6.3134236,-1
344,345,1580696459206,-2.697,-0.6344,-2.4366999,-4.4177136,3.7016466,5.958833,-1
345,346,1580696459216,-2.7373998,-0.6931,-2.7783,-4.296328,3.6947417000000002,5.7354255,-1
346,347,1580696459230,-2.5184,-0.6846,-2.9076,-3.9147305,3.6868214999999998,5.8349660000000005,-1
347,348,1580696459240,-2.2347999,-0.6691,-2.8058,-3.5357475,3.6971837999999995,5.9344215,-1
348,349,1580696459250,-1.5548999,-0.7848,-2.5923,-3.1681993,3.4669477999999994,6.085639,-1
349,350,1580696459260,-1.4032999,-1.0864999,-2.5472999,-3.046162,3.1244044,6.142296,-1
350,351,1580696459270,-1.4722998999999999,-1.4086,-2.4633,-3.1566687,2.8203409,6.2369337,-1
351,352,1580696459280,-1.7985,-1.4688,-2.5254998,-3.40942,2.7795627,6.1806316,-1
352,353,1580696459291,-1.7985,-1.4688,-2.5254998,-3.6956512999999998,2.769737,6.0227580000000005,-1
353,354,1580696459301,-2.1838999,-1.4851999,-2.7811,-4.208968,2.5143044,5.195341,-1
354,355,1580696459311,-3.2121,-2.2482998,-4.5752997,-4.755085500000001,1.9838833999999999,4.152925,-1
355,356,1580696459321,-3.7682998,-2.9647,-5.468999999999999,-5.355608999999999,1.1441411,3.0791923999999997,-1
356,357,1580696459331,-4.1271,-3.7542998999999995,-6.2654,-5.58098,0.51336473,2.4581652000000003,-1
357,358,1580696459341,-4.0755,-4.486799700000001,-7.0736,-5.3544693,-0.34872982,1.4962132,-1
358,359,1580696459351,-3.4420998,-5.0687,-7.8657,-4.556003,-0.85109085,0.72583574,-1
359,360,1580696459362,-2.8244998,-5.1482,-8.4674,-3.8224387,-0.84499043,0.10190679999999999,-1
360,361,1580696459372,-2.2788,-5.079,-8.9794,-3.2118216,-0.8101883000000001,-0.29242779999999996,-1
361,362,1580696459382,-2.2788,-5.079,-8.9794,-3.066465,-0.68595797,-0.3511815,-1
362,363,1580696459392,-2.0809,-4.4116,-8.8477,-3.0176902,-0.2773156,-0.020944478,-1
363,364,1580696459402,-1.9368,-4.4992,-8.3282995,-2.7926542999999997,-0.45471638,0.5682590000000001,-1
364,365,1580696459413,-2.0249,-5.1967998,-8.0962,-2.8311243,-1.4800763000000001,0.893066,-1
365,366,1580696459425,-2.2845,-6.2935,-7.8451,-2.6981792,-3.0772004,1.4250193000000002,-1
366,367,1580696459435,-1.9629999,-7.1980996,-7.4673,-2.3085754,-3.6247830000000003,1.6335734,-1
367,368,1580696459445,-1.3070998999999999,-7.7646,-7.2583,-0.99949306,-4.272041000000001,2.1486235000000002,-1
368,369,1580696459455,-0.26749998,-7.6672997,-6.7408,0.13998419,-3.8365742999999997,2.6965703999999997,-1
369,370,1580696459465,1.2428,-6.1534,-6.2303,1.8723041,-2.1313088,3.2942587999999997,-1
370,371,1580696459475,2.8655,-4.4079,-5.4616,3.6402016,-0.9230318000000001,4.367321,-1
371,372,1580696459486,3.7616,-3.6864,-4.832,3.7152073,-1.0421768,4.6751190000000005,-1
372,373,1580696459496,3.4668998999999996,-4.002,-4.716,3.3960220000000003,-2.1341147,4.9672885,-1
373,374,1580696459506,3.1185,-5.0722,-4.3061,3.1562188,-3.2808129999999998,5.498035,-1
374,375,1580696459516,2.8021998,-6.1449,-3.6108,3.2884742999999994,-4.487989,6.611789,-1
375,376,1580696459526,3.1262,-6.6256,-2.5523999,4.307705,-4.8720374,7.536497,-1
376,377,1580696459537,4.3473997,-6.615999700000001,-1.9093,6.0344896,-4.670714,7.9381866,-1
377,378,1580696459547,5.9828,-5.839299700000001,-1.5774,7.708487,-3.8435557,8.495183,-1
378,379,1580696459558,7.4649,-4.6468,-0.9026,9.00736,-2.9118087000000004,9.200381,-1
379,380,1580696459568,8.1769,-3.6092,-0.4703,9.078334,-2.8283472,9.980383,-1
380,381,1580696459578,8.187799,-3.3960000000000004,0.5421,8.840378999999999,-3.2454553,11.999499,-1
381,382,1580696459588,7.8894997,-3.5017,2.6842,8.19835,-3.890032,14.294964000000002,-1
382,383,1580696459598,7.2324996,-3.8395998,4.9681997,7.733578,-4.657527,16.421263,-1
383,384,1580696459609,6.9519,-4.2243,6.9818997000000005,8.666368499999999,-5.257619,17.153221,-1
384,385,1580696459620,7.8315997,-4.3798,7.4178,9.353686,-5.044861,15.810197,-1
385,386,1580696459630,8.5739,-3.2050998,5.9722,9.453342,-4.6049404,15.654794,-1
386,387,1580696459640,8.5739,-3.2050998,5.9722,9.8912325,-4.095148,16.915993,-1
387,388,1580696459650,8.9235,-1.5171,8.8967,9.790944,-3.4419807999999996,18.485077,-1
388,389,1580696459660,8.7056,-1.2131,10.2279,9.52558,-3.4225593,19.765810000000002,-1
389,390,1580696459671,8.7056,-1.2131,10.2279,9.577803,-3.5479293,20.453692999999998,-1
390,391,1580696459682,8.5104,-0.9058,10.7772,8.993253999999999,-3.725464,20.086538,-1
391,392,1580696459692,7.5566998,-1.1861,10.4198,7.802521700000001,-4.2850175,19.623720000000002,-1
392,393,1580696459702,5.9728,-1.4584999,9.3115,6.102810400000001,-4.706033000000001,18.276772,-1
393,394,1580696459712,4.7076,-1.5773,8.135799,5.0563817,-4.904513,17.267078,-1
394,395,1580696459722,4.5955,-1.1701,8.2211,5.2522655,-4.338034599999999,17.728987,-1
395,396,1580696459733,5.0955,-0.3908,9.1917,5.915354,-3.7987937999999994,18.665867000000002,-1
396,397,1580696459743,6.0505,0.1356,10.2174,7.165855400000001,-3.3046879999999996,19.857862,-1
397,398,1580696459753,7.6095996,1.0285,11.7105,8.572574000000001,-2.5555325,21.134491,-1
398,399,1580696459763,8.7228,1.8951,12.823999,9.491391,-1.9158496999999999,22.09447,-1
399,400,1580696459773,9.1916,2.3267,13.443399,9.576769,-1.8155231,22.426448999999998,-1
400,401,1580696459783,8.6324,2.2686,13.6304,8.494829,-2.188693,22.392201999999997,-1
401,402,1580696459794,6.9072,1.6603999,13.477098999999999,6.469353,-2.9494168999999997,22.200626,-1
402,403,1580696459804,6.9072,1.6603999,13.477098999999999,4.797453400000001,-3.4086440000000002,21.9908,-1
403,404,1580696459814,2.9780998,0.5668,12.724,3.0326204,-3.9163299,21.1709,-1
404,405,1580696459824,1.8399999,0.26549998,11.7994995,2.12698,-4.025218,20.204151,-1
405,406,1580696459835,1.1039,0.1047,10.6382,1.6428436999999998,-4.184605,18.984947000000002,-1
406,407,1580696459845,0.6784,-0.3791,9.3397,1.3146274,-4.6274557000000005,17.760983,-1
407,408,1580696459855,0.1838,-0.99789995,8.033,0.7441658,-5.2415876,16.490753,-1
408,409,1580696459865,-0.69549996,-1.7875999,6.8471,-0.59417385,-6.071905999999999,15.302512,-1
409,410,1580696459875,-2.1311998,-2.6231,5.994,-2.2384925,-6.724833500000001,14.685613,-1
410,411,1580696459885,-3.8511998999999997,-3.3077998,5.3957996,-3.8176214999999996,-7.0611714999999995,14.201236999999999,-1
411,412,1580696459896,-5.3838,-3.685,4.8761997,-5.0940566,-7.194327400000001,13.820453,-1
412,413,1580696459906,-6.6116,-3.9013998999999995,4.5042,-6.100215400000001,-7.111842,13.414779999999999,-1
413,414,1580696459916,-7.5224,-3.9276,3.9659998,-6.817135,-7.065653299999999,12.793636,-1
414,415,1580696459926,-8.2403,-4.0762,3.2029,-7.234004,-7.0901312999999995,11.99723,-1
415,416,1580696459937,-8.408,-4.2267,2.4115999,-7.0214753,-6.884038400000001,11.413936,-1
416,417,1580696459947,-8.0528,-4.0513,1.8086,-6.528298400000001,-6.5436214999999995,10.893445,-1
417,418,1580696459957,-7.572,-3.9696,1.3642,-6.2162194,-6.346645400000001,10.610049,-1
418,419,1580696459967,-7.3592997,-3.8451998,1.0488,-6.0454360000000005,-6.0338,10.346342,-1
419,420,1580696459977,-7.1934,-3.8098998,0.8128,-6.1511445,-5.9518227999999995,10.042709,-1
420,421,1580696459988,-7.3542,-3.8776,0.401,-6.6094522,-5.927306,9.482610000000001,-1
421,422,1580696459998,-7.7858,-4.0520997,-0.20619999,-7.031732000000001,-5.9283595,8.87433,-1
422,423,1580696460008,-8.1816,-4.1882,-0.9001,-7.4482465,-5.7826867,7.8324394,-1
423,424,1580696460018,-8.5515995,-4.2357,-2.0328999,-7.854878,-5.6503544,6.553246,-1
424,425,1580696460028,-8.8452,-4.3167,-3.1230998,-7.6752076,-5.462447599999999,5.500487000000001,-1
425,426,1580696460039,-8.6394,-4.3052,-4.1991,-6.9986440000000005,-5.059264,4.6274076,-1
426,427,1580696460049,-7.9199996,-4.0748,-5.093899700000001,-6.0085370000000005,-4.558052,4.3860335,-1
427,428,1580696460059,-6.8995,-3.7145998,-5.3567,-5.0033449999999995,-3.8976262000000004,4.2913003,-1
428,429,1580696460069,-5.8415,-3.1826,-5.4589996,-3.8636956,-3.2194830000000003,4.4684134,-1
429,430,1580696460079,-4.6499,-2.6181,-5.2939,-2.8001816,-2.5648413,5.149066,-1
430,431,1580696460089,-3.5389998,-2.0332,-4.626,-2.1358099999999998,-2.0623558,5.726643,-1
431,432,1580696460099,-2.8289999999999997,-1.604,-4.0541,-2.1859252000000002,-1.9170468999999997,6.1241384000000005,-1
432,433,1580696460110,-3.2057998,-1.8256999,-3.4645,-2.5662396,-2.1420922000000004,6.327119000000001,-1
433,434,1580696460120,-3.3302,-1.9354999,-3.6727998,-2.6846566000000003,-2.1718185,6.1153846,-1
434,435,1580696460130,-3.0563998,-2.0588,-4.3215,-2.4099555,-2.206841,5.4702910000000005,-1
435,436,1580696460140,-3.0563998,-2.0588,-4.3215,-1.9436418000000002,-2.0154006,4.7578535,-1
436,437,1580696460150,-2.5849,-1.9534999,-5.0382,-1.1910484,-1.6600053,4.51647,-1
437,438,1580696460160,-1.8368,-1.6601,-5.2837996,-0.16111062,-1.2040057,4.5697746,-1
438,439,1580696460170,-0.0132,-0.9716,-4.8719997,0.6323373999999999,-0.8888809000000001,4.924116000000001,-1
439,440,1580696460180,0.49539998,-0.84129995,-4.4213,1.1383855,-0.73052835,5.380509,-1
440,441,1580696460190,0.49539998,-0.84129995,-4.4213,1.7029191000000004,-0.5202313000000001,5.7209067000000005,-1
441,442,1580696460200,0.97889996,-0.6881,-4.118,2.044811,-0.31956846,5.8923025,-1
442,443,1580696460210,1.8087,-0.33269998,-3.6301,2.394987,-0.24623886,6.1704419999999995,-1
443,444,1580696460220,1.8087,-0.33269998,-3.6301,2.4942889999999998,-0.1804845,6.678041499999999,-1
444,445,1580696460230,2.1079,-0.0394,-2.5439,2.6714884999999997,0.020551826999999998,7.257179700000001,-1
445,446,1580696460240,2.4066,0.092099994,-2.1324,2.9647112,0.13359645,7.667028999999999,-1
446,447,1580696460250,2.4066,0.092099994,-2.1324,3.27296,0.19566374,8.018746,-1
447,448,1580696460260,3.1064,0.3136,-1.6701,3.6852894,0.30756873,8.1255665,-1
448,449,1580696460270,3.4436998,0.4779,-1.7278999,4.0401864000000005,0.46517423,8.065204,-1
449,450,1580696460281,3.8486,0.57129997,-1.6391,4.4438205,0.5351902,8.1540575,-1
450,451,1580696460291,4.0915,0.63839996,-1.3450999,4.6922809999999995,0.55592406,8.449864999999999,-1
451,452,1580696460301,4.0915,0.63839996,-1.3450999,4.8559775,0.57927233,8.805137,-1
452,453,1580696460312,4.3368,0.7888,-0.532,4.8908366999999995,0.60485196,9.261165,-1
453,454,1580696460322,4.1577997,0.8236,0.2527,4.6952214,0.5925935999999999,10.049325999999999,-1
454,455,1580696460332,3.7844,0.8135,0.8321,4.3178563,0.529176,10.62834,-1
455,456,1580696460342,3.5354,0.74009997,0.89229995,4.0255246,0.39653727,10.622518,-1
456,457,1580696460352,3.4383,0.6903,0.71739995,4.0457220000000005,0.34346259999999995,10.448641,-1
457,458,1580696460362,3.5281,0.7086,0.5624,4.107665,0.34186327,10.324306,-1
458,459,1580696460373,3.4817,0.5762,0.3288,4.0980306,0.22947945,10.119313,-1
459,460,1580696460382,3.3644998,0.40739998,0.2911,3.9881656000000003,0.05563167,10.084023,-1
460,461,1580696460392,3.1306,0.45119998,0.3608,3.7165098,0.07270712,10.203522999999999,-1
461,462,1580696460402,2.8569,0.40379998,0.695,3.4133272000000003,-0.007661445500000001,10.543327,-1
462,463,1580696460412,2.3824,0.38979998,0.9801,2.9117324,-0.081096396,10.837076,-1
463,464,1580696460422,2.0074,0.28689998,1.3435999,2.4951987,-0.21791066,11.221297999999999,d
464,465,1580696460432,1.7289,0.2289,1.5109,2.2967672,-0.27015212,11.282953,-1
465,466,1580696460443,1.5561,0.1344,1.3348,2.1688786,-0.36036566,11.125252,-1
466,467,1580696460453,1.5561,0.1344,1.3348,2.045989,-0.5133839,10.723025999999999,-1
467,468,1580696460463,1.4469999,-0.0765,0.62909997,2.0700363999999998,-0.5719748,10.377725,-1
468,469,1580696460473,1.5079,-0.0312,0.46269998,2.1291158,-0.52865887,10.249931,-1
469,470,1580696460483,1.4211,0.0039999996999999995,0.43359998,1.9969366999999998,-0.4719929,10.225569,-1
470,471,1580696460493,1.2593,0.0409,0.35529998,1.8737884999999999,-0.46088383,10.111078,-1
471,472,1580696460503,1.1915,0.0413,0.31599998,1.8044716,-0.46621809999999997,10.168606,-1
472,473,1580696460513,1.0704,-0.0128999995,0.5022,1.6053792,-0.55683386,10.340145,-1
473,474,1580696460524,0.85279995,-0.0861,0.551,1.3815597,-0.6194854000000001,10.28435,-1
474,475,1580696460534,0.6439,-0.1916,0.47219998,1.1801786,-0.7338994000000001,10.2620945,-1
475,476,1580696460544,0.42200000000000004,-0.2906,0.4033,0.919565,-0.78389037,10.110082,-1
476,477,1580696460554,0.2671,-0.2262,0.2166,0.93671703,-0.6452661,9.915462,-1
477,478,1580696460565,0.50339997,0.0026,0.0299,1.2320274,-0.3886843,9.778169,-1
478,479,1580696460575,0.7813,0.2497,-0.0392,1.4902948,-0.14727214,9.771780999999999,-1
479,480,1580696460585,0.99979997,0.3642,0.028999999999999998,1.6907564,-0.06136818,9.782850999999999,-1
480,481,1580696460595,1.1212,0.4386,-0.020299999,1.7145262,-0.039092526,9.792237,-1
481,482,1580696460605,1.0781,0.4267,0.028199999,1.4894806999999999,-0.06259401,9.783475,-1
482,483,1580696460615,0.7929999999999999,0.40699998,-0.0016999998999999999,1.2632096000000002,-0.09316318,9.785198,-1
483,484,1580696460625,0.55869997,0.3987,0.027099999,1.0674404,-0.07868304,9.823889,-1
484,485,1580696460636,0.4615,0.4594,0.0854,1.0449636999999998,-0.0007374141000000001,10.022943,-1
485,486,1580696460646,0.5179,0.47079998,0.34,1.1149893,-0.0034476504999999998,10.32376,-1
486,487,1580696460656,0.5886,0.45069999,0.63409996,1.174107,-0.08918881,10.504607,-1
487,488,1580696460666,0.6267,0.3884,0.7321,1.2531443000000002,-0.14028107,10.613104,-1
488,489,1580696460676,0.77239996,0.2853,0.9084,1.493388,-0.17250702,10.856881,-1
489,490,1580696460686,1.0768,0.31,1.1631,1.7527856,-0.06536171,11.044424000000001,-1
490,491,1580696460697,1.2128,0.4445,1.2409999,1.6569791,-0.05671385,11.009995,-1
491,492,1580696460707,1.0435,0.3646,1.2498,1.4912238000000002,-0.15052824,11.161731,-1
492,493,1580696460717,0.97349995,0.3051,1.4449999,1.4903523,-0.15230954,11.320217,-1
493,494,1580696460727,0.95059997,0.23600000000000002,1.7579999,1.3196648000000002,-0.26349628,12.0784025,-1
494,495,1580696460737,0.79789996,0.1876,2.4143999,1.2177006000000001,-0.2731784,12.555731,-1
495,496,1580696460747,0.77239996,0.2166,2.9236,1.2800074,-0.19705239,12.90808,-1
496,497,1580696460758,0.84489995,0.29029998,3.2366,1.4196659,-0.14326903,13.38352,-1
497,498,1580696460768,1.0149,0.3208,3.6671,1.5685756000000002,-0.031852458,13.821323999999999,-1
498,499,1580696460778,1.1671,0.4163,4.1171,1.6242839,-0.008925584,14.317229999999999,-1
499,500,1580696460788,1.2167,0.40989998,4.6059,1.52548,-0.010036494,14.706221,-1
500,501,1580696460798,1.1258,0.3881,4.957,1.3565260000000001,-0.11627201,14.909384,-1
501,502,1580696460809,0.9191,0.155,5.1601996,1.0346304,-0.29893044,15.025464000000001,-1
502,503,1580696460819,0.6813,0.0033999997999999997,5.2268,0.9519346,-0.408288,15.034533499999998,-1
503,504,1580696460829,0.6828,-0.1502,5.2144,0.87453485,-0.4905911,14.902410999999999,-1
504,505,1580696460839,0.5721,-0.2782,5.0650997,0.58287317,-0.46638092,14.726716,-1
505,506,1580696460849,0.3502,-0.3396,4.9063,0.38205713,-0.46806642,14.514014000000001,-1
506,507,1580696460859,0.1055,-0.42139998,4.6013,0.044254426,-0.40042543,13.921564000000002,-1
507,508,1580696460869,-0.14989999,-0.47379997,4.1011,-0.26904124,-0.4220882,13.495999999999999,-1
508,509,1580696460879,-0.4247,-0.601,3.6806,-0.5144181,-0.41955033,13.213388,-1
509,510,1580696460889,-0.6798,-0.71279997,3.33,-0.6040571,-0.41389045,12.876937,-1
510,511,1580696460899,-0.71059996,-0.80789995,3.0005999,-0.50307924,-0.23707385,12.537831,-1
511,512,1580696460909,-0.5847,-0.6885,2.6822999,-0.5847119000000001,0.089054726,12.32514,-1
512,513,1580696460919,-0.6724,-0.49929997,2.4831,-0.5767248,0.4477732,11.900677,-1
513,514,1580696460929,-0.63159996,-0.32909998,2.1087,-0.41997170000000006,0.5885331,11.532248,-1
514,515,1580696460939,-0.4132,-0.25669998,1.6669999,-0.2898708,0.7793222,10.961679,-1
515,516,1580696460949,-0.3019,-0.21169999,1.1970999,-0.28178796,0.8770631,10.390998,-1
516,517,1580696460960,-0.26819998,-0.23269999,0.63989997,-0.15958789999999998,1.0676703,9.961326,-1
517,518,1580696460970,0.2113,-0.0335,-0.0801,0.16700035,1.2790112,9.646832,-1
518,519,1580696460980,0.2113,-0.0335,-0.0801,0.37015316,1.3724139,9.479296000000001,-1
519,520,1580696460990,0.4588,0.1309,-0.17199999,0.36941573,1.612514,9.537753,-1
520,521,1580696461000,0.5065,0.2411,0.1344,0.38633797,1.8069136000000001,9.832536,-1
521,522,1580696461010,0.1504,0.4051,0.127,-0.025474306000000002,2.0371783,9.805261999999999,-1
522,523,1580696461020,-0.21229999,0.3234,-0.0265,-0.4300465,2.0301970000000003,9.638424,-1
523,524,1580696461031,-0.3363,-0.008599999,-0.5022,-0.58085245,1.7753963,9.149605000000001,-1
524,525,1580696461041,-0.1752,-0.2082,-1.0452,-0.44133756,1.6577741000000001,8.594466,-1
525,526,1580696461051,0.1892,-0.3768,-1.4405999,-0.10424355,1.5626668,8.170376,-1
526,527,1580696461061,0.19829999,-0.40879998,-1.5036,-0.123521656,1.6000067,8.101788,-1
527,528,1580696461071,0.0066,-0.5071,-1.4993,-0.34838507,1.5705771000000002,8.0838785,-1
528,529,1580696461081,-0.18159999,-0.5963,-1.4862,-0.6006765000000001,1.5239956000000001,8.091330000000001,-1
529,530,1580696461091,-0.32639998,-0.634,-1.6884999,-0.7977863000000001,1.536886,7.876817999999999,-1
530,531,1580696461102,-0.5248,-0.5467,-1.9683,-1.0582945,1.6804519,7.5766425,-1
531,532,1580696461112,-0.3712,-0.50299996,-2.3648,-0.89931005,1.7868023000000002,7.089509,-1
532,533,1580696461122,0.0265,-0.53029996,-2.6332998,-0.521821,1.7797441000000003,6.8366814,-1
533,534,1580696461132,0.3191,-0.7438,-2.7842,-0.32336086,1.6521907,6.7160516,-1
534,535,1580696461143,0.3019,-0.83889997,-2.8174999,-0.38609853,1.6165458000000001,6.690634700000001,-1
535,536,1580696461153,0.2783,-0.80609995,-2.5469999999999997,-0.39492834,1.7138653999999998,7.0154895999999995,-1
536,537,1580696461163,0.32709998,-0.8724,-2.1488,-0.35827792,1.6876726999999998,7.303684700000001,-1
537,538,1580696461173,0.17639999,-0.8458,-2.0727,-0.6039613,1.8273792000000002,7.334511999999999,-1
538,539,1580696461183,0.057299998,-0.8792,-2.2289,-0.5627810999999999,1.7694683,7.0609894,-1
539,540,1580696461193,0.2583,-1.0932,-2.5872998,-0.312156,1.6825013,6.5316215,-1
540,541,1580696461203,0.4969,-1.1925,-3.3732,-0.14171758,1.6860543000000001,5.796391000000001,-1
541,542,1580696461215,0.3956,-1.3469,-4.1171,-0.25074953,1.6319932,5.1057596,-1
542,543,1580696461225,0.0986,-1.3091999,-4.4888997,-0.7065577,1.934266,4.8245177,-1
543,544,1580696461235,-0.3412,-1.1462,-4.3154,-1.3533273000000001,2.1190984,5.200656400000001,-1
544,545,1580696461245,-0.3412,-1.1462,-4.3154,-2.051266,2.2427444,5.4302793,-1
545,546,1580696461256,-1.8326,-0.9791,-3.6757998,-2.5453331,2.3083457999999997,5.648209,-1
546,547,1580696461266,-1.9928,-1.0174,-3.5630998999999997,-2.4809387000000003,2.297792,5.550047,-1
547,548,1580696461276,-1.7255,-1.0766,-3.7740998,-1.9042236000000001,2.3404662999999997,5.405437,-1
548,549,1580696461286,-0.9235,-1.0177,-3.682,-0.9118844000000002,2.4647443,5.836249400000001,-1
549,550,1580696461296,-0.0963,-0.8422,-3.0440998,-0.5325854,2.7700722,6.4405847000000005,-1
550,551,1580696461306,0.0945,-0.34919998,-2.2536,-0.4527244000000001,3.323985,7.428844000000001,-1
551,552,1580696461316,0.1396,-0.0821,-1.4363999,-0.40499359999999995,3.38634,8.109238000000001,-1
552,553,1580696461327,0.166,-0.0887,-1.0119,-0.47180140000000004,3.3476303,8.248897,-1
553,554,1580696461337,0.0581,-0.17029999,-0.9285,-0.61354774,3.299727,8.216000000000001,-1
554,555,1580696461347,-0.0985,-0.2103,-0.96059996,-0.7295132,3.2649633999999996,8.235192,-1
555,556,1580696461358,-0.233,-0.2541,-0.8935,-0.80425066,3.3542671000000004,8.357871000000001,-1
556,557,1580696461368,-0.2739,-0.1532,-0.74719995,-0.7071035,3.5428343,8.5769205,-1
557,558,1580696461379,-0.162,-0.0155,-0.5216,-0.49461335,3.6947703,8.681356,-1
558,559,1580696461389,0.027999998999999998,0.1295,-0.46159998,-0.32844618,3.9125566,8.500623,-1
559,560,1580696461399,0.1743,0.30339998,-0.6264,-0.06216305,3.9930592000000003,8.467564,-1
560,561,1580696461409,0.42769998,0.36319998,-0.6254,0.062105592,4.157991,8.378432,-1
561,562,1580696461419,0.5031,0.5067,-0.7338,0.18930474,4.244067,8.219811,-1
562,563,1580696461430,0.6166,0.53929996,-0.8642,0.22109973,4.1179214,8.14608,-1
563,564,1580696461440,0.5277,0.2501,-0.8278,0.07840532,3.9666462,8.248283,-1
564,565,1580696461450,0.3532,0.1301,-0.6307,-0.11604217,3.8529599,8.443067,-1
565,566,1580696461460,-0.1193,0.033,-0.2487,-0.68670493,3.7501721,8.895178,-1
566,567,1580696461471,-0.5317,-0.0115,0.0436,-1.0572603999999999,3.7114148,9.141579,-1
567,568,1580696461481,-0.569,-0.092999995,0.119399995,-1.0152948,3.591906,9.218289,-1
568,569,1580696461491,-0.3514,-0.0661,0.1361,-0.8214697,3.6375587,9.218844,-1
569,570,1580696461501,0.0622,0.088599995,0.22129999,-0.31359252,3.8018775000000002,9.376392,-1
570,571,1580696461511,0.4689,0.17729999,0.6489,-0.014317326000000002,3.8665879000000003,9.734967999999999,-1
571,572,1580696461521,0.68579996,0.267,0.9686,0.24560678,3.9350332999999997,10.091311,-1
572,573,1580696461532,0.71099997,0.2157,1.0153999,0.19271408,3.8653428999999995,10.087289,-1
573,574,1580696461542,0.71099997,0.2157,1.0153999,0.044101197,3.7827813999999997,9.868766,-1
574,575,1580696461552,0.40489998,-0.046,0.34299999999999997,-0.18335754,3.6030915,9.382905000000001,-1
575,576,1580696461562,0.0709,-0.1943,0.1617,-0.5956965,3.4594395,9.187443,-1
576,577,1580696461572,-0.1874,-0.29479998,0.0787,-0.76180625,3.3935703999999998,9.17009,-1
577,578,1580696461583,-0.28239998,-0.2977,0.0547,-0.8436113000000001,3.422272,9.108913000000001,-1
578,579,1580696461593,-0.2525,-0.2619,-0.0673,-0.73952097,3.4600525,9.000437,-1
579,580,1580696461603,-0.114999995,-0.24399999,-0.0429,-0.5995176999999999,3.5056667,9.048167,-1
580,581,1580696461613,0.0539,-0.1643,0.0881,-0.42687657,3.6398568,9.253799,-1
581,582,1580696461623,0.1797,-0.021499999,0.2865,-0.38380012,3.7715285000000005,9.303475,-1
582,583,1580696461633,0.1391,-0.0122,0.131,-0.49179775,3.7249086000000005,9.085124,-1
583,584,1580696461644,0.0775,-0.0398,-0.024899999,-0.53474015,3.7075267,9.032499000000001,-1
584,585,1580696461654,0.0539,0.0011999999,0.0643,-0.6406405,3.724468,9.155322,-1
585,586,1580696461664,-0.18339999,-0.0797,0.105799995,-0.9600366,3.6313239999999998,9.178134,-1
586,587,1580696461674,-0.47129998,-0.16749999,0.1591,-1.140205,3.6044419999999997,9.229514,-1
587,588,1580696461684,-0.4143,-0.0928,0.243,-0.93171793,3.7522695,9.237041,-1
588,589,1580696461695,-0.1625,0.0103,0.0822,-0.65018857,3.8227932,8.989958999999999,-1
589,590,1580696461705,0.123799995,0.066,-0.0887,-0.33208537,3.9011888999999997,8.929539,-1
590,591,1580696461715,0.42589998,0.0969,-0.065,-0.20318154,3.9077203000000003,9.020778,d
591,592,1580696461725,0.508,0.1131,0.1628,-0.16662686,3.9283104,9.265322,-1
592,593,1580696461735,0.4378,0.0635,0.41939998,-0.4472656,3.8239615,9.58624,-1
593,594,1580696461745,0.0777,-0.015299999,0.6175,-0.9710595,3.79503,9.592724,-1
594,595,1580696461756,-0.42549998,0.0011,0.4443,-1.2442379,3.8172002,9.388689,-1
595,596,1580696461766,-0.6935,-0.1349,-0.0008,-1.5627146,3.5962824999999996,8.736299,-1
596,597,1580696461776,-0.78279996,-0.2671,-0.46379998,-1.5077055,3.5633763999999997,8.32058,-1
597,598,1580696461786,-0.5399,-0.2677,-0.9547,-1.1387397,3.6255589,7.7982883,-1
598,599,1580696461796,-0.2289,-0.212,-1.2786,-0.92516744,3.639742,7.6692505,-1
599,600,1580696461807,-0.1498,-0.24589999,-1.2983999,-1.1372554,3.6040015,7.7842199999999995,-1
600,601,1580696461817,-0.44,-0.3266,-1.1465,-1.5958982,3.4885434999999996,7.999756,-1
601,602,1580696461827,-0.96349996,-0.4741,-0.907,-2.2150578,3.399891,8.133122,-1
602,603,1580696461838,-1.5422,-0.5704,-0.86429995,-2.7064152000000004,3.167318,7.880840299999999,-1
603,604,1580696461848,-2.0657,-0.8436,-1.1445,-3.4858906000000003,2.8251007,7.6731772,-1
604,605,1580696461858,-2.8474998,-1.1852,-1.3359,-4.084651999999999,2.5567105,7.254910000000001,-1
605,606,1580696461868,-3.3448,-1.412,-1.8007,-4.271438,2.583717,6.789697,-1
606,607,1580696461879,-3.4866998,-1.379,-2.2442,-4.3937817,2.6375005000000002,6.286398,-1
607,608,1580696461889,-3.6283998,-1.3799,-2.7747998,-4.4277596,2.6198504000000002,6.160185,-1
608,609,1580696461899,-3.7113998,-1.6588,-3.4419999999999997,-4.357734,2.0363452,4.940253299999999,-1
609,610,1580696461909,-3.6007998,-2.0069999999999997,-3.9822998,-4.0156317,1.8277814,4.7886143,-1
610,611,1580696461920,-3.1673,-2.4155,-4.0506997,-3.8551052,1.6747249,4.8550773000000005,-1
611,612,1580696461932,-3.1673,-2.4155,-4.0506997,-4.2090545,1.7498262999999998,4.830818700000001,-1
612,613,1580696461942,-4.0841,-2.3583,-4.1082,-4.8773527,1.7666049,4.7471657,-1
613,614,1580696461952,-5.106,-2.1761,-4.617,-6.195475599999999,1.9059857,3.899082,-1
614,615,1580696461962,-6.1937,-2.4634,-5.769,-7.097745,1.3607973,2.4997667999999997,-1
615,616,1580696461972,-6.7893,-3.3142998,-7.3665,-7.551158999999999,0.49009308,0.83450377,-1
616,617,1580696461983,-7.120199700000001,-4.2098,-8.9492,-7.437970599999999,-0.44485226,-0.5823465,-1
617,618,1580696461993,-6.5327,-5.1414,-9.9029,-6.614259700000001,-1.2232744,-1.207463,-1
618,619,1580696462003,-5.9135,-5.6709,-9.9389,-6.003413,-1.4147049999999999,-0.9940150999999999,-1
619,620,1580696462013,-5.2556996,-5.3128,-8.9782,-5.135457499999999,-0.8914761999999998,0.11438538,-1
620,621,1580696462023,-4.7177,-4.2762,-7.7447,-4.4597945,0.3297103,1.5302492,-1
621,622,1580696462034,-4.3722997,-3.3439,-6.9069,-3.9047226999999998,0.93935066,2.2130852,-1
622,623,1580696462044,-3.5647,-2.9712,-6.4579,-3.1348338,1.0375896,2.6458132,-1
623,624,1580696462054,-2.4991999,-2.8836,-5.6219,-1.5562599,0.7155024,3.9786269999999995,-1
624,625,1580696462064,-0.5988,-3.3502,-3.9692998,0.81754327,0.25676376,5.9845559999999995,-1
625,626,1580696462074,1.7026999,-3.07,-1.9290999,2.203202,0.44448835,7.226591,-1
626,627,1580696462084,3.3279,-2.6248999,-0.43719998,4.265031,0.77151716,9.21148,-1
627,628,1580696462095,3.6501,-2.1659,0.3847,4.0948606,1.2292311000000002,9.797141,-1
628,629,1580696462106,2.8988,-1.4842,0.4271,3.0970435000000003,1.5095825,9.646947,-1
629,630,1580696462116,1.7400999,-1.3191,-0.012999999,1.7692096999999998,1.2043504999999999,9.074685,-1
630,631,1580696462126,0.52849996,-1.8915999,-0.72139996,1.1017542,0.05291186,9.169236999999999,-1
631,632,1580696462136,0.7644,-2.4708997999999998,0.46299999999999997,2.3125691,-0.32791942,11.605117,-1
632,633,1580696462146,2.5163,-2.36,3.2045999,5.1000996,0.028902802999999998,14.962822000000001,-1
633,634,1580696462156,4.8465,-1.8074,5.8717,7.727639999999999,0.3712066,17.26976,-1
634,635,1580696462167,7.3785,-1.2135,7.9708996,9.848003,0.9905961999999999,18.328638,-1
635,636,1580696462177,9.3798,-0.27339998,8.6192,11.162257,1.7621419999999999,17.775282,-1
636,637,1580696462187,10.5485,0.6746,7.9273,11.466521,2.0625951000000002,17.553568,-1
637,638,1580696462197,10.7727995,1.028,7.869,11.035575,1.7971644,18.041603,-1
638,639,1580696462207,10.2671995,0.9306,8.4165,10.729462,1.7115861,18.338635999999997,-1
639,640,1580696462217,9.7972,0.8592,9.3532,10.367966000000001,1.4231614,19.49315,-1
640,641,1580696462227,9.902599,0.7606,10.099299,10.510335000000001,1.2520717,19.936642000000003,-1
641,642,1580696462238,10.0841,0.6495,9.8785,10.776656,0.77970535,18.92466,-1
642,643,1580696462248,10.3041,0.39909998,8.9439,11.1826935,0.65877897,18.068552,-1
643,644,1580696462258,10.7332,0.3803,8.088799,11.4176035,0.7739975,17.0292,-1
644,645,1580696462268,10.9285,0.5717,6.9884996,11.452395,1.1515343999999998,15.839512,-1
645,646,1580696462279,10.925,1.0085,5.7995996,10.904095,1.1482974,14.406610500000001,-1
646,647,1580696462289,10.4677,0.93619996,4.6008,10.158453999999999,0.8784613000000001,13.224133499999999,-1
647,648,1580696462299,9.754399000000001,0.6666,3.4127998,9.673781,0.6149843,12.189695,-1
648,649,1580696462309,9.2858,0.4067,2.3827,9.269630000000001,0.23731329,11.502397,-1
649,650,1580696462319,8.8658,0.015,1.6968,9.082548,-0.092397034,10.855291000000001,-1
650,651,1580696462330,8.6558,-0.2988,1.0507,9.232244,-0.31467470000000003,10.490739999999999,-1
651,652,1580696462340,8.7795,-0.53069997,0.6895,9.311884,-0.38853106,10.444657000000001,-1
652,653,1580696462350,8.5467,-0.4312,0.65279996,9.068000999999999,-0.22821529999999998,10.454808,-1
653,654,1580696462360,7.9115996,-0.34719998,0.7509,8.4291315,-0.15559438,10.553459,-1
654,655,1580696462370,7.9115996,-0.34719998,0.7509,7.6786265,-0.28929618,10.37464,-1
655,656,1580696462380,6.1464,-0.7477,-0.2698,6.656331,-0.5833329,9.535138,-1
656,657,1580696462391,5.7341,-1.1032,-0.9758,6.251739,-0.93703306,8.825123,-1
657,658,1580696462401,5.2149997,-1.3577,-1.8872,5.7427993,-1.1705253,7.910729400000001,-1
658,659,1580696462411,4.8768,-1.5257,-2.9159,5.415828,-1.3337907,6.880389699999999,-1
659,660,1580696462421,4.887,-1.5891998999999999,-3.4541,5.4392624000000005,-1.3457137,6.331303599999999,-1
660,661,1580696462431,4.6984997,-1.3244,-3.3451998,5.2767444,-1.134459,6.4469724,-1
661,662,1580696462441,3.9192,-1.2760999,-3.0017,4.516049,-1.1186094,6.798738,-1
662,663,1580696462451,3.9192,-1.2760999,-3.0017,3.0618488999999998,-1.399047,7.217503,-1
663,664,1580696462462,1.0264,-1.9566,-2.0798,1.6408421999999998,-1.8901648999999998,7.718638400000001,-1
664,665,1580696462472,0.1424,-2.3288999,-1.6074,0.7797915,-2.3124635,8.189195,-1
665,666,1580696462482,-0.2685,-2.5375,-1.2217,0.42409929999999996,-2.582118,8.6135235,-1
666,667,1580696462492,-0.089499995,-2.4027,-0.884,0.7087507,-2.4334092000000003,8.986024,-1
667,668,1580696462502,-0.0738,-2.125,-0.4773,0.6872125,-2.2098675,9.497387,-1
668,669,1580696462512,-0.2543,-1.9469,0.292,0.49993804,-2.1340191,10.361205,-1
669,670,1580696462523,-0.7524,-2.0298,1.2185,-0.11416511,-2.3933014999999997,11.233335499999999,-1
670,671,1580696462533,-1.8833,-2.5470998,1.8801999,-1.3063052,-3.0206685,11.745887,-1
671,672,1580696462543,-3.6641998,-3.4169,2.2677999,-3.1019373,-3.9819120000000003,12.07938,-1
672,673,1580696462553,-5.3977,-4.1421,2.5093,-4.421592700000001,-4.5506687,12.263254,-1
673,674,1580696462563,-6.8121996,-4.3484,3.0758997999999997,-6.208586,-4.764508999999999,13.045641999999999,-1
674,675,1580696462573,-7.7261996,-4.1032,3.4768999,-6.698995599999999,-4.461451,13.255604,-1
675,676,1580696462583,-7.8736997,-3.4338,3.5739,-6.6604776,-3.6601980000000003,13.248565,-1
676,677,1580696462593,-7.8078,-3.0196998,3.1985,-6.5135217,-3.4514620000000003,12.606564,-1
677,678,1580696462604,-7.7338,-2.8948,2.4473,-6.49183,-3.3965774,12.051952,-1
678,679,1580696462614,-7.9013,-2.9064,2.1153998,-6.842647599999999,-3.5063756,11.947889,-1
679,680,1580696462624,-8.4137,-3.0456,2.5479998999999998,-7.3613367,-3.6125534,12.508995,-1
680,681,1580696462634,-8.7975,-3.0179,3.1878,-7.5800524000000005,-3.6218812000000007,13.250096,-1
681,682,1580696462644,-8.9902,-2.9968998,4.0352,-7.927776299999999,-3.6028905,14.010485999999998,-1
682,683,1580696462654,-9.5556,-2.8883,4.599,-8.517507,-3.467283,14.446518,-1
683,684,1580696462664,-10.1247,-2.7131,4.8585,-8.918678,-3.3498616,14.561066,-1
684,685,1580696462675,-10.2951,-2.6246998,4.6754,-8.904257000000001,-3.2240702999999997,14.166032000000001,-1
685,686,1580696462685,-10.0848,-2.5002,4.107199700000001,-8.515533999999999,-3.1057490000000003,13.553517999999999,-1
686,687,1580696462695,-9.308,-2.4429,3.6346998,-7.509384599999999,-3.0358093,13.308639999999999,-1
687,688,1580696462705,-8.0603,-2.2057,3.6613,-5.921435400000001,-2.5773199,13.456074,-1
688,689,1580696462715,-6.6577,-1.6824,3.8634,-4.602144200000001,-2.0059962,13.992797,-1
689,690,1580696462726,-5.4683,-1.1395998999999999,4.5937,-3.9475309999999997,-1.5992215,14.702687,-1
690,691,1580696462736,-5.0832996,-0.8583,5.138499700000001,-3.8862970000000003,-1.5063742,14.908176000000001,-1
691,692,1580696462746,-5.1509,-0.89779997,5.1519,-4.090944,-1.6081183000000001,14.70377,-1
692,693,1580696462756,-5.3289,-1.0486,4.783,-4.4426517,-1.7478151000000002,13.710529999999999,-1
693,694,1580696462767,-5.6133,-1.2523999,3.7384998999999994,-4.4737864,-1.8693066000000003,12.880872,-1
694,695,1580696462777,-5.4536,-1.4596,2.8026,-3.7237308,-1.852729,11.969830499999999,-1
695,696,1580696462787,-4.6484,-1.4366,2.1706,-2.6882193,-1.5567195,12.190097,-1
696,697,1580696462797,-3.5203,-1.1707,2.5869,-1.430411,-1.3288777,13.003829,-1
697,698,1580696462807,-2.2751,-1.0404,3.4027998,-0.8314488000000001,-1.2520621,13.667712,-1
698,699,1580696462818,-1.7529999,-1.0051,3.9950997999999998,-0.50446784,-1.3123768999999998,14.050823000000001,-1
699,700,1580696462828,-1.3474,-1.0957,4.3108997,-0.33899024,-1.4310336000000001,14.157479,-1
700,701,1580696462838,-1.1823,-1.296,4.3531,-0.37369657,-1.5538273,13.891513,-1
701,702,1580696462848,-1.1183,-1.4568,3.8671,0.0035338415999999996,-1.5159032,13.2525,-1
702,703,1580696462858,-0.6498,-1.4913,3.3537,0.3560561,-1.5304886,12.760214,-1
703,704,1580696462868,-0.38,-1.6279999,2.9011,0.35734898,-1.6271473,12.552292,-1
704,705,1580696462879,-0.3233,-1.8267,2.7631,0.52658075,-1.7970973999999997,12.509646,-1
705,706,1580696462889,-0.1292,-2.0808,2.7038999,0.66935176,-1.8210586,12.335923,-1
706,707,1580696462899,0.0994,-2.1829,2.4878,0.94571924,-1.8050556,11.99271,-1
707,708,1580696462909,0.44979998,-2.2416,2.1051,1.1813949,-1.6099378999999998,11.605596,-1
708,709,1580696462919,0.75259995,-2.1002998,1.7816999,1.7643639,-1.106581,11.487141000000001,-1
709,710,1580696462929,1.3615999,-1.7205,1.6947999,2.2348917,-0.80523705,11.8902,-1
710,711,1580696462939,1.9108,-1.5059999,2.0994,2.409448,-0.64887655,12.803338,-1
711,712,1580696462950,2.155,-1.423,3.0158,2.5572470000000003,-0.49660529999999997,13.232235000000001,-1
712,713,1580696462960,2.5860000000000003,-1.3334,2.9378998,2.7771783,-0.32175198,12.702552,-1
713,714,1580696462971,2.7976,-1.1789,1.4945998999999999,2.9833380000000003,-0.013541605,11.236208999999999,-1
714,715,1580696462981,2.7976,-1.1789,1.4945998999999999,3.1781208999999997,0.39443037,9.964122,-1
715,716,1580696462991,2.8339,-0.7632,-0.5767,2.9224297999999997,0.8180795999999999,8.963604,-1
716,717,1580696463001,2.475,-0.7173,-1.2566998999999999,2.620789,0.9717011000000001,8.416864,-1
717,718,1580696463011,2.2624,-0.7719,-1.6313,2.3293476,1.0653719,7.9652696,-1
718,719,1580696463021,2.0132,-0.93829995,-1.9455999,2.1193185000000003,1.0504223999999998,7.670840299999999,-1
719,720,1580696463031,2.1759999,-0.97309995,-2.3271,2.365385,1.1892479999999999,7.217283,-1
720,721,1580696463041,2.6652,-0.8828,-2.2373,2.7673237,1.3873153999999999,7.308300999999999,-1
721,722,1580696463052,3.0214,-0.7619,-2.0992,3.1201522,1.6272143000000001,7.427666,-1
722,723,1580696463062,3.2777,-0.624,-1.9612999,3.4115267,1.9200540000000001,7.514518300000001,-1
723,724,1580696463072,3.429,-0.5243,-2.0967999,3.5286417,2.1388361000000002,7.2984176,-1
724,725,1580696463082,3.4961,-0.46539998,-2.5736,3.5197446000000006,2.3051757999999998,6.691851,-1
725,726,1580696463092,3.2760000000000002,-0.5155,-3.2640998,3.2289162,2.3421326000000002,6.0340395,-1
726,727,1580696463103,2.8841,-0.6719,-3.7377,2.6715077999999997,2.2860317,5.3377676,-1
727,728,1580696463112,2.4243999,-0.79819995,-4.4549,2.3917212,2.294507,4.860201,-1
728,729,1580696463122,2.2163,-0.9226,-5.2594,2.143883,2.286932,3.8271889999999997,-1
729,730,1580696463132,2.174,-1.099,-6.0155997,2.0904734,2.2160634999999997,3.2266176,-1
730,731,1580696463142,2.0732,-1.2929,-6.392299700000001,1.9372827000000001,2.152397,2.7324447999999997,-1
731,732,1580696463152,2.0713,-1.1794,-6.6159,1.9549136000000003,2.344115,2.5416557999999996,-1
732,733,1580696463163,2.1677,-1.1321,-6.7746997,2.0185418,2.4312544,2.3261297,-1
733,734,1580696463173,2.1457,-1.301,-6.9855,1.8571919,2.1966896,2.0724207999999997,-1
734,735,1580696463183,1.9042,-1.7478,-7.1984997,1.6869258000000003,1.9292285,1.8999331000000002,-1
735,736,1580696463193,1.7039,-2.2489,-7.432699700000001,1.4176738000000002,1.26139,1.5949214,-1
736,737,1580696463203,1.6917,-2.8523,-7.473,1.4545158,0.7294845,1.6528035,-1
737,738,1580696463213,1.6853,-3.2421,-7.2026,1.3463266999999999,0.55684346,2.062059,-1
738,739,1580696463223,1.3934,-3.0755,-6.611399700000001,1.0671723999999998,0.8596142,2.5088646,-1
739,740,1580696463234,1.0365,-2.4975,-6.382999999999999,0.74182904,1.6425182,2.5556092,-1
740,741,1580696463244,0.96809995,-1.9403,-6.8561997,0.6794935999999999,2.164933,1.7542028000000003,-1
741,742,1580696463254,0.6559,-1.5632,-7.8826,0.32335132,2.549662,0.71046495,-1
742,743,1580696463264,0.3179,-1.3074,-8.8187,0.16195339,2.7775707,-0.30681217,-1
743,744,1580696463274,0.44299999999999995,-1.2616,-10.0215,0.5107215,2.7539737,-1.6439066999999998,-1
744,745,1580696463284,0.8637,-1.4022,-11.2772,0.98875743,2.7278287,-2.8064737,-1
745,746,1580696463294,1.31,-1.4297,-12.1571,1.5957258,2.649778,-3.5927486000000006,-1
746,747,1580696463305,1.9252,-1.6431999,-12.7713995,2.0358856,2.4518445,-3.9006238,-1
747,748,1580696463315,1.7129999,-1.7221999,-12.5348,1.5303067,2.2792609,-3.2833697999999996,-1
748,749,1580696463325,0.9327,-2.0951,-11.4485,0.57231957,1.7458328,-1.7499220000000002,-1
749,750,1580696463335,-0.0977,-2.3429,-10.2657995,-0.73004955,1.5475354,-0.8949908999999999,-1
750,751,1580696463345,-1.4666,-2.5586,-9.6413,-1.6653876,1.1150372,-0.36761528,-1
751,752,1580696463355,-2.27,-2.9824998,-8.9249,-2.0551925,0.59353215,0.5044392,-1
752,753,1580696463365,-2.1808999,-3.1604,-8.4361,-1.612581,0.46243528,0.75629956,-1
753,754,1580696463376,-1.2422999,-3.2335,-8.222000000000001,-0.05404192,0.13448709,1.2726427,-1
754,755,1580696463386,0.080699995,-3.3537,-7.607199700000001,0.9842371999999999,-0.013905523000000001,1.9644328000000002,-1
755,756,1580696463396,1.1313,-3.1690998,-6.7226,1.8625261999999998,0.12975615,3.0692613,-1
756,757,1580696463406,1.3094,-2.9445,-5.8813996,1.3687938,-0.100163825,4.008630999999999,-1
757,758,1580696463416,0.3676,-3.2164998,-4.932699700000001,0.22425051,-0.75512165,4.917604,-1
758,759,1580696463427,-1.5035,-4.0264997000000005,-3.7924,-2.3926501,-2.4576290000000003,6.715669,-1
759,760,1580696463437,-3.2401,-5.201699700000001,-2.5081,-3.1953304,-3.9781672999999995,7.541266,-1
760,761,1580696463447,-3.8453,-6.3982997,-1.9923999,-2.6698127,-4.526678599999999,7.625781,-1
761,762,1580696463457,-3.1462,-6.5908,-1.8255999,-1.0386813,-4.453454499999999,8.472706,-1
762,763,1580696463469,-1.4909999,-6.1348996,-0.9033,1.0222954,-3.4855650000000002,9.956738,-1
763,764,1580696463479,0.6971,-4.7957997,0.78349996,3.8747568,-2.3138907000000004,13.055333000000001,-1
764,765,1580696463489,3.4183998,-3.391,4.0621,5.209161,-1.66488,15.967582,-1
765,766,1580696463499,4.1767,-2.6425998,6.5813,3.9987288,-1.9625176,16.817532999999997,-1
766,767,1580696463509,2.6483,-2.8209,7.0579,2.0086298,-3.4188242,16.499249,-1
767,768,1580696463520,-0.6105,-4.4733,5.8845,0.3460196,-4.240782299999999,15.651088,-1
768,769,1580696463530,-1.375,-4.7091,5.2037997,-0.44982259999999996,-4.696121,14.972035,-1
769,770,1580696463540,-0.9668,-4.0751,6.1173997,-0.040682275,-4.2994404,15.885413,-1
770,771,1580696463550,0.0991,-3.0558999,8.5679,1.0488998,-3.5233552,18.326426,-1
771,772,1580696463560,0.0991,-3.0558999,8.5679,1.6354791000000002,-2.589626,20.420559,-1
772,773,1580696463570,0.3094,-1.1425999,11.0546,1.1925806,-2.0487375,20.609356,-1
773,774,1580696463580,-0.0137,-1.0097,9.8288,0.98628664,-2.110125,19.536465,-1
774,775,1580696463591,0.2144,-1.0446,7.7778997,1.1902438,-2.3077614,17.464283,-1
775,776,1580696463601,0.2859,-1.1063,5.8638997,1.2333586,-2.5641325,15.322335,-1
776,777,1580696463611,0.5965,-0.96089995,5.9634,1.4974391000000002,-2.5463388,15.612953,-1
777,778,1580696463621,1.4811,0.2435,8.207,2.3343754,-1.5202798,17.825445000000002,-1
778,779,1580696463631,2.2918,1.3450999,10.2295,3.092332,-0.61142164,19.815237,-1
779,780,1580696463642,2.8709998,1.9847,10.8988,3.6172937999999997,-0.136594,20.457773,-1
780,781,1580696463653,2.4454,2.1757,9.9751,2.9798807999999997,-0.121998936,19.234528,-1
781,782,1580696463663,1.6755999,2.0193,8.7123995,2.3583941000000004,-0.33166397,18.220726000000003,-1
782,783,1580696463673,1.3074,1.7157999,7.3673997,1.905976,-0.89488554,16.363163,-1
783,784,1580696463683,1.1365,1.3938999,6.4712996,1.6364943,-1.2904748,15.762542999999999,-1
784,785,1580696463693,0.8504,0.9155,6.1636,1.290015,-1.9852338,15.612254,-1
785,786,1580696463704,0.3915,0.18069999,6.2386,0.54903835,-2.6542217999999997,15.705197,-1
786,787,1580696463714,-0.49969998,-0.044000000000000004,6.3808,-0.18524417,-2.7526712000000004,15.902498000000001,-1
787,788,1580696463724,-0.8577,-0.0265,6.9716997,-0.39422923,-2.7250419999999997,16.542526000000002,-1
788,789,1580696463734,-0.71419996,0.2803,7.0392,-0.1725549,-2.3228161,16.183971,-1
789,790,1580696463744,-0.3479,0.71919996,6.2195,0.26103503,-1.9616939999999998,15.226605,-1
790,791,1580696463755,0.0398,0.9711,5.1510997000000005,0.5718310999999999,-1.8032457999999998,14.022533,-1
791,792,1580696463765,0.4432,0.88009995,3.717,0.82191986,-2.0594637,12.450883000000001,-1
792,793,1580696463775,0.3193,0.6709999999999999,1.9957999,0.40298244,-2.0970812,10.855052,-1
793,794,1580696463785,-0.110199995,0.81939995,1.3428,0.18063773,-1.8316122,11.515391000000001,-1
794,795,1580696463795,0.0195,1.0425,2.7519,0.6082517,-1.5149072000000001,12.739192999999998,-1
795,796,1580696463805,0.75689995,1.5919999999999999,3.7013998,1.6866096999999998,-0.8715852,12.930231,-1
796,797,1580696463815,1.7006999,1.9541998999999999,3.1985,2.5159612,-0.7073334,12.122217,-1
797,798,1580696463826,2.369,2.0212998,2.3488998,2.844982,-0.73003995,11.4014,-1
798,799,1580696463836,2.5307,1.8655,1.4972999,2.7243814,-0.87894017,10.554369,-1
799,800,1580696463846,2.2243,1.6965,0.9389,2.448282,-1.0954909,10.275598,-1
800,801,1580696463856,1.9231,1.3312,0.6942,1.9491580000000002,-1.5217163999999999,9.975739,-1
801,802,1580696463866,1.3873999,0.9043,0.3998,1.369924,-2.0418327,9.6735325,-1
802,803,1580696463876,0.835,0.294,-0.0037999998,0.9073353999999999,-2.434932,9.176094,-1
803,804,1580696463886,0.22219999,-0.18789999,-0.86039996,0.1478276,-2.9150841,8.194357,-1
804,805,1580696463897,-0.34239998,-0.53709996,-1.6488999,-0.14621869,-2.9929914,7.582139999999999,-1
805,806,1580696463907,-0.45999998,-0.49949998,-2.2591999,0.06834009,-2.7154653,7.172644999999999,-1
806,807,1580696463917,-0.085,-0.24409999,-2.2289999,0.66451544,-2.4044392000000006,7.7438827,-1
807,808,1580696463927,0.55219996,0.1178,-1.4001,1.3814065,-1.8996648999999997,8.596917999999999,d
808,809,1580696463937,1.3012999,0.61289996,-0.7346,2.0962002,-1.5434557,9.0427475,-1
809,810,1580696463947,1.7991999,0.78169996,-0.47,2.2274694,-1.5723298,9.0622635,-1
810,811,1580696463957,1.8648,0.7474,-0.5089,1.9709164000000001,-1.7629752,8.838914,-1
811,812,1580696463968,1.5722,0.5187,-0.71419996,1.2037854,-2.1016588,8.908814999999999,-1
812,813,1580696463978,0.7068,0.16399999,-0.5365,0.30635247,-2.4722145,9.3450575,-1
813,814,1580696463988,-0.3373,-0.2787,0.0633,-0.7361787,-2.797778,10.089674,-1
814,815,1580696463998,-1.0921,-0.452,0.65239996,-1.2027799,-2.8274086,10.226094999999999,-1
815,816,1580696464008,-1.4961,-0.4693,0.6313,-1.2196924999999998,-2.784447,9.71839,-1
816,817,1580696464019,-1.401,-0.4177,0.0685,-0.5666309,-2.5430634,9.351694,-1
817,818,1580696464029,-0.61219996,-0.14109999,-0.18069999,0.4362044,-2.0989869999999997,9.545250999999999,-1
818,819,1580696464039,0.305,0.3089,0.051799998,0.9824174999999999,-1.710954,9.706802,-1
819,820,1580696464049,0.75439996,0.639,0.1485,0.971749,-1.7353749,9.605135,-1
820,821,1580696464059,0.7301,0.5696,0.059499998,0.62701267,-1.7916577,9.838349000000001,-1
821,822,1580696464069,0.4068,0.51019996,0.2942,0.24144088,-1.8713560000000002,10.15811,-1
822,823,1580696464079,0.0341,0.4292,0.617,-0.066961035,-1.9763369999999998,10.327005,-1
823,824,1580696464090,-0.3024,0.3229,0.7818,-0.0853102,-1.9198624,10.332005,-1
824,825,1580696464100,-0.057,0.4305,0.7948,0.18042703,-1.832043,10.348592,-1
825,826,1580696464110,0.2944,0.5047,0.7327,0.5327003,-1.7517607,10.286564,-1
826,827,1580696464120,0.6372,0.65279996,0.94619995,0.8646995000000001,-1.5877484,10.5022135,-1
827,828,1580696464130,0.6372,0.65279996,0.94619995,1.0001441999999998,-1.5232868,10.765929,-1
828,829,1580696464140,0.8096,0.7168,1.3860999,0.96598375,-1.481331,11.295805999999999,-1
829,830,1580696464151,0.58129996,0.6631,2.1863,0.76252455,-1.5608567,11.745896,-1
830,831,1580696464161,0.3392,0.6486,2.6928,0.52342993,-1.5566621,12.252749,-1
831,832,1580696464171,0.3266,0.8136,3.0802999,0.51376694,-1.3761584999999998,12.646239999999999,-1
832,833,1580696464181,0.4195,1.0597,3.1719999999999997,0.60773456,-1.0950695,12.754794,-1
833,834,1580696464191,0.6504,1.203,3.0568,0.9026715,-0.9077472,12.655405,-1
834,835,1580696464201,0.80759996,1.3089,3.2559,0.9972999,-0.7791307,12.843331,-1
835,836,1580696464211,0.5164,1.2859,3.6919999999999997,0.6908517,-0.7805289000000001,13.289447000000001,-1
836,837,1580696464222,-0.0273,1.1458,4.5910997,0.13376884,-0.91297615,14.192645,-1
837,838,1580696464232,-0.4682,1.0504999,5.9621,-0.36130419999999996,-0.9998857,15.566907999999998,-1
838,839,1580696464242,-0.6353,1.0179,7.7243,-0.5502833,-1.0220752,17.328257,-1
839,840,1580696464252,-0.5602,1.128,8.8836,-0.4091116,-0.8286332000000001,18.637968,-1
840,841,1580696464262,-0.1679,1.3478,9.065,0.057767297999999995,-0.50836563,18.573452,-1
841,842,1580696464272,0.2375,1.6493,8.25,0.49993804,-0.09314402,17.702307,-1
842,843,1580696464283,0.6523,1.8614,7.3349,1.0123163,0.26008692,16.87893,-1
843,844,1580696464293,1.1482999,1.8941,7.1173,1.4608173,0.33752498,16.855888,-1
844,845,1580696464303,1.0998,1.5490999,7.3433,1.2181986999999999,0.0049320552,17.114769,-1
845,846,1580696464313,0.5894,1.0668,7.561,0.788516,-0.31795958,17.390810000000002,-1
846,847,1580696464323,0.0918,0.4982,8.083799,0.29917943,-0.71766675,17.889426999999998,-1
847,848,1580696464333,-0.2762,0.116799995,8.0286,0.032427065,-0.9030450000000001,17.522146,-1
848,849,1580696464343,-0.3791,-0.0567,7.3174,-0.049981352,-0.8571912,16.873184,-1
849,850,1580696464354,-0.7499,-0.2622,6.7956,-0.62392896,-0.95693374,16.302254,-1
850,851,1580696464365,-1.7053,-0.6123,5.729,-1.4998332,-1.0812215,14.855103,-1
851,852,1580696464375,-2.2693,-1.0603,4.2455997000000005,-1.6536752000000001,-1.2073194,13.679923,-1
852,853,1580696464385,-2.073,-1.0718,3.5419,-1.2300928999999998,-0.8152543999999999,13.161271,-1
853,854,1580696464395,-1.4317,-0.7854,3.077,-0.38404912,-0.21038328,12.45933,-1
854,855,1580696464405,-0.8527,-0.5754,2.3202,-0.1001734,-0.03814442,11.6802,-1
855,856,1580696464415,-0.69589996,-0.69119996,1.2716,-0.107202776,-0.047615882000000005,10.431650999999999,-1
856,857,1580696464425,-0.7543,-0.97059995,0.305,-0.20631316,-0.17784129999999998,9.696947999999999,-1
857,858,1580696464435,-0.91139996,-1.2619,-0.61689997,-0.320756,-0.16443378,8.539744,-1
858,859,1580696464446,-1.0411999,-1.2981,-1.5924,-0.65139526,0.24271458,7.5015415999999995,-1
859,860,1580696464456,-1.5234,-1.0494,-2.5649,-1.0600758999999997,0.50649816,6.8038134999999995,-1
860,861,1580696464466,-2.0929,-0.96209997,-3.2052999,-1.6876535,0.7521145,6.2820597000000005,-1
861,862,1580696464477,-2.5226,-0.9267,-3.3609,-1.9554787,0.76190203,6.5320816,-1
862,863,1580696464487,-2.6496,-1.1887,-2.8464,-1.8592892,0.45493662,7.2051587,-1
863,864,1580696464497,-2.3611,-1.4722998999999999,-2.2786,-0.9861046,0.14160267,7.935955,-1
864,865,1580696464507,-1.4121,-1.8462,-1.5479,-0.5150598,-0.04981855,7.975919,-1
865,866,1580696464517,-1.0382999,-1.9900999,-1.8188,-0.50548303,-0.10884998,6.854973299999999,-1
866,867,1580696464527,-0.9446,-2.1087,-2.9617999,-0.49093586,-0.20627484,6.1600223,-1
867,868,1580696464537,-0.86789995,-2.2603,-3.6912,-0.5977172,-0.2055949,5.4418674000000005,-1
868,869,1580696464548,-0.98889995,-2.2673,-4.2518,-0.7026599,-0.26470295,5.148999,-1
869,870,1580696464558,-0.992,-2.4094,-4.4196,-0.30637159999999997,-0.39959225,5.2249336,-1
870,871,1580696464569,-0.0614,-2.5521,-4.3045,2.3388286,0.21884918,5.1822686,-1
871,872,1580696464578,2.0584,-1.9749999,-4.3791,3.7142496,0.7091050999999999,4.8266625,-1
872,873,1580696464589,3.7094998,-1.4216,-4.7913,4.1898627,0.7831434,5.017011,-1
873,874,1580696464599,4.0803,-1.4013,-4.5601997,3.6460532999999997,0.618633,5.4878263,-1
874,875,1580696464609,3.4227,-1.6474999,-3.9743,2.6238153,0.23489034,5.89214,-1
875,876,1580696464619,2.471,-2.0072,-3.6413998999999997,1.4643129,-0.033174057,5.9107,-1
876,877,1580696464629,1.3054999,-2.2518,-3.7345998,-0.10711659,-0.36250129999999997,5.4368872999999995,-1
877,878,1580696464641,0.042799998,-2.5815,-4.1259,-0.7356041,-0.5797799,5.4225698,-1
878,879,1580696464651,-0.977,-3.1862,-4.092,-1.0538701000000001,-0.81833816,5.4332867,-1
879,880,1580696464661,-0.46069998,-3.3249998,-4.6995997,-0.49394298,-0.8821005,4.7994165,-1
880,881,1580696464671,0.6703,-3.0298,-5.0643,0.6919529999999999,-0.5238609000000001,4.417398,-1
881,882,1580696464682,1.2978,-2.4064999,-5.4743,1.3288299,0.23959257,3.9626336,-1
882,883,1580696464692,0.88549995,-2.2749,-5.1955,0.8754926,0.31100679999999997,4.274694,-1
883,884,1580696464702,0.147,-2.2010999,-4.3925,-0.02696829,0.41864052,5.210884,-1
884,885,1580696464712,-0.16699999999999998,-1.9839,-3.7673,-0.34309870000000003,0.63092005,5.820161,-1
885,886,1580696464722,-0.2412,-1.7533,-3.0525,-0.39707357,0.8112513000000001,6.416623599999999,-1
886,887,1580696464732,-0.0327,-1.4067999,-2.3153,-0.07543651,1.2864716,7.2937055,-1
887,888,1580696464743,0.6454,-0.85179996,-1.7701,0.7196013000000001,1.8630337,7.751544,-1
888,889,1580696464753,1.4027,-0.44129997,-1.5827999,1.4913005,2.2418346000000002,7.869885000000001,-1
889,890,1580696464763,1.8235999,-0.35369998,-1.7945,1.8692204,2.3277577999999997,7.5292473,-1
890,891,1580696464773,1.6775,-0.5085,-2.3890000000000002,1.4282371,2.1124902000000003,7.003547,-1
891,892,1580696464784,0.77669996,-0.83489996,-2.3404999,0.32729694,1.812947,7.0705279999999995,-1
892,893,1580696464794,-0.3268,-1.0759,-2.4926999,-0.8654081,1.6818118000000002,6.794189,-1
893,894,1580696464804,-1.2878,-1.1243,-2.7343,-1.7725616999999998,1.7745153000000002,6.7423687,-1
894,895,1580696464815,-1.6983999,-0.91389996,-2.5948,-1.8352705000000002,2.0201316000000005,6.853267999999999,-1
895,896,1580696464825,-1.3831999,-0.53319997,-2.4733,-1.3657006,2.5139883,7.0593615000000005,-1
896,897,1580696464835,-0.78099996,0.078499995,-2.096,-0.7091338,3.131884,7.48755,-1
897,898,1580696464845,-0.0827,0.5248,-1.7192999,0.33275574,3.5990214,7.7106705,-1
898,899,1580696464855,0.8936,0.91679996,-1.6478,1.2343354,3.9534304,7.8578850000000005,-1
899,900,1580696464865,1.7361,1.1999999,-1.3729,1.8080436999999998,4.08945,8.308541,-1
900,901,1580696464876,1.9118998999999999,1.2063,-0.904,1.4838878999999998,3.893872,8.603219000000001,-1
901,902,1580696464886,1.3842,0.9088,-0.7586,0.78515446,3.4605887,8.771407,-1
902,903,1580696464896,0.7109,0.4533,-0.5344,0.19211075,3.0419195,8.942927000000001,-1
903,904,1580696464906,0.2016,0.0946,-0.506,-0.21507592,2.8380099999999997,8.673341,-1
904,905,1580696464917,-0.1537,-0.0499,-0.8106,-0.6078208,2.6896942000000004,8.587389,-1
905,906,1580696464927,-0.5304,-0.1616,-0.7927,-0.9374832000000001,2.651789,8.696402,-1
906,907,1580696464937,-0.733,-0.15089999,-0.62909997,-0.8901259,2.6334972000000003,9.048167,-1
907,908,1580696464947,-0.6367,-0.1857,-0.2999,-0.7189022,2.5394053,9.3592415,-1
908,909,1580696464957,-0.4459,-0.2487,-0.0104,-0.399372,2.6219094,9.603881,-1
909,910,1580696464967,-0.089999996,-0.1358,0.24,0.14528973,2.6698318,9.930689,-1
910,911,1580696464978,0.4411,-0.053799997999999995,0.58889997,0.6033005,2.8638675,10.326153999999999,-1
911,912,1580696464988,0.8174,0.19229999,0.9485,0.6452661,3.0870453999999996,10.344264,-1
912,913,1580696464998,0.80939996,0.3466,0.85819995,0.48474923,2.9078345000000003,10.048684,-1
913,914,1580696465008,0.6019,0.15259999,0.57339996,0.16492220000000002,2.8467729999999998,9.733752,-1
914,915,1580696465018,0.3166,0.1109,0.1918,-0.08874827,2.717524,9.085142999999999,-1
915,916,1580696465028,0.0572,-0.0824,-0.45319998,-0.39315665,2.5974407000000004,8.599867,-1
916,917,1580696465039,-0.21509999,-0.15699999,-0.8731,-0.5803066,2.5777602,8.544111000000001,-1
917,918,1580696465050,-0.35259998,-0.1663,-0.8732,-0.5242153,2.6893015,8.694075,-1
918,919,1580696465060,-0.055299997000000004,0.1481,-0.49679998,-0.27608976,2.8801959,8.925939,-1
919,920,1580696465070,0.20269999,0.3109,-0.20719999,0.0020590133,3.0167994,9.230960000000001,-1
920,921,1580696465080,0.35909998,0.4147,0.0037,0.23785914,3.1106808,9.462699,-1
921,922,1580696465090,0.60319996,0.36089998,0.20529999,0.48217306,3.029594,9.713181,-1
922,923,1580696465101,0.6655,0.3585,0.5828,0.46703213,3.0266156000000004,10.081362,-1
923,924,1580696465111,0.44079998,0.27879998,0.7247,0.1967076,2.8760779999999997,10.172895,-1
924,925,1580696465121,0.1232,0.040599998,0.6809,-0.12934434,2.6470773,10.122924000000001,-1
925,926,1580696465131,-0.12019999,0.0030999999,0.5797,-0.34203565,2.6139512000000003,10.010981,-1
926,927,1580696465141,-0.1748,0.087,0.31329998,-0.324309,2.7166528999999997,9.710776,-1
927,928,1580696465151,-0.0176,0.2067,0.008599999,-0.15939638,2.835453,9.441917,-1
928,929,1580696465162,0.1008,0.32799998,-0.1003,-0.05038358,2.956973,9.344339,-1
929,930,1580696465172,0.19129999,0.34469998,-0.023899998999999998,0.097951576,2.9394763,9.497684,-1
930,931,1580696465182,0.32999998,0.29639998,0.3751,0.20520224,2.8745935,9.950341,-1
931,932,1580696465192,0.3002,0.2289,0.7446,0.17731458,2.8020492000000004,10.221949,-1
932,933,1580696465202,0.2294,0.20600000000000002,0.6544,0.10806469,2.7738166,10.076016000000001,-1
933,934,1580696465212,0.2875,0.2188,0.4574,0.19512744,2.772907,9.914916,-1
934,935,1580696465223,0.2025,0.13409999,0.368,0.08208281,2.674419,9.823649000000001,-1
935,936,1580696465233,0.100099996,0.079399996,0.2983,-0.016299725,2.648255,9.770297,-1
936,937,1580696465243,0.0942,0.1814,0.3363,0.02120305,2.769603,9.814388000000001,-1
937,938,1580696465253,0.0889,0.2843,0.33499998,-0.016309302,2.8233478,9.810528999999999,-1
938,939,1580696465263,-0.1107,0.2307,0.2061,-0.27999709999999994,2.7434487,9.528042,-1
939,940,1580696465273,-0.17109999,0.177,-0.14819999,-0.24608563,2.718597,9.295546,-1
940,941,1580696465284,-0.13319999,0.17600000000000002,-0.1408,-0.20018399,2.6666906000000004,9.391687,d
941,942,1580696465294,-0.0356,0.1299,0.051799998,-0.026891675,2.6682997000000004,9.669203999999999,-1
942,943,1580696465304,0.107999995,0.212,0.38169998,0.07846278,2.7223029999999997,9.961775999999999,-1
943,944,1580696465314,0.1382,0.3002,0.67329997,0.07840532,2.8543673,10.127866000000001,-1
944,945,1580696465324,0.18599999,0.4224,0.5053,0.22546677,2.9222574,9.881684,-1
945,946,1580696465335,0.2564,0.40559998,0.2005,0.17104176,2.8760395,9.606494999999999,-1
946,947,1580696465345,0.0875,0.3827,0.14,0.00063206925,2.7840736,9.862243,-1
947,948,1580696465355,0.051599998,0.2688,0.5287,0.051580682,2.666978,10.218788,-1
948,949,1580696465365,0.1091,0.1687,0.77919996,0.010984596999999999,2.6325203999999998,10.34116,-1
949,950,1580696465375,0.0526,0.1572,0.96099997,-0.104866035,2.5521712000000005,10.554513,-1
950,951,1580696465385,-0.043199997000000004,0.123399995,0.92789996,-0.14194743,2.5843396,10.382188000000001,-1
951,952,1580696465396,-0.0458,0.161,0.78859997,-0.0751492,2.5464634999999998,10.306588,-1
952,953,1580696465405,0.0557,0.1414,0.70019996,0.024478318,2.5514335999999997,10.063605,-1
953,954,1580696465415,0.32259998,0.0457,0.35869998,0.512771,2.4107312999999997,9.813134,-1
954,955,1580696465425,1.0188999,0.0401,0.35999998,1.3825557,2.5529566000000004,10.105580999999999,-1
955,956,1580696465435,2.1139997999999998,0.2807,1.1137999,2.4652998,2.8324845,10.980067,-1
956,957,1580696465445,2.9194999,0.63269997,1.923,3.2543235,3.2407817999999997,11.986991999999999,-1
957,958,1580696465456,3.6148,0.95589995,2.8377,3.8675262999999998,3.4434748,12.658077,-1
958,959,1580696465465,4.3132,1.2337999,3.3104,4.4391274,3.6018657999999997,12.918997000000001,-1
959,960,1580696465475,4.7816997,1.2121998999999999,3.5395,4.7574415,3.3806605000000003,13.208198999999999,-1
960,961,1580696465485,4.9052997000000005,0.8164,3.9478998,4.828204599999999,2.795786,13.794604000000001,-1
961,962,1580696465495,5.0491,0.28239998,4.4098997,5.0079613,2.316256,14.148007000000002,-1
962,963,1580696465505,5.1959,-0.107499994,4.7297997,5.2665443,2.1081905,14.375773,-1
963,964,1580696465516,5.5401,-0.3161,4.8966,5.7132072,2.0481055,14.441661999999999,-1
964,965,1580696465526,6.1758,-0.21849999,4.7421,6.5958724,2.3684017999999996,13.947125,-1
965,966,1580696465536,6.928,-0.015299999,4.304199700000001,7.158633999999999,2.5033197,13.707638000000001,-1
966,967,1580696465546,7.3925,-0.0179,4.0724998,7.526269,2.512839,13.327917999999999,-1
967,968,1580696465556,7.6478996,-0.1519,3.6854,7.6601524,2.2392585,13.007688499999999,-1
968,969,1580696465566,7.6309,-0.4782,3.5454,7.424639699999999,2.0054790000000002,13.059087,-1
969,970,1580696465576,7.3978996,-0.7722,3.5746,7.1906114,1.8225620999999999,12.675267,-1
970,971,1580696465587,7.144,-1.0296999,2.9608,6.8110919999999995,1.6460423,11.8418455,-1
971,972,1580696465597,6.8198,-1.2521,2.3421,6.460552,1.6885154999999998,11.319900500000001,-1
972,973,1580696465607,6.2960997,-1.2248,1.6503999,5.786048,1.9581122,10.421797,-1
973,974,1580696465617,5.646,-1.1036,0.6455,5.213853,2.0313939999999997,9.135325,-1
974,975,1580696465627,5.1556,-1.1143,-0.775,4.7033806,2.2315204,7.177529300000001,-1
975,976,1580696465638,4.7662,-1.0963,-2.3699,3.9160042,2.1390085,5.855757700000001,-1
976,977,1580696465648,3.9160998,-1.3964,-3.5626,3.1184093999999996,1.8633210999999998,4.986739,-1
977,978,1580696465658,3.0472,-1.7778,-4.6481,2.350139,1.5854021,3.7436983999999995,-1
978,979,1580696465668,2.5993,-2.1323,-5.4704,1.5523428999999997,1.0158215,3.5049295,-1
979,980,1580696465679,1.9174,-2.7184,-5.5715,0.6700316999999999,0.6195331999999999,3.3925936,-1
980,981,1580696465689,0.8444,-3.2598999,-5.6779,-0.38361818,0.47775814,3.4053211,-1
981,982,1580696465699,0.0598,-3.3950998999999995,-5.6127,-0.9558610999999999,0.42201155,3.2966146000000003,-1
982,983,1580696465709,-0.452,-3.4868,-5.6997,-1.9131396,0.529109,3.044007,-1
983,984,1580696465719,-1.3515999,-3.4089,-5.9381,-3.02788,0.49009308,3.1899674,-1
984,985,1580696465730,-2.3943,-3.4649,-5.7689,-4.191596,0.30226317,3.2997365,-1
985,986,1580696465740,-5.129699700000001,-4.0875998,-6.2679996,-5.940187,-0.14219643,2.677407,-1
986,987,1580696465750,-6.1225,-4.456,-7.2640996,-7.012645699999999,-0.4921521,1.6730682000000001,-1
987,988,1580696465760,-6.7675,-4.6471,-8.4738,-7.708209,-0.6535021,0.441395,-1
988,989,1580696465770,-6.7675,-4.6471,-8.4738,-8.185996000000001,-0.6246855,-0.67259824,-1
989,990,1580696465781,-7.3104,-4.1310997,-10.8532,-8.290775,-0.09736739,-1.9803113,-1
990,991,1580696465791,-7.3104,-4.1310997,-10.8532,-8.262381,0.32745016,-1.8450197,-1
991,992,1580696465801,-7.2507997,-3.7264,-10.9165,-8.559338,0.23191196,-0.89759576,-1
992,993,1580696465811,-7.5709,-3.7958998999999998,-9.7727995,-9.354586999999999,-0.13060848,0.5417408,-1
993,994,1580696465821,-9.064099,-4.3231997,-7.3760996,-10.36018,-0.5709692,1.8088673,-1
994,995,1580696465831,-10.2104,-4.410599700000001,-6.6579999999999995,-11.537044999999999,-0.6156642,2.3952167,-1
995,996,1580696465841,-11.013,-4.0081997000000005,-6.5824,-12.188747,-0.28185502,2.4457536,-1
996,997,1580696465852,-10.8544,-3.8444,-6.9048996,-11.787182000000001,-0.2572522,2.024422,-1
997,998,1580696465862,-10.8544,-3.8444,-6.9048996,-11.250144,-0.42355344,1.4612578999999999,-1
998,999,1580696465872,-9.8075,-4.3076,-8.0189,-10.612442,-0.8782315,1.1313274,-1
999,1000,1580696465882,-9.5264,-4.6338,-7.6124997,-10.373635,-1.1880986999999998,1.5380256,-1
1000,1001,1580696465893,-9.956799499999999,-4.5095997,-7.1741,-10.990401,-1.1817684,2.2240505,-1
1001,1002,1580696465903,-10.4162,-4.5016,-6.632899799999999,-11.246811,-1.3330243999999998,2.7447512,-1
1002,1003,1580696465913,-10.696199,-4.5081997000000005,-6.0558,-11.445567,-1.4447763,3.2297397,-1
1003,1004,1580696465923,-10.8522,-4.7543,-5.3620996,-11.262468,-2.077267,4.3445663,-1
1004,1005,1580696465934,-9.828,-5.1678,-4.5401,-9.849277,-2.5872319,5.074472,-1
1005,1006,1580696465943,-8.7705,-5.6386,-4.0596,-9.097967,-3.2053475,5.5429983,-1
1006,1007,1580696465953,-8.1929,-6.4968,-2.9512,-8.38349,-4.1914620000000005,6.8780246,-1
1007,1008,1580696465963,-7.5582,-6.642299700000001,-1.1872,-7.8188977,-4.363624,8.357161999999999,-1
1008,1009,1580696465973,-7.2349,-6.0462,0.6256,-7.2958317,-3.8932498,10.835410000000001,-1
1009,1010,1580696465983,-6.9771,-5.6147,1.7066,-7.0739946,-3.7342746,11.389677,-1
1010,1011,1580696465993,-6.7763995999999995,-5.5109,1.578,-6.8076057,-4.047752399999999,11.230252,-1
1011,1012,1580696466004,-6.0961,-6.3159,1.7205,-5.635577,-5.335354,11.625573,-1
1012,1013,1580696466014,-4.7778997,-6.9023,2.1423,-4.5388603,-5.7980766,12.028967999999999,-1
1013,1014,1580696466024,-3.2886,-7.1183996,3.6265,-2.7875595,-6.3076777,14.31226,-1
1014,1015,1580696466034,-2.2812997999999998,-6.9433,5.7421,-2.2714174,-6.139604599999999,16.003398999999998,-1
1015,1016,1580696466044,-2.1717,-6.3508,7.0801,-2.3148196,-5.889037,17.332698999999998,-1
1016,1017,1580696466054,-2.3037999,-5.8402,8.2996,-2.8052669999999997,-5.561625,18.200272000000002,-1
1017,1018,1580696466064,-2.9928,-5.2653,8.085899000000001,-3.3122537000000003,-5.386082599999999,17.897327,-1
1018,1019,1580696466074,-3.1048,-5.2381,7.2791996,-3.1342974,-5.6968403,16.73273,-1
1019,1020,1580696466084,-1.7989,-5.377999999999999,6.3071,-1.4870578,-6.0620519999999996,15.643004000000001,-1
1020,1021,1580696466095,-0.048899997,-5.6628,5.4621997,0.12545617,-6.3957267,15.313879,-1
1021,1022,1580696466105,1.4035,-5.6151,6.1782,1.5656451,-6.3972206,16.654814000000002,-1
1022,1023,1580696466115,2.5514997999999998,-5.3775,7.9277997000000004,2.472061,-6.3016825,18.379911,-1
1023,1024,1580696466125,2.7845,-5.1631,8.8285,2.0130162,-6.375299500000001,18.55989,-1
1024,1025,1580696466136,2.1677,-5.2713,8.7317,1.5913684,-6.8557196,18.176664000000002,-1
1025,1026,1580696466146,2.0737997999999997,-5.5506,8.143599499999999,1.837004,-6.890934,17.41574,-1
1026,1027,1580696466156,2.6413,-5.1534,7.7966,3.0282917,-6.2448344,17.987782,-1
1027,1028,1580696466166,4.1488,-4.3333,8.6823,4.703533599999999,-5.393485500000001,18.676113,-1
1028,1029,1580696466176,5.7613997,-3.3723998,9.0363,6.3341384000000005,-4.619631299999999,18.54949,-1
1029,1030,1580696466187,7.4856,-2.595,8.7216,8.103473,-3.9194998999999995,17.871230999999998,-1
1030,1031,1580696466197,9.1954,-1.9724,7.5614,9.742677,-3.5946352,15.271770000000002,-1
1031,1032,1580696466207,10.3796,-1.8219999,5.1619997,10.314105999999999,-3.2626743,13.884751000000001,-1
1032,1033,1580696466217,10.8832,-1.3761,4.1921,11.061662,-2.6958807,14.214165,-1
1033,1034,1580696466227,11.752299,-0.77019995,4.812999700000001,12.084703999999999,-2.0102675,15.671391,-1
1034,1035,1580696466237,12.731299,-0.039499998,6.3394,12.764553,-1.3645034,16.875378,-1
1035,1036,1580696466248,13.308,0.5794,7.3673,12.9507065,-1.1592532,16.965227,-1
1036,1037,1580696466258,13.4843,0.73929995,7.2177,13.221289,-0.9463992,16.113447,-1
1037,1038,1580696466268,13.8217,1.0576,6.2706,13.833658999999999,-0.5112578,14.803004000000001,-1
1038,1039,1580696466278,14.5518,1.4971,4.8691998,14.889856,-0.07809886,13.003225,-1
1039,1040,1580696466288,15.6765995,1.8844999,2.985,15.896025,0.30539479999999997,11.064036999999999,-1
1040,1041,1580696466299,16.6673,2.1959,1.1381999,16.464292999999998,0.2605083,10.063271,-1
1041,1042,1580696466309,17.0951,2.0312997999999998,0.3409,16.063627,-0.08793424,10.015711999999999,-1
1042,1043,1580696466319,16.3879,1.7013999,0.49589998,14.555271,-0.61430424,10.7874775,-1
1043,1044,1580696466329,14.7876,1.0847,1.3277999,13.033947999999999,-1.3500999,11.272561999999999,-1
1044,1045,1580696466339,13.274099,0.3746,1.6184,11.729003,-1.9105922,10.785668,-1
1045,1046,1580696466350,12.1614,-0.0861,1.1507,10.735802,-2.4060194,10.0888405,-1
1046,1047,1580696466360,10.1431,-1.2162,-0.4651,9.823554,-2.9720087000000004,9.191196000000001,-1
1047,1048,1580696466370,10.1431,-1.2162,-0.4651,8.965395,-3.5019894,7.992343400000001,-1
1048,1049,1580696466380,8.2455,-2.4977999,-2.5902998,7.782324000000001,-4.312944,6.881817,-1
1049,1050,1580696466391,8.2455,-2.4977999,-2.5902998,7.1630783,-4.7500386,6.0431857,-1
1050,1051,1580696466401,6.8939,-3.3446998999999997,-4.1242,6.688672,-4.9481444,5.561625,-1
1051,1052,1580696466411,6.2999997,-3.457,-3.8548,6.046604599999999,-5.042639,5.921320400000001,-1
1052,1053,1580696466421,5.4544,-3.4512,-3.3184998,5.400716,-5.00913,6.376161,-1
1053,1054,1580696466431,4.4709,-3.5159,-2.7410997999999998,4.1239934,-5.1005306,7.064149400000001,-1
1054,1055,1580696466441,4.4709,-3.5159,-2.7410997999999998,3.2119652999999997,-5.0552993,7.1176553,-1
1055,1056,1580696466452,1.9603,-3.5500998,-2.8181,1.9665397,-5.1139956,6.768714999999999,-1
1056,1057,1580696466462,1.3095,-3.5254998,-3.1290998,1.5565472,-5.0605574,6.53755,-1
1057,1058,1580696466472,1.0832,-3.3116,-3.016,1.4581549999999999,-4.8227363,6.7429147,-1
1058,1059,1580696466482,1.1991,-3.0537,-2.3709,1.7596521,-4.570770700000001,7.6957207,-1
1059,1060,1580696466492,1.4804,-2.7781,-1.361,2.0430872,-4.351538,8.635579,-1
1060,1061,1580696466502,1.4287,-2.6427,-0.7624,1.9052866000000002,-4.3401804,8.918641000000001,-1
1061,1062,1580696466513,0.5306,-2.7142,-0.82119995,0.92354894,-4.424542,8.751133,-1
1062,1063,1580696466523,-0.7553,-2.7568,-1.1151999,-0.2619927,-4.5239015,8.510342999999999,-1
1063,1064,1580696466533,-1.9375999,-3.0384,-0.99579996,-1.2838955,-4.8389406,8.687418,-1
1064,1065,1580696466543,-3.0101,-3.3371,-0.64809996,-2.3387330000000004,-5.230095400000001,9.167321000000001,-1
1065,1066,1580696466553,-3.7145998,-3.6857,0.006,-2.7669023999999998,-5.6275806,9.9824705,-1
1066,1067,1580696466563,-4.0752,-3.9606,1.0249,-3.0444283,-5.7981243,10.937748,-1
1067,1068,1580696466573,-4.5171,-3.9104997999999997,1.7102,-3.3634608,-5.751275,11.349675,-1
1068,1069,1580696466583,-5.0758,-3.6827,2.021,-3.9011888999999997,-5.5253190000000005,11.617231,-1
1069,1070,1580696466593,-5.5473,-3.2156,2.3104,-4.259151,-4.9832529999999995,11.950772,-1
1070,1071,1580696466603,-5.5975,-2.6701999,2.5391998,-4.0998790000000005,-4.472176999999999,12.028632,-1
1071,1072,1580696466614,-5.2497,-2.2282999,2.3574998,-3.653236,-4.1170883,11.7054825,-1
1072,1073,1580696466624,-4.9539,-1.9937999,1.9517,-3.488055,-4.007922,11.371021,-1
1073,1074,1580696466634,-4.9367,-1.9943,1.7822,-3.4097648,-4.078723399999999,11.263119999999999,-1
1074,1075,1580696466644,-4.9045,-2.0988,1.8269,-3.4134517,-4.2183722999999995,11.288737,-1
1075,1076,1580696466655,-5.0801997000000005,-2.2175999,1.8896998999999999,-3.761061,-4.3350277,11.424824000000001,-1
1076,1077,1580696466665,-5.5473,-2.2547998,2.0198,-4.228093,-4.3194175,11.51566,-1
1077,1078,1580696466675,-5.8497,-2.1265,2.07,-4.450591,-4.127708999999999,11.557214,-1
1078,1079,1580696466685,-5.9346,-1.8949,2.0504,-4.4674177,-3.8337489999999996,11.399934,-1
1079,1080,1580696466695,-5.7743998,-1.5720999,1.8136,-4.039526,-3.4675894,11.10515,-1
1080,1081,1580696466705,-5.114,-1.1777999,1.5164,-3.0438635,-3.1179497000000005,10.765441000000001,-1
1081,1082,1580696466716,-4.012,-0.76919997,1.1199,-2.1070889999999998,-2.6555432999999997,10.251493,-1
1082,1083,1580696466726,-3.1497,-0.4014,0.5753,-1.5710081,-2.5382178,9.837124000000001,-1
1083,1084,1580696466736,-2.8671,-0.40289998,0.2853,-1.7433139,-2.5867433999999996,9.886205,-1
1084,1085,1580696466746,-3.158,-0.47739998,0.5256,-2.0537367,-2.7156568,10.215492999999999,-1
1085,1086,1580696466757,-3.4261,-0.6548,0.7765,-2.4316182,-2.9187232999999995,10.304328,-1
1086,1087,1580696466767,-3.8121998,-0.8527,0.8412,-2.9686377,-3.0831285,10.434984,-1
1087,1088,1580696466777,-4.1366997,-0.9278,0.94509995,-2.997598,-3.0565336,10.403448,-1
1088,1089,1580696466788,-4.0390997,-0.8138,0.77419996,-2.6383815,-2.7600262000000004,10.019083,-1
1089,1090,1580696466798,-3.6227998999999995,-0.5682,0.4358,-2.1387212000000004,-2.5337741,9.768189,-1
1090,1091,1580696466808,-3.0904999,-0.3532,0.2042,-1.7700619999999998,-2.3885417,9.625744000000001,-1
1091,1092,1580696466819,-2.7001,-0.20899999,0.0633,-1.2362701,-2.164818,9.424593,-1
1092,1093,1580696466829,-2.1794,-0.0016,-0.1269,-0.9685599,-2.0797186,9.437522,-1
1093,1094,1580696466841,-1.8239,0.12879999,0.2021,-0.9079579,-1.9846017,9.850695,-1
1094,1095,1580696466851,-1.7677,0.1765,0.6134,-0.89113146,-1.9857605,10.207717,-1
1095,1096,1580696466861,-1.854,0.1347,0.8190000000000001,-1.0165110000000002,-2.0049523999999996,10.388144500000001,-1
1096,1097,1580696466872,-1.854,0.1347,0.8190000000000001,-1.0571454,-2.0038511999999997,10.452721,-1
1097,1098,1580696466882,-1.6947,0.1283,0.7678,-0.80766,-2.0381074,10.242002000000001,-1
1098,1099,1580696466892,-1.4067999,0.22299999,0.3638,-0.5457056,-1.9156294999999999,9.835466,-1
1099,1100,1580696466902,-1.1256,0.3186,0.1265,-0.27158865,-1.8488697,9.654293,d
1100,1101,1580696466912,-0.7916,0.4184,0.14479999,0.17642394,-1.6999215,9.710614,-1
1101,1102,1580696466924,-0.40579998,0.5517,0.2717,0.44441172,-1.5599469,9.927864,-1
1102,1103,1580696466934,-0.2765,0.6671,0.5365,0.5061438,-1.4908886000000001,10.172312,-1
1103,1104,1580696466944,-0.2026,0.68149996,0.6737,0.49165413,-1.5116128,10.201684,-1
1104,1105,1580696466954,-0.3236,0.5916,0.5453,0.2565435,-1.6845125,9.944403999999999,-1
1105,1106,1580696466965,-0.60969996,0.3979,0.2986,0.012287043999999999,-1.8339393,9.800253,-1
1106,1107,1580696466975,-0.78209996,0.2511,0.1988,-0.023041798,-1.9468787,9.7142725,-1
1107,1108,1580696466985,-0.7101,0.17369999,0.1679,0.09627564,-2.0175076,9.718687,-1
1108,1109,1580696466995,-0.5872,0.12799999,0.2649,0.28582937,-1.9739618000000003,9.977366,-1
1109,1110,1580696467005,-0.3425,0.20369999,0.5585,0.5611721,-1.8945318,10.233699,-1
1110,1111,1580696467015,0.015299999,0.331,0.83269995,0.88810515,-1.7633581999999999,10.469528,-1
1111,1112,1580696467026,0.19219999,0.3994,0.9201,0.922687,-1.7187782999999999,10.497789,-1
1112,1113,1580696467036,0.1293,0.3881,0.9382,0.70879865,-1.8477298999999998,10.462384,-1
1113,1114,1580696467046,-0.1086,0.23699999,0.8674,0.41632295,-1.9650267,10.366951,-1
1114,1115,1580696467056,-0.3999,0.121199995,0.7863,0.22847387,-2.0236845000000003,10.35565,-1
1115,1116,1580696467066,-0.6817,0.0486,0.79289997,-0.19999246,-2.1031625,10.278481,-1
1116,1117,1580696467077,-0.9813,0.0101,0.6518,-0.3636505,-2.108631,10.196752,-1
1117,1118,1580696467087,-1.0354999,-0.0475,0.6482,-0.27899155,-2.1497347,10.373185000000001,-1
1118,1119,1580696467097,-0.9644,-0.0686,0.9790000000000001,-0.33960316,-2.1146738999999997,10.83676,-1
1119,1120,1580696467107,-1.0394,-0.050499998,1.5073,-0.34760934,-2.1338274,11.66818,-1
1120,1121,1580696467117,-1.0121,-0.065,2.2819,-0.60922855,-2.2455027000000003,12.685573,-1
1121,1122,1580696467127,-1.3932999,-0.21689999,3.3314998,-1.499498,-2.5012512000000005,13.623420000000001,-1
1122,1123,1580696467138,-2.3657,-0.5243,4.184,-2.4076570999999998,-2.9148352,14.077456,-1
1123,1124,1580696467147,-3.4857,-1.0531,4.6514997000000005,-3.5333726000000003,-3.371218,14.424538,-1
1124,1125,1580696467157,-4.3217998,-1.3608999,4.870899700000001,-3.8333085,-3.3349986000000005,14.505491000000001,-1
1125,1126,1580696467167,-4.459,-1.276,4.9405,-3.3341364999999996,-2.9879541,14.593081,-1
1126,1127,1580696467177,-3.8102,-0.96029997,4.9785,-2.3166776000000002,-2.397161,14.555913,-1
1127,1128,1580696467187,-2.6666,-0.4008,4.9365,-1.1868441,-1.9379914,14.586444,-1
1128,1129,1580696467198,-1.5695,-0.067999996,4.932699700000001,-0.8020767,-1.8165765,14.359197,-1
1129,1130,1580696467207,-1.2739999,-0.0447,4.6535,-1.1243458,-1.9993979,13.983996,-1
1130,1131,1580696467217,-1.6084,-0.3353,4.2364,-1.6972592,-2.2220013,13.660117999999999,-1
1131,1132,1580696467227,-2.1234999,-0.6367,3.9562,-2.257148,-2.4587781000000004,13.686205,-1
1132,1133,1580696467237,-2.6324,-0.9381,4.0291,-2.7024505000000003,-2.4363205000000003,13.924523,-1
1133,1134,1580696467247,-3.0056998999999998,-0.9248,4.2886,-2.7443395,-2.2242612999999998,14.357769000000001,-1
1134,1135,1580696467257,-2.9508,-0.8206,4.7151,-2.5772336,-2.0135523999999996,14.562204999999999,-1
1135,1136,1580696467268,-2.7526999,-0.75369996,4.808399700000001,-1.9706004000000001,-1.8585421000000002,14.388597,-1
1136,1137,1580696467278,-2.0588999,-0.6755,4.5978,-1.3708718999999998,-1.6561938999999999,14.033257999999998,-1
1137,1138,1580696467288,-1.5018,-0.6324,4.1524,-0.9888915,-1.6076586000000002,13.352664,-1
1138,1139,1580696467298,-1.1169,-0.7305,3.4334998,-0.7195725000000001,-1.5508969,12.7203455,-1
1139,1140,1580696467308,-0.8107,-0.8006,2.8337,-0.44753376,-1.4957247999999999,12.233489,-1
1140,1141,1580696467318,-0.49609998,-0.8436,2.3337998,-0.22693200000000002,-1.25709,11.752189,-1
1141,1142,1580696467328,-0.2791,-0.7240000000000001,1.8650999,-0.07797436,-0.9891788,11.43806,-1
1142,1143,1580696467339,-0.13499999,-0.599,1.5847,-0.11517068,-0.7369832,11.075807000000001,-1
1143,1144,1580696467349,-0.1813,-0.4992,1.1395,-0.19359516,-0.5144469,10.51428,-1
1144,1145,1580696467359,-0.26839998,-0.4342,0.6181,-0.28682540000000006,-0.48107174,10.163875,-1
1145,1146,1580696467369,-0.3513,-0.6037,0.2658,-0.307789,-0.5206430999999999,9.763613000000001,-1
1146,1147,1580696467380,-0.3304,-0.7908,-0.73719996,-0.25835349999999996,-0.4154706,9.075519,-1
1147,1148,1580696467390,-0.36479998,-0.90809995,-0.9576,-0.30804756,-0.40316440000000003,8.847101,-1
1148,1149,1580696467400,-0.36479998,-0.90809995,-0.9576,-0.61530983,-0.29506144,8.7632475,-1
1149,1150,1580696467410,-0.63379997,-0.89699996,-1.0301,-0.7652156,-0.26565102,8.647416,-1
1150,1151,1580696467420,-0.9939,-1.0146998999999999,-1.1228,-1.0475303,-0.20285593,8.658592,-1
1151,1152,1580696467430,-1.0615,-1.1651,-1.5834999,-1.1371405,-0.24537694,8.192497999999999,-1
1152,1153,1580696467441,-0.7119,-1.1084,-2.2282999,-0.7880371,-0.07306146,7.5340643,-1
1153,1154,1580696467451,-0.7119,-1.1084,-2.2282999,0.06794744,0.39791632,6.982353999999999,-1
1154,1155,1580696467461,1.0438,-0.2528,-3.1799,1.0012264000000002,1.0495702,6.5533805,-1
1155,1156,1580696467471,1.8424,0.1972,-3.4296,1.8075553,1.6077353,6.29019,-1
1156,1157,1580696467481,2.2461,0.4068,-3.7684998999999997,2.2017843999999998,1.9107646,5.9291544,-1
1157,1158,1580696467492,2.1194,0.17,-4.1675,2.038184,1.7579569,5.521939,-1
1158,1159,1580696467502,1.5942,-0.17999999,-4.2541,1.4739854,1.4729416000000002,5.422321,-1
1159,1160,1580696467512,1.1214,-0.64669997,-4.2243,0.85136855,1.0113873,5.420013,-1
1160,1161,1580696467522,0.6041,-0.87439996,-4.3908,0.27454787,0.84989375,5.2095532,-1
1161,1162,1580696467532,0.17379999,-1.0823,-4.5376,-0.17394355,0.72845984,5.1125300000000005,-1
1162,1163,1580696467542,0.0008,-0.9963,-4.4883,-0.22481553,0.92071426,5.145446,-1
1163,1164,1580696467553,0.4019,-0.7833,-4.5369997,0.28196037,1.1753328,5.075411,-1
1164,1165,1580696467563,0.9572,-0.5854,-4.5277,0.9666636999999999,1.4482526000000002,5.1372480000000005,-1
1165,1166,1580696467573,1.6358999,-0.5148,-4.3336997,1.5765626,1.4511161,5.3735175,-1
1166,1167,1580696467583,1.9677,-0.5999,-4.0338,1.7268515,1.4314069999999999,5.6547410000000005,-1
1167,1168,1580696467593,2.0755,-0.4904,-3.4118998,1.8965142,1.6121788000000001,6.553725200000001,-1
1168,1169,1580696467604,2.3364,-0.3764,-2.5556997999999997,2.193357,1.6883624,7.3164797,-1
1169,1170,1580696467614,2.5667,-0.3893,-2.033,2.3094277,1.7281156000000002,7.668283,-1
1170,1171,1580696467625,2.4949,-0.2832,-1.8713,2.1150856,1.8513021,7.6873026,-1
1171,1172,1580696467635,2.3197,-0.28869998,-2.0052,1.9352811999999997,1.7611365,7.482684599999999,-1
1172,1173,1580696467645,2.0873,-0.4033,-2.2154,1.7524215,1.7051792000000001,7.3317447,-1
1173,1174,1580696467655,2.0509,-0.4788,-2.1805,1.8537058999999998,1.6460136000000003,7.6332707,-1
1174,1175,1580696467665,2.1534,-0.5787,-1.6566,1.9736171000000002,1.5608375,8.472534,-1
1175,1176,1580696467675,2.1878,-0.5816,-0.7227,1.9901179,1.7215650000000002,9.330396,-1
1176,1177,1580696467686,2.2296,-0.4603,-0.044999998,1.9982389999999999,1.7512053,9.649361,-1
1177,1178,1580696467696,1.9911,-0.40399998,0.1025,1.599796,1.8958150000000002,9.6311455,-1
1178,1179,1580696467706,1.6666,-0.2085,-0.005,1.5025913999999998,1.9930101999999998,9.55569,-1
1179,1180,1580696467716,1.8932999,-0.23709999,0.0244,1.7983997999999999,1.9075848999999998,9.6160145,-1
1180,1181,1580696467726,2.2087998,-0.43039998,0.0731,2.1469955,1.6609630000000002,9.64578,-1
1181,1182,1580696467736,2.488,-0.5634,0.1019,2.3211498,1.6200988,9.744574,-1
1182,1183,1580696467746,2.6030998,-0.56769997,0.31689999,2.2132669999999997,1.6516927,10.005713,-1
1183,1184,1580696467757,2.3407,-0.4479,0.45399999999999996,1.9301766,1.7748313000000002,10.009889,-1
1184,1185,1580696467767,2.2137,-0.39519998,0.49469998,1.9815755000000002,1.8358067999999998,10.145545,-1
1185,1186,1580696467777,2.3088,-0.2224,0.6347,2.0720283999999998,2.2517755,10.150793,-1
1186,1187,1580696467787,2.2928998,0.083,0.5992,1.979411,2.324655,10.0986185,-1
1187,1188,1580696467797,2.0942,0.054199997,0.39729998,1.6473353,2.2925343999999996,9.642532000000001,-1
1188,1189,1580696467807,1.8633,0.0427,0.0296,1.6196295,2.3738317,9.627372,-1
1189,1190,1580696467818,1.8534,0.1399,0.1105,1.5891658000000002,2.5763814,9.897132000000001,-1
1190,1191,1580696467828,1.8256999,0.31829998,0.43609998,1.5833813,2.6186054,10.377428,-1
1191,1192,1580696467838,1.8012999,0.35459998,0.9174,1.482413,2.7622383,10.6988735,-1
1192,1193,1580696467849,1.7119,0.5202,1.1826999,1.5107317,3.0474740000000002,10.833581,-1
1193,1194,1580696467859,1.7803999,0.8117,1.2915,1.4709306,3.6330383,10.743310000000001,-1
1194,1195,1580696467869,1.7305,1.3458999,1.1948999,1.4558853999999999,4.146287999999999,10.51021,-1
1195,1196,1580696467879,1.7886,1.9576,0.922,1.9395715,4.446664299999999,10.589314,-1
1196,1197,1580696467889,2.2161999,2.1515,1.0502,2.0618675,4.221351,11.209977,-1
1197,1198,1580696467899,2.3337,1.9218998999999999,1.6667,2.0434415,3.8609852999999994,11.848281,-1
1198,1199,1580696467909,2.2897,1.4629999,2.4777,1.7316398999999998,3.340582,12.605874,-1
1199,1200,1580696467919,1.8659999,0.988,3.1604,0.989083,2.8343039,12.983899000000001,-1
1200,1201,1580696467929,1.1249,0.48569998,3.4803,0.13580870000000003,2.3762548,13.0263815,-1
1201,1202,1580696467939,0.4525,0.1505,3.4773,-0.2587749,2.2429742999999998,12.889922,-1
1202,1203,1580696467949,0.0755,-0.022499999,3.2698998,-0.37114915,1.9411038,12.379871000000001,-1
1203,1204,1580696467960,0.052699998,-0.7158,1.7256999,-0.41962695,1.5051388,11.274995,-1
1204,1205,1580696467970,0.2854,-1.0146998999999999,0.703,-0.20990445,1.2340002,10.249741,-1
1205,1206,1580696467981,0.2854,-1.0146998999999999,0.703,0.21998884,1.1076248,9.315111,-1
1206,1207,1580696467991,1.1452,-1.0056,-1.1507,0.6634333,1.3249704,8.378461,-1
1207,1208,1580696468001,1.1452,-1.0056,-1.1507,0.6161143,1.6232497,7.549598,-1
1208,1209,1580696468011,1.2037,-0.79039997,-1.8077999,0.18847156,1.5824621,7.364373,-1
1209,1210,1580696468021,-0.22999999,-1.0713,-2.1087,-1.0774674,1.2527133,7.398524,-1
1210,1211,1580696468031,-0.22999999,-1.0713,-2.1087,-1.7967526000000003,1.0043005999999999,7.258166,-1
1211,1212,1580696468041,-2.0345,-1.6852,-2.3785,-2.6236715,0.73195535,7.123756,-1
1212,1213,1580696468052,-2.1584,-1.6552999,-2.1815999,-2.7563102,0.7574871,7.3127830000000005,-1
1213,1214,1580696468062,-1.9491999,-1.3727,-2.0932999,-2.538438,1.0475495000000001,7.4033217,-1
1214,1215,1580696468072,-1.5152999,-1.1781,-1.8781999,-2.0046458,1.2320658000000002,7.686642,-1
1215,1216,1580696468082,-1.5152999,-1.1781,-1.8781999,-1.7299925999999999,1.1671063,7.92023,-1
1216,1217,1580696468092,-0.8057,-1.1919,-1.3941,-1.3853809,1.2064669,8.106815,-1
1217,1218,1580696468102,-0.5837,-1.0739,-1.1836,-1.1813183,1.3299598999999998,8.361894,-1
1218,1219,1580696468113,-0.5119,-0.75189996,-0.9442,-1.1837604,1.7095749,8.806678999999999,-1
1219,1220,1580696468123,-0.47529998,-0.43809998,-0.2338,-1.1739633,1.922611,9.442014,-1
1220,1221,1580696468133,-0.3008,-0.15179999,0.3409,-1.0681492,2.1113124,9.871696,-1
1221,1222,1580696468143,-0.0711,-0.1182,0.24219999,-0.8304049000000001,2.1244998,9.7038145,-1
1222,1223,1580696468153,0.105799995,-0.042799998,-0.0985,-0.7234703,2.2220013,9.337568,-1
1223,1224,1580696468163,0.0106999995,-0.0775,-0.6038,-0.9101606,2.1920737999999997,8.712424,-1
1224,1225,1580696468173,-0.156,-0.097799994,-0.97069997,-1.0467737,2.2053185,8.493689999999999,-1
1225,1226,1580696468183,-0.258,-0.0503,-0.9651,-1.1285883999999997,2.3018525000000003,8.611886,-1
1226,1227,1580696468194,-0.4091,-0.005,-0.7931,-1.3289161,2.280209,8.732793,-1
1227,1228,1580696468204,-0.5464,-0.15789999,-0.7583,-1.3877751,2.1954255000000003,8.739419999999999,-1
1228,1229,1580696468214,-0.60569996,-0.3399,-0.7529,-1.4454753,2.006207,8.758142,-1
1229,1230,1580696468225,-0.58,-0.41939998,-0.6304,-1.3532315000000001,2.019605,8.980871,-1
1230,1231,1580696468235,-0.496,-0.2479,-0.4006,-1.3266367000000001,2.3269724999999997,9.091627,-1
1231,1232,1580696468245,-0.48349997,0.111499995,-0.4746,-1.3116968999999998,2.6167476,8.860911999999999,-1
1232,1233,1580696468255,-0.47529998,0.1818,-0.8616,-1.330908,2.5685569999999998,8.363904,-1
1233,1234,1580696468265,-0.44709998,0.021599998999999998,-1.2774,-1.2969007,2.4594674,8.11867,-1
1234,1235,1580696468275,-0.4188,-0.131,-1.5366,-1.2393825,2.348214,7.929625,-1
1235,1236,1580696468285,-0.42700000000000005,-0.1635,-1.4439,-1.2046378,2.4107790000000002,8.321344,-1
1236,1237,1580696468296,-0.32209998,-0.0535,-0.86249995,-1.0272082,2.5689688,8.812607,-1
1237,1238,1580696468306,-0.2179,0.1096,-0.3215,-1.0481623,2.6902687999999997,9.34296,-1
1238,1239,1580696468316,-0.3958,0.11699999999999999,-0.035499997,-1.2013433999999998,2.6867445,9.44932,-1
1239,1240,1580696468327,-0.375,0.13319999,-0.0235,-0.9807415999999999,2.7171412,9.3384495,-1
1240,1241,1580696468337,-0.1827,0.15879999,-0.168,-0.8434964,2.744282,9.365408,d
1241,1242,1580696468347,-0.132,0.15609999,-0.0279,-0.87059873,2.7711735,9.52672,-1
1242,1243,1580696468357,-0.2023,0.19479999,0.1317,-1.0360094000000002,2.704069,9.7227955,-1
1243,1244,1580696468367,-0.38459998,0.027099999,0.3311,-1.2499552,2.5231822,9.822098,-1
1244,1245,1580696468377,-0.7779,-0.29209998,0.45299998,-1.6530718,2.2085457,9.933571,-1
1245,1246,1580696468388,-0.95589995,-0.4518,0.5074,-1.6226462,2.2734478,9.975565,-1
1246,1247,1580696468397,-0.8964,-0.3527,0.5729,-1.4605492,2.3923342,9.927519,-1
1247,1248,1580696468407,-0.6347,-0.22469999,0.3645,-1.1669722,2.6903741,9.608898,-1
1248,1249,1580696468417,-0.4533,-0.0133,0.1757,-1.0093379,2.8385274,9.52716,-1
1249,1250,1580696468427,-0.3047,0.1046,0.11409999400000001,-1.202368,2.8753595,9.3596525,-1
1250,1251,1580696468437,-0.5714,0.0752,-0.054399997,-1.839264,2.6812472,9.33438,-1
1251,1252,1580696468448,-1.2741,-0.166,-0.0255,-2.7565498,2.4294636,9.263291,-1
1252,1253,1580696468457,-2.165,-0.44579998,-0.1809,-3.2727396,2.2238111000000003,8.859005999999999,-1
1253,1254,1580696468467,-2.6859,-0.7952,-0.72609997,-3.7214322,1.9774669999999999,8.196435000000001,-1
1254,1255,1580696468478,-3.0286999,-0.9644,-1.2699,-3.9184367999999994,1.9734924999999999,7.6564174,-1
1255,1256,1580696468488,-3.2164998,-1.0267,-1.9308,-3.9375231,1.9533526,6.919933,-1
1256,1257,1580696468498,-3.2056,-1.0947,-2.4747999,-4.0165606,1.8304247,6.6319384999999995,-1
1257,1258,1580696468509,-3.3665,-1.2916,-2.6973999,-4.391952,1.5758348999999998,6.5110507,-1
1258,1259,1580696468519,-3.7556,-1.5871998999999999,-2.7849998,-4.77513,1.23197,6.413875,-1
1259,1260,1580696468529,-4.1457,-1.9734999,-2.8841,-5.3109617,0.8866111999999999,6.2024956,-1
1260,1261,1580696468539,-4.6545997,-2.3262,-3.1309,-6.0667152,0.64178973,5.555678400000001,-1
1261,1262,1580696468549,-5.2883,-2.5245,-3.7001,-6.727429400000001,0.6678099000000001,4.5865626,-1
1262,1263,1580696468560,-5.9268,-2.5347,-4.6689997000000005,-7.10239,0.50880617,3.3777492,-1
1263,1264,1580696468570,-6.3275,-3.1374,-7.119,-7.1147149999999995,0.15501020000000001,2.1044552000000003,-1
1264,1265,1580696468580,-6.3275,-3.1374,-7.119,-6.452776,0.026460717,0.8452202,-1
1265,1266,1580696468590,-5.725,-3.3358,-8.3567,-5.3773865999999995,-0.17139612,-0.1321312,-1
1266,1267,1580696468600,-4.7415,-3.5705,-9.2899,-5.278314599999999,-0.31117916,-0.7776175999999999,-1
1267,1268,1580696468610,-4.8644,-3.8349998,-10.1057,-5.8117046,-0.8444158000000002,-1.5965493999999998,-1
1268,1269,1580696468620,-5.7212,-4.9066,-10.5203,-5.9834166,-1.4159021,-1.2766075000000001,-1
1269,1270,1580696468630,-5.7377,-5.0834,-9.9512,-5.8566675,-1.5522566999999998,-0.81293684,-1
1270,1271,1580696468640,-4.8157997,-5.1068,-9.423699000000001,-4.830235,-1.6345215,-0.26044124,-1
1271,1272,1580696468650,-3.1539,-4.6014,-9.1312,-3.0850437000000004,-1.2128356000000002,0.08219773,-1
1272,1273,1580696468660,-1.2068,-3.3488,-9.1684,-0.693198,0.066070385,0.09342175,-1
1273,1274,1580696468670,0.6799,-3.0144,-8.9141,0.9148053,0.17153977,0.36977008,-1
1274,1275,1580696468680,0.6799,-3.0144,-8.9141,2.4162571,0.02588611,0.9137519000000001,-1
1275,1276,1580696468691,5.6323,-2.9132,-6.7307997,6.102188,0.01937388,2.6313424,-1
1276,1277,1580696468701,6.3483996,-3.2179,-5.8188996,6.987353,-0.43988190000000005,3.5681267,-1
1277,1278,1580696468711,6.3483996,-3.2179,-5.8188996,6.4365816,-1.2814726,4.0640616000000005,-1
1278,1279,1580696468721,3.9743998,-4.9537,-5.562999700000001,4.8810972999999995,-2.4477072,3.884554,-1
1279,1280,1580696468731,3.4368,-5.7407,-5.2778997,4.392996299999999,-3.5495381,4.307437,-1
1280,1281,1580696468742,3.4127998,-5.8231997,-4.7648997,4.613818,-3.7815459000000002,4.950893,-1
1281,1282,1580696468752,4.7053,-6.0063996,-3.2164,6.215587,-4.247812000000001,6.855308,-1
1282,1283,1580696468762,7.1289997000000005,-5.535599700000001,-0.59529996,9.402491,-3.5771,10.031763,-1
1283,1284,1580696468773,9.9375,-4.2262,1.5160999,11.635486,-2.8004785,11.437513000000001,-1
1284,1285,1580696468783,11.965899,-3.3680000000000003,2.0093,13.672835999999998,-2.2330527,11.529815,-1
1285,1286,1580696468793,11.965899,-3.3680000000000003,2.0093,14.406238,-1.8165765,10.583712,-1
1286,1287,1580696468803,13.0359,-2.5605,1.1518999,14.296554,-1.9015037000000001,9.952055,-1
1287,1288,1580696468813,12.448899,-2.2942998,0.0787,13.141639000000001,-2.3160167,9.950407,-1
1288,1289,1580696468823,11.0063,-2.7756,0.82799995,11.545760000000001,-3.2157001,11.192442,-1
1289,1290,1580696468834,9.4236,-3.4543998,2.4775999,10.038427,-4.048451399999999,12.796625,-1
1290,1291,1580696468844,8.1963,-3.6553,3.6845,9.025652000000001,-4.2947764,13.632335999999999,-1
1291,1292,1580696468854,7.6633997,-3.2803998,3.888,8.943033,-4.0249786,13.365785,-1
1292,1293,1580696468864,8.5821,-2.7208,3.2918,10.522086,-3.4945002,12.459521,-1
1293,1294,1580696468874,9.7965,-1.9267,2.2974,11.09043,-3.1418726,11.582208999999999,-1
1294,1295,1580696468884,10.3835,-1.5252999,1.8484,11.511609,-3.1865482000000003,11.8140545,-1
1295,1296,1580696468895,10.6001,-1.2457,3.3325,11.526156,-3.0696442000000004,13.423465,-1
1296,1297,1580696468905,10.5392,-0.8174,6.3592997,11.433883999999999,-3.1242416,17.433369,-1
1297,1298,1580696468915,10.5447,-0.825,8.650499,11.37197,-3.3103572999999997,18.68073,-1
1298,1299,1580696468925,10.425099000000001,-0.703,10.033999,11.288833,-3.3876614999999997,20.05933,-1
1299,1300,1580696468936,10.3301,-0.4903,10.9585,10.988178,-3.4778078000000003,20.326849,-1
1300,1301,1580696468946,9.9234,-0.415,10.921,10.122762,-3.845155,19.967487,-1
1301,1302,1580696468956,9.1195,-0.5658,10.7837,9.366988000000001,-4.1452827,20.175478,-1
1302,1303,1580696468967,8.1938,-0.71199995,11.2932,8.460678,-4.3621300000000005,20.873255,-1
1303,1304,1580696468977,7.3732,-0.7266,12.194099000000001,7.8570804999999995,-4.497891,21.635901999999998,-1
1304,1305,1580696468987,6.6057997,-0.74939996,13.121799,6.909609,-4.7865553,22.81885,-1
1305,1306,1580696468997,6.065,-0.8109,14.1135,6.7214054999999995,-4.743402,23.664576,-1
1306,1307,1580696469007,5.8044996,-0.5488,15.0498,6.415962,-4.769068,24.306433,-1
1307,1308,1580696469017,5.5488,-0.6653,15.5938,6.1483,-5.3704243,24.775170000000003,-1
1308,1309,1580696469027,5.0383997,-1.4634999,16.1437,5.3092766,-6.3799443,25.068432,-1
1309,1310,1580696469037,3.7142,-2.6576,16.2938,3.1722502999999995,-7.8017262999999994,25.075901,-1
1310,1311,1580696469047,0.88839996,-4.102999700000001,16.2496,-0.09585425,-9.130202,24.897572,-1
1311,1312,1580696469057,-2.5769,-5.357199700000001,15.913799,-3.3046591,-9.840619,24.385319,-1
1312,1313,1580696469067,-5.6412997,-5.8926,15.2697,-6.03176,-10.082683,23.411339,-1
1313,1314,1580696469077,-7.7306,-6.2086,14.282,-7.169427400000001,-10.102917999999999,22.473137,-1
1314,1315,1580696469087,-9.0377,-6.2662,13.0317,-8.136925,-9.843674,21.053410999999997,-1
1315,1316,1580696469097,-9.6953,-6.1945,11.8453,-8.155417,-9.531901,20.397202,-1
1316,1317,1580696469108,-9.4145,-5.8722997,11.0976,-7.182978599999999,-8.829892,19.855488,-1
1317,1318,1580696469118,-8.1831,-5.1942,10.4557,-5.8135047,-7.794620500000001,19.014242000000003,-1
1318,1319,1580696469128,-7.1815996,-4.611799700000001,9.663799000000001,-5.379014499999999,-7.289798299999999,18.46077,-1
1319,1320,1580696469138,-6.9462,-4.3789997000000005,9.0762,-5.875955,-7.0782466,17.540132999999997,-1
1320,1321,1580696469148,-7.6106,-4.5118,7.9389997,-6.7639165,-7.380088300000001,16.024172,-1
1321,1322,1580696469159,-8.5498,-5.1351,6.263999999999999,-7.4409776,-7.564078299999999,14.612023,-1
1322,1323,1580696469169,-9.2972,-5.5927,4.457,-7.652357,-7.7442465,12.871304499999999,-1
