,Seq,Time,ACCx,ACCy,ACCz,ADGx,ADGy,ADGz,Keydown
0,1,1580697149754,0.48169997,0.0128999995,-0.3498,0.47622585,-4.0046473,8.618216499999999,-1
1,2,1580697149764,0.0,-0.0579,-1.2346,0.077792406,0.46327803,8.484542999999999,-1
2,3,1580697149774,0.33949998,0.2022,-1.5368998999999999,0.494259,1.0849853,8.222005000000001,-1
3,4,1580697149784,0.6486,0.5108,-1.5065998999999999,0.7363798,1.4071106000000002,8.35426,-1
4,5,1580697149794,0.6404,0.5348,-1.2523,0.6094009,1.3942584999999998,8.673675999999999,-1
5,6,1580697149805,0.4122,0.30249998,-0.9420000000000001,0.37546828,1.2559408,8.899813,-1
6,7,1580697149815,0.2996,0.2105,-0.8592,0.5038837,1.2567836000000001,8.768322999999999,-1
7,8,1580697149825,0.5742,0.2103,-1.1491,0.75491095,1.2859737,8.456446000000001,-1
8,9,1580697149835,0.8128,0.1918,-1.5762999,0.9553152,1.3622433,8.004448,-1
9,10,1580697149845,0.83239996,0.3258,-1.847,0.8900684000000001,1.614506,7.973678,-1
10,11,1580697149855,0.7345,0.4877,-1.6037999,0.87113506,1.7124958,8.244386,-1
11,12,1580697149866,0.8933,0.4982,-0.8603,1.2934053,1.8381721999999998,9.343678,-1
12,13,1580697149876,1.2258999,0.5832,-0.1627,1.8200914000000001,2.0116944,9.732027,-1
13,14,1580697149886,1.6758,0.6714,0.0415,2.2776327000000003,2.1982987,9.685705,-1
14,15,1580697149896,1.9296999,0.74539995,-0.1682,2.6819656000000003,2.3175488,9.339226,-1
15,16,1580697149906,2.0557,0.6202,-0.4138,2.8535627999999997,2.14893,9.198503500000001,-1
16,17,1580697149916,1.8737999,0.4141,-0.3646,2.754414,2.1554902,9.479957,-1
17,18,1580697149927,1.4571999,0.40039998,0.1453,2.5598419999999997,2.0967462,10.105724,-1
18,19,1580697149937,0.67719996,0.1276,0.8433,2.4284196,1.8799176,10.469441,-1
19,20,1580697149947,0.5749,-0.1863,1.1815,2.4103482000000005,1.5068914,10.745052000000001,-1
20,21,1580697149957,0.6437,-0.4466,1.2945,2.5622747,1.2935584999999998,10.746891999999999,-1
21,22,1580697149967,0.9528,-0.55689996,1.1547999,3.070123,1.3189465,10.5059395,-1
22,23,1580697149977,1.5114,-0.43559998,1.0267,3.8181962999999994,1.5133462,10.678533,-1
23,24,1580697149987,2.0656,-0.2332,1.2717,4.083742,1.7247637999999998,11.1366205,-1
24,25,1580697149998,2.2279,-0.0148,1.7703999,4.0960765,1.8511871,11.579116,-1
25,26,1580697150008,2.2082,0.1105,2.1498,4.0054417,1.6688927,11.856278,-1
26,27,1580697150018,2.0972,-0.115399994,2.4099,3.7734056000000002,1.2506542999999999,12.078853,-1
27,28,1580697150028,1.8544999,-0.53679997,2.6492999,3.5510417999999997,0.81351143,12.503661,-1
28,29,1580697150039,1.6524999,-0.91749996,3.1236,3.4021702000000005,0.32663614,13.237809,-1
29,30,1580697150048,1.5403999,-1.2813,3.7336998,3.243674,-0.041984722,13.948064000000002,-1
30,31,1580697150059,1.3333,-1.7242,4.6531,3.0103638,-0.57410085,14.953322,-1
31,32,1580697150069,1.058,-2.2307,5.6108,2.4719558,-1.2733035,15.708232999999998,-1
32,33,1580697150079,0.5833,-2.7691,6.1951,2.0140696,-1.7498837,16.20775,-1
33,34,1580697150089,0.1423,-3.222,6.6889,1.5774629,-2.1794515,16.937588,-1
34,35,1580697150100,-0.8207,-4.0113,8.144,0.8364766,-2.6484084,17.81605,-1
35,36,1580697150111,-1.7809,-4.3658,8.7922,-0.24912147,-3.021042,18.433735000000002,-1
36,37,1580697150121,-2.7707999,-4.7883,9.1279,-1.3829962,-3.557554,18.721058,-1
37,38,1580697150131,-3.6708998999999998,-5.4445,9.0266,-2.2709577000000003,-4.1230836,18.406538,-1
38,39,1580697150141,-4.5824,-5.9946,8.185599,-3.1603844,-4.528719000000001,17.511938,-1
39,40,1580697150151,-5.4733996,-6.3833,6.986799700000001,-4.104342,-4.772476999999999,16.309704,-1
40,41,1580697150162,-6.3845,-6.5937,5.8774,-5.0423803,-4.8610435,15.217488000000001,-1
41,42,1580697150172,-7.0028,-6.7654,5.0197997,-5.67783,-4.9609776,14.443242000000001,-1
42,43,1580697150182,-7.513,-7.027,4.5790997,-6.308453,-5.1545819999999996,14.066625,-1
43,44,1580697150192,-8.0139,-7.1045,4.4182,-6.93425,-5.142305,13.937519,-1
44,45,1580697150202,-8.6147995,-7.183399700000001,4.2357,-7.873763,-5.050626,13.615442000000002,-1
45,46,1580697150212,-9.3038,-6.914499799999999,3.7122,-8.623723,-4.7123733,12.950064999999999,-1
46,47,1580697150222,-9.6153,-6.6534,2.8425999,-8.820096000000001,-4.3743787,11.946827,-1
47,48,1580697150233,-9.401999,-6.3655996,1.6387,-8.651697,-3.9774106,10.658775,-1
48,49,1580697150243,-9.1418,-6.1148,0.38349998,-8.553649,-3.7101983999999995,9.647302,-1
49,50,1580697150253,-8.9539995,-5.9096,-0.81799996,-8.463311000000001,-3.3436177000000002,8.459022000000001,-1
50,51,1580697150263,-8.5999,-5.5578,-1.7199,-8.151759,-2.815677,7.5739613,-1
51,52,1580697150273,-8.2095995,-5.0863,-2.2981,-7.820784,-2.0615897000000003,6.939019,-1
52,53,1580697150283,-7.9853997,-4.6575,-2.5353,-7.670553,-1.6248201999999998,6.841671000000001,-1
53,54,1580697150294,-7.8083,-4.5162997,-2.4322,-7.645539,-1.4426981,6.915575,-1
54,55,1580697150304,-7.824,-4.5785,-2.3312,-7.746066000000001,-1.4740813,6.986836,-1
55,56,1580697150314,-7.8771996,-4.8408,-2.2598999,-7.8915186,-1.7222738000000002,6.999353,-1
56,57,1580697150324,-7.8153996,-5.1726,-2.2846,-7.762701,-1.9308949,6.8596845,-1
57,58,1580697150334,-7.436899700000001,-5.3062,-2.6187,-7.4469924,-1.8238263,6.440996,-1
58,59,1580697150344,-6.8275,-5.1463,-3.4961998,-6.754713499999999,-1.5483015,5.155999700000001,-1
59,60,1580697150355,-6.1782,-5.129699700000001,-4.6731,-6.280268700000001,-1.4483197,4.2084220000000006,-1
60,61,1580697150365,-5.501,-5.111399700000001,-5.5151997,-5.5328565,-1.3285617,3.2850937999999994,-1
61,62,1580697150375,-4.8595,-5.3016996,-6.0052,-5.0303135,-1.4756901000000002,2.8547884999999997,-1
62,63,1580697150385,-4.468899700000001,-5.513099700000001,-6.3011,-4.6870613,-1.5601863,2.3803728,-1
63,64,1580697150395,-4.1306,-5.619,-6.7949996,-4.390985,-1.450484,1.6799346999999998,-1
64,65,1580697150405,-3.8335,-5.5615,-7.5063996,-4.1832256,-1.3162938,0.8470207000000001,-1
65,66,1580697150415,-3.5521,-5.4477997,-8.328,-3.8852531999999997,-1.0505086000000001,0.19340362,-1
66,67,1580697150426,-3.0297,-5.013,-8.9862995,-3.0836650000000003,-0.41947374,-0.63189685,-1
67,68,1580697150436,-2.1850998,-4.6106,-9.6092,-2.3088915,0.013053186999999999,-1.0347931000000001,-1
68,69,1580697150446,-1.1506,-4.1516,-9.903399,-1.0449158,0.48991114,-1.2068021,-1
69,70,1580697150456,-0.21589999,-3.9559998999999997,-9.8901,-0.10308475,0.74004775,-1.064194,-1
70,71,1580697150467,0.6579999999999999,-3.6671,-9.6002,0.7908048000000001,1.1649227,-0.69813967,-1
71,72,1580697150478,1.4077,-3.2621999,-9.2312,1.5393663999999998,1.6015965,-0.35478237,-1
72,73,1580697150488,2.1362,-2.7998,-8.891,2.6267936,2.1281197,0.046648625,-1
73,74,1580697150498,3.0119,-2.3601,-8.5982,3.650401,2.4779415,0.35009933,-1
74,75,1580697150508,4.0024,-1.9676,-8.2717,4.758543,2.8530073,0.7883819000000001,-1
75,76,1580697150518,5.0709,-1.5595,-7.8592997,6.120039,3.2875645,1.1131792999999999,-1
76,77,1580697150528,6.3304,-1.1027,-7.5734,7.2233834,3.4960709000000003,1.3813874,-1
77,78,1580697150538,7.2395,-0.90169996,-7.3444996,7.9053187000000005,3.4741209000000004,1.5694088,-1
78,79,1580697150548,7.7365,-0.9420000000000001,-7.1945996,8.179492999999999,3.1903502999999995,1.7279241,-1
79,80,1580697150559,7.8585,-1.2150999,-7.0204,8.2696295,3.0635152000000003,2.2091298,-1
80,81,1580697150569,7.8335,-1.1247,-6.452999999999999,8.674682,3.946736,3.3890307,-1
81,82,1580697150579,8.1542,-0.21779999,-5.4926,9.433088,4.698658999999999,4.231876000000001,-1
82,83,1580697150589,9.1095,0.8118,-4.4978,11.084216,5.287068,5.0704694,-1
83,84,1580697150599,10.3892,1.3427,-3.8927998999999995,12.145757000000001,5.069913400000001,5.086836,-1
84,85,1580697150610,11.3594,1.2168,-3.9083997999999998,12.888983999999999,4.1807547,4.576114,-1
85,86,1580697150620,11.991099,0.4116,-4.4553,13.109097,3.1074536,4.2790610000000004,-1
86,87,1580697150630,12.0241995,-0.82699996,-4.249,13.151694,2.7513208,4.820457,-1
87,88,1580697150640,12.0241995,-0.82699996,-4.249,12.853186,3.1736007,6.235526,-1
88,89,1580697150650,11.6031,-0.2795,-2.8689999999999998,13.057527,4.121657,8.112771,-1
89,90,1580697150660,12.312099,1.7191,0.6275,13.80287,4.8458065999999995,9.818516,-1
90,91,1580697150671,13.1327,1.7673,1.4807,14.972888000000001,4.6436977,10.762042,-1
91,92,1580697150681,14.1769,1.5223,1.3719999999999999,16.108582000000002,4.2407155,10.506428,-1
92,93,1580697150691,14.962,1.2594,0.51879996,16.77665,3.7982093999999997,9.625103,-1
93,94,1580697150701,15.4842,0.73749995,-0.4842,17.467482,3.1784081000000004,8.613772,-1
94,95,1580697150711,15.4233,0.3028,-1.1815,17.186757999999998,2.7148044,8.069924,-1
95,96,1580697150721,13.3968,0.19559999,-0.8619,14.884004999999998,2.4877192999999997,8.629066,-1
96,97,1580697150732,10.84,-0.2836,0.0409,12.469567,1.8160307,9.474307000000001,-1
97,98,1580697150742,8.9941,-1.0291,0.2023,10.770327,0.9145946,9.529009,-1
98,99,1580697150752,7.4603,-1.9165,-0.083,9.192834,-0.108237065,9.234311,-1
99,100,1580697150762,6.1603,-2.6945999,-0.5376,7.96413,-0.95851386,8.7902355,-1
100,101,1580697150772,5.4322,-3.2523,-1.147,7.3061074999999995,-1.6067200000000001,8.166889999999999,-1
101,102,1580697150782,4.9105,-3.6764,-1.8484,6.865727400000001,-2.027975,7.632313000000001,-1
102,103,1580697150792,4.0618,-3.9996998,-2.3567,5.7746900000000005,-2.509583,7.027900999999999,-1
103,104,1580697150803,4.0618,-3.9996998,-2.3567,4.650229,-2.7982855,6.3819265,-1
104,105,1580697150813,1.5113,-4.3507,-3.7515,3.1301696,-2.966234,5.60542,-1
105,106,1580697150823,-0.428,-4.3932,-4.3052998,0.54832965,-3.0958176,5.1107492,-1
106,107,1580697150833,-2.8741999,-4.654,-4.5902,-1.3680371999999998,-3.5048814,4.871462999999999,-1
107,108,1580697150843,-4.9460998,-5.6331,-4.8838,-3.5271190000000003,-4.903660299999999,4.6102843,-1
108,109,1580697150853,-6.3665,-6.8954,-4.7760997000000005,-4.705928,-6.3298287,5.008478599999999,-1
109,110,1580697150864,-7.3078,-8.3046,-3.8544,-5.534619,-7.825429,6.158777,-1
110,111,1580697150874,-8.2859,-9.3588,-2.7069,-6.5487165,-8.656657000000001,7.155656,-1
111,112,1580697150884,-9.6859,-9.4741,-1.9143,-8.151164999999999,-8.627256,7.8606143,-1
112,113,1580697150894,-11.436399,-8.803599,-1.4266,-9.640205,-7.938464,8.294664,-1
113,114,1580697150904,-12.4272995,-7.9282,-0.7798,-10.391228,-7.376947400000001,9.299808,-1
114,115,1580697150914,-13.075999000000001,-7.4321,0.85469997,-10.858365,-7.4177446,11.2147665,-1
115,116,1580697150924,-13.438398999999999,-7.6052,3.0393,-11.015042,-8.012243,13.38219,-1
116,117,1580697150934,-13.5218,-8.045,4.9701,-10.955848,-8.707224,15.078644,-1
117,118,1580697150944,-13.5595,-8.299399000000001,5.7605,-10.901442999999999,-9.1349325,15.100517000000002,-1
118,119,1580697150955,-13.671498999999999,-8.7156,5.2860000000000005,-11.241227,-9.695300999999999,14.413151999999998,-1
119,120,1580697150965,-14.4572,-8.6699,5.0051,-11.9109335,-9.273558,14.941284,-1
120,121,1580697150975,-14.627998999999999,-7.6734,6.3146996,-11.456906,-8.322944999999999,17.14304,-1
121,122,1580697150985,-13.8352995,-6.5624,9.0533,-10.33685,-7.680235400000001,20.13266,-1
122,123,1580697150995,-12.6726,-5.8272,11.955299,-9.33618,-7.5243344,22.330462,-1
123,124,1580697151005,-11.769,-5.5102,13.474,-8.468022999999999,-7.521605,22.464153,-1
124,125,1580697151016,-10.8638,-5.2311997,12.7659,-7.6778889999999995,-7.3489059999999995,20.762182,-1
125,126,1580697151026,-10.0667,-4.8043,10.7088995,-7.141032000000001,-6.914895,18.451604999999997,-1
126,127,1580697151036,-9.5349,-4.165,8.5436,-6.480203599999999,-6.4492226,16.91742,-1
127,128,1580697151046,-8.708,-3.6973,7.829,-5.3024572999999995,-6.2449975,17.890242,-1
128,129,1580697151056,-7.3357,-3.2947,9.163,-3.7011101,-5.8482685,19.924889999999998,-1
129,130,1580697151066,-5.6049,-2.7561998,11.230599,-2.3437127999999996,-5.6586957,21.239069,-1
130,131,1580697151077,-3.7080998,-2.3955998,12.6296,-0.24809675,-5.3571987000000005,21.896202,-1
131,132,1580697151087,-1.9408,-1.9864998999999999,12.7919,0.9051806,-5.087583,21.298970999999998,-1
132,133,1580697151097,-0.4886,-1.5516,11.7513,1.8821298999999998,-4.76427,19.84685,-1
133,134,1580697151108,0.457,-1.2551,10.1664,2.563989,-4.6402407,18.426151,-1
134,135,1580697151118,1.1338,-1.1784999,9.3101,3.2280352000000003,-4.42052,18.739244,-1
135,136,1580697151128,2.0798,-0.89159995,9.8188,4.900155000000001,-4.2191105,19.644405,-1
136,137,1580697151138,3.6947,-0.74619997,10.5358,5.904733,-4.1362615,19.83895,-1
137,138,1580697151149,5.0449,-0.63,10.7001,6.8842300000000005,-3.89437,19.539242,-1
138,139,1580697151159,6.1545997,-0.44039997,10.2374,7.97273,-3.6122375,18.570127,-1
139,140,1580697151169,7.3599997,-0.2193,9.1172,8.819359,-3.2662754,17.467980999999998,-1
140,141,1580697151179,8.2578,0.0423,8.087999,9.754380000000001,-2.5486276,17.005392,-1
141,142,1580697151189,9.1588,0.5462,7.7050996,10.352432,-1.9105154999999998,16.714304000000002,-1
142,143,1580697151199,9.8473,1.0518,7.3722,10.626616499999999,-1.4874313,16.302387,-1
143,144,1580697151210,10.2259,1.3283,6.9112,10.567594999999999,-1.3967773,15.43198,-1
144,145,1580697151220,10.2501,1.2610999,5.9874,10.127703,-1.7967143,14.153773000000001,-1
145,146,1580697151230,9.880199000000001,0.6698,4.6496997,9.668792,-2.1116377999999996,12.698080000000001,-1
146,147,1580697151240,9.415,0.0042,1.5223,9.567528,-2.0091088,11.1309595,-1
147,148,1580697151251,9.6792,0.1547,-0.0863,9.8229885,-1.5997864,9.570822,-1
148,149,1580697151261,10.037499,0.5295,-1.3547,10.161489999999999,-0.9817089,8.345516,-1
149,150,1580697151271,10.3375,0.91789997,-2.2026,10.475197,-0.34588552,7.5310283,-1
150,151,1580697151281,10.5903,1.1508,-2.6304,10.758230000000001,0.19264705,7.100024,-1
151,152,1580697151291,10.6374,1.2477,-2.7178,10.850455,0.47144705,7.012875599999999,-1
152,153,1580697151301,10.756499,1.232,-3.1334,11.037146,0.6089986999999999,6.459767,-1
153,154,1580697151312,10.756499,1.232,-3.1334,11.15085,0.5978609,6.013593,-1
154,155,1580697151322,10.643599499999999,0.9086,-4.0119,10.809256,0.5789276,5.833798000000001,-1
155,156,1580697151332,9.9696,0.695,-3.6025,10.13434,0.47441587,6.367743,-1
156,157,1580697151342,9.0582,0.2427,-2.7686,9.220502,0.12150095,7.2214103000000005,-1
157,158,1580697151353,7.8826,-0.1418,-2.0108,7.8884063,-0.24486937,8.014169,-1
158,159,1580697151363,6.9347997,-0.67429996,-1.535,7.296904,-0.5962137,8.32259,-1
159,160,1580697151373,6.2283998,-1.2348,-1.5274,6.677275,-1.0905397,8.114457000000002,-1
160,161,1580697151383,5.7072997,-1.6719998999999999,-2.0169,6.0923524,-1.2047335,7.455812,-1
161,162,1580697151393,4.9221997,-1.6394,-2.8658,5.516652,-0.8945025,6.521709400000001,-1
162,163,1580697151403,4.7723,-1.4949,-3.6929998,5.7676606,-0.62725216,5.9047623,-1
163,164,1580697151414,5.1012,-1.3577,-3.8435,6.0135736,-0.43147346,6.081962,-1
164,165,1580697151424,4.9024,-1.4525,-3.1627998,5.570196,-0.62766397,6.995694,-1
165,166,1580697151434,3.9536,-1.9503,-2.0735,4.339117,-1.1236659,8.024397,-1
166,167,1580697151444,2.3205,-2.5825,-1.1432999,2.5713630000000003,-1.6828269,8.888838,-1
167,168,1580697151454,0.39429998,-3.0630999,-0.3789,0.391519,-2.0922546000000004,9.571933,-1
168,169,1580697151464,-1.2125,-3.3571,-0.0611,-0.61551094,-2.1375527,9.614519999999999,-1
169,170,1580697151475,-2.1708,-3.3622,-0.25689998,-1.2328702,-1.926461,9.086905499999999,-1
170,171,1580697151485,-2.5159,-3.2368,-1.1934,-1.4975348999999998,-1.761194,7.7271137,-1
171,172,1580697151496,-2.872,-3.3432,-2.2976,-2.051036,-1.8236729999999999,6.865344500000001,-1
172,173,1580697151506,-3.5331,-3.5625,-2.8981,-2.6445682,-1.9663099,6.620427,-1
173,174,1580697151516,-4.0017,-3.699,-2.9089,-3.075103,-1.9410366999999997,6.9426483999999995,-1
174,175,1580697151526,-4.4181,-3.6504998,-2.4064,-3.4595735,-1.822064,7.596419,-1
175,176,1580697151536,-4.7448997,-3.4954998,-1.7013999,-3.790117,-1.603895,8.275779,-1
176,177,1580697151547,-5.0299,-3.3067,-1.1139,-4.078130000000001,-1.4872493999999998,8.581978,-1
177,178,1580697151557,-5.3596,-3.2991,-1.0641999,-4.4848857,-1.5406208000000001,8.275136999999999,-1
178,179,1580697151567,-5.7026997,-3.3739998,-1.5048,-4.833299,-1.6954011999999998,7.657366000000001,-1
179,180,1580697151577,-5.9474998,-3.5347,-1.9862,-5.112769999999999,-1.8122574,7.468664599999999,-1
180,181,1580697151587,-6.1773996,-3.6088998,-2.1262,-5.1589303,-1.6396546000000003,7.4755020000000005,-1
181,182,1580697151597,-6.1138997,-3.4088,-2.1109999999999998,-4.9513144,-1.4570729,7.5505843,-1
182,183,1580697151608,-5.8752,-3.2189,-2.0091,-4.6890917000000005,-1.2255344,7.79667,-1
183,184,1580697151618,-5.5580997000000005,-2.9299998,-1.7519999999999998,-4.295657599999999,-0.8216899999999999,8.146405,-1
184,185,1580697151628,-5.0841,-2.4645,-1.3887999,-3.6536093000000003,-0.33834857,8.519518,-1
185,186,1580697151639,-4.354,-1.9331,-1.0365,-2.8784528,0.18101123,8.815977,-1
186,187,1580697151649,-3.5741,-1.3906,-0.77239996,-2.0572033,0.74639714,9.097985000000001,-1
187,188,1580697151659,-2.8455,-0.89159995,-0.5463,-1.5176174999999998,1.0235499,9.306903,-1
188,189,1580697151669,-2.29,-0.58739996,-0.34739998,-1.0804937,1.1193563,9.393305999999999,-1
189,190,1580697151679,-1.8312,-0.47129998,-0.2635,-0.87003374,1.1834156999999998,9.152439,-1
190,191,1580697151690,-1.6032,-0.3964,-0.5107,-0.9138572,1.1909908,8.549407,-1
191,192,1580697151700,-1.6358,-0.3875,-1.11,-1.1307718999999998,1.2255631999999999,8.037478,-1
192,193,1580697151710,-1.8449,-0.41529998,-1.7624999,-1.1619348999999999,1.1508448,7.907972,-1
193,194,1580697151720,-1.7552999,-0.5096,-1.5029,-1.0958643999999997,1.0437762,8.164361999999999,-1
194,195,1580697151730,-1.5619,-0.45659998,-0.9504,-0.9284331,1.0546267,8.726386999999999,d
195,196,1580697151741,-1.5619,-0.45659998,-0.9504,-0.7776367,1.0724013000000001,9.248275,-1
196,197,1580697151750,-1.3655,-0.39049998,-0.32899999999999996,-0.45418963,1.1531528,9.771724,-1
197,198,1580697151760,-0.5958,-0.0378,0.1718,0.054817643,1.3815885,9.872442,-1
198,199,1580697151770,-0.0546,0.3241,0.0905,0.5925074,1.7304428,9.786471,-1
199,200,1580697151780,0.3442,0.5947,-0.1572,0.97998506,1.9799759999999997,9.548038499999999,-1
200,201,1580697151790,0.3442,0.5947,-0.1572,1.1665126000000001,1.9701407,9.313521000000001,-1
201,202,1580697151801,0.564,0.5904,-0.4447,1.1228038999999999,1.8895041000000001,9.0350275,-1
202,203,1580697151812,0.2651,0.353,-0.7265,0.7989451,1.6321943,8.982796,-1
203,204,1580697151822,0.0083,0.067099996,-0.6137,0.53206825,1.3228444,9.167982,-1
204,205,1580697151832,-0.1651,-0.0765,-0.14800000000000002,0.33464235,1.1868919,9.801354,-1
205,206,1580697151842,-0.221,-0.0444,0.39679998,0.33836773,1.1984223999999999,10.196771,-1
206,207,1580697151853,-0.14649999,-0.0088,0.62909997,0.44574288,1.2045516,10.365878,-1
207,208,1580697151863,-0.14649999,-0.0088,0.62909997,0.54431695,1.2960483999999999,10.268741,-1
208,209,1580697151873,0.13,0.24929999,0.33139998,0.8155992,1.4741483,10.012551,-1
209,210,1580697151883,0.42,0.39409998,0.28,1.0921295,1.6395398,10.065319,-1
210,211,1580697151894,0.66679996,0.57739997,0.4429,1.2419011999999998,1.736457,10.310783,-1
211,212,1580697151904,0.6938,0.59419996,0.8693,1.1940746000000002,1.6402292,10.856736999999999,-1
212,213,1580697151914,0.6692,0.49809998,1.4818,1.1842871000000001,1.5147921999999998,11.608564,-1
213,214,1580697151924,0.6931,0.4578,2.0953999,1.1750167999999999,1.4259098999999997,12.1199,-1
214,215,1580697151935,0.65889996,0.39799999999999996,2.4947999,1.1305133,1.3890966999999999,12.324411999999999,-1
215,216,1580697151945,0.5635,0.4359,2.6011999,1.0689728,1.4805073999999998,12.342215,-1
216,217,1580697151955,0.5708,0.58599997,2.5609,1.1802073999999998,1.5906118,12.402194,-1
217,218,1580697151965,0.778,0.6008,2.9614,1.3558940000000002,1.5333808999999998,13.211482,-1
218,219,1580697151975,0.8113,0.6411,3.7928,1.2785516000000001,1.6157413999999999,13.99565,-1
219,220,1580697151986,0.7136,0.7126,4.4276,1.1518313,1.5427278,14.270610999999999,-1
220,221,1580697151996,0.6164,0.6508,4.4349,1.0574806,1.5405346000000002,14.008348999999999,-1
221,222,1580697152006,0.5566,0.66749996,4.1289,1.0278978,1.5275869,13.755541000000001,-1
222,223,1580697152016,0.6439,0.5977,3.912,1.1818066999999999,1.4098687,13.565701,-1
223,224,1580697152027,0.8556,0.49249998,3.7252,1.3783226999999998,1.2159288000000001,13.3478565,-1
224,225,1580697152037,0.95549995,0.25419998,3.5686,1.1150563999999998,1.0475589,13.299273499999998,-1
225,226,1580697152047,0.6008,0.11,3.5203998,0.9227445,1.1047517,13.299273499999998,-1
226,227,1580697152057,0.598,0.19129999,3.5410000000000004,0.8731462,1.1091954,13.30206,-1
227,228,1580697152067,0.48999998,0.15709999,3.5123,0.54285175,1.1035546,13.105985,-1
228,229,1580697152077,0.16899999999999998,0.1586,3.2963998,0.23037967,1.1055848999999998,12.889625,-1
229,230,1580697152088,-0.053299997,0.14209999,3.0691,0.07096414,0.98308796,12.653021,-1
230,231,1580697152098,-0.1286,-0.0673,2.7523,0.18593370000000004,0.51836383,12.328645,-1
231,232,1580697152108,0.1512,-0.5136,2.5037,0.46458048,0.16966270000000003,12.221337,-1
232,233,1580697152119,0.47759998,-0.72639996,2.4227998,0.54776466,0.35731068,12.173386,-1
233,234,1580697152129,0.5769,-0.46949998,2.4219999999999997,0.21667525,0.50190127,12.435609,-1
234,235,1580697152139,0.23079999,-0.3821,2.7364,-0.36658102,0.47249090000000005,12.677327,-1
235,236,1580697152149,-0.2916,-0.42459998,2.8952,-0.7483125,0.34989822,12.4514675,-1
236,237,1580697152159,-0.5277,-0.5686,2.6829,-0.6347603,0.23332931,11.93094,-1
237,238,1580697152170,-0.35709998,-0.7265,2.1585,-0.53474975,0.23670036,11.349254,-1
238,239,1580697152180,-0.1681,-0.7872,1.4201,-0.5565656999999999,0.019364303,10.295910000000001,-1
239,240,1580697152190,-0.145,-1.0485,0.54609996,-0.87253326,-0.23401885,9.577468,-1
240,241,1580697152200,-0.37539998,-1.3363,-0.16,-1.0026629999999999,-0.33955526,9.086704,-1
241,242,1580697152210,-0.3452,-1.2621,-0.9133,-0.9972233,-0.066223614,8.806811999999999,-1
242,243,1580697152220,-0.3452,-1.2621,-0.9133,-0.96969956,0.4046488,8.800377000000001,-1
243,244,1580697152231,-0.078499995,-0.7646,-0.68439996,-0.810964,0.61521405,9.036493,-1
244,245,1580697152241,0.0918,-0.63839996,-0.868,-0.6908804000000001,0.77101916,8.810997,-1
245,246,1580697152251,0.2025,-0.6179,-1.3931999,-0.633659,0.89901316,8.189797,-1
246,247,1580697152261,-0.0021,-0.61109996,-1.6915,-0.8596334000000001,0.96271807,7.962281699999999,-1
247,248,1580697152271,-0.22899999,-0.6466,-2.2338998,-1.1167993999999999,1.0305601,7.2364845,-1
248,249,1580697152282,-0.1999,-0.5961,-2.9808998,-1.0892084999999998,1.172067,6.526153,-1
249,250,1580697152292,0.0128,-0.5811,-3.4338,-0.8664136999999998,1.2717136999999998,6.0908012000000005,-1
250,251,1580697152302,0.2038,-0.6375,-3.7305,-0.7413119,1.2658143999999998,5.82425,-1
251,252,1580697152312,0.1594,-0.75409997,-3.8026998,-0.87985,1.2262144,5.771386,-1
252,253,1580697152323,-0.1498,-0.73429996,-3.7487998,-1.214569,1.3343459999999998,5.814108,-1
253,254,1580697152333,-0.33179998,-0.49159998,-3.6076998999999996,-1.3700197,1.6836218999999997,5.9699707,-1
254,255,1580697152343,-0.29299998,-0.0187,-3.3894,-1.3321818,2.2002043999999996,6.1924014000000005,-1
255,256,1580697152353,-0.20099999,0.22039999,-3.1325998,-1.2212919,2.4383605,6.45721,-1
256,257,1580697152363,-0.0268,0.2427,-2.9936,-1.0056220999999999,2.4417120999999997,6.494703299999999,-1
257,258,1580697152373,0.23009999,0.0959,-3.0702,-0.756041,2.267922,6.362476,-1
258,259,1580697152384,0.4148,-0.25669998,-3.2057,-0.69980603,1.9106495,6.2448344,-1
259,260,1580697152394,0.1776,-0.6153,-3.3126,-1.0598364,1.7369646,6.0702586,-1
260,261,1580697152404,-0.0923,-0.62229997,-3.4991,-1.15254,1.840327,5.964435,-1
261,262,1580697152415,-0.053799997999999995,-0.46109998,-3.3348,-1.1538999,2.0382414,6.3342056,-1
262,263,1580697152425,-0.0933,-0.3247,-2.6543,-1.1480101,2.1530004000000003,7.3201089999999995,-1
263,264,1580697152435,-0.014099998999999998,-0.2251,-1.8395,-1.1015818000000002,2.3077134999999998,7.848173599999999,-1
264,265,1580697152445,-0.0212,0.0444,-1.4175999,-1.0624413000000001,2.6396935,8.040965,-1
265,266,1580697152455,0.2268,0.27989998,-1.4455999,-0.6849715999999999,2.8218062,7.9103656,-1
266,267,1580697152466,0.5775,0.41959998,-1.6193,-0.45404598,2.8321009999999998,7.776864999999999,-1
267,268,1580697152476,0.71709996,0.3585,-1.7041998999999999,-0.5022555999999999,2.806148,7.677467299999999,-1
268,269,1580697152486,0.5419,0.2873,-1.7890999,-0.67267495,2.619132,7.634458,-1
269,270,1580697152496,0.44669998,0.053299997,-1.8061,-0.7271765,2.3786585,7.647539999999999,-1
270,271,1580697152506,0.2962,-0.15429999,-1.7167,-1.2429738000000001,2.2581057999999996,7.936319,-1
271,272,1580697152517,-0.1751,-0.22729999,-1.413,-1.5758157,2.2073102000000002,8.289943,-1
272,273,1580697152527,-0.5118,-0.24689999,-0.9734,-1.6782110000000001,2.290571,8.787965,-1
273,274,1580697152537,-0.48459998,-0.131,-0.5933,-1.5681254999999998,2.4090266,8.937057000000001,-1
274,275,1580697152547,-0.3967,-0.0011999999,-0.51669997,-1.4519589,2.6122272,8.83539,-1
275,276,1580697152557,-0.2642,0.2016,-0.6353,-1.1995813,2.7922235,8.791642,-1
276,277,1580697152568,-0.0287,0.38349998,-0.6365,-0.9232999,2.8855782000000003,8.859619,-1
277,278,1580697152578,0.3387,0.4389,-0.50119996,-0.4901697,2.7811239,9.245574000000001,-1
278,279,1580697152588,0.6141,0.25259998,-0.1024,-0.34135570000000004,2.4006853,9.750281,-1
279,280,1580697152598,0.68399996,-0.096,0.37379998,-0.47812206,2.2971504,9.987259,-1
280,281,1580697152608,0.4666,-0.14919999,0.56619996,-0.92797345,2.2527616000000004,10.217917,-1
281,282,1580697152619,-0.015999998999999997,-0.1822,0.8183,-1.1938926,2.4009723999999997,10.530475,-1
282,283,1580697152629,-0.20099999,-0.030499997999999997,1.0712,-1.0309719000000002,2.5146012000000004,10.5513525,-1
283,284,1580697152639,-0.0133,0.0955,1.0706999,-0.9165962,2.5833244,10.402921000000001,-1
284,285,1580697152649,0.0872,0.1655,0.8858,-0.7422121,2.6940227,10.021343,-1
285,286,1580697152660,0.2967,0.2482,0.4576,-0.42701066,2.7167196,9.46517,-1
286,287,1580697152670,0.54499996,0.2374,0.0112,-0.5028590000000001,2.6921362999999996,9.328777,-1
287,288,1580697152680,0.45979998,0.19749999,-0.111499995,-0.69350445,2.6552846000000003,9.4883175,-1
288,289,1580697152691,0.0622,0.103199996,0.4732,-0.8972989,2.6287568,9.915682,-1
289,290,1580697152701,-0.049,0.11699999999999999,0.7696,-1.0070395,2.6476040000000003,10.205975,-1
290,291,1580697152711,-0.2593,-0.024799999,0.8803,-1.2308591999999998,2.5179245,10.318703,-1
291,292,1580697152721,-0.5614,-0.1191,0.8057,-1.5599756,2.4225202,10.2407,-1
292,293,1580697152731,-0.7151,-0.119799994,0.4971,-1.7203680000000001,2.4422295,9.82995,-1
293,294,1580697152742,-0.5403,-0.08779999599999999,0.042799998,-1.5466543,2.4871159,9.372926,-1
294,295,1580697152752,-0.3035,-0.0411,-0.4206,-1.3007506000000002,2.5836596000000003,8.920748,-1
295,296,1580697152762,0.0149,0.0831,-0.6394,-0.97201717,2.7274938,8.771934,-1
296,297,1580697152772,0.318,0.2217,-0.4578,-0.6662680000000001,2.8824368,9.017703,-1
297,298,1580697152782,0.58019996,0.3676,0.0646,-0.4765323,3.033377,9.583961,d
298,299,1580697152793,0.49249998,0.431,0.62509996,-0.60276425,3.0630745999999998,10.097142999999999,-1
299,300,1580697152802,0.49249998,0.431,0.62509996,-0.8866591,2.911512,10.304730000000001,-1
300,301,1580697152812,-0.12619999,0.1135,0.7683,-1.2632958,2.743889,10.059123,-1
301,302,1580697152822,-0.3852,-0.110999994,0.23600000000000002,-1.5309196000000003,2.5093055,9.507911,-1
302,303,1580697152832,-0.7053,-0.3726,-0.1961,-1.9221609,2.3158252,9.039433,-1
303,304,1580697152842,-0.96279997,-0.354,-0.51989996,-2.1198356,2.423229,8.788741,-1
304,305,1580697152853,-1.0195,-0.17979999,-0.7457,-2.088146,2.6343305,8.605872,-1
305,306,1580697152863,-0.7378,-0.062299997,-0.6784,-1.7432566000000003,2.7678025,8.719941,-1
306,307,1580697152873,-0.7378,-0.062299997,-0.6784,-1.6962631999999997,2.776958,8.661772000000001,-1
307,308,1580697152883,-0.80219996,-0.1865,-0.8897,-2.0617714,2.5822232000000005,8.330893,-1
308,309,1580697152893,-1.2907,-0.47329998,-1.245,-2.6400382999999996,2.2592838,7.9356394,-1
309,310,1580697152904,-1.8068,-0.7561,-1.5804,-3.2380526,2.0384233,7.626892,-1
310,311,1580697152914,-2.4466,-0.95089996,-1.7875999,-4.0124044,1.8420031000000003,7.460006699999999,-1
311,312,1580697152924,-3.2935998,-1.1014999,-1.9636999,-4.905949,1.7516937,7.196242999999999,-1
312,313,1580697152934,-3.9687997999999998,-1.1937,-2.3528,-5.463166,1.6704538,6.709128,-1
313,314,1580697152945,-4.3352,-1.3721,-3.0226998,-5.904427,1.4528878,5.6032553,-1
314,315,1580697152955,-4.7177997000000005,-1.6880000000000002,-4.2211,-6.154324,1.0847458,3.9920633000000003,-1
315,316,1580697152965,-4.7644,-2.2127,-5.9484997,-5.9203339999999995,0.6046316999999999,2.2401686,-1
316,317,1580697152975,-4.4656997,-2.7544,-7.5694,-5.764721,0.07069599,0.8216709000000001,-1
317,318,1580697152985,-4.4028997,-3.3442,-8.7521,-5.845663500000001,-0.38183686,-0.07771579,-1
318,319,1580697152996,-4.6404,-3.7769999999999997,-9.5093,-6.326381,-0.56939864,-0.7556292,-1
319,320,1580697153006,-5.2985997000000005,-3.8960000000000004,-10.145599,-7.1063833,-0.6736996,-1.3559801999999999,-1
320,321,1580697153016,-6.0306,-4.0963,-10.6612,-7.4677353,-0.9807033000000002,-1.7709047999999998,-1
321,322,1580697153026,-5.9990997,-4.3329997,-11.0275,-6.6488705,-0.95512366,-2.1517265,-1
322,323,1580697153036,-5.1960998,-4.2474,-11.3424,-5.422934,-1.0104104999999999,-2.2707565,-1
323,324,1580697153047,-3.9854,-4.3691998,-11.3994,-4.3722816,-1.4856597,-2.0541868,-1
324,325,1580697153057,-2.9334998,-5.0888,-11.0507,-3.533813,-2.4579449,-1.4349408000000001,-1
325,326,1580697153067,-2.6016,-5.8125,-10.540199000000001,-3.295408,-2.9658222000000003,-1.0120195,-1
326,327,1580697153077,-2.3021998,-6.4247,-10.0643,-2.727331,-3.6807307999999996,-0.5766291,-1
327,328,1580697153087,-2.066,-6.7936997,-9.8293,-2.7912847999999997,-3.6655992999999993,-0.5786210999999999,-1
328,329,1580697153097,-2.2932,-6.5386996,-9.9227,-2.9107458999999998,-3.3913772000000004,-0.6966456,-1
329,330,1580697153107,-2.3211,-6.2037,-10.0785,-1.9865936000000002,-3.8004217000000002,-0.54383814,-1
330,331,1580697153118,-1.3726,-6.6018996,-9.842899000000001,-0.59874195,-4.346472299999999,0.13343365,-1
331,332,1580697153128,0.3832,-7.1317,-8.87,2.1285124,-5.1229404999999995,1.7553617,-1
332,333,1580697153138,2.5602,-7.5544,-7.4522,4.5064907,-5.5355763,3.6829622000000004,-1
333,334,1580697153148,4.2194,-7.6882997,-5.8849998,5.563713,-5.67941,5.0829287,-1
334,335,1580697153159,5.3262997,-7.6218,-4.1524997,6.509576,-5.6121526,6.9892974,-1
335,336,1580697153168,5.9866,-7.1566,-2.3253999,6.4594984,-5.056362,8.474411,-1
336,337,1580697153179,5.6745,-6.2504,-0.9993,5.946411599999999,-4.8383946,9.533472,-1
337,338,1580697153189,5.1882,-5.7149997,-0.076,5.720102,-5.1113334,10.265504,-1
338,339,1580697153199,5.0435,-5.6675997,0.4809,6.4028997,-5.443687000000001,11.243506,-1
339,340,1580697153209,5.6994,-5.6596,1.459,7.687552,-5.7826385,12.553403,-1
340,341,1580697153220,8.2527,-5.5025997,4.1135,9.110636999999999,-5.8886347,13.877167000000002,-1
341,342,1580697153230,8.2527,-5.5025997,4.1135,10.107429,-5.7917557,14.560616,-1
342,343,1580697153241,10.480599,-4.6341,4.4172,11.482419,-5.5582347,14.143382999999998,-1
343,344,1580697153251,10.3916,-4.4418,3.7015998,11.138171,-5.669708999999999,13.369347,-1
344,345,1580697153261,9.8132,-4.0694,4.3863997,10.699745,-5.498944799999999,14.618008999999999,-1
345,346,1580697153271,9.8132,-4.0694,4.3863997,10.875585000000001,-5.343446299999999,16.410807000000002,-1
346,347,1580697153281,9.9936,-3.4929,6.8022,11.12145,-5.120527,18.892942,-1
347,348,1580697153291,10.5735,-2.5744998,12.2122,11.373741,-5.0783415000000005,21.678942000000003,-1
348,349,1580697153301,10.764000000000001,-2.3102999,12.4331,11.545377,-5.0496297,21.586008,-1
349,350,1580697153312,10.842299,-1.9225999,10.6636,11.559713,-4.9014287,19.434368,-1
350,351,1580697153323,10.5647,-1.9052,7.876,11.123078,-5.171983200000001,16.659554999999997,-1
351,352,1580697153333,10.0413,-1.9470999,6.6092,10.633664999999999,-5.299852400000001,15.816479999999999,-1
352,353,1580697153343,9.8284,-1.2476,8.040999000000001,10.462824000000001,-4.553082,18.228485,-1
353,354,1580697153353,10.0863,-0.5189,10.741799,10.629029,-4.190179,20.693163000000002,-1
354,355,1580697153363,9.9861,-0.1244,12.6931,10.296972,-3.9736086999999998,22.000501999999997,-1
355,356,1580697153374,9.5451,0.41189998,13.226299,9.877652000000001,-3.5798870000000003,21.938328,-1
356,357,1580697153384,9.3666,0.8619,12.628099,9.958241000000001,-3.378822,21.051968,-1
357,358,1580697153394,9.6092,1.0023,11.731299,9.964103,-3.4296748999999997,20.191845,-1
358,359,1580697153404,9.071899,1.0598999,11.1777,9.146778999999999,-3.3643513,19.899042,-1
359,360,1580697153414,8.111,1.4496,11.4634,8.346627999999999,-2.9171336,20.418077,-1
360,361,1580697153424,7.5337,2.0379999,12.1389,7.792322,-2.4219744,20.917873,-1
361,362,1580697153435,6.6983,2.4475,12.4655,7.016399400000001,-2.2177396000000003,21.12655,-1
362,363,1580697153445,5.4739,2.4368,12.8616,5.620302,-2.5142756,21.630205,-1
363,364,1580697153455,4.3493,1.7443,13.3633995,4.4934187,-3.4295504,22.154736,-1
364,365,1580697153465,2.9394999,0.5481,13.8882,3.0004137,-4.7403474,22.590528,-1
365,366,1580697153475,0.9935,-0.8771,13.8526,0.48948973,-6.33047,21.892715,-1
366,367,1580697153485,-1.2921,-2.271,12.607599,-1.5330648,-7.344567999999999,20.018562,-1
367,368,1580697153496,-3.1085,-3.1676998,10.3488,-2.6538193,-7.730322,18.097483,-1
368,369,1580697153506,-4.5441,-3.7041,7.937599700000001,-4.4315042,-8.037613,15.680373999999999,-1
369,370,1580697153516,-6.3451,-4.2036,6.2493,-6.243082,-8.400841999999999,14.646232999999999,-1
370,371,1580697153526,-8.3231,-4.8148,5.4793,-8.212313,-8.8363285,14.293880999999999,-1
371,372,1580697153536,-10.3793,-5.5274997,5.1298,-10.100102,-9.444455,14.019506,-1
372,373,1580697153548,-12.2471,-6.3494,4.7181997,-11.675526,-9.818256,13.530237,-1
373,374,1580697153558,-13.6381,-6.7249,4.1042,-12.610365,-9.683665,12.647667,-1
374,375,1580697153568,-14.1754,-6.7479997,3.1780999,-12.59963,-9.406866,11.505231,-1
375,376,1580697153578,-14.1194,-6.6787996,1.9196999,-12.352874,-9.026744,9.994634,-1
376,377,1580697153588,-13.8326,-6.4979997,0.2801,-11.911517,-8.497978999999999,8.268203,-1
377,378,1580697153599,-13.3314,-6.1815,-1.5238999,-11.157583,-8.065347000000001,6.5979410000000005,-1
378,379,1580697153609,-12.499,-5.995199700000001,-3.1962,-10.395767,-7.685608,5.2876616,-1
379,380,1580697153619,-11.693399000000001,-5.7746,-4.4504,-9.483414,-7.020709,4.303501,-1
380,381,1580697153629,-10.873199000000001,-5.3977,-5.2757,-8.812808,-6.502307,3.7867556,-1
381,382,1580697153639,-10.152699,-5.0415,-5.8293,-8.200045,-6.1176449999999996,3.690978,-1
382,383,1580697153649,-9.4871,-4.8038,-5.9547,-7.491925999999999,-5.748976,3.5960428999999996,-1
383,384,1580697153660,-8.7402,-4.5613,-6.0650997,-6.8756394,-5.4470196,3.4813224999999997,-1
384,385,1580697153670,-6.8437,-4.0464997,-6.52,-5.6554303,-5.000625599999999,3.1748552000000005,-1
385,386,1580697153680,-5.7051,-3.5967,-6.8073997,-4.318019400000001,-4.318871499999999,2.8669322,-1
386,387,1580697153690,-4.453,-3.0723999,-6.946099799999999,-3.3336193999999995,-3.8438814,2.7730794,-1
387,388,1580697153700,-3.2024999,-2.6095,-7.015,-2.1284834999999998,-3.3143413,2.7111747000000004,-1
388,389,1580697153711,-2.1864,-2.2096,-7.4168,-1.1618965,-2.858131,2.321485,-1
389,390,1580697153721,-1.1761,-1.9835999,-7.797999999999999,-0.21388839,-2.5979577999999997,1.9459592000000001,-1
390,391,1580697153731,-0.4407,-1.6875,-7.853399799999999,0.495753,-2.2770773999999996,1.8989947,-1
391,392,1580697153741,0.0603,-1.3705,-7.513999999999999,0.9591171999999999,-1.937273,2.245991,-1
392,393,1580697153751,0.56009996,-1.0938,-6.9856997000000005,1.4511256000000001,-1.6596509999999998,2.7754352000000004,-1
393,394,1580697153761,1.0373,-1.0555999,-6.6913,1.9280602,-1.6118628000000002,3.0679874,-1
394,395,1580697153771,1.7551999,-1.0704,-6.6412997,2.6537905,-1.6443951,3.1210717999999997,-1
395,396,1580697153782,2.4133,-0.86869997,-6.4827,3.4488760999999997,-1.4039311,3.3501585,-1
396,397,1580697153792,3.1905,-0.58849996,-5.8718,4.320069,-1.1654592,4.0633626000000005,-1
397,398,1580697153802,3.1905,-0.58849996,-5.8718,5.113268,-1.0605547,5.22614,-1
398,399,1580697153812,4.4233,-0.1715,-3.3706,5.401194599999999,-0.88920647,6.676653,-1
399,400,1580697153822,4.5729,0.042099997,-1.7831999,5.539301999999999,-0.7821857,8.621214,-1
400,401,1580697153832,4.6439,0.1901,-0.1741,5.6071053,-0.76329064,9.840954,-1
401,402,1580697153842,4.6728,0.26899999999999996,1.0439,5.7104583,-0.7706168999999999,10.897727,-1
402,403,1580697153852,5.1471,0.4377,1.3397,6.3313417,-0.61494595,10.998867,-1
403,404,1580697153862,5.9357,0.76,0.9862,7.125824499999999,-0.34873942,10.59802,-1
404,405,1580697153872,6.4544997,1.0715,0.7883,7.515130999999999,-0.14882357,10.469308,-1
405,406,1580697153882,6.5622997000000005,1.1366999,1.3263,7.6020308000000005,-0.16007632,11.205142,-1
406,407,1580697153893,6.5622997000000005,1.1366999,1.3263,7.424965400000001,-0.27042988,12.149817,-1
407,408,1580697153903,5.8557,1.0442,3.4938998,6.569679700000001,-0.47937664,13.413820999999999,-1
408,409,1580697153913,4.9333,0.7607,3.9829998,5.636430000000001,-0.83500177,13.639001,-1
409,410,1580697153923,4.0615997,0.4906,3.8023998999999997,4.8604593000000005,-1.1096933999999998,13.175329999999999,-1
410,411,1580697153933,3.3904998,0.2647,3.0402,4.3130107,-1.3478398,12.324717999999999,-1
411,412,1580697153945,2.9449,-0.0143,2.1875,4.0724029999999996,-1.499048,11.817857,-1
412,413,1580697153953,2.6620998,-0.1778,1.4908999,3.7727735,-1.6465979,11.026027000000001,-1
413,414,1580697153963,2.5386999,-0.1355,1.1668999,3.7035906,-1.5919143,10.807742,d
414,415,1580697153973,2.665,-0.0276,1.3242999,3.887408,-1.4539986999999999,11.134167999999999,-1
415,416,1580697153984,2.8525,0.14379999,1.7669,3.9858095999999996,-1.2826505,11.531127,-1
416,417,1580697153994,2.8590999,0.30859998,1.9741,3.9090898000000003,-1.2068212999999999,11.585169,-1
417,418,1580697154004,2.6378999,0.3667,1.8764,3.631937,-1.1775258999999998,11.474882000000001,-1
418,419,1580697154014,2.1322,0.2935,1.6599,2.9860577999999998,-1.3622146000000002,11.200449,-1
419,420,1580697154024,1.6136999,-0.0004,1.4031999,2.5821560000000003,-1.5980914,10.985,-1
420,421,1580697154034,1.1353999,-0.2383,1.1162,2.0149793999999996,-1.7988691000000003,10.613602,-1
421,422,1580697154044,0.6738,-0.278,0.7107,1.6343491,-1.7753389,10.20653,-1
422,423,1580697154055,0.42159998,-0.27089998,0.28489998,1.4896243999999998,-1.6685671000000002,9.78854,-1
423,424,1580697154065,0.47259998,-0.083,-0.0822,1.6387639999999999,-1.3503488000000001,9.434486,-1
424,425,1580697154075,0.7697,0.36859998,-0.3708,2.0075285,-0.88342214,9.214085,-1
425,426,1580697154085,1.1623,0.7224,-0.4331,2.4118135,-0.5889161,9.356731,-1
426,427,1580697154095,1.4678999,0.83849996,-0.2003,2.55152,-0.5492778,9.521567,-1
427,428,1580697154105,1.4969,0.7794,-0.065,2.2901306,-0.7464259,9.644907,-1
428,429,1580697154115,1.0877,0.539,0.0211,1.781334,-1.0305123,9.743271,-1
429,430,1580697154126,0.55,0.21159999,0.0779,1.3467002000000001,-1.2586988000000001,9.720516,-1
430,431,1580697154136,0.043199997000000004,0.0037,-0.022499999,0.86866426,-1.3682959,9.582792,-1
431,432,1580697154146,-0.21159999,-0.011399999,-0.1524,0.7174176999999999,-1.2658623,9.438872,-1
432,433,1580697154156,-0.2967,0.08339999599999999,-0.3019,0.80152124,-1.1107277,9.2857,-1
433,434,1580697154167,-0.1466,0.2144,-0.4613,1.094064,-0.972678,9.156002,-1
434,435,1580697154177,0.1627,0.3457,-0.5323,1.380784,-0.8966476999999999,9.20537,-1
435,436,1580697154188,0.5211,0.4292,-0.387,1.6780194,-0.83847815,9.649092999999999,-1
436,437,1580697154198,0.7659999999999999,0.4833,0.0827,1.88914,-0.7657998,10.1409,-1
437,438,1580697154208,0.9716,0.5613,0.5336,1.8419839,-0.7469621999999999,10.406283,-1
438,439,1580697154220,0.8127,0.6239,1.2297,1.7029095,-0.72186136,10.917541,-1
439,440,1580697154230,0.8127,0.6239,1.2297,1.5169662,-0.8160588000000001,11.209997,-1
440,441,1580697154241,0.6354,0.52169997,1.5234,1.3980413999999999,-0.9389963,11.284773,-1
441,442,1580697154251,0.3892,0.1166,1.5689,1.2775843,-1.2323913999999998,11.290433,-1
442,443,1580697154261,0.56979996,0.0444,1.9296,1.4581838,-1.2560365,11.622211,-1
443,444,1580697154271,1.0124,0.3733,2.6145,1.892425,-0.921624,12.312842,-1
444,445,1580697154282,1.4333999,0.74719995,3.2798,2.3693310000000003,-0.5026291,13.07939,-1
445,446,1580697154292,1.7422999,0.86469996,3.6503,2.5962243,-0.44753376,13.374355,-1
446,447,1580697154302,1.7208999,0.7290000000000001,3.6959,2.4795504,-0.58427143,13.390884,-1
447,448,1580697154312,1.4411,0.5132,3.6815998999999997,2.1962395,-0.81065756,13.397722,-1
448,449,1580697154322,1.3666999,0.1881,3.8727,2.1334732000000005,-1.0991587999999999,13.651719,-1
449,450,1580697154332,1.2716,-0.0286,4.3283997,2.0018399,-1.210288,14.163523000000001,-1
450,451,1580697154343,1.1032,-0.0167,4.9995,1.8096718,-1.1575198999999998,14.977379,-1
451,452,1580697154353,0.9431,-0.041699997999999995,5.5720997,1.6871556,-1.1270657,15.392199,-1
452,453,1580697154363,0.8247,-0.1065,5.8691998,1.5685851999999998,-1.1512759,15.622932,-1
453,454,1580697154373,0.8684,-0.2219,5.8023,1.7030914000000001,-1.1963731000000002,15.4296055,-1
454,455,1580697154383,1.0081999,-0.3463,5.4502,1.7330095,-1.1945343000000002,15.064854,-1
455,456,1580697154393,0.9698,-0.3577,5.245,1.7253671000000002,-1.0968316999999999,15.007775,-1
456,457,1580697154404,1.1096,-0.3534,5.2658,1.9216628,-0.9765087,15.038143,-1
457,458,1580697154414,1.3428,-0.2399,5.2286,2.0979335,-0.71807855,14.955773,-1
458,459,1580697154424,1.4613999,-0.081199996,5.0354,2.1652298,-0.5002349,14.713586,-1
459,460,1580697154435,1.4156,-0.1338,4.6965,1.9960746999999999,-0.48610914,14.321148,-1
460,461,1580697154445,1.0511,-0.30679998,4.2418,1.5569206,-0.47138,13.787479000000001,-1
461,462,1580697154455,0.5819,-0.36839998,3.5633998,1.0133985,-0.3468432,12.894682000000001,-1
462,463,1580697154465,0.17369999,-0.36659998,2.8372998,0.5912433000000001,-0.10472238,12.318666,-1
463,464,1580697154475,-0.19029999,-0.19469999,2.3474998,0.2893632,0.2981547,11.879799,-1
464,465,1580697154486,-0.4032,0.051999997,1.9267999,0.02894111,0.56591266,11.605184,-1
465,466,1580697154496,-0.585,0.1783,1.7906,-0.13725479,0.67225355,11.628571,-1
466,467,1580697154506,-0.5746,0.1318,1.8311,0.069901116,0.6671874,11.573408,-1
467,468,1580697154516,-0.22829999,0.015,1.7447,0.37663665,0.70021784,11.51952,-1
468,469,1580697154526,0.0861,0.047599997000000005,1.6886,0.49672982,0.8483709999999999,11.418292999999998,-1
469,470,1580697154537,0.16759999,0.0862,1.6241,0.48685613,0.97387505,11.313283,-1
470,471,1580697154547,0.26749998,0.1757,1.4145,0.51572067,1.2061318,10.834767999999999,-1
471,472,1580697154557,0.2556,0.2575,0.98109996,0.3789255,1.2401868999999999,10.517403,-1
472,473,1580697154567,0.100899994,0.1516,0.6175,0.16213535,0.9837009,10.028746,-1
473,474,1580697154577,-0.0122,-0.2531,0.1856,-0.17905755,0.5744073000000001,9.640108999999999,-1
474,475,1580697154587,-0.33429998,-0.7489,-0.16759999,-0.6134615,0.23256317,9.351704,-1
475,476,1580697154598,-0.88839996,-1.2688,-0.5791,-1.455167,-0.30430305,8.656417999999999,-1
476,477,1580697154608,-1.4354,-1.7694,-1.1854,-1.9027678,-0.6780762,7.937296000000001,-1
477,478,1580697154619,-1.7523999,-2.1777,-1.9363999,-2.0128245,-0.7322618000000001,7.1223865,-1
478,479,1580697154629,-1.699,-2.258,-2.7050998,-1.6239582000000001,-0.5223094,6.4214115,-1
479,480,1580697154639,-1.288,-2.1620998,-3.2472,-1.0620486999999998,-0.17204733,6.207609,-1
480,481,1580697154650,-0.6752,-1.8965,-3.4459998999999994,-0.4338964,0.39053258,6.2101765,-1
481,482,1580697154660,-0.0121,-1.4401,-3.4292,-0.19612342,0.60094464,6.1495357,-1
482,483,1580697154670,0.3303,-1.3851,-3.9052,-0.17510234,0.59414506,5.695126,-1
483,484,1580697154680,0.3303,-1.3851,-3.9052,-0.41141003,0.5408693,5.127298000000001,-1
484,485,1580697154690,-0.166,-1.6496998999999999,-5.0154,-0.89661896,0.45447692,4.438352,-1
485,486,1580697154701,-0.77709997,-1.8428999,-5.3588,-1.4193499,0.36353558,4.1887803,-1
486,487,1580697154711,-1.0646,-1.8901999,-5.5063996,-1.7752143,0.38376182,3.9851966,-1
487,488,1580697154721,-1.2947,-1.9196999,-5.6640997,-2.0068965,0.459658,3.822343,-1
488,489,1580697154731,-1.5126,-1.8910999,-5.6554,-2.1340668,0.5879106,3.8508627,-1
489,490,1580697154741,-1.2915,-1.7304,-5.5204997,-1.8938901000000001,0.77638215,3.9466882000000005,-1
490,491,1580697154752,-0.7229,-1.351,-5.3782,-1.1557673000000002,1.3285521,4.1091394,-1
491,492,1580697154762,-0.1652,-0.95019996,-5.0147,-0.6576298,1.7219386000000003,4.5817456,-1
492,493,1580697154772,0.0337,-0.8853,-4.1177998,-0.55353945,1.7176672999999998,5.5322146,-1
493,494,1580697154782,-0.1125,-1.1054,-3.1269999,-0.76862496,1.5058954,6.4592595,-1
494,495,1580697154792,-0.33359998,-1.0986999,-2.705,-1.0233200999999998,1.5387342,6.747961999999999,-1
495,496,1580697154803,-0.33359998,-1.0986999,-2.705,-1.175668,1.5884284,6.580941999999999,-1
496,497,1580697154813,-0.5514,-1.1194,-3.0098,-1.2496583,1.5093813,6.3769754999999995,-1
497,498,1580697154823,-0.5112,-1.0805,-3.2366998,-1.0334619,1.6866863999999997,6.0941052,-1
498,499,1580697154833,-0.0028,-0.732,-3.3946,-0.48966214,2.08512,6.0577135,-1
499,500,1580697154843,0.6245,-0.45899999999999996,-3.1418998,0.21385968,2.3489132,6.5228014000000005,-1
500,501,1580697154854,1.0412999,-0.2377,-2.4501,0.45169967,2.6345987,7.2366757,-1
501,502,1580697154864,0.8982,-0.0468,-1.7995,0.13327084,2.7085986,7.780504,-1
502,503,1580697154874,0.44149998,-0.2008,-1.4834,-0.53582233,2.3690147,7.909561599999999,-1
503,504,1580697154884,-0.1453,-0.5269,-1.5205,-1.0363733,2.1422262,7.828388,-1
504,505,1580697154895,-0.6708,-0.76449996,-1.5965999,-1.4326233,2.0102866,7.8274016,-1
505,506,1580697154905,-0.73829997,-0.731,-1.5254999,-1.2555193999999998,2.2297199,7.892773599999999,-1
506,507,1580697154915,-0.4217,-0.4488,-1.5126,-0.86244893,2.4810442999999998,7.8263869999999995,-1
507,508,1580697154925,0.2346,-0.1131,-1.6069,0.13677596,2.9555655,7.7999644,-1
508,509,1580697154936,0.98359996,0.2323,-1.5347998999999999,0.6500928,3.1313477,8.029846000000001,-1
509,510,1580697154946,1.3464,0.2651,-1.1884999,0.7957273,3.174405,8.483595,-1
510,511,1580697154956,1.2637,0.4016,-0.6884,0.36733758,3.4565663,9.055703999999999,-1
511,512,1580697154966,0.8739,0.63769996,-0.24949999,0.11399273,3.480786,9.342614999999999,-1
512,513,1580697154976,0.62759995,0.5773,0.0508,-0.11055466,3.3069288999999995,9.478597,-1
513,514,1580697154987,0.4454,0.457,0.028299998,-0.33870292,3.241203,9.216565,-1
514,515,1580697154997,0.2775,0.46429998,-0.364,-0.48713386,3.2739656000000004,8.699878,-1
515,516,1580697155007,0.19409999,0.4596,-0.8519,-0.52783525,3.1723747,8.358178,-1
516,517,1580697155017,0.21949999,0.28,-1.0935,-0.4219637,3.047043,8.298197,-1
517,518,1580697155027,0.2852,0.2427,-0.97209996,-0.2849196,3.195158,8.740474,-1
518,519,1580697155037,0.3674,0.3721,-0.5475,-0.35764584,3.246432,9.093657499999999,-1
519,520,1580697155048,0.1979,0.3796,-0.2322,-0.5894140999999999,3.1286662,9.240680000000001,-1
520,521,1580697155058,-0.0242,0.2103,-0.1147,-0.6911103,2.884199,9.241589999999999,-1
521,522,1580697155068,-0.110999994,-0.0167,-0.14649999,-0.81314754,2.7583884999999997,9.20785,-1
522,523,1580697155078,-0.2453,-0.069699995,-0.17009999,-1.0076716000000001,2.8152267999999996,9.153981,-1
523,524,1580697155088,-0.41799998,-0.0034999999,-0.2529,-1.0642610000000001,2.8590982000000005,9.097985000000001,-1
524,525,1580697155099,-0.4421,0.0779,-0.2956,-0.9498755999999999,3.0531435,9.111680999999999,-1
525,526,1580697155109,-0.27429998,0.30089998,-0.28849998,-0.5788988,3.1971116000000004,9.125002,-1
526,527,1580697155119,0.0982,0.3924,-0.2417,-0.27008513,3.099112,9.288679,-1
527,528,1580697155129,0.2979,0.2963,-0.106599994,-0.30773154,2.9030461,9.487752,-1
528,529,1580697155139,0.23099999,0.1015,0.0874,-0.6405447,2.7851174,9.62608,-1
529,530,1580697155150,-0.1162,-0.0138,0.23249999,-0.9797457,2.6776847999999998,9.560152,-1
530,531,1580697155160,-0.65779996,-0.0063,0.14829999,-1.1616379,2.7713842,9.55707,-1
531,532,1580697155170,-0.65779996,-0.0063,0.14829999,-1.0878582,3.2462597,9.539860000000001,-1
532,533,1580697155180,-0.5731,0.47829998,0.1347,-0.801483,3.3530126000000005,9.492177,-1
533,534,1580697155190,-0.10759999599999999,0.43719998,-0.2226,-0.6327779,3.1864717000000002,9.192431,-1
534,535,1580697155201,0.0095,0.1595,-0.5257,-0.5120527,2.8540514,8.818889,-1
535,536,1580697155211,0.0004,-0.1239,-0.73939997,-0.5591419,2.5506675,8.645099,-1
536,537,1580697155221,0.0004,-0.1239,-0.73939997,-0.9002581000000001,2.279146,8.596697,-1
537,538,1580697155231,-0.8322,-0.6218,-0.9025,-1.5289563,2.1579037,8.449425,-1
538,539,1580697155241,-1.5149,-0.5936,-0.9809,-2.1272962000000004,2.2000509999999998,8.448966,-1
539,540,1580697155251,-2.1316,-0.6077,-0.8354,-2.7464464,2.154791,8.584324,-1
540,541,1580697155262,-2.7696,-0.7159,-0.84749997,-3.3999865,2.0046937,8.549809,-1
541,542,1580697155272,-3.2967,-0.9841,-0.9174,-3.8646437999999996,1.7201668999999997,8.442309,d
542,543,1580697155282,-3.4111,-1.3519999999999999,-1.4159,-3.9177952000000005,1.4145136,7.991720699999999,-1
543,544,1580697155292,-3.3516998,-1.8246,-2.4593,-3.857873,0.88514596,6.7186947,-1
544,545,1580697155302,-3.4052,-2.1626,-3.5781998999999995,-3.8975976,0.62530804,5.6119129999999995,-1
545,546,1580697155312,-3.5702998999999997,-2.2075,-4.4226,-4.0970345,0.74760383,4.7329445,-1
546,547,1580697155323,-3.7696998,-2.0242999,-4.8294,-4.1619269999999995,0.8573156999999999,4.5653596,-1
547,548,1580697155333,-3.9002998,-2.1444,-4.4772997000000005,-4.405293,0.60423905,5.1166005,-1
548,549,1580697155343,-4.4354,-2.4521,-3.944,-5.002895,0.2293741,5.5872335,-1
549,550,1580697155353,-5.0594997,-2.9492,-3.6771,-5.6399345,-0.37725917,5.69096,-1
550,551,1580697155363,-5.8823,-3.3822,-3.9087,-6.5001335,-0.62674457,5.2411757,-1
551,552,1580697155374,-6.6533,-3.5221998999999995,-4.6369,-7.115835700000001,-0.81609714,4.42391,-1
552,553,1580697155384,-7.186,-3.8618998999999996,-5.6261,-7.659644999999999,-1.1978861,3.2077706000000004,-1
553,554,1580697155394,-7.6902,-4.2116,-7.151799700000001,-7.926617599999999,-1.6454294999999999,1.3209865,-1
554,555,1580697155404,-7.6604996,-4.710099700000001,-8.588799,-7.482005,-2.2465083999999997,0.23715046,-1
555,556,1580697155414,-7.0348,-5.2941,-9.382299,-6.4793515,-2.7173328,-0.12344504,-1
556,557,1580697155425,-6.0727997,-5.6926,-9.3896,-5.4713449999999995,-3.0610923999999997,0.5170422,-1
557,558,1580697155435,-5.2901,-5.9006996,-8.3792,-5.038750599999999,-3.2048306,2.0637442999999998,-1
558,559,1580697155445,-5.1425,-5.7763,-6.6064997000000005,-4.8302927,-2.820839,3.8804839,-1
559,560,1580697155455,-5.0288997,-5.1064997000000005,-5.0894,-4.786373,-2.5001595,4.995425,-1
560,561,1580697155465,-4.9809,-4.7857,-4.2523,-4.587616400000001,-2.4671576,5.500161,-1
561,562,1580697155475,-4.4667,-4.4853997,-3.7738998,-3.225076,-2.198835,6.138427,-1
562,563,1580697155486,-2.6894999,-4.0685,-3.2956998,-0.77659285,-2.0458453000000003,6.526172,-1
563,564,1580697155497,-0.21329999,-3.8551,-2.9141,1.8235581000000003,-1.9148443,7.1483774,-1
564,565,1580697155506,2.0533,-3.4578998,-2.1713,3.9150753,-1.7180026000000002,7.9605293,-1
565,566,1580697155516,3.7363,-3.3139,-1.3578,5.1556168,-1.7780203999999997,8.655997,-1
566,567,1580697155526,4.797,-3.0298,-0.4509,6.159371,-1.3262249,9.766571,-1
567,568,1580697155536,5.3176,-2.3414,0.47829998,6.3966845999999995,-1.0300334999999998,10.965223,-1
568,569,1580697155546,5.3251,-2.0277998,1.9627,6.4112988,-1.3507893999999998,12.915741,-1
569,570,1580697155557,5.5246,-2.2010999,4.0875,7.306797500000001,-1.7437544999999999,15.485659,-1
570,571,1580697155567,6.5575,-2.1696,6.1032,8.772958000000001,-1.7831248,16.768166,-1
571,572,1580697155577,8.6791,-1.9370999,7.4126997,11.435388,-1.895566,17.437248,-1
572,573,1580697155587,10.6909,-1.9058,7.6801996,13.190605,-2.119855,17.565578,-1
573,574,1580697155598,12.3826,-1.8808,7.902199700000001,14.361178,-1.9395429,18.10324,-1
574,575,1580697155608,13.519,-1.3477,8.6662,15.458967999999999,-0.9821207000000001,19.154524,-1
575,576,1580697155618,14.431999,-0.2224,9.5884,16.197638,0.02615426,19.719765,-1
576,577,1580697155628,15.141298999999998,0.89089996,9.9999,16.69294,0.52465576,19.230572,-1
577,578,1580697155638,15.611099,1.3455,9.281199,16.905104,0.27196217,17.876125,-1
578,579,1580697155649,15.7926,1.1345999,7.8929996,16.76398,-0.060985107000000004,16.676239000000002,-1
579,580,1580697155659,15.6944,0.9072,6.7882,16.877533,-0.52817047,15.947021,-1
580,581,1580697155669,15.864699,0.426,6.1938,16.865579999999998,-1.036833,15.906692999999999,-1
581,582,1580697155679,15.792399,0.050699997999999996,6.2572,16.788048,-1.0312497999999999,16.127716,-1
582,583,1580697155690,15.7893,0.5007,5.9603996,16.828098,-0.6877009,15.655358999999999,-1
583,584,1580697155700,15.4869995,0.868,4.7241,16.511726,-0.32294905,14.413247,-1
584,585,1580697155710,14.9442,1.0632,2.9450998,15.937904000000001,-0.116319895,12.633858,-1
585,586,1580697155720,14.9442,1.0632,2.9450998,15.147079999999999,-0.287218,10.992852000000001,-1
586,587,1580697155730,14.176398999999998,0.87829995,1.2917,14.504572,-0.64381045,10.0613165,-1
587,588,1580697155740,12.7139,-0.3321,-0.2974,13.615978,-1.4583274,9.422946000000001,-1
588,589,1580697155751,11.7469,-1.1723,-0.428,12.381269,-2.4637675,9.27258,-1
589,590,1580697155761,11.7469,-1.1723,-0.428,11.287091,-3.1382334,9.146971,-1
590,591,1580697155771,9.0359,-2.6411,-1.1284,9.947285,-3.7007847000000003,8.588959,-1
591,592,1580697155781,7.8448,-3.0488,-2.0516999,8.788922999999999,-4.055883000000001,7.6621065,-1
592,593,1580697155791,6.671,-3.4527997999999998,-2.9643,7.653209700000001,-4.4054839999999995,6.760153,-1
593,594,1580697155801,6.671,-3.4527997999999998,-2.9643,6.2351813,-4.7440050000000005,6.1799707,-1
594,595,1580697155811,4.1703,-4.1621,-3.5881,5.0230255,-5.1106243,6.1519394,-1
595,596,1580697155822,2.9699,-4.4523997,-3.2796998,3.9366136,-5.380719,6.557910000000001,-1
596,597,1580697155832,2.1826,-4.7272997000000005,-2.4995,3.2383783,-5.668493,7.387386,-1
597,598,1580697155842,1.6465,-4.8839999999999995,-1.4922999,2.7441192,-5.845711,8.409413,-1
598,599,1580697155852,1.0972998999999999,-5.0155,-0.6508,2.1788385,-5.991672,9.167169,-1
599,600,1580697155862,0.078899994,-4.9688,-0.2597,1.0949643,-5.968773400000001,9.435472500000001,-1
600,601,1580697155872,-1.2346,-4.9460998,-0.3196,-0.18242858,-6.0159106,9.325588,-1
601,602,1580697155883,-2.7072,-5.2496,-0.3689,-1.6678679,-6.386141,9.322964,-1
602,603,1580697155893,-4.2303,-5.6068,-0.19119999,-3.0222104,-6.7423306,9.515074,-1
603,604,1580697155903,-5.3231997,-5.9895,0.1249,-4.0597330000000005,-7.119867999999999,9.863296499999999,-1
604,605,1580697155913,-6.6949,-6.1741,0.9029,-5.3737664,-7.254297,10.768362,-1
605,606,1580697155923,-7.8831997000000005,-5.9634,2.1132998,-6.671328,-6.978293400000001,12.158082,-1
606,607,1580697155933,-7.8831997000000005,-5.9634,2.1132998,-7.134032,-6.8850727,12.537773,-1
607,608,1580697155944,-10.2518,-5.4561,3.8174998999999996,-8.759215,-6.647798,13.501966,-1
608,609,1580697155954,-11.3166,-5.4515,4.066,-9.869982,-6.650853,13.661114999999999,-1
609,610,1580697155964,-12.1581,-5.3982,4.1277,-10.697925,-6.539063,13.768057999999998,-1
610,611,1580697155974,-12.703099,-5.2286,4.297,-10.758327,-6.2684703,13.946398,-1
611,612,1580697155985,-12.573299,-4.7514997,4.4948,-10.455057,-5.701447,14.188384,-1
612,613,1580697155995,-12.1855,-3.965,4.946000000000001,-9.945571000000001,-4.781307,14.821047,-1
613,614,1580697156005,-11.7127,-3.0742998,5.6433,-9.519624,-4.140341,15.421445,-1
614,615,1580697156015,-11.2535,-2.5482,6.1951,-9.074867,-3.7100549,15.853494,-1
615,616,1580697156026,-11.0267,-2.2942998,6.4209,-9.039442,-3.5629553999999994,16.008858,-1
616,617,1580697156036,-11.0264,-2.1911,6.5253,-9.151808,-3.5834398000000003,16.032677,-1
617,618,1580697156046,-11.198899,-2.2522,6.3813996,-9.300564,-3.5643342000000002,15.613164000000001,-1
618,619,1580697156056,-11.1132,-2.1945999,5.4989,-8.854179,-3.4543254,14.397454999999999,-1
619,620,1580697156067,-10.455299,-2.0634,4.3884,-7.969349,-3.1505012999999997,13.180501999999999,-1
620,621,1580697156077,-9.3797,-1.7708,3.1585999,-6.746248,-2.6807876,12.039291,-1
621,622,1580697156087,-8.3921995,-1.4624,2.3597,-5.9790206,-2.5438678,11.854305,-1
622,623,1580697156097,-7.593499700000001,-1.3665,2.3065999,-5.2087007000000005,-2.3719356,12.359003,-1
623,624,1580697156107,-6.7170000000000005,-1.1906999,2.9027,-4.1439896,-2.0425317,13.090594,-1
624,625,1580697156118,-5.561,-0.8745,3.6081,-3.0561217999999997,-1.781334,13.689001000000001,-1
625,626,1580697156128,-4.4885,-0.6428,4.1768,-2.4491632,-1.5056847,14.181795000000001,-1
626,627,1580697156138,-3.7345998,-0.3135,4.7748,-1.6037607,-1.2560652,14.715673,-1
627,628,1580697156148,-3.0456998,-0.2823,5.0783997,-1.2018223,-1.392688,14.624789000000002,-1
628,629,1580697156158,-2.6311,-0.6015,4.7922,-1.1117045,-1.9317568999999999,13.832998000000002,-1
629,630,1580697156168,-2.582,-1.179,4.0043,-0.83568174,-2.338235,13.155467999999999,-1
630,631,1580697156179,-2.1289,-1.6209999,3.4015,-0.21738394,-2.5582812,13.066528,-1
631,632,1580697156189,-1.3439,-1.9069999999999998,3.5052998,0.5224052,-2.583918,13.958445999999999,-1
632,633,1580697156199,-0.7998,-1.9287,4.2474,0.6481392,-2.444451,14.594709,-1
633,634,1580697156210,-0.5884,-1.8120999,5.0,0.83783656,-2.1889324,15.030404999999998,-1
634,635,1580697156220,-0.0492,-1.7556,5.0264997000000005,1.0885573999999998,-2.190235,14.769907,-1
635,636,1580697156230,0.0923,-2.0005,4.1829,1.1695674999999999,-2.322165,13.936332,-1
636,637,1580697156240,0.3908,-2.2565,3.3404998999999997,1.4178654,-2.4687188,13.109987,-1
637,638,1580697156250,0.89489996,-2.5238,2.6862,1.8745834,-2.6135106,12.453555,-1
638,639,1580697156261,0.89489996,-2.5238,2.6862,2.3063056,-2.3222609,12.372765,-1
639,640,1580697156271,1.7610999,-2.1436,3.0393999,2.6323576,-2.0074520000000002,12.814113,-1
640,641,1580697156281,1.8977,-2.0461,3.3012,2.7052658,-1.8182813000000002,13.07555,-1
641,642,1580697156291,2.116,-1.9331,2.9268,2.8676407000000004,-1.5952469999999999,12.711574,-1
642,643,1580697156301,2.472,-1.8689,2.0639,3.1892874,-1.3993822,11.695867999999999,-1
643,644,1580697156311,2.7465,-1.9297999,1.4093,3.4351335,-1.352992,11.067293,-1
644,645,1580697156322,3.1125998,-1.9361999,0.93369997,3.677896,-1.2508268,10.709054,-1
645,646,1580697156332,3.3047,-1.6528,0.8138,3.8357506000000003,-0.7483604,10.585676,-1
646,647,1580697156342,3.3964999,-1.3571999,0.7952,3.893355,-0.32790986,10.497071,-1
647,648,1580697156352,3.4552,-1.2413,0.2217,3.9270365,-0.14239754,9.960952,-1
648,649,1580697156362,3.5611,-1.2887,-1.0820999,4.0135819999999995,0.0037253778000000005,8.345104,-1
649,650,1580697156372,3.4348998,-1.2868,-2.4108999,3.8620004999999997,0.21986434,7.0892406,-1
650,651,1580697156382,3.3176,-1.2505,-3.1095998,3.7716148,0.4602709,6.4244857,-1
651,652,1580697156392,3.2714,-1.2013999,-3.3762999,3.6978157,0.6191693,6.239625,-1
652,653,1580697156402,3.0935,-1.2185,-3.4764,3.4721959000000004,0.7375864999999999,6.07385,-1
653,654,1580697156412,2.9212,-1.3256999,-3.6839999999999997,3.366535,0.7451905,5.8998876,-1
654,655,1580697156422,2.7884998,-1.3607999,-3.9296,3.1733706,0.89154327,5.559298,-1
655,656,1580697156432,2.5488,-1.2366999,-4.2816,2.9364982000000004,1.14032,5.146691000000001,-1
656,657,1580697156442,2.4321,-1.1671,-4.8195,2.7726102000000004,1.3359549,4.556146599999999,-1
657,658,1580697156453,2.1272,-1.1783999,-5.4853,2.4172816000000004,1.4265611,3.8370817,-1
658,659,1580697156463,1.8181,-1.1322,-6.1422,2.145741,1.5581273000000002,3.3022650000000002,-1
659,660,1580697156473,1.7799,-1.0397999,-6.593499700000001,2.0971290000000002,1.8472990000000002,2.6698701000000002,-1
660,661,1580697156483,1.801,-0.9133,-6.9172997,2.0613599999999996,2.015075,2.381158,-1
661,662,1580697156493,1.7838,-0.87049997,-7.2998996,2.0595882,2.1706312000000003,1.9302247,-1
662,663,1580697156504,1.8226999,-0.7223,-7.7819,2.073982,2.4500439999999997,1.4009336000000001,-1
663,664,1580697156514,1.7629,-0.63049996,-7.982599700000001,2.0034582999999997,2.5264382000000003,1.3148476999999998,-1
664,665,1580697156524,1.5777,-0.74829996,-7.8745,1.7272825,2.4230373,1.4715433999999998,-1
665,666,1580697156534,1.2773,-0.8628,-7.6528997,1.341385,2.3864252999999995,1.6803656999999999,-1
666,667,1580697156544,0.85709995,-0.92139995,-7.5903997,0.9948195,2.3723953,1.620166,-1
667,668,1580697156555,0.53319997,-1.0067999,-7.8914,0.6189873,2.3037294999999998,1.2179973999999998,-1
668,669,1580697156565,0.2271,-1.0004,-8.2621,0.30502132,2.3796928,0.7915039,-1
669,670,1580697156575,0.079399996,-0.9614,-8.6925,0.3432998,2.5304987,0.39620209999999995,-1
670,671,1580697156585,0.3166,-0.7238,-8.8881,0.82191986,2.9063694,0.33482432,-1
671,672,1580697156595,0.8053,-0.4152,-8.789599,1.3174716,3.1682373999999998,0.48890558,-1
672,673,1580697156605,1.3536999,-0.2023,-8.6617,1.8776958,3.2540169999999997,0.41057688,-1
673,674,1580697156615,1.5439,-0.3186,-8.8976,1.9112624,3.0374757999999997,0.14030979999999998,-1
674,675,1580697156626,1.3686,-0.6286,-9.186999,1.6632903,2.752949,-0.11186668,-1
675,676,1580697156636,0.90379995,-0.95519996,-9.2402,1.0991684,2.1982028,0.15923357,-1
676,677,1580697156646,0.46469998,-1.4593999,-8.7653,0.86334914,1.8040118000000003,0.70985204,-1
677,678,1580697156657,0.22459999,-1.7622,-8.1725,0.66758007,1.381282,1.2524165,-1
678,679,1580697156667,0.0413,-1.9947,-7.9266996,0.47797844,1.2115618000000001,1.1680256000000002,-1
679,680,1580697156677,-0.054899998,-1.9817,-8.1999,0.53536266,1.0840658,0.5850375,-1
680,681,1580697156687,-0.027999998999999998,-2.0751998,-8.8217,0.42255744,0.84339106,0.09556696,-1
681,682,1580697156697,-0.23809999,-2.2812997999999998,-9.2989,0.20778798,0.5584140000000001,-0.30158323,-1
682,683,1580697156708,-0.5279,-2.5067,-9.6916,0.03767516,0.40512764,-0.7114323,-1
683,684,1580697156718,-0.7722,-2.5844998,-10.0764,-0.22021867,-0.004970363,-0.71397007,-1
684,685,1580697156728,-1.078,-2.9996,-9.9535,-0.14664964,-0.8107054,0.14845009,-1
685,686,1580697156738,-0.914,-3.6501,-8.9832,0.24534822,-1.3530592,1.3664954,-1
686,687,1580697156749,-0.5597,-3.9701,-7.8745,0.82161343,-1.8130043999999998,2.166312,-1
687,688,1580697156759,0.036199998,-4.200999700000001,-7.2349997,1.2940277,-2.089324,2.4718313,-1
688,689,1580697156769,0.3788,-4.282,-7.0196,1.4302386,-2.454411,2.8095,-1
689,690,1580697156779,0.38979998,-4.5309,-6.5990996,1.0829836000000002,-3.0231106,3.7976252999999995,-1
690,691,1580697156789,-0.2057,-4.9919,-5.5024,-0.15930060000000001,-3.862422,5.443543,-1
691,692,1580697156799,-1.3869,-5.4972,-4.1552,-0.7790157,-4.248875,6.3123703,-1
692,693,1580697156810,-2.1306998999999998,-5.6481,-3.3035997999999998,-0.37784332,-4.504997299999999,6.7195573,-1
693,694,1580697156820,-1.7621,-5.7172,-2.9222,0.41514498,-4.218191,7.233142,-1
694,695,1580697156830,-0.96959996,-5.152199700000001,-2.4366,1.5793208,-4.52982,8.334522,-1
695,696,1580697156840,0.56159997,-5.7812,-0.4714,1.8464561999999998,-5.4938400000000005,9.252019,-1
696,697,1580697156850,0.56159997,-5.7812,-0.4714,1.4947575000000002,-6.514125,10.486057,-1
697,698,1580697156860,0.46559998,-6.6088,2.5781999,1.7474319999999999,-6.9226136,12.313953999999999,-1
698,699,1580697156871,1.278,-5.8104997,5.0422997,2.6312563,-6.40221,14.756576999999998,-1
699,700,1580697156881,2.7386,-4.7377996,6.732199700000001,4.1847105,-5.6008325,16.405673999999998,-1
700,701,1580697156891,3.6854,-3.7096,7.053,5.1858889999999995,-4.8284535,16.692316,-1
701,702,1580697156901,3.6854,-3.7096,7.053,5.230766,-4.0002227,15.812629999999999,-1
702,703,1580697156911,3.7243,-2.6748,6.3542,4.4101963,-4.414075,15.475708,-1
703,704,1580697156921,2.401,-3.3616998,6.6808996,3.6793517999999996,-5.602786,16.504170000000002,-1
704,705,1580697156932,1.8281,-4.1331,8.7874,3.2299984,-6.5327997,18.746695000000003,-1
705,706,1580697156943,2.0945,-4.0401998,11.366899499999999,3.6319082000000003,-6.591811999999999,21.141157,-1
706,707,1580697156953,2.497,-3.5324,12.988899,4.0682849999999995,-6.2770224,22.412209,-1
707,708,1580697156963,2.5737997999999997,-2.8899999,13.0364,4.1208234,-5.7037830000000005,21.752665,-1
708,709,1580697156973,2.5627,-2.016,11.5821,4.1721935,-5.04804,20.330776,-1
709,710,1580697156984,2.5333997999999998,-0.9111,9.7371,4.056764,-4.0478578,18.19034,-1
710,711,1580697156994,2.2186,-0.3347,8.5381,3.4860246,-3.8901947,17.4628,-1
711,712,1580697157004,1.5157,-0.3214,8.8546,2.7446458,-4.204151,18.266638,-1
712,713,1580697157014,0.9317,-0.5749,10.1283,2.2409825,-4.5814676,19.480078,-1
713,714,1580697157025,0.65529996,-0.61359996,11.1556,2.1022336,-4.6408724999999995,20.166285000000002,-1
714,715,1580697157035,0.6026,-0.43219998,11.290299000000001,2.1480587000000004,-4.5211816,19.432873,-1
715,716,1580697157045,0.5936,-0.2782,10.095699,2.0680156000000003,-4.4357370000000005,18.179653,-1
716,717,1580697157055,0.4276,-0.0156,8.4251995,1.9412762,-4.176407299999999,16.394976,-1
717,718,1580697157065,0.5069,0.3028,6.6275997,2.3292994,-3.8083897000000007,14.353670000000001,-1
718,719,1580697157075,0.99219996,0.6699,5.1886997,2.5982163,-3.3167257000000006,13.456736,-1
719,720,1580697157086,1.0613999,1.162,4.5257,2.4734786,-3.1750178,12.91078,-1
720,721,1580697157096,0.96999997,1.2099,4.1991,2.3015747,-3.29106,12.9158945,-1
721,722,1580697157106,0.81939995,1.1302999,4.4042,2.0603254,-3.4255087,13.197673000000002,-1
722,723,1580697157116,0.5203,1.0008,4.6958,1.6312367,-3.6251564,13.337283,-1
723,724,1580697157126,0.035299998,0.8028,4.647,1.0239235,-3.8976645,12.665021000000001,-1
724,725,1580697157137,-0.43799999999999994,0.5945,3.8730998,0.96128154,-4.0350722999999995,11.843522,-1
725,726,1580697157147,-0.38099998,0.4403,2.8167999,1.2621657,-4.021742,10.811055999999999,-1
726,727,1580697157157,-0.1043,0.48589998,2.0802999,1.6847134999999998,-3.7715763999999994,10.467075999999999,-1
727,728,1580697157167,0.3958,0.79039997,1.8349999,2.1317303,-3.4296076,10.505077,d
728,729,1580697157177,0.9774,1.2034,1.956,2.6563666,-3.0360777000000003,10.847419,-1
729,730,1580697157188,1.2974,1.4214,2.2863998,2.5893962000000004,-3.0954347,11.042758000000001,-1
730,731,1580697157198,1.1504999,1.2889999,2.3823,2.2999468,-3.3706242999999994,10.744977,-1
731,732,1580697157208,0.89159995,1.0415,2.0142999,1.7661354999999999,-3.6608398,10.390175,-1
732,733,1580697157218,0.3371,0.7249,1.7016,1.2352741000000003,-4.031357,10.217917,-1
733,734,1580697157228,-0.16059999,0.3423,1.5244,0.9580542,-4.3596306,10.104691,-1
734,735,1580697157239,-0.39909998,-0.0056,1.4045999,0.7329226,-4.5500655,9.919034,-1
735,736,1580697157249,-0.5883,-0.17029999,1.2245,1.0312114,-4.4933996,9.6771145,-1
736,737,1580697157259,-0.2908,-0.14989999,0.97429997,1.4105774,-4.284692,9.55025,-1
737,738,1580697157269,0.1802,0.0784,0.83199996,1.7406038000000001,-4.10618,9.644563,-1
738,739,1580697157279,0.4983,0.2121,0.9754,1.8666154,-4.2163900000000005,10.166872,-1
739,740,1580697157290,0.3674,-0.13699999999999998,1.6064999,1.6386011999999999,-4.392718299999999,10.369096,-1
740,741,1580697157300,0.3674,-0.13699999999999998,1.6064999,1.4045056999999999,-4.5809120000000005,10.481461,-1
741,742,1580697157310,0.1466,-0.35009998,1.7091999,1.3619655000000002,-4.5712495,10.7552805,-1
742,743,1580697157321,0.12329999,-0.369,1.9677999,1.5028404,-4.452334,10.961478,-1
743,744,1580697157332,0.33929998,-0.252,2.1959,1.6201754,-4.385123999999999,11.036100999999999,-1
744,745,1580697157342,0.83519995,-0.0037,2.8358,2.0682552,-4.098193,11.799766,-1
745,746,1580697157352,1.1398,0.048299998,3.4636998,2.3571392999999996,-3.9526449999999995,12.583972,-1
746,747,1580697157362,1.2184,0.1343,4.0111,2.2896037000000002,-3.8869865,12.997278,-1
747,748,1580697157372,1.1214,0.025899999,4.1823997,2.1640327,-4.0045513999999995,13.145057999999999,-1
748,749,1580697157383,0.94329995,-0.1599,4.3210998,1.9169223000000002,-4.0829663,13.311723,-1
749,750,1580697157393,0.5749,-0.22569999,4.4084997,1.5279125,-4.0468807,13.453767000000001,-1
750,751,1580697157403,0.42200000000000004,-0.1776,4.6127,1.5151371,-3.916119,13.758595000000001,-1
751,752,1580697157413,0.46519998,-0.12109999,4.9837,1.437249,-3.7999907,14.222372,-1
752,753,1580697157424,0.1647,-0.1538,5.5021996,1.0167217,-3.8296692,14.828172,-1
753,754,1580697157433,-0.2771,-0.41489998,6.1481,0.6586161,-4.027861,15.394908,-1
754,755,1580697157443,-0.5381,-0.6242,6.9398,0.47752833,-4.13924,16.390667,-1
755,756,1580697157453,-0.52919996,-0.76519996,7.6408997,0.50522447,-4.164886,16.802057,-1
756,757,1580697157464,-0.2854,-0.7238,8.0145,0.7819463000000001,-3.9609864000000004,17.288854999999998,-1
757,758,1580697157474,-0.1276,-0.5211,8.2958,0.9029396000000001,-3.6061847,17.556892,-1
758,759,1580697157484,-0.20729999,-0.3337,8.1414995,0.7688451999999999,-3.328898,17.241814,-1
759,760,1580697157494,-0.2347,-0.43719998,7.5123,0.7030334,-3.2767619999999997,16.516266,-1
760,761,1580697157504,-0.4289,-0.5275,6.5565996,0.44308054,-3.2414236,15.532335999999999,-1
761,762,1580697157514,-0.59819996,-0.7679,5.5415998,0.2656702,-3.372444,14.693762,-1
762,763,1580697157524,-0.7414,-1.0931,4.8919997,0.09522219,-3.4302589999999995,14.22853,-1
763,764,1580697157535,-0.82409996,-1.2247,4.4919,-0.0009289502599999999,-3.3296163,13.966651999999998,-1
764,765,1580697157545,-0.9485,-1.3501999,4.2924,-0.19947532,-3.2394314,13.772510999999998,-1
765,766,1580697157555,-1.2018,-1.2398,3.8314998,-0.39409518,-2.8969840000000002,13.296438,-1
766,767,1580697157565,-1.1961,-1.0343,2.9419999999999997,-0.19888155,-2.3701448,11.903492,-1
767,768,1580697157575,-0.95949996,-0.99499995,1.7623999,-0.09945514,-2.2337615,10.903932000000001,-1
768,769,1580697157585,-0.997,-1.0702,0.94159997,-0.21945253,-2.0235984,10.46451,-1
769,770,1580697157596,-1.165,-1.0512999,0.6659999999999999,-0.29510929999999996,-1.7821096,10.266805999999999,-1
770,771,1580697157606,-1.1249,-0.9851,0.3558,-0.28116548,-1.6278465,10.047967,-1
771,772,1580697157617,-1.4146,-0.79499996,0.1078,-0.86337787,-1.1223252000000001,9.819636000000001,-1
772,773,1580697157627,-1.7349,-0.6902,0.0195,-1.0035536,-1.0133505999999999,9.659206,-1
773,774,1580697157637,-1.7508999,-0.7959999999999999,-0.2619,-1.0608803999999998,-1.1044931,9.17051,-1
774,775,1580697157647,-1.8312,-1.0702,-0.7072,-1.1452136999999998,-1.075552,8.740292,-1
775,776,1580697157657,-1.8106999,-1.1587,-1.1592,-0.7207409,-0.9607261,8.155666,-1
776,777,1580697157668,-1.3147,-1.2142,-1.7357999,-0.32192436,-0.9186264999999999,7.7539387,-1
777,778,1580697157678,-0.80509996,-1.2794,-2.1538,0.25599763,-0.5944229,7.581843400000001,-1
778,779,1580697157688,-0.3417,-1.0044,-2.189,0.34844252,0.0017429788000000001,7.708630599999999,-1
779,780,1580697157699,-0.30719998,-0.5815,-2.0095,0.15106454,0.16859010000000002,8.002417999999999,-1
780,781,1580697157709,-0.43179998,-0.6333,-1.7422999,0.06968085,-0.17952682,7.8149614000000005,-1
781,782,1580697157719,-0.3874,-0.99499995,-1.9553,0.14066415,-0.22100396,7.395938,-1
782,783,1580697157730,-0.20629999,-1.1227,-2.5003,0.30999166,-0.08738836,6.676278999999999,-1
783,784,1580697157740,0.0481,-1.0835999,-3.0830998,0.28294674,-0.15110286,6.056564,-1
784,785,1580697157750,-0.0221,-1.4513999,-3.8834,0.041352652000000004,-0.29777166,5.8642525999999995,-1
785,786,1580697157760,-0.19569999,-1.8217,-3.7391998999999996,-0.25139117,-0.6145533000000001,5.9958860000000005,-1
786,787,1580697157770,-0.2531,-2.0565,-3.9575998999999995,-0.41290402,-0.7987919,5.7766147000000005,-1
787,788,1580697157781,-0.2531,-2.0565,-3.9575998999999995,-0.25338316,-0.72563463,5.609854,-1
788,789,1580697157791,0.5293,-1.4778999,-3.8544998,0.18141346,-0.15853445,5.861504,-1
789,790,1580697157801,0.5293,-1.4778999,-3.8544998,0.6204430000000001,0.41443630000000004,6.1895094,-1
790,791,1580697157811,1.2329999,-0.83169997,-3.6215,0.6626288,0.5559528,6.073285,-1
791,792,1580697157822,1.426,-0.8673,-3.7965,0.781908,0.5298847,5.866493,-1
792,793,1580697157832,1.4886,-1.1795,-3.8528,0.7535989000000001,0.2921692,5.8301015,-1
793,794,1580697157842,1.3225,-1.7734,-3.8985999,0.48986325,-0.38428852,5.7759733,-1
794,795,1580697157852,0.7744,-2.4298,-3.8744,-0.18243816,-0.8855864999999999,5.7319107,-1
795,796,1580697157862,0.1713,-2.6692,-4.3971,-0.63470286,-0.92325205,5.023696,-1
796,797,1580697157872,-0.045199998,-2.6697,-5.504699700000001,-0.77190024,-0.78019375,3.7426352999999994,-1
797,798,1580697157883,-0.0681,-2.6764,-6.1896,-0.68422455,-0.6784785,3.3658357000000003,-1
798,799,1580697157893,0.1255,-2.5542998,-6.1906,-0.41755834,-0.39051345,3.4218028,-1
799,800,1580697157903,0.49269998,-2.1613998,-6.0190997,-0.07359777,-0.017104176999999998,3.5395398,-1
800,801,1580697157913,0.69729996,-1.9794999,-5.989,0.18505265,0.27685590000000004,3.5648897000000006,-1
801,802,1580697157923,0.5929,-1.8073,-5.8526998,0.09125739,0.57630354,3.7951832000000003,-1
802,803,1580697157933,0.6839,-1.5768,-5.5067997,0.3209092,0.7528615,4.23111,-1
803,804,1580697157944,0.9287,-1.5151,-4.9751,0.6382366999999999,0.77886254,4.7520690000000005,-1
804,805,1580697157954,1.0992,-1.5701,-4.5913,0.74709624,0.7243418,5.108537,-1
805,806,1580697157964,1.1391,-1.5906999,-4.0710998,0.8938417,0.7454395,5.73193,-1
806,807,1580697157974,1.2715,-1.5236,-3.4153,1.0448104,0.85126317,6.328191,-1
807,808,1580697157984,1.2222998999999999,-1.3498,-2.9963999,0.98647815,1.0257717,6.5391297,-1
808,809,1580697157994,1.0242,-1.0751,-3.1757998,0.6955347,1.3243958,6.1362143,-1
809,810,1580697158005,0.738,-0.9799,-3.8544,0.51069283,1.3061328,5.532339599999999,-1
810,811,1580697158015,0.67109996,-1.0457,-4.3947997,0.64634824,1.2888561,5.121217,-1
811,812,1580697158025,1.122,-0.89589995,-4.2,1.2778621000000001,1.4968166,5.707135,-1
812,813,1580697158035,1.5442,-0.7412,-3.5749,1.5817916,1.5818204,6.1085085999999995,-1
813,814,1580697158045,1.7851,-0.49019998,-2.6375,1.7524023999999998,1.9715102,7.614222,-1
814,815,1580697158056,1.6516998999999999,-0.1828,-1.5249,1.61758,2.2233417,8.559185000000001,-1
815,816,1580697158066,1.4146999,0.1153,-0.7062,1.2879465,2.4669855,9.198896000000001,-1
816,817,1580697158076,0.9034,0.26319999,-0.2591,0.75950783,2.4526105,9.319516,-1
817,818,1580697158086,0.39929998,0.2216,-0.3017,0.47970223,2.3324409,9.119887,-1
818,819,1580697158096,0.2538,0.100899994,-0.5796,0.5232287999999999,2.2223554,8.853241,-1
819,820,1580697158106,0.3629,0.0127,-0.77019995,0.6986855,2.1164549999999998,8.842945,-1
820,821,1580697158117,0.6023,-0.021,-0.6874,1.0233200999999998,2.1353598,9.019388000000001,-1
821,822,1580697158127,0.98859996,0.166,-0.3409,1.3405806,2.3832076,9.469623,-1
822,823,1580697158137,1.1406,0.35729998,0.034199997999999995,1.2990458999999999,2.4472764,9.943675,-1
823,824,1580697158147,0.99859995,0.43289998,0.3992,1.0773332,2.6180787,10.179677,-1
824,825,1580697158157,0.79829997,0.6653,0.60749996,0.97480404,2.836047,10.35725,-1
825,826,1580697158167,0.68439996,0.90639997,0.777,0.9213846,2.916425,10.609272,-1
826,827,1580697158178,0.7033,0.96959996,1.202,1.0657931999999999,2.7842363999999997,11.474308,-1
827,828,1580697158188,0.8096,0.8524,2.0008,1.1251023999999998,2.6312563,12.152067,-1
828,829,1580697158198,0.8268,0.7542,2.5962,1.1946875,2.6202815,12.304032000000001,-1
829,830,1580697158208,0.9009,0.72999996,2.5865,1.3359646,2.589827,11.668209,-1
830,831,1580697158219,0.95409995,0.7159,2.0391,1.1574146,2.5319066,11.076707,-1
831,832,1580697158229,0.7711,0.6533,1.4419,0.9850991,2.4231906000000003,10.809888,-1
832,833,1580697158239,0.5663,0.51159996,1.1462,0.7705786,2.2266555,10.764025,-1
833,834,1580697158249,0.3522,0.3207,1.1425999,0.45047385,2.0039947,10.790313000000001,-1
834,835,1580697158259,0.120299995,0.1723,1.1481,0.25033772,1.9745939,10.837881,-1
835,836,1580697158269,-0.059499998,0.15709999,1.1939,0.19545305,1.9310002,11.168808,-1
836,837,1580697158280,-0.11800000000000001,0.113199994,1.5263,0.35436100000000004,1.9609948,11.395873,-1
837,838,1580697158290,0.0796,0.1449,1.7735,0.6515389,2.0157838,11.367152,-1
838,839,1580697158300,0.2952,0.1718,1.7297,0.90450066,2.1130555,11.037558,-1
839,840,1580697158310,0.5749,0.25059998,0.8943,1.0000676,2.1747682,10.508506,-1
840,841,1580697158320,0.35639998,0.1768,0.3159,0.8024119000000001,2.151554,9.923047,-1
841,842,1580697158331,0.35639998,0.1768,0.3159,0.55143255,2.0521085,9.515669,-1
842,843,1580697158341,-0.1039,-0.11800000000000001,-0.5219,0.329423,1.8888528000000002,9.013834,-1
843,844,1580697158351,-0.1039,-0.273,-0.5475,0.14071202,1.7278953999999997,9.102209,-1
844,845,1580697158363,-0.4093,-0.4265,-0.28129998,0.025177425,1.6020656999999998,9.397155,-1
845,846,1580697158372,-0.52639997,-0.4845,0.0126,-0.07732314,1.5750399,9.605413,-1
846,847,1580697158382,-0.53639996,-0.39319998,0.3159,-0.086210415,1.6699747999999999,9.909142,-1
847,848,1580697158392,-0.46109998,-0.31489998,0.4044,0.0335284,1.7749271,9.978171000000001,-1
848,849,1580697158402,-0.3197,-0.1639,0.2883,0.2229385,1.9477788,9.861611,-1
849,850,1580697158413,0.092,0.049,0.08549999400000001,0.77227366,2.2082584,9.5824375,-1
850,851,1580697158423,0.4912,0.1889,-0.0866,1.0451840000000001,2.3109603,9.463465,-1
851,852,1580697158433,0.654,0.19,-0.17989999,1.1716648,2.284145,9.355189,-1
852,853,1580697158443,0.57159996,0.1313,-0.371,0.99595916,2.2714846,9.123068,-1
853,854,1580697158453,0.2953,0.123399995,-0.4939,0.7462152,2.2675388,9.046051,-1
854,855,1580697158463,0.0823,0.072399996,-0.5203,0.5876041,2.2340872000000003,9.051364999999999,-1
855,856,1580697158474,-0.0757,0.0788,-0.42139998,0.47136083,2.2453783,9.141886,-1
856,857,1580697158484,-0.07200000000000001,0.1811,-0.2656,0.47969269999999997,2.3588443,9.361252,-1
857,858,1580697158494,-0.0479,0.19829999,-0.042,0.48301584,2.342171,9.641881,-1
858,859,1580697158504,-0.0401,0.1832,0.2218,0.53234595,2.3650692,9.850722,-1
859,860,1580697158515,0.0176,0.2671,0.3509,0.6020843000000001,2.4623310000000003,9.940744,-1
860,861,1580697158524,0.0859,0.35999998,0.41419998,0.76031226,2.520989,9.962254,-1
861,862,1580697158534,0.3524,0.23619999,0.22559999,1.0110713,2.4083755,9.681414,-1
862,863,1580697158544,0.5197,0.2417,-0.2452,1.1576158,2.5121784,9.215943,-1
863,864,1580697158554,0.5345,0.4157,-0.5009,1.1327733999999998,2.6840053,9.003501,-1
864,865,1580697158564,0.3791,0.36339998,-0.4746,0.8753776,2.5923266,9.211988,-1
865,866,1580697158575,0.0647,0.2724,-0.2061,0.48764142,2.530154,9.397855,-1
866,867,1580697158585,-0.32,0.1892,-0.10669999599999999,0.18112615,2.4238133,9.441735000000001,-1
867,868,1580697158595,-0.5629,0.0906,-0.0185,0.08554004,2.3759770000000002,9.550614,-1
868,869,1580697158605,-0.59459996,0.0314,0.20729999,0.23067655,2.3347106,9.812712,-1
869,870,1580697158616,-0.3324,0.0462,0.35639998,0.5924020999999999,2.4013459999999998,9.961507000000001,-1
870,871,1580697158626,0.030199998999999998,0.1344,0.46809998,0.9940534,2.4985507,10.078536,-1
871,872,1580697158636,0.4412,0.19999999,0.6591,1.3663038,2.621871,10.226268,d
872,873,1580697158646,0.6695,0.4129,0.7125,1.4390493999999998,2.9898887000000003,10.061595,-1
873,874,1580697158657,0.67249995,0.7752,0.4509,1.430344,3.1727867,9.872836,-1
874,875,1580697158667,0.6706,0.7977,0.4233,1.4539986999999999,3.2032502,10.05514,-1
875,876,1580697158678,0.7204,0.90239996,0.6601,1.6172258999999998,3.3556652000000002,10.36766,-1
876,877,1580697158688,0.89809996,1.0368998999999999,1.1036,2.0195475,3.3119852999999995,11.194147000000001,-1
877,878,1580697158698,1.3486999,0.8767,1.8425,2.6883150000000002,2.9705627,11.66569,-1
878,879,1580697158708,2.2145998,0.44079998,2.3371,3.7070575,2.6820996,12.171461,-1
879,880,1580697158718,2.9642,0.31939998,2.8021,4.5066347,2.7772354999999997,12.8996525,-1
880,881,1580697158729,3.7368,0.43949997,3.6183998999999996,5.0504245999999995,3.0811843999999997,14.093344,-1
881,882,1580697158739,4.139199700000001,0.7535,4.7269,5.4008975,3.2686312,14.868826,-1
882,883,1580697158749,4.6572,0.96099997,5.7756,6.032536,3.4352677000000003,15.753023,-1
883,884,1580697158759,5.132999999999999,1.1287,6.3064,6.384809,3.560944,15.572826000000001,-1
884,885,1580697158769,5.4691,1.1467999,5.9789,7.032642,3.1114376,14.523620000000001,-1
885,886,1580697158780,6.0281,0.3707,3.8674,7.8826694,2.8808472000000003,13.306034,-1
886,887,1580697158790,6.8626,0.3707,3.8674,8.638203,2.872027,12.602244,-1
887,888,1580697158800,7.7623,0.2647,3.0588999,9.490864,3.1006446,12.005514,-1
888,889,1580697158810,8.4064,0.3576,2.6366,9.567881,3.3189862,11.760663000000001,-1
889,890,1580697158820,8.125199,0.1784,1.7735,9.135019,2.977573,10.911258,-1
890,891,1580697158830,7.6485996,-0.4292,0.81119996,8.611599,2.461766,9.883054,-1
891,892,1580697158841,7.1264,-0.97669995,-0.0929,8.151241,2.1184375,9.167743,-1
892,893,1580697158851,7.1264,-0.97669995,-0.0929,7.547089,1.8691533,8.772163,-1
893,894,1580697158861,6.5580997000000005,-1.3152,-0.4676,7.037325,1.8890156999999999,8.8129225,-1
894,895,1580697158871,5.7651,-1.3773,-0.3825,6.676145,1.9839696,8.798213,-1
895,896,1580697158881,5.5724,-1.4739,-0.8998,6.443295,1.9858083999999998,8.253484,-1
896,897,1580697158892,5.2170997,-1.8347,-1.8539,5.959283,1.6706165000000002,6.9932523,-1
897,898,1580697158902,5.0782,-2.2233,-3.2345,5.8283772,1.4112095,5.526785,-1
898,899,1580697158912,4.8429,-2.4952,-4.554199700000001,5.2953324,1.3353612,4.135217,-1
899,900,1580697158922,4.8429,-2.4952,-4.554199700000001,4.569535299999999,1.3753731000000002,3.8516862,-1
900,901,1580697158933,3.0567,-2.8044999,-4.98,3.397851,1.1079408000000002,4.031500299999999,-1
901,902,1580697158943,3.0567,-2.8044999,-4.98,1.6723787,0.5749053000000001,4.3852487,-1
902,903,1580697158953,0.2938,-3.7842,-4.5148997,0.06516059,0.13192052,4.334673400000001,-1
903,904,1580697158963,-1.1360999,-4.1572,-4.7753997,-1.2917006000000002,-0.12533167,3.9495422999999996,-1
904,905,1580697158973,-2.0131,-4.3254,-5.3135,-1.9790376,-0.15966453,3.2173762000000004,-1
905,906,1580697158983,-2.3085,-4.2927,-6.2841997,-2.1371027999999996,-0.072075054,2.5709128,-1
906,907,1580697158993,-2.6317,-4.2777,-7.436,-2.5090467999999997,0.04738604,1.3865875,-1
907,908,1580697159004,-3.0381,-4.1369,-8.287,-3.0768459999999997,0.31739452,0.2512284,-1
908,909,1580697159014,-3.4083997999999998,-4.0513997,-8.7273,-3.5733268,0.41084499999999996,0.062661044,-1
909,910,1580697159025,-3.9526,-3.984,-8.4571,-4.316928,0.47683877,0.58515245,-1
910,911,1580697159035,-4.7886,-3.9166,-7.7208996,-5.384866000000001,0.5124166,1.4496316999999999,-1
911,912,1580697159045,-5.6682997,-3.9087,-7.1603,-6.0286574,0.42998904,1.6897221999999998,-1
912,913,1580697159055,-6.8279,-4.192199700000001,-6.973,-7.567267,-0.035673607,1.8182237,-1
913,914,1580697159065,-8.1066,-4.6523,-7.1239,-8.844985000000001,-0.6235651,1.5837357,-1
914,915,1580697159075,-9.1711,-5.2832,-7.3865,-9.692246,-1.2351974,1.4104912,-1
915,916,1580697159085,-9.7007,-5.7769,-7.3901,-10.288785,-1.7545093,1.5402951999999999,-1
916,917,1580697159096,-10.4246,-6.1998,-7.1991,-11.087164999999999,-2.0841908,1.7623624,-1
917,918,1580697159106,-11.7373,-6.4182,-6.888999999999999,-12.701661,-2.1292592999999997,2.1091290000000003,-1
918,919,1580697159116,-12.9782,-6.1871,-6.6895,-13.671754,-1.7373764999999999,2.277834,-1
919,920,1580697159126,-13.797198999999999,-5.6315,-6.5621,-14.189792,-1.4010868,2.4124455,-1
920,921,1580697159136,-14.2421,-5.159,-6.3662996,-14.234132999999998,-1.0224295,2.8257039,-1
921,922,1580697159146,-13.6657,-4.8932,-6.0752997,-12.973921,-1.1737046999999998,3.1257644,-1
922,923,1580697159156,-12.1377,-5.0859,-5.7899,-11.295116,-1.5361388999999999,3.5825013999999995,-1
923,924,1580697159167,-10.7877,-5.1952,-5.2811,-10.334141,-1.4133451000000001,4.120603,-1
924,925,1580697159177,-10.268499,-4.9075,-4.8556,-10.0196,-1.3014785,4.493562,-1
925,926,1580697159187,-10.1428995,-4.763499700000001,-4.2064,-9.854792999999999,-1.2038428999999997,5.938836599999999,-1
926,927,1580697159197,-10.2273,-4.4735,-3.0152,-9.801335,-0.9705328000000001,7.3786707,-1
927,928,1580697159207,-10.259399,-4.1286,-1.5582,-9.326842,-1.157836,8.848673,-1
928,929,1580697159217,-9.4677,-4.3206,0.30449998,-7.692474000000001,-1.9080925,11.009813000000001,-1
929,930,1580697159227,-8.1185,-4.792,1.8847,-6.53076,-2.5545557,11.85487,-1
930,931,1580697159237,-6.8424997,-5.47,2.6216,-5.4347324,-3.5888507000000005,12.092759,-1
931,932,1580697159248,-6.2928,-6.4072,2.4486,-5.450352,-4.982161,11.48444,-1
932,933,1580697159258,-6.5481997000000005,-7.3704996,1.9403,-5.4743805,-5.4797725999999995,11.512633000000001,-1
933,934,1580697159268,-6.4056997,-7.7208,2.4933999,-4.6129847,-5.5204735000000005,13.177189000000002,-1
934,935,1580697159278,-5.7555,-7.2647996,3.9378998,-3.9326775,-5.1654615,14.693742000000002,-1
935,936,1580697159289,-5.1222,-6.796,5.3801,-3.1430217999999996,-5.414170700000001,15.873107000000001,-1
936,937,1580697159299,-4.3883,-6.8777,6.3918,-2.3132873,-5.684648999999999,15.958685999999998,-1
937,938,1580697159309,-3.7440998999999997,-6.8725996,6.319,-1.4386758,-6.152275,15.135320000000002,-1
938,939,1580697159319,-2.6613998,-7.3398,5.2405996,-0.6410236,-7.252717,14.010735,-1
939,940,1580697159329,-2.0869999999999997,-8.0746,4.332,-0.5132977,-7.324284,14.565279,-1
940,941,1580697159339,-1.9580000000000002,-7.9574,4.8766,0.18703504,-7.048769,15.964891,-1
941,942,1580697159349,0.2974,-6.6997,8.5566,1.7775894,-6.4825788,18.256027,-1
942,943,1580697159360,1.5004,-6.4764,9.6151,2.9929914,-6.450736,19.324532,-1
943,944,1580697159370,1.5004,-6.4764,9.6151,3.8079011,-6.727524799999999,19.208612,-1
944,945,1580697159380,2.299,-6.5941,9.5103,4.30736,-6.936462,18.094935999999997,-1
945,946,1580697159390,3.7888,-6.5214,6.7261,5.263413,-6.86975,16.431522,-1
946,947,1580697159400,4.7297997,-5.7521996,6.9294,6.361978,-6.029136,16.844425,-1
947,948,1580697159411,5.9993,-4.5861998,8.251699,7.679775,-4.9788765999999995,18.214014000000002,-1
948,949,1580697159421,5.9993,-4.5861998,8.251699,9.076735000000001,-4.080936,19.05686,-1
949,950,1580697159431,9.4565,-2.3051999,9.5068,10.662644,-3.1814632,19.214983,-1
950,951,1580697159441,9.4565,-2.3051999,9.5068,11.512375,-2.8175828,18.493053,-1
951,952,1580697159452,10.5306,-1.7960999,8.5047,11.794938,-2.7427878,17.550207,-1
952,953,1580697159461,10.7618,-1.8498,6.7152,11.742237,-2.962997,16.046657999999997,-1
953,954,1580697159471,10.7507,-2.2036998,4.9042,11.680553,-3.2920084000000003,14.345998999999999,-1
954,955,1580697159481,11.0427,-2.2489998,3.9954,12.559772,-2.6523254,14.013703,-1
955,956,1580697159491,11.7725,-1.5830000000000002,4.2854,13.680957000000001,-1.6631466000000001,14.968883499999999,-1
956,957,1580697159502,13.9809,0.0727,5.1349,14.817178,-0.9383834000000001,14.686838,-1
957,958,1580697159512,14.7346,0.67969996,3.8665,15.317986999999999,-0.457417,13.607779999999998,-1
958,959,1580697159522,14.7346,0.67969996,3.8665,15.844023000000002,-0.02557965,12.156004,-1
959,960,1580697159532,15.547899,1.3209,0.8365,15.794270499999998,0.22667345,10.047029,-1
960,961,1580697159542,15.2268,1.3298,-0.4032,15.2975025,0.20886058,9.0236225,-1
961,962,1580697159552,14.8945,1.2673,-1.0733,15.038604000000001,0.17507361,8.626089,-1
962,963,1580697159562,14.7689,1.3813,-1.0855,14.969545000000002,0.35819173,8.709982,-1
963,964,1580697159572,14.597798999999998,1.6841999,-0.6946,14.729119,0.67666847,9.184042999999999,-1
964,965,1580697159582,14.3687,1.8024,-0.1661,14.474539000000002,0.71478415,9.667403,-1
965,966,1580697159593,14.1025,1.7006999,-0.069299996,14.231729000000001,0.6241300999999999,9.614778999999999,-1
966,967,1580697159603,13.868098999999999,1.5423,-0.5911,13.987376000000001,0.50308883,9.029492,-1
967,968,1580697159613,13.452,1.4095,-1.3781999,13.415335,0.27423188,8.060626,-1
968,969,1580697159623,12.7828,0.97419995,-2.0866,12.598107,-0.23484245,7.448706,-1
969,970,1580697159633,11.6986,0.40609998,-2.6081,11.355785000000001,-0.81361675,6.99965,-1
970,971,1580697159643,10.3215,-0.33409998,-2.9034998,9.9585,-1.6400473000000002,6.834574000000001,-1
971,972,1580697159654,8.9156,-1.1726999,-2.9729,8.416183,-2.4819157000000005,6.655094999999999,-1
972,973,1580697159665,7.6839,-1.7326,-3.2675,7.476843,-2.9028068,6.2046980000000005,-1
973,974,1580697159675,6.8697,-2.1685998,-3.7577998999999997,6.94376,-3.3139486000000002,5.8122697,-1
974,975,1580697159685,6.3464,-2.5184999,-4.0211997,6.6123734,-3.4338026,5.749924,-1
975,976,1580697159695,6.0097,-2.5528998,-3.9294998999999997,6.360398,-3.536571,6.130047,-1
976,977,1580697159705,5.7191997,-2.7158,-3.3356998,6.0043516,-3.7858650000000003,6.932727000000001,-1
977,978,1580697159716,5.148,-2.9125,-2.4457,5.246672599999999,-4.108249,7.782553699999999,-1
978,979,1580697159726,4.316,-3.2540998,-1.662,4.4130215999999995,-4.6839304,8.386026,-1
979,980,1580697159736,3.4384,-3.7988,-1.2501999,3.7592988,-5.1524944,8.519651,-1
980,981,1580697159746,2.5035,-4.2657,-1.2892,2.697748,-5.5252624,8.349941000000001,-1
981,982,1580697159756,1.4991,-4.3817,-1.4257,1.7297916000000002,-5.546053400000001,8.216067,-1
982,983,1580697159766,0.4064,-4.3424,-1.4722998999999999,0.8208473,-5.446368,8.360227,-1
983,984,1580697159776,-0.5894,-4.1707997,-1.1342,0.18691054,-5.2939534,8.780447,-1
984,985,1580697159786,-1.2892,-3.8943,-0.431,-0.27571627,-4.9273915,9.736939999999999,-1
985,986,1580697159796,-1.4496,-3.5393999,0.45009997,0.10650367,-4.6842747000000005,10.743136999999999,-1
986,987,1580697159807,-1.0681,-3.1882,1.5611999,0.3969395,-4.4249635000000005,11.670057,-1
987,988,1580697159817,-1.0471,-2.998,2.1836,-0.022802377000000002,-4.566231,11.708288,-1
988,989,1580697159827,-1.9844998999999999,-3.3139999999999996,1.9438,-1.6525929,-5.147122,11.385415,-1
989,990,1580697159837,-3.925,-3.8311,1.8203,-3.715849,-5.5632057,11.559857000000001,-1
990,991,1580697159847,-5.4632998,-4.0338,2.0226,-4.182307,-5.4029474,11.524538,-1
991,992,1580697159857,-5.8389,-3.7779998999999997,1.9239,-4.0294127,-4.9370837,11.213789,-1
992,993,1580697159867,-5.8197,-3.3423,1.6212,-3.9556236000000005,-4.697835400000001,11.105754,-1
993,994,1580697159878,-5.8669996,-3.1727998,1.6432999,-4.0951285,-4.699311,11.46386,-1
994,995,1580697159888,-6.1893997,-3.2129,2.0872,-4.3752794,-4.8469562999999996,11.955437,-1
995,996,1580697159898,-6.6681,-3.445,2.7452,-4.9084296,-5.1735826,12.59737,-1
996,997,1580697159908,-7.1377997,-3.6495998,3.2333998999999998,-5.194374,-5.2620435,12.932625,-1
997,998,1580697159918,-7.4483,-3.6322,3.5707998,-5.442595,-5.0136400000000005,13.186497,-1
998,999,1580697159928,-7.638,-3.2849,3.7775,-5.1664767,-4.430183,13.08189,-1
999,1000,1580697159939,-7.3689,-2.7412,3.6671,-4.7455277,-3.7566748,12.627058,-1
1000,1001,1580697159949,-6.7963996,-1.8664,3.0621,-3.9060922,-2.919911,11.849355000000001,-1
1001,1002,1580697159959,-5.8999,-1.05,2.3158,-3.0318542,-2.297658,11.439552,-1
1002,1003,1580697159969,-5.0169,-0.46159998,2.0089,-2.0607849999999996,-1.9215384999999998,11.344781,-1
1003,1004,1580697159979,-4.2019,-0.17799999,1.9274,-1.672168,-1.8803006000000002,11.2743435,-1
1004,1005,1580697159989,-3.7884,-0.1336,1.8549,-1.8860755,-1.9815848999999999,11.114258,-1
1005,1006,1580697160000,-3.9833998999999998,-0.23249999,1.6832999,-2.2007790000000003,-2.232095,10.992776,-1
1006,1007,1580697160010,-4.5206,-0.6979,1.3871,-2.4640262,-2.4282567999999998,10.825546000000001,-1
1007,1008,1580697160020,-4.72,-0.87329996,1.1053,-2.6875298,-2.6021620999999997,10.546477000000001,-1
1008,1009,1580697160030,-4.6080000000000005,-0.9683,0.7829999999999999,-2.6118919999999997,-2.6849727999999997,10.244128,-1
1009,1010,1580697160040,-4.1823997,-0.83339995,0.3911,-2.2224991000000003,-2.5543547,9.85599,-1
1010,1011,1580697160050,-4.1823997,-0.83339995,0.3911,-1.3639958,-2.250655,9.624441000000001,-1
1011,1012,1580697160061,-2.1927,-0.14549999,0.0381,-0.34352964,-1.8688755000000001,9.524116000000001,-1
1012,1013,1580697160071,-1.2349,0.14,0.1274,0.58280617,-1.5957258,9.616752,-1
1013,1014,1580697160081,-0.64489996,0.28849998,0.3847,1.1157553999999998,-1.4626753000000001,9.884951,-1
1014,1015,1580697160091,-0.6602,0.36589998,0.76089996,1.0594438,-1.3896903999999999,10.266519,-1
1015,1016,1580697160101,-0.93729997,0.2708,0.90199995,0.7399998999999999,-1.4907832,10.41088,-1
1016,1017,1580697160111,-1.3822,0.1192,0.69879997,0.2674419,-1.6289285,10.212773,-1
1017,1018,1580697160121,-1.7077,-0.036599997,0.3084,-0.12043792,-1.7906234,9.836931,-1
1018,1019,1580697160132,-1.6867,-0.2503,-0.013499998999999999,-0.11757445,-2.0360484,9.476356,-1
1019,1020,1580697160142,-1.5725,-0.3709,-0.16839999,-0.050125007,-2.1268172,9.366107000000001,-1
1020,1021,1580697160152,-1.4345,-0.44689998,-0.1856,0.07824251,-2.1864617,9.360457,-1
1021,1022,1580697160162,-1.1305,-0.32439998,-0.2215,0.35417905,-2.0190303,9.320895,-1
1022,1023,1580697160173,-0.7718,-0.0932,-0.2074,0.6684131999999999,-1.7949903999999999,9.39274,-1
1023,1024,1580697160183,-0.4806,0.1384,-0.0447,0.96578264,-1.5384086000000001,9.5575285,-1
1024,1025,1580697160194,-0.2392,0.261,-0.0081,1.1084005,-1.5164202,9.513466000000001,d
1025,1026,1580697160204,-0.26319999,0.1741,-0.1669,0.92925674,-1.6458125,9.303179,-1
1026,1027,1580697160214,-0.51269996,-0.015,-0.4231,0.7034355999999999,-1.8525375,9.068518,-1
1027,1028,1580697160224,-0.65309995,-0.2351,-0.5902,0.6090656999999999,-2.0601819,8.982461,-1
1028,1029,1580697160235,-0.75949997,-0.3741,-0.51089996,0.54081184,-2.1979346,9.149979,-1
1029,1030,1580697160245,-0.7583,-0.48659998,-0.2636,0.62510693,-2.2093117,9.421749,-1
1030,1031,1580697160255,-0.48659998,-0.34559998,0.053,1.0203034,-2.0714824,9.753422,-1
1031,1032,1580697160265,-0.0714,-0.2571,0.3994,1.3684201999999999,-2.0071647,10.087021,-1
1032,1033,1580697160275,0.2007,-0.1477,0.6083,1.6032723,-1.902289,10.209384,-1
1033,1034,1580697160285,0.36659998,-0.0312,0.6792,1.749041,-1.819986,10.300018,-1
1034,1035,1580697160295,0.5495,0.100499995,0.8576,1.8913427999999999,-1.6818118000000002,10.518705,-1
1035,1036,1580697160305,0.63019997,0.2572,1.0651,1.9286444,-1.5670912000000001,10.627574000000001,-1
1036,1037,1580697160316,0.5534,0.253,1.0562,1.7015494999999998,-1.6685861000000002,10.554867,-1
1037,1038,1580697160326,0.1265,0.0602,0.9287,1.1368053,-1.9751493999999998,10.429832000000001,-1
1038,1039,1580697160336,-0.27879998,-0.22039999,0.89919996,0.9096913000000001,-2.2004533,10.520381,-1
1039,1040,1580697160346,-0.4409,-0.44219998,1.1051999,0.83038574,-2.3283708,10.763335000000001,-1
1040,1041,1580697160356,-0.4368,-0.4116,1.2324,0.90706724,-2.1803038,10.820939,-1
1041,1042,1580697160366,-0.2913,-0.2453,1.3292999,1.095443,-1.9866894,11.152478,-1
1042,1043,1580697160377,-0.100899994,-0.076299995,1.6908,1.3381863999999999,-1.7706941000000003,11.577038,-1
1043,1044,1580697160387,0.22479999,0.2059,2.2387,1.5213811000000002,-1.6330755,12.028709,-1
1044,1045,1580697160397,0.3524,0.2562,2.8058999,1.3815788,-1.6676381,12.681367999999999,-1
1045,1046,1580697160407,0.063099995,0.2083,3.3432,0.8374343000000001,-1.8344084999999999,13.325619,-1
1046,1047,1580697160417,-0.3944,0.0289,3.8604,0.36849636,-2.0034490000000003,13.732681,-1
1047,1048,1580697160427,-1.0155,-0.19739999,4.4161997,-0.36473268,-2.3435595,14.528639000000002,-1
1048,1049,1580697160437,-1.5379,-0.49229997,5.0889,-0.7746583,-2.5952474999999997,15.131641,-1
1049,1050,1580697160448,-1.8801999,-0.7513,5.6714,-0.9327905999999999,-2.7274267999999995,15.521973999999998,-1
1050,1051,1580697160458,-2.0674,-0.9155,6.085,-1.2761956,-2.7374442,15.970915,-1
1051,1052,1580697160468,-2.3743,-0.9106,6.4572997,-1.5198486999999998,-2.6216892999999994,16.260231,-1
1052,1053,1580697160478,-2.55,-0.8585,6.6418,-1.5940595,-2.5560400000000003,16.08781,-1
1053,1054,1580697160488,-2.5791,-0.8365,6.4224997,-1.6205298000000001,-2.5703766,16.024775,-1
1054,1055,1580697160499,-2.4264,-0.9403,6.3985996,-1.3416531999999999,-2.6312852,16.080992000000002,-1
1055,1056,1580697160509,-2.0872,-1.0059999,6.4528,-1.0777165000000002,-2.544864,16.180618,-1
1056,1057,1580697160519,-1.7724999,-0.9503,6.5162997,-0.8754638000000001,-2.3283037999999996,16.04978,-1
1057,1058,1580697160529,-1.4979,-0.79789996,6.3241,-0.73444533,-2.2098002,15.733889000000001,-1
1058,1059,1580697160539,-1.3073,-0.7773,5.9449997,-0.7321085999999999,-2.0809827000000003,15.132878,-1
1059,1060,1580697160549,-1.2515,-0.75259995,5.4182,-0.7963019,-1.9530843,14.554179999999999,-1
1060,1061,1580697160559,-1.2879,-0.7316,4.6755,-1.0353582000000001,-2.0480959999999997,13.642918,-1
1061,1062,1580697160569,-1.4339,-0.9453,3.8941998,-1.3062956000000001,-2.2821627,13.031975,-1
1062,1063,1580697160580,-1.6384,-1.301,3.2710998,-1.3376883,-2.34672,12.664714,-1
1063,1064,1580697160590,-1.4451,-1.3687999,2.3927,-1.2092633999999998,-2.1017644,12.173731,-1
1064,1065,1580697160600,-1.3224,-1.1431999,2.0592,-1.109789,-1.6351726999999998,11.783227,-1
1065,1066,1580697160610,-1.1032,-0.7863,1.8061,-0.9307985999999999,-1.2324583999999998,11.609511999999999,-1
1066,1067,1580697160620,-0.58739996,-0.541,1.6336,-0.43204805,-0.8490126,11.440146,-1
1067,1068,1580697160630,0.07400000000000001,-0.5531,1.1985999,0.3542748,-0.6916753000000001,10.905588999999999,-1
1068,1069,1580697160641,0.4994,-0.7902,0.71669996,0.6403436,-0.7942045999999999,10.531384,-1
1069,1070,1580697160651,0.4876,-1.053,0.2271,0.5412524000000001,-0.92515785,9.918642,-1
1070,1071,1580697160661,0.2581,-1.263,-0.3976,0.30571082,-0.9811055000000001,9.418588,-1
1071,1072,1580697160671,0.0288,-1.3604,-0.8437,0.017439365,-0.94184065,8.956823,-1
1072,1073,1580697160681,-0.1081,-1.3238,-1.0425999,-0.21396501,-0.7696497,8.762328,-1
1073,1074,1580697160691,-0.2933,-1.2802,-1.1320000000000001,-0.5905825,-0.5749053000000001,8.636642,-1
1074,1075,1580697160701,-0.6084,-1.2718999,-1.2098,-0.9395039000000001,-0.45247539999999997,8.536957000000001,-1
1075,1076,1580697160712,-0.68829995,-1.2545998999999999,-1.2957,-0.95380205,-0.29305990000000004,8.443583,-1
1076,1077,1580697160722,-0.4102,-1.1640999,-1.4288,-0.7501800000000001,-0.13148956,8.324333,-1
1077,1078,1580697160732,0.0234,-1.0697,-1.9225999,-0.2382518,0.1732636,7.7002505999999995,-1
1078,1079,1580697160742,0.6684,-0.937,-2.4735,0.5826434,0.49576256,7.052303299999999,-1
1079,1080,1580697160752,1.4381,-0.7884,-2.9547,1.3059222,0.7116429,6.591802,-1
1080,1081,1580697160762,2.0421999,-0.7471,-3.3084,1.6733555,0.91809976,6.218163,-1
1081,1082,1580697160772,2.0644999,-0.5057,-3.6822998999999994,1.4851807,1.3860321000000002,5.8291535,-1
1082,1083,1580697160782,1.8894,-0.033299997000000005,-3.9199,1.3824886,1.7219863999999998,5.73396,-1
1083,1084,1580697160792,1.8507999,0.4552,-3.5321,1.3099827,2.3912137,6.222405999999999,-1
1084,1085,1580697160802,2.0555,0.7869,-2.9475,1.5175887,2.7161548,6.7580557,-1
1085,1086,1580697160812,2.3394,0.7317,-2.6726,1.7399526,2.6697648,6.927230000000001,-1
1086,1087,1580697160822,2.3072,0.2679,-2.6392999,1.6561747,2.2178544999999996,6.952436,-1
1087,1088,1580697160833,2.0568,-0.0385,-2.7122,1.3147328,1.928721,6.8089466,-1
1088,1089,1580697160843,1.7710999,-0.4147,-2.8713999,1.0439006,1.629599,6.553849700000001,-1
1089,1090,1580697160853,1.4085,-0.78819996,-3.3328,0.5688719,1.3474184,6.0030584000000005,-1
1090,1091,1580697160863,0.7363,-1.1301,-3.6855998,-0.12714168,1.0863258999999998,5.7842474,-1
1091,1092,1580697160873,0.11800000000000001,-1.4104999,-3.7659,-0.57361245,0.96439403,5.7498190000000005,-1
1092,1093,1580697160883,-0.2758,-1.653,-3.7517,-0.89130384,0.69391626,5.7981534,-1
1093,1094,1580697160893,-0.23359999,-1.8792,-3.5939998999999996,-0.711461,0.63069975,5.914205,-1
1094,1095,1580697160903,0.1512,-1.8492998999999999,-3.6058,-0.15721285,0.7725227,5.8157554000000005,-1
1095,1096,1580697160913,0.8749,-1.4801999,-3.7468,0.5407544,1.3395749,5.655928,-1
1096,1097,1580697160923,1.4833,-0.7935,-3.8107998,1.144754,1.9979613,5.731604,-1
1097,1098,1580697160934,2.0198,-0.3879,-3.5038,1.627291,2.2072241000000004,6.0767809999999995,-1
1098,1099,1580697160944,2.1678998,-0.5024,-3.2465,1.6085492000000001,2.0296798,6.3144197,-1
1099,1100,1580697160955,1.9162999,-0.6662,-3.0070999,1.4189285,1.9352428,6.5101695,-1
1100,1101,1580697160965,1.7376,-0.722,-2.8179998,1.241135,1.9030744,6.773771000000001,-1
1101,1102,1580697160975,1.2872,-0.86069995,-2.4417999,0.6751649000000001,1.7969824,7.1068525,-1
1102,1103,1580697160985,0.7094,-0.835,-2.3219,0.24662194,1.9120476999999998,7.080401400000001,-1
1103,1104,1580697160995,0.49249998,-0.77099997,-2.4294,0.27877128,1.837818,6.939325999999999,-1
1104,1105,1580697161006,0.6295,-0.9748,-2.6757,0.5132498,1.6205682,6.706542,-1
1105,1106,1580697161017,0.8655,-1.0859,-2.7271,0.9071151,1.6031958,6.8381467,-1
1106,1107,1580697161027,1.3277,-1.028,-2.4654,1.4254502,1.7305960999999999,7.2709220000000006,-1
1107,1108,1580697161037,1.732,-0.8208,-1.9886999,1.7019039,2.1044650000000003,7.950483,-1
1108,1109,1580697161047,1.8327999,-0.4815,-1.3857,1.7238348999999997,2.2637560000000003,8.317561999999999,-1
1109,1110,1580697161057,1.7890999,-0.2039,-0.745,1.7044418000000001,2.6487627000000002,9.041463,-1
1110,1111,1580697161067,1.7911999,0.0875,-0.4288,1.6209704,2.6325877,8.913881,-1
1111,1112,1580697161078,1.65,0.0122,-0.62119997,1.3184103,2.4429286,8.613629,-1
1112,1113,1580697161088,1.3198,-0.17799999,-1.0174999,0.92685294,2.2063909,8.152075,-1
1113,1114,1580697161098,0.9694,-0.3834,-1.383,0.66514754,2.0577972,7.991855,-1
1114,1115,1580697161108,0.6921,-0.5409,-1.4735999,0.3043509,1.9112433000000002,8.400986,-1
1115,1116,1580697161118,0.3872,-0.5977,-0.9374,0.19153613,1.9829544999999997,8.854936,-1
1116,1117,1580697161128,0.2516,-0.3399,-0.27399999999999997,0.26747063,2.4537023999999996,9.23954,-1
1117,1118,1580697161139,0.42279997,0.022000000000000002,-0.32549998,0.5791478,2.7407002,8.818916999999999,-1
1118,1119,1580697161149,0.6886,0.2516,-0.6796,0.7642291999999999,2.878836,8.786538,-1
1119,1120,1580697161160,0.8777,0.3829,-0.70989996,0.8623148000000002,2.9643185,8.915614,-1
1120,1121,1580697161170,1.0805,0.5229,-0.1345,0.96648175,3.0009499,9.365886999999999,-1
1121,1122,1580697161180,1.0805,0.5229,-0.1345,0.8516271000000001,2.9900322,9.920481,-1
1122,1123,1580697161190,0.70229995,0.687,0.8224,0.5594579000000001,3.1454928,10.329438,-1
1123,1124,1580697161201,0.4504,0.82559997,0.8322,0.28335854,3.2850266,10.335941,-1
1124,1125,1580697161211,0.22109999,0.6295,0.27629998,-0.008360553,3.0250163,9.620773,-1
1125,1126,1580697161221,0.1232,0.2144,-0.46249998,-0.12712254,2.6359107,8.921188,-1
1126,1127,1580697161231,0.0881,-0.0914,-0.84639996,-0.13738887,2.3770783,8.639323,-1
1127,1128,1580697161241,0.1721,-0.273,-0.6512,-0.04594952,2.2829192000000003,8.910577,-1
1128,1129,1580697161251,0.1867,-0.19829999,-0.2015,-0.0012832921000000001,2.3872106,9.263166,-1
1129,1130,1580697161262,0.2751,0.23429999,-0.0568,0.13868174,2.9280512,9.415792,-1
1130,1131,1580697161272,0.2712,0.47079998,0.046299997999999995,0.11775642,3.1220965,9.557194,-1
1131,1132,1580697161282,0.3296,0.522,0.3525,0.16775693,3.1656134,9.845609,-1
1132,1133,1580697161292,0.5222,0.42999998,0.4912,0.37506607,3.0341814,9.920375,-1
1133,1134,1580697161302,0.5876,0.2356,0.1604,0.39398026,2.8650265,9.504014,-1
1134,1135,1580697161313,0.5670000000000001,0.072399996,-0.3055,0.34384567,2.7070475,9.080805,-1
1135,1136,1580697161323,0.5331,-0.1065,-0.48569998,0.31894597,2.5564424999999997,8.968602,-1
1136,1137,1580697161333,0.4587,-0.2058,-0.2153,0.27821583,2.524427,9.303417999999999,-1
1137,1138,1580697161343,0.3419,-0.13159999,0.35709998,0.16476896,2.6449130000000003,9.921467,-1
1138,1139,1580697161353,0.2003,0.1266,0.9079,0.0077189063,2.938423,10.421089,-1
1139,1140,1580697161363,0.1489,0.4384,1.1046,0.0022601264,3.2180178,10.449551,-1
1140,1141,1580697161373,0.2085,0.4861,0.84029996,0.12395261,3.21163,10.138592,-1
1141,1142,1580697161384,0.3904,0.4043,0.5082,0.26469335,3.0861833,9.801508,-1
1142,1143,1580697161394,0.5107,0.2697,0.1673,0.42769063,2.9797757000000002,9.569979,-1
1143,1144,1580697161405,0.76089996,0.22019999,0.2881,0.6623798000000001,3.0962772000000003,9.985764999999999,-1
1144,1145,1580697161415,0.8666,0.3955,0.7816,0.6659807,3.1616297,10.479115,-1
1145,1146,1580697161426,0.78599995,0.3445,1.1577,0.51608455,3.1364617000000004,10.601027499999999,-1
1146,1147,1580697161436,0.5144,0.3978,1.1819,0.15514427,3.3253449999999996,10.485521,-1
1147,1148,1580697161447,0.28689998,0.58419997,0.9819,-0.0007278372999999999,3.4389644,10.206281,-1
1148,1149,1580697161457,0.1893,0.552,0.6849,-0.15324806,3.2316072,9.847581,-1
1149,1150,1580697161467,-0.021599998999999998,0.2642,0.2607,-0.4960307,3.0170197,9.279025,-1
1150,1151,1580697161477,-0.24569999,0.125,-0.13419999,-0.60986066,2.9656305,9.163864,-1
1151,1152,1580697161487,-0.5162,-0.011000000000000001,-0.1278,-1.1378298999999998,2.8671525,9.565679,d
1152,1153,1580697161497,-0.9151,-0.055999997999999995,0.2993,-1.3621858,2.8737122999999998,9.949574,-1
1153,1154,1580697161508,-1.0799999,-0.0633,0.629,-1.5662773,2.9444659,9.971074,-1
1154,1155,1580697161518,-1.2658,0.010799999,0.5685,-1.6789962,3.0504236000000002,9.632773,-1
1155,1156,1580697161528,-1.2852,0.0581,0.19669999,-1.5340321000000001,3.0575678,9.175289999999999,-1
1156,1157,1580697161538,-1.1126,0.021599998999999998,-0.25169998,-1.5295405,3.0073182999999997,8.857215,-1
1157,1158,1580697161548,-1.1381999,-0.0841,-0.5136,-1.6241018999999999,2.988117,8.595385,-1
1158,1159,1580697161558,-1.2705,-0.1282,-0.71739995,-2.0790482,2.8783476,8.682323,-1
1159,1160,1580697161569,-1.6445999,-0.2557,-0.6185,-2.4878438,2.8631685,8.859236,-1
1160,1161,1580697161579,-2.1588,-0.2907,-0.3637,-3.0871603,2.8903282000000003,9.224485000000001,-1
1161,1162,1580697161589,-2.7113,-0.2925,0.0082,-3.7444932,2.8195076,9.48349,-1
1162,1163,1580697161599,-3.1931998999999998,-0.37309998,0.2144,-4.14489,2.7155704,9.488010000000001,-1
1163,1164,1580697161609,-3.6459,-0.55649996,0.19759999,-4.80386,2.4275386,8.689372,-1
1164,1165,1580697161620,-4.5839,-1.2868,-1.8104999,-5.300456,2.0221906,7.4105234,-1
1165,1166,1580697161631,-5.1222,-1.7901,-2.958,-5.880715,1.5907746999999999,6.2339554,-1
1166,1167,1580697161641,-5.8982,-2.274,-3.9066,-6.681383599999999,1.1957408999999999,5.2449007000000005,-1
1167,1168,1580697161651,-6.4205,-2.7310998,-4.7079,-7.193915400000001,0.83150625,4.407275,-1
1168,1169,1580697161661,-6.513,-3.2136,-5.2469997,-7.2350955,0.34163340000000003,3.7725915999999997,-1
1169,1170,1580697161671,-6.3631997,-3.6202,-5.3877997,-7.027461,0.070839636,3.6745248,-1
1170,1171,1580697161681,-6.1900997,-3.7624,-5.4052997000000005,-6.7907033,-0.0026144682999999997,3.616796,-1
1171,1172,1580697161691,-6.1900997,-3.7624,-5.4052997000000005,-6.509758000000001,-0.089303724,3.4293013,-1
1172,1173,1580697161701,-5.5341997,-4.0456,-6.1994,-6.0661983,-0.21014388,2.8106012000000002,-1
1173,1174,1580697161711,-5.2847,-4.3375998,-7.0564,-5.749005,-0.5458684,1.7682330000000002,-1
1174,1175,1580697161721,-5.0639,-4.6624,-7.9392,-5.4675236,-0.87226516,0.884782,-1
1175,1176,1580697161731,-4.5684,-4.732599700000001,-8.9051,-4.9001455,-0.8449233,-0.054626107,-1
1176,1177,1580697161742,-3.6982,-4.5139,-9.5015,-3.8859043,-0.65736157,-0.5599941999999999,-1
1177,1178,1580697161752,-2.5655,-4.6049,-9.571199,-2.6100821,-0.8516271000000001,-0.53174263,-1
1178,1179,1580697161762,-1.298,-5.0344,-9.3095,-1.214253,-1.3707571000000003,-0.18623058,-1
1179,1180,1580697161772,-0.1469,-5.6628,-8.8527,0.014642938000000001,-1.9753888,0.30297187,-1
1180,1181,1580697161783,0.3708,-5.8643,-8.2713995,0.6001306,-2.1529813,1.0866611000000002,-1
1181,1182,1580697161793,0.34219998,-5.8229999999999995,-7.502000000000001,0.667513,-2.148499,1.9825236000000002,-1
1182,1183,1580697161803,0.34219998,-5.8229999999999995,-7.502000000000001,0.55468863,-2.0196624,2.7385166,-1
1183,1184,1580697161813,-0.0591,-5.428499700000001,-6.2987,0.5838404,-2.0558147,2.858763,-1
1184,1185,1580697161823,0.4434,-5.5841,-6.5084,1.2945065,-2.472157,2.6963787,-1
1185,1186,1580697161833,1.8683,-6.1474,-6.577999999999999,2.9228032,-3.1452627,2.7501907,-1
1186,1187,1580697161843,3.5774,-6.081,-6.1612,4.826633999999999,-3.0865762,3.3508767999999995,-1
1187,1188,1580697161853,5.6816,-5.4926996,-5.0151,7.457095599999999,-2.4251254,5.009704,-1
1188,1189,1580697161863,7.2297997,-4.4772997000000005,-3.5654,9.134062,-1.3589871999999998,6.686277400000001,-1
1189,1190,1580697161873,8.436999,-3.1718,-1.9453,9.897112,-0.48875234,8.088006,-1
1190,1191,1580697161884,8.6251,-2.0769,-0.79429996,9.738693,0.13882539,8.973392,-1
1191,1192,1580697161895,7.8223996,-1.7066,-0.4621,8.596132,-0.15849616,9.085018,-1
1192,1193,1580697161906,6.808399700000001,-2.134,-0.6834,7.9739842,-0.9558994000000001,8.773197999999999,-1
1193,1194,1580697161917,6.9617996,-2.432,-1.3507,8.601907,-1.2553087,7.692407000000001,-1
1194,1195,1580697161927,7.7581997000000005,-2.2082,-2.3351998,9.496917,-1.2149807,7.161191499999999,-1
1195,1196,1580697161937,8.532499000000001,-2.0232,-2.3463,10.333058,-1.2232551999999999,8.369535,-1
1196,1197,1580697161948,9.1089,-1.7341,-0.9975,10.953242999999999,-0.9389293,10.403333,-1
1197,1198,1580697161958,9.580999,-1.2167,1.1773,10.910616000000001,-1.151726,12.758144999999999,-1
1198,1199,1580697161968,9.3463,-1.1823,3.444,10.362803,-2.0977516,14.446518,-1
1199,1200,1580697161978,8.7536,-1.8571,4.973099700000001,9.915403999999999,-3.0511801,15.179410999999998,-1
1200,1201,1580697161988,8.4383,-2.5565,5.5214,9.964658,-3.5681746,14.885229999999998,-1
1201,1202,1580697161999,8.5299,-2.6833,5.0319,10.257458999999999,-3.3977553999999994,13.573198000000001,-1
1202,1203,1580697162009,8.7984,-2.2609,3.9287998999999996,10.5440445,-3.0823240000000003,13.210189999999999,-1
1203,1204,1580697162019,9.0896,-1.6755999,3.6636998999999997,10.91054,-2.8189330000000004,14.477651999999999,-1
1204,1205,1580697162029,9.4279995,-1.2498,4.8971,11.197528,-3.0619829,16.726257,-1
1205,1206,1580697162039,9.7043,-1.2286,7.1993,10.969591000000001,-3.9167416,18.955538,-1
1206,1207,1580697162049,8.5587,-2.4687997999999998,10.2037,10.044797,-4.813006400000001,19.62508,-1
1207,1208,1580697162060,8.5587,-2.4687997999999998,10.2037,8.897437,-4.888701,18.546960000000002,-1
1208,1209,1580697162070,7.4442,-2.3411,9.1749,8.150802,-4.329282,16.803829999999998,-1
1209,1210,1580697162080,6.6084,-0.7145,6.1563,8.042085,-3.5586742999999994,15.446604999999998,-1
1210,1211,1580697162090,6.6084,-0.7145,6.1563,8.551609,-3.0003464,15.317366,-1
1211,1212,1580697162100,8.2284,0.4626,7.0566998,9.837909,-2.635269,16.563768,-1
1212,1213,1580697162111,8.6749,0.5125,8.9052,10.112447999999999,-2.756023,18.057999,-1
1213,1214,1580697162121,8.366,0.1396,10.729199000000001,9.786586999999999,-3.2963942999999998,19.815208,-1
1214,1215,1580697162131,7.2679,-0.2589,11.412,8.671175999999999,-3.8461413,20.448963,-1
1215,1216,1580697162141,6.0232,-0.226,11.3963995,7.419764999999999,-3.9235029999999997,20.381273,-1
1216,1217,1580697162151,5.1401,0.4043,11.0328,6.470579,-3.1643205,19.880993,-1
1217,1218,1580697162161,4.9530997,1.334,10.5088,6.408464,-2.436646,19.453241000000002,-1
1218,1219,1580697162171,4.9530997,1.334,10.5088,6.4994245,-2.031959,19.344662,-1
1219,1220,1580697162181,5.0169997,1.7481999,10.457399,6.6159360000000005,-2.4811208,19.96475,-1
1220,1221,1580697162191,4.1328,-0.108899996,11.5317,5.5005345000000005,-4.1582303,20.515089,-1
1221,1222,1580697162201,2.7914999,-1.5863,11.327499000000001,4.145091000000001,-5.519573,20.152378,-1
1222,1223,1580697162213,0.9191,-2.5862,10.7674,2.2450047000000004,-6.311681,19.610704000000002,-1
1223,1224,1580697162223,-0.8481,-2.8683,10.0487995,0.6508301999999999,-6.374026000000001,18.886429,-1
1224,1225,1580697162233,-1.93,-2.8885999,9.2139,-0.40281007,-6.303655,17.972143,-1
1225,1226,1580697162243,-2.7159998,-3.2638998,8.6503,-1.2295566999999998,-6.6677465,17.705599,-1
1226,1227,1580697162254,-3.87,-3.9350998,8.685699000000001,-2.3123967999999997,-7.1308419999999995,17.87557,-1
1227,1228,1580697162264,-5.0694,-4.3775997,8.8497,-3.54316,-7.2729816,18.06792,-1
1228,1229,1580697162275,-6.2644,-4.5513,8.9444,-4.473202,-7.1900845,18.181729999999998,-1
1229,1230,1580697162285,-6.7717,-4.5945,8.8404,-4.6824074,-6.948643700000001,17.702019,-1
1230,1231,1580697162295,-6.7735996,-4.5018997,7.928,-4.523825,-6.6510444,16.278187,-1
1231,1232,1580697162305,-6.4961,-4.4543,6.1874,-4.19128,-6.4028325,14.424520000000001,-1
1232,1233,1580697162316,-6.1739999999999995,-4.4487,4.4168997,-3.9323134,-6.138982,13.220715,-1
1233,1234,1580697162326,-5.917000000000001,-4.4045,3.6027,-3.7743535,-5.924337400000001,13.092528999999999,-1
1234,1235,1580697162337,-5.7349,-4.5716,3.7379,-3.8296692,-6.078246,13.498883,-1
1235,1236,1580697162347,-6.1094,-5.0154,4.0761,-4.7137237,-6.335163,13.419481,-1
1236,1237,1580697162357,-6.8936996,-5.4389,3.7224,-5.389741000000001,-6.447796,12.744671,-1
1237,1238,1580697162367,-7.5807,-5.7462,2.764,-5.831337,-6.3011365,11.535608,-1
1238,1239,1580697162377,-7.7693,-5.8046,1.7120999,-5.776165,-5.96252,10.507769,-1
1239,1240,1580697162387,-7.6130996,-5.7047,0.6847,-5.5174093,-5.561855,9.724222,-1
1240,1241,1580697162398,-7.2391996,-5.5178,-0.0341,-4.968303700000001,-4.94666,9.18003,-1
1241,1242,1580697162408,-6.5825,-5.1335998,-0.5815,-4.29401,-4.452267,8.522449,-1
1242,1243,1580697162418,-5.8490996,-4.9077,-1.311,-3.7901839999999996,-4.1033745,7.6048946,-1
1243,1244,1580697162428,-5.3012,-4.7625,-2.2429,-3.5128013999999994,-3.5462148,6.7844973,-1
1244,1245,1580697162438,-4.9508,-4.322,-2.995,-3.2057595,-2.7206273,6.2603683,-1
1245,1246,1580697162449,-4.567199700000001,-3.7378,-3.4499998,-3.1281872,-2.2355905,6.1007514,-1
1246,1247,1580697162459,-4.392299700000001,-3.4717998999999997,-3.5293,-2.9176986,-1.8951638,6.097869,-1
1247,1248,1580697162469,-4.0915,-3.3244998,-3.5356998,-2.8041465,-1.7148421999999999,6.012166000000001,-1
1248,1249,1580697162479,-3.9624998999999996,-3.3221998,-3.6055998999999996,-2.9129677000000003,-1.5317432,5.7506905,-1
1249,1250,1580697162490,-3.9949,-3.3407998,-3.8370998,-2.8602667,-1.4756614,5.1466527,-1
1250,1251,1580697162500,-3.9002998,-3.4587998,-4.407099700000001,-2.7502673,-1.4545253999999999,4.414697,-1
1251,1252,1580697162510,-3.7526,-3.5930998,-5.111399700000001,-2.5136627999999996,-1.5266963,3.8645098,-1
1252,1253,1580697162520,-3.0502,-3.8200998,-5.7746,-2.0222194,-1.2831484,3.7026138,-1
1253,1254,1580697162531,-2.4764,-3.2598,-5.6026998,-1.5755188,-0.7271095000000001,3.8361528,-1
1254,1255,1580697162541,-1.9545,-2.6727998,-5.2317,-1.0987375,-0.05838979,4.1869226,-1
1255,1256,1580697162551,-1.6126,-2.3395998,-4.8073997,-0.75470984,0.42671376,4.6581491999999995,-1
1256,1257,1580697162561,-1.1428,-2.0342,-4.5722,-0.25301924,0.7361787,4.84664,-1
1257,1258,1580697162572,-0.4631,-1.9697,-4.4746,0.42218396,0.8190947,4.9074144,-1
1258,1259,1580697162581,0.25349998,-1.9255999,-4.4539,1.1025491000000003,0.9175443000000001,4.9336934,-1
1259,1260,1580697162591,0.9181,-1.864,-4.4019,1.7316303,1.0708018999999998,4.966637,-1
1260,1261,1580697162601,1.5389999,-1.5117999,-4.4357,2.2277663,1.4146379999999998,4.9182844,-1
1261,1262,1580697162611,2.0616999,-1.0437,-4.4091997,2.8203886000000002,2.0489962,4.951324,-1
1262,1263,1580697162621,2.128,-0.5732,-4.1375,2.7697177,2.5193036,5.276543,-1
1263,1264,1580697162632,1.6924,-0.3628,-3.455,2.3499088,2.7047489,5.9792695,-1
1264,1265,1580697162642,1.5145998999999999,-0.565,-3.0265,2.2374867999999997,2.397726,6.157322,-1
1265,1266,1580697162653,1.4090999,-0.9729,-3.5254998,2.1645498,2.0899177,5.288686,-1
1266,1267,1580697162663,1.5376999,-1.2514,-4.6194,2.4548612000000003,1.9988136000000003,4.405379,-1
1267,1268,1580697162673,2.0607998,-1.0826,-4.9983,3.0655549,2.2762153,4.218353700000001,-1
1268,1269,1580697162683,2.9352,-0.7191,-4.784,3.9732544,2.697298,4.4914074,-1
1269,1270,1580697162693,3.425,-0.1383,-4.2335,4.3269734,3.4960515,5.258998,-1
1270,1271,1580697162703,3.1503,0.5031,-3.3091998,3.9500593999999998,3.9673165999999997,6.353761,-1
1271,1272,1580697162713,2.6719999999999997,0.70989996,-2.2152998,3.4967413,4.0027413,7.2369437,-1
1272,1273,1580697162724,2.2261,0.6847,-1.8299999,3.1621563,3.9970237999999996,7.3548155,-1
1273,1274,1580697162734,1.9820999,0.7396,-1.8935,3.0515249,4.0442184999999995,7.2928724,-1
1274,1275,1580697162744,2.327,0.81299996,-1.9226999,3.7539839999999995,4.142946,7.258702799999999,-1
1275,1276,1580697162754,2.9287,0.93899995,-1.9094,4.221389299999999,4.2878337,7.419764999999999,-1
1276,1277,1580697162764,3.1992998,1.0385,-1.5934,4.274847,4.288293,7.838147,-1
1277,1278,1580697162775,3.0274,0.9195,-0.96699995,3.9626625,4.130131700000001,8.4876175,-1
1278,1279,1580697162785,2.5702,0.7945,-0.4705,3.5063178999999995,3.9395535,8.726578,-1
1279,1280,1580697162795,2.1489,0.4694,-0.6598,2.8907206000000003,3.5708275,8.195045,-1
1280,1281,1580697162805,1.5547999,0.27719998,-1.1912,2.4879873,3.472914,7.8835607,-1
1281,1282,1580697162815,1.2879,0.2207,-1.4173,2.407839,3.4896352,7.777861,-1
1282,1283,1580697162825,1.4044,0.37719998,-1.4095,2.7599304,3.745537,7.9675009999999995,-1
1283,1284,1580697162835,1.8219999,0.6412,-1.032,3.1244812,3.9385288,8.426517500000001,-1
1284,1285,1580697162845,2.2217,0.85719997,-0.43269998,3.577148,4.097254799999999,9.030402,d
1285,1286,1580697162856,2.7359,1.0504999,0.1928,3.9931836000000005,4.236214,9.776406,-1
1286,1287,1580697162866,2.8233,1.1152999,0.71059996,3.773032,4.1155944,10.286984,-1
1287,1288,1580697162876,2.5704,0.98649997,1.0834,3.4242256,3.8545976000000004,10.3249855,-1
1288,1289,1580697162886,2.2001,0.7090000000000001,1.0285,3.1362126,3.6143730000000005,10.220483999999999,-1
1289,1290,1580697162896,1.6456,0.294,0.85899997,2.4163337000000005,3.1774695,10.029828,-1
1290,1291,1580697162907,1.0534999,0.059899997,0.75,1.9476161,3.0152001,9.95692,-1
1291,1292,1580697162917,0.7190000000000001,-0.1345,0.6504,1.7498548999999999,2.8090115,9.833388000000001,-1
1292,1293,1580697162927,0.5844,-0.29709998,0.4906,1.6835357,2.7283174999999997,9.572746,-1
1293,1294,1580697162937,0.5797,-0.32,0.2611,1.7185388,2.8194885,9.440817,-1
1294,1295,1580697162947,0.6629999999999999,-0.18349999,0.1486,1.9133885,2.9554696,9.456465,-1
1295,1296,1580697162957,0.9686,-0.024999999,0.23179999,2.2353513,3.086241,9.67993,-1
1296,1297,1580697162968,1.1834999,0.076299995,0.45209998,2.184144,2.9789807999999995,10.034434,-1
1297,1298,1580697162978,1.0375,-0.087,0.8095,1.7084737,2.7558794,10.368052,-1
1298,1299,1580697162988,0.56799996,-0.2593,1.1459,1.205902,2.5183362999999996,10.610613,-1
1299,1300,1580697162998,0.104499996,-0.5366,1.3425,0.90100515,2.1763868,10.770766,-1
1300,1301,1580697163008,-0.1335,-0.9111,1.5026,0.58474064,1.9186174999999999,10.804514999999999,-1
1301,1302,1580697163018,-0.3294,-1.0115,1.4384999,0.55530155,2.0200071,10.527181,-1
1302,1303,1580697163028,-0.2814,-0.8703,1.12,0.6301826,2.2931566,10.003625999999999,-1
1303,1304,1580697163039,-0.1487,-0.5589999999999999,0.52849996,0.90437615,2.7341017999999995,9.195352999999999,-1
1304,1305,1580697163049,0.1396,-0.2024,-0.1399,1.1354933,3.0176708999999997,8.746489,-1
1305,1306,1580697163059,0.4148,0.0773,-0.5927,1.3057017,3.2505502999999996,8.844172,-1
1306,1307,1580697163069,0.61469996,0.3135,-0.4974,1.3193583,3.4113257000000003,9.304777,-1
1307,1308,1580697163079,0.6516,0.47700000000000004,-0.0405,1.1825632,3.4810352,9.733789999999999,-1
1308,1309,1580697163090,0.43719998,0.51879996,0.55039996,1.0444657,3.4417991999999997,9.906172,-1
1309,1310,1580697163100,0.43719998,0.51879996,0.55039996,0.88653463,3.3830934,9.645415,-1
1310,1311,1580697163110,0.1398,0.3875,-0.1444,0.70166385,3.3276242999999996,9.212216999999999,-1
1311,1312,1580697163120,-0.0164,0.2974,-0.3969,0.52723193,3.2403796000000002,8.946596000000001,-1
1312,1313,1580697163131,-0.0164,0.2974,-0.3969,0.3867689,3.106199,8.831195,-1
1313,1314,1580697163141,-0.305,0.0424,-0.6022,0.19817287,2.9976172,8.74893,-1
1314,1315,1580697163152,-0.32979998,0.0828,-0.71169996,0.1510071,3.0402339,8.647253,-1
1315,1316,1580697163162,-0.19699999999999998,0.106199995,-0.89059997,0.30175559999999996,3.0681597999999997,8.448544,-1
1316,1317,1580697163172,0.051,0.1801,-1.0404,0.55171984,3.1679310000000003,8.28116,-1
1317,1318,1580697163182,0.49179998,0.4209,-1.3273,0.907661,3.3632788999999996,8.026188000000001,-1
1318,1319,1580697163192,0.8908,0.69089997,-1.7414999,1.3489028,3.6697937999999994,7.564020599999999,-1
1319,1320,1580697163202,1.0626,0.8943,-1.9209,1.4450347,3.8516195,7.446934700000001,-1
