,Seq,Time,ACCx,ACCy,ACCz,ADGx,ADGy,ADGz,Keydown
0,1,1580727411537,-0.1811,-1.1623,-1.6951,0.1921299,-3.0160812999999997,7.704330400000001,-1
1,2,1580727411548,-0.1811,-1.1623,-1.6951,0.54437447,2.0149698,9.829137,-1
2,3,1580727411558,0.012,0.0455,0.2225,0.41678262,1.8344468999999997,9.865404,-1
3,4,1580727411568,-0.096,-0.1533,0.2633,0.25579652,1.7127066000000002,9.92862,-1
4,5,1580727411578,-0.2288,-0.2856,0.32189998,0.12677777,1.7154359000000001,9.996692999999999,-1
5,6,1580727411588,-0.3281,-0.2751,0.3891,0.0701118,1.8029296000000001,10.040296000000001,-1
6,7,1580727411598,-0.3538,-0.18429999,0.43609998,0.10703997,1.9705333999999999,10.112045,-1
7,8,1580727411608,-0.2785,-0.0166,0.5031,0.2602976,2.0302448,10.176210000000001,-1
8,9,1580727411618,0.0481,-0.0014,0.6779999999999999,0.35671690000000006,1.9885283,10.293286,-1
9,10,1580727411629,0.0481,-0.0014,0.6779999999999999,0.3371515,2.0966023999999996,10.410161,-1
10,11,1580727411639,0.0256,0.1512,0.79539996,0.08202535,2.4669470000000002,10.424402,-1
11,12,1580727411650,-0.1928,0.5622,1.1647999,-0.006943185,2.602325,10.768851,-1
12,13,1580727411660,-0.1928,0.5622,1.1647999,0.123674884,2.4795119999999997,10.9666605,-1
13,14,1580727411671,-0.1875,0.29279998,1.7844,-0.20098844,2.3604243,11.423014,-1
14,15,1580727411681,-0.6933,0.3502,1.9901999,-0.73567116,2.4060099999999998,11.647686,-1
15,16,1580727411691,-0.9812,0.3293,2.2649,-1.0583042,2.3743392999999995,11.968615,-1
16,17,1580727411701,-1.031,0.23719999,2.4816,-1.1741165,2.1783118,12.205161,-1
17,18,1580727411711,-1.1858,-0.0747,2.8172998,-1.3869323999999998,1.9488131000000002,12.435121,-1
18,19,1580727411722,-1.8553,-0.0212,2.8509998,-2.430268,2.1293453999999996,12.460556,-1
19,20,1580727411732,-2.4364998,-0.13069999,3.0827,-2.716107,1.8100451000000002,12.885421000000001,-1
20,21,1580727411742,-2.3648,-0.47849998,3.4821,-2.7784424,1.5908896000000001,13.006492,-1
21,22,1580727411752,-2.5679998,-0.6191,3.0997,-3.0924852,1.5162671,12.402797999999999,-1
22,23,1580727411762,-2.7017,-0.78059995,2.4464998,-3.11342,1.2904076999999998,11.737248,-1
23,24,1580727411773,-2.7142,-0.88189995,1.7081,-3.520147,1.4619665000000002,10.970098,-1
24,25,1580727411783,-3.1697998,-0.8134,1.2959,-3.9185612,1.4268867,10.775383,-1
25,26,1580727411793,-3.4517998999999997,-1.1692,1.2082,-4.459985700000001,1.0386143,10.676971,-1
26,27,1580727411803,-4.255,-1.6342,1.1119,-5.447977,0.6373939999999999,10.500174000000001,-1
27,28,1580727411815,-5.1184,-2.0988998,0.9191,-6.4421263,0.055698708,10.164181,-1
28,29,1580727411826,-5.5853996,-2.5537999,0.6308,-6.797003999999999,-0.20233877,9.58649,-1
29,30,1580727411836,-5.8329,-2.9306,-0.2024,-7.0532894,-0.36897522,8.088638000000001,-1
30,31,1580727411846,-5.8626,-3.0597,-1.5895,-7.019292,-0.49507302,6.6707344,-1
31,32,1580727411857,-5.6057,-3.2507,-2.8731,-6.937381299999999,-0.6105789,5.6091166,-1
32,33,1580727411867,-5.3657,-3.3741,-3.8988,-7.041711,-0.5726643,4.587721299999999,-1
33,34,1580727411877,-5.1797,-3.3843,-4.8669,-6.780494,-0.69030577,3.5511663,-1
34,35,1580727411887,-4.711,-3.5477998,-5.8216996,-6.5063963,-0.69380134,2.573355,-1
35,36,1580727411897,-4.218,-3.5469999999999997,-6.7208,-6.12365,-0.63499016,1.4958396999999999,-1
36,37,1580727411907,-3.6151,-3.5180000000000002,-7.5396,-5.994305000000001,-0.6916656999999999,0.832167,-1
37,38,1580727411918,-3.0990999,-3.6041,-8.2535,-6.27278,-0.9374928,-0.12585839999999998,-1
38,39,1580727411928,-2.4219,-3.5361,-8.7565,-6.2479568,-1.1870835,-0.7992994000000001,-1
39,40,1580727411938,-2.3235,-3.8567998,-9.3776,-5.5432760000000005,-1.2511524,-1.1961719,-1
40,41,1580727411948,-1.3754,-3.9801,-9.812699,-4.022422,-1.1947736999999998,-1.9506806,-1
41,42,1580727411958,-0.0771,-4.0127,-10.4641,-2.6873574000000002,-1.4647534,-2.8468687999999998,-1
42,43,1580727411969,1.2547,-4.3413997,-11.3502,-1.3511628999999998,-1.6654451000000001,-3.185179,-1
43,44,1580727411979,2.5565,-4.5866,-11.6814995,-0.08980172,-1.6448453999999997,-2.9195087,-1
44,45,1580727411989,3.7654998,-4.5962,-11.422299,1.333034,-1.6150903,-2.4047554,-1
45,46,1580727411999,5.0875,-4.5868998,-10.9544,2.8096914,-1.4123971000000002,-1.6596798,-1
46,47,1580727412009,8.1256,-4.1681,-9.9086,4.9118676,-1.2296141,-1.2067543,-1
47,48,1580727412020,8.1256,-4.1681,-9.9086,5.837035,-1.2132665,-1.0539277,-1
48,49,1580727412030,9.4777,-4.0067997,-8.9952,6.199900599999999,-1.1968709,-0.02791639,-1
49,50,1580727412040,9.189899,-3.9884,-8.0264,5.9018025000000005,-1.3541987,1.010334,-1
50,51,1580727412050,9.2592,-4.2202997,-7.3643,6.3515873,-1.7529962,1.6930166000000002,-1
51,52,1580727412061,10.759999,-4.262,-6.7349997,8.097266000000001,-1.7693918000000002,2.4437807,-1
52,53,1580727412071,12.2463,-3.4961,-5.9035,9.719319,-1.215632,3.39109,-1
53,54,1580727412081,14.271298999999999,-3.3704998,-4.5992,11.738168,-1.3609409,4.7777157,-1
54,55,1580727412091,14.873698999999998,-3.1320999,-3.7287,11.966315,-1.3177112,6.081243499999999,-1
55,56,1580727412101,14.1327,-2.9981,-1.9771999,11.2625065,-1.5527258999999998,7.6805224,-1
56,57,1580727412111,13.241199499999999,-3.1613998,-0.5187,10.195363,-2.0662727,9.245631,-1
57,58,1580727412122,12.4907,-3.1848998,0.276,9.684258,-2.423861,9.844975999999999,-1
58,59,1580727412132,12.4473,-3.2863,0.48889998,9.95647,-2.8049605,9.935113000000001,-1
59,60,1580727412142,12.8799,-3.1571,0.7423,10.6607485,-2.8038877999999996,10.541345,-1
60,61,1580727412152,13.783899,-2.8091,1.8045,11.5349,-2.876528,11.842431,-1
61,62,1580727412162,14.249,-2.6104,3.1525,12.036063,-2.8901463,13.219278,-1
62,63,1580727412173,15.090198999999998,-2.2047,4.791,13.106684,-2.706913,15.159557999999999,-1
63,64,1580727412183,16.0026,-1.4668,6.8292,13.885517000000002,-2.4661906000000005,16.870974,-1
64,65,1580727412193,15.985399,-1.102,8.2871,13.136018,-2.5400374,18.231895,-1
65,66,1580727412203,15.1338,-1.0185,8.9025,12.659409,-3.0381749,18.330765,-1
66,67,1580727412213,14.5659,-1.5295,9.2273,12.084791000000001,-3.9047419999999997,18.941938,-1
67,68,1580727412223,13.594299,-1.8457999,10.4558,11.204616,-4.3894720000000005,20.455579999999998,-1
68,69,1580727412233,12.901799,-1.8543999,12.5224,10.989825999999999,-4.6825223,22.8265,-1
69,70,1580727412243,12.776099,-1.6838,15.4893,11.160322,-4.65949,25.988216,-1
70,71,1580727412253,12.9713,-1.2508999,18.525,11.711295,-4.6344465999999995,29.243909999999996,-1
71,72,1580727412263,13.1383,-1.1381,20.948598999999998,11.352739,-5.1477537,30.521358000000003,-1
72,73,1580727412273,12.1517,-1.6854,21.671799,10.48419,-6.020383,30.661585,-1
73,74,1580727412284,10.6798,-2.7294,21.721698999999997,8.284875999999999,-7.220414599999999,30.425897999999997,-1
74,75,1580727412294,8.4004,-3.2112,21.4216,6.5793333,-7.4510818,30.088383,-1
75,76,1580727412304,6.8072,-3.2728,21.090899,5.4811516,-7.513148299999999,29.649277,-1
76,77,1580727412314,5.3844,-3.3781998,20.5285,3.994649,-7.951842999999999,28.650934000000003,-1
77,78,1580727412324,3.5045998,-4.0313,19.494,2.0441599999999998,-8.6867485,27.488375,-1
78,79,1580727412334,1.2657,-5.0603,17.785999999999998,-0.047673345,-9.556629,25.597932999999998,-1
79,80,1580727412344,-1.1419,-6.0053,15.7927,-2.110441,-10.121488000000001,23.733406,-1
80,81,1580727412354,-3.1032999,-6.6387997,13.9314995,-3.6147754,-10.250354,22.155079999999998,-1
81,82,1580727412364,-4.6186,-6.7223,12.3939,-4.409363,-9.950542,20.77692,-1
82,83,1580727412374,-5.0425,-6.7662997,10.9858,-4.264418,-9.901690499999999,19.547623,-1
83,84,1580727412384,-5.0253997,-6.895,9.7372,-4.568903,-9.646334,18.399936999999998,-1
84,85,1580727412394,-5.5793,-6.8567,8.5494995,-5.0806875,-9.430396,17.367971,-1
85,86,1580727412405,-5.9214,-6.9897,7.5207996,-5.137861,-9.377628,16.279547,-1
86,87,1580727412415,-5.9905,-7.2295,6.5537996,-5.4768996,-9.277560000000001,15.524119,-1
87,88,1580727412425,-6.6308,-7.4119,5.4828,-6.3011365,-9.26262,14.301054999999998,-1
88,89,1580727412435,-7.3493,-7.8416,3.9759998,-7.1761694,-9.61838,12.205717,-1
89,90,1580727412445,-8.2113,-8.5241995,2.1434999,-8.115482,-9.761946,10.8473425,-1
90,91,1580727412455,-9.3292,-8.9464,0.5173,-9.105599,-9.772902,9.57811,-1
91,92,1580727412465,-10.1328,-9.2579,-0.61759996,-9.753039,-9.700185000000001,8.501466,-1
92,93,1580727412475,-10.5455,-9.4402,-1.7235999,-10.075289,-9.471175,7.4622765,-1
93,94,1580727412485,-10.535399,-9.436399,-2.7224998,-9.599801,-8.853183999999999,6.283046,-1
94,95,1580727412496,-9.7824,-9.0553,-3.7417,-8.918478,-8.088676,5.3596315,-1
95,96,1580727412506,-8.731299,-8.3046,-4.9182997,-7.5928087,-6.746276400000001,3.9733980000000004,-1
96,97,1580727412516,-7.4491997,-7.4704,-6.026799700000001,-6.8591294000000005,-6.0295863,3.263268,-1
97,98,1580727412526,-6.4605,-6.8654,-6.8032,-6.071887,-4.975027,1.9909703,-1
98,99,1580727412536,-5.7693,-6.2356997000000005,-8.0227995,-5.497614,-4.1727870000000005,0.554363,-1
99,100,1580727412547,-5.0734997,-5.7144,-9.3928995,-5.0445733,-3.5365903,-0.51857454,-1
100,101,1580727412557,-4.4873,-5.2606997,-10.269,-4.1515746,-2.453693,-1.4575135000000001,-1
101,102,1580727412567,-3.6011998999999997,-4.5448,-11.0169,-3.2125876,-1.6861596,-1.8035903999999998,-1
102,103,1580727412577,-2.306,-3.7487998,-11.3354,-1.6427384999999999,-0.5893470999999999,-1.6282008,-1
103,104,1580727412587,-0.88229996,-2.9692,-11.1094,-0.47759536,0.16582239999999998,-1.2994290000000002,-1
104,105,1580727412597,0.664,-2.1515,-10.6243,0.92056096,1.1229285,-0.5881116999999999,-1
105,106,1580727412607,2.056,-1.2801,-9.821899,1.9610428,1.9654672,0.4547068,-1
106,107,1580727412618,3.0577,-0.5349,-8.7219,2.703274,2.7910743,1.7234707999999999,-1
107,108,1580727412628,3.6813998,0.109,-7.6765,3.2291555,3.1997356,2.7004585,-1
108,109,1580727412638,4.2355,0.48979998,-6.6843996,3.6851934999999996,3.4668615,3.4415116,-1
109,110,1580727412648,4.7026,0.7308,-5.9304,4.21617,3.6064434000000003,4.0822673,-1
110,111,1580727412658,5.6684,0.88799995,-4.7219996,4.646504,3.663617,4.637741,-1
111,112,1580727412669,5.6684,0.88799995,-4.7219996,4.823387599999999,3.8314986000000006,5.182125,-1
112,113,1580727412679,5.8356,1.0394,-4.1693,4.8195760000000005,3.9002117999999997,5.588028400000001,-1
113,114,1580727412689,5.6738,0.98249996,-3.6273,4.6835947,3.798085,5.727074,-1
114,115,1580727412699,5.6738,0.98249996,-3.6273,4.3923354,3.8402612,5.776002,-1
115,116,1580727412709,5.3589997,0.9977,-3.6604997999999997,4.38566,3.7926165999999997,5.713867700000001,-1
116,117,1580727412719,5.192199700000001,0.88799995,-3.4217,4.158604,3.6352699,6.0288873,-1
117,118,1580727412729,5.192199700000001,0.88799995,-3.4217,3.7344565000000003,3.4619388999999994,6.583346400000001,-1
118,119,1580727412739,4.6717,0.7046,-2.7949,3.3826814,3.2996410000000003,7.657902,d
119,120,1580727412749,3.8923997999999997,0.7409,-0.83489996,2.9839225,3.4039707000000003,8.567210000000001,-1
120,121,1580727412759,3.8923997999999997,0.7409,-0.83489996,2.9727175,3.4566815,9.171353,-1
121,122,1580727412769,3.8634,0.8409,-0.2528,2.9174497,3.4956782,9.4709635,-1
122,123,1580727412779,3.8202998999999997,1.0263,0.159,2.9598463,3.5359773999999997,9.610574,-1
123,124,1580727412790,3.8836,0.9654,0.45909998,3.0419767,3.430709,9.928180000000001,-1
124,125,1580727412800,3.6481,0.8735,1.0732,2.7566453999999996,3.250531,10.652435,-1
125,126,1580727412810,3.1806997999999997,0.6278,1.4828999,2.26661,2.9573083,11.0171585,-1
126,127,1580727412820,2.6669,0.5086,1.5615,1.8510436000000001,2.8589547000000004,11.057917,-1
127,128,1580727412831,2.4989998,0.4563,1.3679,1.8152549999999998,2.7806451,10.742784,-1
128,129,1580727412842,2.5958,0.4867,0.92999995,2.0010643,2.8044912999999996,10.24612,-1
129,130,1580727412853,2.8088999,0.4904,0.4849,2.2893164,2.8433156000000004,9.92319,-1
130,131,1580727412862,3.0709999,0.5611,0.4204,2.5824912,2.9227457,10.065052,-1
131,132,1580727412872,3.0709999,0.5611,0.4204,2.5151951,2.9319394,10.632679,-1
132,133,1580727412882,2.7928,0.5575,1.5134,2.0480766,2.7210486,11.308629,-1
133,134,1580727412892,2.1518,0.35799998,2.0351,1.4101848999999997,2.5254613999999997,11.677057000000001,-1
134,135,1580727412902,1.4614999,0.17019999,2.1371,0.7633194000000001,2.2806592,11.641375,-1
135,136,1580727412913,0.88769996,-0.0188,1.9769,0.33964145,2.1775455000000004,11.45299,-1
136,137,1580727412923,0.5973,-0.060399997999999996,1.7209999999999999,0.2045989,2.178513,11.153321,-1
137,138,1580727412933,0.64879996,0.0084,1.3491,0.47790182,2.2792609,10.722136,-1
138,139,1580727412943,1.0735999,0.1335,0.99759996,0.9352039000000001,2.4336867,10.525265,-1
139,140,1580727412953,1.3342999,0.2518,1.1458,1.0334524,2.5112302000000004,10.971947,-1
140,141,1580727412963,1.1585,0.26819998,1.6263,0.77708125,2.5274822999999995,11.353008,-1
141,142,1580727412973,0.8422,0.2774,1.9592999,0.5124166,2.5681643,11.539181,-1
142,143,1580727412983,0.5719,0.31399998,1.8908999,0.2768272,2.5694861,11.293776,-1
143,144,1580727412993,0.3868,0.26929998,1.5586,0.16588946,2.5189013,11.072550999999999,-1
144,145,1580727413003,0.3322,0.1959,1.5791998999999999,0.039303213,2.4002256,11.3378,-1
145,146,1580727413013,0.1621,0.0663,1.9620999,-0.18914194,2.3024175,11.729491000000001,-1
146,147,1580727413023,-0.1901,0.0356,2.4036999,-0.5471613000000001,2.3217437000000003,12.102422,-1
147,148,1580727413033,-0.5463,0.089899994,2.6794999,-0.9307219999999999,2.346059,12.259317999999999,-1
148,149,1580727413043,-0.79649997,0.020399999,2.6824,-1.124547,2.289039,12.124151,-1
149,150,1580727413054,-0.9898,-0.0173,2.2851999,-1.2506542999999999,2.2905805,11.379975,-1
150,151,1580727413064,-0.94119996,-0.052699998,1.5567,-1.16046,2.2752194,10.872846000000001,-1
151,152,1580727413074,-0.80109996,-0.071499996,1.1625999,-1.1354933,2.3271257999999997,10.571817999999999,-1
152,153,1580727413084,-0.8354,-0.060399997999999996,0.97459996,-1.3416628000000002,2.3339827,10.348027,-1
153,154,1580727413094,-1.0342,-0.098699994,0.72819996,-1.5342236999999999,2.2901402,10.076937,-1
154,155,1580727413105,-1.1664,-0.1495,0.46299999999999997,-1.6710378000000001,2.2737062000000003,9.828332000000001,-1
155,156,1580727413115,-1.3045,-0.1848,0.2184,-1.9149975,2.288196,9.472238,-1
156,157,1580727413125,-1.536,-0.2935,-0.2209,-2.1465454,2.0544646,8.773926,-1
157,158,1580727413135,-1.6624,-0.5424,-0.8164,-2.1447067000000004,1.9667888,8.327444999999999,-1
158,159,1580727413145,-1.5366,-0.6135,-1.3533,-1.7569993000000002,2.0735798,7.780236200000001,-1
159,160,1580727413155,-1.0409,-0.5324,-1.7836,-1.2860599,2.1869788,7.562881,-1
160,161,1580727413166,-0.5751,-0.4127,-1.8928,-0.8191139000000001,2.3481085,7.5728507,-1
161,162,1580727413176,-0.1871,-0.3224,-1.8281,-0.53113925,2.4172244,7.7616380000000005,-1
162,163,1580727413186,0.0929,-0.2541,-1.6281999,-0.28207526,2.5364845000000003,7.810096700000001,-1
163,164,1580727413196,0.363,-0.1522,-1.6452,-0.07562804,2.5864177,7.603438400000001,-1
164,165,1580727413206,0.5556,-0.1363,-1.8589,0.054654833,2.4853442,7.398572,-1
165,166,1580727413216,0.6775,-0.2452,-2.0537999,0.084323786,2.4249814,7.352382700000001,-1
166,167,1580727413227,0.675,-0.2825,-2.0441,-0.006291962,2.344249,7.638605,-1
167,168,1580727413237,0.61399996,-0.3468,-1.6825999,0.17300501,2.4180767999999997,8.123076,-1
168,169,1580727413247,0.787,-0.2545,-1.2335,0.283914,2.4687285,8.361932000000001,-1
169,170,1580727413258,0.8555,-0.2338,-1.0586,0.30418809999999996,2.3808613,8.150514,-1
170,171,1580727413268,0.87469995,-0.3242,-1.3239,0.44171107,2.3998904,7.8095794000000005,-1
171,172,1580727413278,0.90129995,-0.2737,-1.6890999,0.38044822,2.4175212000000004,7.728895,-1
172,173,1580727413289,0.90709996,-0.28399998,-1.5356,0.39328116,2.4005895,7.893424499999999,-1
173,174,1580727413299,1.0102,-0.14199999,-1.2560999,0.5866273,2.559871,8.2465315,-1
174,175,1580727413309,1.2765,-0.0077,-0.86939996,0.8020959,2.6516740000000003,8.57038,-1
175,176,1580727413319,1.291,0.114999995,-0.4531,0.8054956999999999,2.771231,9.032193,-1
176,177,1580727413329,0.9966,0.1539,-0.44739997,0.49642336,2.7891684,8.975594000000001,-1
177,178,1580727413339,0.68369997,0.1206,-0.70519996,0.26972118,2.7585034,8.669625,-1
178,179,1580727413350,0.6238,0.15869999,-1.0418999,0.27980557,2.7666821,8.378423,-1
179,180,1580727413360,0.7599,0.16679999,-1.0473,0.41929173,2.7692964,8.449656,-1
180,181,1580727413370,0.85359997,0.2445,-0.8003,0.518019,2.8171136000000003,8.742332000000001,-1
181,182,1580727413380,0.94939995,0.2701,-0.4078,0.6381409,2.8149493,9.172963000000001,-1
182,183,1580727413390,1.1396998999999999,0.35639998,0.0429,0.81751454,2.8757042999999998,9.611207,-1
183,184,1580727413401,1.2655,0.4881,0.4456,0.9506609,2.984181,10.033323,-1
184,185,1580727413411,1.2655,0.4881,0.4456,0.93234044,3.0179965,10.330319,-1
185,186,1580727413421,1.0891,0.593,0.95229995,0.73053795,2.9890842,10.443928999999999,-1
186,187,1580727413431,0.8228,0.45619997,0.8509,0.46108493,2.805899,10.302901,-1
187,188,1580727413441,0.4878,0.2629,0.6044,0.16649279,2.6137595,10.054699000000001,-1
188,189,1580727413451,0.1538,0.0459,0.3198,-0.15813223,2.4047650000000003,9.7985,-1
189,190,1580727413461,-0.0792,-0.14109999,0.113699995,-0.3143204,2.268554,9.628252999999999,-1
190,191,1580727413472,-0.23969999,-0.18779999,-0.1127,-0.48134947,2.2267799999999998,9.367305,-1
191,192,1580727413482,-0.23959999,-0.11109999599999999,-0.124699995,-0.41918640000000007,2.3140726000000003,9.475914999999999,-1
192,193,1580727413492,-0.1512,-0.0191,0.156,-0.3048489,2.396835,9.793778999999999,-1
193,194,1580727413502,-0.0654,0.093399994,0.3482,-0.2573288,2.4660852,9.892716,-1
194,195,1580727413512,-0.0819,0.104499996,0.355,-0.26585215,2.4434552000000003,9.869608,-1
195,196,1580727413522,-0.0836,0.0613,0.265,-0.23496695,2.4215627,9.714157,d
196,197,1580727413533,-0.1293,0.1015,0.0486,-0.24058855,2.4301052000000003,9.514146,-1
197,198,1580727413543,-0.15869999,0.021699998999999998,-0.0787,-0.25677335,2.3409066000000003,9.466951,-1
198,199,1580727413553,-0.2007,-0.037699997,-0.049399998,-0.26526797,2.3207572,9.498783999999999,-1
199,200,1580727413563,-0.183,0.0037999998,0.057699997,-0.18061857,2.3851037,9.678264,-1
200,201,1580727413573,-0.18239999,0.0481,0.1839,-0.20985657,2.3693020000000002,9.742591000000001,-1
201,202,1580727413583,-0.3166,0.0058999998,0.2313,-0.41901404,2.2583165000000003,9.869905000000001,-1
202,203,1580727413593,-0.5198,-0.1237,0.4355,-0.49150088,2.1619450000000002,10.088333,-1
203,204,1580727413603,-0.5714,-0.1864,0.66969997,-0.43662575,2.0740297,10.291869,-1
204,205,1580727413613,-0.47239998,-0.2529,0.8854,-0.24355736,2.0771234,10.689631,-1
205,206,1580727413624,-0.2798,-0.1845,1.298,0.08322245,2.2249029,10.969714999999999,-1
206,207,1580727413634,0.2936,0.0861,1.5547999,0.8746976000000001,2.5328068999999998,11.141532000000002,-1
207,208,1580727413644,1.0833,0.3615,1.6463,1.5948066,2.7836616000000003,11.201818,-1
208,209,1580727413654,1.3161,0.43609998,1.7587999,1.5782768999999999,2.6168911,11.579077999999999,-1
209,210,1580727413664,1.1675999,0.057099998,2.3918,1.4868854999999999,2.216054,12.511533,-1
210,211,1580727413674,1.1528,-0.24579999,3.3983998,1.9629581000000003,2.08466,13.382439000000002,-1
211,212,1580727413684,1.9017998999999999,-0.2983,4.2005,3.010785,2.2760909,14.245318,-1
212,213,1580727413694,3.0751,0.14919999,5.0415,4.694205999999999,3.2793093,14.780901,-1
213,214,1580727413704,5.2430997,1.4080000000000001,5.2023997,7.5169797,4.598974,14.225897,-1
214,215,1580727413714,8.299,2.5163,4.3104,10.170914,5.4000262999999995,13.202585999999998,-1
215,216,1580727413724,10.477699000000001,3.0986,3.3869,11.519826,5.582847,12.700416,-1
216,217,1580727413734,11.5938,3.0214999,3.2394,12.187597,5.3083089999999995,12.967829,-1
217,218,1580727413744,12.068299,2.7244,3.6164,12.175042,5.006400599999999,13.262804999999998,-1
218,219,1580727413755,11.763599000000001,2.2359,3.8342998,11.355400999999999,4.3044777000000005,13.316339000000001,-1
219,220,1580727413765,10.686299,1.3185999,3.7661,10.017339999999999,3.2904375,12.829943,-1
220,221,1580727413775,9.4105,0.1733,2.9401,9.208434,2.2872193,11.482084,-1
221,222,1580727413785,8.8412,-0.91929996,1.4432,8.841883000000001,1.3805542,9.977089,-1
222,223,1580727413796,8.552,-1.8019999,0.096599996,8.576969,0.8308263000000001,8.92342,-1
223,224,1580727413805,8.171,-2.4422,-0.78999996,7.866188,0.37024894,7.934145,-1
224,225,1580727413815,7.3563,-2.9399998,-1.7787,6.7869964000000005,-0.13878708,6.5581975,-1
225,226,1580727413825,6.5442995999999996,-3.4343,-2.9672,6.3047757,-0.3303328,5.781959,-1
226,227,1580727413835,5.7356997000000005,-3.5691998,-4.1568,5.2228265,-0.17049589999999998,4.7706669999999995,-1
227,228,1580727413845,4.9419,-3.4854,-4.4244,4.4288516,-0.10942459,4.9488726,-1
228,229,1580727413855,4.1491,-3.5382,-4.2406,3.2890394,-0.13092452,4.519429,-1
229,230,1580727413865,3.1657,-3.6543,-4.8192,2.396615,-0.25564328,3.7788358,-1
230,231,1580727413875,1.9670999,-3.9397,-5.8371,0.50142246,-0.6458024,2.3276715,-1
231,232,1580727413885,0.33409998,-4.3893,-7.0018,-1.3728927,-1.0308092,1.3111798000000001,-1
232,233,1580727413895,-1.561,-4.842,-7.9326,-3.2986449999999996,-1.3281020000000001,0.5295304,-1
233,234,1580727413905,-3.9318998,-5.2290998,-9.0316,-5.486591000000001,-1.5394046000000001,-1.0902141,-1
234,235,1580727413916,-5.7936997,-5.4872,-10.7779,-7.1878242,-1.8288254000000002,-2.5312742999999998,-1
235,236,1580727413926,-7.4400997,-5.9084,-11.5357,-9.375091000000001,-2.4027157000000003,-2.2271917,-1
236,237,1580727413936,-9.3657,-6.4737,-11.0745,-11.473225999999999,-2.8470984,-1.8152837,-1
237,238,1580727413946,-11.5084,-6.9312997,-10.7596,-13.842422000000001,-3.3428035000000005,-2.269818,-1
238,239,1580727413956,-13.921598999999999,-7.4055,-11.37,-16.300175,-3.757192,-2.8795447,-1
239,240,1580727413966,-16.3074,-7.7447996,-11.8227,-18.551203,-3.9504328,-2.1453867,-1
240,241,1580727413977,-18.411499,-7.8055997,-10.7766,-20.009798,-4.0817595,0.22448035,-1
241,242,1580727413987,-19.5991,-7.7854,-8.2755995,-20.365213,-4.1928887,3.2306304,-1
242,243,1580727413997,-19.7801,-7.697499799999999,-5.9084,-19.665705,-4.0294989999999995,4.381283799999999,-1
243,244,1580727414007,-19.086899,-7.3738,-4.8244,-18.05705,-3.7921855000000004,5.245093,-1
244,245,1580727414017,-17.0786,-6.8725,-3.807,-15.885979,-3.143577,6.459919999999999,-1
245,246,1580727414028,-15.3789,-6.1461,-2.8678,-15.177247,-2.7116822999999997,7.983542,-1
246,247,1580727414038,-14.7036,-5.5278,-1.4081,-15.018654999999999,-2.5648413,10.374459,-1
247,248,1580727414048,-14.6178,-5.178499700000001,0.9262,-14.724274,-2.7070377,12.786722,-1
248,249,1580727414058,-13.7727995,-5.2601,4.232,-13.966365,-2.9916892,13.775882000000001,-1
249,250,1580727414068,-13.7727995,-5.2601,4.232,-12.074389,-3.5364082000000003,13.536482000000001,-1
250,251,1580727414078,-12.0074,-5.6619,3.9513,-9.377369999999999,-3.9473202000000005,13.232235000000001,-1
251,252,1580727414089,-6.5692,-5.615999700000001,5.0613,-6.443189599999999,-3.8239996,14.706135,-1
252,253,1580727414099,-6.5692,-5.615999700000001,5.0613,-3.2818568,-3.110815,18.272863,-1
253,254,1580727414109,-3.4668998999999996,-4.6816,8.593699,-1.034161,-2.3807847,21.762757999999998,-1
254,255,1580727414119,0.61869997,-2.4496999,15.5511,0.90756524,-1.3524844999999999,25.296589,-1
255,256,1580727414129,1.1324999,-1.9808999,15.1297,1.4168406999999998,-1.0637343000000001,24.89623,-1
256,257,1580727414141,1.7408999,-2.0941,11.657499000000001,2.0008345000000003,-1.2945737,21.438017000000002,-1
257,258,1580727414149,1.7408999,-2.0941,11.657499000000001,2.9263656000000005,-1.6371168,16.850584,-1
258,259,1580727414159,4.1092,-2.5627,4.5232997,4.3721375,-1.8232708,14.309385999999998,-1
259,260,1580727414169,6.2623,-2.2693,5.9151998,6.581592999999999,-1.5596405,15.704134,-1
260,261,1580727414179,8.2404995,-1.6457,8.659699,9.303331,-0.762084,19.313643,-1
261,262,1580727414190,8.2404995,-1.6457,8.659699,10.303677,-0.35595074,20.437279,-1
262,263,1580727414200,11.760099,-0.20789999,11.245,12.59328,0.4753831,20.702097,-1
263,264,1580727414210,12.943299,0.17809999,9.4479,13.382457,0.71098214,19.239948000000002,-1
264,265,1580727414220,12.943299,0.17809999,9.4479,13.763691,0.817074,17.601921,-1
265,266,1580727414230,13.4179,0.276,6.6906,13.617128,0.77541494,14.309242999999999,-1
266,267,1580727414241,13.2487,0.16669999,4.0042,13.634548,0.7018363000000001,11.911661,-1
267,268,1580727414251,13.7799,0.0502,0.1406,14.269078,0.83972317,9.7840395,-1
268,269,1580727414261,14.4302,0.4243,-0.0865,15.000928,1.3689088,9.732832,-1
269,270,1580727414271,15.099,1.0862,0.059000000000000004,15.735526,2.0731874,9.772758,-1
270,271,1580727414281,16.0054,1.4769,-0.38459998,16.851063,2.550112,9.150208000000001,-1
271,272,1580727414291,16.646599,1.8300999,-0.9967,17.223534,2.8681292999999997,8.640655,-1
272,273,1580727414302,16.404999,2.0300999,-1.3544999,17.348786999999998,2.9923692,8.219811,-1
273,274,1580727414312,17.0232,1.8029,-1.9467,17.545648999999997,2.7874252999999998,7.407152000000001,-1
274,275,1580727414323,16.4555,1.5954,-2.7135,16.198317000000003,2.5104162999999997,6.719767599999999,-1
275,276,1580727414333,14.7953,1.2052,-3.1936998,14.840804,2.1373708,6.459843,-1
276,277,1580727414343,13.208798999999999,0.60789996,-3.1825,13.474232999999998,1.6212767,6.4683285,-1
277,278,1580727414354,11.8315,0.1255,-3.4638998999999995,12.146857,1.258469,6.04829,-1
278,279,1580727414364,10.585199000000001,-0.33249998,-3.9589999,10.889241,0.68331474,5.361911,-1
279,280,1580727414374,9.5428,-0.8882,-4.6294,9.997832,0.31861079999999997,4.546407,-1
280,281,1580727414384,8.644,-1.2786,-5.3497996,9.101844999999999,-0.13083833,4.2228449999999995,-1
281,282,1580727414394,7.5506997,-1.8554,-5.2893,7.762164599999999,-0.87092435,4.714394,-1
282,283,1580727414405,5.9117,-2.7129,-4.6744,5.8342195,-1.777666,5.35717,-1
283,284,1580727414415,3.8367,-3.6457,-4.0719,3.8018296,-2.7511196,5.7264230000000005,-1
284,285,1580727414425,1.8813,-4.6145997,-3.8806,2.1821327,-3.5938597000000003,5.762919999999999,-1
285,286,1580727414435,0.5197,-5.2897997000000005,-3.8244998,1.5112298000000002,-3.939525,5.851907700000001,-1
286,287,1580727414445,0.1862,-5.3616,-3.7182,1.6950566000000002,-3.7133303,6.0020050000000005,-1
287,288,1580727414455,0.45639998,-5.0074997,-3.4673,1.9493973000000002,-3.3509437999999996,6.4288815999999995,-1
288,289,1580727414466,0.4517,-4.7128,-2.9569,1.5539806,-3.401653,6.975994999999999,-1
289,290,1580727414476,-0.3075,-4.9136,-2.4120998,0.06877105,-3.8494453,7.6797085,-1
290,291,1580727414486,-1.7245,-5.2195,-1.8391998999999999,-1.3605483,-4.075056,7.9771543000000005,-1
291,292,1580727414496,-3.5358,-5.4354,-1.6568999,-3.3117267999999997,-4.444662999999999,7.660009,-1
292,293,1580727414506,-5.1043,-5.7208,-2.0314999,-4.845414,-4.712124,7.253617299999999,-1
293,294,1580727414516,-6.718999999999999,-5.901799700000001,-2.4550998,-6.687292599999999,-4.8088593,6.7586784,-1
294,295,1580727414527,-8.540999000000001,-6.0089999999999995,-2.9981,-8.255246000000001,-5.177212,6.289251999999999,-1
295,296,1580727414537,-10.0161,-6.3478,-3.3681,-9.321383,-5.527139,6.316747,-1
296,297,1580727414547,-10.9978,-6.6066,-3.3007998,-10.270062,-5.8414693,6.49501,-1
297,298,1580727414557,-11.9407,-6.8346995999999995,-3.1187,-11.489755,-6.318221599999999,6.944248,-1
298,299,1580727414567,-12.9185,-7.124399700000001,-2.7219,-12.275264,-6.4645743,7.279953,-1
299,300,1580727414578,-13.9128,-7.1277,-2.3235,-13.498307,-5.9774885,7.6788273,-1
300,301,1580727414587,-14.894299499999999,-6.5381,-2.0194,-13.365688,-5.4375477,8.025632,-1
301,302,1580727414597,-14.6328,-5.7393,-1.5534999,-12.452463,-4.8673067,8.735666,-1
302,303,1580727414607,-13.691899,-5.0404,-0.7992,-11.33712,-4.398464,9.524824,-1
303,304,1580727414617,-12.6005,-4.4788,-0.0126,-10.346274000000001,-4.155233,10.426289,-1
304,305,1580727414627,-11.6972,-4.0863,0.9238,-9.624393,-3.9870355,11.301762,-1
305,306,1580727414638,-11.0917,-3.8007998,1.7558,-9.253973,-3.9901383000000004,11.618841,-1
306,307,1580727414648,-10.8649,-3.6615998999999997,1.9439,-9.263492999999999,-3.8710410000000004,11.3147955,-1
307,308,1580727414658,-10.882299,-3.3637,1.5848999,-8.846039,-3.6929412000000004,11.311684,-1
308,309,1580727414669,-10.3856,-3.0435,1.7473999,-7.625044,-3.4147446000000006,12.082263000000001,-1
309,310,1580727414680,-7.9635997000000005,-2.3787,3.5461998,-5.952808999999999,-3.34469,13.411074,-1
310,311,1580727414690,-6.8194,-2.3652,4.8269997,-4.956783000000001,-3.5584160000000002,14.674005,-1
311,312,1580727414700,-6.1008,-2.4250998,5.8609,-4.3386190000000004,-3.8065796,15.591866,-1
312,313,1580727414711,-5.4318,-2.3264,6.3244,-3.7956429,-3.810822,15.905122,-1
313,314,1580727414721,-5.164,-2.0976,6.1096,-3.7477684,-3.8024902000000003,15.580094,-1
314,315,1580727414731,-5.2693996,-2.1134999,5.6882997,-4.0152392,-4.0123754,15.157681,-1
315,316,1580727414741,-5.1535,-2.1083998999999998,5.6696,-3.8550574999999996,-4.1047535,15.274192999999999,-1
316,317,1580727414751,-4.4298,-2.0414,6.1422,-3.2099252000000003,-4.1289253,15.766144,-1
317,318,1580727414761,-3.7681,-2.02,6.4276,-2.617772,-4.2533183,15.934370000000001,-1
318,319,1580727414772,-2.7135,-2.1908998,6.2299,-1.6031191,-4.485469999999999,15.677567999999999,-1
319,320,1580727414781,-1.5187,-2.0772998,5.8241997,-0.55063766,-4.373105000000001,15.204866,-1
320,321,1580727414791,-0.2479,-1.8426,5.0841,0.5946048,-4.2576089999999995,14.418754000000002,-1
321,322,1580727414801,0.97849995,-1.8504,4.237,1.5533772,-4.3593245000000005,13.565517999999999,-1
322,323,1580727414811,1.8730999,-1.8651999,3.6269998999999995,2.2854476000000004,-4.3758919999999994,13.074869,-1
323,324,1580727414821,2.8632,-1.6407,3.6174998,3.1409627999999996,-4.1681040000000005,13.146026,-1
324,325,1580727414833,3.8897,-1.357,3.9025,4.113478,-3.8523376000000003,13.492706,-1
325,326,1580727414843,4.6646,-1.03,4.1359,4.783748999999999,-3.5034735,13.602973,-1
326,327,1580727414853,5.5975,-0.7022,4.0022,5.828703,-3.3234775,13.015206,-1
327,328,1580727414863,6.4623,-0.7177,3.1773,6.3867626,-3.3392887000000004,12.263292999999999,-1
328,329,1580727414873,7.1285996,-0.69589996,2.4773998,6.9029050000000005,-3.087237,11.976381,-1
329,330,1580727414883,7.5909996,-0.299,2.7402,7.205953,-2.6769187000000003,12.489965,-1
330,331,1580727414894,8.1269,0.20279999,3.4573,7.7085156,-2.1145207999999998,13.040297,-1
331,332,1580727414904,8.745,0.6726,3.5374,8.141406,-1.7278476000000003,12.703433,-1
332,333,1580727414914,8.972199,0.8366,3.0175,8.06505,-1.590334,12.086706,-1
333,334,1580727414924,8.9502,0.9590000000000001,2.3481,7.946758,-1.3060370000000001,11.278586,-1
334,335,1580727414934,8.8499,1.2458,1.4109,7.5127273,-0.9918985999999999,10.236228,-1
335,336,1580727414945,8.366799,1.446,0.37359998,6.879537599999999,-0.7815919,9.398046,d
336,337,1580727414955,8.366799,1.446,0.37359998,6.299844,-0.769439,8.983255,-1
337,338,1580727414965,7.2492,1.3867999,-0.71129996,5.6207523,-1.0090219,8.364287,-1
338,339,1580727414975,6.5323,0.9914,-1.4538,4.716769,-1.4361187,7.5831265,-1
339,340,1580727414985,5.5908,0.4881,-2.1262,3.5093155,-2.015688,7.249135000000001,-1
340,341,1580727414995,4.5864,-0.011000000000000001,-2.2285,2.507323,-2.3722133999999997,7.497279600000001,-1
341,342,1580727415006,3.622,-0.3595,-1.9183999,1.8895519,-2.5483212,7.974473,-1
342,343,1580727415016,2.9023,-0.5514,-1.2167,1.2972071000000003,-2.6335835,8.968850999999999,-1
343,344,1580727415026,2.4675999,-0.54359996,-0.40879998,1.3067073999999999,-2.4488467999999997,9.523263,-1
344,345,1580727415036,2.5398998,-0.3421,0.0539,1.6329126,-2.2596955000000003,9.674489999999999,-1
345,346,1580727415046,2.8169999999999997,-0.1918,0.1437,1.8481131000000002,-2.2037572999999995,9.746116,-1
346,347,1580727415057,2.9157,-0.15519999,0.2455,1.7449421999999999,-2.196364,9.978765,-1
347,348,1580727415067,2.7322,-0.1396,0.4781,1.5272709,-2.2797492000000004,10.2337475,-1
348,349,1580727415077,2.4522,-0.2244,0.7528,0.9021927,-2.3865786,10.719311,-1
349,350,1580727415087,1.8833,-0.3053,1.1761,0.2939505,-2.5344446,11.063979,-1
350,351,1580727415097,1.117,-0.47649997,1.599,-0.30852640000000003,-2.7175624,11.353591999999999,-1
351,352,1580727415107,0.5405,-0.63769996,1.8230000000000002,-0.76748526,-2.8139532000000003,11.276987,-1
352,353,1580727415118,0.1131,-0.71459997,1.6804999,-0.6581276999999999,-2.7498076,11.012773,-1
353,354,1580727415128,0.22039999,-0.6752,1.4568,-0.20331562,-2.49743,11.115809,-1
354,355,1580727415138,0.63119996,-0.4333,1.5464,0.37605247,-2.132975,11.574624,-1
355,356,1580727415149,1.1637,-0.0903,2.0,0.8745826999999999,-1.7433236,12.039827,-1
356,357,1580727415159,1.9650999,0.6361,2.7351,1.2779768999999999,-1.3369606,12.374613,-1
357,358,1580727415169,1.9650999,0.6361,2.7351,1.322624,-1.2791166,12.590044,-1
358,359,1580727415179,1.8338,0.5886,3.2647998,1.1584105,-1.3903704,12.860445,-1
359,360,1580727415189,1.7218,0.36589998,3.6996,1.0905493,-1.5969421999999998,13.302012,-1
360,361,1580727415199,1.7218,0.36589998,3.6996,1.1414021,-1.7735288,13.972695000000002,-1
361,362,1580727415210,1.7907,0.088599995,5.3501,1.3331107,-1.8551425,15.194944,-1
362,363,1580727415220,1.7907,0.088599995,5.3501,1.3446603000000001,-2.021118,16.318525,-1
363,364,1580727415230,1.4834,-0.2665,7.3679,1.1694909,-2.117068,17.007748,-1
364,365,1580727415240,1.4834,-0.2665,7.3679,1.0209259,-2.171608,17.443829,-1
365,366,1580727415251,1.2993,-0.44239998,7.9584,1.1885201,-2.1658716,17.622416,-1
366,367,1580727415261,1.2959,-0.5369,7.7861,1.2097229999999999,-2.1821425,17.385544,-1
367,368,1580727415271,1.3287,-0.5791,7.2496,1.4044292,-2.020783,16.696348,-1
368,369,1580727415281,1.6063,-0.37289998,6.555,1.6212096999999999,-1.722178,16.108524,-1
369,370,1580727415291,1.6831,-0.1408,5.7228,1.6641426,-1.3906288999999998,15.295960999999998,-1
370,371,1580727415302,1.4296,-0.1627,4.9797,1.2639278,-1.3171175,14.490877,-1
371,372,1580727415312,0.97859997,-0.3567,4.375499700000001,0.8441764,-1.4137282,13.95315,-1
372,373,1580727415322,0.5434,-0.6425,4.0281,0.44401908,-1.5619771,13.761106,-1
373,374,1580727415332,0.18789999,-0.87189996,3.9673,0.19713856,-1.5681924999999999,13.761508,-1
374,375,1580727415342,0.0037999998,-0.937,3.9482,0.11845552,-1.4053677,13.736617,-1
375,376,1580727415352,-0.1381,-0.8473,3.8432,-0.13420936,-1.1679778,13.55122,-1
376,377,1580727415363,-0.6035,-0.8071,3.5247998,-0.66496557,-0.9699773000000002,13.085509,-1
377,378,1580727415373,-1.1524,-0.79609996,2.7674,-1.1900427,-0.7766024,11.973929,-1
378,379,1580727415383,-1.4512,-0.79389995,1.7278,-1.3514502,-0.5965201,10.994518,-1
379,380,1580727415393,-1.4922,-0.7076,0.8767,-1.2649908,-0.3618309,10.42559,-1
380,381,1580727415403,-1.3069998999999999,-0.5805,0.4881,-1.1180538,-0.07603985,9.981063,-1
381,382,1580727415413,-1.104,-0.5013,-0.1343,-0.7867347,0.021557392999999998,9.130557000000001,-1
382,383,1580727415424,-0.7152,-0.5731,-0.9515,-0.500934,0.22837812,8.578156,-1
383,384,1580727415434,-0.475,-0.34469998,-1.2576,-0.42721176,0.68096846,8.547396,-1
384,385,1580727415444,-0.3218,0.0008,-1.1903,-0.04687847,1.0114927,8.664481,-1
385,386,1580727415454,0.0602,0.1996,-1.0445,0.19657353,1.3896426000000002,8.765365,-1
386,387,1580727415464,0.33089998,0.51629996,-1.0163,0.38267964,1.6350291000000001,8.709646000000001,-1
387,388,1580727415474,0.4017,0.50949997,-1.1254,0.07332003,1.4371243999999999,8.425244000000001,-1
388,389,1580727415484,0.0569,0.078899994,-1.4792,-0.39551255,0.99187946,8.091319,-1
389,390,1580727415495,-0.5936,-0.5736,-1.9689,-1.4699153999999999,0.35904408,7.291752000000001,-1
390,391,1580727415505,-1.2915,-1.1082,-2.8195999,-2.028291,-0.20695479,6.104324,-1
391,392,1580727415515,-1.5679,-1.6453999,-3.8053,-2.4129722,-0.6243312,5.1097436,-1
392,393,1580727415525,-1.8951999,-2.1059,-4.7602,-3.1543033,-0.90805364,4.4568449999999995,-1
393,394,1580727415535,-2.5711,-2.3976,-5.3030996,-3.7119608,-0.7944919,4.008104299999999,-1
394,395,1580727415545,-2.9491,-2.2807999,-5.7588,-3.7059752999999995,-0.55607724,3.6384876000000004,-1
395,396,1580727415556,-2.6850998,-2.0284,-6.0985,-3.0039954,-0.16547765,3.6013292999999997,-1
396,397,1580727415566,-1.9769999999999999,-1.7263998999999999,-5.9603996,-2.521123,0.014528016000000001,4.136807,-1
397,398,1580727415576,-1.5630000000000002,-1.6676999,-5.3835998,-2.5987432,-0.16334201,4.591934999999999,-1
398,399,1580727415586,-1.6881,-1.9015,-4.9655,-2.7612807999999998,-0.35856520000000003,4.7457767,-1
399,400,1580727415596,-1.9469999,-2.2368999,-4.9108,-3.0641472000000003,-0.64421266,4.5151962999999995,-1
400,401,1580727415606,-2.0535,-2.3185,-5.2681,-3.0144627,-0.40595126,4.1831875,-1
401,402,1580727415617,-1.9517,-2.0618,-5.4203997,-2.9360478,-0.17560992,4.4269176,-1
402,403,1580727415626,-1.8896998999999999,-1.8935,-5.0941997,-2.8075845,-0.14101848,4.8384995,-1
403,404,1580727415636,-1.7577,-1.8664999,-4.6914997000000005,-2.6787765,-0.09641929,5.1833606,-1
404,405,1580727415647,-1.6340000000000001,-1.9009,-4.2998,-2.6292548,-0.18906532,5.3939357,-1
405,406,1580727415657,-1.6107,-1.9379,-4.1047,-2.2733903,-0.02984133,5.649416,-1
406,407,1580727415667,-1.1542,-1.7361,-3.8904,-1.6109052,0.38534197,6.152428,-1
407,408,1580727415678,-0.5046,-1.2867,-3.2944998999999995,-1.0827921999999999,0.7878168000000001,7.062359,-1
408,409,1580727415688,-0.0426,-0.9119,-2.3659,-0.99886096,1.0222476,8.006651,-1
409,410,1580727415698,-0.028099999,-0.71309996,-1.6036999,-1.08578,1.0942938,8.416576,-1
410,411,1580727415708,-0.1488,-0.6471,-1.1542,-1.3515843,0.9213271999999999,8.606044,-1
411,412,1580727415718,-0.3901,-0.8075,-1.0169,-1.5020263,0.7603602,8.423731,-1
412,413,1580727415728,-0.5512,-0.98099995,-1.1918,-1.3449476,0.6419142,8.171927,-1
413,414,1580727415739,-0.3351,-1.1244999,-1.5027,-0.8689899,0.8477581,8.069092,-1
414,415,1580727415749,0.4931,-0.7439,-0.9188,-0.2970917,1.1302835,8.840322,-1
415,416,1580727415759,0.8427,-0.50769997,-0.1818,-0.022572534,1.3312144,9.430694,-1
416,417,1580727415769,1.0575,-0.2821,0.2907,0.23181619,1.5773575,9.90147,-1
417,418,1580727415779,1.1108999,-0.099599995,0.48029998,0.30284736,1.7888997,10.077999,-1
418,419,1580727415790,1.1108999,-0.099599995,0.48029998,0.32268095,1.9693842000000001,9.89606,-1
419,420,1580727415800,1.1198,0.15079999,-0.1661,0.31070992,2.096095,9.424698,-1
420,421,1580727415810,0.99249995,0.10439999400000001,-0.45399999999999996,0.10591949,2.043499,9.101098,-1
421,422,1580727415820,0.6673,-0.019199999,-0.5559,-0.18116446,1.9675933,9.021448,-1
422,423,1580727415830,0.2855,-0.0849,-0.6386,-0.6327588000000001,1.9087534,8.954449,-1
423,424,1580727415841,0.0045,-0.24759999,-0.4867,-0.8411213,1.7877311999999999,9.109985,-1
424,425,1580727415851,-0.0535,-0.28059998,-0.4531,-0.894876,1.7626113,9.083141,-1
425,426,1580727415861,-0.0426,-0.3409,-0.5768,-0.8467238000000001,1.7527089,8.955042,-1
426,427,1580727415872,0.11639999599999999,-0.34739998,-0.57379997,-0.59714264,1.8123532999999998,9.036733,-1
427,428,1580727415882,0.3152,-0.1813,-0.33679998,-0.44596317,2.0153526999999998,9.290001,-1
428,429,1580727415892,0.4017,0.0011999999,-0.2184,-0.31668586,2.1692522000000003,9.272302999999999,-1
429,430,1580727415902,0.67069995,0.1977,-0.42409998,-0.021825543,2.43135,9.058461999999999,-1
430,431,1580727415912,0.91499996,0.4926,-0.493,0.18863437,2.6631472,9.120951,-1
431,432,1580727415923,0.99069995,0.5117,-0.2978,0.20457974,2.5835447,9.40633,-1
432,433,1580727415933,0.84819996,0.4102,0.0931,-0.023942016,2.4648783,9.7936735,-1
433,434,1580727415943,0.542,0.27609998,0.4256,-0.29533914,2.3223757999999997,10.042114999999999,-1
434,435,1580727415953,0.354,0.0896,0.46469998,-0.37202063,2.2033072,10.0233345,-1
435,436,1580727415963,0.3005,0.0389,0.4655,-0.34875858,2.1860785,10.058807,-1
436,437,1580727415973,0.3532,0.0777,0.5452,-0.24017674,2.3253446,10.219458,-1
437,438,1580727415984,0.4531,0.20729999,0.7719,-0.22567746,2.2961543,10.444494,-1
438,439,1580727415994,0.384,0.0641,0.9693,-0.36925292,2.141623,10.555854,d
439,440,1580727416004,0.2314,-0.040999997,0.98109996,-0.46072102,2.1692232999999996,10.463312,-1
440,441,1580727416014,0.23519999,-0.0039999996999999995,0.90559995,-0.3539013,2.1812901,10.465467,-1
441,442,1580727416025,0.36200000000000004,-0.0402,0.96819997,-0.14512692,2.1997923999999998,10.527802000000001,-1
442,443,1580727416035,0.64309996,0.0285,0.9921,0.13389334,2.3815699,10.601066000000001,-1
443,444,1580727416045,0.86869997,0.2041,1.1244,0.32626265,2.4977555000000002,10.746949,-1
444,445,1580727416055,1.021,0.23249999,1.2571,0.38236359999999997,2.5512040000000002,10.747198,-1
445,446,1580727416065,0.99079996,0.297,1.1261,0.21075679999999997,2.6094787,10.48577,-1
446,447,1580727416075,0.81949997,0.2801,0.9375,0.012890381999999999,2.571861,10.453171000000001,-1
447,448,1580727416086,0.58559996,0.17539999,0.91599995,-0.5812451,2.3835428,10.413217,-1
448,449,1580727416096,0.0626,-0.0275,0.8951,-1.0161566999999998,2.2117633999999997,10.238257,-1
449,450,1580727416107,-0.3074,-0.212,0.7084,-1.2919112,2.1424562999999996,9.97388,-1
450,451,1580727416117,-0.5106,-0.28309998,0.41509998,-1.2738398000000002,2.2196357000000004,9.637955,-1
451,452,1580727416127,-0.3953,-0.2235,0.093899995,-1.0238181,2.3815508,9.234933999999999,-1
452,453,1580727416137,-0.1299,-0.0827,-0.3041,-0.84428173,2.520673,8.857042999999999,-1
453,454,1580727416147,0.0431,-0.015899998999999998,-0.6421,-0.8525560999999999,2.6354318,8.618274000000001,-1
454,455,1580727416158,0.0067,0.044999998,-0.8411,-1.0738473,2.7088478,8.380367,-1
455,456,1580727416168,-0.33929998,0.0067,-1.1254,-2.267922,2.425671,7.5738273000000005,-1
456,457,1580727416178,-1.7593,-0.4705,-2.0321999,-4.9707555999999995,1.5409465,5.5945024000000005,-1
457,458,1580727416188,-4.0783,-1.3364999,-3.7468,-6.992429,0.67225355,3.455446,-1
458,459,1580727416198,-6.0822,-2.3072,-5.8592,-9.101854,0.09736739,1.2858108,-1
459,460,1580727416209,-9.3901,-3.5346,-9.4842,-10.300248,-0.34825101,-0.26450184,-1
460,461,1580727416219,-9.3901,-3.5346,-9.4842,-10.639947,-0.5863209,-1.0518398000000002,-1
461,462,1580727416229,-9.421599,-4.1412,-10.9991,-10.00827,-0.79397476,-2.0234067,-1
462,463,1580727416239,-9.421599,-4.1412,-10.9991,-9.170950999999999,-0.9193925999999999,-2.7734337000000004,-1
463,464,1580727416249,-7.704799700000001,-4.6171,-12.215799,-8.293992999999999,-1.1312795,-3.0822952,-1
464,465,1580727416260,-7.8645997,-4.7874,-12.379499000000001,-8.356501,-1.2857629,-3.2448425,-1
465,466,1580727416270,-8.2991,-5.1783,-12.688399,-8.767700999999999,-1.7659918999999997,-3.5875769999999996,-1
466,467,1580727416280,-8.6839,-5.5399,-12.928699499999999,-9.023850999999999,-2.1585548,-3.8107836,-1
467,468,1580727416291,-8.6839,-5.5399,-12.928699499999999,-8.7419,-2.62688,-3.9268165,-1
468,469,1580727416301,-7.5909996,-6.6151,-13.0734,-7.4954886,-3.37457,-3.8120577000000004,-1
469,470,1580727416311,-6.4477,-6.9367,-12.887899,-6.2072167,-3.801571,-3.5959282,-1
470,471,1580727416321,-4.8113,-7.0906997,-12.4058,-4.296424,-4.028637000000001,-2.8629577,-1
471,472,1580727416331,-2.813,-6.8799,-10.988299000000001,-2.2996689999999997,-3.9595785000000006,-1.3184198,-1
472,473,1580727416341,-1.3788999,-6.7516,-9.573,-0.74407,-4.1243,0.12583925,-1
473,474,1580727416351,0.1504,-7.1934,-8.244599000000001,1.3427067,-4.9858007,1.7123426,-1
474,475,1580727416361,1.8046,-7.5386,-7.303499700000001,2.968044,-5.387816,2.4905539,-1
475,476,1580727416371,2.9224,-7.740999700000001,-6.7879996,4.0067635,-5.998768,3.0257635,-1
476,477,1580727416381,3.6704998,-8.3612995,-6.1412997,4.7169986,-6.936481,3.7653131,-1
477,478,1580727416392,4.0726,-8.7873,-5.4709,5.3226933,-7.349404300000001,4.5398664,-1
478,479,1580727416402,5.2381,-8.6608,-4.1085,7.265817599999999,-7.363157000000001,6.6819487,-1
479,480,1580727416412,8.007999,-7.9999,-0.87619996,10.528953,-6.7520795,10.364768,-1
480,481,1580727416422,11.1166,-6.7376,2.5989999999999998,13.487860000000001,-5.7663965,13.296362,-1
481,482,1580727416432,13.848598999999998,-5.3856997,4.6078,16.135147,-4.8102,14.799270000000002,-1
482,483,1580727416442,15.634198999999999,-4.3182,5.5511,16.892424,-4.40332,15.598875,-1
483,484,1580727416453,14.860498999999999,-3.7594,5.9916,15.242876999999998,-4.2271547,15.907497,-1
484,485,1580727416463,13.7568,-3.4347,6.9466996,14.769332,-4.340659,17.549164,-1
485,486,1580727416473,13.7906,-2.7732,9.3515,14.755723999999999,-3.7519534,19.753859,-1
486,487,1580727416483,13.773999,-2.0017,10.434000000000001,14.898895999999999,-3.4925752,19.816270000000003,-1
487,488,1580727416493,14.1914,-1.9118998999999999,9.1651,15.432929000000001,-3.6803955999999998,18.336119,-1
488,489,1580727416504,14.898299,-1.8886,7.1981997,16.266083,-3.9487949999999996,15.323015,-1
489,490,1580727416514,15.0968,-1.7746998999999999,5.0462,15.955879999999999,-3.9128246,14.277351999999999,-1
490,491,1580727416524,14.7198,-1.472,5.3950996,15.439708999999999,-3.8066084000000004,16.705399,-1
491,492,1580727416534,14.199698999999999,-1.036,8.8227,14.738275,-3.6093931000000006,19.600248,-1
492,493,1580727416544,12.969399000000001,-0.3831,11.979199000000001,13.209836,-3.2463171,22.267014,-1
493,494,1580727416554,11.8678,0.0376,13.204598999999998,12.170387,-3.3339162000000004,21.903852,-1
494,495,1580727416564,10.9183,0.029399997999999997,12.1353,11.461148,-3.7076127999999997,20.276857,-1
495,496,1580727416574,10.2789,-0.2505,10.7423,11.132071,-4.057970500000001,19.645027,-1
496,497,1580727416584,10.1504,-0.2531,10.907499000000001,11.219928999999999,-3.8021839,20.671185,-1
497,498,1580727416595,9.986,0.3366,12.420899,10.894058,-3.3208629999999997,22.640606,-1
498,499,1580727416605,9.5142,0.8621,14.6831,10.210446000000001,-3.1698751,24.653248,-1
499,500,1580727416615,8.5945,0.9737,16.4314,8.639841,-3.9962099,25.894604,-1
500,501,1580727416625,6.9986,0.0416,17.253899,6.2187953,-5.614077,25.941616,-1
501,502,1580727416635,4.3704,-1.5518999,17.1423,3.211697,-7.2396636,25.23615,-1
502,503,1580727416646,1.1554999,-3.1529,16.3566,-0.037359122,-8.340411999999999,24.069523,-1
503,504,1580727416656,-2.1784,-4.1737,15.1043,-3.1106331000000003,-8.761543,22.561798,-1
504,505,1580727416666,-5.3627,-4.6344,13.498899,-5.775035,-8.905999000000001,20.942004999999998,-1
505,506,1580727416676,-8.106999,-4.9656,11.8136,-8.048358,-9.3021345,19.2223,-1
506,507,1580727416687,-10.4416,-5.605,10.0836,-10.070663,-9.9826145,17.935328,-1
507,508,1580727416697,-12.519299499999999,-6.5256,8.8223,-11.679931,-10.766323,16.910467,-1
508,509,1580727416707,-14.045898999999999,-7.487,7.7654,-12.600022000000001,-11.473963000000001,15.628601999999999,-1
509,510,1580727416717,-14.759,-8.2108,6.6182,-12.867714,-11.517011,14.514398000000002,-1
510,511,1580727416727,-15.0356,-8.4288,5.4502,-12.833447999999999,-11.277964,13.552014000000002,-1
511,512,1580727416738,-14.9521,-8.3025,4.1837,-12.425601,-10.7897005,12.321213,-1
512,513,1580727416748,-14.473498999999999,-7.9498,2.8983998,-11.666523,-9.844296,10.854994,-1
513,514,1580727416758,-13.846399,-7.3403997,1.6150999,-11.007276,-9.203425,9.548478,-1
514,515,1580727416768,-13.1854,-6.6811,-1.0703,-10.398057000000001,-8.7607,8.282166499999999,-1
515,516,1580727416778,-12.556399,-6.6811,-1.0703,-9.82859,-8.301492,7.0667734,-1
516,517,1580727416788,-11.9684,-6.4258,-2.3339,-9.373672500000001,-8.001135000000001,6.053557,-1
517,518,1580727416799,-10.4831,-6.0685997,-4.8691,-8.414105000000001,-7.562095599999999,4.6143545999999995,-1
518,519,1580727416809,-9.3262,-5.7792,-5.9157,-7.3151674,-7.114849,3.5956216,-1
519,520,1580727416819,-9.3262,-5.7792,-5.9157,-6.076349700000001,-6.5979795,2.7643452,-1
520,521,1580727416829,-6.8301,-5.0758,-7.486399700000001,-4.960422,-6.130775,2.0885675,-1
521,522,1580727416839,-5.7014,-4.7144,-7.8231997,-3.8853487999999996,-5.6659455,1.7734904999999999,-1
522,523,1580727416849,-4.4168,-4.2493,-7.7235,-2.6466177,-5.1126547,1.8937273000000001,-1
523,524,1580727416860,-4.4168,-4.2493,-7.7235,-1.273428,-4.431284,2.1543124,-1
524,525,1580727416870,-2.9949,-3.6517,-7.4824,0.055306062,-3.7813735,2.3841076,-1
525,526,1580727416880,-0.43799999999999994,-2.4338999,-7.0924997,1.4796261999999998,-2.9645482999999997,2.5891566000000004,-1
526,527,1580727416891,0.68479997,-1.9612999,-6.9455,2.636361,-2.469169,2.7780306,-1
527,528,1580727416901,1.6916,-1.545,-6.7095,3.587558,-2.0147398,3.0872943,-1
528,529,1580727416911,2.8983998,-1.0995,-6.0206,4.9299197,-1.4619474,4.097456,-1
529,530,1580727416921,2.8983998,-1.0995,-6.0206,5.747367400000001,-0.9063394,4.922680000000001,-1
530,531,1580727416931,4.6914,0.011899999,-4.0773997,6.2292629999999996,-0.4940196,5.737915,-1
531,532,1580727416942,4.7903,0.3347,-3.5486,6.3271755999999995,-0.14772224,6.221429,-1
532,533,1580727416952,5.2346997,0.6569,-3.0774999,6.9983949999999995,0.28525475,6.7783679999999995,-1
533,534,1580727416962,5.807699700000001,1.0720999,-2.6748998,7.476192,0.70197994,7.16033,-1
534,535,1580727416972,6.1369,1.3991,-2.2440999,7.682457,0.94479984,7.6823416,-1
535,536,1580727416982,6.282099700000001,1.5319999999999998,-1.6574999,7.7590046,1.0482963,8.261969,-1
536,537,1580727416992,6.3167995999999995,1.7014999,-1.2285,7.8724704,1.2035268999999997,8.551283999999999,-1
537,538,1580727417003,6.5843,1.8869999999999998,-1.0158,8.056297,1.3185539,8.794621000000001,-1
538,539,1580727417013,6.5943,1.9034,-0.7053,7.853757400000001,1.2718861000000001,9.13612,-1
539,540,1580727417023,6.3203998,1.9343,-0.2767,7.489828999999999,1.2614762,9.6584015,-1
540,541,1580727417033,5.8725,1.9165,0.3199,6.959561,1.1565239999999999,10.300536,-1
541,542,1580727417043,5.2481,1.7874,1.0062,6.263835,0.87594265,11.006375,-1
542,543,1580727417053,4.593999999999999,1.3959,1.6444,5.601494000000001,0.42331403,11.439927,-1
543,544,1580727417063,3.8233,0.91359997,1.6846,4.751092400000001,-0.0739521,11.276211,-1
544,545,1580727417073,2.9665,0.4179,1.4794999,3.9810977,-0.58204955,11.158847999999999,-1
545,546,1580727417083,2.3471,0.021699998999999998,1.3728,3.409937,-0.89230937,10.949163,-1
546,547,1580727417093,1.7549,-0.2122,1.0698999,2.8676407000000004,-1.0158119,10.683464,-1
547,548,1580727417103,1.3316,-0.1609,0.9335,2.5935717,-0.90998816,10.626166,-1
548,549,1580727417114,1.2959,-0.0168,0.8851,2.730654,-0.65952593,10.414854,-1
549,550,1580727417124,1.5019,0.2192,0.60069996,2.9350805,-0.5307083,10.232109,-1
550,551,1580727417134,1.8176,0.2807,0.5516,3.2851226000000002,-0.534721,10.329592,-1
551,552,1580727417144,1.944,0.2439,0.64019996,3.0224497,-0.6607135000000001,10.32646,-1
552,553,1580727417154,1.4599999,-0.0014,0.6701,2.3305736,-1.0622209999999999,10.394656,-1
553,554,1580727417165,0.6717,-0.4355,0.6606,1.5496518999999997,-1.3885604,10.197997,-1
554,555,1580727417175,-0.009699999,-0.639,0.3665,1.0206865,-1.507284,9.823409,-1
555,556,1580727417185,-0.3507,-0.7585,0.101799995,0.89039403,-1.508414,9.704829,d
556,557,1580727417195,-0.4985,-0.65349996,-0.0742,0.895192,-1.1870931,9.331861,-1
557,558,1580727417205,-0.40019998,-0.3812,-0.42679998,1.346614,-0.95318913,9.049355,-1
558,559,1580727417215,0.065299995,-0.1537,-0.6719,1.7400292000000002,-0.67695576,8.99967,-1
559,560,1580727417226,0.4581,0.1305,-0.6818,2.2489982000000004,-0.45802036,9.080144,-1
560,561,1580727417236,1.0115,0.34199998,-0.6035,2.6168816,-0.29674694,9.194836,-1
561,562,1580727417246,1.2725999,0.47869998,-0.4761,2.4798374,-0.37429035,9.326286999999999,-1
562,563,1580727417256,1.0662999,0.363,-0.34899998,2.1364896,-0.5670427,9.345613499999999,-1
563,564,1580727417267,0.7237,0.1787,-0.3495,1.8325411,-0.69557303,9.428989,-1
564,565,1580727417277,0.4175,0.0809,-0.2419,1.5374413999999998,-0.7712873,9.607539,-1
565,566,1580727417287,0.21329999,0.029199999,-0.0846,1.4942691000000001,-0.77569264,9.703306,-1
566,567,1580727417297,0.1809,0.0431,0.0435,1.6409858,-0.6289089,9.777757000000001,-1
567,568,1580727417308,0.3541,0.23189999,0.0932,2.0240867,-0.34688154,9.836558,-1
568,569,1580727417318,0.6969,0.46089998,0.1426,2.4101279,-0.22590729999999998,9.946164999999999,-1
569,570,1580727417328,1.7949,0.8190000000000001,0.6034,3.1137836,-0.0033135752,10.30361,-1
570,571,1580727417338,1.7949,0.8190000000000001,0.6034,3.450485,0.0947242,10.693653999999999,-1
571,572,1580727417349,2.0598,0.86689997,1.4649,3.3534627,0.038010344,11.158043,-1
572,573,1580727417359,2.0598,0.86689997,1.4649,3.0154970000000003,-0.03809654,11.486652000000001,-1
573,574,1580727417369,1.6504999,0.81399995,1.8654,2.6213636,-0.17301458,11.893522,-1
574,575,1580727417379,1.1573,0.6409999999999999,2.873,2.427347,-0.23528299,12.698272,-1
575,576,1580727417389,1.1573,0.6409999999999999,2.873,2.713914,-0.096371405,13.285769,-1
576,577,1580727417401,2.2075,0.99439996,4.5385,3.7984202000000007,0.18942924,14.734329,-1
577,578,1580727417411,2.9996,1.1071,5.8803,4.257666599999999,0.20220469,15.865464999999999,-1
578,579,1580727417421,2.9894,0.89159995,6.9751,4.060269399999999,-0.12403879999999999,16.802643,-1
579,580,1580727417432,2.2886,0.1532,7.2433,2.9575669999999996,-1.0587064,16.8563,-1
580,581,1580727417442,1.138,-0.5638,6.8715,1.7589912,-1.5541049999999998,16.41909,-1
581,582,1580727417452,0.33299999999999996,-0.88659996,6.5179996,1.1680064,-1.8121042,16.169653,-1
582,583,1580727417462,0.120299995,-1.1168,6.3606,1.0658698999999998,-1.8108686999999999,16.088058,-1
583,584,1580727417472,0.2434,-0.9597,6.3016,1.2792027,-1.5290138,16.008112,-1
584,585,1580727417483,0.5793,-0.7866,6.1449,1.4795017,-1.2853128999999999,15.766872,-1
585,586,1580727417492,0.61109996,-0.66679996,5.4982,1.4216962,-1.1006719999999999,15.016060000000001,-1
586,587,1580727417502,0.667,-0.6884,4.087,1.4754506,-0.9982959000000001,13.319681,-1
587,588,1580727417512,0.7043,-0.6598,2.8146,1.3650301999999999,-0.7811130999999999,12.240461999999999,-1
588,589,1580727417522,0.5428,-0.5536,2.064,1.1377534,-0.55330956,11.689642,-1
589,590,1580727417532,0.2696,-0.44329998,1.7176,0.729111,-0.35852692,11.440798,-1
590,591,1580727417542,-0.1434,-0.4164,1.5888,0.32144552,-0.20857327,11.327131,-1
591,592,1580727417552,-0.43159997,-0.4254,1.2656,0.09708967,-0.16708654,10.939577,-1
592,593,1580727417562,-0.5331,-0.40449998,0.42409998,0.04396712,0.07857769999999999,9.799946,-1
593,594,1580727417572,-0.1891,-0.25349998,-0.573,0.54394346,0.38885665,8.856603,-1
594,595,1580727417582,0.5162,0.0148,-1.4520998999999999,1.1178528,0.70137656,8.180182,-1
595,596,1580727417593,1.3030000000000002,0.3073,-2.0273,2.0166456999999998,1.2189839,7.6731195,-1
596,597,1580727417603,2.0425,0.6755,-2.0637,2.4607892000000002,1.5606173,7.758947,-1
597,598,1580727417613,2.1746,0.82189995,-2.0904999,2.2506645,1.5806712,7.518875599999999,-1
598,599,1580727417623,1.7221999,0.5398,-2.5383,1.3937223,1.2051071000000002,6.9475617,-1
599,600,1580727417633,0.94909996,0.0876,-3.0140998,0.44510126,0.7900003999999999,6.396397,-1
600,601,1580727417643,0.057299998,-0.38819999,-3.6550998999999997,-0.4183245,0.46332592,5.547059,-1
601,602,1580727417653,-0.6581,-0.7291,-4.5597997,-0.9664626000000001,0.2577789,4.993864,-1
602,603,1580727417663,-1.3139,-1.0465,-5.072,-1.7668538,-0.007824250999999999,4.5455165,-1
603,604,1580727417673,-1.9642998999999999,-1.3425,-5.4086,-2.2876213,-0.2500217,4.1138515,-1
604,605,1580727417683,-2.1409,-1.5747,-6.0504,-2.291117,-0.40162256,3.4975839,-1
605,606,1580727417693,-1.5892998999999999,-1.5738,-6.5077,-1.4848073,-0.16738342,3.2502725,-1
606,607,1580727417703,-0.5696,-1.0717,-6.172999999999999,-0.50857633,0.39894104,3.8812594,-1
607,608,1580727417714,0.22209999,-0.61829996,-5.2915998,-0.108773366,0.691455,4.8610625,-1
608,609,1580727417724,0.16219999,-0.4746,-4.2546,-0.56158394,0.5796937,6.118277,-1
609,610,1580727417734,-0.361,-0.7294,-3.3355,-1.2799209999999999,0.18456422,6.5478926,-1
610,611,1580727417744,-1.0918,-1.0933,-3.1998,-1.9189526000000001,-0.14359464,6.503006500000001,-1
611,612,1580727417755,-1.6180999,-1.3381,-3.2689998,-2.4025812,-0.37028724,6.3194094000000005,-1
612,613,1580727417765,-2.0486999,-1.4814,-3.5923998,-2.6802132000000003,-0.37469256,5.8921779999999995,-1
613,614,1580727417775,-2.2196,-1.4771999,-3.9545999,-2.575577,-0.32832167,5.760928,-1
614,615,1580727417785,-2.0349998,-1.4132999,-3.9248998,-2.3811007,-0.25361300000000003,5.939123599999999,-1
615,616,1580727417795,-1.9379,-1.3903999,-3.7391998999999996,-2.2335796,-0.26092967,6.15215,-1
616,617,1580727417806,-1.6895,-1.3873,-3.4562,-1.779045,-0.13900736,6.624632000000001,-1
617,618,1580727417816,-1.3305,-1.2081,-3.0269999999999997,-1.4498233,0.10684843,6.9438167,-1
618,619,1580727417826,-0.9208,-0.8739,-2.6183,-0.9548747,0.43533292,7.7064085,-1
619,620,1580727417836,-0.5761,-0.6191,-1.8769,-0.8101020999999999,0.6400563,8.448917999999999,-1
620,621,1580727417847,-0.4942,-0.3784,-1.1947,-0.7813045999999999,0.8178785,8.959543,-1
621,622,1580727417857,-0.51129997,-0.1794,-0.7083,-0.83760667,0.86941123,9.317188999999999,-1
622,623,1580727417867,-0.5701,-0.13329999,-0.3978,-0.7902781,0.94554687,9.451236,-1
623,624,1580727417878,-0.5408,-0.0346,-0.3218,-0.66655535,1.0227549999999999,9.6070595,-1
624,625,1580727417888,-0.4015,0.081199996,-0.0887,-0.5079442,1.1412010000000001,9.979885000000001,-1
625,626,1580727417898,-0.24929999,0.2462,0.2819,-0.47287399999999996,1.1963731000000002,10.192767,-1
626,627,1580727417908,-0.2592,0.2809,0.42639998,-0.6118621999999999,1.1082855,10.084502,-1
627,628,1580727417919,-0.39499998,0.2031,0.31759998,-0.7334014,1.1007007,9.842984,-1
628,629,1580727417929,-0.5065,0.2145,0.060999997,-0.78587276,1.133214,9.77159,-1
629,630,1580727417939,-0.4838,0.36659998,0.0392,-0.7209228,1.2301216999999998,9.872366,-1
630,631,1580727417949,-0.2776,0.44329998,0.391,-0.49870265,1.2880517,10.234361,-1
631,632,1580727417959,-0.2776,0.44329998,0.391,-0.33243012,1.3004153999999999,10.486728,-1
632,633,1580727417970,0.0071,0.4254,0.85969996,-0.25254998,1.2303226999999999,10.640148,-1
633,634,1580727417980,-0.0047999997999999995,0.2897,0.67289996,-0.25749162,1.0919379999999999,10.455525999999999,-1
634,635,1580727417990,-0.06399999599999999,0.1618,0.48639998,-0.3221925,0.94550854,10.238008500000001,-1
635,636,1580727418000,-0.2443,0.0167,0.29979998,-0.53843683,0.77590334,10.0525255,-1
636,637,1580727418010,-0.46539998,-0.1618,0.3287,-0.72591233,0.60722697,10.148907000000001,-1
637,638,1580727418021,-0.5161,-0.2074,0.6318,-0.7529573,0.55739886,10.53623,-1
638,639,1580727418031,-0.5202,-0.2717,0.8759999999999999,-0.7961008,0.48908752,10.686472,-1
639,640,1580727418041,-0.5081,-0.3493,0.9047,-0.7111641,0.40733033,10.646556,-1
640,641,1580727418051,-0.29389998,-0.35369998,0.7571,-0.45596135,0.4403799,10.440682,-1
641,642,1580727418061,-0.1127,-0.3041,0.551,-0.2917574,0.449746,10.296868,-1
642,643,1580727418072,0.094,-0.32549998,0.44309998,-0.10121727,0.44258255,10.187482000000001,-1
643,644,1580727418082,0.14209999,-0.3092,0.345,-0.07832871,0.46768335,10.120722,-1
644,645,1580727418092,0.0928,-0.292,0.40379998,-0.16690458,0.46881342,10.240326,-1
645,646,1580727418102,-0.0919,-0.3118,0.55079997,-0.36499128,0.42872489999999996,10.377897,-1
646,647,1580727418112,-0.23529999,-0.3509,0.6389,-0.46623728,0.39147112,10.402778,-1
647,648,1580727418122,-0.3372,-0.40109998,0.57019997,-0.53904974,0.35978147,10.357258999999999,-1
648,649,1580727418133,-0.31849998,-0.4039,0.3645,-0.51578766,0.37524801,10.090172,-1
649,650,1580727418143,-0.19029999,-0.31039998,0.0805,-0.29754179999999997,0.50709194,9.677526,d
650,651,1580727418153,-0.0418,-0.22729999,-0.21319999,-0.15232868,0.63410914,9.452528,-1
651,652,1580727418163,0.13669999,-0.0743,-0.3795,-0.023434447,0.7345986,9.398966,-1
652,653,1580727418174,0.2845,0.099599995,-0.3891,0.18997511,0.9906056999999999,9.406703,-1
653,654,1580727418184,0.41009998,0.2545,-0.3694,0.21168573,1.0608612,9.408878,-1
654,655,1580727418194,0.3847,0.29009998,-0.4281,0.24038742,1.1321318,9.2651005,-1
655,656,1580727418204,0.4815,0.4017,-0.60429996,0.47515327,1.2530006,9.081868,-1
656,657,1580727418215,0.7609999999999999,0.50229996,-0.76089996,0.7464929,1.3494774,8.961497,-1
657,658,1580727418225,1.1975,0.6344,-0.898,1.415634,1.5378628,8.794928,-1
658,659,1580727418235,1.7944,0.8204,-0.98639995,2.0293252,1.8295436,8.920738,-1
659,660,1580727418245,2.3676999,1.1826999,-0.7028,2.4512892,2.1470146,9.382244,-1
660,661,1580727418255,2.6274,1.4496,-0.2338,2.4504845,2.3176349999999997,9.683683,-1
661,662,1580727418265,2.5535,1.5870999,-0.0299,2.3454653999999997,2.365519,9.821829,-1
662,663,1580727418275,2.3720999,1.7157999,0.0955,2.2169352000000004,2.652986,10.002927,-1
663,664,1580727418286,2.4445999,2.0846,0.2408,2.8735974,3.2813396,9.991646000000001,-1
664,665,1580727418296,3.23,2.7510998,0.13149999,4.0938935,3.9961333,9.638041000000001,-1
665,666,1580727418306,4.5312,3.4543998,-0.213,5.3441553,4.2988944,9.501821000000001,-1
666,667,1580727418316,6.0386,3.7210998999999996,-0.3028,6.463186299999999,4.2154803,9.532332,-1
667,668,1580727418326,6.686899700000001,3.37,-0.15779999,6.366843,3.2598493,10.142392999999998,-1
668,669,1580727418336,6.3954,2.5405,0.52599996,5.832304,2.3225672000000004,11.228566,-1
669,670,1580727418347,5.8075,1.6048,1.6409,5.086405,1.2988735,12.289178999999999,-1
670,671,1580727418357,4.9943,0.6667,2.697,4.213546,0.52410036,13.467259,-1
671,672,1580727418367,4.1654,0.0462,3.9397,3.6373480000000002,0.073214695,14.748752,-1
672,673,1580727418377,3.6352,-0.3002,5.0947,3.2898726000000003,-0.14332649,15.285004999999998,-1
673,674,1580727418387,3.3653998,-0.4028,5.5246997,3.2982332999999997,-0.13691004,15.569618,-1
674,675,1580727418397,3.4448,-0.3331,5.7985,3.5528135,-0.27243143,15.677970000000002,-1
675,676,1580727418408,3.6934998,-0.5097,5.8276,3.4199349999999997,-0.5995176999999999,15.501114999999999,-1
676,677,1580727418418,3.5878,-0.7443,5.6906,2.9556037999999996,-0.9228306999999999,15.55398,-1
677,678,1580727418428,3.1743999,-1.0558,5.7407,2.406939,-1.2619741000000002,15.572999,-1
678,679,1580727418439,2.4803,-1.4882,5.7226996,0.8823591000000001,-1.8900307,15.423668,-1
679,680,1580727418449,1.222,-2.0465,5.6169,-0.71475536,-2.6117005,15.794348000000001,-1
680,681,1580727418459,-0.3168,-2.7989,5.9918,-2.1586312999999997,-3.2508852000000004,16.022007000000002,-1
681,682,1580727418469,-3.0073,-4.3096,5.9084,-3.4333522000000003,-3.9770277000000003,15.714094000000001,-1
682,683,1580727418480,-4.3476,-5.0568,5.5594,-5.0426197,-4.7715197,15.321282,-1
683,684,1580727418490,-5.6273,-5.7429,5.4083,-6.094019,-5.232729,15.204799,-1
684,685,1580727418500,-6.665499700000001,-6.131,5.2102,-7.19675,-5.5428543,14.990182999999998,-1
685,686,1580727418510,-6.665499700000001,-6.131,5.2102,-7.7697115000000005,-5.6638293,14.775701500000002,-1
686,687,1580727418520,-7.5534,-6.4544,4.8311996,-8.264593,-5.687704,14.592191,-1
687,688,1580727418530,-8.1556,-6.6013,4.0238,-9.052667999999999,-5.7188669999999995,13.591585999999998,-1
688,689,1580727418541,-8.4892,-6.6124,3.1613,-9.452146,-5.5380087,12.709878,-1
689,690,1580727418551,-9.0244,-6.529,2.0377998,-10.074292999999999,-5.3434563,11.467125,-1
690,691,1580727418561,-9.0244,-6.529,2.0377998,-10.374459,-5.1525903,10.451993,-1
691,692,1580727418571,-9.3976,-6.2946,-0.4112,-10.475992,-4.7850995,9.226573,-1
692,693,1580727418581,-9.245999000000001,-6.1577997,-1.5408,-10.376327,-4.458396,8.062446000000001,-1
693,694,1580727418591,-9.094999000000001,-6.0299,-2.6076,-10.253542,-4.07495,6.77787,-1
694,695,1580727418602,-8.8664,-5.7892,-3.3184998,-10.039969000000001,-3.5277317000000004,5.880389,-1
695,696,1580727418611,-8.6137,-5.4957,-4.1252,-9.829185,-3.1484997000000003,5.189662,-1
696,697,1580727418621,-8.107999999999999,-5.1615,-4.8417997,-9.320704,-2.618213,4.441675,-1
697,698,1580727418631,-7.5234,-4.6122,-5.5965,-8.711217,-1.8675731,3.61489,-1
698,699,1580727418641,-6.571399700000001,-4.0063,-6.3013997,-7.6397924,-1.0814992,2.8872445,-1
699,700,1580727418652,-5.2381997,-3.4736998,-7.1425996,-6.2434845,-0.41067263,1.9034,-1
700,701,1580727418662,-4.0488,-3.1834,-8.1489,-5.2483773000000005,-0.046552856,1.0701315,-1
701,702,1580727418672,-3.2772,-3.05,-8.6053,-4.2161800000000005,0.3769814,0.47558424,-1
702,703,1580727418682,-3.2772,-3.05,-8.6053,-4.182785,0.37605247,0.43203850000000005,-1
703,704,1580727418692,-3.4822,-3.4996998,-8.874499,-4.306364,0.1932025,0.18565598,-1
704,705,1580727418703,-3.5424,-3.8177,-8.6343,-4.176838,-0.035204343,0.49998593,-1
705,706,1580727418713,-3.3873,-3.9194998999999995,-8.3635,-3.5607622,0.12577221,0.6341378000000001,-1
706,707,1580727418723,-2.6799,-3.7923,-8.364699,-2.6321567999999997,0.31065246,0.5747616,-1
707,708,1580727418733,-1.4583,-3.6281,-8.3129,-0.9375694,0.6175029000000001,0.6261507,-1
708,709,1580727418743,-0.1024,-3.3525,-8.2948,0.6666989999999999,0.9935937,0.5748861,-1
709,710,1580727418753,1.3391,-3.0454,-8.358399,2.1953009999999997,1.2083057,0.5653189000000001,-1
710,711,1580727418764,1.3391,-3.0454,-8.358399,2.4625895,1.2542839,0.5824901,-1
711,712,1580727418774,3.6687999,-2.3918998,-8.1774,3.9292107000000005,1.7879037,0.70202786,-1
712,713,1580727418785,4.875,-1.7562,-7.9551997000000005,5.7363443,2.6612797,0.9853193000000001,-1
713,714,1580727418796,5.7084,-1.1919,-7.7981,6.467552700000001,3.0615904,1.2148371,-1
714,715,1580727418806,5.989,-0.99869996,-7.7035,6.5015025,2.806809,1.2107763999999999,-1
715,716,1580727418816,5.7036,-1.3181,-7.6594996,6.719701,2.2770197,1.3752582,-1
716,717,1580727418827,5.9804,-1.8139,-7.5692997,7.312514999999999,1.7803667,1.3336853000000002,-1
717,718,1580727418837,6.3743,-2.1561,-7.6323,7.4616637,1.6102347,1.7721689999999999,-1
718,719,1580727418847,6.3827996,-2.1584,-7.2257,7.748805,1.8914193,2.525988,-1
719,720,1580727418858,6.6727,-1.5907999,-6.3213,8.462785,2.677493,3.414831,-1
720,721,1580727418868,7.4856997000000005,-0.6759,-5.5327997,10.128871,3.2390387,4.1645794,-1
721,722,1580727418878,8.8684,-0.0589,-5.003,11.995956,3.7006984,4.630433999999999,-1
722,723,1580727418888,10.695399,0.57949996,-4.5926,13.162698,3.9484312999999993,5.4858246,-1
723,724,1580727418900,12.751599,1.4129,-2.6336,14.122352,4.1308312,6.946422,-1
724,725,1580727418911,12.751599,1.4129,-2.6336,14.077620000000001,4.16186,7.840685000000001,-1
725,726,1580727418921,11.9718,1.8069998999999999,1.0877,13.225809,4.013774,10.567853999999999,-1
726,727,1580727418931,11.3538,1.9520998999999999,3.2677999,12.5845375,3.9210224,12.811249,-1
727,728,1580727418941,11.933599000000001,2.1826,5.4283,13.432084,3.8700836000000005,15.761853,-1
728,729,1580727418952,12.4754,2.2199,7.0087,13.787557000000001,3.6920697999999996,16.886717,-1
729,730,1580727418962,12.884299,2.1604,8.143599499999999,14.105812,3.4161332000000004,18.207167000000002,-1
730,731,1580727418973,12.8845,2.1508,9.097000000000001,13.962975,3.2350838,19.15505,-1
731,732,1580727418983,12.6866,2.0427,10.0255995,13.409329999999999,2.844273,20.277948000000002,-1
732,733,1580727418994,12.0089,1.7843,10.939199,12.831436,2.5283248,20.86086,-1
733,734,1580727419005,10.7576,1.1968,11.9946995,11.212553999999999,1.6103305,22.199278,-1
734,735,1580727419015,10.7576,1.1968,11.9946995,10.428252,1.0688386,22.757442,-1
735,736,1580727419025,8.2516,-0.5974,13.255899,8.663264999999999,-0.4120804,22.85957,-1
736,737,1580727419035,6.7296996,-1.7829,12.7638,5.8750067,-2.2879758,21.881443,-1
737,738,1580727419045,4.4844,-3.2015,11.9389,3.4605312000000006,-3.55493,21.059379999999997,-1
738,739,1580727419055,2.1111,-4.4096,11.1626,1.5689683,-4.1213403,20.599339,-1
739,740,1580727419066,-0.1401,-5.0291,10.7198,-0.5171284,-4.456299,20.456022,-1
740,741,1580727419077,-1.8779999,-5.3251,10.7095995,-2.271178,-4.585586,20.37227,-1
741,742,1580727419087,-3.1269999,-5.4477,10.5545,-3.2039782999999997,-4.479216,19.84931,-1
742,743,1580727419098,-3.9257,-5.3826,9.931399,-3.9828982,-4.166457,18.495275,-1
743,744,1580727419108,-4.4997,-5.240999700000001,8.753099,-4.2483379999999995,-3.9352632000000005,17.202282,-1
744,745,1580727419118,-4.7107,-5.0801997000000005,7.1573997,-4.0646935,-3.5366572999999994,15.96606,-1
745,746,1580727419128,-4.3921,-4.8038,6.1049,-3.8961322,-3.1239254,15.157796,-1
746,747,1580727419139,-4.2172,-4.6285,5.4575,-4.0132184,-3.0780717999999996,14.748589,-1
747,748,1580727419149,-4.3557,-4.7395,5.0089999999999995,-4.704884,-3.1227857999999995,14.428934,-1
748,749,1580727419159,-6.0102997,-5.0674996,3.9873,-5.941288,-3.1023014,13.602772,-1
749,750,1580727419170,-6.7434997999999995,-5.1947,2.8481998,-6.8961535000000005,-3.032946,12.1477,-1
750,751,1580727419180,-7.0642996,-5.2285,1.2758,-7.193542,-2.8970609,10.809495,-1
751,752,1580727419190,-6.9213,-5.0702,-0.56229997,-7.086243,-2.4049566,8.531958,-1
752,753,1580727419200,-6.4954,-4.7040997,-2.0791,-6.621998,-1.7340915000000001,6.878139,-1
753,754,1580727419210,-5.7528996,-4.1977997,-3.3852,-5.9522343,-1.0536402,5.6021543,-1
754,755,1580727419221,-5.1492,-3.7991998,-4.4732,-5.4575157,-0.47186843,4.46307,-1
755,756,1580727419231,-4.8108,-3.5268998,-5.5597997,-5.3478136,-0.17575355,3.6451337,-1
756,757,1580727419241,-4.8494,-3.3809998,-6.4497,-5.486342,0.23503400000000002,2.5359863999999996,-1
757,758,1580727419251,-4.9659,-3.1557999,-7.0752997,-5.704157,0.7154449,1.674993,-1
758,759,1580727419262,-5.0915,-2.9698,-7.7998,-5.8627199999999995,1.0055169,0.8825985000000001,-1
759,760,1580727419272,-5.1345,-2.8209999,-8.4482,-5.8535933,1.3418733999999999,0.22379082,-1
760,761,1580727419283,-4.8697,-2.5128,-9.0898,-5.472934700000001,1.8445792,-0.58874375,-1
761,762,1580727419293,-4.1616,-2.1945999,-9.9403,-4.491177599999999,2.2851220000000003,-1.5146295,-1
762,763,1580727419303,-2.7168,-1.719,-10.7554,-2.986786,2.920514,-2.364954,-1
763,764,1580727419313,-1.3798,-1.2232,-11.5454,-1.9318813000000001,3.3999580000000003,-3.1576264,-1
764,765,1580727419323,-0.9041,-1.1082,-12.125,-1.8187697,3.4865036,-3.7266612,-1
765,766,1580727419334,-1.1577,-1.2542,-12.6719,-2.2890099999999998,3.3232,-4.550918,-1
766,767,1580727419344,-1.6369,-1.4724,-13.383598999999998,-2.9683504000000003,3.068457,-5.241942,-1
767,768,1580727419354,-2.4174,-1.8261,-13.9593,-3.5956216,2.7766995,-5.576517,-1
768,769,1580727419365,-2.9593,-2.2705998,-14.275,-3.896228,2.240829,-5.869864499999999,-1
769,770,1580727419375,-2.8639,-2.6869,-14.370999,-3.2733908,1.9510923999999998,-5.564479,-1
770,771,1580727419385,-2.2251,-2.753,-14.040899,-2.4023805,1.9417838,-5.285315,-1
771,772,1580727419396,-1.3105999,-2.7484,-13.850698999999999,-1.7008313000000002,1.6585113999999999,-5.296376,-1
772,773,1580727419406,-0.7958,-2.9898,-13.9548,-1.8574598999999998,1.2651056999999999,-5.349719,-1
773,774,1580727419416,-1.0696,-3.2587,-14.000798999999999,-2.0402813,0.9807991,-5.055098,-1
774,775,1580727419426,-1.2427,-3.4643998,-13.6655,-2.3538642000000003,0.43870395,-4.085188,-1
775,776,1580727419436,-1.6660999,-3.8560998,-12.691299,-2.80429,-0.12659581,-3.1459427000000004,-1
776,777,1580727419447,-2.2128,-4.5497,-11.5153,-2.8052766,-1.2926773999999999,-1.7457752,-1
777,778,1580727419457,-2.0774999,-5.311899700000001,-10.5632,-2.3422282,-2.1533162999999997,-0.73214686,-1
778,779,1580727419468,-1.8514999,-5.8415,-9.7932,-2.4630685000000003,-2.6546333,-0.42697236,-1
779,780,1580727419478,-2.1399999,-6.324,-9.590199,-2.3793863999999996,-3.6100347000000004,-0.99887055,-1
780,781,1580727419488,-1.5521,-7.2351,-10.1635,-1.7042598000000002,-4.1119747,-0.8842553,-1
781,782,1580727419499,-1.5521,-7.2351,-10.1635,-1.3027617,-4.426343,0.41307643,-1
782,783,1580727419509,-0.6225,-7.4997997000000005,-6.4778,-0.55700624,-4.9238195,2.996152,-1
783,784,1580727419519,-0.6225,-7.4997997000000005,-6.4778,-0.42422380000000004,-5.6326275,5.65294,-1
784,785,1580727419529,-0.62689996,-7.915199799999999,-3.8853,-0.44955447,-6.567046,7.3573437,-1
785,786,1580727419539,-0.7815,-8.7677,-1.9064,0.27586952,-7.468837,8.489552,-1
786,787,1580727419549,1.3202,-8.951099000000001,-0.63629997,2.4562209999999998,-7.5031023,9.318194,-1
787,788,1580727419559,3.0856,-8.1772995,1.3612,4.2423434,-6.934575,11.710222,-1
788,789,1580727419570,3.0856,-8.1772995,1.3612,5.2118416,-6.21167,14.68564,-1
789,790,1580727419580,4.8725,-6.0074,8.6432,5.8131413,-5.685271299999999,18.954063,-1
790,791,1580727419590,4.8725,-6.0074,8.6432,4.7853103,-6.0267515,20.477512,-1
791,792,1580727419600,2.7136998,-6.2105,10.9487,3.4953237,-6.97635,20.6036,-1
792,793,1580727419610,2.3355,-6.758599799999999,10.166699000000001,3.4201076,-7.481708,19.893507,-1
793,794,1580727419620,2.6711,-5.8905,8.8211,3.8236456,-6.839592999999999,18.526669000000002,-1
794,795,1580727419630,4.2288,-4.023,8.695499,5.9128356,-4.8431253,18.499277,-1
795,796,1580727419640,6.495899700000001,-2.1002,9.7815,8.016697,-3.2499661,19.760122,-1
796,797,1580727419651,7.3542,-0.76589996,11.8649,8.541133,-2.4333517999999996,21.908314,-1
797,798,1580727419661,6.8009996,-0.6875,13.8278,7.613217,-2.8605826000000003,23.584870000000002,-1
798,799,1580727419671,4.6926,-1.3215,14.312999999999999,5.7834625,-3.6050072,23.802225,-1
799,800,1580727419681,2.3844,-2.1187,13.7562,3.086691,-4.8189917,23.065557000000002,-1
800,801,1580727419691,1.1532,-2.6287,13.1157,1.9815755000000002,-5.342939,22.312292000000003,-1
801,802,1580727419701,0.86329997,-2.322,12.292299,2.0869107,-5.01093,21.585339,-1
802,803,1580727419712,2.2326,-1.1248,12.3173,3.4767928,-3.7594905,21.624218,-1
803,804,1580727419721,3.4101998999999994,0.20549999,12.347899,4.7033515,-2.538687,21.557564000000003,-1
804,805,1580727419731,4.1061997,0.92329997,11.9416,5.080533999999999,-2.1213968,21.016092,-1
805,806,1580727419741,4.2871,1.4147999,10.8024,5.128016000000001,-1.7987447,20.053757,-1
806,807,1580727419751,3.8242,1.5275999,9.1939,4.598246,-1.7321092,18.432299,-1
807,808,1580727419761,2.9891999,1.4183999,7.7149997,3.5411007000000003,-1.8765849,16.669563,-1
808,809,1580727419771,2.1898,1.3938999,6.337000000000001,2.8717492,-1.870743,15.573113000000001,-1
809,810,1580727419781,1.4004999,1.3702999,4.8749,1.8826948000000001,-1.8890538000000001,13.837307999999998,-1
810,811,1580727419792,0.62079996,1.3033999,3.4187,1.0993983999999999,-1.8843229,12.406198,-1
811,812,1580727419802,0.093499996,1.3657,2.1667,0.61436176,-1.7916003,11.145764999999999,-1
812,813,1580727419813,0.0079,1.3131,1.5734999,0.6266775,-1.7655705000000002,10.810539,-1
813,814,1580727419823,0.1496,1.4409999999999998,1.4850999,0.79228926,-1.6366187,10.810951,-1
814,815,1580727419833,0.4933,1.3246,1.6085,1.132965,-1.8616066999999998,10.886913999999999,-1
815,816,1580727419843,0.7148,1.1462,1.4815999,1.4449581,-1.9338733000000001,10.806861,-1
816,817,1580727419853,0.7148,1.1462,1.4815999,1.7914567,-1.9322741,10.943522,-1
817,818,1580727419863,1.2924,1.1711999,1.6414,2.109943,-1.9533142,11.1656275,-1
818,819,1580727419873,1.6724,1.1359,1.8995999,1.9528353999999999,-2.2485385,11.156587,d
819,820,1580727419884,0.6839,0.4447,1.3482,1.1485655000000001,-2.669353,10.649706,-1
820,821,1580727419894,-0.1994,-0.055,0.83239996,-0.03959052,-3.3134985,9.958002,-1
821,822,1580727419904,-0.8928,-0.4226,0.4231,-0.6142755,-3.532453,9.657760000000001,-1
822,823,1580727419915,-1.0846,-0.46469998,0.3872,-0.44452664,-3.4918379999999996,9.803778,-1
823,824,1580727419925,-0.80649996,-0.4301,0.5299,-0.029113494,-3.3316562000000007,9.818897999999999,-1
824,825,1580727419935,-0.46719998,-0.2608,0.4488,0.31700188,-3.222289,9.673619,-1
825,826,1580727419945,-0.059000000000000004,-0.1841,0.3787,0.82484084,-3.0563613999999997,9.882039,-1
826,827,1580727419955,0.67829996,0.1129,0.6434,1.6718903000000003,-2.6476712000000004,10.053281,-1
827,828,1580727419965,1.3019999,0.42949998,0.7215,1.8063676,-2.5190449,9.947333,-1
828,829,1580727419975,1.3273,0.51629996,0.5434,1.5070158,-2.5910914000000003,9.679575,-1
829,830,1580727419985,0.88519996,0.361,0.24569999,1.0198629000000001,-2.6699946,9.497156,-1
830,831,1580727419995,0.2857,0.26839998,0.0643,0.41207084,-2.8177263999999997,9.3402405,-1
831,832,1580727420005,-0.0866,0.1231,-0.0198,0.17737204,-2.9440827,9.2657995,-1
832,833,1580727420015,-0.2764,-0.0133,-0.1041,0.1477031,-2.9662435,9.288909,-1
833,834,1580727420026,-0.1506,0.0,-0.011000000000000001,0.42003876,-2.9199014,9.454827,-1
834,835,1580727420036,0.1563,0.0372,0.1714,0.7655604,-2.8553919999999997,9.667603999999999,-1
835,836,1580727420046,0.53499997,0.096499994,0.4428,1.3089674999999998,-2.776393,10.1475935,-1
836,837,1580727420056,1.0404,0.1848,0.87109995,1.7935348000000002,-2.506825,10.519452000000001,-1
837,838,1580727420066,1.4647,0.4558,1.2002,1.8543188999999998,-2.3436074000000002,10.703719,-1
838,839,1580727420076,1.4552,0.5358,1.3514999,1.5883614,-2.4412045,10.707187,-1
839,840,1580727420087,1.0991,0.39589998,1.2958,1.1572421999999998,-2.5514433,10.693491,-1
840,841,1580727420097,0.57409996,0.2453,1.3773,0.78018415,-2.7779539,11.018988,-1
841,842,1580727420107,0.35259998,0.0,1.6755999,0.6195715,-2.9636388,11.326404,-1
842,843,1580727420117,0.21229999,-0.18100000000000002,2.0441,0.5923829,-2.9813845000000003,11.964984,-1
843,844,1580727420127,0.2647,-0.1068,3.0428998,1.0587733999999998,-2.6725993,13.56954,-1
844,845,1580727420138,0.8337,0.2113,4.456,1.7064241999999998,-2.3247218,14.638933999999999,-1
845,846,1580727420148,1.6729,0.7069,5.6828,2.6160482999999997,-1.6674369999999998,15.7171,-1
846,847,1580727420158,2.3671,1.2441,6.4365997,2.979632,-1.3556162,16.2625,-1
847,848,1580727420168,2.4508997999999997,1.2378,7.3371997,2.769239,-1.5364071000000001,16.748829999999998,-1
848,849,1580727420178,2.4508997999999997,1.2378,7.3371997,2.36708,-1.8112709999999999,17.229748,-1
849,850,1580727420189,1.6364,0.7301,8.152699,1.4170513999999999,-2.2400534,17.969603,-1
850,851,1580727420199,0.21579999,0.16679999,9.1036,-0.60725576,-3.2094560000000003,19.465387,-1
851,852,1580727420209,-2.3156,-1.2379,11.099299,-2.185571,-3.9018307,20.598285999999998,-1
852,853,1580727420220,-2.3156,-1.2379,11.099299,-2.2698755,-4.0443620000000005,20.364437,-1
853,854,1580727420230,-2.2126,-1.5242,9.906199,-1.9856262999999998,-3.873464,19.435085,-1
854,855,1580727420241,-1.9997,-1.6889,8.7677,-1.9035243999999998,-3.9825056000000005,17.715073,-1
855,856,1580727420251,-2.2468998,-2.1692,7.0885,-2.2677207000000004,-4.2325654,16.350157,-1
856,857,1580727420261,-2.7198,-2.6596,5.3315,-2.8334707999999997,-4.4936676,14.642814000000001,-1
857,858,1580727420271,-3.1357,-2.9796999,3.5967,-3.296442,-4.5517125,12.959307,-1
858,859,1580727420281,-3.2661998,-3.0458998999999998,2.0821,-3.4112108,-4.3156924000000005,11.539104,-1
859,860,1580727420291,-2.8727999,-2.7837,0.8082,-2.9557283,-3.7831930000000003,10.3368025,-1
860,861,1580727420302,-2.8727999,-2.7837,0.8082,-2.5067866000000003,-3.3383982000000003,9.815317,-1
861,862,1580727420313,-1.3822,-1.7146,-0.5934,-1.6791398999999998,-2.3538353,9.199116,-1
862,863,1580727420323,-1.1978999,-1.3758999,-0.77059996,-1.5209883,-1.8032552,9.035698,-1
863,864,1580727420333,-1.1553999,-1.2024,-1.1194998999999999,-1.5021125,-1.4293575,8.686728500000001,-1
864,865,1580727420343,-0.5822,-0.9967,-1.7491,-0.756788,-0.7768993000000001,7.723848299999999,-1
865,866,1580727420353,-0.1999,-0.5561,-2.6694,-0.4591217000000001,-0.21597615,6.819519500000001,-1
866,867,1580727420364,0.11800000000000001,-0.3384,-3.6648998,-0.10171527,0.20572896,5.6844954,-1
867,868,1580727420374,0.3242,-0.050899997,-4.5986,0.12239160000000002,0.84000087,4.9684186,-1
868,869,1580727420384,0.4386,0.24249999,-4.8739,0.14769351,1.024364,4.855326,-1
869,870,1580727420394,0.32439998,0.1379,-5.0804996,0.018435352,0.8904515,4.3251066,-1
870,871,1580727420405,0.1997,-0.1026,-5.6215997,0.08013872,0.8345421000000001,4.320021,-1
871,872,1580727420415,0.2956,-0.1445,-5.2727,0.011214441,0.93311614,5.551148,-1
872,873,1580727420425,0.1919,-0.094299994,-3.8381,-0.21342870000000003,0.84897435,7.131446,-1
873,874,1580727420435,-0.1585,-0.2847,-1.9842,-0.4745978,0.59776515,8.576855,-1
874,875,1580727420446,-0.1718,-0.4265,-1.0519,0.067497335,0.76691073,9.039241,-1
875,876,1580727420456,0.6805,-0.1266,-0.6277,1.0690684,1.1442081,8.856459,-1
876,877,1580727420466,1.3406,0.0592,-1.0833,1.2050303999999998,1.0865079,7.5752254,-1
877,878,1580727420476,1.4294,-0.1381,-2.4874,1.3055774,0.9274754000000001,6.3822904000000005,-1
878,879,1580727420486,1.5309,-0.3901,-3.8702,1.0475016,0.6624085999999999,5.079193599999999,-1
879,880,1580727420497,1.1534,-0.7423,-4.7924,0.47201207,0.21796812,4.6569709999999995,-1
880,881,1580727420507,0.39299998,-1.411,-5.1177998,-0.714516,-0.5665064000000001,4.772975,-1
881,882,1580727420517,-0.59419996,-2.0691,-4.8768,-2.0274099999999997,-1.1999643999999998,5.1633735,-1
882,883,1580727420527,-1.6414,-2.6011,-4.5397997000000005,-2.1507497000000004,-1.4437419,5.4813523,-1
883,884,1580727420537,-1.6356,-2.8369999999999997,-4.0863,-1.5031947,-0.96718085,6.312035,-1
884,885,1580727420548,-1.0088999,-2.3539,-3.3881,-0.8297824,-0.4693593,6.56084,-1
885,886,1580727420558,-0.2944,-1.8683,-3.1403,0.17335936,0.04384262,6.4864097,-1
886,887,1580727420568,0.7025,-1.4017998999999999,-3.2045999,0.9696804,0.4514315,6.3900094,-1
887,888,1580727420578,1.484,-1.0364,-3.2963998,1.3508468999999999,0.6716789000000001,6.1033278,-1
888,889,1580727420590,1.8768,-0.8282,-3.6803,1.4531655,0.96652967,5.383343,-1
889,890,1580727420600,1.8700999,-0.6734,-4.2875,1.1077588,0.90898263,4.8117323,-1
890,891,1580727420610,0.2034,-1.3338,-5.4038997,-0.37022978,0.36316207,4.210242299999999,-1
891,892,1580727420620,-0.7547,-1.685,-5.250499700000001,-1.2176718999999998,0.09174581,4.5093927,-1
892,893,1580727420631,-1.2332,-1.8159999999999998,-4.5618,-1.5980722,-0.029764716,5.228371599999999,-1
893,894,1580727420641,-1.1631,-1.8533,-3.8758998,-1.3689375,-0.008130709,5.8982019999999995,-1
894,895,1580727420651,-0.4613,-1.4115,-3.133,-0.4658446,0.6084337,6.834335,-1
895,896,1580727420662,0.24689999,-0.9148,-2.3618,0.22700863,0.9926360000000001,7.5578628,-1
896,897,1580727420673,0.8269,-0.68119997,-1.7478,0.81368387,1.1785027,8.155063,-1
897,898,1580727420682,1.3258,-0.4016,-0.9959,1.2120407,1.4062008,9.070721,-1
898,899,1580727420692,1.466,-0.34309998,0.0412,1.1164353999999999,1.3924773000000001,9.987374,-1
899,900,1580727420702,0.90209997,-0.4249,0.5706,0.4762929,1.3050601000000002,10.280788000000001,-1
900,901,1580727420713,0.24499999,-0.5428,0.505,-0.083212875,1.2082386,9.925163000000001,-1
901,902,1580727420723,-0.1935,-0.5845,-0.21519999,-0.38157827,1.2223645,9.116316000000001,-1
902,903,1580727420733,-0.3866,-0.62799996,-0.96419996,-0.5465675,1.1963059999999999,8.448821,-1
903,904,1580727420743,-0.5399,-0.69369996,-1.4298999,-0.6249345000000001,1.1542255,8.108127,-1
904,905,1580727420753,-0.4024,-0.71819997,-1.4958,-0.30909142,1.2488252,8.295555,-1
905,906,1580727420763,-0.018000000000000002,-0.4455,-1.0149,0.105593875,1.5500156999999999,8.887564999999999,-1
906,907,1580727420773,0.32999998,-0.2021,-0.36929998,0.49908572,1.8413517,9.492119,-1
907,908,1580727420784,0.5944,0.103999995,-0.1166,0.6970000000000001,2.0659664,9.508294,-1
908,909,1580727420794,0.7833,0.2616,-0.14800000000000002,0.7818601,2.1947360000000002,9.448449,-1
909,910,1580727420804,0.8494,0.3755,-0.20799999,0.8820909,2.2510380000000003,9.481336,-1
910,911,1580727420814,0.9259,0.3963,-0.1004,0.9146521000000001,2.2392297,9.588319,-1
911,912,1580727420824,0.8068,0.3843,0.105799995,0.69659775,2.2356863,9.896585,-1
912,913,1580727420834,0.585,0.3603,0.3224,0.5025429,2.1364514999999997,10.05899,-1
913,914,1580727420844,0.29659998,0.19909999,0.4606,0.18780118,1.9880779999999998,10.113328,-1
914,915,1580727420855,-0.097399995,0.0316,0.353,-0.21011515,1.7844081000000003,9.770901,-1
915,916,1580727420865,-0.2899,-0.1019,-0.0596,-0.12992854,1.7864672,9.332732,-1
916,917,1580727420876,-0.1205,-0.034399997,-0.3162,-0.021691468,1.8436023000000001,9.332081,-1
917,918,1580727420886,0.047599997000000005,0.085999995,-0.2402,0.3412695,2.003602,9.577353,-1
918,919,1580727420898,0.3787,0.2086,-0.0077,0.6535595999999999,2.1436245,9.940256,-1
919,920,1580727420908,0.6271,0.3308,0.2837,0.6264764,2.0448399,10.042862,-1
920,921,1580727420918,0.5981,0.2572,0.38889998,0.31705937,1.8342937,9.955866,-1
921,922,1580727420928,-0.091699995,-0.097399995,-0.022499999,-0.06874232,1.6989063999999998,9.628061,-1
922,923,1580727420939,-0.091699995,-0.097399995,-0.022499999,-0.34250492,1.6067008999999999,9.344292,-1
923,924,1580727420949,-0.3813,-0.19319999,-0.3055,-0.5031558,1.523172,9.27575,-1
924,925,1580727420960,-0.5815,-0.2662,-0.36339998,-0.58147496,1.5489144,9.313636,d
925,926,1580727420971,-0.4161,-0.1652,-0.0519,-0.29662243,1.6388790000000002,9.678168,-1
926,927,1580727420981,-0.19219999,-0.0931,0.2692,-0.08398859,1.7130896,9.970394,-1
927,928,1580727420991,-0.19219999,-0.0931,0.2692,0.04109408,1.8288061999999998,10.095592,-1
928,929,1580727421001,0.1599,0.26659998,0.4134,0.27147377,2.0512943,10.023966999999999,-1
929,930,1580727421011,0.0358,0.2581,0.0797,0.06933608,1.985253,9.657204,-1
930,931,1580727421022,-0.1643,0.0823,-0.2243,-0.12649046,1.7975858,9.433451,-1
931,932,1580727421032,-0.3166,-0.0409,-0.1171,-0.31320947,1.6723787,9.684747,-1
932,933,1580727421042,-0.5920000000000001,-0.1521,0.2838,-0.5513559,1.5781142,10.036302000000001,-1
933,934,1580727421052,-0.8459,-0.2846,0.6853,-0.6906314,1.465376,10.331536,-1
934,935,1580727421062,-0.6362,-0.2365,0.42100000000000004,-0.41186014,1.5425075000000001,9.983342,-1
935,936,1580727421072,-0.0991,-0.0374,0.0894,0.34007242,1.8503253,9.725659,-1
936,937,1580727421083,0.44189999,0.2321,0.2382,0.86408657,2.0479426,10.073239,-1
937,938,1580727421092,0.8247,0.39069998,0.7881,1.1495999,2.1938741000000004,10.580283999999999,-1
938,939,1580727421102,0.9536,0.5162,1.5625,1.3061328,2.2541792000000003,11.612003,-1
939,940,1580727421112,0.9543,0.525,2.6115,1.3272973999999997,2.328361,12.669569000000001,-1
940,941,1580727421122,1.0953,0.6529,3.4663,1.6696779999999998,2.4856696,13.278367000000001,-1
941,942,1580727421132,1.7500999,1.0181999,3.5695998999999996,2.5859005,2.948488,12.989866000000001,-1
942,943,1580727421143,2.758,1.3932999,2.9413998,3.5974699999999995,3.2770395,12.325188,-1
943,944,1580727421153,3.7821998999999997,1.5235,2.1876,4.6639724000000005,3.3590459999999998,11.605681,-1
944,945,1580727421163,4.4458,1.4508,1.8642999,5.186281,3.2972467000000005,11.567079,-1
945,946,1580727421173,4.7183,1.2796,2.3135998,5.3324523,3.0580564,12.481683,-1
946,947,1580727421183,4.7096,0.988,3.3204,5.3824816,2.8508334,13.414855,-1
947,948,1580727421193,4.9319,0.7321,4.5048,5.6695843,2.6630132,14.301046,-1
948,949,1580727421203,5.4709997,0.6089,5.2613997,6.4872713,2.7337472000000003,14.766488,-1
949,950,1580727421214,6.1025,0.7418,4.9139,7.135554300000001,2.8579779,14.065284,-1
950,951,1580727421224,6.9616,0.70129997,3.8047,7.935571700000001,2.8509676,12.856959,-1
951,952,1580727421234,7.5930995999999995,0.53249997,2.6002,8.673436,2.6421642000000003,11.565182,-1
952,953,1580727421244,8.1468,0.20979999,1.81,9.016353,2.5000348,11.198830000000001,-1
953,954,1580727421254,8.3554,-0.1347,1.7571,8.929252,2.0491877,11.400748,-1
954,955,1580727421264,7.9726,-0.7227,2.0476,8.237528,1.4026957,11.488318,-1
955,956,1580727421274,7.157099700000001,-1.5164,1.8866999,7.451445,0.8264593000000001,11.020415,-1
956,957,1580727421284,6.1664996,-2.3229,1.0593,6.320069999999999,0.14689864,9.874808,-1
957,958,1580727421294,5.4119,-2.8213,0.11669999,5.786728,-0.039370254,9.116843,-1
958,959,1580727421304,4.9723,-2.9647,-0.871,5.433487400000001,0.01634761,7.8413935,-1
959,960,1580727421314,4.7981,-3.0356,-1.9236,5.06163,0.12743858,6.5573354,-1
960,961,1580727421324,4.4604,-3.0419,-3.3948,4.835694,0.27207708,4.7764997000000005,-1
961,962,1580727421335,4.4161997,-3.0017998,-5.2158,4.755823,0.3926395,2.9923594,-1
962,963,1580727421345,4.2668,-3.0665,-6.7021,4.282173,0.32497936,2.036891,-1
963,964,1580727421355,3.6611,-3.3242998,-7.2496,3.2615635,-0.10923305,1.6137398,-1
964,965,1580727421366,2.7749999,-3.8565998,-7.5484,1.9303203000000002,-0.6740923000000001,1.3707091999999998,-1
965,966,1580727421376,1.4178,-4.4985,-7.7752,0.5038837,-1.2379171999999998,1.1937872,-1
966,967,1580727421386,0.0563,-5.1273,-7.9083996,-1.1698548999999998,-1.5964154,0.84247166,-1
967,968,1580727421396,-1.6430999,-5.4066997,-8.3376,-2.8830307,-1.4014412,0.0044053313,-1
968,969,1580727421407,-3.1439998,-5.2718997000000005,-9.169,-3.6322050000000004,-1.4260631000000001,-0.7400956,-1
969,970,1580727421417,-3.9543,-5.2665997,-10.1504,-4.6350117,-1.1149702,-1.9742970000000002,-1
970,971,1580727421427,-4.7342997,-5.0304,-11.0694,-5.3450937000000005,-0.9104766,-2.6053509999999998,-1
971,972,1580727421437,-5.3599997,-4.8178,-11.6854,-5.69638,-0.7244567,-2.9470131,-1
972,973,1580727421448,-5.5548,-4.6337,-11.892699,-5.9999075,-0.7257111999999999,-2.3510392,-1
973,974,1580727421459,-6.5955997,-4.6099,-10.165899000000001,-7.130124,-0.88352746,-0.8506982,-1
974,975,1580727421470,-8.0645,-4.8529,-8.8821,-8.740551,-1.2495433999999999,0.42563158,-1
975,976,1580727421480,-9.7079,-5.2995996,-8.0727,-10.339235,-1.8624113000000002,1.1638885,-1
976,977,1580727421490,-9.7079,-5.2995996,-8.0727,-11.309135000000001,-2.4014704,1.5624082000000001,-1
977,978,1580727421500,-11.910999,-6.3027997000000004,-7.1194,-12.438711,-3.1107097,2.2523406,-1
978,979,1580727421510,-12.2232,-6.6537,-6.4648,-12.710932000000001,-3.6332873999999995,3.0512377999999996,-1
979,980,1580727421521,-12.2348995,-6.7598,-5.664,-12.600377,-3.7379043,3.962624,-1
980,981,1580727421531,-11.8884,-6.337999999999999,-4.6672997,-12.149616,-3.3297790999999997,5.0141287000000005,-1
981,982,1580727421542,-11.133599,-5.5555,-3.6701,-11.5571375,-2.896601,5.77039,-1
982,983,1580727421552,-10.1494,-4.7384,-2.3281,-10.316932000000001,-2.1403205,7.4669504,-1
983,984,1580727421562,-9.308499000000001,-4.1152997000000004,-1.0913,-9.37805,-1.8210297999999998,8.850319,-1
984,985,1580727421572,-8.602799000000001,-4.0613,-0.056599997,-8.535148,-2.0432692,9.912867,-1
985,986,1580727421582,-7.9621,-4.0961,0.9526,-7.920172,-2.2646658,10.963432000000001,-1
986,987,1580727421592,-7.4507,-4.1354,1.9763998999999999,-7.4503245,-2.3742437,11.855158,-1
987,988,1580727421602,-7.053,-4.0694,3.0256998999999998,-7.0967199999999995,-2.6733177,13.218139,-1
988,989,1580727421613,-7.5645,-4.3684,4.1651,-7.807980000000001,-3.031404,14.163618,-1
989,990,1580727421623,-8.6679,-4.3722,4.7981997000000005,-8.640511,-3.105921,14.598892999999999,-1
990,991,1580727421633,-9.4787,-4.5464997,5.419699700000001,-9.178086,-3.6459382000000007,15.606345000000001,-1
991,992,1580727421643,-9.3593,-4.9202,6.638099700000001,-8.735389,-4.1100205999999995,16.935299,-1
992,993,1580727421653,-9.3593,-4.9202,6.638099700000001,-8.231897,-4.420999,17.678852,-1
993,994,1580727421663,-7.987,-5.4869,8.2406,-7.552403999999999,-5.1970263,17.880653,-1
994,995,1580727421674,-7.6011,-5.6770997,8.0616,-6.951641,-5.377923,17.944244,-1
995,996,1580727421684,-6.298899700000001,-5.410599700000001,8.2706995,-5.2990866,-4.9572806,18.113457,-1
996,997,1580727421694,-4.8696,-4.788,8.3077,-3.7761157,-4.334338,18.135273,-1
997,998,1580727421704,-3.3558,-3.9873998,8.3276,-2.3457623,-3.7217483999999996,18.15299,-1
998,999,1580727421715,-2.134,-3.4225,8.2507,-1.5957642,-3.4690354,17.728920000000002,-1
999,1000,1580727421725,-1.8650999,-3.3776998999999996,7.5074,-1.7558308999999996,-3.9520705,16.514426999999998,-1
1000,1001,1580727421735,-2.116,-4.0678,6.1361,-1.8477491000000001,-5.0319223,14.932904,-1
1001,1002,1580727421745,-2.0625,-4.8740997,4.9312,-1.278657,-5.369265599999999,14.440005,-1
1002,1003,1580727421755,-1.0138999,-5.0202,4.6484,0.78286564,-5.1360126,15.1765,-1
1003,1004,1580727421766,0.9558,-4.6067,5.6611,2.5772720000000002,-4.6298976,16.381817,-1
1004,1005,1580727421776,3.1137,-3.7580998,7.2437997,4.4697638,-3.6664133000000003,17.916404999999997,-1
1005,1006,1580727421786,4.8438,-2.6718,8.5035,5.8065524,-2.6499407,18.23261,-1
1006,1007,1580727421796,5.6478,-1.8549999,8.2126,6.451215,-2.1255912999999995,16.469456,-1
1007,1008,1580727421806,6.3936,-1.4079,6.1636996,7.6297559999999995,-2.0124128,13.633417999999999,-1
1008,1009,1580727421816,7.6401,-1.3872,3.2396,9.156481,-2.1032584,11.114018,-1
1009,1010,1580727421827,9.2546,-1.4908999,1.0213,11.159642,-1.7812095000000001,10.555567,-1
1010,1011,1580727421837,11.3481,-1.0271,0.9227,13.056166000000001,-0.9719884,11.764973,-1
1011,1012,1580727421847,13.6993,0.1487,2.9250998,15.571525,0.6430347,14.511218,-1
1012,1013,1580727421857,15.348398999999999,1.3266,4.7237,16.04299,1.1877826,14.851109,-1
1013,1014,1580727421867,15.8755,1.9472,5.0615997,15.628132999999998,1.0806756000000002,13.986208,-1
1014,1015,1580727421878,15.5081,1.8829,4.2022,14.602188,0.46957955,12.3265,-1
1015,1016,1580727421888,14.5362,1.3011999,2.5467,13.704410999999999,-0.22934537,10.319297,-1
1016,1017,1580727421898,13.6714,0.62259996,0.536,13.666094000000001,-0.6673023,8.440577000000001,-1
1017,1018,1580727421909,13.8272,0.1487,-1.7432,13.970177,-0.6220519,8.011621,-1
1018,1019,1580727421919,13.9501,0.141,-1.6272,14.077628,-0.62684035,8.151902,-1
1019,1020,1580727421929,13.8236,0.019299998999999998,-1.6279999,13.993141,-0.7440988000000001,8.072003,-1
1020,1021,1580727421940,13.799399,-0.0379,-2.0595,14.102279999999999,-0.74103415,7.684363,-1
1021,1022,1580727421950,14.012198999999999,0.057699997,-2.0781,14.35255,-0.64456695,7.723378,-1
1022,1023,1580727421960,14.228,0.2426,-2.0274,14.552628,-0.48639646,7.717671000000001,-1
1023,1024,1580727421970,14.228,0.2426,-2.0274,14.30998,-0.55810755,7.589936,-1
1024,1025,1580727421980,13.1951,-0.037699997,-2.1016998,13.238949,-0.9494159,7.712145,-1
1025,1026,1580727421991,12.1199,-0.5154,-2.0799,12.097662,-1.45691,7.6450977,-1
1026,1027,1580727422001,10.7436,-0.95239997,-2.5003,10.682651,-1.918627,7.161622500000001,-1
1027,1028,1580727422011,9.344,-1.507,-3.2354,9.371777999999999,-2.4794352,6.366182299999999,-1
1028,1029,1580727422021,8.221,-2.0047,-4.2156,8.250544,-2.882858,5.116495,-1
1029,1030,1580727422031,7.6453,-2.0669,-5.3318996,8.026648,-2.9263275,4.1738214,-1
1030,1031,1580727422041,7.5899,-2.1856,-5.514199700000001,8.057935,-3.0492744,4.4122458,-1
1031,1032,1580727422054,7.3563,-2.2603,-4.2125,7.841547,-3.1423992999999997,5.929461,-1
1032,1033,1580727422064,7.3563,-2.2603,-4.2125,7.841547,-3.1423992999999997,5.929461,-1
1033,1034,1580727422074,6.2177997000000005,-2.2694,-0.8178,6.319687,-3.6052752,9.4550085,-1
1034,1035,1580727422085,5.2601,-2.6684,-0.099599995,5.529993,-4.1447650000000005,9.738070500000001,-1
1035,1036,1580727422095,4.5868998,-3.2647998,0.1087,4.956275499999999,-5.017337,10.197097,-1
1036,1037,1580727422105,3.7024,-4.1619,0.8774,3.5173984,-5.9784555,11.236975,-1
1037,1038,1580727422115,1.7749,-4.9452,2.0303,1.282459,-6.6255894,12.456887,-1
1038,1039,1580727422125,-0.5789,-5.44,3.2721,-1.0340654,-7.109534299999999,13.490676,-1
1039,1040,1580727422135,-2.4134998,-5.731,3.8367998999999995,-2.2550697,-7.1123785999999996,13.260756,-1
1040,1041,1580727422146,-3.9492,-5.5608997,3.3792,-3.553225,-6.692052400000001,12.630438999999999,-1
1041,1042,1580727422156,-4.8626,-5.1807,2.9292998,-3.3498042000000003,-6.239653,12.369317,-1
1042,1043,1580727422166,-4.4951,-4.6602,2.694,-2.6954496,-5.5962167,12.041121,-1
1043,1044,1580727422176,-3.9768,-4.1212,2.3297,-2.9129772000000003,-5.708141,11.793053,-1
1044,1045,1580727422186,-4.5165997,-4.3522,2.189,-3.8320825,-6.109993,11.864362,-1
1045,1046,1580727422196,-5.7317,-4.8781,2.2819998,-5.266717,-6.779297,11.993619,-1
1046,1047,1580727422207,-6.9614,-5.4186997,2.4619,-6.7962193,-7.1382259999999995,12.3717785,-1
1047,1048,1580727422217,-8.5526,-5.6386,2.8274999,-8.051001,-6.883004,12.395845,-1
1048,1049,1580727422227,-9.599299,-5.3203,2.7214,-8.151213,-6.5199857,11.756776,-1
1049,1050,1580727422237,-9.5378,-4.9252,1.9662998999999999,-7.7240777000000005,-5.847071,10.778994,-1
1050,1051,1580727422247,-9.0072,-4.2007,1.023,-6.6850038,-4.979786,10.307067,-1
1051,1052,1580727422258,-7.8698997,-3.3337998,0.7069,-5.6516566,-4.121867,10.50141,-1
1052,1053,1580727422268,-6.9247,-2.4882,0.96989995,-5.077642,-3.4831133000000003,10.759293,-1
1053,1054,1580727422278,-6.3806996,-1.9253,1.1646,-4.7747082999999995,-3.0910102999999998,10.560345,-1
1054,1055,1580727422288,-6.1661997,-1.6150999,0.9568,-4.678088,-2.7887182,10.260303500000001,-1
1055,1056,1580727422299,-6.0673,-1.3349,0.6505,-4.325317,-2.4937142999999997,10.026122,-1
1056,1057,1580727422309,-5.7207,-1.0512999,0.4131,-3.692108,-2.0144908,10.104593,-1
1057,1058,1580727422319,-5.0903997,-0.602,0.4992,-3.0281672000000004,-1.5633084,10.458064,-1
1058,1059,1580727422329,-4.433,-0.1671,0.8498,-2.1814435000000003,-1.1812608,10.350048,-1
1059,1060,1580727422339,-2.9257,0.4951,0.2793,-1.5892136000000001,-0.89226156,9.907945,-1
1060,1061,1580727422349,-2.9257,0.4951,0.2793,-1.5373552,-0.9225338,9.462277,-1
1061,1062,1580727422360,-3.2509,0.257,-0.326,-2.1440747000000004,-1.1505288,9.243859,d
1062,1063,1580727422370,-3.5112997999999997,0.1016,-0.7356,-2.399536,-1.3366348999999997,8.828828999999999,-1
1063,1064,1580727422380,-3.4805998999999996,-0.038399998,-0.99679995,-2.3863585,-1.4271261999999998,8.666991000000001,-1
1064,1065,1580727422390,-2.9622998,0.1162,-0.82479995,-1.7645555,-1.2406944,8.904907000000001,-1
1065,1066,1580727422400,-2.2726,0.2656,-0.3769,-1.1809831,-1.0963048999999998,9.376211,-1
1066,1067,1580727422411,-1.9223,0.3319,-0.0953,-0.87571275,-1.0845639,9.6131315,-1
1067,1068,1580727422421,-1.6000999,0.27519998,0.1468,-0.6325673,-1.1558632,9.862532,-1
1068,1069,1580727422431,-1.4491,0.2825,0.24139999,-0.5960413,-1.1541489,9.86664,-1
1069,1070,1580727422441,-1.5311999,0.1244,-0.25259998,-0.78316253,-1.3874495,9.308178,-1
1070,1071,1580727422451,-1.7386,-0.1313,-0.7168,-1.114003,-1.6293596000000001,8.84264,-1
1071,1072,1580727422462,-1.7973,-0.1794,-0.905,-1.1349281999999998,-1.6898372,8.793577,-1
1072,1073,1580727422472,-1.5972998999999999,-0.18689999,-0.63049996,-0.8777814,-1.6818308999999998,9.213032,-1
1073,1074,1580727422482,-1.2757,-0.124699995,-0.27609998,-0.56537634,-1.6620262,9.512844,-1
1074,1075,1580727422492,-0.8763,-0.11109999599999999,-0.0092,-0.17389566,-1.6548147000000002,9.772758,-1
1075,1076,1580727422502,-0.4736,-0.046499997,0.3173,0.16962439999999998,-1.613893,10.205294,-1
1076,1077,1580727422513,-0.2504,0.0299,0.8407,0.24269544,-1.6053026000000001,10.663641,-1
1077,1078,1580727422523,-0.35999998,-0.0112,1.1482999,0.07279331,-1.6910534,10.878227,-1
1078,1079,1580727422533,-0.5234,-0.1118,1.2793,-0.18403749,-1.8557553,10.961134,-1
1079,1080,1580727422543,-0.77739996,-0.3004,1.3708,-0.4510197,-2.0465922,11.098791,-1
1080,1081,1580727422554,-0.9716,-0.42209998,1.5993998999999999,-0.62745327,-2.1682083999999997,11.4613695,-1
1081,1082,1580727422564,-0.9256,-0.40129998,1.9257,-0.3541599,-2.0659375,11.728553,-1
1082,1083,1580727422574,-0.5229,-0.27019998,2.1431,0.023118412,-1.9224002,11.851327000000001,-1
1083,1084,1580727422584,-0.2618,-0.1174,2.2317998,0.13937128,-1.7917823,11.931341999999999,-1
1084,1085,1580727422595,-0.19749999,-0.0678,2.3293998,0.1499249,-1.7859596000000002,12.186630000000001,-1
1085,1086,1580727422605,-0.2386,0.0199,2.7014,-0.06723876,-1.7602745,12.704467999999999,-1
1086,1087,1580727422615,-0.52849996,-0.0683,3.3283,-0.61929375,-1.8878088,13.349177,-1
1087,1088,1580727422626,-1.1213,-0.2242,3.9159,-1.3270581,-2.1629313999999997,13.799355499999999,-1
1088,1089,1580727422636,-1.8377,-0.5967,4.2483,-2.1639847999999997,-2.603723,14.059088000000001,-1
1089,1090,1580727422646,-2.5856,-0.9643,4.521,-2.6941377999999996,-2.7579097999999997,14.461744,-1
1090,1091,1580727422656,-2.8135998,-1.0162,4.8809,-2.7311520000000002,-2.6212103,14.962659,-1
1091,1092,1580727422667,-2.7440999,-0.8635,5.4059,-2.6716897,-2.435181,15.363362,-1
1092,1093,1580727422677,-2.6661,-0.71419996,5.7622,-2.6189213,-2.1606330000000002,15.721898999999999,-1
1093,1094,1580727422687,-2.5537,-0.4694,6.1068997000000005,-2.7137606,-1.9138960999999999,15.931555,-1
1094,1095,1580727422697,-2.7349,-0.3234,6.2541,-3.242142,-1.966061,15.978969000000001,-1
1095,1096,1580727422707,-3.2554,-0.5312,6.2924,-4.0890856,-2.3138044,15.921364,-1
1096,1097,1580727422718,-4.0639,-0.9734,6.1830997000000005,-4.608666,-2.7221787,15.835308,-1
1097,1098,1580727422728,-4.441,-1.4420998999999999,6.1327,-4.6799745999999995,-2.7823784,15.938151999999999,-1
1098,1099,1580727422738,-4.3693,-1.5153999,6.2201,-4.35422,-2.6286417999999996,16.027178,-1
1099,1100,1580727422748,-3.9222,-1.4431,6.2879996,-3.883079,-2.372357,15.944703,-1
1100,1101,1580727422758,-2.8304,-1.1887,5.5593,-3.2854674,-2.0593102,15.331194,-1
1101,1102,1580727422768,-2.8304,-1.1887,5.5593,-2.6909487000000003,-1.7035033,14.376942000000001,-1
1102,1103,1580727422779,-1.8815998999999999,-0.8664,3.4499,-2.409084,-1.3945842,13.243757,-1
1103,1104,1580727422789,-1.7263,-0.84139997,2.4831,-2.2939327,-1.1839806,12.281996000000001,-1
1104,1105,1580727422799,-1.5954,-0.8193,2.0007,-2.237803,-0.9650644,11.757991,-1
1105,1106,1580727422809,-1.6373,-0.89479995,2.0317,-2.3107686000000003,-0.8904419,11.874148,-1
1106,1107,1580727422819,-1.6683999,-1.0117999,2.2814,-2.4048222999999997,-0.8529104,12.087625,-1
1107,1108,1580727422829,-1.6683999,-1.0117999,2.2814,-2.4598124,-0.8155609,12.082704,-1
1108,1109,1580727422840,-1.7439,-1.1927,1.9554,-2.5401905,-0.7039719,11.597828999999999,-1
1109,1110,1580727422849,-1.5091,-1.3735,1.3605,-2.345954,-0.72971433,11.12735,-1
1110,1111,1580727422859,-1.1162,-1.5329,0.7294,-1.8941392,-0.70651937,10.322332000000001,-1
1111,1112,1580727422869,-0.7777,-1.617,0.0819,-1.6342629,-0.58530575,9.679844000000001,-1
1112,1113,1580727422879,-0.6261,-1.6981,-0.46429998,-1.5336491,-0.51808614,9.235451,-1
1113,1114,1580727422890,-0.6303,-1.8799,-0.81189996,-1.6336501,-0.5351424,8.811438,-1
1114,1115,1580727422900,-1.0158,-2.0733,-1.0006,-2.080791,-0.5753362,8.631689999999999,-1
1115,1116,1580727422910,-1.4532,-2.2712998,-1.0012,-2.4412045,-0.5950358,8.626826,-1
1116,1117,1580727422920,-1.611,-2.2712998,-1.1372,-2.607161,-0.38589743,8.377378,-1
1117,1118,1580727422931,-1.3534,-2.0281,-1.4080000000000001,-2.3687656,-0.040567353,8.140813,-1
1118,1119,1580727422941,-0.4869,-1.7469,-1.6962999,-1.2945831,0.5307275,7.700423,-1
1119,1120,1580727422951,0.59819996,-1.4168,-2.414,-0.24947582,0.992138,6.9394979999999995,-1
1120,1121,1580727422961,1.4214,-1.1129999,-2.7479,0.56232136,1.4535007,6.6748237999999995,-1
1121,1122,1580727422971,1.7612,-1.0351,-2.8662,0.79752773,1.626228,6.457525700000001,-1
1122,1123,1580727422982,1.7612,-1.0351,-2.8662,0.85335094,1.813694,5.796228,-1
1123,1124,1580727422992,1.8894999,-0.8947,-4.369,0.9336812,2.009626,4.8688197,-1
1124,1125,1580727423002,1.8894999,-0.8947,-4.369,0.8117206,2.0169713,4.866176599999999,-1
1125,1126,1580727423012,1.6613,-1.0895,-4.2381997,0.58059394,1.9362388,5.19468,-1
1126,1127,1580727423022,1.4821999,-1.3319,-3.8253,0.3713407,1.7424616999999998,5.5430465,-1
1127,1128,1580727423032,1.2255,-1.5252,-3.5830998,0.17945978,1.6677339,5.66131,-1
1128,1129,1580727423043,1.3808,-1.5174999,-3.4905,0.5073313,1.7562331000000002,5.768446,-1
1129,1130,1580727423053,1.6765,-1.3978,-3.4587,0.82352877,1.9316993999999998,5.6648629999999995,-1
1130,1131,1580727423063,2.0913,-1.3715,-3.7322998,1.1400806,1.8974049,5.3299236,-1
1131,1132,1580727423073,2.0042,-1.5346,-4.4094,0.83680224,1.674993,4.3772135,-1
1132,1133,1580727423083,1.5782,-1.8030000000000002,-5.2658,0.34267729999999996,1.4881592,3.771356,-1
1133,1134,1580727423094,1.0525,-1.8461,-5.4026,-0.11848425,1.5005995,3.9191358,-1
1134,1135,1580727423104,0.945,-1.7233,-4.8992,-0.035051115,1.7012909999999999,4.789313,-1
1135,1136,1580727423114,1.1401,-1.5090000000000001,-4.0389,0.24875756,1.7731363000000002,5.778463400000001,-1
1136,1137,1580727423124,1.452,-1.4347999,-3.0644,0.5401798000000001,1.9093759,6.640691800000001,-1
1137,1138,1580727423134,1.7551999,-1.1556,-2.2963,1.054914,2.1456454,7.258328999999999,-1
1138,1139,1580727423144,2.3467999,-0.9025,-1.8793999,1.5675701000000002,2.365548,7.424410000000001,-1
1139,1140,1580727423155,2.7268,-0.6691,-1.7832999,1.9749196,2.4876810000000003,7.724442,-1
1140,1141,1580727423165,3.0781,-0.6015,-1.2926999,2.1594357000000004,2.5790722,8.248092,-1
1141,1142,1580727423175,3.0976999,-0.47379997,-0.9766,2.0834055,2.5622747,8.258694,-1
1142,1143,1580727423185,2.8819999999999997,-0.5801,-1.0497,1.670741,2.2895653,8.093647,-1
1143,1144,1580727423195,2.3901,-1.0224,-1.3957,1.2595703999999999,1.7964557,7.4467525,-1
1144,1145,1580727423206,1.9171,-1.436,-2.0346,0.73302794,1.565626,7.171544,-1
1145,1146,1580727423215,1.3428999,-1.5155,-1.9777,0.29793444,1.6138834,7.735665299999999,-1
1146,1147,1580727423225,1.0099,-1.3799,-1.2255,0.24195802,1.9437374,8.45702,-1
1147,1148,1580727423235,1.0957999,-1.0342,-0.5703,0.5211794,2.2220013,8.874500999999999,-1
1148,1149,1580727423246,1.3115,-0.7873,-0.5101,0.856291,2.4687188,8.346522,-1
1149,1150,1580727423256,1.4980999,-0.6095,-1.0735999,0.96481544,2.6591728,7.8781114,-1
1150,1151,1580727423266,1.5198,-0.5139,-1.4391999,0.82033014,2.6683953,7.695433599999999,-1
1151,1152,1580727423277,1.3252,-0.5151,-1.5694,0.8038771,2.74998,7.808775,-1
1152,1153,1580727423287,1.2781999,-0.4626,-1.3966999,0.9127271999999998,2.8681197,8.119082,-1
1153,1154,1580727423297,1.3400999,-0.35529998,-1.0784999,1.0284532,2.9413438,8.547702000000001,-1
1154,1155,1580727423307,1.3755,-0.32119998,-0.7028,1.0077386000000002,2.9270456,8.843022,-1
1155,1156,1580727423317,1.3108,-0.3594,-0.3581,1.1290481,2.8444743,9.077855,-1
1156,1157,1580727423328,1.4154999,-0.42159998,-0.122499995,1.2018988000000002,2.970668,9.321547,-1
1157,1158,1580727423337,1.4546,-0.3028,0.0725,1.3175675,3.1031153,9.4541,-1
1158,1159,1580727423347,1.561,-0.1435,0.22829999,1.3445646,3.2083258999999997,9.517622,-1
1159,1160,1580727423357,1.5996,0.0998,0.2777,1.4523706,3.565857,9.532763000000001,-1
1160,1161,1580727423367,1.7017,0.3069,0.2803,1.5930826999999999,3.6514258,9.474211,-1
1161,1162,1580727423377,1.7867,0.3595,0.2267,1.5912726000000001,3.6479013,9.37532,-1
1162,1163,1580727423388,1.7465,0.3163,0.1266,1.4695513999999998,3.5702815,9.382445,-1
1163,1164,1580727423398,1.537,0.2014,0.1749,1.1926955,3.427654,9.428089,-1
1164,1165,1580727423408,1.2332,-0.0005999999700000001,0.21329999,0.8975767,3.1903791,9.541832000000001,-1
1165,1166,1580727423418,0.9636,-0.2006,0.3295,0.8344559000000001,3.2705562,9.738444,-1
1166,1167,1580727423428,0.8861,-0.1422,0.5329,0.76293635,3.3501203,9.922683000000001,-1
1167,1168,1580727423438,0.80689996,-0.088999994,0.7249,0.7199651999999999,3.3824517999999997,9.967062,-1
1168,1169,1580727423448,0.76589996,-0.063099995,0.76909995,0.6955922,3.5362358,9.826742,-1
1169,1170,1580727423458,0.7403,0.079399996,0.6372,0.7532542,3.6018178,9.66497,-1
1170,1171,1580727423468,0.805,0.1317,0.4865,0.82489824,3.6830387000000004,9.355075,-1
1171,1172,1580727423478,0.8796,0.19139999,0.17979999,0.98077995,3.6757028,9.059123,-1
1172,1173,1580727423488,1.0421,0.16059999,-0.1161,1.0034195,3.6905949999999996,9.09877,-1
1173,1174,1580727423499,1.1703,0.14999999,-0.0025,1.0963337,3.7097485,9.152593,-1
1174,1175,1580727423509,1.1703,0.14999999,-0.0025,0.9066649999999999,3.6717,9.139578,-1
1175,1176,1580727423519,0.4052,0.0016999998999999999,-0.2807,0.19634369,3.578958,8.786432000000001,-1
1176,1177,1580727423529,-0.07,-0.08549999400000001,-0.6066,-0.2726996,3.5329702000000003,8.459605,-1
1177,1178,1580727423539,-0.30159998,-0.0718,-0.8257,-0.46741520000000003,3.5702431000000003,8.282367,-1
1178,1179,1580727423549,-0.37989998,-0.024699999,-0.8699,-0.5347018,3.614603,8.232625,-1
1179,1180,1580727423560,-0.3328,-0.022699999,-0.8569,-0.49106035,3.6229732000000006,8.264191,-1
1180,1181,1580727423569,-0.23799999,-0.0559,-0.76699996,-0.40202478,3.5955355000000004,8.344051,-1
1181,1182,1580727423579,-0.2244,-0.038,-0.70739996,-0.38565803,3.6347718,8.411433,-1
1182,1183,1580727423590,-0.1566,0.0394,-0.6188,-0.2939505,3.7260292,8.506053,-1
1183,1184,1580727423600,0.0058999998,0.1479,-0.64849997,-0.09316318,3.8356738,8.46899,-1
1184,1185,1580727423610,0.36319998,0.2987,-0.5128,0.22620417,3.953938,8.60547,-1
1185,1186,1580727423620,0.56259996,0.39399999999999996,-0.28039998,0.42716387,4.0346703999999995,8.892381,-1
1186,1187,1580727423630,0.6543,0.3348,0.0883,0.5750776999999999,3.9587072999999995,9.256855,-1
1187,1188,1580727423640,0.8254,0.3444,0.2511,0.7137594,3.9639837999999994,9.36652,-1
1188,1189,1580727423651,0.8124,0.33269998,0.32639998,0.68025017,3.9434992999999996,9.497243,-1
1189,1190,1580727423661,0.6453,0.2411,0.4513,0.45405558,3.8252065,9.591201,-1
1190,1191,1580727423671,0.3366,0.1285,0.34149998,0.16822618,3.7190187000000003,9.413014,-1
1191,1192,1580727423681,0.1427,0.0145,0.0755,-0.035213917000000004,3.600343,9.149307,-1
1192,1193,1580727423691,-0.0256,0.0482,-0.2004,-0.22357056,3.6523738,8.89897,-1
1193,1194,1580727423701,-0.102199994,-0.0042999996999999995,-0.23179999,-0.28235298,3.574706,8.919684,-1
1194,1195,1580727423711,-0.0725,-0.0371,-0.20449999,-0.27985346,3.5524302000000003,8.931675,-1
1195,1196,1580727423722,0.0319,-0.0341,-0.4603,-0.22041020000000003,3.5153682,8.538681,d
1196,1197,1580727423732,-0.055,-0.15269999,-0.8127,-0.36588190000000004,3.3528589999999996,8.193341,-1
1197,1198,1580727423743,-0.1768,-0.3031,-1.1055,-0.47352520000000003,3.2696846,7.9622720000000005,-1
1198,1199,1580727423753,-0.2741,-0.326,-1.1826,-0.5811301999999999,3.2541797000000003,7.9375160000000005,-1
1199,1200,1580727423763,-0.4619,-0.3764,-1.2409999,-0.83279914,3.1941717,7.8770766000000005,-1
1200,1201,1580727423773,-0.8127,-0.4723,-1.3005999,-1.2392579,3.0534022000000003,7.7423697,-1
1201,1202,1580727423783,-1.3033999,-0.6814,-1.607,-1.7554189999999998,2.7993292999999997,7.358435000000001,-1
1202,1203,1580727423793,-1.6988,-0.82739997,-2.1011,-2.0064273,2.7605338,6.8037467000000005,-1
1203,1204,1580727423803,-1.6789999,-0.7744,-2.812,-1.8845241000000001,2.7288822999999995,5.794398999999999,-1
1204,1205,1580727423814,-1.5926,-0.909,-3.7577,-1.9656109,2.5403054,4.9343634000000005,-1
1205,1206,1580727423824,-1.7693,-1.1272,-4.8487,-2.2728636000000004,2.2155367999999998,3.8065891000000005,-1
1206,1207,1580727423834,-2.4020998,-1.7262,-5.9665,-3.3781707,1.3148668,2.8054490000000003,-1
1207,1208,1580727423844,-3.6011,-2.605,-6.4944997,-4.6694884000000005,0.47623545,2.4389925,-1
1208,1209,1580727423855,-4.9009,-3.3179998,-6.914499799999999,-5.874442,0.030253131000000003,1.8704939999999999,-1
1209,1210,1580727423865,-6.1398997,-3.5556997999999997,-7.542000000000001,-7.3662114,-0.028079197,0.88492566,-1
1210,1211,1580727423875,-7.3724,-3.5460000000000003,-8.5465,-8.256155,-0.13657485,-0.91107994,-1
1211,1212,1580727423885,-8.2107,-3.6694,-10.4972,-8.817155,-0.34361579999999997,-2.7255974,-1
1212,1213,1580727423896,-8.717299,-3.9536998,-12.7086,-8.841596000000001,-1.0400317,-4.687301000000001,-1
1213,1214,1580727423906,-8.555699,-4.6096,-14.0355,-8.447424,-1.8198231,-4.778405,-1
1214,1215,1580727423917,-8.123899,-5.2151,-13.7835,-7.4131575,-2.245809,-2.7723227,-1
1215,1216,1580727423926,-7.131,-5.4244,-11.4175,-6.868303999999999,-2.1612169999999997,-0.046667777,-1
1216,1217,1580727423936,-6.6759,-5.193,-7.854099799999999,-6.3423266,-2.0724497,4.2442107,-1
1217,1218,1580727423946,-6.3224998,-4.8986,-4.5034,-5.431332599999999,-1.9647584999999999,7.2876244,-1
1218,1219,1580727423956,-5.2623,-4.5765,-1.6005,-3.5582623,-1.5281231000000002,9.419564999999999,-1
1219,1220,1580727423966,-3.4178998,-3.862,0.0951,-1.297169,-1.0983832,9.556801,-1
1220,1221,1580727423976,-1.2512,-3.3607,-0.0433,0.79076654,-1.0992546,9.827164,-1
1221,1222,1580727423987,0.657,-3.2426999,0.5184,2.31526,-1.2164556,11.639986,-1
1222,1223,1580727423998,1.9820999,-3.1253,2.5311,3.3889062000000005,-1.0371873,14.237159,-1
1223,1224,1580727424008,2.9466999,-2.6938,5.1619997,4.9294887,-0.78607386,17.9493,-1
1224,1225,1580727424018,4.2093997000000005,-2.2628,8.2771,6.3855085,-0.36049017,20.381676000000002,-1
1225,1226,1580727424028,5.6067,-1.6157,10.683499000000001,7.812366,-0.13951492,21.109493,-1
1226,1227,1580727424038,6.9663,-1.2019,11.3916,9.0644,-0.22888568,20.851084,-1
1227,1228,1580727424048,8.1697,-1.1284,11.1149,10.513946,-0.12397176,21.126253,-1
1228,1229,1580727424059,9.5858,-0.87369996,11.380099000000001,11.844231,0.44534066,21.56491,-1
1229,1230,1580727424069,11.233299,-0.060599997999999995,11.940999999999999,13.265410000000001,0.8613188,22.051603,-1
1230,1231,1580727424079,12.3164,0.3357,12.297199,13.122141000000001,0.91644293,21.957005,-1
1231,1232,1580727424089,12.1703,0.4904,12.1945,13.060906,0.9298313,21.538774,-1
1232,1233,1580727424099,12.4397,0.7407,10.7336,13.526904,1.1085346,20.245110999999998,-1
1233,1234,1580727424109,13.0234995,0.89019996,9.511499,14.046945000000001,1.2350153999999998,19.27115,-1
1234,1235,1580727424120,13.809099,1.2445998999999999,8.5554,15.024161,1.6901053,18.132553,-1
1235,1236,1580727424130,14.477799,1.6435,7.6786,15.664179999999998,2.172489,17.206945,-1
1236,1237,1580727424140,14.731198999999998,2.0978,6.5274,15.879226999999998,2.6417909,16.002098,-1
1237,1238,1580727424150,14.590698999999999,2.1764,5.2293,15.647870000000001,2.686074,14.751854999999999,-1
1238,1239,1580727424160,13.9265995,1.8323,4.3141,14.924036,2.3702598,13.857132,-1
1239,1240,1580727424170,13.0209,1.3600999,3.3018,14.023212,1.9638581999999998,12.8221855,-1
1240,1241,1580727424180,12.0141,0.69269997,2.3982,13.0040865,1.3695505,11.935603,-1
1241,1242,1580727424190,11.0836,0.107499994,1.4657999,12.105648,0.94675356,10.962800999999999,-1
1242,1243,1580727424200,10.4057,-0.38509998,0.3283,11.471339,0.54394346,9.767586,-1
1243,1244,1580727424210,10.002999,-0.8361,-0.8463,11.024610000000001,0.22011332,8.4166155,-1
1244,1245,1580727424221,9.379,-1.2751,-2.116,10.207564,-0.20263565,7.108969,-1
1245,1246,1580727424231,8.5618,-1.8755,-3.1864,9.406023,-0.725309,6.019387200000001,-1
1246,1247,1580727424241,7.7251997,-2.5138,-4.2846,8.500747,-1.2454829,4.914731,-1
1247,1248,1580727424252,6.6032,-3.2614,-5.2562,7.178669,-1.9165776,3.9866330000000003,-1
1248,1249,1580727424262,5.1872,-4.1242,-6.2198,5.821175599999999,-2.6867638,2.9458067000000003,-1
1249,1250,1580727424272,3.8797998,-4.9133,-7.2057996,5.006687599999999,-3.0892575,2.366113,-1
1250,1251,1580727424282,2.4534,-5.5848,-7.8132997,2.8990240000000003,-3.8607652000000003,1.4568813999999999,-1
1251,1252,1580727424292,0.982,-6.1011,-8.600699,2.0249584,-4.152876999999999,0.96218175,-1
1252,1253,1580727424303,-0.1227,-6.6014,-9.3904,0.5102426999999999,-4.685347,-0.09624691,-1
1253,1254,1580727424313,-1.0291,-6.7541,-9.9162,-0.4452736,-4.765630000000001,-0.44666225,-1
1254,1255,1580727424323,-2.0093,-6.8143997,-10.030499,-1.4375169,-4.848421599999999,-0.5325088000000001,-1
1255,1256,1580727424333,-3.063,-6.9656997,-10.1861,-2.454191,-5.0518136,-0.89561343,-1
1256,1257,1580727424343,-4.1142,-7.3121,-10.9346,-3.8916410000000003,-5.6267858,-1.9491580000000002,-1
1257,1258,1580727424354,-5.5365996,-7.8388,-11.7778,-5.429551,-6.3869925,-2.509583,-1
1258,1259,1580727424363,-7.0056,-8.6407995,-12.1657,-6.4177823,-7.1622642999999995,-2.6174180000000002,-1
1259,1260,1580727424373,-8.2318,-9.5425,-11.9389,-7.1600227,-7.787648,-2.3602903,-1
1260,1261,1580727424383,-9.8695,-10.5623,-10.9781,-9.425111,-9.480157,-0.8890725,-1
1261,1262,1580727424393,-11.722999999999999,-11.642799,-9.7815,-11.359175,-10.568246,0.31953016,-1
1262,1263,1580727424403,-13.7661,-12.38,-8.4761,-13.206417000000002,-11.516675,1.8675922999999999,-1
1263,1264,1580727424413,-15.4512,-13.0421,-6.5516,-14.610099,-12.229602,4.0794997,-1
1264,1265,1580727424424,-16.453,-13.026799,-3.8995998,-15.13464,-12.210697,6.395056200000001,-1
1265,1266,1580727424434,-16.7853,-12.351399,-0.88009995,-15.380927,-11.727834,10.473991,-1
1266,1267,1580727424444,-16.814999,-11.7492,1.6572,-15.036133,-11.3731575,12.164833,-1
1267,1268,1580727424454,-16.340398999999998,-10.9233,2.7154,-14.4473505,-10.781215,12.486069,-1
1268,1269,1580727424464,-15.3665,-9.9626,2.9017,-12.980174,-10.067703999999999,12.809486,-1
1269,1270,1580727424474,-14.2849,-9.1138,3.4996998,-12.185817,-9.458064,14.075426,-1
1270,1271,1580727424485,-13.7504,-8.2659,5.3626,-11.642447,-9.036159,16.593866000000002,-1
1271,1272,1580727424495,-13.308499,-7.5903997,8.1474,-11.103082,-8.50114,19.781307,-1
1272,1273,1580727424505,-12.9543,-6.8844,10.7823,-10.600318,-8.169323,21.93059,-1
1273,1274,1580727424515,-12.4783,-6.2984,12.800699,-10.094078999999999,-7.846526600000001,23.092314000000002,-1
1274,1275,1580727424525,-11.983299,-5.7007,13.7856,-9.600681,-7.6226788,23.092047,-1
1275,1276,1580727424535,-11.3707,-5.2627,13.6466,-8.4064245,-7.369966000000001,22.309124,-1
1276,1277,1580727424546,-9.962,-4.7729,12.7764,-6.873197599999999,-6.8770185,21.242163,-1
1277,1278,1580727424556,-8.3667,-4.0695,11.931399,-4.797013300000001,-6.406788,22.0202,-1
1278,1279,1580727424566,-6.1025,-3.4482,13.1951,-2.7953837000000004,-5.954993,24.248148,-1
1279,1280,1580727424576,-4.0959997,-2.8314,15.5499,-0.95811164,-5.716185,26.374784000000002,-1
1280,1281,1580727424587,-2.202,-2.5014,17.568699,0.26132232,-5.660496,27.513094,-1
1281,1282,1580727424597,-1.0454999,-2.3544,18.4788,1.1376097,-6.010921,27.041521000000003,-1
1282,1283,1580727424607,-0.0652,-2.7164,17.6457,2.1772199,-6.30581,25.494867000000003,-1
1283,1284,1580727424617,1.1499,-2.8741,16.1666,4.1780352999999995,-6.0535665000000005,24.998617000000003,-1
1284,1285,1580727424627,3.4455,-2.5907,15.931299,6.738289,-5.4763246,25.622028,-1
1285,1286,1580727424637,6.0091996,-1.9968,16.6402,8.741087,-4.759721,26.44277,-1
1286,1287,1580727424647,7.882999999999999,-1.3851,17.3414,9.9293,-4.354095,26.510162,-1
1287,1288,1580727424658,8.860499,-1.2034999,17.277199,9.984826,-4.4897027000000005,25.573760999999998,-1
1288,1289,1580727424668,9.006599000000001,-1.4812,16.2797,9.656409,-4.6938996,24.040121,-1
1289,1290,1580727424678,8.2914,-2.4378,11.5883,9.09361,-5.035561599999999,21.025955,-1
1290,1291,1580727424688,8.2914,-2.4378,11.5883,8.573033,-5.123706299999999,19.043135,-1
1291,1292,1580727424699,7.361799700000001,-2.9259999,6.9491,8.046654,-4.944314,16.538935000000002,-1
1292,1293,1580727424709,7.1021,-2.9524999,5.0705,7.7851300000000005,-4.642989,14.719609,-1
1293,1294,1580727424719,6.7773,-3.0351999,2.9178998,7.4201,-4.338609,12.18913,-1
1294,1295,1580727424729,6.7629,-3.1715,0.5915,7.447107000000001,-4.1622623999999995,10.338078,-1
1295,1296,1580727424739,6.7629,-3.1715,0.5915,7.9342217,-3.8794687000000003,8.066391000000001,-1
1296,1297,1580727424749,7.2598996,-3.2361999,-1.7023,8.434725,-3.5063372000000004,6.004399299999999,-1
1297,1298,1580727424759,7.9832997,-3.0258,-5.032,8.59347,-3.0889606,4.766731,-1
1298,1299,1580727424769,7.9832997,-3.0258,-5.032,8.680599,-2.621785,4.350427,-1
1299,1300,1580727424779,8.3875,-2.064,-5.6287,8.890236,-1.7014825,4.1665816,-1
1300,1301,1580727424789,8.9692,-1.4581,-5.4947,9.513409,-0.73682994,4.318584400000001,-1
1301,1302,1580727424799,8.9692,-1.4581,-5.4947,9.826915,-0.12462298599999999,4.15824,-1
1302,1303,1580727424809,9.6413,-0.7495,-6.1088,10.062638,0.16101484,3.6515598,-1
1303,1304,1580727424820,9.7925,-0.9137,-6.4146,10.215905000000001,0.16756539,3.3392887000000004,-1
1304,1305,1580727424830,9.7223,-1.5071,-6.4423,10.1117,-0.3874297,3.2649633999999996,-1
1305,1306,1580727424840,9.2964,-2.1712,-6.6052,9.689718,-0.86173064,3.0628161,-1
1306,1307,1580727424850,9.2964,-2.1712,-6.6052,9.311902,-1.2264633999999999,3.0710618,-1
1307,1308,1580727424860,8.2973995,-3.2498999,-6.3424997,8.753699000000001,-1.5757487,3.3431580000000003,-1
1308,1309,1580727424870,8.239699,-3.2754998,-6.3784,8.788702,-1.415567,3.1825932999999997,-1
1309,1310,1580727424881,8.657599000000001,-3.161,-6.8248997000000005,9.313282000000001,-1.2144828,2.6966372000000005,-1
1310,1311,1580727424891,9.3663,-3.0349,-7.1713,10.048885,-0.9029396000000001,2.3803822999999995,-1
1311,1312,1580727424901,9.3663,-3.0349,-7.1713,10.730314,-0.5058661,2.6472113,-1
1312,1313,1580727424911,10.6838,-2.2624,-6.2855,11.340395,0.056072205,3.3286394999999995,-1
1313,1314,1580727424921,10.5206995,-2.3429,-5.7242,11.186103,-0.011473015,3.7872822,-1
1314,1315,1580727424931,9.742499,-2.6408,-4.843999999999999,10.257086,-0.26551697,4.808351999999999,-1
1315,1316,1580727424942,8.9135,-2.7652,-4.0864997,9.282819,-0.31322859999999997,5.526852,-1
1316,1317,1580727424952,8.241,-2.8286,-3.9020998,8.82903,-0.37243244,5.5539255,-1
1317,1318,1580727424962,7.9185,-2.8637,-4.0250998,8.494685,-0.29260018,5.376295,-1
1318,1319,1580727424972,7.8746,-2.6892998,-4.1496997,8.517526,-0.1384902,5.387816,-1
1319,1320,1580727424983,8.009399,-2.5414999,-3.8743,8.578645,0.043488282999999996,5.6819386,-1
1320,1321,1580727424993,8.0153,-2.4401999,-3.6975,8.6315565,0.17973751,5.790846299999999,-1
