,Seq,Time,ACCx,ACCy,ACCz,ADGx,ADGy,ADGz,Keydown
0,1,1580728771566,0.0,0.0,0.0,0.0,0.0,0.0,-1
1,2,1580728771576,0.0,0.0,0.0,-1.5953045,3.0896022000000003,6.721932000000001,-1
2,3,1580728771586,-1.4439,0.54109997,-0.5208,-0.59812903,2.3783042,7.9037957,-1
3,4,1580728771597,1.3844,0.2969,0.0081,1.9111571,3.1131039,9.571653999999999,-1
4,5,1580728771607,1.9153999,0.5574,0.2757,2.2789066000000004,3.2109022,9.711849,-1
5,6,1580728771617,1.6422,0.3681,0.2722,1.7435056,2.9750542999999996,9.691383,-1
6,7,1580728771627,0.4048,0.1388,0.26119998,0.41577706,2.805018,9.646277,-1
7,8,1580728771637,-0.85569996,-0.052699998,0.1812,-0.5130104,2.6232502,9.550499,-1
8,9,1580728771647,-1.2104,-0.218,0.1311,-0.44573329999999994,2.6101875,9.563169,-1
9,10,1580728771658,-0.5535,0.0133,0.2004,0.5378335,2.916741,9.613027,-1
10,11,1580728771667,0.7531,0.38099998,0.030299998999999998,2.2666388,3.3981287000000004,9.218136,-1
11,12,1580728771677,2.4471998,0.9026,-0.3358,4.0933665999999995,4.046929,8.826052,-1
12,13,1580728771687,3.9485,1.4425,-0.6829,5.544454,4.5109634000000005,8.539697,-1
13,14,1580728771697,4.694,1.564,-0.7395,5.8542255999999995,4.5284796,8.658353,-1
14,15,1580728771707,3.9134998,1.3819,-0.2499,4.8196144,4.241041,9.247278,-1
15,16,1580728771718,2.7373998,0.8045,0.43429998,3.9460945,3.6225708,9.901959,-1
16,17,1580728771728,2.2071,0.3204,1.0502,3.871568,3.3528113,10.346476,-1
17,18,1580728771738,2.6655,0.1762,1.4894999,4.7708874,3.2976199999999998,10.6787815,-1
18,19,1580728771749,3.5893998,0.29639998,1.5438,6.308338,3.4670818,10.978162,-1
19,20,1580728771758,5.0373,0.4615,2.2582998,7.9639482,3.7709827000000007,12.018011999999999,-1
20,21,1580728771768,6.5144,0.94509995,3.2688,9.029578,4.1556253,12.676034,-1
21,22,1580728771779,7.3684997999999995,1.2358999,3.9203,9.689708,4.2397480000000005,13.191554,-1
22,23,1580728771789,7.6426997000000005,1.1259,4.2079997,9.786999,3.9395822999999996,13.429595,-1
23,24,1580728771799,7.4909,0.76449996,4.4312997,9.241973,3.5035214,13.571063,-1
24,25,1580728771809,6.7091,0.2258,4.4758,8.415083000000001,2.8869092,13.643464000000002,-1
25,26,1580728771820,5.9364,-0.4481,4.7030997,7.8738779999999995,2.3333027000000004,13.826552,-1
26,27,1580728771830,5.567,-0.8332,4.7591,7.740214999999999,2.3193493,13.409081,-1
27,28,1580728771840,5.4289,-0.8222,4.2608,7.756342,2.7718724999999997,12.435722,-1
28,29,1580728771850,5.4442997,-0.38709998,3.199,7.883972,3.2261772,10.913777,-1
29,30,1580728771860,5.5839996,-0.11449999,1.6618998999999999,8.096846000000001,3.3039122000000005,9.276086,-1
30,31,1580728771872,5.8022,-0.2021,0.106599994,8.174619,3.1744719,7.597252,-1
31,32,1580728771882,5.8364,-0.4156,-1.2351999,7.959906599999999,2.9518685000000002,6.926588499999999,-1
32,33,1580728771892,5.6347,-0.73899996,-1.8654,7.3075156,2.6384773,7.0270205,-1
33,34,1580728771902,5.0059,-1.1395998999999999,-1.7450999,6.1595435,2.1517072,7.385834700000001,-1
34,35,1580728771913,3.8697998999999994,-1.7074,-1.3541,5.1269627,1.6325104,7.989489,-1
35,36,1580728771923,2.6841,-2.4587998,-0.5879,3.6981222999999996,0.87601924,8.409394,-1
36,37,1580728771933,1.4391999,-3.1281998,-0.2667,2.5758162000000002,0.13302185,8.601352,-1
37,38,1580728771943,0.3144,-3.9506997999999998,-0.045199998,1.7929411,-0.30774109999999993,8.634324000000001,-1
38,39,1580728771953,-0.63589996,-4.5297,0.0018999999,0.89459825,-0.6037219,8.466501,-1
39,40,1580728771963,-1.3549,-4.8226,-0.0994,0.33344525,-0.97089666,8.330185,-1
40,41,1580728771974,-1.8994,-5.2581,-0.21409999,-0.6474209,-1.4427077,7.771128699999999,-1
41,42,1580728771984,-3.9884998999999994,-6.3336,-1.4715999,-1.8007941000000003,-1.9010345000000002,7.0084605,-1
42,43,1580728771994,-4.7915,-6.4207997,-1.9649999,-2.5859869,-1.9090694,6.4565206,-1
43,44,1580728772004,-4.9947,-6.1735997000000005,-2.3720999,-2.7581778,-1.4548702,6.0193389999999996,-1
44,45,1580728772014,-4.9947,-6.1735997000000005,-2.3720999,-3.0225646,-1.0762893999999998,6.627341700000001,-1
45,46,1580728772024,-5.3273997,-5.7318,-1.6906999,-4.2728839999999995,-1.2118299,8.046261,-1
46,47,1580728772035,-8.7943,-6.2963,1.2779,-7.284167,-1.707784,9.903683000000001,-1
47,48,1580728772045,-11.578799,-6.9175997,2.0576,-10.0755,-2.324272,10.273031,-1
48,49,1580728772055,-13.8405,-7.5603,1.4754,-11.644305000000001,-2.7556782,9.7379465,-1
49,50,1580728772065,-13.8405,-7.5603,1.4754,-13.20679,-3.3302864999999997,7.956794,-1
50,51,1580728772076,-15.4217,-8.090099,-1.4049,-13.709535,-3.3112385000000004,6.8387402999999996,-1
51,52,1580728772086,-15.7388,-8.1139,-1.6732,-14.076498,-3.2353902000000003,6.700863000000001,-1
52,53,1580728772096,-15.7388,-8.1139,-1.6732,-14.428876999999998,-3.027516,6.872192,-1
53,54,1580728772106,-16.0965,-7.6133,-1.4172,-14.490915,-2.5685569999999998,6.874912299999999,-1
54,55,1580728772116,-16.005499,-6.9044,-1.805,-14.473898000000002,-1.7740938999999998,6.4147463,-1
55,56,1580728772126,-16.005499,-6.9044,-1.805,-14.304301999999998,-0.9945035,6.003767,-1
56,57,1580728772136,-15.0092,-5.1264997,-2.7080998,-13.476847,-0.0369569,5.5270047,-1
57,58,1580728772146,-13.949599,-4.5250998,-3.531,-12.140288,0.60337716,4.4209127,-1
58,59,1580728772156,-12.5976,-4.1758,-4.5495,-11.096817999999999,0.76758105,3.6834986000000005,-1
59,60,1580728772166,-11.3181,-4.1739,-5.1078997,-9.694208999999999,0.7003326999999999,3.3462224000000003,-1
60,61,1580728772176,-10.231,-4.3034,-4.9316,-8.679163,0.5125603,3.5640085,-1
61,62,1580728772186,-9.427,-4.3883,-4.9042997,-8.208646,0.47234726,3.4631746,-1
62,63,1580728772196,-9.519899,-4.406399700000001,-5.078,-8.650471000000001,0.30075959999999996,3.4627529999999997,-1
63,64,1580728772206,-10.118,-4.6944,-4.8985,-9.147267,0.036133293,3.6641532999999997,-1
64,65,1580728772216,-10.439099,-4.6731997000000005,-4.7379,-9.419594,0.04111323,3.9377817999999998,-1
65,66,1580728772226,-10.2771,-4.6421,-4.5229,-9.080891000000001,-0.15448347,4.0054994,-1
66,67,1580728772237,-9.546599,-4.8427,-5.151799700000001,-8.459605,-0.37274846,3.253634,-1
67,68,1580728772247,-8.5661,-4.9733,-6.4669,-7.2264857000000005,-0.68866813,1.9771508999999998,-1
68,69,1580728772257,-7.2854,-5.2816997,-7.04,-6.2334476,-1.0440443000000001,1.6399993999999998,-1
69,70,1580728772267,-6.1833,-5.5887,-7.8429,-5.2389730000000005,-1.3933678999999999,0.18653704,-1
70,71,1580728772277,-5.6333,-5.2713,-10.7163,-4.5900393,-0.87052214,-3.209207,-1
71,72,1580728772288,-4.1927,-4.5168,-13.186399,-2.893278,-0.351804,-4.184586,-1
72,73,1580728772298,-2.6425,-4.0072,-12.2505,-1.6984947,0.066932306,-1.6291106000000002,-1
73,74,1580728772308,-2.3365998,-3.5324,-9.4442,-1.73888,0.00386903,1.4222611,-1
74,75,1580728772318,-2.3291,-3.6564,-6.7356,-1.3259376,-0.6139882,3.5534647000000006,-1
75,76,1580728772328,-1.6741999,-4.0109,-5.1580997,-0.5609423000000001,-1.0621732,4.4811510000000006,-1
76,77,1580728772339,-0.5841,-4.2097,-4.812999700000001,0.4196844,-1.4008379,4.2481756,-1
77,78,1580728772349,-0.1577,-4.198,-5.5772,0.54663455,-1.7528907999999999,3.9439205999999998,-1
78,79,1580728772359,-0.19309999,-4.3371,-5.2932,0.22784181,-2.2671080000000003,4.4319544,-1
79,80,1580728772369,-0.7312,-4.687,-5.2187,-0.55624014,-2.9222956,4.1338096,-1
80,81,1580728772379,-1.4483,-5.0803,-5.3339996,-0.85866606,-3.7022786,5.1469207,-1
81,82,1580728772390,-1.4139,-5.7337,-3.6478998999999996,-0.61395955,-4.855718599999999,7.559356,-1
82,83,1580728772400,-1.3218,-6.4182,-1.5329,-0.5151268,-5.7008529999999995,9.463273,-1
83,84,1580728772410,-1.1098,-6.8655996,0.0703,0.47532564,-6.338179599999999,10.549964,-1
84,85,1580728772421,-0.14639999,-7.0694,0.72969997,0.40338470000000004,-6.416825,9.839651,-1
85,86,1580728772431,-0.4632,-6.8313,-0.0447,-0.02681506,-7.004639,9.859542999999999,-1
86,87,1580728772441,-0.7482,-7.2352,0.1512,-0.40161297,-7.563561,10.650673,-1
87,88,1580728772451,-1.0737,-7.3062997,1.2120999,-0.06252697,-7.651457000000001,13.174382000000001,-1
88,89,1580728772461,-0.4897,-7.0375,4.0709,1.2351590000000001,-7.5978556,16.189716,-1
89,90,1580728772471,0.8989,-6.5715,6.9726996,2.5271661,-7.4155703,18.432270000000003,-1
90,91,1580728772482,2.1483998,-6.0253,8.9931,3.4758160000000005,-7.1709312999999995,19.021739999999998,-1
91,92,1580728772492,3.1424,-5.4721,9.2253,4.0159383,-6.8658137,16.947731,-1
92,93,1580728772502,3.3897,-4.8928,6.5748,3.0325916,-6.975248,13.392914999999999,-1
93,94,1580728772512,2.5709,-4.8255,3.8256,3.1771152000000003,-7.102705499999999,13.690237,-1
94,95,1580728772522,2.8621,-4.6191998,4.5259,4.278304,-6.1825665999999995,15.981132999999998,-1
95,96,1580728772532,4.1238,-3.3233,7.120899700000001,5.727735,-5.1750574,19.039955,-1
96,97,1580728772543,5.4907,-2.1413999,10.2561,6.562545,-4.457678,21.856486999999998,-1
97,98,1580728772554,6.1299,-1.3309,12.561999,6.435106299999999,-4.1106050000000005,22.362724,-1
98,99,1580728772564,6.0369,-0.7642,13.144999499999999,6.2188144,-4.156659599999999,21.631813,-1
99,100,1580728772574,5.0775,-0.72179997,9.7883,5.419084,-4.3251157,18.922209,-1
100,101,1580728772584,3.7498,-0.4285,7.0646,4.053891,-4.0837900000000005,16.169373999999998,-1
101,102,1580728772594,3.7498,-0.4285,7.0646,2.8039357999999996,-4.102503,13.814353,-1
102,103,1580728772605,2.5168,-0.40219998,4.7249,2.3247986000000003,-4.027411,12.82254,-1
103,104,1580728772615,2.056,-0.29569998,3.7394998,3.0092912,-3.6601980000000003,12.865195,-1
104,105,1580728772625,3.4394,0.3387,4.1135,3.6375108,-3.5180495,13.141831,-1
105,106,1580728772636,4.2812,0.3218,4.4518,4.5726666,-3.6689800000000004,13.489478,-1
106,107,1580728772646,4.2812,0.3218,4.4518,4.778980000000001,-3.9187622,13.669944000000001,-1
107,108,1580728772656,4.4266,-0.1437,5.2787,4.44654,-4.2852287,14.356092000000002,-1
108,109,1580728772667,4.0109,-0.1982,6.1264997,4.0075774,-4.376409,15.177016,-1
109,110,1580728772677,3.5036,-0.095699996,6.8626,3.3642172999999995,-4.2674155,15.931773999999999,-1
110,111,1580728772687,2.9373999,0.1041,7.3293996,2.7916296000000003,-4.1617928,16.26316,-1
111,112,1580728772698,2.3299,0.14459999,7.4865,2.1677675,-4.2340593,16.174452,-1
112,113,1580728772708,1.7121998999999999,0.0314,7.0274997,1.5585295,-4.4073234,15.465489000000002,-1
113,114,1580728772718,1.2082,-0.18079999,5.9797997,1.143509,-4.605965,14.259769,-1
114,115,1580728772728,0.99909997,-0.2951,4.6085,1.0351858,-4.626699400000001,12.861546,-1
115,116,1580728772738,0.9842,-0.1971,3.3583998999999998,1.1361636,-4.372617,11.730075,-1
116,117,1580728772749,1.1920998999999999,-0.0343,2.7145,1.2636405000000002,-4.1905427,11.353678,-1
117,118,1580728772759,1.1998999,0.1586,2.3948998,1.0954335,-4.0076065000000005,11.118357000000001,d
118,119,1580728772769,0.97789997,0.27429998,2.1543,0.8145935999999999,-3.9782917,10.937058,-1
119,120,1580728772779,0.6429,0.15519999,2.0711,0.35700423,-4.1386843,11.015818,-1
120,121,1580728772790,0.156,-0.0425,2.1153998,-0.025483882000000003,-4.263326,10.864859,-1
121,122,1580728772800,-0.12529999,-0.2038,1.7859,-0.17345512,-4.4380074,10.424479,-1
122,123,1580728772810,-0.2074,-0.4066,1.3575,-0.17108008,-4.45334,10.288680000000001,-1
123,124,1580728772820,-0.1564,-0.3901,1.3817999,0.01703714,-4.34765,10.525667,-1
124,125,1580728772830,0.0402,-0.3001,1.6243,0.11185710000000001,-4.2443256,10.7374,-1
125,126,1580728772840,0.1151,-0.17979999,1.8378999,0.20547038,-3.984239,10.774196,-1
126,127,1580728772850,0.26659998,0.0026999997999999996,1.735,0.46537533,-3.9232156000000002,10.462499000000001,-1
127,128,1580728772860,0.5193,-0.0018999999,1.3726,0.5178084,-3.9438918,10.138698,-1
128,129,1580728772870,0.48139998,-0.084,0.90849996,0.24282952,-4.051085,9.517017999999998,-1
129,130,1580728772880,0.22819999,-0.2768,0.3751,0.11159853,-4.2052236,9.270225,-1
130,131,1580728772890,0.0897,-0.4847,0.17729999,0.038230613,-4.246586,9.248733999999999,-1
131,132,1580728772900,-0.0692,-0.4793,0.32619998,-0.18844283,-4.1721262999999995,9.632055000000001,-1
132,133,1580728772911,-0.056399997,-0.4594,0.742,-0.051130574000000005,-4.1421413000000005,10.2853365,-1
133,134,1580728772921,0.0609,-0.4798,1.2361,-0.07659529999999999,-4.072019999999999,10.441017,-1
134,135,1580728772931,0.074599996,-0.4588,1.2468,0.13599066,-4.1262436000000005,10.122474,-1
135,136,1580728772941,0.3178,-0.6132,0.872,0.6586353,-4.2379856,9.7391815,-1
136,137,1580728772951,0.9086,-0.7826,0.525,1.2567548000000002,-4.2583459999999995,9.666311,-1
137,138,1580728772961,1.4359,-0.8048,0.44309998,1.4479461999999999,-4.1123959999999995,9.567727,-1
138,139,1580728772971,1.5368998999999999,-0.78819996,0.30269998,1.2587372,-4.298425,9.384332,-1
139,140,1580728772981,1.0696,-1.0833,-0.0235,0.5053202,-4.311622,9.043781,-1
140,141,1580728772992,0.32729998,-1.1125,-0.2628,-0.004003105,-4.4379787,9.291294,-1
141,142,1580728773002,-0.0095999995,-1.2649,0.1301,-0.3248836,-4.1027135999999995,10.011508000000001,-1
142,143,1580728773012,-0.3023,-0.8912,0.8624,0.065505356,-4.1105184999999995,10.882900999999999,-1
143,144,1580728773022,0.1677,-1.0725,1.7663,0.4217147,-4.1456275,11.957678,-1
144,145,1580728773033,0.3857,-1.0490000000000002,2.6339,0.67711854,-3.594185,12.310391000000001,-1
145,146,1580728773043,0.625,-0.5233,2.9824998,2.1058536,-2.9650272999999996,13.167285999999999,-1
146,147,1580728773053,2.0270998,0.1037,3.8323998,3.3946717000000004,-2.266543,15.466304000000001,-1
147,148,1580728773063,3.299,0.80259997,6.138,3.8696811,-1.9017718999999997,18.041851,-1
148,149,1580728773073,2.7294998,0.82009995,10.360999999999999,2.8496842,-2.2695885,19.68732,-1
149,150,1580728773084,0.97139996,0.0019999999,10.6866,1.0937958,-3.0616477000000004,20.009178,-1
150,151,1580728773094,-0.24059999,-0.9442,10.0286,-0.27586952,-4.0322474999999995,19.211859,-1
151,152,1580728773104,-0.5984,-1.2167,9.1817,-0.472692,-4.117711,18.560339000000003,-1
152,153,1580728773114,-0.5984,-1.2167,9.1817,0.098487884,-3.5911779999999998,17.265854,-1
153,154,1580728773125,-0.1581,-0.945,8.0907,0.2581524,-3.2521303,16.560608,-1
154,155,1580728773135,0.0652,-0.6102,6.9853997,0.30974270000000004,-2.727848,15.763884,-1
155,156,1580728773145,0.7708,0.1021,5.5213,1.2344697,-1.9995128,14.970435,-1
156,157,1580728773155,1.5279,0.2866,5.2939997000000005,1.9553733,-1.6686723,14.895439000000001,-1
157,158,1580728773166,2.1548,0.5384,5.2569,2.5276162999999996,-1.2039579,14.899232999999999,-1
158,159,1580728773176,2.2612,0.77739996,5.2427998,2.5315812,-0.7914848000000001,14.917542999999998,-1
159,160,1580728773186,1.5954,0.95269996,4.9965997,1.9450303,-0.4989995,14.697304999999998,-1
160,161,1580728773196,0.3529,0.86539996,4.7339,0.302742,-0.52438766,14.560472,-1
161,162,1580728773206,-0.6881,0.1028,4.9751,-0.70617455,-1.2681416,14.769657999999998,-1
162,163,1580728773217,-1.7712,-0.90919995,4.9357,-1.7138175,-1.9042906000000002,14.53675,-1
163,164,1580728773227,-2.5333997999999998,-1.4383,4.3415,-2.152282,-1.9864022000000001,13.774579999999998,-1
164,165,1580728773237,-2.5836,-1.7152,3.3404,-2.1169147,-2.0184173999999997,13.148697,-1
165,166,1580728773248,-2.4789999,-2.0065,2.5314999,-1.9494165,-2.0924654,12.030969,-1
166,167,1580728773258,-2.2645,-2.2992,1.6604999,-1.7254821,-2.0048566,11.00129,-1
167,168,1580728773268,-1.8508999,-2.261,0.3259,-1.1599716,-1.6012517,9.462296499999999,-1
168,169,1580728773278,-0.99729997,-2.1524,-1.1387,0.03593218,-1.17381,8.073343,-1
169,170,1580728773288,0.0603,-2.0098,-1.9602,1.0565325,-0.7430453,7.534399499999999,-1
170,171,1580728773298,0.97819996,-1.8046,-2.396,1.5072553,-0.4451204000000001,7.133868700000001,-1
171,172,1580728773309,1.0835999,-1.7422999,-2.7224998,1.1078354,-0.25494418,7.039536999999999,-1
172,173,1580728773319,0.5104,-1.8528,-2.5289,0.28502494,-0.327364,7.370358500000001,-1
173,174,1580728773329,-0.3301,-2.2078,-2.0904999,-0.68801695,-0.5739859,7.764769599999999,-1
174,175,1580728773339,-1.2558,-2.5707,-1.7986,-1.4651173000000002,-0.7167474,7.8741080000000006,-1
175,176,1580728773350,-2.0472999,-2.8818,-1.7889999,-2.2189363999999996,-0.8871858,7.645643700000001,-1
176,177,1580728773360,-2.6202,-3.185,-2.3157,-2.5605986,-1.0255994000000002,6.838883999999999,-1
177,178,1580728773370,-2.4842,-3.3119998,-2.9378,-2.1657853,-0.78695494,6.1730279999999995,-1
178,179,1580728773381,-1.9010999,-3.0909,-3.6076998999999996,-1.3877655,-0.22871329999999998,5.467265,-1
179,180,1580728773391,-1.2337999,-2.7789,-4.0727,-0.71777207,0.110420585,5.1646475999999994,-1
180,181,1580728773401,-0.4335,-2.5843,-4.2864,0.10850522,0.38199008,5.090216000000001,-1
181,182,1580728773411,0.55939996,-2.2726998,-4.4156,0.7051594,0.98805827,4.58933,-1
182,183,1580728773421,0.9769,-1.8615999,-4.8701,0.6744465999999999,1.1721342,4.211056,-1
183,184,1580728773431,0.9245,-1.8559999999999999,-5.2072997,-0.07332961,0.8018086,3.8842187000000004,-1
184,185,1580728773441,0.0857,-2.3760998,-5.4860997000000005,-1.4173961000000002,0.19616173,3.8415443999999996,-1
185,186,1580728773451,-1.22,-3.0572,-5.4233,-2.3945942000000002,-0.23460305,4.049974,-1
186,187,1580728773461,-2.2157,-3.5263,-5.0393,-3.1047146,-0.28399062,4.7853866,-1
187,188,1580728773471,-2.6704,-3.4836,-4.3236,-3.3576477,-0.04051947,5.5420885,-1
188,189,1580728773481,-2.8941998,-3.2635999,-3.5497,-3.3350847000000003,0.43494025,5.8207355000000005,-1
189,190,1580728773492,-2.7698998,-2.7991,-3.4908,-2.7852897999999997,0.8870899999999999,5.072662,-1
190,191,1580728773502,-2.1138,-2.4582999,-4.3896,-1.8907107,1.2953972,3.7431907999999994,-1
191,192,1580728773512,-1.1707,-2.0458,-5.6776,-0.93842167,1.9590508000000002,2.6644976000000002,-1
192,193,1580728773522,-0.2589,-1.4886,-6.6313,-0.2513337,2.460521,2.2783990000000003,-1
193,194,1580728773532,0.3354,-1.0909,-6.8132997,-0.0766336,2.6214497000000003,2.5474113999999997,-1
194,195,1580728773543,0.3172,-1.0408,-6.295,-0.7657615,2.4503217,3.1986343999999995,-1
195,196,1580728773553,-0.2879,-1.2364,-5.8915,-1.2698079,2.406029,3.6232602999999997,-1
196,197,1580728773563,-0.8692,-1.2867,-5.2883997,-1.5580125,2.4406302,4.556118,-1
197,198,1580728773573,-1.1118,-0.93359995,-3.5877,-1.6455444,2.7464174999999997,5.5013294,-1
198,199,1580728773586,-1.021,-0.5234,-2.9457998,-1.537566,3.1819036,6.2151656,-1
199,200,1580728773597,-0.75949997,-0.42049998,-2.8318,-1.3098869,3.2256985,6.26599,-1
200,201,1580728773607,-0.5139,-0.3839,-2.7247999,-1.0785782,3.330162,6.4259415,-1
201,202,1580728773617,-0.3673,-0.29549998,-2.6059,-0.92857677,3.3472185,6.4557066,-1
202,203,1580728773627,-0.13,-0.26139998,-2.6619,-0.6752701999999999,3.4486464999999997,6.5261345,-1
203,204,1580728773637,0.16489999,-0.031,-2.3943,-0.42878237,3.7529303999999994,6.8098474,-1
204,205,1580728773647,0.3504,0.2823,-2.1671999,-0.3029527,3.9909712999999996,6.9758705999999995,-1
205,206,1580728773657,0.54469997,0.3839,-1.9899999,-0.08973468,3.9663782,7.0879865,-1
206,207,1580728773667,0.6943,0.2321,-2.0288,-0.07913315,3.8001058,7.1116600000000005,-1
207,208,1580728773678,0.5683,0.0106,-1.6757,-0.33844435,3.5008112999999996,7.710028599999999,-1
208,209,1580728773688,0.18339999,-0.36569998,-0.85289997,-0.84718347,3.1700475,8.565227499999999,-1
209,210,1580728773698,-0.4956,-0.4587,-0.1964,-1.5853733,3.242812,8.978199,-1
210,211,1580728773708,-1.0544,-0.3019,-0.1259,-2.0262415000000003,3.3337247000000003,8.929855,-1
211,212,1580728773719,-1.2412,-0.3081,-0.1806,-2.0980487,3.324119,8.775314,-1
212,213,1580728773729,-1.1560999,-0.3287,-0.45909998,-1.8515607,3.3428419000000003,8.426354,-1
213,214,1580728773739,-0.6404,-0.26369998,-0.9328,-1.185331,3.47459,7.954208400000001,-1
214,215,1580728773749,-0.1718,-0.118099995,-1.1423,-0.9384792,3.6284413,7.954428699999999,-1
215,216,1580728773759,0.0567,-0.0145,-1.1286,-0.7894831999999999,3.6207607000000004,7.9174237000000005,-1
216,217,1580728773769,0.1349,-0.040599998,-1.0485,-0.8488690000000001,3.6538007000000006,8.209057000000001,-1
217,218,1580728773780,0.1072,0.057999999999999996,-0.7847,-0.86697876,3.8982775000000003,8.380367,-1
218,219,1580728773790,0.10439999400000001,0.2967,-0.6106,-0.9986119000000001,4.0098567,8.831864999999999,-1
219,220,1580728773800,-0.1037,0.4287,0.1308,-1.2216749,4.0591583,9.5437565,-1
220,221,1580728773811,-0.3793,0.4511,0.75439996,-1.5570356,4.111726,9.825526,-1
221,222,1580728773821,-0.5028,0.5036,0.6946,-1.2225082,4.097293,9.206711,-1
222,223,1580728773831,-0.0711,0.47649997,-0.027999998999999998,-0.6453426999999999,4.212818,8.466156,-1
223,224,1580728773841,0.4666,0.6002,-0.7190000000000001,-0.31002040000000003,4.317004,8.021763,-1
224,225,1580728773851,0.76989996,0.6673,-1.1165999,-0.15559438,4.2781224,7.5732813,d
225,226,1580728773861,0.871,0.6034,-1.5457,-0.32993057,4.170259,7.491467,-1
226,227,1580728773872,0.6161,0.46769997,-1.4972999,-0.7589523,3.9933943999999997,7.901641000000001,-1
227,228,1580728773882,0.1968,0.319,-1.1092,-1.0571262,3.8731383999999998,8.043398,-1
228,229,1580728773892,-0.100499995,0.23199999999999998,-0.9974,-1.4911951,3.7074597000000002,8.312141,-1
229,230,1580728773902,-0.49409997,0.0906,-0.7694,-1.9933835,3.4972199999999996,8.668916000000001,-1
230,231,1580728773912,-1.0088,-0.0949,-0.4152,-2.3517094,3.2911558,8.910079,-1
231,232,1580728773923,-1.4327999,-0.33949998,-0.1292,-2.63774,3.0001933999999997,8.907522,-1
232,233,1580728773933,-1.6938,-0.5909,-0.2821,-2.761482,2.917785,8.369602,-1
233,234,1580728773944,-1.8531,-0.6965,-1.0491999,-3.0728908,2.6548057000000003,7.452326299999999,-1
234,235,1580728773954,-2.537,-1.11,-2.286,-3.4920008,2.4487033,6.811782000000001,-1
235,236,1580728773964,-3.0256998999999998,-1.1076,-3.0321,-4.078876999999999,2.464074,5.976148,-1
236,237,1580728773974,-3.5568,-1.1243,-3.3962,-4.512189,2.425671,5.707116,-1
237,238,1580728773985,-4.1544,-1.1157,-4.151799700000001,-5.096115599999999,2.4403236,4.954551,-1
238,239,1580728773995,-4.1544,-1.1157,-4.151799700000001,-5.8464775,2.3018334,3.9141462,-1
239,240,1580728774005,-5.8482,-1.9275,-6.3062,-6.969166800000001,1.4754795,2.5768888,-1
240,241,1580728774015,-5.8482,-1.9275,-6.3062,-7.990792,0.604105,1.6697544999999998,-1
241,242,1580728774026,-7.6898,-3.4657,-7.8686,-8.672249,0.014039598,1.1983553999999998,-1
242,243,1580728774036,-8.0581,-3.9922,-7.7612996,-8.988303,-0.5633078,1.4596969,-1
243,244,1580728774046,-8.0581,-3.9922,-7.7612996,-9.315456,-0.7299538000000001,1.9403569,-1
244,245,1580728774056,-8.6244,-4.2188,-7.0715,-9.467899000000001,-0.76788753,2.0850337,-1
245,246,1580728774066,-8.6244,-4.2188,-7.0715,-9.082366,-1.0728321,1.6594595,-1
246,247,1580728774076,-8.066,-4.7388997,-7.9199996,-8.824788,-1.5131738000000001,1.2370075,-1
247,248,1580728774087,-7.4245996,-5.1731,-8.0449,-7.717967999999999,-2.0447056,1.2215121,-1
248,249,1580728774097,-6.1256,-5.2868,-7.7036996,-6.541764,-2.1230632999999997,1.7576599999999998,-1
249,250,1580728774107,-4.7827,-5.3134,-6.192199700000001,-4.908496400000001,-2.203585,3.9500879999999996,-1
250,251,1580728774117,-3.5814998,-5.0189,-4.0698,-3.7979987,-1.9639925,5.703774,-1
251,252,1580728774127,-1.9063,-4.6528997,-2.1274,-1.6371934,-1.8397907999999998,7.852072,-1
252,253,1580728774138,-0.5262,-4.638099700000001,-0.83159995,-0.52916646,-1.9687616000000001,9.092144000000001,-1
253,254,1580728774147,0.2322,-4.5253997,0.3008,0.24077049,-2.0078924,10.091494,-1
254,255,1580728774157,0.80759996,-4.4883,0.7809,0.78837234,-2.1905222,10.368033,-1
255,256,1580728774167,1.0983,-4.548,1.0009999,1.0865366,-2.2811668,10.653125,-1
256,257,1580728774178,1.9641,-4.3252,1.5479,2.6806345,-2.174711,11.235223,-1
257,258,1580728774188,3.9083,-3.9043998999999996,1.6071,4.9076059999999995,-1.6401430000000001,11.163167,-1
258,259,1580728774198,6.2202997,-3.0872,1.6197,7.903451,-0.82955253,11.971169999999999,-1
259,260,1580728774208,8.5372,-2.145,3.1230998,10.147623,0.28134745,14.161760000000001,-1
260,261,1580728774218,10.6103,-0.7559999999999999,5.3708,12.066844,1.2763871999999998,16.496874,-1
261,262,1580728774230,12.0418,0.1381,7.5309,12.838974,1.6497582,18.22931,-1
262,263,1580728774240,12.6334,0.7252,9.5274,13.193574,1.8572493000000003,19.488735000000002,-1
263,264,1580728774250,12.7344,0.68299997,9.5001,12.975682,1.158784,18.459073999999998,-1
264,265,1580728774260,12.4521,0.2427,8.429999,12.624617,0.93723416,16.993574,-1
265,266,1580728774271,12.1327,0.12709999,6.9231997000000005,12.535849,0.9232329,15.917496,-1
266,267,1580728774282,12.079499,0.2922,6.0076,12.868537,1.4870483,15.257251,-1
267,268,1580728774293,12.3868,0.8301,5.4754996,13.427698000000001,1.7468766,14.559427,-1
268,269,1580728774303,13.8308,1.3497,3.7738998,14.320582,1.9229558,13.564492999999999,-1
269,270,1580728774313,13.8308,1.3497,3.7738998,15.484423000000001,1.7727051999999999,12.790592,-1
270,271,1580728774324,15.0026,1.2473999,2.9963999,15.999464000000001,1.5809202,12.439333999999999,-1
271,272,1580728774334,14.822598999999999,0.77279997,2.845,15.3054905,1.2044655,12.638637,-1
272,273,1580728774345,14.822598999999999,0.77279997,2.845,14.209979,0.80064976,12.976516,-1
273,274,1580728774355,13.414000000000001,0.3453,3.2265,12.651488,0.36070085,12.900993,-1
274,275,1580728774365,12.2911,0.091,3.1478,12.073682000000002,0.07088753,12.389726,-1
275,276,1580728774375,11.609799,-0.23439999,2.7561998,12.077177,-0.19171809,11.541029,-1
276,277,1580728774386,11.6974,-1.046,1.1697,12.319345,-0.89759576,10.801958,-1
277,278,1580728774396,11.6937,-1.6955,0.2871,12.290155,-1.5373743999999998,9.899995,-1
278,279,1580728774407,11.4893,-2.2653,-0.63549995,11.819714,-2.1597998,8.76728,-1
279,280,1580728774418,10.592,-2.6239,-1.5788,10.543174,-2.4832277,7.914857400000001,-1
280,281,1580728774428,8.8928995,-2.9749,-2.1692998,8.623493,-2.8849937999999997,7.6024523,-1
281,282,1580728774438,6.9806,-3.2401,-2.0528,6.9531927,-3.1352742,7.937219,-1
282,283,1580728774448,5.8429,-3.5595999,-1.4346,5.9792123,-3.6605046000000003,8.855433,-1
283,284,1580728774458,5.1319,-3.9029,-0.60899997,5.5510235,-3.8135037000000005,9.540424,-1
284,285,1580728774468,4.6649,-3.9822,0.21689999,5.046958,-3.9333766000000003,10.434218,-1
285,286,1580728774478,4.1303,-3.9160000000000004,0.87579995,4.667228,-3.8233771,10.806507,-1
286,287,1580728774489,3.4875,-3.5913,1.6129999,4.02155,-3.5900767,11.906375,-1
287,288,1580728774499,3.2063,-3.4859998,2.4389,3.5442996,-3.5346173999999997,12.5721445,-1
288,289,1580728774509,2.3746998,-3.4392,2.9023,2.33563,-3.7171803,12.722864,-1
289,290,1580728774519,0.9657,-3.6894998999999995,2.9538,0.90488374,-4.141806,12.887738,-1
290,291,1580728774529,-0.4387,-4.1988,3.1725,-0.44572374,-4.7766433,12.956281,-1
291,292,1580728774540,-1.8797,-4.8294,3.0876,-2.1286848,-5.3840904,12.657063,-1
292,293,1580728774550,-3.8133,-5.4122,2.7479,-4.2776914,-5.8932796,12.423206,-1
293,294,1580728774560,-6.1122,-5.8245,2.6634,-6.58484,-6.065892,12.607857000000001,-1
294,295,1580728774570,-8.3345995,-5.8745,3.0010998,-8.281217999999999,-5.953661,12.998494,-1
295,296,1580728774580,-9.7188,-5.7254,3.3876,-9.268931,-5.6739516,13.269978,-1
296,297,1580728774590,-10.500999,-5.3171,3.5669,-9.610536999999999,-5.1887712,13.384784,-1
297,298,1580728774601,-10.6009,-4.7776,3.6564,-9.160503,-4.387767299999999,13.445425,-1
298,299,1580728774611,-10.0848,-4.0902,3.7254,-8.807061000000001,-3.7724767,13.684614999999999,-1
299,300,1580728774621,-9.832,-3.513,3.9805998999999996,-8.947725,-3.23449,13.933028,-1
300,301,1580728774631,-10.068,-3.0095,4.2159,-9.370942999999999,-2.978684,14.097470999999999,-1
301,302,1580728774641,-10.5091,-2.8083,4.3334,-9.851786,-2.8015703999999997,13.827473000000001,-1
302,303,1580728774651,-10.9984,-2.6471,3.9701998,-10.355909,-2.6741509999999997,13.387120999999999,-1
303,304,1580728774661,-11.495,-2.6021,3.5379998999999995,-10.795532000000001,-2.7515697,12.91215,-1
304,305,1580728774672,-11.8993,-2.7373,3.0467,-11.081783,-2.8289216,12.486433,-1
305,306,1580728774682,-12.1123,-2.8422,2.6922998,-11.002774,-2.8630723999999996,12.494716,-1
306,307,1580728774692,-11.9855995,-2.9106,2.7296,-10.95309,-2.8191726000000004,12.55187,-1
307,308,1580728774702,-11.9282,-2.872,2.7856998,-10.881378999999999,-2.7229542999999996,12.935402,-1
308,309,1580728774713,-11.7644,-2.7652,3.2529,-10.435329,-2.6542885,13.117707000000001,-1
309,310,1580728774723,-11.3319,-2.7238,3.3374,-9.934051,-2.6737293999999996,13.136304999999998,-1
310,311,1580728774733,-10.5751,-2.7336,3.3630998,-8.408197,-2.2495632000000003,13.112995000000002,-1
311,312,1580728774743,-7.7479997,-1.9564999,3.3753998,-6.990963499999999,-1.8559947,13.164373999999999,-1
312,313,1580728774753,-6.4407,-1.8649,3.9306,-5.7346973,-1.7499411,13.718881,-1
313,314,1580728774764,-6.4407,-1.8649,3.9306,-4.9064182999999995,-1.6140941,14.389909,-1
314,315,1580728774774,-4.8722997,-1.6729,5.0715,-4.2689095,-1.5016146000000001,14.863864999999999,-1
315,316,1580728774785,-4.3210998,-1.7502999,5.1871,-3.7637617999999997,-1.5293298,14.978710000000001,-1
316,317,1580728774795,-3.8876,-1.923,4.9899,-3.3854873,-1.6300588,14.795907999999999,-1
317,318,1580728774806,-3.2568,-1.9333999,4.5192,-2.6336312,-1.5536549,14.229172,-1
318,319,1580728774816,-2.2721,-1.8281,4.1285,-1.5148019,-1.2805148000000002,13.720653,-1
319,320,1580728774826,-1.364,-1.7506,3.5921998,-0.8392059999999999,-1.1737143,13.289122,-1
320,321,1580728774836,-0.45389998,-1.7373999,3.3125,-0.03037763,-1.044935,13.097194,-1
321,322,1580728774846,0.0519,-1.6508,3.1622,0.30346984,-0.8871665999999999,12.941934,-1
322,323,1580728774856,-0.0021,-1.5904,2.9944,0.1955105,-0.70602137,12.770269,-1
323,324,1580728774866,0.1805,-1.3931,2.5744998,0.46230119999999997,-0.3018035,12.020694,-1
324,325,1580728774876,0.58809996,-1.3454,1.7953,0.8751956,-0.07247727,11.295086999999999,-1
325,326,1580728774886,1.0559,-1.1782,1.2251999,1.4058274,0.30431262,10.716436999999999,-1
326,327,1580728774896,1.7380999,-1.0325999,0.5597,1.9866128,0.46129563,10.004401,-1
327,328,1580728774907,2.1288,-1.082,0.043399997,2.246489,0.65437365,9.599399,-1
328,329,1580728774917,2.3330998,-0.8533,-0.1375,2.4225106,1.0669042,9.469949,-1
329,330,1580728774927,2.5971,-0.6211,-0.31689999,2.6744478,1.3941052999999999,9.162198,-1
330,331,1580728774937,2.8369,-0.4358,-0.71029997,2.8004978,1.6378542,8.787533999999999,-1
331,332,1580728774948,2.8262,-0.5729,-1.239,2.7146225,1.4547266,8.093149,-1
332,333,1580728774958,2.8803,-1.1618998999999999,-1.7947999,2.7224755000000003,0.9354242,7.4721025999999995,-1
333,334,1580728774968,2.7495,-1.673,-2.211,2.3671662999999996,0.63159037,7.1886864,-1
334,335,1580728774978,2.1039,-2.1129,-2.3316,1.3888093000000001,0.3502717,7.120614,-1
335,336,1580728774988,1.2671,-2.4033,-2.3625998,0.62294257,0.29269594,6.925688,-1
336,337,1580728774999,0.62839997,-2.4894,-2.6167,0.31460768,0.48370534,6.545728700000001,-1
337,338,1580728775009,0.532,-2.4296,-2.9666,0.5124454,0.6480338000000001,5.928647,-1
338,339,1580728775019,0.86649996,-2.4563,-3.8051998999999994,0.9561291999999999,0.6661244000000001,4.887179,-1
339,340,1580728775029,1.4029,-2.6041,-4.7418,1.5852201000000001,0.6031856,3.9349375,-1
340,341,1580728775039,2.0267,-2.8012,-5.6601996,1.9818435,0.5575138000000001,3.271121,-1
341,342,1580728775049,2.1746,-2.7997,-6.0228,1.7153113999999998,0.8999804,3.5535986000000004,-1
342,343,1580728775060,1.7601999,-2.4752,-5.1362,1.3163416000000001,1.3266846,4.6550465,-1
343,344,1580728775070,1.3866999,-2.158,-4.147599700000001,1.0242491,1.8283943999999999,5.149344,-1
344,345,1580728775080,1.24,-1.6286,-3.9413998,1.2784845,2.5577831,4.920601400000001,-1
345,346,1580728775090,1.6276,-1.0896,-4.2816,1.9046928,3.0805523,4.0638127,-1
346,347,1580728775100,2.4243999,-0.5552,-5.4782,2.5836213,3.5740355999999998,2.8271213,-1
347,348,1580728775110,2.865,-0.3066,-6.5708,2.7615106,3.7590212999999997,1.4638245,-1
348,349,1580728775120,2.878,-0.3252,-7.6804,2.6891097999999998,3.8259535000000002,0.6421345,-1
349,350,1580728775130,2.6548998,-0.30879998,-8.516399,2.193443,3.9710324,-0.107959345,-1
350,351,1580728775140,2.1368,-0.3002,-9.0526,1.9030647,3.995415,-0.45641148,-1
351,352,1580728775150,1.6581999,-0.3251,-9.4481,1.4934839,4.149458,-0.6903729000000001,-1
352,353,1580728775160,1.3328999,-0.1751,-9.4005995,0.9223040000000001,4.3186803,-0.52817047,-1
353,354,1580728775170,0.7287,-0.1357,-9.2432995,0.48070782,4.2258997,-0.41384256,-1
354,355,1580728775181,0.27359998,-0.3439,-9.0062,0.60577136,3.8127277000000004,-0.051245495999999995,-1
355,356,1580728775191,0.556,-0.72139996,-8.728499000000001,1.2284648,3.6024977999999996,0.27002764,-1
356,357,1580728775201,1.2038,-0.90779996,-8.419,2.1175467999999995,3.3684022000000002,0.45259988,-1
357,358,1580728775211,2.0342999,-1.1408,-8.3117,2.6744957,3.1051933999999997,0.33381876,-1
358,359,1580728775221,2.4916,-1.3551999,-8.4835,2.934324,2.8251388,0.04148673,-1
359,360,1580728775231,2.6938,-1.6216999,-8.7961,2.759672,2.4737275000000003,-0.39163393,-1
360,361,1580728775242,2.3748,-1.9217999,-9.248799,1.8710973999999998,2.2608542000000003,-0.64497876,-1
361,362,1580728775252,1.3718,-2.0719,-9.5163,0.8679843,1.8893698,-1.0486986999999999,-1
362,363,1580728775262,0.39949998,-2.4687997999999998,-9.9493,-0.041132387,1.3392878000000001,-1.1579318,-1
363,364,1580728775273,-0.5467,-2.9394,-9.9375,-0.97443056,1.0099318000000002,-0.7472687,-1
364,365,1580728775283,-1.3316,-3.1573,-9.6192,-1.382709,0.4892215999999999,-1.089764,-1
365,366,1580728775293,-1.8055999,-3.6353998,-9.969299000000001,-1.6457646000000001,-0.24147919,-3.1351880000000003,-1
366,367,1580728775303,-2.0913,-4.2932997,-12.0439,-1.4365976999999999,-0.8810375,-5.361949,-1
367,368,1580728775313,-1.7624999,-4.9351,-14.813398999999999,-0.30929255,-1.1724405,-7.099459599999999,-1
368,369,1580728775324,0.784,-4.6856,-14.733298999999999,1.3409541,-1.0896873,-5.017816000000001,-1
369,370,1580728775334,0.784,-4.6856,-14.733298999999999,1.8586379000000002,-1.0098169,-2.2533939999999997,-1
370,371,1580728775344,1.217,-4.0154,-7.4087996,1.3134303,-1.0410564,2.9447052000000005,-1
371,372,1580728775354,0.62759995,-4.2948,-4.644,0.8202918,-1.817496,5.2324224,-1
372,373,1580728775364,0.0295,-4.9588,-3.9543998,0.27965236,-2.6617587000000005,5.4535704,-1
373,374,1580728775375,-0.601,-5.7407,-4.6752996,-0.19429424,-3.7933733,4.742157499999999,-1
374,375,1580728775385,-0.601,-5.7407,-4.9881,-0.031948227,-4.6782413,4.622399,-1
375,376,1580728775395,0.2652,-6.6273,-3.8463998,1.0827346000000002,-5.0001273,6.304996,-1
376,377,1580728775405,1.7141,-6.1601,-0.73939997,2.5934854,-4.8060822,9.755011999999999,-1
377,378,1580728775415,1.7141,-6.1601,-0.73939997,3.7791421,-4.5104940000000004,13.825395,-1
378,379,1580728775425,3.8616998,-5.1068997000000005,6.1917995999999995,4.611271,-4.678327599999999,16.256659,-1
379,380,1580728775435,3.8616998,-5.1068997000000005,6.1917995999999995,4.736794000000001,-5.070488500000001,16.556452,-1
380,381,1580728775445,3.3883997999999997,-5.4007998,6.0228996,4.019855000000001,-5.574008,15.816374,-1
381,382,1580728775456,3.3883997999999997,-5.4007998,6.0228996,3.3407447,-5.748411,15.644576,-1
382,383,1580728775466,2.6908998,-4.3634,7.6756997,3.6497114,-4.9321513,17.975435,-1
383,384,1580728775476,3.5296998,-3.3751,10.571099,4.6780976999999995,-4.1923046,20.82402,-1
384,385,1580728775486,3.7658,-2.965,12.6586,4.6878185,-4.270519,22.51715,-1
385,386,1580728775496,2.3455,-3.8950998999999995,12.6876,2.9366033,-5.868533,21.884794,-1
386,387,1580728775506,0.78389996,-5.3076,11.251699,1.39083,-7.427427000000001,20.108632999999998,-1
387,388,1580728775517,-0.99909997,-6.5434,9.664499000000001,-0.09857407,-8.445805,19.102455,-1
388,389,1580728775526,-2.4016,-6.7528,9.549,-1.3416818000000001,-8.577955000000001,19.251518,-1
389,390,1580728775536,-2.6313999,-5.73,10.6244,-1.4136323999999998,-7.2894535000000005,20.563568,-1
390,391,1580728775546,-2.2375,-3.9626,11.536099,-1.037331,-5.8639846,21.13403,-1
391,392,1580728775556,-1.2271999,-1.7974,12.1925,0.07462248,-3.9336830000000003,21.744026,-1
392,393,1580728775568,0.0783,-0.25239998,12.4534,1.2515929,-2.62031,21.625723,-1
393,394,1580728775578,0.0335,0.21100000000000002,11.3146,0.94985646,-2.5829892000000005,20.239069,-1
394,395,1580728775588,-0.40379998,-0.2164,8.813399,0.45938027,-3.3115544000000003,16.78344,-1
395,396,1580728775598,-0.6753,-0.5999,6.7485,0.17781258,-3.5634532,15.612484,-1
396,397,1580728775608,-1.0024998999999999,-0.7837,5.9192,-0.09821015,-3.4874803999999995,15.136009,-1
397,398,1580728775619,-0.9791,-0.3487,5.7881,0.03217807,-3.2180752999999997,15.087051999999998,-1
398,399,1580728775629,-0.6074,0.37759998,5.835,0.5110471,-2.2288772999999997,15.183223000000002,-1
399,400,1580728775639,0.10529999400000001,1.37,5.9803,1.6577357,-1.3857735,15.240979999999999,-1
400,401,1580728775649,1.2887,1.9851999,5.8603,2.6066917999999997,-0.9011009,14.865445000000001,-1
401,402,1580728775659,2.0212,2.3739,5.4047,2.8187702,-0.91737187,14.479251000000001,-1
402,403,1580728775670,2.0613,2.2618,5.2218,2.7769675,-1.0414681000000001,14.463707999999999,-1
403,404,1580728775680,1.9077,2.0233998,5.6749997,2.0161284999999998,-1.2977531,14.516026,-1
404,405,1580728775690,0.98749995,1.7175,4.8708,1.4691299999999998,-1.9470988999999999,14.225504,-1
405,406,1580728775701,0.4263,1.0828999,5.4961,0.78149617,-2.3834565,15.004022,-1
406,407,1580728775711,-0.38799998,0.8175,5.973099700000001,-0.031747114,-2.8145467999999996,14.914824,-1
407,408,1580728775721,-0.73759997,0.5287,5.5916,0.03949475,-2.8008616,14.323762,-1
408,409,1580728775732,-0.5308,0.5994,4.9989,0.62551874,-2.5467028999999997,13.490464999999999,-1
409,410,1580728775742,0.113699995,0.86579996,4.0196,1.2713020000000002,-2.2730935000000003,12.168052000000001,-1
410,411,1580728775752,0.79469997,1.1158,2.714,2.0099037,-1.9461316000000002,11.084924,-1
411,412,1580728775762,1.4397,1.347,1.8499999,2.2264256000000002,-1.8114337999999999,10.834912,-1
412,413,1580728775772,1.6695,1.4839,1.5761,2.1025305,-1.7867448000000001,10.864543,-1
413,414,1580728775782,1.4481,1.4262999,1.686,1.587758,-2.0244028999999997,11.078967,-1
414,415,1580728775793,0.987,1.1697,1.8447,0.9510823,-2.4021792,11.101712,-1
415,416,1580728775802,0.4436,0.80829996,1.8352,0.4447469,-2.7929606,10.905330000000001,d
416,417,1580728775812,-0.075899996,0.3829,1.6281999,0.021777658,-3.1227857999999995,10.640493,-1
417,418,1580728775822,-0.5801,-0.0526,1.3227999,-0.23453599,-3.3249714,10.580189,-1
418,419,1580728775836,-0.3028,-0.21899999999999997,1.2725999,0.2957701,-3.2872867999999995,10.583309,-1
419,420,1580728775847,0.1743,-0.1179,1.3018,0.8078611,-3.1181126,10.601037,-1
420,421,1580728775857,0.5692,0.0221,1.1249,1.0857417999999999,-2.9779367000000003,10.35679,-1
421,422,1580728775867,0.68659997,0.0503,0.9862,1.0891703000000001,-2.9388153999999997,10.34409,-1
422,423,1580728775877,0.5351,0.0929,1.1409,0.8527283999999999,-2.8755029999999997,10.569222,-1
423,424,1580728775887,0.30859998,0.060999997,1.3338,0.6391178000000001,-2.8936702999999997,10.758996,-1
424,425,1580728775897,0.1095,-0.044000000000000004,1.5554,0.47001052,-2.9196906000000005,11.056548,-1
425,426,1580728775907,-0.0137,-0.0703,1.9441998999999999,0.41797975,-2.9098074,11.435119,-1
426,427,1580728775918,-0.0137,-0.14119999,2.4715,0.22687456,-2.9436996,11.993427,-1
427,428,1580728775928,-0.53639996,-0.2271,3.1076999,-0.30566293,-2.9886246,12.8077345,-1
428,429,1580728775939,-0.8174,-0.2426,3.8423,-0.3863667,-2.9595685,13.719848999999998,-1
429,430,1580728775949,-0.69409996,-0.18329999,4.5562,-0.1209838,-2.6473072,14.468544,-1
430,431,1580728775959,-0.33879998,0.1924,5.3273997,0.27389666,-2.1302555,15.321416000000001,-1
431,432,1580728775969,0.015,0.6013,6.2443,0.5399786999999999,-1.7793516,16.173244,-1
432,433,1580728775979,0.2753,0.83779997,6.8264,0.6709510999999999,-1.6327018999999998,16.454007999999998,-1
433,434,1580728775989,0.3477,0.83169997,7.093,0.68752855,-1.582481,16.755476,-1
434,435,1580728775999,0.3445,0.7496,7.289499799999999,0.57372737,-1.8407197,16.882914000000003,-1
435,436,1580728776010,0.2192,0.27359998,7.4839997,0.30131507,-2.253164,17.443762,-1
436,437,1580728776020,-0.1604,-0.1371,8.314,-0.08932287,-2.4316566,18.718493,-1
437,438,1580728776031,-0.43449998,-0.4053,9.7108,-0.34261027,-2.6551025000000004,19.857536,-1
438,439,1580728776041,-0.73109996,-0.80359995,10.3,-0.87966806,-2.9684365,19.428364000000002,-1
439,440,1580728776051,-1.1740000000000002,-1.2262,9.5608,-1.2891339,-3.1464790000000002,18.113525,-1
440,441,1580728776061,-1.5271,-1.5884999,8.0828,-1.440572,-3.1925529999999998,16.368103,-1
441,442,1580728776071,-1.5674,-1.9068999,6.202999999999999,-1.1641183000000002,-2.9751882999999997,14.231575,-1
442,443,1580728776081,-1.1701,-1.7903,4.1315,-0.6177902,-2.6383433,13.185118,-1
443,444,1580728776091,-0.4118,-1.6005,3.1746,-0.047558422999999996,-1.9967641999999999,12.718881,-1
444,445,1580728776102,-0.0506,-1.2923,2.8720999,-0.14004163,-1.7270718,12.435971,-1
445,446,1580728776113,-0.14819999,-1.3807,2.5449998,-0.36416766,-1.591378,11.908472,-1
446,447,1580728776123,-0.3778,-1.4634999,1.9617,-0.8054669,-1.2833879,10.979301,-1
447,448,1580728776133,-1.0163,-1.2937,0.30089998,-1.0686662,-0.9479698000000001,10.10943,-1
448,449,1580728776143,-1.0174999,-1.0768,-0.4721,-1.0598078000000002,-0.49448884,9.325042,-1
449,450,1580728776154,-0.9428,-0.78749996,-1.1721,-0.9687226999999999,0.03878607,8.615056,-1
450,451,1580728776165,-0.7833,-0.5021,-1.7706,-0.8076217,0.5984259,7.8641385999999995,-1
451,452,1580728776175,-1.1068,-0.53069997,-2.3476,-1.1660528000000001,0.6869731,7.282634700000001,-1
452,453,1580728776185,-1.3133,-0.6142,-2.7968,-1.2899575,0.76081985,6.9161115,-1
453,454,1580728776195,-1.0574,-0.7090000000000001,-3.0612,-1.0143753,0.80125314,6.639504400000001,-1
454,455,1580728776206,-0.72999996,-0.6376,-3.0344,-0.66118276,0.9846585999999999,6.654827,-1
455,456,1580728776216,-0.0837,-0.15519999,-2.0602,0.15361199,1.6866481,7.9308505,-1
456,457,1580728776226,0.79319996,0.3387,-0.5794,1.1673266000000002,2.1425998,9.580954,-1
457,458,1580728776236,1.1708,0.2511,0.53749996,1.2062945,1.988327,10.3453455,-1
458,459,1580728776246,0.6351,-0.2184,0.9503,0.45723507,1.4508001,10.385233,-1
459,460,1580728776256,0.21159999,-0.7529,0.1134,0.26730782,1.1311548999999999,9.44524,-1
460,461,1580728776268,0.21159999,-0.7529,0.1134,0.58137923,1.0628053,7.602299,-1
461,462,1580728776278,0.92789996,-1.0881,-3.5033,1.215019,1.0959315,5.4314766,-1
462,463,1580728776288,1.1869,-1.1535,-4.8961997,1.2213014,1.0815663,4.2323165000000005,-1
463,464,1580728776298,0.8879,-1.5544,-5.7426,0.67163104,0.5867901,3.4037025,-1
464,465,1580728776308,0.2661,-2.0467,-6.3399997,-0.09094136,0.34085768,2.7112226,-1
465,466,1580728776319,-0.35889998,-2.2247,-7.0624,-0.47595772,0.24236983,2.160901,-1
466,467,1580728776329,-0.46699998,-2.4438,-7.625099700000001,-0.43393469999999995,0.07114609,1.7419541,-1
467,468,1580728776339,-0.19739999,-2.4431998999999998,-7.8799996,-0.031038431000000002,0.23127031,1.4769447,-1
468,469,1580728776349,0.2182,-2.2164,-8.0418,0.22687456,0.4013927,1.5911864,-1
469,470,1580728776359,0.3893,-2.0618,-7.6288996,0.052796938,0.49613604,2.4109898,-1
470,471,1580728776369,0.2004,-1.9247999,-6.6601,-0.075101316,0.55200714,3.0611783999999997,-1
471,472,1580728776380,0.212,-1.6547999,-5.6436996,0.19541475,1.0159268,4.310309999999999,-1
472,473,1580728776390,0.64699996,-1.0719,-5.1074,0.89093995,1.6669006000000002,4.430632599999999,-1
473,474,1580728776400,1.3,-0.5902,-5.0701,1.5402186000000002,1.6006962,4.688326,-1
474,475,1580728776410,1.8853999,-0.7269,-4.7578,1.4928135,1.2496392,5.2861485,-1
475,476,1580728776420,1.5755999,-1.1079999,-3.8569998999999995,0.79623485,0.82920784,6.45223,-1
476,477,1580728776430,0.95879996,-1.3719,-2.8969998,0.05854302,0.7234129,7.4228683,-1
477,478,1580728776441,0.2789,-1.3383,-2.0532,-0.0005267244,0.89509624,7.764778999999999,-1
478,479,1580728776451,0.4459,-1.1410999,-1.8147,0.6673885,1.1517164,7.9117255,-1
479,480,1580728776461,1.0659999999999998,-0.82949996,-1.6421,0.8862473,1.3002527,8.141033,-1
480,481,1580728776471,1.1938,-0.7999,-1.3994,0.8524219999999999,1.0394665,8.502519,-1
481,482,1580728776481,1.0058,-1.1272,-0.8617,0.44905645,0.83092207,9.10015,-1
482,483,1580728776492,0.56439996,-1.2413,-0.34299999999999997,-0.076298416,0.71878725,9.541622,-1
483,484,1580728776501,0.11800000000000001,-1.2809,-0.0195,-0.5683355999999999,1.0368042,9.644927000000001,-1
484,485,1580728776511,-0.34059998,-0.9532,0.0307,-0.6416748000000001,1.1787517,9.429841,-1
485,486,1580728776521,-0.28869998,-0.88009995,-0.27969998,-0.5003211,1.1517068000000001,8.6681595,-1
486,487,1580728776532,-0.1917,-0.9255,-1.1175,-0.48801494,1.0532764,7.7044163,-1
487,488,1580728776542,-0.1778,-1.1142,-2.0032,-0.28723714,0.91078305,7.2781720000000005,-1
488,489,1580728776552,0.0628,-1.253,-2.34,-0.05984546599999999,0.9300803,7.303981299999999,-1
489,490,1580728776562,0.1989,-1.2392,-2.2661,-0.16529569,1.0079206,7.426881,-1
490,491,1580728776573,-0.1598,-0.98499995,-2.0365999,-0.42076656,1.4495072,7.5340257,-1
491,492,1580728776583,-0.1505,-0.59209996,-2.0035,-0.23624067,1.7304236000000002,7.693863,-1
492,493,1580728776593,0.107099995,-0.38419998,-1.5882,0.15173492,1.9047215,7.9668117,-1
493,494,1580728776603,0.8024,-0.23399999999999999,-1.571,0.7442328,2.022813,7.980372,-1
494,495,1580728776614,0.8024,-0.23399999999999999,-1.571,0.9972042,1.9896006999999998,8.085689,-1
495,496,1580728776623,1.0196,-0.28239998,-1.4611,0.7104170999999999,2.0482395,8.430837,-1
496,497,1580728776633,0.7141,-0.2218,-1.1183,0.32588917,2.0693276000000003,8.793894,-1
497,498,1580728776643,0.21669999,-0.1924,-0.70879996,-0.08891107,2.1320655,8.792648,-1
498,499,1580728776653,-0.2537,-0.1604,-1.3392998999999999,-0.25414929999999997,2.093739,8.221267999999998,-1
499,500,1580728776664,-0.2537,-0.1604,-1.3392998999999999,-0.16257587,1.9682732,7.969809,-1
500,501,1580728776673,-0.102699995,-0.2888,-1.5841999,0.33349314,2.0126904999999997,8.148992,-1
501,502,1580728776683,0.4732,-0.18679999,-1.0847,0.5631736999999999,2.0677667,8.467908,-1
502,503,1580728776694,0.3414,-0.13949999,-0.71379995,0.38928762,2.0888932000000002,8.910252,-1
503,504,1580728776705,0.012,-0.2156,-0.4222,0.14358507,2.0015812,9.14563,-1
504,505,1580728776714,0.012,-0.2156,-0.4222,-0.14524186,1.8700439999999998,9.22958,-1
505,506,1580728776724,-0.3831,-0.35979998,-0.41979998,-0.27414566,1.8317751,9.153225,-1
506,507,1580728776734,-0.40609998,-0.3696,-0.2184,-0.30478188,1.8038682000000001,9.353629,-1
507,508,1580728776744,-0.40609998,-0.3696,-0.2184,-0.3114282,1.8945221999999997,9.523225,-1
508,509,1580728776754,-0.3269,-0.096599996,0.0279,-0.23091596,2.038184,9.607788000000001,-1
509,510,1580728776764,-0.2316,0.1695,0.0156,-0.07006392,2.3283803,9.592638,-1
510,511,1580728776774,0.2043,0.3599,-0.1223,0.32737356,2.4848845,9.470782,-1
511,512,1580728776784,0.8161,0.6719,-0.1804,1.0835199,2.8521072999999997,9.426652,-1
512,513,1580728776794,1.2166,0.92359996,-0.0614,1.4626848999999997,3.088549,9.566243,-1
513,514,1580728776805,1.2709999,1.0215,0.12529999,1.4235923000000001,3.1536999,9.7789545,-1
514,515,1580728776815,1.0218999,0.9801,0.3002,1.1682076000000001,3.075218,9.900876,-1
515,516,1580728776825,0.62509996,0.857,0.38509998,0.7151481,2.9362776000000004,9.989874,-1
516,517,1580728776836,0.0576,0.6261,0.3816,0.1149121,2.6328366,9.942639999999999,-1
517,518,1580728776846,-0.50589997,0.2615,0.19319999,-0.518019,2.2597337000000004,9.691231,-1
518,519,1580728776856,-0.85819995,0.1138,-0.1008,-0.7365714,2.1876109,9.407795,-1
519,520,1580728776866,-0.8422,0.0871,-0.44219998,-0.5836872,2.2170308,9.09947,-1
520,521,1580728776877,-0.6107,0.23689999,-0.46969998,-0.34983116,2.3786585,9.1773205,-1
521,522,1580728776887,-0.426,0.2658,-0.31219998,-0.14514609,2.3617937999999996,9.322141,-1
522,523,1580728776897,-0.2262,0.266,-0.18679999,0.028414385,2.344134,9.475723,-1
523,524,1580728776907,-0.1671,0.2861,0.043899997999999996,0.059826314000000005,2.3510103,9.688606,-1
524,525,1580728776918,-0.23799999,0.25169998,0.26389998,-0.09423578,2.2843366,9.896336999999999,-1
525,526,1580728776928,-0.40829998,0.1379,0.4156,-0.4176733,2.0292583,10.179753,-1
526,527,1580728776938,-0.73399997,-0.0379,0.6759999999999999,-0.7181935,1.9047215,10.384381,d
527,528,1580728776948,-0.93289995,-0.17889999,0.91789997,-0.7680312,1.8067412,10.534133,-1
528,529,1580728776958,-0.5825,-0.3436,0.93539995,-0.084907964,1.5618048,10.549887,-1
529,530,1580728776968,-0.0713,-0.4312,1.1003,0.38295734,1.5519503000000001,11.018489,-1
530,531,1580728776979,0.5604,-0.315,1.9304999,0.9764129,1.664018,11.89039,-1
531,532,1580728776989,0.7967,-0.0709,2.7976,0.8247163000000001,2.2038436000000003,13.186323999999999,-1
532,533,1580728776999,0.43449998,0.61399996,4.1628,0.42168593,2.8376558,14.689070000000001,-1
533,534,1580728777010,0.1784,1.0347998999999999,5.5768,0.3388466,2.6914275,15.895832999999998,-1
534,535,1580728777020,0.2522,0.67289996,6.5239997,0.68673366,2.197178,16.128635,-1
535,536,1580728777030,0.6789,0.1696,6.154,1.0710701,1.6557342000000002,14.988517000000002,-1
536,537,1580728777040,0.89839995,-0.266,5.2117,1.17449,1.5570738000000002,14.688560999999998,-1
537,538,1580728777050,0.98109996,-0.3381,5.1247997000000005,1.2046953,1.6494613,15.170419,-1
538,539,1580728777060,0.92689997,-0.33429998,5.7128997,1.0753796,1.6400186,16.159414,-1
539,540,1580728777071,0.8171,-0.38459998,6.7626,0.9803011,1.7644596000000001,16.789568,-1
540,541,1580728777082,0.6932,-0.2483,7.1608996,0.74662703,1.9449824,16.238003,-1
541,542,1580728777092,0.49289998,-0.1634,6.4480996,0.63611066,1.8952403999999998,15.171099,-1
542,543,1580728777102,0.4235,-0.3231,5.3577,0.47700158,1.7748599999999999,14.188958999999999,-1
543,544,1580728777113,0.25149998,-0.6325,4.2316,0.13896903,1.4387524,12.966766,-1
544,545,1580728777123,0.0198,-0.95019996,3.4422,0.0012066776,1.3786293,12.474768,-1
545,546,1580728777133,0.029199999,-1.4965,2.6766,0.106034406,1.1127387,12.136343,-1
546,547,1580728777143,0.029199999,-1.4965,2.6766,0.20086396,1.0466492,11.888494999999999,-1
547,548,1580728777154,0.1265,-1.6819998999999999,2.4545999,0.16225027,0.8940332000000001,11.735103,-1
548,549,1580728777164,0.0646,-1.9842,2.3121998,-0.017956512,0.82933235,11.503392,-1
549,550,1580728777174,-0.0145,-2.1385999,2.1417,-0.035261802,0.9293908000000001,11.083305000000001,-1
550,551,1580728777184,0.055499997,-2.2087,0.90929997,-0.0019440917999999998,0.984218,9.99358,-1
551,552,1580728777194,0.1814,-2.4698,-0.0039999996999999995,0.076997526,0.87201613,9.228633,-1
552,553,1580728777204,0.27359998,-2.7247,-1.0310999,0.11625286,0.75123346,8.142728,-1
553,554,1580728777214,0.27359998,-2.7247,-1.0310999,-0.021001939,0.71371156,7.0329103,-1
554,555,1580728777225,0.1889,-2.8795,-2.6757,-0.11033439,0.87750363,6.3901625,-1
555,556,1580728777235,0.0444,-2.7549,-2.9422,-0.31486624,1.1218176000000002,6.065442,-1
556,557,1580728777245,-0.074499995,-2.5084,-3.3939,-0.49803227,1.5007335,5.563397,-1
557,558,1580728777256,0.2962,-2.1698,-4.0502,-0.14340311,2.0575194,4.632838,-1
558,559,1580728777267,0.6644,-1.8002,-5.1453,0.14106636,2.5197057999999997,3.4656644,-1
559,560,1580728777277,0.82919997,-1.5848999,-6.0817,0.1305223,2.8681962000000003,2.2844896,-1
560,561,1580728777287,0.71889997,-1.5221,-7.1155,-0.20360291,3.0156598,1.1445625,-1
561,562,1580728777297,0.27899998,-1.4449999,-8.0711,-0.6870114,3.1989982000000006,0.40186197,-1
562,563,1580728777308,-0.17119999,-1.263,-8.7248,-1.1265295,3.4909375,-0.31342018,-1
563,564,1580728777318,-0.18159999,-1.0143,-9.3526,-1.0829262,4.0968237,-1.3044186000000002,-1
564,565,1580728777328,-0.0444,-0.49249998,-10.1413,-1.0697868000000001,4.516901,-1.9405675,-1
565,566,1580728777339,-0.0418,-0.0105,-11.2584,-1.1119822,5.1109123,-3.245666,-1
566,567,1580728777349,-0.0607,0.2294,-12.050099000000001,-1.1405498,5.3042865,-3.9758592000000004,-1
567,568,1580728777359,0.1334,0.2899,-12.568399000000001,-0.75004596,5.368738700000001,-4.3039513,-1
568,569,1580728777369,0.7739,0.2314,-12.628799,0.0947242,5.1779113,-4.285591999999999,-1
569,570,1580728777380,1.4153,-0.102,-12.505799,0.66471654,4.457008,-3.8480184,-1
570,571,1580728777390,1.7507,-0.7944,-12.0261,0.40449557,3.7445505,-3.231703,-1
571,572,1580728777400,1.2925999,-1.4322,-11.4444,-0.7159045999999999,3.458769,-2.833921,-1
572,573,1580728777411,0.0836,-1.6034,-11.1349,-1.8904617,3.4657697999999995,-2.8224382,-1
573,574,1580728777421,-1.0193,-1.5299,-11.232999999999999,-2.2061898999999996,3.4215155,-3.115,-1
574,575,1580728777431,-1.0827,-1.5536,-11.5722,-1.3031448,3.377098,-3.4377959000000002,-1
575,576,1580728777441,-0.0806,-1.5163,-11.9183,0.04309563,3.2070906000000003,-3.6135113,-1
576,577,1580728777451,1.2886,-1.6687,-12.1544,1.2096082000000001,2.5000925,-3.6837091,-1
577,578,1580728777461,2.2884998,-2.4092999,-12.2126,1.6541348000000002,1.3916344999999999,-3.3710074,-1
578,579,1580728777472,2.5967,-3.3744998,-11.9254,1.5794836,0.6618148,-3.2546492000000002,-1
579,580,1580728777482,2.365,-4.0481,-11.967199,1.0728418,-0.12879847,-3.2962413,-1
580,581,1580728777492,1.9016,-4.481,-12.0426,0.15962622,-0.32118696,-3.1852174,-1
581,582,1580728777502,1.1328,-4.4061,-12.034599,-0.6831998,-0.46533704,-2.2514498,-1
582,583,1580728777513,0.32439998,-4.3475,-11.189199,-0.72279036,-0.92153776,-1.064194,-1
583,584,1580728777524,0.29369998,-4.5910997,-10.0932,-0.19854635,-1.2019371,-0.64858925,-1
584,585,1580728777533,0.8134,-4.6526,-9.7602,0.9401360000000001,-2.0192218,0.34226552,-1
585,586,1580728777544,2.8283,-5.964299700000001,-8.0843,1.9161848999999997,-2.9751978,1.207099,-1
586,587,1580728777554,2.8283,-5.964299700000001,-8.0843,2.3818188,-3.9613504,1.6915799999999999,-1
587,588,1580728777564,3.2949,-7.0200996,-7.5657997,2.1827363999999996,-5.3750596,2.446175,-1
588,589,1580728777574,2.0204,-7.632899799999999,-5.5754,1.3174238,-5.435556,3.9588315,-1
589,590,1580728777584,0.97889996,-7.6236997,-2.7775998,0.35694674,-5.7541957,6.8299389999999995,-1
590,591,1580728777594,-0.35999998,-7.888,-0.4226,-0.8965711,-6.3529186,9.258646,-1
591,592,1580728777605,-1.4541998999999999,-8.6455,1.5719,-1.9609851999999999,-7.728300999999999,11.765787,-1
592,593,1580728777615,-1.6151999,-9.632299,3.9134998,-1.8031211999999999,-9.009707,14.132044,-1
593,594,1580728777625,-0.7181,-9.83,6.3577,-0.89213705,-9.364336,16.157308999999998,-1
594,595,1580728777635,1.2638999,-8.9618,9.2484,1.6974124,-8.679986,19.535267,-1
595,596,1580728777645,3.2763,-7.0769,11.1339,3.626095,-6.918620599999999,21.165948999999998,-1
596,597,1580728777655,4.5663,-5.1050997,12.365299,4.786574400000001,-5.6101127,22.451597,-1
597,598,1580728777666,4.1911,-4.6498,12.890599,3.8758199999999996,-5.606416,22.334003,-1
598,599,1580728777676,1.4654,-4.7388,10.6949,1.1162918,-6.0901885,20.090475,-1
599,600,1580728777686,-0.41709998,-5.3486,10.258699,-0.34989822,-6.934039,20.152847,-1
600,601,1580728777696,-0.9702,-5.3475,11.329499,-0.61651653,-6.9396224,21.158825,-1
601,602,1580728777706,-0.4664,-4.5375,12.1805,0.23026474,-6.385039,21.998652,-1
602,603,1580728777717,1.0999,-3.9536998,13.163799,2.2616491,-5.791995,22.794216,-1
603,604,1580728777727,2.45,-2.7823,12.9619,3.2948525,-4.736315,22.063526,-1
604,605,1580728777737,2.9032,-1.8759999,11.767699,3.3364062000000003,-4.387212,20.870964,-1
605,606,1580728777747,1.9136,-1.3435,9.5021,1.6209223999999998,-3.9048279999999997,17.797777,-1
606,607,1580728777758,0.049399998,-0.86259997,7.0864,-0.08222646,-3.7914577000000005,15.9100065,-1
607,608,1580728777768,-1.0155,-0.7158,6.1228,-0.64068836,-3.6433910000000003,15.329633,-1
608,609,1580728777778,-0.8032,-0.21609999,6.3202,0.03161304,-3.3133166,16.1025,-1
609,610,1580728777788,0.0547,0.0543,7.9186997,0.8435347,-3.4421532,17.777292000000003,-1
610,611,1580728777798,0.5864,-0.1338,9.3313,1.1864803,-3.8622687000000004,19.009445,-1
611,612,1580728777809,0.7162,-0.2953,10.2985,1.0760118,-4.391962,19.919748000000002,-1
612,613,1580728777819,0.4619,-0.7241,11.2647,0.5617371999999999,-4.843336,20.49298,-1
613,614,1580728777829,-0.5035,-1.0586,11.6521,-0.6218125,-5.3404107000000005,20.431839,-1
614,615,1580728777839,-1.7793,-1.4899,11.1188,-2.2533557,-5.770524,19.260576,-1
615,616,1580728777850,-3.1446998,-1.5086,9.8194,-3.2201343,-5.4832964,17.428045,-1
616,617,1580728777860,-3.6518,-1.1908,8.2484,-2.8018959999999997,-5.035054,15.829428,-1
617,618,1580728777870,-3.0605998,-0.7173,6.6768,-1.8923387999999999,-4.487194000000001,14.458766,-1
618,619,1580728777880,-1.7427,-0.18969999,5.3961997,-0.16314089999999998,-4.0265875,13.608164000000002,-1
619,620,1580728777891,-0.3542,0.2559,4.6274,0.7286800999999999,-3.7266707,13.408401500000002,-1
620,621,1580728777901,0.4657,0.5133,4.5975,1.078559,-3.6492516999999998,13.6442585,-1
621,622,1580728777911,0.7119,0.54789996,4.9223,0.8626117,-3.7029011,14.035777,-1
622,623,1580728777921,0.4177,0.49749997,5.2149997,0.35908237,-3.7559660000000004,14.101895,-1
623,624,1580728777931,-0.0824,0.40469998,5.1686997,-0.07889373599999999,-3.8691735,13.527277999999999,-1
624,625,1580728777941,-0.4895,0.2863,4.4581,-0.35094208,-3.9029126000000005,12.676972,-1
625,626,1580728777951,-0.7301,0.29099998,3.2703,-0.36446455,-3.697969,11.470419,-1
626,627,1580728777961,-0.547,0.43469998,2.1378999,0.045757982999999995,-3.5203671,10.425293,-1
627,628,1580728777972,-0.22489999,0.5185,1.329,0.3067164,-3.4471142,10.000131,-1
628,629,1580728777982,0.0839,0.5099,1.0131,0.74140763,-3.4586828,10.036302000000001,-1
629,630,1580728777992,0.4619,0.4612,1.0344,0.8980938,-3.4543254,10.178135000000001,-1
630,631,1580728778002,0.6527,0.42819998,1.1956999,0.87612456,-3.4892519999999996,10.212439,-1
631,632,1580728778012,0.6192,0.35599998,1.1905,0.48746905,-3.6369839,10.166834,d
632,633,1580728778022,0.1955,0.14019999,1.0948,-0.19541475,-3.8650746,9.935659,-1
633,634,1580728778033,-0.48529997,-0.13419999,0.7897,-0.79726917,-4.0286655,9.37647,-1
634,635,1580728778043,-1.0174,-0.32909998,0.15779999,-1.0281469,-4.048403700000001,8.724988,-1
635,636,1580728778053,-1.1696,-0.4006,-0.3868,-0.95392656,-4.0237913,8.480157,-1
636,637,1580728778063,-1.0850999,-0.4403,-0.6556,-0.8306730999999999,-3.9264523999999996,8.412995,-1
637,638,1580728778073,-0.6188,-0.336,-0.6559,-0.516142,-3.8265279999999997,8.52308,-1
638,639,1580728778084,-0.0931,-0.2367,-0.4057,0.09640971599999999,-3.6326837999999997,8.870431,-1
639,640,1580728778094,0.3193,0.0154,0.0624,0.39104015,-3.4084716,9.265877,-1
640,641,1580728778104,0.5828,0.1617,0.6493,0.62345016,-3.2259952999999997,9.866964999999999,-1
641,642,1580728778114,0.49719998,0.1593,0.9809,0.4595718,-3.225124,10.257717999999999,-1
642,643,1580728778124,0.1295,-0.041699997999999995,1.2430999,0.14315411,-3.3694462999999995,10.479899000000001,-1
643,644,1580728778134,-0.43159997,-0.3213,1.7308999,-0.5615648,-3.6644212999999994,11.152316,-1
644,645,1580728778144,-0.6409999999999999,-0.5572,2.8285,-0.66378766,-3.8138006,12.0892725,-1
645,646,1580728778154,-0.3099,-0.4626,4.1738,-0.34995568,-3.697835,13.437514000000002,-1
646,647,1580728778165,-0.038,-0.23719999,5.4714,-0.06974789,-3.4209120000000004,14.9866495,-1
647,648,1580728778175,0.17999999,-0.1337,6.4933996,0.06744945,-3.3244257000000004,15.775127,-1
648,649,1580728778185,0.1104,-0.131,7.0702996,-0.16504669,-3.2861089999999997,16.475796,-1
649,650,1580728778196,-0.22559999,-0.3617,7.4456,-0.5386858,-3.5106275,16.771729,-1
650,651,1580728778206,-0.5177,-0.6024,7.2365,-0.87440073,-3.6360934,16.460989,-1
651,652,1580728778216,-0.57019997,-0.7181,6.5775,-0.9424056999999999,-3.6358635,15.846627,-1
652,653,1580728778226,-0.7962,-0.75659996,6.4904,-1.2990171999999998,-3.6187498999999996,16.022343,-1
653,654,1580728778236,-1.2593,-0.92399997,7.6217,-2.0783203,-3.7944458,17.627205,-1
654,655,1580728778246,-1.8594998999999999,-1.1636,9.11,-2.7008509999999997,-3.9502604,18.98198,-1
655,656,1580728778257,-2.2402,-1.4964,9.9873,-3.2168972,-4.3193407,19.594894,-1
656,657,1580728778267,-3.0016,-2.1764997999999998,10.0223,-4.0407996,-4.879402,19.07589,-1
657,658,1580728778277,-3.2373998,-2.6251,8.7135,-3.9865375,-5.0273447,17.55171,-1
658,659,1580728778287,-2.7567,-2.7868,7.0944996,-3.4720426,-4.921033,16.061357,-1
659,660,1580728778297,-2.1078,-2.738,5.7681,-2.8028345,-4.488841000000001,14.916748000000002,-1
660,661,1580728778308,-1.3603,-2.3128998,4.6784,-2.096047,-3.7594712,13.889606,-1
661,662,1580728778317,-0.5926,-1.9473,3.8372,-1.5277114,-3.3581838999999998,13.364309,-1
662,663,1580728778327,-0.1488,-1.8226999,3.1671999,-1.1416128,-2.9303305,12.525486,-1
663,664,1580728778337,0.072399996,-1.7816999,2.2769,-0.99110377,-2.7276852000000003,11.776954,-1
664,665,1580728778347,0.1829,-1.7234,1.0986,-0.95745087,-2.3343084,10.243277,-1
665,666,1580728778357,0.16129999,-1.6266999,-0.3676,-0.9427888000000001,-1.9210212,8.799544000000001,-1
666,667,1580728778367,0.2463,-1.4296,-1.8578,-0.8102553000000001,-1.5147538999999999,7.385786500000001,-1
667,668,1580728778377,0.3127,-1.4182,-2.9599,-0.80635756,-1.3597723999999998,6.526096,-1
668,669,1580728778388,0.1355,-1.4836,-3.6346,-1.0119907,-1.1934329,5.957722,-1
669,670,1580728778398,-0.2545,-1.4541998999999999,-4.3138,-1.5531954,-0.9263933000000001,5.207561,-1
670,671,1580728778409,-0.70199996,-1.4864998999999999,-4.8229,-2.068418,-0.79664665,4.684055,-1
671,672,1580728778420,-1.1506,-1.4095,-5.212999999999999,-2.4465008,-0.37354332,4.2128854,-1
672,673,1580728778430,-1.3219999,-1.0612999,-5.6914997000000005,-2.309313,0.10898406,3.712995,-1
673,674,1580728778440,-1.0856999,-0.7252,-6.2096995999999995,-1.9679476000000002,0.55710196,3.1484327000000003,-1
674,675,1580728778450,-0.7545,-0.50729996,-6.5916996,-1.3983573999999999,0.7827124,3.0058246,-1
675,676,1580728778461,-0.1672,-0.34899998,-6.6721,-0.6072941,1.0718075,3.192304,-1
676,677,1580728778471,0.6976,-0.1259,-6.3831,0.6760172,1.4607983,3.7110796,-1
677,678,1580728778481,1.933,0.27789998,-5.9006996,1.7252234,1.9706578000000001,3.9693086,-1
678,679,1580728778491,2.8697,0.7072,-5.6254,2.2522256,2.0758781,4.2785915999999995,-1
679,680,1580728778501,3.245,0.7026,-5.370199700000001,2.071425,1.8467243999999998,4.2300949999999995,-1
680,681,1580728778512,2.9315,0.4351,-5.4776,1.3931572,1.5520843,4.09351,-1
681,682,1580728778521,2.2402,0.13239999,-5.5656,0.86255425,1.1080557,4.332605,-1
682,683,1580728778532,1.7213999,-0.32,-5.2819,0.37686652,0.6735846999999999,4.46713,-1
683,684,1580728778542,1.2294999,-0.7517,-5.2149,-0.023635559,0.28959304,4.4170914,-1
684,685,1580728778552,0.89089996,-1.0837,-5.2558,-0.21547815,0.093182325,4.539981,-1
685,686,1580728778564,0.6538,-1.3072,-5.1394,-0.41032785,-0.09907207,4.288158999999999,-1
686,687,1580728778574,0.2856,-1.6092,-5.6693997000000005,-0.55254346,-0.21333295,4.0071273000000005,-1
687,688,1580728778584,0.6116,-1.4814,-5.9055,-0.07057149,-0.030913932,3.7125738,-1
688,689,1580728778594,1.3603,-1.2228999,-5.9955997000000005,0.5740434,0.18960163,3.6878176,-1
689,690,1580728778604,1.7761999,-0.9862,-5.3422,1.010899,0.42114007,4.345600599999999,-1
690,691,1580728778614,1.7761999,-0.9862,-5.3422,0.8518474,0.4613435,5.005269999999999,-1
691,692,1580728778624,1.5128,-0.91719997,-4.5431,0.1998488,0.4392977,5.6394462999999995,-1
692,693,1580728778634,0.2349,-1.0806999,-3.3578,-0.7118345,0.17665377,6.564106,-1
693,694,1580728778644,-0.59099996,-1.2952,-2.8144,-1.3702973,-0.048860867,6.9557304,-1
694,695,1580728778655,-0.8146,-1.4216,-2.5056998999999998,-1.363632,-0.13273454,7.2695336,-1
695,696,1580728778665,-0.3721,-1.2178,-2.2747,-0.7999889,0.13412319,7.4946656,-1
696,697,1580728778675,0.1081,-0.96889997,-1.9452,-0.33981383,0.32336086,7.8539295,-1
697,698,1580728778685,0.2981,-0.8379,-1.6744,-0.1575289,0.44192174,8.100781,-1
698,699,1580728778695,0.392,-0.5553,-1.3642,-0.104109466,0.73060507,8.425866000000001,-1
699,700,1580728778705,0.23279999,-0.2241,-1.0833,-0.31980790000000003,1.0119141,8.687362,-1
700,701,1580728778716,0.23279999,-0.2241,-1.0833,-0.5649837,1.0509203999999999,8.77064,-1
701,702,1580728778725,-0.2581,-0.2277,-0.78529996,-0.73531675,0.9219209,8.949622,-1
702,703,1580728778735,-0.3166,-0.4534,-0.3369,-0.78432137,0.67673546,9.402116,-1
703,704,1580728778746,-0.4881,-0.5166,0.1019,-0.9681290000000001,0.62421626,9.894631,-1
704,705,1580728778756,-0.4757,-0.3515,0.1493,-0.91235363,0.7497395,9.898405,-1
705,706,1580728778766,-0.0176,-0.044099998,-0.116299994,-0.36513492,1.1140891000000002,9.569931,-1
706,707,1580728778777,0.25869998,0.22639999,-0.4405,-0.16365805,1.4070724,9.174246,-1
707,708,1580728778787,0.3081,0.4711,-0.6569,-0.10086293,1.5862257,9.102076,-1
708,709,1580728778797,0.3624,0.47289997,-0.57949996,-0.073741406,1.4993545,9.186791,-1
709,710,1580728778808,0.3286,0.3962,-0.5123,-0.0380295,1.4549947,9.263319000000001,-1
710,711,1580728778818,0.5489,0.41619998,-0.46499997,0.24978228,1.4311962999999999,9.294205,-1
711,712,1580728778829,0.70769995,0.3399,-0.3493,0.32938470000000003,1.3799987,9.47942,-1
712,713,1580728778839,0.713,0.4159,0.0503,0.39734169999999996,1.4480898000000002,10.056596,-1
713,714,1580728778849,0.77099997,0.45659998,0.5184,0.39950606,1.4925643999999998,10.632055000000001,-1
714,715,1580728778860,0.7014,0.4876,1.0945,0.28295633,1.4558566000000002,11.122303,-1
715,716,1580728778870,0.5531,0.4567,1.4354999,0.15207012,1.3291267,11.153608,-1
716,717,1580728778880,0.5251,0.3317,1.2574999,0.27495015,1.2611504999999998,10.813671000000001,-1
717,718,1580728778890,0.6155,0.29819998,0.9429,0.31821814,1.2275358,10.670392,-1
718,719,1580728778900,0.6461,0.2311,0.9032,0.33201832,1.1350911,10.683023,-1
719,720,1580728778910,0.6145,0.0132,0.9324,0.30673555,0.8639238000000001,10.631453500000001,-1
720,721,1580728778920,0.58169997,-0.13059999,0.75619996,0.26318982,0.786907,10.102841,-1
721,722,1580728778931,0.528,-0.17109999,0.24689999,0.19591273,0.72955155,9.842725999999999,-1
722,723,1580728778941,0.41489998,-0.2511,0.070999995,-0.056503158,0.7781443,9.7852745,-1
723,724,1580728778951,0.1679,-0.1787,0.0026999997999999996,-0.22725762,0.83880377,9.731894,-1
724,725,1580728778963,0.0056,-0.1602,-0.0365,-0.39504328,0.75461406,9.816122,-1
725,726,1580728778972,-0.1436,-0.2259,0.0513,-0.5624746,0.6975555,9.958155999999999,-1
726,727,1580728778982,-0.3529,-0.31039998,0.2078,-0.5189288,0.57458925,9.971361,-1
727,728,1580728778992,-0.2438,-0.4073,0.2173,-0.26766217,0.50736964,10.341151,-1
728,729,1580728779002,-0.031999997999999995,-0.47709998,0.5701,-0.24268587,0.5847215,10.5085535,-1
729,730,1580728779013,-0.0069,-0.3529,0.73679996,-0.12353123,0.871183,10.313139,-1
730,731,1580728779023,0.0909,-0.1248,0.5412,0.11822568,1.1667615,9.929578,-1
731,732,1580728779033,0.30159998,0.1697,0.15959999,0.35421735,1.3698186,9.448468,-1
732,733,1580728779044,0.5362,0.3658,-0.3198,0.48648265,1.478908,8.995858,-1
733,734,1580728779054,0.76879996,0.42119998,-1.1031,0.5884086,1.4413764,8.664041000000001,-1
734,735,1580728779064,0.76879996,0.42119998,-1.1031,0.47136083,1.4162086,8.759771,-1
735,736,1580728779075,0.4438,0.35,-0.7608,0.23048502,1.3456659,9.087154,-1
736,737,1580728779086,0.1884,0.3636,-0.4386,0.025857377999999997,1.3615441000000001,9.322552,-1
737,738,1580728779096,0.1909,0.4675,-0.4793,0.074689515,1.4899212,9.297661999999999,d
738,739,1580728779106,0.4437,0.66819996,-0.4416,0.43703756,1.6614611000000001,9.315723,-1
739,740,1580728779116,0.8584,0.7888,-0.5214,0.7849246999999999,1.7714793999999998,9.216077,-1
740,741,1580728779126,1.2833999,0.95769995,-0.68939996,1.2142625,1.9034096,9.04538,-1
741,742,1580728779137,1.79,0.96239996,-0.7987,1.8886324,1.9255798,8.974703,-1
742,743,1580728779147,2.4868999,1.099,-0.7808,2.5750406000000003,2.0442364,9.082633999999999,-1
743,744,1580728779157,2.9055,1.1732,-0.50839996,2.7086754,2.046056,9.406837,-1
744,745,1580728779167,2.6727,1.1457,-0.0206,2.3639963,1.9465243000000003,10.064017,-1
745,746,1580728779177,2.3711,1.0926,0.7905,2.1750748,1.9248328000000001,10.706064999999999,-1
746,747,1580728779187,2.4651,1.369,1.298,2.4185555,2.252618,11.303658500000001,-1
747,748,1580728779198,2.9738998,1.5654,1.7571,3.0835977000000003,2.3744066000000004,11.577459,-1
748,749,1580728779208,3.7793,1.6632999,1.6286,4.042571,2.4088447,11.261367,-1
749,750,1580728779218,4.8866997,1.6592,1.4416,5.453474,2.4495652000000003,11.412977,-1
750,751,1580728779228,5.9609,1.749,1.7840999,6.0136695,2.5099854,11.783791,-1
751,752,1580728779238,6.2009,1.7391,2.4598,5.775111,2.372692,13.042174000000001,-1
752,753,1580728779248,5.7623,1.5861,3.8709,5.301451999999999,2.1645212000000003,14.278521,-1
753,754,1580728779260,5.0841,1.2708,5.3511,4.531611,1.7829621,15.678324,-1
754,755,1580728779270,4.3348,0.8185,6.3127,3.6224751000000004,1.2215695,15.910017000000002,-1
755,756,1580728779280,3.5518,0.27199998,5.7461,2.7029486,0.46889004,14.588885000000001,-1
756,757,1580728779290,2.8655,-0.40269998,4.5635,2.0753706000000003,-0.10446381,13.707561499999999,-1
757,758,1580728779300,2.2624,-0.99759996,3.8135998,1.5704048000000002,-0.4858697,13.385838,-1
758,759,1580728779311,1.604,-1.5030999,3.6327998999999997,0.9957005999999999,-0.72562504,13.571407999999998,-1
759,760,1580728779321,1.0354,-1.6205,4.1973,0.42885897,-0.7459661999999999,14.688560999999998,-1
760,761,1580728779331,0.7715,-1.6948999,5.0462,-0.068569936,-0.8872624,15.101964,-1
761,762,1580728779341,0.2157,-1.9293,5.3564,-0.80517966,-1.066454,14.964096,-1
762,763,1580728779351,-0.76489997,-2.2293,5.1189,-2.1562563999999997,-1.5059432,14.871286999999999,-1
763,764,1580728779361,-1.8819,-2.7045,5.1182,-3.2497075,-1.8474903999999999,14.480495999999999,-1
764,765,1580728779372,-2.8464,-3.0674,4.5896,-3.9169523999999996,-1.9114444,13.886476000000002,-1
765,766,1580728779382,-3.4819,-3.2152998,4.112,-4.4945393,-1.9906542,13.478933999999999,-1
766,767,1580728779392,-4.0373,-3.3967998,3.6169,-4.610514,-1.8823788000000001,12.722471,-1
767,768,1580728779402,-3.9273998999999997,-3.2236998,2.7026,-4.131396,-1.3097241000000002,12.214145,-1
768,769,1580728779412,-3.6167,-2.9417999,2.5549998,-4.6518955,-1.0321596,12.709026,-1
769,770,1580728779422,-4.1394997,-2.7803,3.0651,-5.429982,-0.9601514999999999,12.969936,-1
770,771,1580728779433,-5.1226997,-2.7935998,3.3513,-6.876272,-0.8489935,12.943543,-1
771,772,1580728779443,-6.3623,-2.8265998,3.3465998,-8.003461999999999,-0.64801466,12.644076,-1
772,773,1580728779453,-7.7221,-2.6532,2.2354998999999998,-8.174781,-0.3615053,11.766505,-1
773,774,1580728779463,-7.7221,-2.6532,2.2354998999999998,-7.790301299999999,-0.28524518,10.9406395,-1
774,775,1580728779473,-7.4076996,-2.7598999,1.4549999,-7.4205312999999995,-0.36450285,9.883848,-1
775,776,1580728779483,-6.6926,-3.2129,-0.37799999999999995,-6.9288387,-0.37097678,9.019112,-1
776,777,1580728779494,-6.3571,-3.2805998,-0.0162,-6.5675445,-0.2790011,9.319919,-1
777,778,1580728779504,-6.9017,-3.1425998,0.96989995,-7.088790400000001,5.7460842000000005e-05,10.270684,-1
778,779,1580728779514,-7.0074,-3.4385,1.7404,-7.1676173,-0.25570074,11.093064,-1
779,780,1580728779525,-6.9665,-3.8370998,1.9950999,-7.182949499999999,-0.49046660000000003,11.139416,-1
780,781,1580728779535,-7.0688,-4.3175,1.1882,-7.3104844,-0.8320521000000001,10.036953,-1
781,782,1580728779545,-7.1956,-4.7457,-0.1682,-7.4632053,-1.087456,8.682955,-1
782,783,1580728779555,-7.3931,-5.0947,-1.1744,-7.635041999999999,-1.237199,7.6222095,-1
783,784,1580728779566,-7.3431997,-5.3665,-2.1566,-7.523051,-1.3261962,6.577571400000001,-1
784,785,1580728779576,-7.1689997000000005,-5.6524,-3.0296,-7.3757787,-1.4302962,5.8316336,-1
785,786,1580728779586,-6.7299,-5.8483,-3.8653,-6.7695289999999995,-1.4648299999999999,4.729841,-1
786,787,1580728779596,-6.7299,-5.8483,-3.8653,-6.2062306,-1.3194348999999999,4.3274617,-1
787,788,1580728779607,-5.6342998,-5.5487,-4.3732,-5.6894279999999995,-0.67226315,4.2026286,-1
788,789,1580728779617,-5.3932,-5.2128,-4.5164,-5.500937,-0.31005868,3.9590902000000003,-1
789,790,1580728779627,-5.3188996,-4.9887,-4.8571,-5.429130000000001,-0.118647054,3.6528623,-1
790,791,1580728779638,-4.9469,-4.9702,-5.7943,-4.682876599999999,0.06307285,2.1557009999999996,-1
791,792,1580728779648,-4.0752997,-5.088,-6.8181,-3.8224676,0.018272547,1.3851318000000001,-1
792,793,1580728779658,-2.9879,-5.089299700000001,-7.7268996,-2.6752715,0.16221195,0.44001597,-1
793,794,1580728779668,-2.1801,-4.9477997,-8.005199000000001,-1.6548626,0.43531376,0.38003644,-1
794,795,1580728779678,-1.4758999,-4.723,-7.5021996,-0.62391937,0.9017904,1.2109298000000002,-1
795,796,1580728779689,-0.7981,-4.2565,-6.6417,-0.20545124,1.352724,1.8773414000000002,-1
796,797,1580728779699,-0.60929996,-3.6638,-5.7917,0.073147655,2.0582283,2.764326,-1
797,798,1580728779709,-0.49809998,-3.2515,-5.3359,0.2256583,2.2566693,2.6040007999999997,-1
798,799,1580728779720,-0.48389998,-3.0798,-5.8538,0.55302227,2.4398541000000002,1.7527183999999998,-1
799,800,1580728779730,-0.0734,-2.9805999,-6.8946,1.5444133,2.4391648999999997,0.49218082,-1
800,801,1580728779740,0.91459996,-3.0108,-7.9168997,2.7237206,2.4938962000000005,0.030827742,-1
801,802,1580728779750,1.9074999,-2.891,-7.9107,4.052904600000001,2.5691604999999997,0.8332588,-1
802,803,1580728779761,2.8408,-2.8506,-7.0376,5.029058999999999,2.5645924,1.9881451,-1
803,804,1580728779771,3.5949,-2.7439999999999998,-5.9055,5.820515,2.6755106,2.7115867000000002,-1
804,805,1580728779781,4.2135997000000005,-2.5205998,-5.3237,6.382434,2.8736742000000004,2.8220169999999998,-1
805,806,1580728779791,4.5992,-2.2770998,-5.3947997,6.624593300000001,2.7469919999999997,2.1906466,-1
806,807,1580728779801,4.6394,-2.3632998,-6.1334995999999995,7.023113,2.6435146,1.8879238,-1
807,808,1580728779811,5.0944,-2.2781,-6.2226996,8.463656,2.9397159,2.900585,-1
808,809,1580728779822,6.5572996,-1.8087,-5.0439997000000005,10.3448,3.3685462,4.43907,-1
809,810,1580728779832,8.2395,-1.2675999,-3.5523,12.016364,3.6749752,5.5085025000000005,-1
810,811,1580728779842,9.727099,-0.8049,-2.6753,13.044061,4.0872470000000005,5.73894,-1
811,812,1580728779853,10.6481,-0.0696,-2.7819998,13.582144,4.7930574,4.8780327,-1
812,813,1580728779863,10.8377,0.5319,-3.5282998,14.5155945,4.669919,5.237996,-1
813,814,1580728779873,11.7261,0.5548,-3.2357,15.585238,4.9533157,6.0381956,-1
814,815,1580728779884,13.3518,1.2008,-2.2900999,16.268074,5.0380707000000005,6.263260400000001,-1
815,816,1580728779894,13.7083,0.5123,-2.0407,16.694807,4.2375264,6.539465,-1
816,817,1580728779904,13.7083,0.5123,-2.0407,17.150585,3.2154417,6.5129375,-1
817,818,1580728779914,14.647699,-0.8075,-1.0439,17.883804,2.6676674,7.984404,-1
818,819,1580728779924,14.8229,-0.46359998,1.1068,17.998804,2.9116845000000002,9.764664999999999,-1
819,820,1580728779934,14.904098999999999,0.0218,2.5200999,18.088375,3.261803,11.23075,-1
820,821,1580728779944,15.142999999999999,0.1472,2.7968,18.310768,3.2846913,11.555719,-1
821,822,1580728779954,15.142999999999999,0.1472,2.7968,17.628439,3.0687919999999997,10.093409,-1
822,823,1580728779965,13.216598999999999,-0.86149997,-1.058,16.126844000000002,1.9172958999999998,7.347221,-1
823,824,1580728779975,13.216598999999999,-0.86149997,-1.058,15.077561,0.69440466,6.054572,-1
824,825,1580728779986,11.4255,-2.9131,-3.3407998,14.663557,0.11219229,5.4249544,-1
825,826,1580728779995,10.9268,-3.4067,-3.3618,14.205402,-0.42395565,5.395669,-1
826,827,1580728780005,9.968699,-3.7089999,-2.2818,13.24799,-0.7710574,6.485768,-1
827,828,1580728780015,8.891399,-3.9369998,-1.3413,11.881848,-1.1179006,7.603573,-1
828,829,1580728780025,7.5941997,-4.1126,-0.94579995,10.446735,-1.4366071000000002,7.925841999999999,-1
829,830,1580728780035,5.7995996,-4.5278,-1.2777,8.5231,-1.8796206999999998,7.4491086,-1
830,831,1580728780046,3.7666998,-4.7402997000000004,-2.2412999,6.462439,-2.100548,6.435969,-1
831,832,1580728780056,2.024,-4.7622,-3.5939,4.6065879999999995,-2.1471107000000003,4.823857,-1
832,833,1580728780066,2.024,-4.7622,-3.5939,3.7244873,-2.1327837000000005,4.101756,-1
833,834,1580728780076,0.1938,-4.7695,-5.5055,3.3274614999999996,-2.1864807999999996,3.4332566,-1
834,835,1580728780086,-0.0157,-4.95,-5.6698,3.06454,-2.4773762,3.4103584000000002,-1
835,836,1580728780096,-0.3301,-5.0726,-4.9927,2.6324537,-2.7430847000000003,4.2536345,-1
836,837,1580728780106,-1.0647,-5.2153,-4.245,1.6655983,-2.9877627,5.0454926,-1
837,838,1580728780116,-2.5892,-5.3689,-3.2835,0.09878476,-3.2213887999999997,5.964675,-1
838,839,1580728780126,-4.6513,-5.5439997000000005,-2.7289999,-2.4693508,-3.6126012999999997,6.393926,-1
839,840,1580728780137,-6.6355996,-5.8322,-2.787,-3.8928568,-3.9505190000000003,6.2889643,-1
840,841,1580728780147,-8.0226,-6.2307997,-3.0335999,-5.3297989999999995,-4.6124587,6.0086613,-1
841,842,1580728780157,-9.1107,-6.9277997000000004,-3.0393999,-6.360963,-5.5313144,6.213126,-1
842,843,1580728780167,-10.3645,-7.6362,-2.4874,-7.782736,-6.0435014,6.9894505,-1
843,844,1580728780177,-12.0092,-7.4721,-1.5033,-9.385701,-5.946287,8.172435,-1
844,845,1580728780188,-13.4569,-7.1263,-0.16899999999999998,-10.533884,-5.760162,9.266154,-1
845,846,1580728780198,-14.6071,-6.3977,0.9309,-11.527027,-5.2215047,10.622106,-1
846,847,1580728780208,-14.470799,-6.0919,2.1984,-10.999872,-5.3286595000000005,11.98025,-1
847,848,1580728780220,-13.782399,-6.1082,3.363,-10.387483999999999,-5.685099,12.958502000000001,-1
848,849,1580728780230,-13.311998999999998,-6.4556,4.198,-9.864177999999999,-6.3210277999999995,13.822962,-1
849,850,1580728780240,-13.056,-6.7921,5.1726,-10.106777000000001,-6.717804400000001,15.193470000000001,-1
850,851,1580728780250,-13.955,-6.6917995999999995,6.567199700000001,-11.4498005,-6.664232000000001,16.789234,-1
851,852,1580728780260,-15.371099,-6.3462,8.263,-12.706017999999998,-6.463023000000001,18.799597,-1
852,853,1580728780270,-16.1798,-5.9537997,9.9439,-12.755177,-6.388955999999999,20.44947,-1
853,854,1580728780281,-15.988,-5.645,11.543099,-12.133268,-6.4902787,21.595728,-1
854,855,1580728780291,-15.127398999999999,-5.4591,12.4464,-10.5717125,-6.2684703,21.251768,-1
855,856,1580728780301,-13.2423,-4.9434,11.7767,-8.428662,-5.940819,19.657324,-1
856,857,1580728780311,-11.1698,-4.4542,10.0812,-7.3101587,-5.691228,18.019606,-1
857,858,1580728780322,-10.0869,-3.9796,8.582,-6.22843,-4.9743085,17.830473,-1
858,859,1580728780332,-8.7827,-2.997,8.8498,-4.5142097,-4.0189166,19.72942,-1
859,860,1580728780342,-6.9459,-1.8679999,11.0153,-3.0299964,-3.2466908,21.812288,-1
860,861,1580728780352,-5.5277,-1.0184,12.8791,-2.418546,-3.0911155,22.354824,-1
861,862,1580728780362,-4.7879,-0.8649,12.9527,-1.937139,-3.3576187999999996,21.385298000000002,-1
862,863,1580728780373,-4.2297,-1.1525999,11.4367,-1.5587688999999998,-4.0996585,18.190119,-1
863,864,1580728780383,-3.8938,-1.6407,8.9794,-0.85722953,-4.4680976999999995,16.885988,-1
864,865,1580728780394,-1.0654,-1.6929,7.9157996,1.0254557,-4.260233,17.156801,-1
865,866,1580728780404,1.1788,-0.9952,9.3488,3.160308,-3.6117108,18.598523999999998,-1
866,867,1580728780415,3.2612,-0.22219999,11.2662,5.4723215,-2.8375504,20.86157,-1
867,868,1580728780426,4.6236997,-0.0997,12.6925,6.421479,-2.8077377999999995,21.955557000000002,-1
868,869,1580728780435,4.6236997,-0.0997,12.6925,6.575732,-3.2431471000000003,22.094326000000002,-1
869,870,1580728780446,4.6586,-1.4650999,11.9922,6.4077168,-4.320893,21.078093,-1
870,871,1580728780456,5.0136,-2.3005,10.912,6.8770185,-4.9795565999999996,19.841581,-1
871,872,1580728780466,5.6714,-2.6685998,9.5491,7.4563966,-5.111927,18.570387,-1
872,873,1580728780476,6.1443,-2.6592999,8.445499,7.8142242,-4.822841599999999,17.527224,-1
873,874,1580728780486,6.532099700000001,-2.2519,7.5745997,8.237414,-4.124491,16.631916,-1
874,875,1580728780497,7.2865,-1.7102,6.2517,9.000839,-3.5403636,15.012429000000001,-1
875,876,1580728780506,7.9873,-1.5031999,4.2338,9.332942999999998,-3.3236114999999997,13.78568,-1
876,877,1580728780516,8.2028,-1.349,1.9549999,9.539773,-2.9178900000000003,11.145401,-1
877,878,1580728780526,8.4904995,-1.3435999,-0.0041,9.784661999999999,-2.7202537,9.63037,-1
878,879,1580728780536,9.191299,-0.977,-1.4277999,10.635149,-2.0117613999999997,8.096242,-1
879,880,1580728780546,10.2864,-0.32549998,-1.6687,11.954182000000001,-1.0018585,8.238285000000001,-1
880,881,1580728780556,11.326099000000001,0.2753,-1.0117999,12.622652,-0.47975969999999996,8.844583,-1
881,882,1580728780568,11.8784,0.5367,-0.4978,13.074793,-0.101801455,9.290958,-1
882,883,1580728780578,12.0041,0.5908,-0.5491,12.998638,0.02510081,8.900052,-1
883,884,1580728780588,11.8111,0.4626,-1.0777,12.798272,-0.00794875,8.475359,-1
884,885,1580728780599,11.665899000000001,0.2149,-1.4757,12.7506275,-0.20203231,8.247632000000001,-1
885,886,1580728780609,11.6255,-0.0788,-1.3601999,12.655866,-0.3468049,8.716694,-1
886,887,1580728780619,11.5132,-0.3496,-0.8393,12.591499,-0.42601469999999997,9.082728999999999,-1
887,888,1580728780630,11.3684,-0.5049,-0.4522,12.357968,-0.45347136,9.364058,-1
888,889,1580728780640,10.9921,-0.79249996,-0.4349,11.802016,-0.7650336,9.006939,-1
889,890,1580728780650,10.221499,-1.249,-0.95559996,10.782478,-1.176367,8.402517,-1
890,891,1580728780660,9.369599000000001,-1.7493,-1.4176999,9.877787,-1.4850466999999998,8.01436,-1
891,892,1580728780670,8.4425,-2.1423,-1.7527,9.333211,-1.5358803,7.9382634,-1
892,893,1580728780681,7.6615,-2.26,-1.7249999,8.35201,-1.368315,8.101835000000001,-1
893,894,1580728780691,6.963299799999999,-2.1708,-1.5896,7.668992,-1.0176698,8.043818,-1
894,895,1580728780701,6.303999999999999,-1.9376999,-1.6693,7.0817323000000005,-1.0644717,8.089442,-1
895,896,1580728780711,5.7272997000000005,-2.1701999,-1.5321,6.441637999999999,-1.2848915,8.235795,-1
896,897,1580728780721,5.0432,-2.4561,-1.4521998999999999,5.8354454,-1.4219833999999998,8.228996,-1
897,898,1580728780732,4.5197997,-2.7079,-1.3810999,5.652959,-1.7935252,8.618772,-1
898,899,1580728780742,4.3262,-3.1871998,-0.9568,5.1160836,-2.0938058,8.767767999999998,-1
899,900,1580728780753,3.6492,-3.4917,-0.8477,3.803582,-2.2418635,9.044402999999999,-1
900,901,1580728780763,2.5211,-3.6833,-0.5832,2.4499772,-2.4015182999999998,9.369297,-1
901,902,1580728780773,1.1687,-3.9031,-0.2403,1.0930585,-2.1747396,9.418128999999999,-1
902,903,1580728780784,-0.19,-3.7461,-0.1893,0.22438458,-1.9142026,9.118939,-1
903,904,1580728780794,-1.87,-3.3667,-0.7344,-0.5615744,-1.6383905,8.833397999999999,-1
904,905,1580728780804,-2.0341,-3.3048,-0.92399997,-0.7049295999999999,-1.5003026000000002,8.637551,-1
905,906,1580728780814,-2.0341,-3.3048,-0.92399997,-0.8396082,-1.3565260000000001,8.269534,-1
906,907,1580728780825,-2.1611,-3.2240999,-1.2739999,-0.8621233,-1.1820078,7.9206414,-1
907,908,1580728780835,-2.1753,-2.968,-1.8039,-0.8521443000000001,-0.78587276,7.4646034,-1
908,909,1580728780845,-2.5555,-2.4031,-2.1546,-1.4160937,-0.30482978,7.347307000000001,-1
909,910,1580728780855,-3.0361,-2.1490998,-2.2184,-1.8671901000000002,-0.07619308,7.2979193,-1
910,911,1580728780865,-3.3441,-2.0922,-2.144,-2.2381284,0.07079176,7.369745699999999,-1
911,912,1580728780875,-3.8918998,-2.0091,-2.1367,-2.7065493999999997,0.15701175,7.361634,-1
912,913,1580728780885,-4.4244,-1.9706,-2.6373,-3.2549841,0.24318385,6.856553,-1
913,914,1580728780896,-4.8417,-2.0714,-3.0877,-3.7738267999999997,0.18829918,6.318518599999999,-1
914,915,1580728780906,-5.1672,-2.204,-3.3439998999999996,-4.106937,0.054865524000000006,6.010241000000001,-1
915,916,1580728780916,-5.3324,-2.4795,-3.7129,-4.2744737,-0.23143311,5.689993,-1
916,917,1580728780926,-5.7191997,-2.8279,-3.9203,-4.8971577,-0.5640739,5.534456,-1
917,918,1580728780937,-6.2763995999999995,-2.9936,-3.8674,-5.5013485,-0.658913,5.689351,-1
918,919,1580728780948,-6.6728,-2.9104,-3.503,-5.770025700000001,-0.452801,6.3126097,d
919,920,1580728780958,-6.7015996,-2.4833,-2.6197999,-5.707221,-0.025905262999999998,7.203827400000001,-1
920,921,1580728780968,-6.5964,-2.0808,-1.9128,-5.5907480000000005,0.41553766,7.838673599999999,-1
921,922,1580728780979,-6.3669996,-1.6774,-1.5586,-5.1344330000000005,0.76399934,8.013058000000001,-1
922,923,1580728780989,-5.7853,-1.3837,-1.5959999999999999,-4.504585,0.9805884,7.6315947,-1
923,924,1580728780999,-5.1656,-1.1230999,-2.1520998,-4.173706500000001,1.1238096000000002,7.242853,-1
924,925,1580728781009,-4.5533,-0.82129997,-2.7187,-3.1930223,1.424368,6.6941880000000005,-1
925,926,1580728781020,-4.5533,-0.82129997,-2.7187,-2.321916,1.4145998,7.104467999999999,-1
926,927,1580728781030,-2.8409998,-0.5948,-2.3336,-1.6565291000000002,1.6776363,7.679555000000001,-1
927,928,1580728781040,-2.2068,-0.2313,-1.604,-1.1322564,1.9474533,8.326066,-1
928,929,1580728781050,-1.6482999,0.0969,-1.1345999,-0.735585,2.0790290000000002,8.622842,-1
929,930,1580728781061,-1.1733999,0.318,-0.63449997,-0.24137384,2.1957703,9.633951,-1
930,931,1580728781071,-0.8333,0.4549,0.1856,-0.05656062,2.2701342,10.527600999999999,-1
931,932,1580728781081,-0.6307,0.5769,0.97919995,0.27631003,2.17813,10.990755,-1
932,933,1580728781091,-0.2499,0.5498,1.4194,0.84194493,2.3411942000000003,11.478837,-1
933,934,1580728781102,0.3116,0.8106,1.9518,1.2403688,2.4401127999999996,12.153580999999999,-1
934,935,1580728781112,0.6306,0.88159996,2.5751998,1.2171355,2.2789927000000003,12.435042999999999,-1
935,936,1580728781122,0.50229996,0.7169,2.7784998,0.9791136,2.088491,12.427850999999999,-1
936,937,1580728781133,0.30629998,0.5401,2.7257,0.9824174999999999,1.7960534,12.162392,-1
937,938,1580728781144,0.36049998,0.3065,2.475,1.0203513000000002,1.6682606,11.901481,-1
938,939,1580728781153,0.44849998,0.2022,2.2038,1.2649142,1.6641138999999998,12.229966000000001,-1
939,940,1580728781163,0.74219996,0.2163,2.5407999,1.4641693,1.5395961999999999,12.844116,-1
940,941,1580728781173,1.004,0.090799995,3.281,1.5093718999999999,1.4712082,13.57497,-1
941,942,1580728781184,1.0478,0.0651,3.8662998999999996,1.7069221999999997,1.417626,13.970099,-1
942,943,1580728781194,1.2595999,0.0184,4.2574997,1.6667283,1.3285136999999998,14.091992999999999,-1
943,944,1580728781204,1.2334,-0.0883,4.3856997,1.2741176,1.1721723,13.858262,-1
944,945,1580728781214,0.86109996,-0.25349998,4.1619,0.86094534,0.9639726000000001,13.540761999999999,-1
945,946,1580728781224,-0.26909998,-0.6283,3.6746,-0.1174308,0.84748036,13.378502,-1
946,947,1580728781234,-0.986,-0.7169,3.8523998,-0.7334972,0.7744764000000001,13.552445,-1
947,948,1580728781245,-0.986,-0.7169,3.8523998,-1.149801,0.86984223,13.656441000000001,-1
948,949,1580728781255,-1.401,-0.52709997,3.8569,-1.2686778,1.0422056,13.5487585,-1
949,950,1580728781265,-1.2227,-0.42339998,3.7439999999999998,-1.1005473999999997,1.1663113999999999,13.389935999999999,-1
950,951,1580728781275,-0.8759999999999999,-0.41939998,3.4961998,-0.76840466,1.2013433999999998,13.176145000000002,-1
951,952,1580728781285,-0.49049997,-0.2888,3.5546,-0.37750813,1.4384748,13.245624,-1
952,953,1580728781297,-0.49049997,-0.2888,3.5546,-0.12520717,1.6710092,13.177763,-1
953,954,1580728781307,-0.17539999,0.1192,3.1367,-0.19780895,1.9483823,12.649303999999999,-1
954,955,1580728781317,-0.3667,0.11639999599999999,2.552,-0.3967671,1.9514276000000002,12.1477,-1
955,956,1580728781327,-0.6346,-0.1998,2.6053,-0.7863899000000001,1.6505817999999999,12.166261,-1
956,957,1580728781338,-1.0038999,-0.4766,2.2569999999999997,-1.1964401000000002,1.4731524,11.5821705,-1
957,958,1580728781348,-1.1947,-0.6171,1.5859999999999999,-1.2470535,1.5697343000000001,10.856948,-1
958,959,1580728781358,-1.0838,-0.5115,1.0431,-1.0341898,1.7990319,10.239129,-1
959,960,1580728781368,-0.7364,-0.3724,0.44579998,-0.7686536999999999,1.9392555,9.783877,-1
960,961,1580728781379,-0.4428,-0.35529998,-0.117599994,-0.6279321,1.9373209999999998,9.299549,-1
961,962,1580728781389,-0.5294,-0.49879998,-0.87109995,-0.7901153000000001,1.7759613,8.191569,-1
962,963,1580728781400,-0.49249998,-0.7654,-1.4853,-0.52496225,1.7515405,7.7913933,-1
963,964,1580728781411,-0.17289999,-0.72779995,-1.7656,-0.15677233,1.9884898999999998,7.5792,-1
964,965,1580728781421,0.1857,-0.64629996,-1.9873999,-0.032407912999999997,1.9398397,7.275854600000001,-1
965,966,1580728781431,0.022499999,-0.8139,-2.2883,-0.72824913,2.0467935,6.780494,-1
966,967,1580728781442,-0.62119997,-0.7407,-2.7173998,-1.1959899999999999,2.140627,6.403484,-1
967,968,1580728781452,-0.986,-0.7021,-3.0491,-1.2331575000000001,2.3621194,6.129664,-1
968,969,1580728781462,-0.9364,-0.5334,-3.2733,-0.87874866,2.590641,5.994401,-1
969,970,1580728781472,-0.3321,-0.3247,-3.4192,0.19958065,2.9306273,5.795586599999999,-1
970,971,1580728781483,0.4177,-0.1435,-3.5261998,0.71738905,3.0584395,5.8701034000000005,-1
971,972,1580728781492,0.9852,-0.0471,-3.3987,0.93373865,3.1330810000000002,5.922776,-1
972,973,1580728781502,1.1277,-0.0414,-3.4006,0.96577305,3.2169452,5.7410083,-1
973,974,1580728781512,1.1515,0.014099998999999998,-3.5426998,0.87080944,3.3160937000000006,5.8758693,-1
974,975,1580728781522,1.0199,0.0804,-3.2958998999999998,0.5058564999999999,3.4603395,6.362332299999999,-1
975,976,1580728781533,0.6455,0.1936,-2.7965999,0.19240762,3.3803065,6.681518,-1
976,977,1580728781543,0.4357,0.06359999599999999,-2.5628,0.10005848,3.161457,6.754819,-1
977,978,1580728781553,0.32,-0.2349,-2.4656,-0.07939173,2.8647485,6.817480000000001,-1
978,979,1580728781563,0.1969,-0.4978,-2.4064999,-0.19155528,2.540928,6.951363000000001,-1
979,980,1580728781573,0.076799996,-0.8512,-2.2582998,-0.12695973,2.3424294,7.231638,-1
980,981,1580728781584,0.1165,-0.7969,-2.1894,-0.15534538,2.651904,7.0087475999999995,-1
981,982,1580728781595,0.5527,-0.53029996,-2.1332998,0.28249663,2.9314603999999997,7.0503497,-1
982,983,1580728781605,1.1057999,-0.3328,-1.7371,0.86074424,3.1756115,7.498984299999999,-1
983,984,1580728781615,1.1385,-0.2289,-1.5874,0.71857655,3.238943,7.598057000000001,-1
984,985,1580728781625,0.6974,-0.33089998,-1.5353,0.22911553,3.0885968,7.6331169999999995,-1
985,986,1580728781636,0.35009998,-0.525,-1.6582999,-0.075043865,2.9622405,7.5107355,-1
986,987,1580728781646,0.20879999,-0.5379999999999999,-1.8582,-0.23600125,2.966981,7.305935000000001,-1
987,988,1580728781657,-0.24409999,-0.6598,-1.7048999,-1.042761,2.7635312,7.6437855,-1
988,989,1580728781667,-1.1043,-0.7795,-1.2976999,-1.8229259999999998,2.798477,7.918698,-1
989,990,1580728781678,-1.5092,-0.6749,-1.1941998999999999,-1.9817477,2.919681,7.951287700000001,-1
990,991,1580728781689,-1.3654,-0.5251,-1.2171999,-1.5000248,3.2297492,7.8089666,-1
991,992,1580728781699,-0.7723,-0.2312,-1.4554,-0.7909293000000001,3.4741014999999997,7.518674400000001,-1
992,993,1580728781709,-0.0243,-0.032199997,-1.6458,-0.117679805,3.6946745,7.551178500000001,-1
993,994,1580728781719,0.8344,0.34149998,-1.339,0.96928775,4.1850553,8.121075,-1
994,995,1580728781729,1.703,0.7349,-0.8003,1.6273581,4.512936,8.6041,-1
995,996,1580728781739,2.1074,1.0248,-0.4297,1.6273963,4.753467,8.744736,-1
996,997,1580728781750,1.9387,1.166,-0.3917,1.3089483999999998,4.7287593,8.666934,-1
997,998,1580728781760,1.5544,1.0978,-0.49929997,0.7887171,4.570598,8.618561999999999,-1
998,999,1580728781770,0.96989995,0.9087,-0.5373,0.04384262,4.287508,8.533481,-1
999,1000,1580728781780,0.4087,0.6383,-0.594,-0.31792125,4.043529,8.588251,-1
1000,1001,1580728781790,0.0863,0.4159,-0.5329999999999999,-0.34729335,3.985407,8.500862,-1
1001,1002,1580728781801,0.0801,0.3398,-0.71709996,-0.40806776,3.9464870000000003,8.3603325,-1
1002,1003,1580728781811,-0.034199997999999995,0.315,-0.76479995,-0.5115547,3.8473482000000003,8.35677,-1
1003,1004,1580728781821,-0.1197,0.18100000000000002,-0.71739995,-0.41094077,3.8209832,8.551064,-1
1004,1005,1580728781831,0.049599998,0.2226,-0.5161,-0.08755117,3.9464392999999998,8.780266000000001,-1
1005,1006,1580728781841,0.3811,0.3872,-0.3363,0.16068923,4.0039864000000005,8.787985,-1
1006,1007,1580728781852,0.6839,0.48319998,-0.4016,0.48330313,4.0929737,8.544408,d
1007,1008,1580728781862,0.91499996,0.5366,-0.65209997,0.5538841999999999,4.087505999999999,8.371824,-1
1008,1009,1580728781872,0.89479995,0.5363,-0.8127,0.08484094,3.8697866999999997,8.258875,-1
1009,1010,1580728781883,0.47700000000000004,0.33609998,-0.8936,-0.43132982,3.5236422999999997,8.060751,-1
1010,1011,1580728781893,-0.1365,-0.0818,-1.1699,-1.1242405,3.1783602,7.659117999999999,-1
1011,1012,1580728781903,-0.71599996,-0.3524,-1.4951,-1.7706176,2.9813652000000004,7.4779058,-1
1012,1013,1580728781913,-1.3477,-0.542,-1.6837,-2.4215627,3.0962104999999998,7.224398599999999,-1
1013,1014,1580728781923,-1.9906,-0.41509998,-1.9317,-2.5409374,3.0868729999999998,6.732802,-1
1014,1015,1580728781933,-2.0846,-0.41489998,-2.4248,-2.302772,3.0682845000000003,5.610582,-1
1015,1016,1580728781944,-1.012,-0.5496,-5.22,-1.4320966,2.888815,3.5310165999999996,-1
1016,1017,1580728781955,-0.843,-1.0241,-7.2191,-1.4399781999999999,2.4637485,1.9376944,-1
1017,1018,1580728781964,-0.843,-1.0241,-7.2191,-2.0278122,2.1308587,0.83030915,-1
1018,1019,1580728781974,-1.556,-1.4187,-8.4172,-3.7551712999999998,1.8547498,1.1317966,-1
1019,1020,1580728781984,-4.749399700000001,-1.1387,-7.420099700000001,-5.572533,2.2406662,1.7664229,-1
1020,1021,1580728781994,-5.835,-0.1479,-7.4839997,-6.8111973,3.245934,1.6726085,-1
1021,1022,1580728782004,-5.6765,-0.2914,-7.7528,-6.6197667000000004,2.9763567,1.456278,-1
1022,1023,1580728782015,-4.7632,-0.91239995,-8.5194,-5.535538,2.19283,0.46748224,-1
1023,1024,1580728782025,-4.0650997,-1.9512999,-9.657,-4.888001999999999,0.9443689000000001,-0.64382,-1
1024,1025,1580728782035,-3.8067,-3.4317,-10.3459,-4.682149,-0.26247156,-1.1131313999999999,-1
1025,1026,1580728782045,-4.4068,-4.3926,-10.4236,-5.413558,-1.4175973,-1.0672586000000002,-1
1026,1027,1580728782055,-5.9133997,-4.7097,-9.7171,-7.050416499999999,-1.6006962,-0.26514345,-1
1027,1028,1580728782065,-5.9133997,-4.7097,-9.7171,-8.55977,-1.2095506,0.6543066,-1
1028,1029,1580728782076,-7.5982,-4.178,-8.9042,-9.049575,-1.0572985000000001,1.6694863999999998,-1
1029,1030,1580728782085,-7.9319997,-3.4627,-7.0095997,-8.299366000000001,-0.7530626,2.5727518,-1
1030,1031,1580728782095,-5.3898997,-3.3681,-6.1916,-5.9506545,-0.84968305,3.272663,-1
1031,1032,1580728782105,-1.8564999,-3.2182999,-5.5084,-1.5856701000000002,-0.8443487,4.2272315,-1
1032,1033,1580728782116,1.03,-3.5022,-3.8651998,1.2917868000000001,-1.3886466,6.1552625,-1
1033,1034,1580728782126,2.5540000000000003,-3.5960998999999996,-1.4995999,2.5753567000000004,-1.4271549,8.948875,-1
1034,1035,1580728782136,2.3113,-2.6368,0.2574,1.9126416000000002,-0.4314064,10.346935,-1
1035,1036,1580728782147,1.3844,-1.7272999,1.1464,1.1418523,-0.30972350000000004,11.064917999999999,-1
1036,1037,1580728782157,1.3844,-1.7272999,1.1464,1.0952898000000002,-0.77579796,11.121297,-1
1037,1038,1580728782167,1.7456,-3.0719,0.75479996,2.4295782999999997,-2.6045659,10.437369,-1
1038,1039,1580728782177,3.0776,-4.429199700000001,1.1495,3.9667422999999995,-3.829334,11.600577000000001,-1
1039,1040,1580728782188,4.6677,-4.8701,3.3427,5.869107700000001,-4.154965,14.478207000000001,-1
1040,1041,1580728782198,6.5089999999999995,-4.4607,7.1168,7.6951747,-3.7107637,18.710102,-1
1041,1042,1580728782208,7.836899799999999,-3.4845,11.6305,8.703306,-2.9381835,23.107283,-1
1042,1043,1580728782218,8.4709,-2.3771,15.3666,9.403725999999999,-2.1793362999999997,26.10899,-1
1043,1044,1580728782228,9.3684,-1.6692,17.1681,10.689775,-2.0790098,27.268866,-1
1044,1045,1580728782239,10.4844,-1.6777999,17.4142,11.874063,-2.4109418,26.776781,-1
1045,1046,1580728782249,11.6988,-1.749,16.581999,13.223329999999999,-2.3192632,25.689707000000002,-1
1046,1047,1580728782259,12.9005995,-1.4611,15.610498999999999,13.920482999999999,-2.0474448,25.15811,-1
1047,1048,1580728782270,13.0715,-1.1804999,15.312798999999998,13.436987,-1.7425767,24.727842000000003,-1
1048,1049,1580728782280,12.1859,-0.6189,14.4429,12.536873,-0.97799313,23.395775,-1
1049,1050,1580728782290,11.5211,0.0568,13.029699,12.346974000000001,-0.56382495,22.190601,-1
1050,1051,1580728782301,11.7415,0.4637,11.447000000000001,13.094273,0.110458896,19.763504,-1
1051,1052,1580728782311,12.4442,0.8038,9.6662,13.845285,0.23048502,18.339987,-1
1052,1053,1580728782321,13.1599,0.8268,8.375,14.233175,0.17966089,17.519505,-1
1053,1054,1580728782332,13.4969,0.6606,7.5648,14.329948000000002,0.09854534,16.345845999999998,-1
1054,1055,1580728782342,13.5636,0.4676,6.2648,14.169402,0.027274746000000002,14.702773,-1
1055,1056,1580728782352,13.325,0.2855,4.553499700000001,13.465717000000001,-0.1425412,12.916508,-1
1056,1057,1580728782362,12.499599,-0.0393,2.7552,12.2656,-0.55492806,11.033478,-1
1057,1058,1580728782373,11.2641,-0.6696,0.8901,10.831339999999999,-1.0959697,9.382475,-1
1058,1059,1580728782383,9.782599000000001,-1.3553,-0.6881,9.013375,-1.5773767,7.766005000000001,-1
1059,1060,1580728782393,8.2876,-1.8869,-2.0183,7.723838300000001,-1.8865830000000001,5.9706125,-1
1060,1061,1580728782403,7.0035,-2.3513,-3.8063998,6.7385573,-2.2457707,3.8333085,-1
1061,1062,1580728782413,6.0109,-2.87,-5.9351997,6.25966,-2.4289656,2.4980047,-1
1062,1063,1580728782424,5.4363,-3.2619998,-7.5406,5.767229599999999,-2.7233758,1.211217,-1
1063,1064,1580728782434,5.031399700000001,-3.605,-8.5331,4.939612,-2.9739623,0.9297069,-1
1064,1065,1580728782444,2.8996,-4.3473997,-8.1308,3.6143634,-3.3522751000000004,1.6055038000000001,-1
1065,1066,1580728782454,2.8996,-4.3473997,-8.1308,2.3738606,-3.5732502999999998,2.2845855,-1
1066,1067,1580728782464,0.2923,-4.8726997,-7.2569,0.70248747,-3.9091184,2.5211327,-1
1067,1068,1580728782474,-0.9429,-5.1339999999999995,-7.422999999999999,-0.49168283,-4.1490364,2.164119,-1
1068,1069,1580728782485,-2.0061998,-5.3515,-8.6564,-1.3186401,-4.309889,1.0802924999999999,-1
1069,1070,1580728782495,-2.9271,-5.4377,-10.220699,-2.1994,-4.3788800000000005,-0.5140064000000001,-1
1070,1071,1580728782505,-4.0264,-5.5102,-11.1943,-3.4381216,-4.4431400000000005,-1.6713060000000002,-1
1071,1072,1580728782515,-5.0101,-5.4392,-11.863199,-4.2565074,-4.343178,-2.2166765,-1
1072,1073,1580728782525,-5.5818996,-5.1762,-11.858399,-4.6560516,-4.0785894,-2.064568,-1
1073,1074,1580728782535,-5.9607,-4.8420997,-10.9192,-4.999409,-3.8988042000000003,-0.9305783000000001,-1
1074,1075,1580728782546,-6.5576,-4.6445,-9.4369,-5.599118,-3.8577387,0.6001593000000001,-1
1075,1076,1580728782556,-7.2963996,-4.6907,-7.6707997,-6.57602,-4.22387,2.8851855,-1
1076,1077,1580728782566,-8.6237,-5.0011,-5.6447997,-7.823485000000001,-4.677877400000001,4.4581475,-1
1077,1078,1580728782576,-10.660299,-5.5841,-4.0717,-9.798874,-5.4559455,5.909397599999999,-1
1078,1079,1580728782586,-12.773999,-6.3136997,-3.1364,-12.080653,-6.559700500000001,6.6270929999999995,-1
1079,1080,1580728782596,-14.4402,-7.0003,-3.2918,-13.289351000000002,-7.2486277,6.20488,-1
1080,1081,1580728782607,-15.1191,-7.4273,-3.4736,-13.415977,-7.7359146999999995,6.3915324,-1
1081,1082,1580728782617,-15.0728,-7.4656,-2.6962,-13.221729000000002,-7.79373,7.615974400000001,-1
1082,1083,1580728782627,-14.941899,-7.3107996,-0.45949998,-13.085902,-7.909398599999999,10.516292,-1
1083,1084,1580728782637,-15.0152,-7.0544,2.8404,-13.312135000000001,-7.866169,13.601709,-1
1084,1085,1580728782648,-15.4779,-6.764199700000001,5.5392,-13.76101,-7.825486,15.675901000000001,-1
1085,1086,1580728782658,-16.0776,-6.6218,6.9108996,-14.353057999999999,-8.093752,16.709545000000002,-1
1086,1087,1580728782669,-16.452,-6.8831997000000005,7.197499799999999,-14.356276000000001,-8.578989,16.220716,-1
1087,1088,1580728782678,-16.0716,-6.9156,6.3567995999999996,-13.822569,-8.639247,15.637469,-1
1088,1089,1580728782688,-14.6377,-6.6903,6.0747,-12.166165,-8.547011999999999,15.581923999999999,-1
1089,1090,1580728782698,-12.585099000000001,-6.3459,7.0101,-9.787276,-8.243974,17.064453,-1
1090,1091,1580728782708,-10.7441,-5.6039,9.0167,-7.8491125,-7.6855216,19.320078,-1
1091,1092,1580728782719,-8.7379,-5.0390997,11.4066,-6.1471224,-7.4497789999999995,21.3977,-1
1092,1093,1580728782729,-7.6361,-4.7082,12.9991,-5.464296,-7.478624000000001,22.773301999999997,-1
1093,1094,1580728782739,-7.2148,-4.6986,13.7416,-5.0985192999999995,-7.707730000000001,22.737560000000002,-1
1094,1095,1580728782749,-6.7304997,-4.772599700000001,13.1804,-4.697069,-7.7693667,21.902225,-1
1095,1096,1580728782759,-6.0425,-4.6411,12.0601,-3.6075735,-7.536171400000001,20.672678,-1
1096,1097,1580728782769,-4.8342,-4.2288,11.385699,-2.4573321,-7.1657399999999996,20.666635999999997,-1
1097,1098,1580728782780,-3.7977998,-3.9243998999999996,11.9107,-1.3830729,-7.043367999999999,21.861132,-1
1098,1099,1580728782790,-2.3908,-3.7626,13.267798999999998,0.5382644,-6.7228994,22.912796,-1
1099,1100,1580728782800,-0.1409,-3.2637,13.8531,3.1942673,-6.130047,22.606005,-1
1100,1101,1580728782810,2.0469999999999997,-2.8702998,13.3301,4.6507945,-6.2251735,21.996783999999998,-1
1101,1102,1580728782820,3.4266998999999996,-3.0109,12.7008,5.5215845,-6.004275,21.529774,-1
1102,1103,1580728782830,4.3966,-2.7152998,12.3596,6.5087137,-5.367685,22.228842,-1
1103,1104,1580728782840,5.4844,-2.0952,13.240298999999998,7.4525943,-4.825437,23.211346,-1
1104,1105,1580728782850,6.4571,-1.7236999,14.0665,7.9362520000000005,-4.654213400000001,23.377974,-1
1105,1106,1580728782860,6.8752,-1.7112,13.952,7.7964972999999995,-4.7399260000000005,22.30947,-1
1106,1107,1580728782870,6.723799700000001,-1.9964,12.6414995,7.4212976,-4.8732443,20.985619,-1
1107,1108,1580728782880,6.3265,-2.2307,10.7449,7.3841968,-4.361373400000001,18.203175,-1
1108,1109,1580728782890,6.5509,-1.9054999,8.1686,8.242739,-3.7881730000000005,15.657523000000001,-1
1109,1110,1580728782901,7.576699700000001,-1.6221,5.6632,9.1823,-3.3032322,14.127591,-1
1110,1111,1580728782911,8.6747,-1.2235,3.9199998,9.968584,-2.6105417999999996,12.869867999999999,-1
1111,1112,1580728782921,9.2958,-0.8451,2.8722,10.274277,-2.1024826,12.065005000000001,-1
1112,1113,1580728782931,9.443999,-0.7696,2.3040000000000003,10.040047,-2.0082755,11.752725,-1
1113,1114,1580728782941,9.1149,-0.9593,1.9401,9.193553,-2.1075772999999995,11.233633,-1
1114,1115,1580728782952,8.2423,-1.3097,1.3769999999999998,8.458935,-2.1390564,10.678522000000001,-1
1115,1116,1580728782963,7.6734,-1.5217999,0.7714,8.802723,-1.7046428,9.923707,-1
1116,1117,1580728782973,8.045,-1.3416,0.1428,9.116736999999999,-1.3132195,9.695263,-1
1117,1118,1580728782983,8.3955,-1.1187,-0.0683,9.060061,-1.1879358,9.796527000000001,-1
1118,1119,1580728782993,8.2958,-1.2958,0.0101,8.467229,-1.3723756,9.074676,-1
1119,1120,1580728783005,7.0831,-2.3586,-1.6381999,7.869185400000001,-1.7734904999999999,8.1236315,-1
1120,1121,1580728783017,6.8132997,-2.7244,-2.8732,7.5784245,-1.8414475,6.39498,-1
1121,1122,1580728783026,6.8132997,-2.7244,-2.8732,7.7982309999999995,-1.6877398000000001,5.1447754,-1
1122,1123,1580728783036,6.8704,-2.8349,-4.2584,7.954649000000001,-1.5535495000000001,4.6576324,-1
1123,1124,1580728783046,6.9551,-2.8218,-5.9177,7.465801,-1.2664369,3.4967413,-1
1124,1125,1580728783056,5.9578,-3.1629999,-6.4205,6.1628857,-1.498368,2.9910667,-1
1125,1126,1580728783067,4.4751997,-3.7238998,-6.9104,4.7202163,-1.7811711,2.3371623,-1
1126,1127,1580728783077,3.5094,-4.0780997,-7.7655997,4.099036,-1.8759336,1.5518641000000002,-1
1127,1128,1580728783087,3.4582,-3.9016,-7.9126997,4.3443265,-1.3813681999999998,1.6856330000000002,-1
1128,1129,1580728783097,4.5559,-2.9858,-7.1986,5.998385400000001,-0.07107906,2.547373,-1
1129,1130,1580728783107,6.3059998,-2.1852999,-6.6938,7.7930117,0.7053031,2.7142396,-1
1130,1131,1580728783117,6.3059998,-2.1852999,-6.6938,8.9260435,1.0181966,2.4104822,-1
1131,1132,1580728783128,8.619599000000001,-1.8751999,-7.3304996,9.488010000000001,0.77449554,1.8315259999999998,-1
1132,1133,1580728783138,8.609799,-2.4199,-7.6903996,9.24929,0.38470033,1.7847528000000001,-1
1133,1134,1580728783149,8.356299,-2.5530999,-7.349,9.234435000000001,0.47112143,2.385956,-1
1134,1135,1580728783159,8.561,-2.4417999,-6.5513,9.615411,0.7601495,3.4896447999999998,-1
1135,1136,1580728783169,8.8525,-2.0795999,-5.2572,9.734211,1.0959793,4.5784125,-1
1136,1137,1580728783179,8.858399,-1.7268,-4.0643,9.77406,1.307713,5.488669,-1
1137,1138,1580728783189,8.8722,-1.8167,-3.7628998999999994,9.845935,1.0520121999999998,5.5516559999999995,-1
1138,1139,1580728783199,8.957499499999999,-2.0202,-3.8021,10.002831,1.0234542,5.348321,-1
1139,1140,1580728783210,9.1715,-2.1255,-4.1942997,10.318512,0.8371853000000001,4.894677,-1
1140,1141,1580728783220,9.4134,-2.2615,-4.433,10.770278,0.9045581,4.879795,-1
1141,1142,1580728783231,9.998799,-1.9806999,-4.2265997,11.619645,1.392822,5.427655000000001,-1
1142,1143,1580728783241,10.8581,-1.4506999,-3.5158,12.060409,1.6888986000000001,6.349854,-1
1143,1144,1580728783251,10.8869,-1.3816998999999999,-2.7800999,11.64442,1.5015188,6.805403,-1
1144,1145,1580728783261,9.8833,-1.7608999,-2.0374,9.869971000000001,0.5920861,7.6300907,-1
1145,1146,1580728783271,8.5863,-2.5642,-1.6675999,9.118442,0.0045489829999999995,7.575168,-1
1146,1147,1580728783282,7.1794996,-3.3871998999999997,-1.9512999,7.355380499999999,-1.0390165,7.012194999999999,-1
1147,1148,1580728783292,6.2885,-4.0242,-2.3480000000000003,7.3304996,-1.1868825,7.257630000000001,-1
1148,1149,1580728783302,6.3578997,-4.0846,-1.9376999,7.096002,-1.3386556,7.976599,-1
1149,1150,1580728783312,5.9111,-4.311,-1.2172999,5.750097,-2.0415834999999998,8.652807000000001,-1
1150,1151,1580728783322,4.4126997,-5.057699700000001,-0.5654,3.7115202000000003,-3.0002603999999997,9.225558,-1
1151,1152,1580728783333,2.3395998,-5.9614,-0.0508,1.0627861,-3.8565035000000005,9.782612,-1
1152,1153,1580728783343,0.2516,-6.5709,0.3911,-0.81286025,-4.270078,10.213981,-1
1153,1154,1580728783353,-1.5001999,-6.9157,0.7953,-2.5587406,-4.4234123,10.121995,-1
1154,1155,1580728783363,-3.1564999,-7.0165,0.67539996,-3.7682915,-4.3375373,9.655672000000001,-1
1155,1156,1580728783373,-4.2964997,-6.8883,0.1995,-4.1759763,-4.178801,8.982814999999999,-1
1156,1157,1580728783384,-4.68,-6.6821,-0.5661,-4.497661,-4.191749,8.506483,-1
1157,1158,1580728783393,-4.9340997,-6.6754,-0.9704,-5.792388,-4.5821095000000005,8.954888,-1
1158,1159,1580728783403,-6.1463,-7.008899700000001,-0.5378,-7.814473,-5.2350273000000005,10.447233,-1
1159,1160,1580728783413,-8.0638,-7.5783997,0.9174,-10.299971000000001,-5.6762023,11.944452,-1
1160,1161,1580728783424,-10.440999999999999,-7.9189997000000005,2.391,-12.546259,-5.8668190000000005,12.817684,-1
1161,1162,1580728783434,-13.781899,-7.5741997,2.9443998,-13.783141,-5.482377,12.532936999999999,-1
1162,1163,1580728783444,-13.781899,-7.5741997,2.9443998,-12.967571000000001,-4.2815027,10.822395,-1
1163,1164,1580728783455,-12.9522,-6.3521,1.2324,-10.388709,-2.7886127999999997,8.991098,-1
1164,1165,1580728783465,-10.374,-5.030999700000001,-0.4067,-8.314909,-2.0604787,8.683742,-1
1165,1166,1580728783475,-7.7309,-3.803,-0.3448,-7.664596,-1.7223696,9.465419,-1
1166,1167,1580728783485,-7.8499,-3.418,0.627,-7.9397473,-1.3209865,10.389533,-1
1167,1168,1580728783496,-8.1591,-2.7653,1.0806999,-8.086148,-0.6701179,10.717357000000002,-1
1168,1169,1580728783506,-7.8072996,-2.1845,0.86069995,-7.4840539999999995,-0.12731408,10.208972,-1
1169,1170,1580728783516,-7.1411996,-1.9523,0.2105,-6.7455006,-0.07621223,9.668687,-1
1170,1171,1580728783526,-6.337000000000001,-2.0669,-0.019299998999999998,-5.8849764,-0.23351127,9.766313,-1
1171,1172,1580728783537,-5.5355,-2.1127,0.6609,-5.1650977,-0.23070528,10.811161,-1
1172,1173,1580728783547,-5.0757,-2.0544999,1.8989999,-4.905049,-0.20404345,11.9105215,-1
1173,1174,1580728783557,-5.0053997,-1.9025999,2.5302,-4.784285,0.031335313,12.1473465,-1
1174,1175,1580728783567,-4.6472,-1.3711,2.1732,-4.1693873,0.72636247,11.564885,-1
1175,1176,1580728783579,-3.7707998999999996,-0.61869997,1.5541999,-3.0765395,1.5219173000000001,10.7533655,d
1176,1177,1580728783589,-2.9269998,-0.0721,0.7115,-2.4314267999999997,1.8405665,9.88338,-1
1177,1178,1580728783600,-2.4046,0.049799997,0.0458,-2.0275154,1.7249361,9.691575,-1
1178,1179,1580728783610,-2.1234,-0.13589999,0.1928,-1.9766721999999999,1.5759593,10.16942,-1
1179,1180,1580728783620,-2.189,-0.2634,0.7597,-1.9726113999999997,1.4234391000000002,10.623925,-1
1180,1181,1580728783630,-2.1059,-0.3551,0.99189997,-1.7893689,1.3636511999999998,10.786586999999999,-1
1181,1182,1580728783641,-1.8722,-0.3748,1.1546999,-1.5061921999999999,1.374243,10.836511999999999,-1
1182,1183,1580728783651,-1.5419999,-0.3454,1.1409,-1.3538828,1.39151,10.682459,-1
1183,1184,1580728783661,-1.3862,-0.3209,0.9909,-1.2903502,1.3117161,10.671683999999999,-1
1184,1185,1580728783672,-1.3018,-0.41939998,0.9891,-1.3144263,1.2186774,10.497464,-1
1185,1186,1580728783682,-1.3070998999999999,-0.494,0.77269995,-1.3965762,1.0867857,10.2612705,-1
1186,1187,1580728783692,-1.3525,-0.6231,0.5475,-1.5523621,1.0223241,10.030671,-1
1187,1188,1580728783702,-1.5282999,-0.6978,0.31329998,-1.7901158,1.0080930000000001,9.724376,-1
1188,1189,1580728783713,-1.7184,-0.6789,0.0016,-1.9679571,1.0932308000000002,9.641200999999999,-1
1189,1190,1580728783723,-1.8922,-0.6116,0.013599999,-2.315375,1.1370733999999998,9.938341000000001,-1
1190,1191,1580728783733,-2.1605,-0.58809996,0.26999998,-2.6895409,1.1571463,10.154805999999999,-1
1191,1192,1580728783743,-2.4968,-0.5681,0.49609998,-2.9778602000000003,1.1301686000000002,10.183066,-1
1192,1193,1580728783754,-2.9273999,-0.6265,0.4084,-3.245532,1.0710509,10.011968,-1
1193,1194,1580728783764,-2.9273999,-0.6265,0.4084,-3.2726152,1.0469652,9.928026,-1
1194,1195,1580728783774,-2.9606,-0.6738,0.2232,-3.3839742999999993,0.98254204,9.680457,-1
1195,1196,1580728783784,-2.7468,-0.7299,0.15779999,-3.140168,0.9951739,9.81455,-1
1196,1197,1580728783794,-2.7468,-0.7299,0.15779999,-2.7515793,1.1571655,10.023786,-1
1197,1198,1580728783805,-2.4219999999999997,-0.606,0.7,-2.8694889999999997,1.0766246000000002,10.435989999999999,-1
1198,1199,1580728783815,-2.4219999999999997,-0.606,0.7,-3.3441919999999996,0.8187211999999999,10.972273,-1
1199,1200,1580728783825,-3.4896998,-1.0447999,1.7615,-4.0327454,0.6666032,11.490866,-1
1200,1201,1580728783835,-4.2272997000000005,-1.234,1.9692999,-4.6048737,0.5316181,11.619138000000001,-1
1201,1202,1580728783845,-4.2272997000000005,-1.234,1.9692999,-4.893222,0.37143648,11.404760000000001,-1
1202,1203,1580728783855,-4.4265,-1.5289999,1.5432,-4.794781700000001,0.26243323,11.190308,-1
1203,1204,1580728783866,-4.2858,-1.5134,1.4674,-4.537903,0.32597533,11.059708,-1
1204,1205,1580728783876,-3.9578998,-1.4472,1.4013,-4.2653275,0.38592616,11.091791,-1
1205,1206,1580728783886,-3.6904,-1.4276999,1.8347,-4.05505,0.3936355,11.601842,-1
1206,1207,1580728783896,-3.6836,-1.4781,2.3467,-4.059695,0.3555198,11.985536999999999,-1
1207,1208,1580728783906,-3.7343998,-1.6243,2.6341999,-4.1374197,0.22848345,12.228691,-1
1208,1209,1580728783916,-3.8221,-1.7025,2.5117,-4.1842794,0.20612161,12.045324,-1
1209,1210,1580728783927,-3.8151998999999996,-1.7011,2.1752,-4.081960700000001,0.26182988,11.57404,-1
1210,1211,1580728783937,-3.6595,-1.6074,1.6538,-3.9075480000000002,0.39379832,11.196849,-1
1211,1212,1580728783947,-3.4903,-1.5827,1.4269999,-3.7990043,0.4012682,10.957352,-1
1212,1213,1580728783957,-3.6115,-1.6543,1.2099,-3.8993406000000004,0.37348590000000004,10.697255,-1
1213,1214,1580728783967,-3.5839999,-1.7639999,0.9733,-3.7713752,0.27502674,10.508333,-1
1214,1215,1580728783978,-3.4322998999999994,-1.9709999999999999,0.8935,-3.6299639999999997,0.12715127,10.47129,-1
1215,1216,1580728783988,-3.2282,-2.08,0.7942,-3.2031257,0.08904515,10.257382000000002,-1
1216,1217,1580728783999,-2.7724,-2.1589,0.65569997,-2.604537,0.017171215,10.163932,-1
1217,1218,1580728784009,-2.1919,-2.2461998,0.5464,-1.9952033,0.047108315,9.904544,-1
1218,1219,1580728784019,-1.5627999,-2.2561998,0.2536,-1.2916334999999999,0.062488664000000006,9.705596,-1
1219,1220,1580728784030,-0.97669995,-2.2431,0.1125,-0.93727255,0.10240479599999999,9.619031,-1
1220,1221,1580728784040,-0.7057,-2.21,0.1406,-0.5906017,0.25094107,9.782152,-1
1221,1222,1580728784050,-0.3541,-2.0654,0.3249,-0.078951195,0.51022357,9.812884,-1
1222,1223,1580728784060,0.0098,-1.8802999,0.2934,0.25435042,0.65097386,9.672719,-1
1223,1224,1580728784070,0.4233,-1.7361,0.0689,0.7807109,0.8926638000000001,9.245306,-1
1224,1225,1580728784081,0.7659999999999999,-1.5739,-0.37579998,0.9133496999999999,0.9596439,8.865078,-1
1225,1226,1580728784091,1.043,-1.5114,-0.9644,1.4356687,1.1105264,8.184961,-1
1226,1227,1580728784101,1.3910999,-1.4165,-1.3477,1.7387747,1.3306303,7.955290299999999,-1
1227,1228,1580728784111,1.6817,-1.2375,-1.5363,2.1192515,1.5009633,7.9663710000000005,-1
1228,1229,1580728784121,2.0781999,-1.0718,-1.4419999,2.7156472000000003,1.7148038,8.140257,-1
1229,1230,1580728784132,2.6323,-0.8596,-1.2908,3.1607676,2.0537653000000002,8.322915,-1
1230,1231,1580728784142,3.0353,-0.522,-1.083,3.5312080000000003,2.2955415,8.515236999999999,-1
1231,1232,1580728784152,3.3916,-0.3132,-0.9169,3.7654855000000005,2.4244453999999998,8.485491,-1
1232,1233,1580728784162,3.5725,-0.1779,-1.0368,3.7590307999999997,2.5022759999999997,8.147679,-1
1233,1234,1580728784172,3.5744998,-0.1082,-1.3735,3.8083801,2.486771,8.008892,-1
1234,1235,1580728784183,3.609,-0.1303,-1.4344,3.692338,2.4224533999999998,8.409517999999998,-1
1235,1236,1580728784192,3.4959,-0.17109999,-1.0540999,3.7243435,2.4487702999999996,8.873821000000001,-1
1236,1237,1580728784202,3.5331,-0.1285,-0.4956,3.8242199999999995,2.5940123,9.160445,-1
1237,1238,1580728784212,3.5644998999999995,0.031999997999999995,-0.297,3.8765763999999994,2.611777,8.967626,-1
1238,1239,1580728784222,3.6062999,-0.0041,-0.5657,3.9446866999999997,2.5752606,8.524967,-1
1239,1240,1580728784232,3.5842,-0.0572,-1.0379,3.8039746,2.5787373,7.990025999999999,-1
1240,1241,1580728784242,3.3759,-0.121199995,-1.5389999,3.5870888,2.420988,7.7467937000000004,-1
1241,1242,1580728784252,3.0953999,-0.3057,-1.6790999,3.250033,2.0921013,7.8608155,-1
1242,1243,1580728784262,2.6975,-0.6838,-1.5091,2.8595962999999998,1.7576792,8.155896,-1
1243,1244,1580728784272,2.3574998,-0.9227,-1.2742,2.9872452999999997,1.8208958,8.501311999999999,-1
1244,1245,1580728784282,2.5328999,-0.8181,-0.8462,3.4967794000000003,2.1268842,8.977375,-1
1245,1246,1580728784293,3.0779,-0.39119998,-0.3915,4.0600586000000005,2.6650433999999996,9.402269,-1
1246,1247,1580728784303,3.6118998999999996,0.1388,0.0221,4.434501999999999,2.8067706,9.746978,-1
1247,1248,1580728784314,3.9266,0.2181,0.3374,4.448446,2.6626396,9.812453999999999,-1
1248,1249,1580728784324,3.8757,0.0547,0.3313,4.147016000000001,2.3434541,9.652061,-1
1249,1250,1580728784335,3.5885,-0.1987,0.1819,3.8916311,2.10209,9.532457,-1
1250,1251,1580728784345,2.9294,-0.70239997,0.1278,3.4853735,1.8332688999999998,9.660489,-1
1251,1252,1580728784355,2.6090999,-0.7355,0.4155,3.2224998,1.8310471999999998,9.9029255,-1
1252,1253,1580728784365,2.3560998,-0.5596,0.49609998,3.0276117,2.053229,9.961297,-1
1253,1254,1580728784376,2.3560998,-0.5596,0.49609998,3.1229202999999996,2.3708918,9.908107000000001,-1
1254,1255,1580728784386,2.7117999,-0.020499998999999998,0.3182,3.4433502999999996,2.5174456000000003,9.712702,-1
1255,1256,1580728784397,2.7489,0.0071,0.2174,3.4558387,2.5348656000000003,9.688147,-1
1256,1257,1580728784407,2.9339999999999997,0.042999998,0.2739,3.6388707,2.608914,9.721541,-1
1257,1258,1580728784417,2.8810000000000002,0.0455,0.22379999,3.3955047,2.5381699,9.691317,-1
1258,1259,1580728784428,2.4433,0.0041,0.1065,2.8368417999999997,2.5290816,9.406321,-1
1259,1260,1580728784439,2.0133,-0.0321,-0.1761,2.4087297999999997,2.4580598,9.160388000000001,-1
1260,1261,1580728784449,1.4857999,-0.0694,-0.3409,1.877782,2.5224349999999998,9.039903,-1
1261,1262,1580728784459,1.1254,-0.0464,-0.4962,1.7308259,2.4773377999999995,8.926206,-1
1262,1263,1580728784469,1.0288,-0.0806,-0.50479996,1.6544316000000003,2.513605,9.02502,-1
1263,1264,1580728784479,0.9788,-0.044000000000000004,-0.3766,1.6433513,2.5226555,9.185393,-1
1264,1265,1580728784489,0.9658,-0.065299995,-0.2288,1.5680968000000002,2.4973342,9.168183,-1
1265,1266,1580728784499,0.8231,-0.0387,-0.3944,1.4537878999999998,2.5977664000000003,8.892602,-1
1266,1267,1580728784509,0.8357,0.055299997000000004,-0.64779997,1.6009835,2.595123,8.782908,-1
1267,1268,1580728784519,0.9835,-0.0144,-0.6859999999999999,1.6749068,2.5064417999999997,8.863048,-1
1268,1269,1580728784529,0.9393,-0.1192,-0.4217,1.6325295,2.387182,9.340155000000001,-1
1269,1270,1580728784540,0.90639997,-0.1981,0.076,1.4728553999999998,2.2792034,9.701507000000001,-1
1270,1271,1580728784550,0.5848,-0.3038,0.3374,0.97498596,2.1356184,9.87455,-1
1271,1272,1580728784560,0.1104,-0.39029998,0.4026,0.6377483,2.2156038,9.763228,-1
1272,1273,1580728784571,-0.0813,-0.27449998,0.2236,0.6771951999999999,2.2661022999999996,9.592445,-1
1273,1274,1580728784581,0.0126,-0.2619,0.0859,0.8662030000000001,2.2339435,9.359231,-1
1274,1275,1580728784591,0.17799999,-0.292,-0.168,0.89152414,2.2009703999999997,9.13588,-1
1275,1276,1580728784601,0.1557,-0.332,-0.31399998,0.76909417,2.0445237,9.4233,-1
1276,1277,1580728784612,-0.012,-0.46609998,0.019299998999999998,0.3617639,2.168917,9.715498,-1
1277,1278,1580728784622,-0.44299999999999995,-0.3041,0.2933,0.112221025,2.352217,9.910730000000001,-1
1278,1279,1580728784632,-0.6387,-0.1038,0.4694,0.23576182,2.5671685,9.8165045,-1
1279,1280,1580728784642,-0.4711,0.0946,0.3028,0.6128581999999999,2.6896652999999997,9.498669999999999,-1
1280,1281,1580728784652,-0.1558,0.18339999,0.0287,0.85036296,2.6676865000000003,9.266537,-1
1281,1282,1580728784663,0.12979999,0.16409999,-0.23539999,1.1667328000000001,2.6690369,9.267237,d
1282,1283,1580728784673,0.45499998,0.1564,-0.1274,1.3347291000000001,2.6213252999999996,9.752513,-1
1283,1284,1580728784684,0.5238,0.13149999,0.3723,1.1790103,2.7907102000000004,10.022674,-1
1284,1285,1580728784694,0.3579,0.35029998,0.59779996,1.2868738000000002,2.9577869999999997,10.267448,-1
1285,1286,1580728784704,0.4768,0.4587,0.80429995,1.5123214,3.227748,10.16625,-1
1286,1287,1580728784714,0.6929,0.74,0.7078,1.7595468,3.475318,9.906699,-1
1287,1288,1580728784724,0.92969996,0.96779996,0.44579998,2.1749215,3.5627253,9.97998,-1
1288,1289,1580728784734,1.2681,0.909,1.1191,2.0739055,3.4017775,10.710251,-1
1289,1290,1580728784745,1.1396998999999999,0.7693,1.7795,1.9586293999999997,3.2975053999999995,11.344427,-1
1290,1291,1580728784755,1.1553,0.741,2.0585,2.0791821,3.3309858,11.428271,-1
1291,1292,1580728784765,2.2591,1.043,1.5173999,3.4813513999999994,3.7404516000000005,10.836597,-1
1292,1293,1580728784775,4.3174,1.5410999,0.9895,5.553686,4.24083,10.300038,-1
1293,1294,1580728784787,6.075999700000001,1.7159,0.6771,7.1523614,4.3903913,10.083689,-1
1294,1295,1580728784797,6.9768996,1.6934999,0.65529996,7.8865194,4.353904,10.096836999999999,-1
1295,1296,1580728784807,6.9428997,1.4156,0.84529996,7.3645067,3.8993406000000004,10.432791,-1
1296,1297,1580728784817,5.9386997,0.779,1.3579,6.2397876,3.2799892,10.903692,-1
1297,1298,1580728784827,5.0659,0.2258,1.5985999,5.6513886,2.8582362999999997,10.972673,-1
1298,1299,1580728784837,4.9851,-0.021699998999999998,1.7062998999999999,5.825543,2.7814972,11.180807000000001,-1
1299,1300,1580728784848,5.4481997,-0.0087,1.9145,6.5501337,2.797979,11.238153,-1
1300,1301,1580728784858,6.3817,-0.2128,1.7508,7.390891000000001,2.561269,11.097853,-1
1301,1302,1580728784868,7.1591997,-0.5043,1.8449,8.243907,2.3642552,11.284984,-1
1302,1303,1580728784878,7.8777,-0.6246,2.0321,8.863076,2.2501569,11.312939,-1
1303,1304,1580728784888,8.0693,-0.8142,1.9274,8.6256,2.048594,11.195038,-1
1304,1305,1580728784899,7.3845,-1.2031,1.7148999,7.6794210000000005,1.7404218999999996,10.788857,-1
1305,1306,1580728784909,6.7366,-1.3524,1.3371998999999999,7.389991,1.7152636000000003,10.553765,-1
1306,1307,1580728784920,6.4645996,-1.6179,1.0023999,7.033982300000001,1.4061146,9.937986,-1
1307,1308,1580728784930,6.2962,-1.8061999,0.3788,7.0850463,1.4240617,9.203369,-1
1308,1309,1580728784940,6.44,-1.9446,-0.2695,7.114580999999999,1.181414,8.687225999999999,-1
1309,1310,1580728784950,6.2615,-2.2995,-0.662,6.5430082999999994,0.9781463,8.263319000000001,-1
1310,1311,1580728784960,5.581,-2.5112,-1.1553,5.6513023,0.8646324000000001,7.596678,-1
1311,1312,1580728784971,4.8465,-2.6838,-1.6141,5.0068019999999995,0.7728675,7.388545,-1
1312,1313,1580728784981,4.0922,-2.8753998,-1.8127999,4.100435,0.52107406,7.140189599999999,-1
1313,1314,1580728784991,3.4641,-3.1301,-2.033,3.4682887000000004,0.36081576,6.8487673,-1
1314,1315,1580728785001,2.8753,-3.3455,-2.3014997999999998,2.7535617,0.16532442,6.326735500000001,-1
1315,1316,1580728785011,2.2226,-3.6218998,-2.9211,2.0867765,-0.029285876000000002,5.472934700000001,-1
1316,1317,1580728785022,1.632,-3.8118,-3.7154998999999997,1.5934848999999998,-0.09936895,4.9988923,-1
1317,1318,1580728785032,1.0727,-3.8997,-4.2753,0.91796565,-0.122439474,4.36982,-1
